onset	duration	trial_type	event_type	block	trial_total	trial_in_block	food_image_code	food_image_path	button_position	resp_position	resp_choice	choice_rt	resp_too_slow	sample	trigger
281.955078125	2	n/a	blockStart	1	n/a	n/a	n/a	n/a	n/a	n/a	n/a	n/a	n/a	144362	250
283.9921875	1	taste	trialStart	1	1	1	foodImage.117	FOODEEG_Images\0925.jpg	YN	Right	No	1.25991119991522	0	145405	251
285.037109375	2	taste	foodImageDisplay	1	1	1	foodImage.117	FOODEEG_Images\0925.jpg	YN	Right	No	1.25991119991522	0	145940	252
287.1015625	1.25991119991522	taste	choicePhaseStart	1	1	1	foodImage.117	FOODEEG_Images\0925.jpg	YN	Right	No	1.25991119991522	0	146997	253
288.35546875	0	taste	response	1	1	1	foodImage.117	FOODEEG_Images\0925.jpg	YN	Right	No	1.25991119991522	0	147639	235
289.44140625	1	decision	trialStart	1	2	2	foodImage.80	FOODEEG_Images\0796.jpg	NY	Left	No	1.04561759997159	0	148195	251
290.5	2	decision	foodImageDisplay	1	2	2	foodImage.80	FOODEEG_Images\0796.jpg	NY	Left	No	1.04561759997159	0	148737	252
292.564453125	1.04561759997159	decision	choicePhaseStart	1	2	2	foodImage.80	FOODEEG_Images\0796.jpg	NY	Left	No	1.04561759997159	0	149794	253
293.6015625	0	decision	response	1	2	2	foodImage.80	FOODEEG_Images\0796.jpg	NY	Left	No	1.04561759997159	0	150325	234
294.658203125	1	decision	trialStart	1	3	3	foodImage.79	FOODEEG_Images\0794.jpg	NY	Right	Yes	0.584935299935751	0	150866	251
295.703125	2	decision	foodImageDisplay	1	3	3	foodImage.79	FOODEEG_Images\0794.jpg	NY	Right	Yes	0.584935299935751	0	151401	252
297.767578125	0.584935299935751	decision	choicePhaseStart	1	3	3	foodImage.79	FOODEEG_Images\0794.jpg	NY	Right	Yes	0.584935299935751	0	152458	253
298.345703125	0	decision	response	1	3	3	foodImage.79	FOODEEG_Images\0794.jpg	NY	Right	Yes	0.584935299935751	0	152754	235
299.392578125	1	decision	trialStart	1	4	4	foodImage.34	FOODEEG_Images\0339.jpg	NY	Right	Yes	0.74583689996507	0	153290	251
300.4765625	2	decision	foodImageDisplay	1	4	4	foodImage.34	FOODEEG_Images\0339.jpg	NY	Right	Yes	0.74583689996507	0	153845	252
302.544921875	0.74583689996507	decision	choicePhaseStart	1	4	4	foodImage.34	FOODEEG_Images\0339.jpg	NY	Right	Yes	0.74583689996507	0	154904	253
303.28125	0	decision	response	1	4	4	foodImage.34	FOODEEG_Images\0339.jpg	NY	Right	Yes	0.74583689996507	0	155281	235
304.326171875	1	decision	trialStart	1	5	5	foodImage.77	FOODEEG_Images\0771.jpg	NY	Right	Yes	0.608713300083764	0	155816	251
305.373046875	2	decision	foodImageDisplay	1	5	5	foodImage.77	FOODEEG_Images\0771.jpg	NY	Right	Yes	0.608713300083764	0	156352	252
307.439453125	0.608713300083764	decision	choicePhaseStart	1	5	5	foodImage.77	FOODEEG_Images\0771.jpg	NY	Right	Yes	0.608713300083764	0	157410	253
308.041015625	0	decision	response	1	5	5	foodImage.77	FOODEEG_Images\0771.jpg	NY	Right	Yes	0.608713300083764	0	157718	235
309.09375	1	decision	trialStart	1	6	6	foodImage.10	FOODEEG_Images\0145.jpg	YN	Right	No	0.559453599969856	0	158257	251
310.158203125	2	decision	foodImageDisplay	1	6	6	foodImage.10	FOODEEG_Images\0145.jpg	YN	Right	No	0.559453599969856	0	158802	252
312.22265625	0.559453599969856	decision	choicePhaseStart	1	6	6	foodImage.10	FOODEEG_Images\0145.jpg	YN	Right	No	0.559453599969856	0	159859	253
312.77734375	0	decision	response	1	6	6	foodImage.10	FOODEEG_Images\0145.jpg	YN	Right	No	0.559453599969856	0	160143	235
313.822265625	1	decision	trialStart	1	7	7	foodImage.85	FOODEEG_Images\0841.jpg	NY	Right	Yes	0.668906399980187	0	160678	251
314.888671875	2	decision	foodImageDisplay	1	7	7	foodImage.85	FOODEEG_Images\0841.jpg	NY	Right	Yes	0.668906399980187	0	161224	252
316.955078125	0.668906399980187	decision	choicePhaseStart	1	7	7	foodImage.85	FOODEEG_Images\0841.jpg	NY	Right	Yes	0.668906399980187	0	162282	253
317.6171875	0	decision	response	1	7	7	foodImage.85	FOODEEG_Images\0841.jpg	NY	Right	Yes	0.668906399980187	0	162621	235
318.66015625	1	health	trialStart	1	8	8	foodImage.100	FOODEEG_Images\0908.jpg	YN	Right	No	0.999349600053392	0	163155	251
319.69921875	2	health	foodImageDisplay	1	8	8	foodImage.100	FOODEEG_Images\0908.jpg	YN	Right	No	0.999349600053392	0	163687	252
321.76171875	0.999349600053392	health	choicePhaseStart	1	8	8	foodImage.100	FOODEEG_Images\0908.jpg	YN	Right	No	0.999349600053392	0	164743	253
322.751953125	0	health	response	1	8	8	foodImage.100	FOODEEG_Images\0908.jpg	YN	Right	No	0.999349600053392	0	165250	235
323.796875	1	health	trialStart	1	9	9	foodImage.55	FOODEEG_Images\0567.jpg	NY	Right	Yes	1.30772539996542	0	165785	251
324.853515625	2	health	foodImageDisplay	1	9	9	foodImage.55	FOODEEG_Images\0567.jpg	NY	Right	Yes	1.30772539996542	0	166326	252
326.91796875	1.30772539996542	health	choicePhaseStart	1	9	9	foodImage.55	FOODEEG_Images\0567.jpg	NY	Right	Yes	1.30772539996542	0	167383	253
328.216796875	0	health	response	1	9	9	foodImage.55	FOODEEG_Images\0567.jpg	NY	Right	Yes	1.30772539996542	0	168048	235
329.26171875	1	decision	trialStart	1	10	10	foodImage.49	FOODEEG_Images\0515.jpg	YN	Right	No	1.0480222000042	0	168583	251
330.3046875	2	decision	foodImageDisplay	1	10	10	foodImage.49	FOODEEG_Images\0515.jpg	YN	Right	No	1.0480222000042	0	169117	252
332.369140625	1.0480222000042	decision	choicePhaseStart	1	10	10	foodImage.49	FOODEEG_Images\0515.jpg	YN	Right	No	1.0480222000042	0	170174	253
333.408203125	0	decision	response	1	10	10	foodImage.49	FOODEEG_Images\0515.jpg	YN	Right	No	1.0480222000042	0	170706	235
334.451171875	1	health	trialStart	1	11	11	foodImage.1	FOODEEG_Images\0004.jpg	NY	Left	No	0.707293499959633	0	171240	251
335.494140625	2	health	foodImageDisplay	1	11	11	foodImage.1	FOODEEG_Images\0004.jpg	NY	Left	No	0.707293499959633	0	171774	252
337.55859375	0.707293499959633	health	choicePhaseStart	1	11	11	foodImage.1	FOODEEG_Images\0004.jpg	NY	Left	No	0.707293499959633	0	172831	253
338.255859375	0	health	response	1	11	11	foodImage.1	FOODEEG_Images\0004.jpg	NY	Left	No	0.707293499959633	0	173188	234
339.30078125	1	taste	trialStart	1	12	12	foodImage.39	FOODEEG_Images\0367.jpg	YN	Right	No	0.842719799955375	0	173723	251
340.33984375	2	taste	foodImageDisplay	1	12	12	foodImage.39	FOODEEG_Images\0367.jpg	YN	Right	No	0.842719799955375	0	174255	252
342.404296875	0.842719799955375	taste	choicePhaseStart	1	12	12	foodImage.39	FOODEEG_Images\0367.jpg	YN	Right	No	0.842719799955375	0	175312	253
343.240234375	0	taste	response	1	12	12	foodImage.39	FOODEEG_Images\0367.jpg	YN	Right	No	0.842719799955375	0	175740	235
344.28515625	1	taste	trialStart	1	13	13	foodImage.50	FOODEEG_Images\0529.jpg	NY	Left	No	0.952950699953362	0	176275	251
345.34375	2	taste	foodImageDisplay	1	13	13	foodImage.50	FOODEEG_Images\0529.jpg	NY	Left	No	0.952950699953362	0	176817	252
347.408203125	0.952950699953362	taste	choicePhaseStart	1	13	13	foodImage.50	FOODEEG_Images\0529.jpg	NY	Left	No	0.952950699953362	0	177874	253
348.3515625	0	taste	response	1	13	13	foodImage.50	FOODEEG_Images\0529.jpg	NY	Left	No	0.952950699953362	0	178357	234
349.396484375	1	decision	trialStart	1	14	14	foodImage.102	FOODEEG_Images\0910.jpg	YN	Right	No	0.835589000023901	0	178892	251
350.435546875	2	decision	foodImageDisplay	1	14	14	foodImage.102	FOODEEG_Images\0910.jpg	YN	Right	No	0.835589000023901	0	179424	252
352.501953125	0.835589000023901	decision	choicePhaseStart	1	14	14	foodImage.102	FOODEEG_Images\0910.jpg	YN	Right	No	0.835589000023901	0	180482	253
353.328125	0	decision	response	1	14	14	foodImage.102	FOODEEG_Images\0910.jpg	YN	Right	No	0.835589000023901	0	180905	235
354.37109375	1	taste	trialStart	1	15	15	foodImage.13	FOODEEG_Images\0183.jpg	YN	Right	No	0.770123000023887	0	181439	251
355.4296875	2	taste	foodImageDisplay	1	15	15	foodImage.13	FOODEEG_Images\0183.jpg	YN	Right	No	0.770123000023887	0	181981	252
357.494140625	0.770123000023887	taste	choicePhaseStart	1	15	15	foodImage.13	FOODEEG_Images\0183.jpg	YN	Right	No	0.770123000023887	0	183038	253
358.255859375	0	taste	response	1	15	15	foodImage.13	FOODEEG_Images\0183.jpg	YN	Right	No	0.770123000023887	0	183428	235
359.298828125	1	health	trialStart	1	16	16	foodImage.21	FOODEEG_Images\0234.jpg	YN	Left	Yes	0.777750600012951	0	183962	251
360.359375	2	health	foodImageDisplay	1	16	16	foodImage.21	FOODEEG_Images\0234.jpg	YN	Left	Yes	0.777750600012951	0	184505	252
362.423828125	0.777750600012951	health	choicePhaseStart	1	16	16	foodImage.21	FOODEEG_Images\0234.jpg	YN	Left	Yes	0.777750600012951	0	185562	253
363.19140625	0	health	response	1	16	16	foodImage.21	FOODEEG_Images\0234.jpg	YN	Left	Yes	0.777750600012951	0	185955	234
364.234375	1	health	trialStart	1	17	17	foodImage.84	FOODEEG_Images\0830.jpg	YN	Left	Yes	1.14110349991824	0	186489	251
365.291015625	2	health	foodImageDisplay	1	17	17	foodImage.84	FOODEEG_Images\0830.jpg	YN	Left	Yes	1.14110349991824	0	187030	252
367.35546875	1.14110349991824	health	choicePhaseStart	1	17	17	foodImage.84	FOODEEG_Images\0830.jpg	YN	Left	Yes	1.14110349991824	0	188087	253
368.48828125	0	health	response	1	17	17	foodImage.84	FOODEEG_Images\0830.jpg	YN	Left	Yes	1.14110349991824	0	188667	234
369.529296875	1	decision	trialStart	1	18	18	foodImage.92	FOODEEG_Images\0900.jpg	YN	Right	No	0.670081999967806	0	189200	251
370.5859375	2	decision	foodImageDisplay	1	18	18	foodImage.92	FOODEEG_Images\0900.jpg	YN	Right	No	0.670081999967806	0	189741	252
372.650390625	0.670081999967806	decision	choicePhaseStart	1	18	18	foodImage.92	FOODEEG_Images\0900.jpg	YN	Right	No	0.670081999967806	0	190798	253
373.310546875	0	decision	response	1	18	18	foodImage.92	FOODEEG_Images\0900.jpg	YN	Right	No	0.670081999967806	0	191136	235
374.353515625	1	health	trialStart	1	19	19	foodImage.88	FOODEEG_Images\0878.jpg	YN	Right	No	0.886584399966523	0	191670	251
375.408203125	2	health	foodImageDisplay	1	19	19	foodImage.88	FOODEEG_Images\0878.jpg	YN	Right	No	0.886584399966523	0	192210	252
377.47265625	0.886584399966523	health	choicePhaseStart	1	19	19	foodImage.88	FOODEEG_Images\0878.jpg	YN	Right	No	0.886584399966523	0	193267	253
378.349609375	0	health	response	1	19	19	foodImage.88	FOODEEG_Images\0878.jpg	YN	Right	No	0.886584399966523	0	193716	235
379.392578125	1	decision	trialStart	1	20	20	foodImage.37	FOODEEG_Images\0359.jpg	YN	Right	No	0.709832699969411	0	194250	251
380.435546875	2	decision	foodImageDisplay	1	20	20	foodImage.37	FOODEEG_Images\0359.jpg	YN	Right	No	0.709832699969411	0	194784	252
382.498046875	0.709832699969411	decision	choicePhaseStart	1	20	20	foodImage.37	FOODEEG_Images\0359.jpg	YN	Right	No	0.709832699969411	0	195840	253
383.19921875	0	decision	response	1	20	20	foodImage.37	FOODEEG_Images\0359.jpg	YN	Right	No	0.709832699969411	0	196199	235
384.2421875	1	decision	trialStart	1	21	21	foodImage.109	FOODEEG_Images\0917.jpg	YN	Right	No	0.811877400032245	0	196733	251
385.283203125	2	decision	foodImageDisplay	1	21	21	foodImage.109	FOODEEG_Images\0917.jpg	YN	Right	No	0.811877400032245	0	197266	252
387.345703125	0.811877400032245	decision	choicePhaseStart	1	21	21	foodImage.109	FOODEEG_Images\0917.jpg	YN	Right	No	0.811877400032245	0	198322	253
388.150390625	0	decision	response	1	21	21	foodImage.109	FOODEEG_Images\0917.jpg	YN	Right	No	0.811877400032245	0	198734	235
389.201171875	1	taste	trialStart	1	22	22	foodImage.40	FOODEEG_Images\0373.jpg	YN	Left	Yes	0.695899799931794	0	199272	251
390.24609375	2	taste	foodImageDisplay	1	22	22	foodImage.40	FOODEEG_Images\0373.jpg	YN	Left	Yes	0.695899799931794	0	199807	252
392.310546875	0.695899799931794	taste	choicePhaseStart	1	22	22	foodImage.40	FOODEEG_Images\0373.jpg	YN	Left	Yes	0.695899799931794	0	200864	253
392.998046875	0	taste	response	1	22	22	foodImage.40	FOODEEG_Images\0373.jpg	YN	Left	Yes	0.695899799931794	0	201216	234
394.041015625	1	health	trialStart	1	23	23	foodImage.120	FOODEEG_Images\0928.jpg	NY	Left	No	1.03073240001686	0	201750	251
395.080078125	2	health	foodImageDisplay	1	23	23	foodImage.120	FOODEEG_Images\0928.jpg	NY	Left	No	1.03073240001686	0	202282	252
397.14453125	1.03073240001686	health	choicePhaseStart	1	23	23	foodImage.120	FOODEEG_Images\0928.jpg	NY	Left	No	1.03073240001686	0	203339	253
398.166015625	0	health	response	1	23	23	foodImage.120	FOODEEG_Images\0928.jpg	NY	Left	No	1.03073240001686	0	203862	234
399.20703125	1	decision	trialStart	1	24	24	foodImage.103	FOODEEG_Images\0911.jpg	NY	Left	No	0.698431400000118	0	204395	251
400.24609375	2	decision	foodImageDisplay	1	24	24	foodImage.103	FOODEEG_Images\0911.jpg	NY	Left	No	0.698431400000118	0	204927	252
402.30859375	0.698431400000118	decision	choicePhaseStart	1	24	24	foodImage.103	FOODEEG_Images\0911.jpg	NY	Left	No	0.698431400000118	0	205983	253
402.998046875	0	decision	response	1	24	24	foodImage.103	FOODEEG_Images\0911.jpg	NY	Left	No	0.698431400000118	0	206336	234
404.041015625	1	health	trialStart	1	25	25	foodImage.75	FOODEEG_Images\0763.jpg	NY	Right	Yes	0.619520999956876	0	206870	251
405.083984375	2	health	foodImageDisplay	1	25	25	foodImage.75	FOODEEG_Images\0763.jpg	NY	Right	Yes	0.619520999956876	0	207404	252
407.1484375	0.619520999956876	health	choicePhaseStart	1	25	25	foodImage.75	FOODEEG_Images\0763.jpg	NY	Right	Yes	0.619520999956876	0	208461	253
407.7578125	0	health	response	1	25	25	foodImage.75	FOODEEG_Images\0763.jpg	NY	Right	Yes	0.619520999956876	0	208773	235
408.798828125	1	decision	trialStart	1	26	26	foodImage.58	FOODEEG_Images\0605.jpg	YN	Right	No	1.25535650004167	0	209306	251
409.857421875	2	decision	foodImageDisplay	1	26	26	foodImage.58	FOODEEG_Images\0605.jpg	YN	Right	No	1.25535650004167	0	209848	252
411.919921875	1.25535650004167	decision	choicePhaseStart	1	26	26	foodImage.58	FOODEEG_Images\0605.jpg	YN	Right	No	1.25535650004167	0	210904	253
413.166015625	0	decision	response	1	26	26	foodImage.58	FOODEEG_Images\0605.jpg	YN	Right	No	1.25535650004167	0	211542	235
414.20703125	1	decision	trialStart	1	27	27	foodImage.43	FOODEEG_Images\0445.jpg	YN	Left	Yes	0.808826299966313	0	212075	251
415.26171875	2	decision	foodImageDisplay	1	27	27	foodImage.43	FOODEEG_Images\0445.jpg	YN	Left	Yes	0.808826299966313	0	212615	252
417.326171875	0.808826299966313	decision	choicePhaseStart	1	27	27	foodImage.43	FOODEEG_Images\0445.jpg	YN	Left	Yes	0.808826299966313	0	213672	253
418.125	0	decision	response	1	27	27	foodImage.43	FOODEEG_Images\0445.jpg	YN	Left	Yes	0.808826299966313	0	214081	234
419.16796875	1	taste	trialStart	1	28	28	foodImage.94	FOODEEG_Images\0902.jpg	YN	Right	No	0.703108999994583	0	214615	251
420.20703125	2	taste	foodImageDisplay	1	28	28	foodImage.94	FOODEEG_Images\0902.jpg	YN	Right	No	0.703108999994583	0	215147	252
422.271484375	0.703108999994583	taste	choicePhaseStart	1	28	28	foodImage.94	FOODEEG_Images\0902.jpg	YN	Right	No	0.703108999994583	0	216204	253
422.96484375	0	taste	response	1	28	28	foodImage.94	FOODEEG_Images\0902.jpg	YN	Right	No	0.703108999994583	0	216559	235
424.005859375	1	decision	trialStart	1	29	29	foodImage.57	FOODEEG_Images\0587.jpg	YN	Right	No	0.819705600035377	0	217092	251
425.048828125	2	decision	foodImageDisplay	1	29	29	foodImage.57	FOODEEG_Images\0587.jpg	YN	Right	No	0.819705600035377	0	217626	252
427.11328125	0.819705600035377	decision	choicePhaseStart	1	29	29	foodImage.57	FOODEEG_Images\0587.jpg	YN	Right	No	0.819705600035377	0	218683	253
427.923828125	0	decision	response	1	29	29	foodImage.57	FOODEEG_Images\0587.jpg	YN	Right	No	0.819705600035377	0	219098	235
428.966796875	1	taste	trialStart	1	30	30	foodImage.22	FOODEEG_Images\0236.jpg	YN	Left	Yes	0.789591200067662	0	219632	251
430.0078125	2	taste	foodImageDisplay	1	30	30	foodImage.22	FOODEEG_Images\0236.jpg	YN	Left	Yes	0.789591200067662	0	220165	252
432.072265625	0.789591200067662	taste	choicePhaseStart	1	30	30	foodImage.22	FOODEEG_Images\0236.jpg	YN	Left	Yes	0.789591200067662	0	221222	253
432.8515625	0	taste	response	1	30	30	foodImage.22	FOODEEG_Images\0236.jpg	YN	Left	Yes	0.789591200067662	0	221621	234
433.89453125	1	health	trialStart	1	31	31	foodImage.117	FOODEEG_Images\0925.jpg	NY	Right	Yes	0.864675500080921	0	222155	251
434.93359375	2	health	foodImageDisplay	1	31	31	foodImage.117	FOODEEG_Images\0925.jpg	NY	Right	Yes	0.864675500080921	0	222687	252
436.99609375	0.864675500080921	health	choicePhaseStart	1	31	31	foodImage.117	FOODEEG_Images\0925.jpg	NY	Right	Yes	0.864675500080921	0	223743	253
437.8515625	0	health	response	1	31	31	foodImage.117	FOODEEG_Images\0925.jpg	NY	Right	Yes	0.864675500080921	0	224181	235
438.89453125	1	health	trialStart	1	32	32	foodImage.44	FOODEEG_Images\0459.jpg	NY	Right	Yes	0.561415600008331	0	224715	251
439.94140625	2	health	foodImageDisplay	1	32	32	foodImage.44	FOODEEG_Images\0459.jpg	NY	Right	Yes	0.561415600008331	0	225251	252
442.00390625	0.561415600008331	health	choicePhaseStart	1	32	32	foodImage.44	FOODEEG_Images\0459.jpg	NY	Right	Yes	0.561415600008331	0	226307	253
442.556640625	0	health	response	1	32	32	foodImage.44	FOODEEG_Images\0459.jpg	NY	Right	Yes	0.561415600008331	0	226590	235
443.599609375	1	health	trialStart	1	33	33	foodImage.45	FOODEEG_Images\0478.jpg	YN	Left	Yes	0.819813400041312	0	227124	251
444.642578125	2	health	foodImageDisplay	1	33	33	foodImage.45	FOODEEG_Images\0478.jpg	YN	Left	Yes	0.819813400041312	0	227658	252
446.705078125	0.819813400041312	health	choicePhaseStart	1	33	33	foodImage.45	FOODEEG_Images\0478.jpg	YN	Left	Yes	0.819813400041312	0	228714	253
447.515625	0	health	response	1	33	33	foodImage.45	FOODEEG_Images\0478.jpg	YN	Left	Yes	0.819813400041312	0	229129	234
448.560546875	1	taste	trialStart	1	34	34	foodImage.56	FOODEEG_Images\0586.jpg	YN	Right	No	0.706584300030954	0	229664	251
449.603515625	2	taste	foodImageDisplay	1	34	34	foodImage.56	FOODEEG_Images\0586.jpg	YN	Right	No	0.706584300030954	0	230198	252
451.666015625	0.706584300030954	taste	choicePhaseStart	1	34	34	foodImage.56	FOODEEG_Images\0586.jpg	YN	Right	No	0.706584300030954	0	231254	253
452.36328125	0	taste	response	1	34	34	foodImage.56	FOODEEG_Images\0586.jpg	YN	Right	No	0.706584300030954	0	231611	235
453.40625	1	health	trialStart	1	35	35	foodImage.74	FOODEEG_Images\0752.jpg	NY	Right	Yes	0.737747599952854	0	232145	251
454.451171875	2	health	foodImageDisplay	1	35	35	foodImage.74	FOODEEG_Images\0752.jpg	NY	Right	Yes	0.737747599952854	0	232680	252
456.513671875	0.737747599952854	health	choicePhaseStart	1	35	35	foodImage.74	FOODEEG_Images\0752.jpg	NY	Right	Yes	0.737747599952854	0	233736	253
457.244140625	0	health	response	1	35	35	foodImage.74	FOODEEG_Images\0752.jpg	NY	Right	Yes	0.737747599952854	0	234110	235
458.2890625	1	decision	trialStart	1	36	36	foodImage.111	FOODEEG_Images\0919.jpg	NY	Left	No	1.25914280000143	0	234645	251
459.328125	2	decision	foodImageDisplay	1	36	36	foodImage.111	FOODEEG_Images\0919.jpg	NY	Left	No	1.25914280000143	0	235177	252
461.390625	1.25914280000143	decision	choicePhaseStart	1	36	36	foodImage.111	FOODEEG_Images\0919.jpg	NY	Left	No	1.25914280000143	0	236233	253
462.642578125	0	decision	response	1	36	36	foodImage.111	FOODEEG_Images\0919.jpg	NY	Left	No	1.25914280000143	0	236874	234
463.685546875	1	health	trialStart	1	37	37	foodImage.90	FOODEEG_Images\0890.jpg	YN	Left	Yes	0.704172299942002	0	237408	251
464.7421875	2	health	foodImageDisplay	1	37	37	foodImage.90	FOODEEG_Images\0890.jpg	YN	Left	Yes	0.704172299942002	0	237949	252
466.810546875	0.704172299942002	health	choicePhaseStart	1	37	37	foodImage.90	FOODEEG_Images\0890.jpg	YN	Left	Yes	0.704172299942002	0	239008	253
467.5078125	0	health	response	1	37	37	foodImage.90	FOODEEG_Images\0890.jpg	YN	Left	Yes	0.704172299942002	0	239365	234
468.55078125	1	decision	trialStart	1	38	38	foodImage.93	FOODEEG_Images\0901.jpg	YN	Right	No	1.12667969998438	0	239899	251
469.58984375	2	decision	foodImageDisplay	1	38	38	foodImage.93	FOODEEG_Images\0901.jpg	YN	Right	No	1.12667969998438	0	240431	252
471.654296875	1.12667969998438	decision	choicePhaseStart	1	38	38	foodImage.93	FOODEEG_Images\0901.jpg	YN	Right	No	1.12667969998438	0	241488	253
472.771484375	0	decision	response	1	38	38	foodImage.93	FOODEEG_Images\0901.jpg	YN	Right	No	1.12667969998438	0	242060	235
473.814453125	1	health	trialStart	1	39	39	foodImage.77	FOODEEG_Images\0771.jpg	YN	Left	Yes	0.594397899927571	0	242594	251
474.857421875	2	health	foodImageDisplay	1	39	39	foodImage.77	FOODEEG_Images\0771.jpg	YN	Left	Yes	0.594397899927571	0	243128	252
476.921875	0.594397899927571	health	choicePhaseStart	1	39	39	foodImage.77	FOODEEG_Images\0771.jpg	YN	Left	Yes	0.594397899927571	0	244185	253
477.505859375	0	health	response	1	39	39	foodImage.77	FOODEEG_Images\0771.jpg	YN	Left	Yes	0.594397899927571	0	244484	234
478.548828125	1	decision	trialStart	1	40	40	foodImage.107	FOODEEG_Images\0915.jpg	YN	Right	No	0.599185299943201	0	245018	251
479.58984375	2	decision	foodImageDisplay	1	40	40	foodImage.107	FOODEEG_Images\0915.jpg	YN	Right	No	0.599185299943201	0	245551	252
481.65234375	0.599185299943201	decision	choicePhaseStart	1	40	40	foodImage.107	FOODEEG_Images\0915.jpg	YN	Right	No	0.599185299943201	0	246607	253
482.2421875	0	decision	response	1	40	40	foodImage.107	FOODEEG_Images\0915.jpg	YN	Right	No	0.599185299943201	0	246909	235
483.28515625	1	decision	trialStart	1	41	41	foodImage.5	FOODEEG_Images\0107.jpg	NY	Left	No	0.834757499978878	0	247443	251
484.341796875	2	decision	foodImageDisplay	1	41	41	foodImage.5	FOODEEG_Images\0107.jpg	NY	Left	No	0.834757499978878	0	247984	252
486.41015625	0.834757499978878	decision	choicePhaseStart	1	41	41	foodImage.5	FOODEEG_Images\0107.jpg	NY	Left	No	0.834757499978878	0	249043	253
487.234375	0	decision	response	1	41	41	foodImage.5	FOODEEG_Images\0107.jpg	NY	Left	No	0.834757499978878	0	249465	234
488.27734375	1	decision	trialStart	1	42	42	foodImage.70	FOODEEG_Images\0705.jpg	YN	Right	No	0.703845000010915	0	249999	251
489.33203125	2	decision	foodImageDisplay	1	42	42	foodImage.70	FOODEEG_Images\0705.jpg	YN	Right	No	0.703845000010915	0	250539	252
491.396484375	0.703845000010915	decision	choicePhaseStart	1	42	42	foodImage.70	FOODEEG_Images\0705.jpg	YN	Right	No	0.703845000010915	0	251596	253
492.08984375	0	decision	response	1	42	42	foodImage.70	FOODEEG_Images\0705.jpg	YN	Right	No	0.703845000010915	0	251951	235
493.1328125	1	health	trialStart	1	43	43	foodImage.104	FOODEEG_Images\0912.jpg	YN	Left	Yes	0.704602099955082	0	252485	251
494.169921875	2	health	foodImageDisplay	1	43	43	foodImage.104	FOODEEG_Images\0912.jpg	YN	Left	Yes	0.704602099955082	0	253016	252
496.234375	0.704602099955082	health	choicePhaseStart	1	43	43	foodImage.104	FOODEEG_Images\0912.jpg	YN	Left	Yes	0.704602099955082	0	254073	253
496.9296875	0	health	response	1	43	43	foodImage.104	FOODEEG_Images\0912.jpg	YN	Left	Yes	0.704602099955082	0	254429	234
497.974609375	1	decision	trialStart	1	44	44	foodImage.26	FOODEEG_Images\0262.jpg	YN	Left	Yes	0.553912799921818	0	254964	251
499.015625	2	decision	foodImageDisplay	1	44	44	foodImage.26	FOODEEG_Images\0262.jpg	YN	Left	Yes	0.553912799921818	0	255497	252
501.080078125	0.553912799921818	decision	choicePhaseStart	1	44	44	foodImage.26	FOODEEG_Images\0262.jpg	YN	Left	Yes	0.553912799921818	0	256554	253
501.625	0	decision	response	1	44	44	foodImage.26	FOODEEG_Images\0262.jpg	YN	Left	Yes	0.553912799921818	0	256833	234
502.666015625	1	health	trialStart	1	45	45	foodImage.53	FOODEEG_Images\0547.jpg	NY	Left	No	1.34894589998294	0	257366	251
503.7265625	2	health	foodImageDisplay	1	45	45	foodImage.53	FOODEEG_Images\0547.jpg	NY	Left	No	1.34894589998294	0	257909	252
505.7890625	1.34894589998294	health	choicePhaseStart	1	45	45	foodImage.53	FOODEEG_Images\0547.jpg	NY	Left	No	1.34894589998294	0	258965	253
507.12890625	0	health	response	1	45	45	foodImage.53	FOODEEG_Images\0547.jpg	NY	Left	No	1.34894589998294	0	259651	234
508.173828125	1	taste	trialStart	1	46	46	foodImage.51	FOODEEG_Images\0536.jpg	YN	Right	No	0.681752300006337	0	260186	251
509.21875	2	taste	foodImageDisplay	1	46	46	foodImage.51	FOODEEG_Images\0536.jpg	YN	Right	No	0.681752300006337	0	260721	252
511.28125	0.681752300006337	taste	choicePhaseStart	1	46	46	foodImage.51	FOODEEG_Images\0536.jpg	YN	Right	No	0.681752300006337	0	261777	253
511.953125	0	taste	response	1	46	46	foodImage.51	FOODEEG_Images\0536.jpg	YN	Right	No	0.681752300006337	0	262121	235
512.99609375	1	health	trialStart	1	47	47	foodImage.66	FOODEEG_Images\0676.jpg	NY	Left	No	1.02123419998679	0	262655	251
514.037109375	2	health	foodImageDisplay	1	47	47	foodImage.66	FOODEEG_Images\0676.jpg	NY	Left	No	1.02123419998679	0	263188	252
516.1015625	1.02123419998679	health	choicePhaseStart	1	47	47	foodImage.66	FOODEEG_Images\0676.jpg	NY	Left	No	1.02123419998679	0	264245	253
517.11328125	0	health	response	1	47	47	foodImage.66	FOODEEG_Images\0676.jpg	NY	Left	No	1.02123419998679	0	264763	234
518.15625	1	decision	trialStart	1	48	48	foodImage.15	FOODEEG_Images\0189.jpg	NY	Right	Yes	0.587375700008124	0	265297	251
519.216796875	2	decision	foodImageDisplay	1	48	48	foodImage.15	FOODEEG_Images\0189.jpg	NY	Right	Yes	0.587375700008124	0	265840	252
521.279296875	0.587375700008124	decision	choicePhaseStart	1	48	48	foodImage.15	FOODEEG_Images\0189.jpg	NY	Right	Yes	0.587375700008124	0	266896	253
521.857421875	0	decision	response	1	48	48	foodImage.15	FOODEEG_Images\0189.jpg	NY	Right	Yes	0.587375700008124	0	267192	235
522.90234375	1	decision	trialStart	1	49	49	foodImage.7	FOODEEG_Images\0116.jpg	YN	Left	Yes	0.748257700004615	0	267727	251
523.943359375	2	decision	foodImageDisplay	1	49	49	foodImage.7	FOODEEG_Images\0116.jpg	YN	Left	Yes	0.748257700004615	0	268260	252
526.005859375	0.748257700004615	decision	choicePhaseStart	1	49	49	foodImage.7	FOODEEG_Images\0116.jpg	YN	Left	Yes	0.748257700004615	0	269316	253
526.744140625	0	decision	response	1	49	49	foodImage.7	FOODEEG_Images\0116.jpg	YN	Left	Yes	0.748257700004615	0	269694	234
527.783203125	1	decision	trialStart	1	50	50	foodImage.104	FOODEEG_Images\0912.jpg	YN	Right	No	0.862158500007354	0	270226	251
528.8203125	2	decision	foodImageDisplay	1	50	50	foodImage.104	FOODEEG_Images\0912.jpg	YN	Right	No	0.862158500007354	0	270757	252
530.888671875	0.862158500007354	decision	choicePhaseStart	1	50	50	foodImage.104	FOODEEG_Images\0912.jpg	YN	Right	No	0.862158500007354	0	271816	253
531.744140625	0	decision	response	1	50	50	foodImage.104	FOODEEG_Images\0912.jpg	YN	Right	No	0.862158500007354	0	272254	235
532.7890625	1	decision	trialStart	1	51	51	foodImage.76	FOODEEG_Images\0766.jpg	NY	Left	No	0.982357000000775	0	272789	251
533.83203125	2	decision	foodImageDisplay	1	51	51	foodImage.76	FOODEEG_Images\0766.jpg	NY	Left	No	0.982357000000775	0	273323	252
535.900390625	0.982357000000775	decision	choicePhaseStart	1	51	51	foodImage.76	FOODEEG_Images\0766.jpg	NY	Left	No	0.982357000000775	0	274382	253
536.873046875	0	decision	response	1	51	51	foodImage.76	FOODEEG_Images\0766.jpg	NY	Left	No	0.982357000000775	0	274880	234
537.92578125	1	health	trialStart	1	52	52	foodImage.20	FOODEEG_Images\0226.jpg	NY	Left	No	1.25766300002579	0	275419	251
538.966796875	2	health	foodImageDisplay	1	52	52	foodImage.20	FOODEEG_Images\0226.jpg	NY	Left	No	1.25766300002579	0	275952	252
541.03125	1.25766300002579	health	choicePhaseStart	1	52	52	foodImage.20	FOODEEG_Images\0226.jpg	NY	Left	No	1.25766300002579	0	277009	253
542.279296875	0	health	response	1	52	52	foodImage.20	FOODEEG_Images\0226.jpg	NY	Left	No	1.25766300002579	0	277648	234
543.32421875	1	health	trialStart	1	53	53	foodImage.26	FOODEEG_Images\0262.jpg	NY	Right	Yes	0.7948638999369	0	278183	251
544.3671875	2	health	foodImageDisplay	1	53	53	foodImage.26	FOODEEG_Images\0262.jpg	NY	Right	Yes	0.7948638999369	0	278717	252
546.4296875	0.7948638999369	health	choicePhaseStart	1	53	53	foodImage.26	FOODEEG_Images\0262.jpg	NY	Right	Yes	0.7948638999369	0	279773	253
547.21484375	0	health	response	1	53	53	foodImage.26	FOODEEG_Images\0262.jpg	NY	Right	Yes	0.7948638999369	0	280175	235
548.26171875	1	decision	trialStart	1	54	54	foodImage.20	FOODEEG_Images\0226.jpg	YN	Right	No	0.794350199983455	0	280711	251
549.302734375	2	decision	foodImageDisplay	1	54	54	foodImage.20	FOODEEG_Images\0226.jpg	YN	Right	No	0.794350199983455	0	281244	252
551.3671875	0.794350199983455	decision	choicePhaseStart	1	54	54	foodImage.20	FOODEEG_Images\0226.jpg	YN	Right	No	0.794350199983455	0	282301	253
552.15234375	0	decision	response	1	54	54	foodImage.20	FOODEEG_Images\0226.jpg	YN	Right	No	0.794350199983455	0	282703	235
553.19140625	1	taste	trialStart	1	55	55	foodImage.63	FOODEEG_Images\0645.jpg	YN	Right	No	0.992555500008166	0	283235	251
554.232421875	2	taste	foodImageDisplay	1	55	55	foodImage.63	FOODEEG_Images\0645.jpg	YN	Right	No	0.992555500008166	0	283768	252
556.30078125	0.992555500008166	taste	choicePhaseStart	1	55	55	foodImage.63	FOODEEG_Images\0645.jpg	YN	Right	No	0.992555500008166	0	284827	253
557.287109375	0	taste	response	1	55	55	foodImage.63	FOODEEG_Images\0645.jpg	YN	Right	No	0.992555500008166	0	285332	235
558.33203125	1	health	trialStart	1	56	56	foodImage.46	FOODEEG_Images\0479.jpg	NY	Right	Yes	0.602217499981634	0	285867	251
559.38671875	2	health	foodImageDisplay	1	56	56	foodImage.46	FOODEEG_Images\0479.jpg	NY	Right	Yes	0.602217499981634	0	286407	252
561.451171875	0.602217499981634	health	choicePhaseStart	1	56	56	foodImage.46	FOODEEG_Images\0479.jpg	NY	Right	Yes	0.602217499981634	0	287464	253
562.046875	0	health	response	1	56	56	foodImage.46	FOODEEG_Images\0479.jpg	NY	Right	Yes	0.602217499981634	0	287769	235
563.091796875	1	health	trialStart	1	57	57	foodImage.5	FOODEEG_Images\0107.jpg	NY	Left	No	0.837771299993619	0	288304	251
564.1484375	2	health	foodImageDisplay	1	57	57	foodImage.5	FOODEEG_Images\0107.jpg	NY	Left	No	0.837771299993619	0	288845	252
566.2109375	0.837771299993619	health	choicePhaseStart	1	57	57	foodImage.5	FOODEEG_Images\0107.jpg	NY	Left	No	0.837771299993619	0	289901	253
567.0390625	0	health	response	1	57	57	foodImage.5	FOODEEG_Images\0107.jpg	NY	Left	No	0.837771299993619	0	290325	234
568.08203125	1	taste	trialStart	1	58	58	foodImage.29	FOODEEG_Images\0278.jpg	NY	Left	No	0.753612900036387	0	290859	251
569.126953125	2	taste	foodImageDisplay	1	58	58	foodImage.29	FOODEEG_Images\0278.jpg	NY	Left	No	0.753612900036387	0	291394	252
571.19140625	0.753612900036387	taste	choicePhaseStart	1	58	58	foodImage.29	FOODEEG_Images\0278.jpg	NY	Left	No	0.753612900036387	0	292451	253
571.935546875	0	taste	response	1	58	58	foodImage.29	FOODEEG_Images\0278.jpg	NY	Left	No	0.753612900036387	0	292832	234
572.974609375	1	health	trialStart	1	59	59	foodImage.50	FOODEEG_Images\0529.jpg	NY	Left	No	0.603126199916005	0	293364	251
574.029296875	2	health	foodImageDisplay	1	59	59	foodImage.50	FOODEEG_Images\0529.jpg	NY	Left	No	0.603126199916005	0	293904	252
576.091796875	0.603126199916005	health	choicePhaseStart	1	59	59	foodImage.50	FOODEEG_Images\0529.jpg	NY	Left	No	0.603126199916005	0	294960	253
576.6875	0	health	response	1	59	59	foodImage.50	FOODEEG_Images\0529.jpg	NY	Left	No	0.603126199916005	0	295265	234
577.73046875	1	health	trialStart	1	60	60	foodImage.110	FOODEEG_Images\0918.jpg	NY	Left	No	0.622061100089923	0	295799	251
578.767578125	2	health	foodImageDisplay	1	60	60	foodImage.110	FOODEEG_Images\0918.jpg	NY	Left	No	0.622061100089923	0	296330	252
580.83203125	0.622061100089923	health	choicePhaseStart	1	60	60	foodImage.110	FOODEEG_Images\0918.jpg	NY	Left	No	0.622061100089923	0	297387	253
581.447265625	0	health	response	1	60	60	foodImage.110	FOODEEG_Images\0918.jpg	NY	Left	No	0.622061100089923	0	297702	234
583.48828125	5.4140625	n/a	blockEnd	n/a	n/a	n/a	n/a	n/a	n/a	n/a	n/a	n/a	n/a	298747	254
588.90234375	2	n/a	blockStart	2	n/a	n/a	n/a	n/a	n/a	n/a	n/a	n/a	n/a	301519	250
590.9375	1	taste	trialStart	2	61	1	foodImage.120	FOODEEG_Images\0928.jpg	NY	Left	No	0.95805580005981	0	302561	251
591.984375	2	taste	foodImageDisplay	2	61	1	foodImage.120	FOODEEG_Images\0928.jpg	NY	Left	No	0.95805580005981	0	303097	252
594.046875	0.95805580005981	taste	choicePhaseStart	2	61	1	foodImage.120	FOODEEG_Images\0928.jpg	NY	Left	No	0.95805580005981	0	304153	253
594.998046875	0	taste	response	2	61	1	foodImage.120	FOODEEG_Images\0928.jpg	NY	Left	No	0.95805580005981	0	304640	234
596.041015625	1	decision	trialStart	2	62	2	foodImage.117	FOODEEG_Images\0925.jpg	NY	Left	No	0.695805600029416	0	305174	251
597.080078125	2	decision	foodImageDisplay	2	62	2	foodImage.117	FOODEEG_Images\0925.jpg	NY	Left	No	0.695805600029416	0	305706	252
599.142578125	0.695805600029416	decision	choicePhaseStart	2	62	2	foodImage.117	FOODEEG_Images\0925.jpg	NY	Left	No	0.695805600029416	0	306762	253
599.830078125	0	decision	response	2	62	2	foodImage.117	FOODEEG_Images\0925.jpg	NY	Left	No	0.695805600029416	0	307114	234
600.87109375	1	taste	trialStart	2	63	3	foodImage.33	FOODEEG_Images\0329.jpg	YN	Right	No	1.27081489993725	0	307647	251
601.9140625	2	taste	foodImageDisplay	2	63	3	foodImage.33	FOODEEG_Images\0329.jpg	YN	Right	No	1.27081489993725	0	308181	252
603.98046875	1.27081489993725	taste	choicePhaseStart	2	63	3	foodImage.33	FOODEEG_Images\0329.jpg	YN	Right	No	1.27081489993725	0	309239	253
605.24609375	0	taste	response	2	63	3	foodImage.33	FOODEEG_Images\0329.jpg	YN	Right	No	1.27081489993725	0	309887	235
606.2890625	1	taste	trialStart	2	64	4	foodImage.103	FOODEEG_Images\0911.jpg	YN	Right	No	0.769626700086519	0	310421	251
607.326171875	2	taste	foodImageDisplay	2	64	4	foodImage.103	FOODEEG_Images\0911.jpg	YN	Right	No	0.769626700086519	0	310952	252
609.388671875	0.769626700086519	taste	choicePhaseStart	2	64	4	foodImage.103	FOODEEG_Images\0911.jpg	YN	Right	No	0.769626700086519	0	312008	253
610.150390625	0	taste	response	2	64	4	foodImage.103	FOODEEG_Images\0911.jpg	YN	Right	No	0.769626700086519	0	312398	235
611.19140625	1	health	trialStart	2	65	5	foodImage.24	FOODEEG_Images\0250.jpg	NY	Right	Yes	0.652215699898079	0	312931	251
612.234375	2	health	foodImageDisplay	2	65	5	foodImage.24	FOODEEG_Images\0250.jpg	NY	Right	Yes	0.652215699898079	0	313465	252
614.298828125	0.652215699898079	health	choicePhaseStart	2	65	5	foodImage.24	FOODEEG_Images\0250.jpg	NY	Right	Yes	0.652215699898079	0	314522	253
614.94140625	0	health	response	2	65	5	foodImage.24	FOODEEG_Images\0250.jpg	NY	Right	Yes	0.652215699898079	0	314851	235
615.984375	1	health	trialStart	2	66	6	foodImage.51	FOODEEG_Images\0536.jpg	NY	Right	Yes	1.05729689996224	0	315385	251
617.029296875	2	health	foodImageDisplay	2	66	6	foodImage.51	FOODEEG_Images\0536.jpg	NY	Right	Yes	1.05729689996224	0	315920	252
619.091796875	1.05729689996224	health	choicePhaseStart	2	66	6	foodImage.51	FOODEEG_Images\0536.jpg	NY	Right	Yes	1.05729689996224	0	316976	253
620.140625	0	health	response	2	66	6	foodImage.51	FOODEEG_Images\0536.jpg	NY	Right	Yes	1.05729689996224	0	317513	235
621.18359375	1	taste	trialStart	2	67	7	foodImage.84	FOODEEG_Images\0830.jpg	NY	Right	Yes	0.955019699991681	0	318047	251
622.2421875	2	taste	foodImageDisplay	2	67	7	foodImage.84	FOODEEG_Images\0830.jpg	NY	Right	Yes	0.955019699991681	0	318589	252
624.306640625	0.955019699991681	taste	choicePhaseStart	2	67	7	foodImage.84	FOODEEG_Images\0830.jpg	NY	Right	Yes	0.955019699991681	0	319646	253
625.251953125	0	taste	response	2	67	7	foodImage.84	FOODEEG_Images\0830.jpg	NY	Right	Yes	0.955019699991681	0	320130	235
626.30078125	1	taste	trialStart	2	68	8	foodImage.3	FOODEEG_Images\0046.jpg	NY	Right	Yes	0.848754200036637	0	320667	251
627.34375	2	taste	foodImageDisplay	2	68	8	foodImage.3	FOODEEG_Images\0046.jpg	NY	Right	Yes	0.848754200036637	0	321201	252
629.40625	0.848754200036637	taste	choicePhaseStart	2	68	8	foodImage.3	FOODEEG_Images\0046.jpg	NY	Right	Yes	0.848754200036637	0	322257	253
630.244140625	0	taste	response	2	68	8	foodImage.3	FOODEEG_Images\0046.jpg	NY	Right	Yes	0.848754200036637	0	322686	235
631.29296875	1	decision	trialStart	2	69	9	foodImage.95	FOODEEG_Images\0903.jpg	YN	Left	Yes	0.739563500043005	0	323223	251
632.330078125	2	decision	foodImageDisplay	2	69	9	foodImage.95	FOODEEG_Images\0903.jpg	YN	Left	Yes	0.739563500043005	0	323754	252
634.392578125	0.739563500043005	decision	choicePhaseStart	2	69	9	foodImage.95	FOODEEG_Images\0903.jpg	YN	Left	Yes	0.739563500043005	0	324810	253
635.125	0	decision	response	2	69	9	foodImage.95	FOODEEG_Images\0903.jpg	YN	Left	Yes	0.739563500043005	0	325185	234
636.17578125	1	taste	trialStart	2	70	10	foodImage.44	FOODEEG_Images\0459.jpg	NY	Left	No	1.39233810000587	0	325723	251
637.22265625	2	taste	foodImageDisplay	2	70	10	foodImage.44	FOODEEG_Images\0459.jpg	NY	Left	No	1.39233810000587	0	326259	252
639.28515625	1.39233810000587	taste	choicePhaseStart	2	70	10	foodImage.44	FOODEEG_Images\0459.jpg	NY	Left	No	1.39233810000587	0	327315	253
640.66796875	0	taste	response	2	70	10	foodImage.44	FOODEEG_Images\0459.jpg	NY	Left	No	1.39233810000587	0	328023	234
641.7109375	1	health	trialStart	2	71	11	foodImage.25	FOODEEG_Images\0261.jpg	NY	Right	Yes	0.581407299963757	0	328557	251
642.751953125	2	health	foodImageDisplay	2	71	11	foodImage.25	FOODEEG_Images\0261.jpg	NY	Right	Yes	0.581407299963757	0	329090	252
644.81640625	0.581407299963757	health	choicePhaseStart	2	71	11	foodImage.25	FOODEEG_Images\0261.jpg	NY	Right	Yes	0.581407299963757	0	330147	253
645.388671875	0	health	response	2	71	11	foodImage.25	FOODEEG_Images\0261.jpg	NY	Right	Yes	0.581407299963757	0	330440	235
646.4296875	1	taste	trialStart	2	72	12	foodImage.42	FOODEEG_Images\0438.jpg	YN	Right	No	1.17323960002977	0	330973	251
647.51953125	2	taste	foodImageDisplay	2	72	12	foodImage.42	FOODEEG_Images\0438.jpg	YN	Right	No	1.17323960002977	0	331531	252
649.583984375	1.17323960002977	taste	choicePhaseStart	2	72	12	foodImage.42	FOODEEG_Images\0438.jpg	YN	Right	No	1.17323960002977	0	332588	253
650.748046875	0	taste	response	2	72	12	foodImage.42	FOODEEG_Images\0438.jpg	YN	Right	No	1.17323960002977	0	333184	235
651.791015625	1	health	trialStart	2	73	13	foodImage.114	FOODEEG_Images\0922.jpg	NY	Left	No	0.976576499990188	0	333718	251
652.830078125	2	health	foodImageDisplay	2	73	13	foodImage.114	FOODEEG_Images\0922.jpg	NY	Left	No	0.976576499990188	0	334250	252
654.892578125	0.976576499990188	health	choicePhaseStart	2	73	13	foodImage.114	FOODEEG_Images\0922.jpg	NY	Left	No	0.976576499990188	0	335306	253
655.859375	0	health	response	2	73	13	foodImage.114	FOODEEG_Images\0922.jpg	NY	Left	No	0.976576499990188	0	335801	234
656.90234375	1	decision	trialStart	2	74	14	foodImage.39	FOODEEG_Images\0367.jpg	YN	Left	Yes	1.48866799997631	0	336335	251
657.94140625	2	decision	foodImageDisplay	2	74	14	foodImage.39	FOODEEG_Images\0367.jpg	YN	Left	Yes	1.48866799997631	0	336867	252
660.00390625	1.48866799997631	decision	choicePhaseStart	2	74	14	foodImage.39	FOODEEG_Images\0367.jpg	YN	Left	Yes	1.48866799997631	0	337923	253
661.482421875	0	decision	response	2	74	14	foodImage.39	FOODEEG_Images\0367.jpg	YN	Left	Yes	1.48866799997631	0	338680	234
662.53125	1	taste	trialStart	2	75	15	foodImage.78	FOODEEG_Images\0787.jpg	YN	Right	No	0.755624699988402	0	339217	251
663.57421875	2	taste	foodImageDisplay	2	75	15	foodImage.78	FOODEEG_Images\0787.jpg	YN	Right	No	0.755624699988402	0	339751	252
665.638671875	0.755624699988402	taste	choicePhaseStart	2	75	15	foodImage.78	FOODEEG_Images\0787.jpg	YN	Right	No	0.755624699988402	0	340808	253
666.38671875	0	taste	response	2	75	15	foodImage.78	FOODEEG_Images\0787.jpg	YN	Right	No	0.755624699988402	0	341191	235
667.4296875	1	taste	trialStart	2	76	16	foodImage.115	FOODEEG_Images\0923.jpg	YN	Right	No	0.693362099933438	0	341725	251
668.46875	2	taste	foodImageDisplay	2	76	16	foodImage.115	FOODEEG_Images\0923.jpg	YN	Right	No	0.693362099933438	0	342257	252
670.53125	0.693362099933438	taste	choicePhaseStart	2	76	16	foodImage.115	FOODEEG_Images\0923.jpg	YN	Right	No	0.693362099933438	0	343313	253
671.21875	0	taste	response	2	76	16	foodImage.115	FOODEEG_Images\0923.jpg	YN	Right	No	0.693362099933438	0	343665	235
672.26171875	1	taste	trialStart	2	77	17	foodImage.104	FOODEEG_Images\0912.jpg	YN	Right	No	0.740090199979022	0	344199	251
673.298828125	2	taste	foodImageDisplay	2	77	17	foodImage.104	FOODEEG_Images\0912.jpg	YN	Right	No	0.740090199979022	0	344730	252
675.3671875	0.740090199979022	taste	choicePhaseStart	2	77	17	foodImage.104	FOODEEG_Images\0912.jpg	YN	Right	No	0.740090199979022	0	345789	253
676.099609375	0	taste	response	2	77	17	foodImage.104	FOODEEG_Images\0912.jpg	YN	Right	No	0.740090199979022	0	346164	235
677.142578125	1	health	trialStart	2	78	18	foodImage.15	FOODEEG_Images\0189.jpg	YN	Right	No	0.77380299998913	0	346698	251
678.22265625	2	health	foodImageDisplay	2	78	18	foodImage.15	FOODEEG_Images\0189.jpg	YN	Right	No	0.77380299998913	0	347251	252
680.287109375	0.77380299998913	health	choicePhaseStart	2	78	18	foodImage.15	FOODEEG_Images\0189.jpg	YN	Right	No	0.77380299998913	0	348308	253
681.05078125	0	health	response	2	78	18	foodImage.15	FOODEEG_Images\0189.jpg	YN	Right	No	0.77380299998913	0	348699	235
682.09375	1	decision	trialStart	2	79	19	foodImage.31	FOODEEG_Images\0294.jpg	YN	Right	No	1.05910960002802	0	349233	251
683.13671875	2	decision	foodImageDisplay	2	79	19	foodImage.31	FOODEEG_Images\0294.jpg	YN	Right	No	1.05910960002802	0	349767	252
685.19921875	1.05910960002802	decision	choicePhaseStart	2	79	19	foodImage.31	FOODEEG_Images\0294.jpg	YN	Right	No	1.05910960002802	0	350823	253
686.25	0	decision	response	2	79	19	foodImage.31	FOODEEG_Images\0294.jpg	YN	Right	No	1.05910960002802	0	351361	235
687.294921875	1	health	trialStart	2	80	20	foodImage.14	FOODEEG_Images\0188.jpg	YN	Left	Yes	0.802898800000548	0	351896	251
688.353515625	2	health	foodImageDisplay	2	80	20	foodImage.14	FOODEEG_Images\0188.jpg	YN	Left	Yes	0.802898800000548	0	352438	252
690.416015625	0.802898800000548	health	choicePhaseStart	2	80	20	foodImage.14	FOODEEG_Images\0188.jpg	YN	Left	Yes	0.802898800000548	0	353494	253
691.208984375	0	health	response	2	80	20	foodImage.14	FOODEEG_Images\0188.jpg	YN	Left	Yes	0.802898800000548	0	353900	234
692.263671875	1	decision	trialStart	2	81	21	foodImage.53	FOODEEG_Images\0547.jpg	YN	Left	Yes	1.54546779999509	0	354440	251
693.322265625	2	decision	foodImageDisplay	2	81	21	foodImage.53	FOODEEG_Images\0547.jpg	YN	Left	Yes	1.54546779999509	0	354982	252
695.384765625	1.54546779999509	decision	choicePhaseStart	2	81	21	foodImage.53	FOODEEG_Images\0547.jpg	YN	Left	Yes	1.54546779999509	0	356038	253
696.921875	0	decision	response	2	81	21	foodImage.53	FOODEEG_Images\0547.jpg	YN	Left	Yes	1.54546779999509	0	356825	234
697.96484375	1	decision	trialStart	2	82	22	foodImage.86	FOODEEG_Images\0844.jpg	YN	Right	No	1.17448300006799	0	357359	251
699.0234375	2	decision	foodImageDisplay	2	82	22	foodImage.86	FOODEEG_Images\0844.jpg	YN	Right	No	1.17448300006799	0	357901	252
701.083984375	1.17448300006799	decision	choicePhaseStart	2	82	22	foodImage.86	FOODEEG_Images\0844.jpg	YN	Right	No	1.17448300006799	0	358956	253
702.25	0	decision	response	2	82	22	foodImage.86	FOODEEG_Images\0844.jpg	YN	Right	No	1.17448300006799	0	359553	235
703.29296875	1	taste	trialStart	2	83	23	foodImage.74	FOODEEG_Images\0752.jpg	NY	Right	Yes	1.22504389996175	0	360087	251
704.337890625	2	taste	foodImageDisplay	2	83	23	foodImage.74	FOODEEG_Images\0752.jpg	NY	Right	Yes	1.22504389996175	0	360622	252
706.40234375	1.22504389996175	taste	choicePhaseStart	2	83	23	foodImage.74	FOODEEG_Images\0752.jpg	NY	Right	Yes	1.22504389996175	0	361679	253
707.6171875	0	taste	response	2	83	23	foodImage.74	FOODEEG_Images\0752.jpg	NY	Right	Yes	1.22504389996175	0	362301	235
708.66015625	1	health	trialStart	2	84	24	foodImage.29	FOODEEG_Images\0278.jpg	YN	Left	Yes	1.06076410005335	0	362835	251
709.703125	2	health	foodImageDisplay	2	84	24	foodImage.29	FOODEEG_Images\0278.jpg	YN	Left	Yes	1.06076410005335	0	363369	252
711.765625	1.06076410005335	health	choicePhaseStart	2	84	24	foodImage.29	FOODEEG_Images\0278.jpg	YN	Left	Yes	1.06076410005335	0	364425	253
712.81640625	0	health	response	2	84	24	foodImage.29	FOODEEG_Images\0278.jpg	YN	Left	Yes	1.06076410005335	0	364963	234
713.859375	1	decision	trialStart	2	85	25	foodImage.106	FOODEEG_Images\0914.jpg	NY	Right	Yes	0.76917179999873	0	365497	251
714.8984375	2	decision	foodImageDisplay	2	85	25	foodImage.106	FOODEEG_Images\0914.jpg	NY	Right	Yes	0.76917179999873	0	366029	252
716.9609375	0.76917179999873	decision	choicePhaseStart	2	85	25	foodImage.106	FOODEEG_Images\0914.jpg	NY	Right	Yes	0.76917179999873	0	367085	253
717.720703125	0	decision	response	2	85	25	foodImage.106	FOODEEG_Images\0914.jpg	NY	Right	Yes	0.76917179999873	0	367474	235
718.763671875	1	decision	trialStart	2	86	26	foodImage.118	FOODEEG_Images\0926.jpg	YN	Right	No	0.928467200021259	0	368008	251
719.802734375	2	decision	foodImageDisplay	2	86	26	foodImage.118	FOODEEG_Images\0926.jpg	YN	Right	No	0.928467200021259	0	368540	252
721.865234375	0.928467200021259	decision	choicePhaseStart	2	86	26	foodImage.118	FOODEEG_Images\0926.jpg	YN	Right	No	0.928467200021259	0	369596	253
722.78515625	0	decision	response	2	86	26	foodImage.118	FOODEEG_Images\0926.jpg	YN	Right	No	0.928467200021259	0	370067	235
723.828125	1	taste	trialStart	2	87	27	foodImage.19	FOODEEG_Images\0225.jpg	NY	Left	No	0.859471099916846	0	370601	251
724.87109375	2	taste	foodImageDisplay	2	87	27	foodImage.19	FOODEEG_Images\0225.jpg	NY	Left	No	0.859471099916846	0	371135	252
726.93359375	0.859471099916846	taste	choicePhaseStart	2	87	27	foodImage.19	FOODEEG_Images\0225.jpg	NY	Left	No	0.859471099916846	0	372191	253
727.78515625	0	taste	response	2	87	27	foodImage.19	FOODEEG_Images\0225.jpg	NY	Left	No	0.859471099916846	0	372627	234
728.826171875	1	taste	trialStart	2	88	28	foodImage.45	FOODEEG_Images\0478.jpg	YN	Right	No	1.3619778000284	0	373160	251
729.87109375	2	taste	foodImageDisplay	2	88	28	foodImage.45	FOODEEG_Images\0478.jpg	YN	Right	No	1.3619778000284	0	373695	252
731.935546875	1.3619778000284	taste	choicePhaseStart	2	88	28	foodImage.45	FOODEEG_Images\0478.jpg	YN	Right	No	1.3619778000284	0	374752	253
733.2890625	0	taste	response	2	88	28	foodImage.45	FOODEEG_Images\0478.jpg	YN	Right	No	1.3619778000284	0	375445	235
734.33203125	1	decision	trialStart	2	89	29	foodImage.72	FOODEEG_Images\0714.jpg	YN	Right	No	0.875381699996069	0	375979	251
735.375	2	decision	foodImageDisplay	2	89	29	foodImage.72	FOODEEG_Images\0714.jpg	YN	Right	No	0.875381699996069	0	376513	252
737.439453125	0.875381699996069	decision	choicePhaseStart	2	89	29	foodImage.72	FOODEEG_Images\0714.jpg	YN	Right	No	0.875381699996069	0	377570	253
738.3046875	0	decision	response	2	89	29	foodImage.72	FOODEEG_Images\0714.jpg	YN	Right	No	0.875381699996069	0	378013	235
739.34765625	1	health	trialStart	2	90	30	foodImage.101	FOODEEG_Images\0909.jpg	NY	Right	Yes	1.62069790007081	0	378547	251
740.3984375	2	health	foodImageDisplay	2	90	30	foodImage.101	FOODEEG_Images\0909.jpg	NY	Right	Yes	1.62069790007081	0	379085	252
742.4609375	1.62069790007081	health	choicePhaseStart	2	90	30	foodImage.101	FOODEEG_Images\0909.jpg	NY	Right	Yes	1.62069790007081	0	380141	253
744.072265625	0	health	response	2	90	30	foodImage.101	FOODEEG_Images\0909.jpg	NY	Right	Yes	1.62069790007081	0	380966	235
745.11328125	1	taste	trialStart	2	91	31	foodImage.93	FOODEEG_Images\0901.jpg	NY	Left	No	0.762092999997549	0	381499	251
746.15234375	2	taste	foodImageDisplay	2	91	31	foodImage.93	FOODEEG_Images\0901.jpg	NY	Left	No	0.762092999997549	0	382031	252
748.21484375	0.762092999997549	taste	choicePhaseStart	2	91	31	foodImage.93	FOODEEG_Images\0901.jpg	NY	Left	No	0.762092999997549	0	383087	253
748.966796875	0	taste	response	2	91	31	foodImage.93	FOODEEG_Images\0901.jpg	NY	Left	No	0.762092999997549	0	383472	234
750.0078125	1	decision	trialStart	2	92	32	foodImage.8	FOODEEG_Images\0136.jpg	YN	Right	No	1.02282389998436	0	384005	251
751.05078125	2	decision	foodImageDisplay	2	92	32	foodImage.8	FOODEEG_Images\0136.jpg	YN	Right	No	1.02282389998436	0	384539	252
753.115234375	1.02282389998436	decision	choicePhaseStart	2	92	32	foodImage.8	FOODEEG_Images\0136.jpg	YN	Right	No	1.02282389998436	0	385596	253
754.126953125	0	decision	response	2	92	32	foodImage.8	FOODEEG_Images\0136.jpg	YN	Right	No	1.02282389998436	0	386114	235
755.169921875	1	health	trialStart	2	93	33	foodImage.39	FOODEEG_Images\0367.jpg	NY	Right	Yes	1.21928509999998	0	386648	251
756.20703125	2	health	foodImageDisplay	2	93	33	foodImage.39	FOODEEG_Images\0367.jpg	NY	Right	Yes	1.21928509999998	0	387179	252
758.27734375	1.21928509999998	health	choicePhaseStart	2	93	33	foodImage.39	FOODEEG_Images\0367.jpg	NY	Right	Yes	1.21928509999998	0	388239	253
759.48828125	0	health	response	2	93	33	foodImage.39	FOODEEG_Images\0367.jpg	NY	Right	Yes	1.21928509999998	0	388859	235
760.52734375	1	health	trialStart	2	94	34	foodImage.113	FOODEEG_Images\0921.jpg	NY	Right	Yes	0.981638299999759	0	389391	251
761.580078125	2	health	foodImageDisplay	2	94	34	foodImage.113	FOODEEG_Images\0921.jpg	NY	Right	Yes	0.981638299999759	0	389930	252
763.64453125	0.981638299999759	health	choicePhaseStart	2	94	34	foodImage.113	FOODEEG_Images\0921.jpg	NY	Right	Yes	0.981638299999759	0	390987	253
764.615234375	0	health	response	2	94	34	foodImage.113	FOODEEG_Images\0921.jpg	NY	Right	Yes	0.981638299999759	0	391484	235
765.658203125	1	decision	trialStart	2	95	35	foodImage.40	FOODEEG_Images\0373.jpg	NY	Right	Yes	0.771878400002606	0	392018	251
766.701171875	2	decision	foodImageDisplay	2	95	35	foodImage.40	FOODEEG_Images\0373.jpg	NY	Right	Yes	0.771878400002606	0	392552	252
768.763671875	0.771878400002606	decision	choicePhaseStart	2	95	35	foodImage.40	FOODEEG_Images\0373.jpg	NY	Right	Yes	0.771878400002606	0	393608	253
769.52734375	0	decision	response	2	95	35	foodImage.40	FOODEEG_Images\0373.jpg	NY	Right	Yes	0.771878400002606	0	393999	235
770.572265625	1	decision	trialStart	2	96	36	foodImage.110	FOODEEG_Images\0918.jpg	NY	Left	No	0.918662899988703	0	394534	251
771.609375	2	decision	foodImageDisplay	2	96	36	foodImage.110	FOODEEG_Images\0918.jpg	NY	Left	No	0.918662899988703	0	395065	252
773.673828125	0.918662899988703	decision	choicePhaseStart	2	96	36	foodImage.110	FOODEEG_Images\0918.jpg	NY	Left	No	0.918662899988703	0	396122	253
774.583984375	0	decision	response	2	96	36	foodImage.110	FOODEEG_Images\0918.jpg	NY	Left	No	0.918662899988703	0	396588	234
775.626953125	1	health	trialStart	2	97	37	foodImage.48	FOODEEG_Images\0494.jpg	NY	Left	No	0.960600199992768	0	397122	251
776.669921875	2	health	foodImageDisplay	2	97	37	foodImage.48	FOODEEG_Images\0494.jpg	NY	Left	No	0.960600199992768	0	397656	252
778.732421875	0.960600199992768	health	choicePhaseStart	2	97	37	foodImage.48	FOODEEG_Images\0494.jpg	NY	Left	No	0.960600199992768	0	398712	253
779.6875	0	health	response	2	97	37	foodImage.48	FOODEEG_Images\0494.jpg	NY	Left	No	0.960600199992768	0	399201	234
780.73046875	1	taste	trialStart	2	98	38	foodImage.90	FOODEEG_Images\0890.jpg	NY	Right	Yes	1.05547079991084	0	399735	251
781.787109375	2	taste	foodImageDisplay	2	98	38	foodImage.90	FOODEEG_Images\0890.jpg	NY	Right	Yes	1.05547079991084	0	400276	252
783.84765625	1.05547079991084	taste	choicePhaseStart	2	98	38	foodImage.90	FOODEEG_Images\0890.jpg	NY	Right	Yes	1.05547079991084	0	401331	253
784.89453125	0	taste	response	2	98	38	foodImage.90	FOODEEG_Images\0890.jpg	NY	Right	Yes	1.05547079991084	0	401867	235
785.9375	1	decision	trialStart	2	99	39	foodImage.18	FOODEEG_Images\0202.jpg	NY	Right	Yes	0.665315999998711	0	402401	251
786.998046875	2	decision	foodImageDisplay	2	99	39	foodImage.18	FOODEEG_Images\0202.jpg	NY	Right	Yes	0.665315999998711	0	402944	252
789.0625	0.665315999998711	decision	choicePhaseStart	2	99	39	foodImage.18	FOODEEG_Images\0202.jpg	NY	Right	Yes	0.665315999998711	0	404001	253
789.71875	0	decision	response	2	99	39	foodImage.18	FOODEEG_Images\0202.jpg	NY	Right	Yes	0.665315999998711	0	404337	235
790.76171875	1	taste	trialStart	2	100	40	foodImage.86	FOODEEG_Images\0844.jpg	NY	Right	Yes	1.01482209993992	0	404871	251
791.818359375	2	taste	foodImageDisplay	2	100	40	foodImage.86	FOODEEG_Images\0844.jpg	NY	Right	Yes	1.01482209993992	0	405412	252
793.880859375	1.01482209993992	taste	choicePhaseStart	2	100	40	foodImage.86	FOODEEG_Images\0844.jpg	NY	Right	Yes	1.01482209993992	0	406468	253
794.88671875	0	taste	response	2	100	40	foodImage.86	FOODEEG_Images\0844.jpg	NY	Right	Yes	1.01482209993992	0	406983	235
795.9296875	1	taste	trialStart	2	101	41	foodImage.71	FOODEEG_Images\0713.jpg	YN	Right	No	0.932241500006057	0	407517	251
796.9765625	2	taste	foodImageDisplay	2	101	41	foodImage.71	FOODEEG_Images\0713.jpg	YN	Right	No	0.932241500006057	0	408053	252
799.0390625	0.932241500006057	taste	choicePhaseStart	2	101	41	foodImage.71	FOODEEG_Images\0713.jpg	YN	Right	No	0.932241500006057	0	409109	253
799.966796875	0	taste	response	2	101	41	foodImage.71	FOODEEG_Images\0713.jpg	YN	Right	No	0.932241500006057	0	409584	235
801.009765625	1	health	trialStart	2	102	42	foodImage.65	FOODEEG_Images\0658.jpg	NY	Left	No	0.92797839990817	0	410118	251
802.052734375	2	health	foodImageDisplay	2	102	42	foodImage.65	FOODEEG_Images\0658.jpg	NY	Left	No	0.92797839990817	0	410652	252
804.119140625	0.92797839990817	health	choicePhaseStart	2	102	42	foodImage.65	FOODEEG_Images\0658.jpg	NY	Left	No	0.92797839990817	0	411710	253
805.037109375	0	health	response	2	102	42	foodImage.65	FOODEEG_Images\0658.jpg	NY	Left	No	0.92797839990817	0	412180	234
806.08203125	1	health	trialStart	2	103	43	foodImage.43	FOODEEG_Images\0445.jpg	NY	Right	Yes	0.799269199953414	0	412715	251
807.142578125	2	health	foodImageDisplay	2	103	43	foodImage.43	FOODEEG_Images\0445.jpg	NY	Right	Yes	0.799269199953414	0	413258	252
809.205078125	0.799269199953414	health	choicePhaseStart	2	103	43	foodImage.43	FOODEEG_Images\0445.jpg	NY	Right	Yes	0.799269199953414	0	414314	253
809.998046875	0	health	response	2	103	43	foodImage.43	FOODEEG_Images\0445.jpg	NY	Right	Yes	0.799269199953414	0	414720	235
811.041015625	1	taste	trialStart	2	104	44	foodImage.27	FOODEEG_Images\0263.jpg	NY	Left	No	0.688737700111233	0	415254	251
812.083984375	2	taste	foodImageDisplay	2	104	44	foodImage.27	FOODEEG_Images\0263.jpg	NY	Left	No	0.688737700111233	0	415788	252
814.150390625	0.688737700111233	taste	choicePhaseStart	2	104	44	foodImage.27	FOODEEG_Images\0263.jpg	NY	Left	No	0.688737700111233	0	416846	253
814.830078125	0	taste	response	2	104	44	foodImage.27	FOODEEG_Images\0263.jpg	NY	Left	No	0.688737700111233	0	417194	234
815.87109375	1	taste	trialStart	2	105	45	foodImage.4	FOODEEG_Images\0065.jpg	NY	Right	Yes	0.813333599944599	0	417727	251
816.9296875	2	taste	foodImageDisplay	2	105	45	foodImage.4	FOODEEG_Images\0065.jpg	NY	Right	Yes	0.813333599944599	0	418269	252
818.9921875	0.813333599944599	taste	choicePhaseStart	2	105	45	foodImage.4	FOODEEG_Images\0065.jpg	NY	Right	Yes	0.813333599944599	0	419325	253
819.796875	0	taste	response	2	105	45	foodImage.4	FOODEEG_Images\0065.jpg	NY	Right	Yes	0.813333599944599	0	419737	235
820.845703125	1	taste	trialStart	2	106	46	foodImage.14	FOODEEG_Images\0188.jpg	YN	Left	Yes	0.705794999958016	0	420274	251
821.916015625	2	taste	foodImageDisplay	2	106	46	foodImage.14	FOODEEG_Images\0188.jpg	YN	Left	Yes	0.705794999958016	0	420822	252
823.98046875	0.705794999958016	taste	choicePhaseStart	2	106	46	foodImage.14	FOODEEG_Images\0188.jpg	YN	Left	Yes	0.705794999958016	0	421879	253
824.677734375	0	taste	response	2	106	46	foodImage.14	FOODEEG_Images\0188.jpg	YN	Left	Yes	0.705794999958016	0	422236	234
825.720703125	1	health	trialStart	2	107	47	foodImage.102	FOODEEG_Images\0910.jpg	NY	Right	Yes	0.552589899976738	0	422770	251
826.7578125	2	health	foodImageDisplay	2	107	47	foodImage.102	FOODEEG_Images\0910.jpg	NY	Right	Yes	0.552589899976738	0	423301	252
828.8203125	0.552589899976738	health	choicePhaseStart	2	107	47	foodImage.102	FOODEEG_Images\0910.jpg	NY	Right	Yes	0.552589899976738	0	424357	253
829.365234375	0	health	response	2	107	47	foodImage.102	FOODEEG_Images\0910.jpg	NY	Right	Yes	0.552589899976738	0	424636	235
830.408203125	1	decision	trialStart	2	108	48	foodImage.119	FOODEEG_Images\0927.jpg	NY	Left	No	1.05516240000725	0	425170	251
831.447265625	2	decision	foodImageDisplay	2	108	48	foodImage.119	FOODEEG_Images\0927.jpg	NY	Left	No	1.05516240000725	0	425702	252
833.51171875	1.05516240000725	decision	choicePhaseStart	2	108	48	foodImage.119	FOODEEG_Images\0927.jpg	NY	Left	No	1.05516240000725	0	426759	253
834.556640625	0	decision	response	2	108	48	foodImage.119	FOODEEG_Images\0927.jpg	NY	Left	No	1.05516240000725	0	427294	234
835.60546875	1	health	trialStart	2	109	49	foodImage.23	FOODEEG_Images\0244.jpg	NY	Right	Yes	1.35829740006011	0	427831	251
836.6484375	2	health	foodImageDisplay	2	109	49	foodImage.23	FOODEEG_Images\0244.jpg	NY	Right	Yes	1.35829740006011	0	428365	252
838.7109375	1.35829740006011	health	choicePhaseStart	2	109	49	foodImage.23	FOODEEG_Images\0244.jpg	NY	Right	Yes	1.35829740006011	0	429421	253
840.060546875	0	health	response	2	109	49	foodImage.23	FOODEEG_Images\0244.jpg	NY	Right	Yes	1.35829740006011	0	430112	235
841.103515625	1	taste	trialStart	2	110	50	foodImage.62	FOODEEG_Images\0644.jpg	YN	Right	No	1.30275969998911	0	430646	251
842.16015625	2	taste	foodImageDisplay	2	110	50	foodImage.62	FOODEEG_Images\0644.jpg	YN	Right	No	1.30275969998911	0	431187	252
844.228515625	1.30275969998911	taste	choicePhaseStart	2	110	50	foodImage.62	FOODEEG_Images\0644.jpg	YN	Right	No	1.30275969998911	0	432246	253
845.5234375	0	taste	response	2	110	50	foodImage.62	FOODEEG_Images\0644.jpg	YN	Right	No	1.30275969998911	0	432909	235
846.568359375	1	decision	trialStart	2	111	51	foodImage.27	FOODEEG_Images\0263.jpg	YN	Right	No	0.806373200030066	0	433444	251
847.609375	2	decision	foodImageDisplay	2	111	51	foodImage.27	FOODEEG_Images\0263.jpg	YN	Right	No	0.806373200030066	0	433977	252
849.671875	0.806373200030066	decision	choicePhaseStart	2	111	51	foodImage.27	FOODEEG_Images\0263.jpg	YN	Right	No	0.806373200030066	0	435033	253
850.46875	0	decision	response	2	111	51	foodImage.27	FOODEEG_Images\0263.jpg	YN	Right	No	0.806373200030066	0	435441	235
851.51171875	1	decision	trialStart	2	112	52	foodImage.1	FOODEEG_Images\0004.jpg	NY	Right	Yes	0.853541200049222	0	435975	251
852.552734375	2	decision	foodImageDisplay	2	112	52	foodImage.1	FOODEEG_Images\0004.jpg	NY	Right	Yes	0.853541200049222	0	436508	252
854.615234375	0.853541200049222	decision	choicePhaseStart	2	112	52	foodImage.1	FOODEEG_Images\0004.jpg	NY	Right	Yes	0.853541200049222	0	437564	253
855.458984375	0	decision	response	2	112	52	foodImage.1	FOODEEG_Images\0004.jpg	NY	Right	Yes	0.853541200049222	0	437996	235
856.501953125	1	taste	trialStart	2	113	53	foodImage.101	FOODEEG_Images\0909.jpg	NY	Left	No	0.870943699963391	0	438530	251
857.541015625	2	taste	foodImageDisplay	2	113	53	foodImage.101	FOODEEG_Images\0909.jpg	NY	Left	No	0.870943699963391	0	439062	252
859.60546875	0.870943699963391	taste	choicePhaseStart	2	113	53	foodImage.101	FOODEEG_Images\0909.jpg	NY	Left	No	0.870943699963391	0	440119	253
860.466796875	0	taste	response	2	113	53	foodImage.101	FOODEEG_Images\0909.jpg	NY	Left	No	0.870943699963391	0	440560	234
861.51171875	1	health	trialStart	2	114	54	foodImage.64	FOODEEG_Images\0647.jpg	NY	Right	Yes	0.937379600014538	0	441095	251
862.572265625	2	health	foodImageDisplay	2	114	54	foodImage.64	FOODEEG_Images\0647.jpg	NY	Right	Yes	0.937379600014538	0	441638	252
864.634765625	0.937379600014538	health	choicePhaseStart	2	114	54	foodImage.64	FOODEEG_Images\0647.jpg	NY	Right	Yes	0.937379600014538	0	442694	253
865.5625	0	health	response	2	114	54	foodImage.64	FOODEEG_Images\0647.jpg	NY	Right	Yes	0.937379600014538	0	443169	235
866.60546875	1	health	trialStart	2	115	55	foodImage.69	FOODEEG_Images\0693.jpg	YN	Left	Yes	1.29910149995703	0	443703	251
867.650390625	2	health	foodImageDisplay	2	115	55	foodImage.69	FOODEEG_Images\0693.jpg	YN	Left	Yes	1.29910149995703	0	444238	252
869.712890625	1.29910149995703	health	choicePhaseStart	2	115	55	foodImage.69	FOODEEG_Images\0693.jpg	YN	Left	Yes	1.29910149995703	0	445294	253
871.00390625	0	health	response	2	115	55	foodImage.69	FOODEEG_Images\0693.jpg	YN	Left	Yes	1.29910149995703	0	445955	234
872.046875	1	decision	trialStart	2	116	56	foodImage.3	FOODEEG_Images\0046.jpg	NY	Right	Yes	0.778006699983962	0	446489	251
873.087890625	2	decision	foodImageDisplay	2	116	56	foodImage.3	FOODEEG_Images\0046.jpg	NY	Right	Yes	0.778006699983962	0	447022	252
875.15234375	0.778006699983962	decision	choicePhaseStart	2	116	56	foodImage.3	FOODEEG_Images\0046.jpg	NY	Right	Yes	0.778006699983962	0	448079	253
875.923828125	0	decision	response	2	116	56	foodImage.3	FOODEEG_Images\0046.jpg	NY	Right	Yes	0.778006699983962	0	448474	235
876.96484375	1	taste	trialStart	2	117	57	foodImage.68	FOODEEG_Images\0685.jpg	NY	Right	Yes	0.884429699974135	0	449007	251
878.04296875	2	taste	foodImageDisplay	2	117	57	foodImage.68	FOODEEG_Images\0685.jpg	NY	Right	Yes	0.884429699974135	0	449559	252
880.11328125	0.884429699974135	taste	choicePhaseStart	2	117	57	foodImage.68	FOODEEG_Images\0685.jpg	NY	Right	Yes	0.884429699974135	0	450619	253
880.986328125	0	taste	response	2	117	57	foodImage.68	FOODEEG_Images\0685.jpg	NY	Right	Yes	0.884429699974135	0	451066	235
882.03125	1	health	trialStart	2	118	58	foodImage.58	FOODEEG_Images\0605.jpg	NY	Left	No	1.02704339998309	0	451601	251
883.087890625	2	health	foodImageDisplay	2	118	58	foodImage.58	FOODEEG_Images\0605.jpg	NY	Left	No	1.02704339998309	0	452142	252
885.15234375	1.02704339998309	health	choicePhaseStart	2	118	58	foodImage.58	FOODEEG_Images\0605.jpg	NY	Left	No	1.02704339998309	0	453199	253
886.169921875	0	health	response	2	118	58	foodImage.58	FOODEEG_Images\0605.jpg	NY	Left	No	1.02704339998309	0	453720	234
887.21484375	1	decision	trialStart	2	119	59	foodImage.29	FOODEEG_Images\0278.jpg	NY	Left	No	0.828146899933927	0	454255	251
888.255859375	2	decision	foodImageDisplay	2	119	59	foodImage.29	FOODEEG_Images\0278.jpg	NY	Left	No	0.828146899933927	0	454788	252
890.318359375	0.828146899933927	decision	choicePhaseStart	2	119	59	foodImage.29	FOODEEG_Images\0278.jpg	NY	Left	No	0.828146899933927	0	455844	253
891.138671875	0	decision	response	2	119	59	foodImage.29	FOODEEG_Images\0278.jpg	NY	Left	No	0.828146899933927	0	456264	234
892.181640625	1	decision	trialStart	2	120	60	foodImage.96	FOODEEG_Images\0904.jpg	YN	Right	No	1.97756059991661	0	456798	251
893.2265625	2	decision	foodImageDisplay	2	120	60	foodImage.96	FOODEEG_Images\0904.jpg	YN	Right	No	1.97756059991661	0	457333	252
895.2890625	1.97756059991661	decision	choicePhaseStart	2	120	60	foodImage.96	FOODEEG_Images\0904.jpg	YN	Right	No	1.97756059991661	0	458389	253
897.2578125	0	decision	response	2	120	60	foodImage.96	FOODEEG_Images\0904.jpg	YN	Right	No	1.97756059991661	0	459397	235
899.298828125	2.009765625	n/a	blockEnd	n/a	n/a	n/a	n/a	n/a	n/a	n/a	n/a	n/a	n/a	460442	254
901.30859375	2	n/a	blockStart	3	n/a	n/a	n/a	n/a	n/a	n/a	n/a	n/a	n/a	461471	250
903.341796875	1	taste	trialStart	3	121	1	foodImage.112	FOODEEG_Images\0920.jpg	YN	Right	No	0.996494300081395	0	462512	251
904.380859375	2	taste	foodImageDisplay	3	121	1	foodImage.112	FOODEEG_Images\0920.jpg	YN	Right	No	0.996494300081395	0	463044	252
906.4453125	0.996494300081395	taste	choicePhaseStart	3	121	1	foodImage.112	FOODEEG_Images\0920.jpg	YN	Right	No	0.996494300081395	0	464101	253
907.43359375	0	taste	response	3	121	1	foodImage.112	FOODEEG_Images\0920.jpg	YN	Right	No	0.996494300081395	0	464607	235
908.4765625	1	taste	trialStart	3	122	2	foodImage.109	FOODEEG_Images\0917.jpg	NY	Left	No	0.72931670001708	0	465141	251
909.521484375	2	taste	foodImageDisplay	3	122	2	foodImage.109	FOODEEG_Images\0917.jpg	NY	Left	No	0.72931670001708	0	465676	252
911.5859375	0.72931670001708	taste	choicePhaseStart	3	122	2	foodImage.109	FOODEEG_Images\0917.jpg	NY	Left	No	0.72931670001708	0	466733	253
912.3046875	0	taste	response	3	122	2	foodImage.109	FOODEEG_Images\0917.jpg	NY	Left	No	0.72931670001708	0	467101	234
913.353515625	1	taste	trialStart	3	123	3	foodImage.11	FOODEEG_Images\0180.jpg	NY	Left	No	1.01882600004319	0	467638	251
914.400390625	2	taste	foodImageDisplay	3	123	3	foodImage.11	FOODEEG_Images\0180.jpg	NY	Left	No	1.01882600004319	0	468174	252
916.46875	1.01882600004319	taste	choicePhaseStart	3	123	3	foodImage.11	FOODEEG_Images\0180.jpg	NY	Left	No	1.01882600004319	0	469233	253
917.48046875	0	taste	response	3	123	3	foodImage.11	FOODEEG_Images\0180.jpg	NY	Left	No	1.01882600004319	0	469751	234
918.525390625	1	taste	trialStart	3	124	4	foodImage.110	FOODEEG_Images\0918.jpg	NY	Left	No	0.74290439998731	0	470286	251
919.5625	2	taste	foodImageDisplay	3	124	4	foodImage.110	FOODEEG_Images\0918.jpg	NY	Left	No	0.74290439998731	0	470817	252
921.626953125	0.74290439998731	taste	choicePhaseStart	3	124	4	foodImage.110	FOODEEG_Images\0918.jpg	NY	Left	No	0.74290439998731	0	471874	253
922.361328125	0	taste	response	3	124	4	foodImage.110	FOODEEG_Images\0918.jpg	NY	Left	No	0.74290439998731	0	472250	234
923.41015625	1	health	trialStart	3	125	5	foodImage.98	FOODEEG_Images\0906.jpg	NY	Left	No	1.38510590000078	0	472787	251
924.44921875	2	health	foodImageDisplay	3	125	5	foodImage.98	FOODEEG_Images\0906.jpg	NY	Left	No	1.38510590000078	0	473319	252
926.513671875	1.38510590000078	health	choicePhaseStart	3	125	5	foodImage.98	FOODEEG_Images\0906.jpg	NY	Left	No	1.38510590000078	0	474376	253
927.888671875	0	health	response	3	125	5	foodImage.98	FOODEEG_Images\0906.jpg	NY	Left	No	1.38510590000078	0	475080	234
928.93359375	1	health	trialStart	3	126	6	foodImage.81	FOODEEG_Images\0797.jpg	YN	Left	Yes	0.614320100052282	0	475615	251
929.994140625	2	health	foodImageDisplay	3	126	6	foodImage.81	FOODEEG_Images\0797.jpg	YN	Left	Yes	0.614320100052282	0	476158	252
932.056640625	0.614320100052282	health	choicePhaseStart	3	126	6	foodImage.81	FOODEEG_Images\0797.jpg	YN	Left	Yes	0.614320100052282	0	477214	253
932.6640625	0	health	response	3	126	6	foodImage.81	FOODEEG_Images\0797.jpg	YN	Left	Yes	0.614320100052282	0	477525	234
933.7109375	1	health	trialStart	3	127	7	foodImage.71	FOODEEG_Images\0713.jpg	YN	Left	Yes	0.953829400008544	0	478061	251
934.75	2	health	foodImageDisplay	3	127	7	foodImage.71	FOODEEG_Images\0713.jpg	YN	Left	Yes	0.953829400008544	0	478593	252
936.814453125	0.953829400008544	health	choicePhaseStart	3	127	7	foodImage.71	FOODEEG_Images\0713.jpg	YN	Left	Yes	0.953829400008544	0	479650	253
937.759765625	0	health	response	3	127	7	foodImage.71	FOODEEG_Images\0713.jpg	YN	Left	Yes	0.953829400008544	0	480134	234
938.802734375	1	decision	trialStart	3	128	8	foodImage.38	FOODEEG_Images\0365.jpg	YN	Right	No	1.14515050000045	0	480668	251
939.83984375	2	decision	foodImageDisplay	3	128	8	foodImage.38	FOODEEG_Images\0365.jpg	YN	Right	No	1.14515050000045	0	481199	252
941.904296875	1.14515050000045	decision	choicePhaseStart	3	128	8	foodImage.38	FOODEEG_Images\0365.jpg	YN	Right	No	1.14515050000045	0	482256	253
943.041015625	0	decision	response	3	128	8	foodImage.38	FOODEEG_Images\0365.jpg	YN	Right	No	1.14515050000045	0	482838	235
944.083984375	1	taste	trialStart	3	129	9	foodImage.108	FOODEEG_Images\0916.jpg	YN	Left	Yes	0.845827899989672	0	483372	251
945.123046875	2	taste	foodImageDisplay	3	129	9	foodImage.108	FOODEEG_Images\0916.jpg	YN	Left	Yes	0.845827899989672	0	483904	252
947.185546875	0.845827899989672	taste	choicePhaseStart	3	129	9	foodImage.108	FOODEEG_Images\0916.jpg	YN	Left	Yes	0.845827899989672	0	484960	253
948.0234375	0	taste	response	3	129	9	foodImage.108	FOODEEG_Images\0916.jpg	YN	Left	Yes	0.845827899989672	0	485389	234
949.068359375	1	taste	trialStart	3	130	10	foodImage.18	FOODEEG_Images\0202.jpg	YN	Left	Yes	0.613413800019771	0	485924	251
950.125	2	taste	foodImageDisplay	3	130	10	foodImage.18	FOODEEG_Images\0202.jpg	YN	Left	Yes	0.613413800019771	0	486465	252
952.1875	0.613413800019771	taste	choicePhaseStart	3	130	10	foodImage.18	FOODEEG_Images\0202.jpg	YN	Left	Yes	0.613413800019771	0	487521	253
952.791015625	0	taste	response	3	130	10	foodImage.18	FOODEEG_Images\0202.jpg	YN	Left	Yes	0.613413800019771	0	487830	234
953.8359375	1	taste	trialStart	3	131	11	foodImage.83	FOODEEG_Images\0827.jpg	NY	Right	Yes	0.796036800020374	0	488365	251
954.89453125	2	taste	foodImageDisplay	3	131	11	foodImage.83	FOODEEG_Images\0827.jpg	NY	Right	Yes	0.796036800020374	0	488907	252
956.95703125	0.796036800020374	taste	choicePhaseStart	3	131	11	foodImage.83	FOODEEG_Images\0827.jpg	NY	Right	Yes	0.796036800020374	0	489963	253
957.744140625	0	taste	response	3	131	11	foodImage.83	FOODEEG_Images\0827.jpg	NY	Right	Yes	0.796036800020374	0	490366	235
958.787109375	1	decision	trialStart	3	132	12	foodImage.35	FOODEEG_Images\0350.jpg	YN	Right	No	0.774777300073765	0	490900	251
959.826171875	2	decision	foodImageDisplay	3	132	12	foodImage.35	FOODEEG_Images\0350.jpg	YN	Right	No	0.774777300073765	0	491432	252
961.890625	0.774777300073765	decision	choicePhaseStart	3	132	12	foodImage.35	FOODEEG_Images\0350.jpg	YN	Right	No	0.774777300073765	0	492489	253
962.654296875	0	decision	response	3	132	12	foodImage.35	FOODEEG_Images\0350.jpg	YN	Right	No	0.774777300073765	0	492880	235
963.701171875	1	taste	trialStart	3	133	13	foodImage.60	FOODEEG_Images\0614.jpg	NY	Right	Yes	0.706330599961802	0	493416	251
964.759765625	2	taste	foodImageDisplay	3	133	13	foodImage.60	FOODEEG_Images\0614.jpg	NY	Right	Yes	0.706330599961802	0	493958	252
966.822265625	0.706330599961802	taste	choicePhaseStart	3	133	13	foodImage.60	FOODEEG_Images\0614.jpg	NY	Right	Yes	0.706330599961802	0	495014	253
967.51953125	0	taste	response	3	133	13	foodImage.60	FOODEEG_Images\0614.jpg	NY	Right	Yes	0.706330599961802	0	495371	235
968.56640625	1	decision	trialStart	3	134	14	foodImage.84	FOODEEG_Images\0830.jpg	YN	Right	No	0.951884099980816	0	495907	251
969.623046875	2	decision	foodImageDisplay	3	134	14	foodImage.84	FOODEEG_Images\0830.jpg	YN	Right	No	0.951884099980816	0	496448	252
971.6875	0.951884099980816	decision	choicePhaseStart	3	134	14	foodImage.84	FOODEEG_Images\0830.jpg	YN	Right	No	0.951884099980816	0	497505	253
972.630859375	0	decision	response	3	134	14	foodImage.84	FOODEEG_Images\0830.jpg	YN	Right	No	0.951884099980816	0	497988	235
973.673828125	1	health	trialStart	3	135	15	foodImage.118	FOODEEG_Images\0926.jpg	NY	Left	No	0.885856000008062	0	498522	251
974.712890625	2	health	foodImageDisplay	3	135	15	foodImage.118	FOODEEG_Images\0926.jpg	NY	Left	No	0.885856000008062	0	499054	252
976.775390625	0.885856000008062	health	choicePhaseStart	3	135	15	foodImage.118	FOODEEG_Images\0926.jpg	NY	Left	No	0.885856000008062	0	500110	253
977.654296875	0	health	response	3	135	15	foodImage.118	FOODEEG_Images\0926.jpg	NY	Left	No	0.885856000008062	0	500560	234
978.697265625	1	health	trialStart	3	136	16	foodImage.112	FOODEEG_Images\0920.jpg	YN	Right	No	0.769410600070842	0	501094	251
979.734375	2	health	foodImageDisplay	3	136	16	foodImage.112	FOODEEG_Images\0920.jpg	YN	Right	No	0.769410600070842	0	501625	252
981.798828125	0.769410600070842	health	choicePhaseStart	3	136	16	foodImage.112	FOODEEG_Images\0920.jpg	YN	Right	No	0.769410600070842	0	502682	253
982.55859375	0	health	response	3	136	16	foodImage.112	FOODEEG_Images\0920.jpg	YN	Right	No	0.769410600070842	0	503071	235
983.6015625	1	taste	trialStart	3	137	17	foodImage.67	FOODEEG_Images\0679.jpg	NY	Left	No	0.63811090006493	0	503605	251
984.66015625	2	taste	foodImageDisplay	3	137	17	foodImage.67	FOODEEG_Images\0679.jpg	NY	Left	No	0.63811090006493	0	504147	252
986.720703125	0.63811090006493	taste	choicePhaseStart	3	137	17	foodImage.67	FOODEEG_Images\0679.jpg	NY	Left	No	0.63811090006493	0	505202	253
987.349609375	0	taste	response	3	137	17	foodImage.67	FOODEEG_Images\0679.jpg	NY	Left	No	0.63811090006493	0	505524	234
988.392578125	1	health	trialStart	3	138	18	foodImage.17	FOODEEG_Images\0199.jpg	NY	Right	Yes	0.770001199911349	0	506058	251
989.4375	2	health	foodImageDisplay	3	138	18	foodImage.17	FOODEEG_Images\0199.jpg	NY	Right	Yes	0.770001199911349	0	506593	252
991.501953125	0.770001199911349	health	choicePhaseStart	3	138	18	foodImage.17	FOODEEG_Images\0199.jpg	NY	Right	Yes	0.770001199911349	0	507650	253
992.26171875	0	health	response	3	138	18	foodImage.17	FOODEEG_Images\0199.jpg	NY	Right	Yes	0.770001199911349	0	508039	235
993.306640625	1	taste	trialStart	3	139	19	foodImage.114	FOODEEG_Images\0922.jpg	YN	Right	No	0.927285200101323	0	508574	251
994.34375	2	taste	foodImageDisplay	3	139	19	foodImage.114	FOODEEG_Images\0922.jpg	YN	Right	No	0.927285200101323	0	509105	252
996.408203125	0.927285200101323	taste	choicePhaseStart	3	139	19	foodImage.114	FOODEEG_Images\0922.jpg	YN	Right	No	0.927285200101323	0	510162	253
997.326171875	0	taste	response	3	139	19	foodImage.114	FOODEEG_Images\0922.jpg	YN	Right	No	0.927285200101323	0	510632	235
998.369140625	1	decision	trialStart	3	140	20	foodImage.55	FOODEEG_Images\0567.jpg	NY	Right	Yes	0.873621799983084	0	511166	251
999.4296875	2	decision	foodImageDisplay	3	140	20	foodImage.55	FOODEEG_Images\0567.jpg	NY	Right	Yes	0.873621799983084	0	511709	252
1001.494140625	0.873621799983084	decision	choicePhaseStart	3	140	20	foodImage.55	FOODEEG_Images\0567.jpg	NY	Right	Yes	0.873621799983084	0	512766	253
1002.357421875	0	decision	response	3	140	20	foodImage.55	FOODEEG_Images\0567.jpg	NY	Right	Yes	0.873621799983084	0	513208	235
1003.40234375	1	taste	trialStart	3	141	21	foodImage.43	FOODEEG_Images\0445.jpg	NY	Right	Yes	1.18721540004481	0	513743	251
1004.4609375	2	taste	foodImageDisplay	3	141	21	foodImage.43	FOODEEG_Images\0445.jpg	NY	Right	Yes	1.18721540004481	0	514285	252
1006.5234375	1.18721540004481	taste	choicePhaseStart	3	141	21	foodImage.43	FOODEEG_Images\0445.jpg	NY	Right	Yes	1.18721540004481	0	515341	253
1007.701171875	0	taste	response	3	141	21	foodImage.43	FOODEEG_Images\0445.jpg	NY	Right	Yes	1.18721540004481	0	515944	235
1008.744140625	1	decision	trialStart	3	142	22	foodImage.42	FOODEEG_Images\0438.jpg	NY	Left	No	0.937532200012356	0	516478	251
1009.828125	2	decision	foodImageDisplay	3	142	22	foodImage.42	FOODEEG_Images\0438.jpg	NY	Left	No	0.937532200012356	0	517033	252
1011.892578125	0.937532200012356	decision	choicePhaseStart	3	142	22	foodImage.42	FOODEEG_Images\0438.jpg	NY	Left	No	0.937532200012356	0	518090	253
1012.8203125	0	decision	response	3	142	22	foodImage.42	FOODEEG_Images\0438.jpg	NY	Left	No	0.937532200012356	0	518565	234
1013.865234375	1	taste	trialStart	3	143	23	foodImage.6	FOODEEG_Images\0113.jpg	NY	Right	Yes	0.87489049998112	0	519100	251
1014.908203125	2	taste	foodImageDisplay	3	143	23	foodImage.6	FOODEEG_Images\0113.jpg	NY	Right	Yes	0.87489049998112	0	519634	252
1016.970703125	0.87489049998112	taste	choicePhaseStart	3	143	23	foodImage.6	FOODEEG_Images\0113.jpg	NY	Right	Yes	0.87489049998112	0	520690	253
1017.8359375	0	taste	response	3	143	23	foodImage.6	FOODEEG_Images\0113.jpg	NY	Right	Yes	0.87489049998112	0	521133	235
1018.87890625	1	health	trialStart	3	144	24	foodImage.47	FOODEEG_Images\0488.jpg	YN	Right	No	1.59897310007364	0	521667	251
1019.921875	2	health	foodImageDisplay	3	144	24	foodImage.47	FOODEEG_Images\0488.jpg	YN	Right	No	1.59897310007364	0	522201	252
1021.984375	1.59897310007364	health	choicePhaseStart	3	144	24	foodImage.47	FOODEEG_Images\0488.jpg	YN	Right	No	1.59897310007364	0	523257	253
1023.572265625	0	health	response	3	144	24	foodImage.47	FOODEEG_Images\0488.jpg	YN	Right	No	1.59897310007364	0	524070	235
1024.615234375	1	taste	trialStart	3	145	25	foodImage.23	FOODEEG_Images\0244.jpg	YN	Right	No	0.900235100067221	0	524604	251
1025.658203125	2	taste	foodImageDisplay	3	145	25	foodImage.23	FOODEEG_Images\0244.jpg	YN	Right	No	0.900235100067221	0	525138	252
1027.720703125	0.900235100067221	taste	choicePhaseStart	3	145	25	foodImage.23	FOODEEG_Images\0244.jpg	YN	Right	No	0.900235100067221	0	526194	253
1028.61328125	0	taste	response	3	145	25	foodImage.23	FOODEEG_Images\0244.jpg	YN	Right	No	0.900235100067221	0	526651	235
1029.65625	1	taste	trialStart	3	146	26	foodImage.35	FOODEEG_Images\0350.jpg	YN	Right	No	0.672366200014949	0	527185	251
1030.6953125	2	taste	foodImageDisplay	3	146	26	foodImage.35	FOODEEG_Images\0350.jpg	YN	Right	No	0.672366200014949	0	527717	252
1032.7578125	0.672366200014949	taste	choicePhaseStart	3	146	26	foodImage.35	FOODEEG_Images\0350.jpg	YN	Right	No	0.672366200014949	0	528773	253
1033.419921875	0	taste	response	3	146	26	foodImage.35	FOODEEG_Images\0350.jpg	YN	Right	No	0.672366200014949	0	529112	235
1034.462890625	1	health	trialStart	3	147	27	foodImage.54	FOODEEG_Images\0560.jpg	YN	Left	Yes	0.562250299961306	0	529646	251
1035.5234375	2	health	foodImageDisplay	3	147	27	foodImage.54	FOODEEG_Images\0560.jpg	YN	Left	Yes	0.562250299961306	0	530189	252
1037.587890625	0.562250299961306	health	choicePhaseStart	3	147	27	foodImage.54	FOODEEG_Images\0560.jpg	YN	Left	Yes	0.562250299961306	0	531246	253
1038.140625	0	health	response	3	147	27	foodImage.54	FOODEEG_Images\0560.jpg	YN	Left	Yes	0.562250299961306	0	531529	234
1039.181640625	1	health	trialStart	3	148	28	foodImage.83	FOODEEG_Images\0827.jpg	YN	Left	Yes	0.504956400021911	0	532062	251
1040.23828125	2	health	foodImageDisplay	3	148	28	foodImage.83	FOODEEG_Images\0827.jpg	YN	Left	Yes	0.504956400021911	0	532603	252
1042.30078125	0.504956400021911	health	choicePhaseStart	3	148	28	foodImage.83	FOODEEG_Images\0827.jpg	YN	Left	Yes	0.504956400021911	0	533659	253
1042.796875	0	health	response	3	148	28	foodImage.83	FOODEEG_Images\0827.jpg	YN	Left	Yes	0.504956400021911	0	533913	234
1043.83984375	1	health	trialStart	3	149	29	foodImage.105	FOODEEG_Images\0913.jpg	NY	Right	Yes	0.760231499909423	0	534447	251
1044.876953125	2	health	foodImageDisplay	3	149	29	foodImage.105	FOODEEG_Images\0913.jpg	NY	Right	Yes	0.760231499909423	0	534978	252
1046.94140625	0.760231499909423	health	choicePhaseStart	3	149	29	foodImage.105	FOODEEG_Images\0913.jpg	NY	Right	Yes	0.760231499909423	0	536035	253
1047.69140625	0	health	response	3	149	29	foodImage.105	FOODEEG_Images\0913.jpg	NY	Right	Yes	0.760231499909423	0	536419	235
1048.734375	1	health	trialStart	3	150	30	foodImage.8	FOODEEG_Images\0136.jpg	YN	Left	Yes	1.03760770009831	0	536953	251
1049.77734375	2	health	foodImageDisplay	3	150	30	foodImage.8	FOODEEG_Images\0136.jpg	YN	Left	Yes	1.03760770009831	0	537487	252
1051.83984375	1.03760770009831	health	choicePhaseStart	3	150	30	foodImage.8	FOODEEG_Images\0136.jpg	YN	Left	Yes	1.03760770009831	0	538543	253
1052.8671875	0	health	response	3	150	30	foodImage.8	FOODEEG_Images\0136.jpg	YN	Left	Yes	1.03760770009831	0	539069	234
1053.916015625	1	decision	trialStart	3	151	31	foodImage.100	FOODEEG_Images\0908.jpg	YN	Right	No	0.638570999959484	0	539606	251
1054.953125	2	decision	foodImageDisplay	3	151	31	foodImage.100	FOODEEG_Images\0908.jpg	YN	Right	No	0.638570999959484	0	540137	252
1057.021484375	0.638570999959484	decision	choicePhaseStart	3	151	31	foodImage.100	FOODEEG_Images\0908.jpg	YN	Right	No	0.638570999959484	0	541196	253
1057.65234375	0	decision	response	3	151	31	foodImage.100	FOODEEG_Images\0908.jpg	YN	Right	No	0.638570999959484	0	541519	235
1058.6953125	1	taste	trialStart	3	152	32	foodImage.102	FOODEEG_Images\0910.jpg	NY	Left	No	2.36785520007834	0	542053	251
1059.734375	2	taste	foodImageDisplay	3	152	32	foodImage.102	FOODEEG_Images\0910.jpg	NY	Left	No	2.36785520007834	0	542585	252
1061.796875	2.36785520007834	taste	choicePhaseStart	3	152	32	foodImage.102	FOODEEG_Images\0910.jpg	NY	Left	No	2.36785520007834	0	543641	253
1064.15625	0	taste	response	3	152	32	foodImage.102	FOODEEG_Images\0910.jpg	NY	Left	No	2.36785520007834	0	544849	234
1065.201171875	1	health	trialStart	3	153	33	foodImage.6	FOODEEG_Images\0113.jpg	NY	Left	No	0.706948300008662	0	545384	251
1066.244140625	2	health	foodImageDisplay	3	153	33	foodImage.6	FOODEEG_Images\0113.jpg	NY	Left	No	0.706948300008662	0	545918	252
1068.306640625	0.706948300008662	health	choicePhaseStart	3	153	33	foodImage.6	FOODEEG_Images\0113.jpg	NY	Left	No	0.706948300008662	0	546974	253
1069.00390625	0	health	response	3	153	33	foodImage.6	FOODEEG_Images\0113.jpg	NY	Left	No	0.706948300008662	0	547331	234
1070.046875	1	taste	trialStart	3	154	34	foodImage.46	FOODEEG_Images\0479.jpg	NY	Right	Yes	0.820850600022823	0	547865	251
1071.103515625	2	taste	foodImageDisplay	3	154	34	foodImage.46	FOODEEG_Images\0479.jpg	NY	Right	Yes	0.820850600022823	0	548406	252
1073.166015625	0.820850600022823	taste	choicePhaseStart	3	154	34	foodImage.46	FOODEEG_Images\0479.jpg	NY	Right	Yes	0.820850600022823	0	549462	253
1073.978515625	0	taste	response	3	154	34	foodImage.46	FOODEEG_Images\0479.jpg	NY	Right	Yes	0.820850600022823	0	549878	235
1075.0234375	1	taste	trialStart	3	155	35	foodImage.54	FOODEEG_Images\0560.jpg	YN	Right	No	1.06594530004077	0	550413	251
1076.08203125	2	taste	foodImageDisplay	3	155	35	foodImage.54	FOODEEG_Images\0560.jpg	YN	Right	No	1.06594530004077	0	550955	252
1078.146484375	1.06594530004077	taste	choicePhaseStart	3	155	35	foodImage.54	FOODEEG_Images\0560.jpg	YN	Right	No	1.06594530004077	0	552012	253
1079.203125	0	taste	response	3	155	35	foodImage.54	FOODEEG_Images\0560.jpg	YN	Right	No	1.06594530004077	0	552553	235
1080.24609375	1	taste	trialStart	3	156	36	foodImage.82	FOODEEG_Images\0805.jpg	NY	Left	No	0.951524900039658	0	553087	251
1081.30078125	2	taste	foodImageDisplay	3	156	36	foodImage.82	FOODEEG_Images\0805.jpg	NY	Left	No	0.951524900039658	0	553627	252
1083.365234375	0.951524900039658	taste	choicePhaseStart	3	156	36	foodImage.82	FOODEEG_Images\0805.jpg	NY	Left	No	0.951524900039658	0	554684	253
1084.306640625	0	taste	response	3	156	36	foodImage.82	FOODEEG_Images\0805.jpg	NY	Left	No	0.951524900039658	0	555166	234
1085.3515625	1	decision	trialStart	3	157	37	foodImage.6	FOODEEG_Images\0113.jpg	YN	Left	Yes	1.66775180003606	0	555701	251
1086.392578125	2	decision	foodImageDisplay	3	157	37	foodImage.6	FOODEEG_Images\0113.jpg	YN	Left	Yes	1.66775180003606	0	556234	252
1088.455078125	1.66775180003606	decision	choicePhaseStart	3	157	37	foodImage.6	FOODEEG_Images\0113.jpg	YN	Left	Yes	1.66775180003606	0	557290	253
1090.115234375	0	decision	response	3	157	37	foodImage.6	FOODEEG_Images\0113.jpg	YN	Left	Yes	1.66775180003606	0	558140	234
1091.158203125	1	decision	trialStart	3	158	38	foodImage.62	FOODEEG_Images\0644.jpg	YN	Left	Yes	0.623742199968547	0	558674	251
1092.212890625	2	decision	foodImageDisplay	3	158	38	foodImage.62	FOODEEG_Images\0644.jpg	YN	Left	Yes	0.623742199968547	0	559214	252
1094.275390625	0.623742199968547	decision	choicePhaseStart	3	158	38	foodImage.62	FOODEEG_Images\0644.jpg	YN	Left	Yes	0.623742199968547	0	560270	253
1094.890625	0	decision	response	3	158	38	foodImage.62	FOODEEG_Images\0644.jpg	YN	Left	Yes	0.623742199968547	0	560585	234
1095.93359375	1	health	trialStart	3	159	39	foodImage.42	FOODEEG_Images\0438.jpg	NY	Right	Yes	1.30585310002789	0	561119	251
1097.01953125	2	health	foodImageDisplay	3	159	39	foodImage.42	FOODEEG_Images\0438.jpg	NY	Right	Yes	1.30585310002789	0	561675	252
1099.08203125	1.30585310002789	health	choicePhaseStart	3	159	39	foodImage.42	FOODEEG_Images\0438.jpg	NY	Right	Yes	1.30585310002789	0	562731	253
1100.376953125	0	health	response	3	159	39	foodImage.42	FOODEEG_Images\0438.jpg	NY	Right	Yes	1.30585310002789	0	563394	235
1101.421875	1	health	trialStart	3	160	40	foodImage.62	FOODEEG_Images\0644.jpg	NY	Right	Yes	0.71473889995832	0	563929	251
1102.48046875	2	health	foodImageDisplay	3	160	40	foodImage.62	FOODEEG_Images\0644.jpg	NY	Right	Yes	0.71473889995832	0	564471	252
1104.544921875	0.71473889995832	health	choicePhaseStart	3	160	40	foodImage.62	FOODEEG_Images\0644.jpg	NY	Right	Yes	0.71473889995832	0	565528	253
1105.25	0	health	response	3	160	40	foodImage.62	FOODEEG_Images\0644.jpg	NY	Right	Yes	0.71473889995832	0	565889	235
1106.29296875	1	health	trialStart	3	161	41	foodImage.19	FOODEEG_Images\0225.jpg	NY	Right	Yes	0.764166500070132	0	566423	251
1107.333984375	2	health	foodImageDisplay	3	161	41	foodImage.19	FOODEEG_Images\0225.jpg	NY	Right	Yes	0.764166500070132	0	566956	252
1109.3984375	0.764166500070132	health	choicePhaseStart	3	161	41	foodImage.19	FOODEEG_Images\0225.jpg	NY	Right	Yes	0.764166500070132	0	568013	253
1110.154296875	0	health	response	3	161	41	foodImage.19	FOODEEG_Images\0225.jpg	NY	Right	Yes	0.764166500070132	0	568400	235
1111.197265625	1	health	trialStart	3	162	42	foodImage.30	FOODEEG_Images\0282.jpg	YN	Left	Yes	0.685422800015658	0	568934	251
1112.23828125	2	health	foodImageDisplay	3	162	42	foodImage.30	FOODEEG_Images\0282.jpg	YN	Left	Yes	0.685422800015658	0	569467	252
1114.30078125	0.685422800015658	health	choicePhaseStart	3	162	42	foodImage.30	FOODEEG_Images\0282.jpg	YN	Left	Yes	0.685422800015658	0	570523	253
1114.9765625	0	health	response	3	162	42	foodImage.30	FOODEEG_Images\0282.jpg	YN	Left	Yes	0.685422800015658	0	570869	234
1116.01953125	1	decision	trialStart	3	163	43	foodImage.2	FOODEEG_Images\0028.jpg	YN	Left	Yes	1.1964002000168	0	571403	251
1117.0625	2	decision	foodImageDisplay	3	163	43	foodImage.2	FOODEEG_Images\0028.jpg	YN	Left	Yes	1.1964002000168	0	571937	252
1119.126953125	1.1964002000168	decision	choicePhaseStart	3	163	43	foodImage.2	FOODEEG_Images\0028.jpg	YN	Left	Yes	1.1964002000168	0	572994	253
1120.3125	0	decision	response	3	163	43	foodImage.2	FOODEEG_Images\0028.jpg	YN	Left	Yes	1.1964002000168	0	573601	234
1121.35546875	1	decision	trialStart	3	164	44	foodImage.25	FOODEEG_Images\0261.jpg	YN	Left	Yes	0.662171900039539	0	574135	251
1122.396484375	2	decision	foodImageDisplay	3	164	44	foodImage.25	FOODEEG_Images\0261.jpg	YN	Left	Yes	0.662171900039539	0	574668	252
1124.458984375	0.662171900039539	decision	choicePhaseStart	3	164	44	foodImage.25	FOODEEG_Images\0261.jpg	YN	Left	Yes	0.662171900039539	0	575724	253
1125.11328125	0	decision	response	3	164	44	foodImage.25	FOODEEG_Images\0261.jpg	YN	Left	Yes	0.662171900039539	0	576059	234
1126.15625	1	health	trialStart	3	165	45	foodImage.111	FOODEEG_Images\0919.jpg	YN	Right	No	0.480436900048517	0	576593	251
1127.208984375	2	health	foodImageDisplay	3	165	45	foodImage.111	FOODEEG_Images\0919.jpg	YN	Right	No	0.480436900048517	0	577132	252
1129.2734375	0.480436900048517	health	choicePhaseStart	3	165	45	foodImage.111	FOODEEG_Images\0919.jpg	YN	Right	No	0.480436900048517	0	578189	253
1129.744140625	0	health	response	3	165	45	foodImage.111	FOODEEG_Images\0919.jpg	YN	Right	No	0.480436900048517	0	578430	235
1130.7890625	1	taste	trialStart	3	166	46	foodImage.1	FOODEEG_Images\0004.jpg	YN	Left	Yes	1.1547556000296	0	578965	251
1131.83203125	2	taste	foodImageDisplay	3	166	46	foodImage.1	FOODEEG_Images\0004.jpg	YN	Left	Yes	1.1547556000296	0	579499	252
1133.89453125	1.1547556000296	taste	choicePhaseStart	3	166	46	foodImage.1	FOODEEG_Images\0004.jpg	YN	Left	Yes	1.1547556000296	0	580555	253
1135.041015625	0	taste	response	3	166	46	foodImage.1	FOODEEG_Images\0004.jpg	YN	Left	Yes	1.1547556000296	0	581142	234
1136.080078125	1	health	trialStart	3	167	47	foodImage.3	FOODEEG_Images\0046.jpg	NY	Left	No	0.99597609997727	0	581674	251
1137.123046875	2	health	foodImageDisplay	3	167	47	foodImage.3	FOODEEG_Images\0046.jpg	NY	Left	No	0.99597609997727	0	582208	252
1139.1875	0.99597609997727	health	choicePhaseStart	3	167	47	foodImage.3	FOODEEG_Images\0046.jpg	NY	Left	No	0.99597609997727	0	583265	253
1140.17578125	0	health	response	3	167	47	foodImage.3	FOODEEG_Images\0046.jpg	NY	Left	No	0.99597609997727	0	583771	234
1141.21875	1	taste	trialStart	3	168	48	foodImage.88	FOODEEG_Images\0878.jpg	NY	Right	Yes	1.35234179999679	0	584305	251
1142.2734375	2	taste	foodImageDisplay	3	168	48	foodImage.88	FOODEEG_Images\0878.jpg	NY	Right	Yes	1.35234179999679	0	584845	252
1144.337890625	1.35234179999679	taste	choicePhaseStart	3	168	48	foodImage.88	FOODEEG_Images\0878.jpg	NY	Right	Yes	1.35234179999679	0	585902	253
1145.6796875	0	taste	response	3	168	48	foodImage.88	FOODEEG_Images\0878.jpg	NY	Right	Yes	1.35234179999679	0	586589	235
1146.724609375	1	health	trialStart	3	169	49	foodImage.33	FOODEEG_Images\0329.jpg	NY	Right	Yes	1.06946289993357	0	587124	251
1147.765625	2	health	foodImageDisplay	3	169	49	foodImage.33	FOODEEG_Images\0329.jpg	NY	Right	Yes	1.06946289993357	0	587657	252
1149.828125	1.06946289993357	health	choicePhaseStart	3	169	49	foodImage.33	FOODEEG_Images\0329.jpg	NY	Right	Yes	1.06946289993357	0	588713	253
1150.888671875	0	health	response	3	169	49	foodImage.33	FOODEEG_Images\0329.jpg	NY	Right	Yes	1.06946289993357	0	589256	235
1151.931640625	1	taste	trialStart	3	170	50	foodImage.52	FOODEEG_Images\0539.jpg	YN	Right	No	0.845500100054778	0	589790	251
1152.990234375	2	taste	foodImageDisplay	3	170	50	foodImage.52	FOODEEG_Images\0539.jpg	YN	Right	No	0.845500100054778	0	590332	252
1155.052734375	0.845500100054778	taste	choicePhaseStart	3	170	50	foodImage.52	FOODEEG_Images\0539.jpg	YN	Right	No	0.845500100054778	0	591388	253
1155.888671875	0	taste	response	3	170	50	foodImage.52	FOODEEG_Images\0539.jpg	YN	Right	No	0.845500100054778	0	591816	235
1156.931640625	1	health	trialStart	3	171	51	foodImage.91	FOODEEG_Images\0896.jpg	YN	Right	No	0.814788699964993	0	592350	251
1157.986328125	2	health	foodImageDisplay	3	171	51	foodImage.91	FOODEEG_Images\0896.jpg	YN	Right	No	0.814788699964993	0	592890	252
1160.05078125	0.814788699964993	health	choicePhaseStart	3	171	51	foodImage.91	FOODEEG_Images\0896.jpg	YN	Right	No	0.814788699964993	0	593947	253
1160.85546875	0	health	response	3	171	51	foodImage.91	FOODEEG_Images\0896.jpg	YN	Right	No	0.814788699964993	0	594359	235
1161.896484375	1	decision	trialStart	3	172	52	foodImage.98	FOODEEG_Images\0906.jpg	NY	Left	No	1.41108500002883	0	594892	251
1162.935546875	2	decision	foodImageDisplay	3	172	52	foodImage.98	FOODEEG_Images\0906.jpg	NY	Left	No	1.41108500002883	0	595424	252
1164.998046875	1.41108500002883	decision	choicePhaseStart	3	172	52	foodImage.98	FOODEEG_Images\0906.jpg	NY	Left	No	1.41108500002883	0	596480	253
1166.3984375	0	decision	response	3	172	52	foodImage.98	FOODEEG_Images\0906.jpg	NY	Left	No	1.41108500002883	0	597197	234
1167.44140625	1	taste	trialStart	3	173	53	foodImage.79	FOODEEG_Images\0794.jpg	YN	Right	No	0.911085700034164	0	597731	251
1168.486328125	2	taste	foodImageDisplay	3	173	53	foodImage.79	FOODEEG_Images\0794.jpg	YN	Right	No	0.911085700034164	0	598266	252
1170.5546875	0.911085700034164	taste	choicePhaseStart	3	173	53	foodImage.79	FOODEEG_Images\0794.jpg	YN	Right	No	0.911085700034164	0	599325	253
1171.455078125	0	taste	response	3	173	53	foodImage.79	FOODEEG_Images\0794.jpg	YN	Right	No	0.911085700034164	0	599786	235
1172.5	1	decision	trialStart	3	174	54	foodImage.69	FOODEEG_Images\0693.jpg	YN	Left	Yes	0.697506800061092	0	600321	251
1173.54296875	2	decision	foodImageDisplay	3	174	54	foodImage.69	FOODEEG_Images\0693.jpg	YN	Left	Yes	0.697506800061092	0	600855	252
1175.607421875	0.697506800061092	decision	choicePhaseStart	3	174	54	foodImage.69	FOODEEG_Images\0693.jpg	YN	Left	Yes	0.697506800061092	0	601912	253
1176.294921875	0	decision	response	3	174	54	foodImage.69	FOODEEG_Images\0693.jpg	YN	Left	Yes	0.697506800061092	0	602264	234
1177.33984375	1	health	trialStart	3	175	55	foodImage.108	FOODEEG_Images\0916.jpg	YN	Right	No	0.895048700040206	0	602799	251
1178.376953125	2	health	foodImageDisplay	3	175	55	foodImage.108	FOODEEG_Images\0916.jpg	YN	Right	No	0.895048700040206	0	603330	252
1180.44140625	0.895048700040206	health	choicePhaseStart	3	175	55	foodImage.108	FOODEEG_Images\0916.jpg	YN	Right	No	0.895048700040206	0	604387	253
1181.326171875	0	health	response	3	175	55	foodImage.108	FOODEEG_Images\0916.jpg	YN	Right	No	0.895048700040206	0	604840	235
1182.373046875	1	taste	trialStart	3	176	56	foodImage.118	FOODEEG_Images\0926.jpg	YN	Right	No	1.89394430001266	0	605376	251
1183.41015625	2	taste	foodImageDisplay	3	176	56	foodImage.118	FOODEEG_Images\0926.jpg	YN	Right	No	1.89394430001266	0	605907	252
1185.474609375	1.89394430001266	taste	choicePhaseStart	3	176	56	foodImage.118	FOODEEG_Images\0926.jpg	YN	Right	No	1.89394430001266	0	606964	253
1187.357421875	0	taste	response	3	176	56	foodImage.118	FOODEEG_Images\0926.jpg	YN	Right	No	1.89394430001266	0	607928	235
1188.400390625	1	taste	trialStart	3	177	57	foodImage.28	FOODEEG_Images\0273.jpg	YN	Right	No	0.735430599888787	0	608462	251
1189.443359375	2	taste	foodImageDisplay	3	177	57	foodImage.28	FOODEEG_Images\0273.jpg	YN	Right	No	0.735430599888787	0	608996	252
1191.51171875	0.735430599888787	taste	choicePhaseStart	3	177	57	foodImage.28	FOODEEG_Images\0273.jpg	YN	Right	No	0.735430599888787	0	610055	253
1192.23828125	0	taste	response	3	177	57	foodImage.28	FOODEEG_Images\0273.jpg	YN	Right	No	0.735430599888787	0	610427	235
1193.283203125	1	taste	trialStart	3	178	58	foodImage.106	FOODEEG_Images\0914.jpg	YN	Left	Yes	0.68532549997326	0	610962	251
1194.322265625	2	taste	foodImageDisplay	3	178	58	foodImage.106	FOODEEG_Images\0914.jpg	YN	Left	Yes	0.68532549997326	0	611494	252
1196.38671875	0.68532549997326	taste	choicePhaseStart	3	178	58	foodImage.106	FOODEEG_Images\0914.jpg	YN	Left	Yes	0.68532549997326	0	612551	253
1197.0625	0	taste	response	3	178	58	foodImage.106	FOODEEG_Images\0914.jpg	YN	Left	Yes	0.68532549997326	0	612897	234
1198.10546875	1	health	trialStart	3	179	59	foodImage.92	FOODEEG_Images\0900.jpg	NY	Right	Yes	0.943084400030784	0	613431	251
1199.142578125	2	health	foodImageDisplay	3	179	59	foodImage.92	FOODEEG_Images\0900.jpg	NY	Right	Yes	0.943084400030784	0	613962	252
1201.20703125	0.943084400030784	health	choicePhaseStart	3	179	59	foodImage.92	FOODEEG_Images\0900.jpg	NY	Right	Yes	0.943084400030784	0	615019	253
1202.142578125	0	health	response	3	179	59	foodImage.92	FOODEEG_Images\0900.jpg	NY	Right	Yes	0.943084400030784	0	615498	235
1203.1875	1	decision	trialStart	3	180	60	foodImage.61	FOODEEG_Images\0640.jpg	YN	Left	Yes	1.03374660003465	0	616033	251
1204.23046875	2	decision	foodImageDisplay	3	180	60	foodImage.61	FOODEEG_Images\0640.jpg	YN	Left	Yes	1.03374660003465	0	616567	252
1206.29296875	1.03374660003465	decision	choicePhaseStart	3	180	60	foodImage.61	FOODEEG_Images\0640.jpg	YN	Left	Yes	1.03374660003465	0	617623	253
1207.318359375	0	decision	response	3	180	60	foodImage.61	FOODEEG_Images\0640.jpg	YN	Left	Yes	1.03374660003465	0	618148	234
1209.359375	18.10546875	n/a	blockEnd	n/a	n/a	n/a	n/a	n/a	n/a	n/a	n/a	n/a	n/a	619193	254
1227.46484375	2	n/a	blockStart	4	n/a	n/a	n/a	n/a	n/a	n/a	n/a	n/a	n/a	628463	250
1229.49609375	1	decision	trialStart	4	181	1	foodImage.14	FOODEEG_Images\0188.jpg	NY	Right	Yes	3.32949719997123	0	629503	251
1230.556640625	2	decision	foodImageDisplay	4	181	1	foodImage.14	FOODEEG_Images\0188.jpg	NY	Right	Yes	3.32949719997123	0	630046	252
1232.62109375	3.32949719997123	decision	choicePhaseStart	4	181	1	foodImage.14	FOODEEG_Images\0188.jpg	NY	Right	Yes	3.32949719997123	0	631103	253
1235.94140625	0	decision	response	4	181	1	foodImage.14	FOODEEG_Images\0188.jpg	NY	Right	Yes	3.32949719997123	0	632803	235
1236.984375	1	decision	trialStart	4	182	2	foodImage.66	FOODEEG_Images\0676.jpg	YN	Right	No	0.643203999963589	0	633337	251
1238.025390625	2	decision	foodImageDisplay	4	182	2	foodImage.66	FOODEEG_Images\0676.jpg	YN	Right	No	0.643203999963589	0	633870	252
1240.091796875	0.643203999963589	decision	choicePhaseStart	4	182	2	foodImage.66	FOODEEG_Images\0676.jpg	YN	Right	No	0.643203999963589	0	634928	253
1240.724609375	0	decision	response	4	182	2	foodImage.66	FOODEEG_Images\0676.jpg	YN	Right	No	0.643203999963589	0	635252	235
1241.767578125	1	health	trialStart	4	183	3	foodImage.103	FOODEEG_Images\0911.jpg	NY	Right	Yes	0.959587300079875	0	635786	251
1242.806640625	2	health	foodImageDisplay	4	183	3	foodImage.103	FOODEEG_Images\0911.jpg	NY	Right	Yes	0.959587300079875	0	636318	252
1244.869140625	0.959587300079875	health	choicePhaseStart	4	183	3	foodImage.103	FOODEEG_Images\0911.jpg	NY	Right	Yes	0.959587300079875	0	637374	253
1245.8203125	0	health	response	4	183	3	foodImage.103	FOODEEG_Images\0911.jpg	NY	Right	Yes	0.959587300079875	0	637861	235
1246.86328125	1	health	trialStart	4	184	4	foodImage.95	FOODEEG_Images\0903.jpg	NY	Left	No	1.0019516000757	0	638395	251
1247.900390625	2	health	foodImageDisplay	4	184	4	foodImage.95	FOODEEG_Images\0903.jpg	NY	Left	No	1.0019516000757	0	638926	252
1249.96484375	1.0019516000757	health	choicePhaseStart	4	184	4	foodImage.95	FOODEEG_Images\0903.jpg	NY	Left	No	1.0019516000757	0	639983	253
1250.955078125	0	health	response	4	184	4	foodImage.95	FOODEEG_Images\0903.jpg	NY	Left	No	1.0019516000757	0	640490	234
1252.001953125	1	health	trialStart	4	185	5	foodImage.37	FOODEEG_Images\0359.jpg	YN	Left	Yes	0.595419200020842	0	641026	251
1253.05078125	2	health	foodImageDisplay	4	185	5	foodImage.37	FOODEEG_Images\0359.jpg	YN	Left	Yes	0.595419200020842	0	641563	252
1255.11328125	0.595419200020842	health	choicePhaseStart	4	185	5	foodImage.37	FOODEEG_Images\0359.jpg	YN	Left	Yes	0.595419200020842	0	642619	253
1255.69921875	0	health	response	4	185	5	foodImage.37	FOODEEG_Images\0359.jpg	YN	Left	Yes	0.595419200020842	0	642919	234
1256.7421875	1	health	trialStart	4	186	6	foodImage.57	FOODEEG_Images\0587.jpg	NY	Right	Yes	0.81807270005811	0	643453	251
1257.787109375	2	health	foodImageDisplay	4	186	6	foodImage.57	FOODEEG_Images\0587.jpg	NY	Right	Yes	0.81807270005811	0	643988	252
1259.849609375	0.81807270005811	health	choicePhaseStart	4	186	6	foodImage.57	FOODEEG_Images\0587.jpg	NY	Right	Yes	0.81807270005811	0	645044	253
1260.66015625	0	health	response	4	186	6	foodImage.57	FOODEEG_Images\0587.jpg	NY	Right	Yes	0.81807270005811	0	645459	235
1261.703125	1	health	trialStart	4	187	7	foodImage.11	FOODEEG_Images\0180.jpg	YN	Left	Yes	0.537726799957454	0	645993	251
1262.74609375	2	health	foodImageDisplay	4	187	7	foodImage.11	FOODEEG_Images\0180.jpg	YN	Left	Yes	0.537726799957454	0	646527	252
1264.810546875	0.537726799957454	health	choicePhaseStart	4	187	7	foodImage.11	FOODEEG_Images\0180.jpg	YN	Left	Yes	0.537726799957454	0	647584	253
1265.33984375	0	health	response	4	187	7	foodImage.11	FOODEEG_Images\0180.jpg	YN	Left	Yes	0.537726799957454	0	647855	234
1266.3828125	1	taste	trialStart	4	188	8	foodImage.58	FOODEEG_Images\0605.jpg	NY	Right	Yes	0.805961499921978	0	648389	251
1267.439453125	2	taste	foodImageDisplay	4	188	8	foodImage.58	FOODEEG_Images\0605.jpg	NY	Right	Yes	0.805961499921978	0	648930	252
1269.501953125	0.805961499921978	taste	choicePhaseStart	4	188	8	foodImage.58	FOODEEG_Images\0605.jpg	NY	Right	Yes	0.805961499921978	0	649986	253
1270.298828125	0	taste	response	4	188	8	foodImage.58	FOODEEG_Images\0605.jpg	NY	Right	Yes	0.805961499921978	0	650394	235
1271.341796875	1	taste	trialStart	4	189	9	foodImage.12	FOODEEG_Images\0181.jpg	NY	Right	Yes	0.644739100011066	0	650928	251
1272.3828125	2	taste	foodImageDisplay	4	189	9	foodImage.12	FOODEEG_Images\0181.jpg	NY	Right	Yes	0.644739100011066	0	651461	252
1274.447265625	0.644739100011066	taste	choicePhaseStart	4	189	9	foodImage.12	FOODEEG_Images\0181.jpg	NY	Right	Yes	0.644739100011066	0	652518	253
1275.083984375	0	taste	response	4	189	9	foodImage.12	FOODEEG_Images\0181.jpg	NY	Right	Yes	0.644739100011066	0	652844	235
1276.126953125	1	taste	trialStart	4	190	10	foodImage.100	FOODEEG_Images\0908.jpg	NY	Left	No	0.670748800039291	0	653378	251
1277.166015625	2	taste	foodImageDisplay	4	190	10	foodImage.100	FOODEEG_Images\0908.jpg	NY	Left	No	0.670748800039291	0	653910	252
1279.23046875	0.670748800039291	taste	choicePhaseStart	4	190	10	foodImage.100	FOODEEG_Images\0908.jpg	NY	Left	No	0.670748800039291	0	654967	253
1279.890625	0	taste	response	4	190	10	foodImage.100	FOODEEG_Images\0908.jpg	NY	Left	No	0.670748800039291	0	655305	234
1280.935546875	1	taste	trialStart	4	191	11	foodImage.57	FOODEEG_Images\0587.jpg	NY	Right	Yes	1.20291909994557	0	655840	251
1281.978515625	2	taste	foodImageDisplay	4	191	11	foodImage.57	FOODEEG_Images\0587.jpg	NY	Right	Yes	1.20291909994557	0	656374	252
1284.041015625	1.20291909994557	taste	choicePhaseStart	4	191	11	foodImage.57	FOODEEG_Images\0587.jpg	NY	Right	Yes	1.20291909994557	0	657430	253
1285.234375	0	taste	response	4	191	11	foodImage.57	FOODEEG_Images\0587.jpg	NY	Right	Yes	1.20291909994557	0	658041	235
1286.27734375	1	taste	trialStart	4	192	12	foodImage.47	FOODEEG_Images\0488.jpg	NY	Left	No	0.740677300025709	0	658575	251
1287.3203125	2	taste	foodImageDisplay	4	192	12	foodImage.47	FOODEEG_Images\0488.jpg	NY	Left	No	0.740677300025709	0	659109	252
1289.3828125	0.740677300025709	taste	choicePhaseStart	4	192	12	foodImage.47	FOODEEG_Images\0488.jpg	NY	Left	No	0.740677300025709	0	660165	253
1290.11328125	0	taste	response	4	192	12	foodImage.47	FOODEEG_Images\0488.jpg	NY	Left	No	0.740677300025709	0	660539	234
1291.158203125	1	decision	trialStart	4	193	13	foodImage.75	FOODEEG_Images\0763.jpg	NY	Right	Yes	0.712939399993047	0	661074	251
1292.201171875	2	decision	foodImageDisplay	4	193	13	foodImage.75	FOODEEG_Images\0763.jpg	NY	Right	Yes	0.712939399993047	0	661608	252
1294.265625	0.712939399993047	decision	choicePhaseStart	4	193	13	foodImage.75	FOODEEG_Images\0763.jpg	NY	Right	Yes	0.712939399993047	0	662665	253
1294.970703125	0	decision	response	4	193	13	foodImage.75	FOODEEG_Images\0763.jpg	NY	Right	Yes	0.712939399993047	0	663026	235
1296.01171875	1	taste	trialStart	4	194	14	foodImage.25	FOODEEG_Images\0261.jpg	YN	Right	No	0.621795800048858	0	663559	251
1297.052734375	2	taste	foodImageDisplay	4	194	14	foodImage.25	FOODEEG_Images\0261.jpg	YN	Right	No	0.621795800048858	0	664092	252
1299.1171875	0.621795800048858	taste	choicePhaseStart	4	194	14	foodImage.25	FOODEEG_Images\0261.jpg	YN	Right	No	0.621795800048858	0	665149	253
