onset	duration	trial_type	event_type	block	trial_total	trial_in_block	food_image_code	food_image_path	button_position	resp_position	resp_choice	choice_rt	resp_too_slow	sample	trigger
298.69140625	2	n/a	blockStart	1	n/a	n/a	n/a	n/a	n/a	n/a	n/a	n/a	n/a	152931	250
300.728515625	1	taste	trialStart	1	1	1	foodImage.112	FOODEEG_Images\0920.jpg	YN	Right	No	0.81018369999947	0	153974	251
301.7734375	2	taste	foodImageDisplay	1	1	1	foodImage.112	FOODEEG_Images\0920.jpg	YN	Right	No	0.81018369999947	0	154509	252
303.83984375	0.81018369999947	taste	choicePhaseStart	1	1	1	foodImage.112	FOODEEG_Images\0920.jpg	YN	Right	No	0.81018369999947	0	155567	253
304.642578125	0	taste	response	1	1	1	foodImage.112	FOODEEG_Images\0920.jpg	YN	Right	No	0.81018369999947	0	155978	235
305.751953125	1	decision	trialStart	1	2	2	foodImage.84	FOODEEG_Images\0830.jpg	NY	Right	Yes	2.53045930003282	0	156546	251
306.80859375	2	decision	foodImageDisplay	1	2	2	foodImage.84	FOODEEG_Images\0830.jpg	NY	Right	Yes	2.53045930003282	0	157087	252
308.873046875	2.53045930003282	decision	choicePhaseStart	1	2	2	foodImage.84	FOODEEG_Images\0830.jpg	NY	Right	Yes	2.53045930003282	0	158144	253
311.39453125	0	decision	response	1	2	2	foodImage.84	FOODEEG_Images\0830.jpg	NY	Right	Yes	2.53045930003282	0	159435	235
312.453125	1	decision	trialStart	1	3	3	foodImage.44	FOODEEG_Images\0459.jpg	NY	Right	Yes	0.943375499977265	0	159977	251
313.5	2	decision	foodImageDisplay	1	3	3	foodImage.44	FOODEEG_Images\0459.jpg	NY	Right	Yes	0.943375499977265	0	160513	252
315.5625	0.943375499977265	decision	choicePhaseStart	1	3	3	foodImage.44	FOODEEG_Images\0459.jpg	NY	Right	Yes	0.943375499977265	0	161569	253
316.498046875	0	decision	response	1	3	3	foodImage.44	FOODEEG_Images\0459.jpg	NY	Right	Yes	0.943375499977265	0	162048	235
317.541015625	1	health	trialStart	1	4	4	foodImage.37	FOODEEG_Images\0359.jpg	YN	Left	Yes	0.905676199996378	0	162582	251
318.583984375	2	health	foodImageDisplay	1	4	4	foodImage.37	FOODEEG_Images\0359.jpg	YN	Left	Yes	0.905676199996378	0	163116	252
320.646484375	0.905676199996378	health	choicePhaseStart	1	4	4	foodImage.37	FOODEEG_Images\0359.jpg	YN	Left	Yes	0.905676199996378	0	164172	253
321.544921875	0	health	response	1	4	4	foodImage.37	FOODEEG_Images\0359.jpg	YN	Left	Yes	0.905676199996378	0	164632	234
322.587890625	1	taste	trialStart	1	5	5	foodImage.91	FOODEEG_Images\0896.jpg	NY	Right	Yes	0.857900800008792	0	165166	251
323.671875	2	taste	foodImageDisplay	1	5	5	foodImage.91	FOODEEG_Images\0896.jpg	NY	Right	Yes	0.857900800008792	0	165721	252
325.736328125	0.857900800008792	taste	choicePhaseStart	1	5	5	foodImage.91	FOODEEG_Images\0896.jpg	NY	Right	Yes	0.857900800008792	0	166778	253
326.583984375	0	taste	response	1	5	5	foodImage.91	FOODEEG_Images\0896.jpg	NY	Right	Yes	0.857900800008792	0	167212	235
327.650390625	1	decision	trialStart	1	6	6	foodImage.112	FOODEEG_Images\0920.jpg	YN	Right	No	1.1029247000115	0	167758	251
328.689453125	2	decision	foodImageDisplay	1	6	6	foodImage.112	FOODEEG_Images\0920.jpg	YN	Right	No	1.1029247000115	0	168290	252
330.75390625	1.1029247000115	decision	choicePhaseStart	1	6	6	foodImage.112	FOODEEG_Images\0920.jpg	YN	Right	No	1.1029247000115	0	169347	253
331.849609375	0	decision	response	1	6	6	foodImage.112	FOODEEG_Images\0920.jpg	YN	Right	No	1.1029247000115	0	169908	235
332.890625	1	decision	trialStart	1	7	7	foodImage.42	FOODEEG_Images\0438.jpg	YN	Right	No	1.23115959996358	0	170441	251
333.978515625	2	decision	foodImageDisplay	1	7	7	foodImage.42	FOODEEG_Images\0438.jpg	YN	Right	No	1.23115959996358	0	170998	252
336.04296875	1.23115959996358	decision	choicePhaseStart	1	7	7	foodImage.42	FOODEEG_Images\0438.jpg	YN	Right	No	1.23115959996358	0	172055	253
337.265625	0	decision	response	1	7	7	foodImage.42	FOODEEG_Images\0438.jpg	YN	Right	No	1.23115959996358	0	172681	235
338.30859375	1	health	trialStart	1	8	8	foodImage.68	FOODEEG_Images\0685.jpg	NY	Left	No	1.20753670000704	0	173215	251
339.38671875	2	health	foodImageDisplay	1	8	8	foodImage.68	FOODEEG_Images\0685.jpg	NY	Left	No	1.20753670000704	0	173767	252
341.451171875	1.20753670000704	health	choicePhaseStart	1	8	8	foodImage.68	FOODEEG_Images\0685.jpg	NY	Left	No	1.20753670000704	0	174824	253
342.6484375	0	health	response	1	8	8	foodImage.68	FOODEEG_Images\0685.jpg	NY	Left	No	1.20753670000704	0	175437	234
343.69140625	1	taste	trialStart	1	9	9	foodImage.40	FOODEEG_Images\0373.jpg	NY	Right	Yes	1.05924160004361	0	175971	251
344.732421875	2	taste	foodImageDisplay	1	9	9	foodImage.40	FOODEEG_Images\0373.jpg	NY	Right	Yes	1.05924160004361	0	176504	252
346.794921875	1.05924160004361	taste	choicePhaseStart	1	9	9	foodImage.40	FOODEEG_Images\0373.jpg	NY	Right	Yes	1.05924160004361	0	177560	253
347.84765625	0	taste	response	1	9	9	foodImage.40	FOODEEG_Images\0373.jpg	NY	Right	Yes	1.05924160004361	0	178099	235
348.890625	1	health	trialStart	1	10	10	foodImage.100	FOODEEG_Images\0908.jpg	NY	Left	No	1.29613950004568	0	178633	251
349.927734375	2	health	foodImageDisplay	1	10	10	foodImage.100	FOODEEG_Images\0908.jpg	NY	Left	No	1.29613950004568	0	179164	252
351.9921875	1.29613950004568	health	choicePhaseStart	1	10	10	foodImage.100	FOODEEG_Images\0908.jpg	NY	Left	No	1.29613950004568	0	180221	253
353.279296875	0	health	response	1	10	10	foodImage.100	FOODEEG_Images\0908.jpg	NY	Left	No	1.29613950004568	0	180880	234
354.32421875	1	decision	trialStart	1	11	11	foodImage.31	FOODEEG_Images\0294.jpg	YN	Left	Yes	0.848169600008987	0	181415	251
355.3671875	2	decision	foodImageDisplay	1	11	11	foodImage.31	FOODEEG_Images\0294.jpg	YN	Left	Yes	0.848169600008987	0	181949	252
357.4296875	0.848169600008987	decision	choicePhaseStart	1	11	11	foodImage.31	FOODEEG_Images\0294.jpg	YN	Left	Yes	0.848169600008987	0	183005	253
358.271484375	0	decision	response	1	11	11	foodImage.31	FOODEEG_Images\0294.jpg	YN	Left	Yes	0.848169600008987	0	183436	234
359.314453125	1	decision	trialStart	1	12	12	foodImage.10	FOODEEG_Images\0145.jpg	YN	Right	No	1.30941250000615	0	183970	251
360.37109375	2	decision	foodImageDisplay	1	12	12	foodImage.10	FOODEEG_Images\0145.jpg	YN	Right	No	1.30941250000615	0	184511	252
362.435546875	1.30941250000615	decision	choicePhaseStart	1	12	12	foodImage.10	FOODEEG_Images\0145.jpg	YN	Right	No	1.30941250000615	0	185568	253
363.736328125	0	decision	response	1	12	12	foodImage.10	FOODEEG_Images\0145.jpg	YN	Right	No	1.30941250000615	0	186234	235
364.77734375	1	decision	trialStart	1	13	13	foodImage.89	FOODEEG_Images\0881.jpg	YN	Left	Yes	0.671365499962121	0	186767	251
365.833984375	2	decision	foodImageDisplay	1	13	13	foodImage.89	FOODEEG_Images\0881.jpg	YN	Left	Yes	0.671365499962121	0	187308	252
367.896484375	0.671365499962121	decision	choicePhaseStart	1	13	13	foodImage.89	FOODEEG_Images\0881.jpg	YN	Left	Yes	0.671365499962121	0	188364	253
368.560546875	0	decision	response	1	13	13	foodImage.89	FOODEEG_Images\0881.jpg	YN	Left	Yes	0.671365499962121	0	188704	234
369.603515625	1	decision	trialStart	1	14	14	foodImage.87	FOODEEG_Images\0873.jpg	NY	Right	Yes	0.949131799978204	0	189238	251
370.66796875	2	decision	foodImageDisplay	1	14	14	foodImage.87	FOODEEG_Images\0873.jpg	NY	Right	Yes	0.949131799978204	0	189783	252
372.732421875	0.949131799978204	decision	choicePhaseStart	1	14	14	foodImage.87	FOODEEG_Images\0873.jpg	NY	Right	Yes	0.949131799978204	0	190840	253
373.671875	0	decision	response	1	14	14	foodImage.87	FOODEEG_Images\0873.jpg	NY	Right	Yes	0.949131799978204	0	191321	235
374.71875	1	taste	trialStart	1	15	15	foodImage.88	FOODEEG_Images\0878.jpg	NY	Right	Yes	0.699526100012008	0	191857	251
375.7734375	2	taste	foodImageDisplay	1	15	15	foodImage.88	FOODEEG_Images\0878.jpg	NY	Right	Yes	0.699526100012008	0	192397	252
377.8359375	0.699526100012008	taste	choicePhaseStart	1	15	15	foodImage.88	FOODEEG_Images\0878.jpg	NY	Right	Yes	0.699526100012008	0	193453	253
378.52734375	0	taste	response	1	15	15	foodImage.88	FOODEEG_Images\0878.jpg	NY	Right	Yes	0.699526100012008	0	193807	235
379.568359375	1	taste	trialStart	1	16	16	foodImage.78	FOODEEG_Images\0787.jpg	NY	Left	No	0.977343300008215	0	194340	251
380.615234375	2	taste	foodImageDisplay	1	16	16	foodImage.78	FOODEEG_Images\0787.jpg	NY	Left	No	0.977343300008215	0	194876	252
382.677734375	0.977343300008215	taste	choicePhaseStart	1	16	16	foodImage.78	FOODEEG_Images\0787.jpg	NY	Left	No	0.977343300008215	0	195932	253
383.646484375	0	taste	response	1	16	16	foodImage.78	FOODEEG_Images\0787.jpg	NY	Left	No	0.977343300008215	0	196428	234
384.689453125	1	decision	trialStart	1	17	17	foodImage.33	FOODEEG_Images\0329.jpg	YN	Right	No	1.90388669999084	0	196962	251
385.736328125	2	decision	foodImageDisplay	1	17	17	foodImage.33	FOODEEG_Images\0329.jpg	YN	Right	No	1.90388669999084	0	197498	252
387.798828125	1.90388669999084	decision	choicePhaseStart	1	17	17	foodImage.33	FOODEEG_Images\0329.jpg	YN	Right	No	1.90388669999084	0	198554	253
389.6953125	0	decision	response	1	17	17	foodImage.33	FOODEEG_Images\0329.jpg	YN	Right	No	1.90388669999084	0	199525	235
390.751953125	1	taste	trialStart	1	18	18	foodImage.103	FOODEEG_Images\0911.jpg	NY	Left	No	1.05562009999994	0	200066	251
391.791015625	2	taste	foodImageDisplay	1	18	18	foodImage.103	FOODEEG_Images\0911.jpg	NY	Left	No	1.05562009999994	0	200598	252
393.85546875	1.05562009999994	taste	choicePhaseStart	1	18	18	foodImage.103	FOODEEG_Images\0911.jpg	NY	Left	No	1.05562009999994	0	201655	253
394.90234375	0	taste	response	1	18	18	foodImage.103	FOODEEG_Images\0911.jpg	NY	Left	No	1.05562009999994	0	202191	234
395.94140625	1	health	trialStart	1	19	19	foodImage.4	FOODEEG_Images\0065.jpg	NY	Left	No	0.792358700011391	0	202723	251
397.001953125	2	health	foodImageDisplay	1	19	19	foodImage.4	FOODEEG_Images\0065.jpg	NY	Left	No	0.792358700011391	0	203266	252
399.064453125	0.792358700011391	health	choicePhaseStart	1	19	19	foodImage.4	FOODEEG_Images\0065.jpg	NY	Left	No	0.792358700011391	0	204322	253
399.845703125	0	health	response	1	19	19	foodImage.4	FOODEEG_Images\0065.jpg	NY	Left	No	0.792358700011391	0	204722	234
400.89453125	1	health	trialStart	1	20	20	foodImage.11	FOODEEG_Images\0180.jpg	YN	Right	No	4.3919845999917	0	205259	251
401.935546875	2	health	foodImageDisplay	1	20	20	foodImage.11	FOODEEG_Images\0180.jpg	YN	Right	No	4.3919845999917	0	205792	252
403.998046875	4.3919845999917	health	choicePhaseStart	1	20	20	foodImage.11	FOODEEG_Images\0180.jpg	YN	Right	No	4.3919845999917	0	206848	253
408.380859375	0	health	response	1	20	20	foodImage.11	FOODEEG_Images\0180.jpg	YN	Right	No	4.3919845999917	0	209092	235
409.421875	1	health	trialStart	1	21	21	foodImage.74	FOODEEG_Images\0752.jpg	YN	Left	Yes	1.12980890000472	0	209625	251
410.46875	2	health	foodImageDisplay	1	21	21	foodImage.74	FOODEEG_Images\0752.jpg	YN	Left	Yes	1.12980890000472	0	210161	252
412.53125	1.12980890000472	health	choicePhaseStart	1	21	21	foodImage.74	FOODEEG_Images\0752.jpg	YN	Left	Yes	1.12980890000472	0	211217	253
413.65234375	0	health	response	1	21	21	foodImage.74	FOODEEG_Images\0752.jpg	YN	Left	Yes	1.12980890000472	0	211791	234
414.6953125	1	health	trialStart	1	22	22	foodImage.49	FOODEEG_Images\0515.jpg	YN	Right	No	1.24284820002504	0	212325	251
415.736328125	2	health	foodImageDisplay	1	22	22	foodImage.49	FOODEEG_Images\0515.jpg	YN	Right	No	1.24284820002504	0	212858	252
417.80078125	1.24284820002504	health	choicePhaseStart	1	22	22	foodImage.49	FOODEEG_Images\0515.jpg	YN	Right	No	1.24284820002504	0	213915	253
419.037109375	0	health	response	1	22	22	foodImage.49	FOODEEG_Images\0515.jpg	YN	Right	No	1.24284820002504	0	214548	235
420.076171875	1	health	trialStart	1	23	23	foodImage.77	FOODEEG_Images\0771.jpg	NY	Right	Yes	1.19783030002145	0	215080	251
421.12109375	2	health	foodImageDisplay	1	23	23	foodImage.77	FOODEEG_Images\0771.jpg	NY	Right	Yes	1.19783030002145	0	215615	252
423.18359375	1.19783030002145	health	choicePhaseStart	1	23	23	foodImage.77	FOODEEG_Images\0771.jpg	NY	Right	Yes	1.19783030002145	0	216671	253
424.373046875	0	health	response	1	23	23	foodImage.77	FOODEEG_Images\0771.jpg	NY	Right	Yes	1.19783030002145	0	217280	235
425.416015625	1	health	trialStart	1	24	24	foodImage.108	FOODEEG_Images\0916.jpg	NY	Left	No	1.03978609998012	0	217814	251
426.455078125	2	health	foodImageDisplay	1	24	24	foodImage.108	FOODEEG_Images\0916.jpg	NY	Left	No	1.03978609998012	0	218346	252
428.517578125	1.03978609998012	health	choicePhaseStart	1	24	24	foodImage.108	FOODEEG_Images\0916.jpg	NY	Left	No	1.03978609998012	0	219402	253
429.548828125	0	health	response	1	24	24	foodImage.108	FOODEEG_Images\0916.jpg	NY	Left	No	1.03978609998012	0	219930	234
430.58984375	1	taste	trialStart	1	25	25	foodImage.94	FOODEEG_Images\0902.jpg	YN	Right	No	1.15879049996147	0	220463	251
431.630859375	2	taste	foodImageDisplay	1	25	25	foodImage.94	FOODEEG_Images\0902.jpg	YN	Right	No	1.15879049996147	0	220996	252
433.6953125	1.15879049996147	taste	choicePhaseStart	1	25	25	foodImage.94	FOODEEG_Images\0902.jpg	YN	Right	No	1.15879049996147	0	222053	253
434.84375	0	taste	response	1	25	25	foodImage.94	FOODEEG_Images\0902.jpg	YN	Right	No	1.15879049996147	0	222641	235
435.890625	1	taste	trialStart	1	26	26	foodImage.118	FOODEEG_Images\0926.jpg	YN	Right	No	0.963923899980728	0	223177	251
436.947265625	2	taste	foodImageDisplay	1	26	26	foodImage.118	FOODEEG_Images\0926.jpg	YN	Right	No	0.963923899980728	0	223718	252
439.009765625	0.963923899980728	taste	choicePhaseStart	1	26	26	foodImage.118	FOODEEG_Images\0926.jpg	YN	Right	No	0.963923899980728	0	224774	253
439.96484375	0	taste	response	1	26	26	foodImage.118	FOODEEG_Images\0926.jpg	YN	Right	No	0.963923899980728	0	225263	235
441.005859375	1	health	trialStart	1	27	27	foodImage.90	FOODEEG_Images\0890.jpg	YN	Right	No	1.32817300001625	0	225796	251
442.0625	2	health	foodImageDisplay	1	27	27	foodImage.90	FOODEEG_Images\0890.jpg	YN	Right	No	1.32817300001625	0	226337	252
444.125	1.32817300001625	health	choicePhaseStart	1	27	27	foodImage.90	FOODEEG_Images\0890.jpg	YN	Right	No	1.32817300001625	0	227393	253
445.443359375	0	health	response	1	27	27	foodImage.90	FOODEEG_Images\0890.jpg	YN	Right	No	1.32817300001625	0	228068	235
446.486328125	1	taste	trialStart	1	28	28	foodImage.64	FOODEEG_Images\0647.jpg	YN	Right	No	0.971097500005271	0	228602	251
447.546875	2	taste	foodImageDisplay	1	28	28	foodImage.64	FOODEEG_Images\0647.jpg	YN	Right	No	0.971097500005271	0	229145	252
449.609375	0.971097500005271	taste	choicePhaseStart	1	28	28	foodImage.64	FOODEEG_Images\0647.jpg	YN	Right	No	0.971097500005271	0	230201	253
450.572265625	0	taste	response	1	28	28	foodImage.64	FOODEEG_Images\0647.jpg	YN	Right	No	0.971097500005271	0	230694	235
451.61328125	1	taste	trialStart	1	29	29	foodImage.11	FOODEEG_Images\0180.jpg	YN	Right	No	1.2457393000368	0	231227	251
452.65625	2	taste	foodImageDisplay	1	29	29	foodImage.11	FOODEEG_Images\0180.jpg	YN	Right	No	1.2457393000368	0	231761	252
454.71875	1.2457393000368	taste	choicePhaseStart	1	29	29	foodImage.11	FOODEEG_Images\0180.jpg	YN	Right	No	1.2457393000368	0	232817	253
455.955078125	0	taste	response	1	29	29	foodImage.11	FOODEEG_Images\0180.jpg	YN	Right	No	1.2457393000368	0	233450	235
456.998046875	1	taste	trialStart	1	30	30	foodImage.101	FOODEEG_Images\0909.jpg	NY	Left	No	0.837892399984412	0	233984	251
458.037109375	2	taste	foodImageDisplay	1	30	30	foodImage.101	FOODEEG_Images\0909.jpg	NY	Left	No	0.837892399984412	0	234516	252
460.1015625	0.837892399984412	taste	choicePhaseStart	1	30	30	foodImage.101	FOODEEG_Images\0909.jpg	NY	Left	No	0.837892399984412	0	235573	253
460.931640625	0	taste	response	1	30	30	foodImage.101	FOODEEG_Images\0909.jpg	NY	Left	No	0.837892399984412	0	235998	234
461.97265625	1	health	trialStart	1	31	31	foodImage.109	FOODEEG_Images\0917.jpg	YN	Right	No	0.808875800052192	0	236531	251
463.013671875	2	health	foodImageDisplay	1	31	31	foodImage.109	FOODEEG_Images\0917.jpg	YN	Right	No	0.808875800052192	0	237064	252
465.076171875	0.808875800052192	health	choicePhaseStart	1	31	31	foodImage.109	FOODEEG_Images\0917.jpg	YN	Right	No	0.808875800052192	0	238120	253
465.875	0	health	response	1	31	31	foodImage.109	FOODEEG_Images\0917.jpg	YN	Right	No	0.808875800052192	0	238529	235
466.91796875	1	health	trialStart	1	32	32	foodImage.41	FOODEEG_Images\0409.jpg	NY	Right	Yes	0.806810799986124	0	239063	251
467.96484375	2	health	foodImageDisplay	1	32	32	foodImage.41	FOODEEG_Images\0409.jpg	NY	Right	Yes	0.806810799986124	0	239599	252
470.029296875	0.806810799986124	health	choicePhaseStart	1	32	32	foodImage.41	FOODEEG_Images\0409.jpg	NY	Right	Yes	0.806810799986124	0	240656	253
470.826171875	0	health	response	1	32	32	foodImage.41	FOODEEG_Images\0409.jpg	NY	Right	Yes	0.806810799986124	0	241064	235
471.869140625	1	decision	trialStart	1	33	33	foodImage.52	FOODEEG_Images\0539.jpg	YN	Left	Yes	0.902957400016021	0	241598	251
472.92578125	2	decision	foodImageDisplay	1	33	33	foodImage.52	FOODEEG_Images\0539.jpg	YN	Left	Yes	0.902957400016021	0	242139	252
474.98828125	0.902957400016021	decision	choicePhaseStart	1	33	33	foodImage.52	FOODEEG_Images\0539.jpg	YN	Left	Yes	0.902957400016021	0	243195	253
475.8828125	0	decision	response	1	33	33	foodImage.52	FOODEEG_Images\0539.jpg	YN	Left	Yes	0.902957400016021	0	243653	234
476.92578125	1	health	trialStart	1	34	34	foodImage.66	FOODEEG_Images\0676.jpg	NY	Left	No	1.2509057999705	0	244187	251
477.970703125	2	health	foodImageDisplay	1	34	34	foodImage.66	FOODEEG_Images\0676.jpg	NY	Left	No	1.2509057999705	0	244722	252
480.033203125	1.2509057999705	health	choicePhaseStart	1	34	34	foodImage.66	FOODEEG_Images\0676.jpg	NY	Left	No	1.2509057999705	0	245778	253
481.275390625	0	health	response	1	34	34	foodImage.66	FOODEEG_Images\0676.jpg	NY	Left	No	1.2509057999705	0	246414	234
482.318359375	1	health	trialStart	1	35	35	foodImage.12	FOODEEG_Images\0181.jpg	YN	Left	Yes	0.844535899988841	0	246948	251
483.361328125	2	health	foodImageDisplay	1	35	35	foodImage.12	FOODEEG_Images\0181.jpg	YN	Left	Yes	0.844535899988841	0	247482	252
485.423828125	0.844535899988841	health	choicePhaseStart	1	35	35	foodImage.12	FOODEEG_Images\0181.jpg	YN	Left	Yes	0.844535899988841	0	248538	253
486.2578125	0	health	response	1	35	35	foodImage.12	FOODEEG_Images\0181.jpg	YN	Left	Yes	0.844535899988841	0	248965	234
487.30078125	1	decision	trialStart	1	36	36	foodImage.65	FOODEEG_Images\0658.jpg	YN	Right	No	1.17939439998008	0	249499	251
488.34375	2	decision	foodImageDisplay	1	36	36	foodImage.65	FOODEEG_Images\0658.jpg	YN	Right	No	1.17939439998008	0	250033	252
490.40625	1.17939439998008	decision	choicePhaseStart	1	36	36	foodImage.65	FOODEEG_Images\0658.jpg	YN	Right	No	1.17939439998008	0	251089	253
491.578125	0	decision	response	1	36	36	foodImage.65	FOODEEG_Images\0658.jpg	YN	Right	No	1.17939439998008	0	251689	235
492.63671875	1	decision	trialStart	1	37	37	foodImage.9	FOODEEG_Images\0138.jpg	NY	Left	No	1.04283599997871	0	252231	251
493.6953125	2	decision	foodImageDisplay	1	37	37	foodImage.9	FOODEEG_Images\0138.jpg	NY	Left	No	1.04283599997871	0	252773	252
495.7578125	1.04283599997871	decision	choicePhaseStart	1	37	37	foodImage.9	FOODEEG_Images\0138.jpg	NY	Left	No	1.04283599997871	0	253829	253
496.794921875	0	decision	response	1	37	37	foodImage.9	FOODEEG_Images\0138.jpg	NY	Left	No	1.04283599997871	0	254360	234
497.8359375	1	health	trialStart	1	38	38	foodImage.51	FOODEEG_Images\0536.jpg	NY	Left	No	0.951456699986011	0	254893	251
498.8828125	2	health	foodImageDisplay	1	38	38	foodImage.51	FOODEEG_Images\0536.jpg	NY	Left	No	0.951456699986011	0	255429	252
500.947265625	0.951456699986011	health	choicePhaseStart	1	38	38	foodImage.51	FOODEEG_Images\0536.jpg	NY	Left	No	0.951456699986011	0	256486	253
501.890625	0	health	response	1	38	38	foodImage.51	FOODEEG_Images\0536.jpg	NY	Left	No	0.951456699986011	0	256969	234
502.931640625	1	decision	trialStart	1	39	39	foodImage.46	FOODEEG_Images\0479.jpg	NY	Left	No	1.22016069997335	0	257502	251
503.9921875	2	decision	foodImageDisplay	1	39	39	foodImage.46	FOODEEG_Images\0479.jpg	NY	Left	No	1.22016069997335	0	258045	252
506.0546875	1.22016069997335	decision	choicePhaseStart	1	39	39	foodImage.46	FOODEEG_Images\0479.jpg	NY	Left	No	1.22016069997335	0	259101	253
507.265625	0	decision	response	1	39	39	foodImage.46	FOODEEG_Images\0479.jpg	NY	Left	No	1.22016069997335	0	259721	234
508.30859375	1	decision	trialStart	1	40	40	foodImage.3	FOODEEG_Images\0046.jpg	YN	Left	Yes	1.25221239996608	0	260255	251
509.3515625	2	decision	foodImageDisplay	1	40	40	foodImage.3	FOODEEG_Images\0046.jpg	YN	Left	Yes	1.25221239996608	0	260789	252
511.4140625	1.25221239996608	decision	choicePhaseStart	1	40	40	foodImage.3	FOODEEG_Images\0046.jpg	YN	Left	Yes	1.25221239996608	0	261845	253
512.658203125	0	decision	response	1	40	40	foodImage.3	FOODEEG_Images\0046.jpg	YN	Left	Yes	1.25221239996608	0	262482	234
513.701171875	1	health	trialStart	1	41	41	foodImage.98	FOODEEG_Images\0906.jpg	YN	Right	No	0.896620699961204	0	263016	251
514.73828125	2	health	foodImageDisplay	1	41	41	foodImage.98	FOODEEG_Images\0906.jpg	YN	Right	No	0.896620699961204	0	263547	252
516.80078125	0.896620699961204	health	choicePhaseStart	1	41	41	foodImage.98	FOODEEG_Images\0906.jpg	YN	Right	No	0.896620699961204	0	264603	253
517.689453125	0	health	response	1	41	41	foodImage.98	FOODEEG_Images\0906.jpg	YN	Right	No	0.896620699961204	0	265058	235
518.732421875	1	health	trialStart	1	42	42	foodImage.31	FOODEEG_Images\0294.jpg	NY	Left	No	1.11820420000004	0	265592	251
519.7734375	2	health	foodImageDisplay	1	42	42	foodImage.31	FOODEEG_Images\0294.jpg	NY	Left	No	1.11820420000004	0	266125	252
521.8359375	1.11820420000004	health	choicePhaseStart	1	42	42	foodImage.31	FOODEEG_Images\0294.jpg	NY	Left	No	1.11820420000004	0	267181	253
522.9453125	0	health	response	1	42	42	foodImage.31	FOODEEG_Images\0294.jpg	NY	Left	No	1.11820420000004	0	267749	234
523.98828125	1	health	trialStart	1	43	43	foodImage.56	FOODEEG_Images\0586.jpg	YN	Right	No	4.12337799998932	0	268283	251
525.03125	2	health	foodImageDisplay	1	43	43	foodImage.56	FOODEEG_Images\0586.jpg	YN	Right	No	4.12337799998932	0	268817	252
527.09375	4.12337799998932	health	choicePhaseStart	1	43	43	foodImage.56	FOODEEG_Images\0586.jpg	YN	Right	No	4.12337799998932	0	269873	253
531.208984375	0	health	response	1	43	43	foodImage.56	FOODEEG_Images\0586.jpg	YN	Right	No	4.12337799998932	0	271980	235
532.251953125	1	health	trialStart	1	44	44	foodImage.63	FOODEEG_Images\0645.jpg	YN	Right	No	0.707444200001191	0	272514	251
533.29296875	2	health	foodImageDisplay	1	44	44	foodImage.63	FOODEEG_Images\0645.jpg	YN	Right	No	0.707444200001191	0	273047	252
535.357421875	0.707444200001191	health	choicePhaseStart	1	44	44	foodImage.63	FOODEEG_Images\0645.jpg	YN	Right	No	0.707444200001191	0	274104	253
536.056640625	0	health	response	1	44	44	foodImage.63	FOODEEG_Images\0645.jpg	YN	Right	No	0.707444200001191	0	274462	235
537.099609375	1	decision	trialStart	1	45	45	foodImage.83	FOODEEG_Images\0827.jpg	NY	Left	No	1.82007230003364	0	274996	251
538.16015625	2	decision	foodImageDisplay	1	45	45	foodImage.83	FOODEEG_Images\0827.jpg	NY	Left	No	1.82007230003364	0	275539	252
540.220703125	1.82007230003364	decision	choicePhaseStart	1	45	45	foodImage.83	FOODEEG_Images\0827.jpg	NY	Left	No	1.82007230003364	0	276594	253
542.03125	0	decision	response	1	45	45	foodImage.83	FOODEEG_Images\0827.jpg	NY	Left	No	1.82007230003364	0	277521	234
543.072265625	1	health	trialStart	1	46	46	foodImage.64	FOODEEG_Images\0647.jpg	NY	Right	Yes	1.39619860000676	0	278054	251
544.126953125	2	health	foodImageDisplay	1	46	46	foodImage.64	FOODEEG_Images\0647.jpg	NY	Right	Yes	1.39619860000676	0	278594	252
546.189453125	1.39619860000676	health	choicePhaseStart	1	46	46	foodImage.64	FOODEEG_Images\0647.jpg	NY	Right	Yes	1.39619860000676	0	279650	253
547.576171875	0	health	response	1	46	46	foodImage.64	FOODEEG_Images\0647.jpg	NY	Right	Yes	1.39619860000676	0	280360	235
548.619140625	1	health	trialStart	1	47	47	foodImage.5	FOODEEG_Images\0107.jpg	YN	Right	No	0.924985899997409	0	280894	251
549.67578125	2	health	foodImageDisplay	1	47	47	foodImage.5	FOODEEG_Images\0107.jpg	YN	Right	No	0.924985899997409	0	281435	252
551.73828125	0.924985899997409	health	choicePhaseStart	1	47	47	foodImage.5	FOODEEG_Images\0107.jpg	YN	Right	No	0.924985899997409	0	282491	253
552.65625	0	health	response	1	47	47	foodImage.5	FOODEEG_Images\0107.jpg	YN	Right	No	0.924985899997409	0	282961	235
553.69921875	1	taste	trialStart	1	48	48	foodImage.74	FOODEEG_Images\0752.jpg	YN	Right	No	2.39631290000398	0	283495	251
554.7421875	2	taste	foodImageDisplay	1	48	48	foodImage.74	FOODEEG_Images\0752.jpg	YN	Right	No	2.39631290000398	0	284029	252
556.8046875	2.39631290000398	taste	choicePhaseStart	1	48	48	foodImage.74	FOODEEG_Images\0752.jpg	YN	Right	No	2.39631290000398	0	285085	253
559.19140625	0	taste	response	1	48	48	foodImage.74	FOODEEG_Images\0752.jpg	YN	Right	No	2.39631290000398	0	286307	235
560.234375	1	taste	trialStart	1	49	49	foodImage.84	FOODEEG_Images\0830.jpg	YN	Left	Yes	1.84975599998143	0	286841	251
561.296875	2	taste	foodImageDisplay	1	49	49	foodImage.84	FOODEEG_Images\0830.jpg	YN	Left	Yes	1.84975599998143	0	287385	252
563.359375	1.84975599998143	taste	choicePhaseStart	1	49	49	foodImage.84	FOODEEG_Images\0830.jpg	YN	Left	Yes	1.84975599998143	0	288441	253
565.19921875	0	taste	response	1	49	49	foodImage.84	FOODEEG_Images\0830.jpg	YN	Left	Yes	1.84975599998143	0	289383	234
566.2421875	1	health	trialStart	1	50	50	foodImage.93	FOODEEG_Images\0901.jpg	YN	Left	Yes	1.55347029998666	0	289917	251
567.28125	2	health	foodImageDisplay	1	50	50	foodImage.93	FOODEEG_Images\0901.jpg	YN	Left	Yes	1.55347029998666	0	290449	252
569.34375	1.55347029998666	health	choicePhaseStart	1	50	50	foodImage.93	FOODEEG_Images\0901.jpg	YN	Left	Yes	1.55347029998666	0	291505	253
570.88671875	0	health	response	1	50	50	foodImage.93	FOODEEG_Images\0901.jpg	YN	Left	Yes	1.55347029998666	0	292295	234
571.9296875	1	taste	trialStart	1	51	51	foodImage.27	FOODEEG_Images\0263.jpg	NY	Right	Yes	1.085208399978	0	292829	251
572.97265625	2	taste	foodImageDisplay	1	51	51	foodImage.27	FOODEEG_Images\0263.jpg	NY	Right	Yes	1.085208399978	0	293363	252
575.03515625	1.085208399978	taste	choicePhaseStart	1	51	51	foodImage.27	FOODEEG_Images\0263.jpg	NY	Right	Yes	1.085208399978	0	294419	253
576.111328125	0	taste	response	1	51	51	foodImage.27	FOODEEG_Images\0263.jpg	NY	Right	Yes	1.085208399978	0	294970	235
577.154296875	1	decision	trialStart	1	52	52	foodImage.72	FOODEEG_Images\0714.jpg	NY	Left	No	0.873991800006479	0	295504	251
578.197265625	2	decision	foodImageDisplay	1	52	52	foodImage.72	FOODEEG_Images\0714.jpg	NY	Left	No	0.873991800006479	0	296038	252
580.259765625	0.873991800006479	decision	choicePhaseStart	1	52	52	foodImage.72	FOODEEG_Images\0714.jpg	NY	Left	No	0.873991800006479	0	297094	253
581.126953125	0	decision	response	1	52	52	foodImage.72	FOODEEG_Images\0714.jpg	NY	Left	No	0.873991800006479	0	297538	234
582.16796875	1	decision	trialStart	1	53	53	foodImage.39	FOODEEG_Images\0367.jpg	YN	Right	No	1.32183680002345	0	298071	251
583.21484375	2	decision	foodImageDisplay	1	53	53	foodImage.39	FOODEEG_Images\0367.jpg	YN	Right	No	1.32183680002345	0	298607	252
585.27734375	1.32183680002345	decision	choicePhaseStart	1	53	53	foodImage.39	FOODEEG_Images\0367.jpg	YN	Right	No	1.32183680002345	0	299663	253
586.58984375	0	decision	response	1	53	53	foodImage.39	FOODEEG_Images\0367.jpg	YN	Right	No	1.32183680002345	0	300335	235
587.638671875	1	taste	trialStart	1	54	54	foodImage.26	FOODEEG_Images\0262.jpg	YN	Left	Yes	1.23629689996596	0	300872	251
588.69921875	2	taste	foodImageDisplay	1	54	54	foodImage.26	FOODEEG_Images\0262.jpg	YN	Left	Yes	1.23629689996596	0	301415	252
590.763671875	1.23629689996596	taste	choicePhaseStart	1	54	54	foodImage.26	FOODEEG_Images\0262.jpg	YN	Left	Yes	1.23629689996596	0	302472	253
591.990234375	0	taste	response	1	54	54	foodImage.26	FOODEEG_Images\0262.jpg	YN	Left	Yes	1.23629689996596	0	303100	234
593.03125	1	taste	trialStart	1	55	55	foodImage.48	FOODEEG_Images\0494.jpg	YN	Right	No	0.797341099998448	0	303633	251
594.07421875	2	taste	foodImageDisplay	1	55	55	foodImage.48	FOODEEG_Images\0494.jpg	YN	Right	No	0.797341099998448	0	304167	252
596.138671875	0.797341099998448	taste	choicePhaseStart	1	55	55	foodImage.48	FOODEEG_Images\0494.jpg	YN	Right	No	0.797341099998448	0	305224	253
596.92578125	0	taste	response	1	55	55	foodImage.48	FOODEEG_Images\0494.jpg	YN	Right	No	0.797341099998448	0	305627	235
597.96875	1	taste	trialStart	1	56	56	foodImage.58	FOODEEG_Images\0605.jpg	YN	Left	Yes	0.77833770000143	0	306161	251
599.029296875	2	taste	foodImageDisplay	1	56	56	foodImage.58	FOODEEG_Images\0605.jpg	YN	Left	Yes	0.77833770000143	0	306704	252
601.091796875	0.77833770000143	taste	choicePhaseStart	1	56	56	foodImage.58	FOODEEG_Images\0605.jpg	YN	Left	Yes	0.77833770000143	0	307760	253
601.861328125	0	taste	response	1	56	56	foodImage.58	FOODEEG_Images\0605.jpg	YN	Left	Yes	0.77833770000143	0	308154	234
602.904296875	1	health	trialStart	1	57	57	foodImage.117	FOODEEG_Images\0925.jpg	YN	Right	No	1.85370470001362	0	308688	251
603.943359375	2	health	foodImageDisplay	1	57	57	foodImage.117	FOODEEG_Images\0925.jpg	YN	Right	No	1.85370470001362	0	309220	252
606.0078125	1.85370470001362	health	choicePhaseStart	1	57	57	foodImage.117	FOODEEG_Images\0925.jpg	YN	Right	No	1.85370470001362	0	310277	253
607.853515625	0	health	response	1	57	57	foodImage.117	FOODEEG_Images\0925.jpg	YN	Right	No	1.85370470001362	0	311222	235
608.896484375	1	decision	trialStart	1	58	58	foodImage.55	FOODEEG_Images\0567.jpg	YN	Right	No	1.46555250004167	0	311756	251
609.951171875	2	decision	foodImageDisplay	1	58	58	foodImage.55	FOODEEG_Images\0567.jpg	YN	Right	No	1.46555250004167	0	312296	252
612.013671875	1.46555250004167	decision	choicePhaseStart	1	58	58	foodImage.55	FOODEEG_Images\0567.jpg	YN	Right	No	1.46555250004167	0	313352	253
613.46875	0	decision	response	1	58	58	foodImage.55	FOODEEG_Images\0567.jpg	YN	Right	No	1.46555250004167	0	314097	235
614.51171875	1	decision	trialStart	1	59	59	foodImage.119	FOODEEG_Images\0927.jpg	YN	Right	No	0.776436000014655	0	314631	251
615.55078125	2	decision	foodImageDisplay	1	59	59	foodImage.119	FOODEEG_Images\0927.jpg	YN	Right	No	0.776436000014655	0	315163	252
617.615234375	0.776436000014655	decision	choicePhaseStart	1	59	59	foodImage.119	FOODEEG_Images\0927.jpg	YN	Right	No	0.776436000014655	0	316220	253
618.380859375	0	decision	response	1	59	59	foodImage.119	FOODEEG_Images\0927.jpg	YN	Right	No	0.776436000014655	0	316612	235
619.423828125	1	health	trialStart	1	60	60	foodImage.82	FOODEEG_Images\0805.jpg	YN	Left	Yes	0.978671199991368	0	317146	251
620.478515625	2	health	foodImageDisplay	1	60	60	foodImage.82	FOODEEG_Images\0805.jpg	YN	Left	Yes	0.978671199991368	0	317686	252
622.541015625	0.978671199991368	health	choicePhaseStart	1	60	60	foodImage.82	FOODEEG_Images\0805.jpg	YN	Left	Yes	0.978671199991368	0	318742	253
623.509765625	0	health	response	1	60	60	foodImage.82	FOODEEG_Images\0805.jpg	YN	Left	Yes	0.978671199991368	0	319238	234
625.55078125	22.75	n/a	blockEnd	n/a	n/a	n/a	n/a	n/a	n/a	n/a	n/a	n/a	n/a	320283	254
648.30078125	2	n/a	blockStart	2	n/a	n/a	n/a	n/a	n/a	n/a	n/a	n/a	n/a	331931	250
650.33203125	1	decision	trialStart	2	61	1	foodImage.85	FOODEEG_Images\0841.jpg	NY	Right	Yes	0.793550700007472	0	332971	251
651.39453125	2	decision	foodImageDisplay	2	61	1	foodImage.85	FOODEEG_Images\0841.jpg	NY	Right	Yes	0.793550700007472	0	333515	252
653.45703125	0.793550700007472	decision	choicePhaseStart	2	61	1	foodImage.85	FOODEEG_Images\0841.jpg	NY	Right	Yes	0.793550700007472	0	334571	253
654.244140625	0	decision	response	2	61	1	foodImage.85	FOODEEG_Images\0841.jpg	NY	Right	Yes	0.793550700007472	0	334974	235
655.28515625	1	decision	trialStart	2	62	2	foodImage.86	FOODEEG_Images\0844.jpg	YN	Right	No	0.820911700022407	0	335507	251
656.341796875	2	decision	foodImageDisplay	2	62	2	foodImage.86	FOODEEG_Images\0844.jpg	YN	Right	No	0.820911700022407	0	336048	252
658.40625	0.820911700022407	decision	choicePhaseStart	2	62	2	foodImage.86	FOODEEG_Images\0844.jpg	YN	Right	No	0.820911700022407	0	337105	253
659.21875	0	decision	response	2	62	2	foodImage.86	FOODEEG_Images\0844.jpg	YN	Right	No	0.820911700022407	0	337521	235
660.26171875	1	taste	trialStart	2	63	3	foodImage.105	FOODEEG_Images\0913.jpg	NY	Left	No	0.976109800045379	0	338055	251
661.30078125	2	taste	foodImageDisplay	2	63	3	foodImage.105	FOODEEG_Images\0913.jpg	NY	Left	No	0.976109800045379	0	338587	252
663.36328125	0.976109800045379	taste	choicePhaseStart	2	63	3	foodImage.105	FOODEEG_Images\0913.jpg	NY	Left	No	0.976109800045379	0	339643	253
664.33203125	0	taste	response	2	63	3	foodImage.105	FOODEEG_Images\0913.jpg	NY	Left	No	0.976109800045379	0	340139	234
665.373046875	1	decision	trialStart	2	64	4	foodImage.27	FOODEEG_Images\0263.jpg	NY	Right	Yes	0.841480399947613	0	340672	251
666.4140625	2	decision	foodImageDisplay	2	64	4	foodImage.27	FOODEEG_Images\0263.jpg	NY	Right	Yes	0.841480399947613	0	341205	252
668.482421875	0.841480399947613	decision	choicePhaseStart	2	64	4	foodImage.27	FOODEEG_Images\0263.jpg	NY	Right	Yes	0.841480399947613	0	342264	253
669.314453125	0	decision	response	2	64	4	foodImage.27	FOODEEG_Images\0263.jpg	NY	Right	Yes	0.841480399947613	0	342690	235
670.357421875	1	decision	trialStart	2	65	5	foodImage.110	FOODEEG_Images\0918.jpg	NY	Left	No	0.730201099999249	0	343224	251
671.39453125	2	decision	foodImageDisplay	2	65	5	foodImage.110	FOODEEG_Images\0918.jpg	NY	Left	No	0.730201099999249	0	343755	252
673.45703125	0.730201099999249	decision	choicePhaseStart	2	65	5	foodImage.110	FOODEEG_Images\0918.jpg	NY	Left	No	0.730201099999249	0	344811	253
674.1796875	0	decision	response	2	65	5	foodImage.110	FOODEEG_Images\0918.jpg	NY	Left	No	0.730201099999249	0	345181	234
675.22265625	1	health	trialStart	2	66	6	foodImage.9	FOODEEG_Images\0138.jpg	NY	Left	No	1.45333039999241	0	345715	251
676.28125	2	health	foodImageDisplay	2	66	6	foodImage.9	FOODEEG_Images\0138.jpg	NY	Left	No	1.45333039999241	0	346257	252
678.34375	1.45333039999241	health	choicePhaseStart	2	66	6	foodImage.9	FOODEEG_Images\0138.jpg	NY	Left	No	1.45333039999241	0	347313	253
679.787109375	0	health	response	2	66	6	foodImage.9	FOODEEG_Images\0138.jpg	NY	Left	No	1.45333039999241	0	348052	234
680.830078125	1	taste	trialStart	2	67	7	foodImage.20	FOODEEG_Images\0226.jpg	NY	Left	No	0.796050400007516	0	348586	251
681.873046875	2	taste	foodImageDisplay	2	67	7	foodImage.20	FOODEEG_Images\0226.jpg	NY	Left	No	0.796050400007516	0	349120	252
683.935546875	0.796050400007516	taste	choicePhaseStart	2	67	7	foodImage.20	FOODEEG_Images\0226.jpg	NY	Left	No	0.796050400007516	0	350176	253
684.72265625	0	taste	response	2	67	7	foodImage.20	FOODEEG_Images\0226.jpg	NY	Left	No	0.796050400007516	0	350579	234
685.765625	1	taste	trialStart	2	68	8	foodImage.44	FOODEEG_Images\0459.jpg	NY	Right	Yes	0.636314400006086	0	351113	251
686.810546875	2	taste	foodImageDisplay	2	68	8	foodImage.44	FOODEEG_Images\0459.jpg	NY	Right	Yes	0.636314400006086	0	351648	252
688.873046875	0.636314400006086	taste	choicePhaseStart	2	68	8	foodImage.44	FOODEEG_Images\0459.jpg	NY	Right	Yes	0.636314400006086	0	352704	253
689.498046875	0	taste	response	2	68	8	foodImage.44	FOODEEG_Images\0459.jpg	NY	Right	Yes	0.636314400006086	0	353024	235
690.541015625	1	health	trialStart	2	69	9	foodImage.87	FOODEEG_Images\0873.jpg	YN	Left	Yes	0.748535500024445	0	353558	251
691.625	2	health	foodImageDisplay	2	69	9	foodImage.87	FOODEEG_Images\0873.jpg	YN	Left	Yes	0.748535500024445	0	354113	252
693.6875	0.748535500024445	health	choicePhaseStart	2	69	9	foodImage.87	FOODEEG_Images\0873.jpg	YN	Left	Yes	0.748535500024445	0	355169	253
694.42578125	0	health	response	2	69	9	foodImage.87	FOODEEG_Images\0873.jpg	YN	Left	Yes	0.748535500024445	0	355547	234
695.46875	1	health	trialStart	2	70	10	foodImage.111	FOODEEG_Images\0919.jpg	NY	Left	No	0.872263299999759	0	356081	251
696.5078125	2	health	foodImageDisplay	2	70	10	foodImage.111	FOODEEG_Images\0919.jpg	NY	Left	No	0.872263299999759	0	356613	252
698.5703125	0.872263299999759	health	choicePhaseStart	2	70	10	foodImage.111	FOODEEG_Images\0919.jpg	NY	Left	No	0.872263299999759	0	357669	253
699.43359375	0	health	response	2	70	10	foodImage.111	FOODEEG_Images\0919.jpg	NY	Left	No	0.872263299999759	0	358111	234
700.4765625	1	decision	trialStart	2	71	11	foodImage.50	FOODEEG_Images\0529.jpg	YN	Right	No	1.54064220003784	0	358645	251
701.537109375	2	decision	foodImageDisplay	2	71	11	foodImage.50	FOODEEG_Images\0529.jpg	YN	Right	No	1.54064220003784	0	359188	252
703.599609375	1.54064220003784	decision	choicePhaseStart	2	71	11	foodImage.50	FOODEEG_Images\0529.jpg	YN	Right	No	1.54064220003784	0	360244	253
705.130859375	0	decision	response	2	71	11	foodImage.50	FOODEEG_Images\0529.jpg	YN	Right	No	1.54064220003784	0	361028	235
706.171875	1	decision	trialStart	2	72	12	foodImage.79	FOODEEG_Images\0794.jpg	YN	Right	No	0.906844400044065	0	361561	251
707.216796875	2	decision	foodImageDisplay	2	72	12	foodImage.79	FOODEEG_Images\0794.jpg	YN	Right	No	0.906844400044065	0	362096	252
709.279296875	0.906844400044065	decision	choicePhaseStart	2	72	12	foodImage.79	FOODEEG_Images\0794.jpg	YN	Right	No	0.906844400044065	0	363152	253
710.177734375	0	decision	response	2	72	12	foodImage.79	FOODEEG_Images\0794.jpg	YN	Right	No	0.906844400044065	0	363612	235
711.2265625	1	taste	trialStart	2	73	13	foodImage.28	FOODEEG_Images\0273.jpg	NY	Left	No	1.05105329997605	0	364149	251
712.279296875	2	taste	foodImageDisplay	2	73	13	foodImage.28	FOODEEG_Images\0273.jpg	NY	Left	No	1.05105329997605	0	364688	252
714.341796875	1.05105329997605	taste	choicePhaseStart	2	73	13	foodImage.28	FOODEEG_Images\0273.jpg	NY	Left	No	1.05105329997605	0	365744	253
715.384765625	0	taste	response	2	73	13	foodImage.28	FOODEEG_Images\0273.jpg	NY	Left	No	1.05105329997605	0	366278	234
716.42578125	1	taste	trialStart	2	74	14	foodImage.93	FOODEEG_Images\0901.jpg	YN	Left	Yes	1.15436230000341	0	366811	251
717.47265625	2	taste	foodImageDisplay	2	74	14	foodImage.93	FOODEEG_Images\0901.jpg	YN	Left	Yes	1.15436230000341	0	367347	252
719.53515625	1.15436230000341	taste	choicePhaseStart	2	74	14	foodImage.93	FOODEEG_Images\0901.jpg	YN	Left	Yes	1.15436230000341	0	368403	253
720.681640625	0	taste	response	2	74	14	foodImage.93	FOODEEG_Images\0901.jpg	YN	Left	Yes	1.15436230000341	0	368990	234
721.72265625	1	taste	trialStart	2	75	15	foodImage.73	FOODEEG_Images\0717.jpg	NY	Right	Yes	0.709464999963529	0	369523	251
722.783203125	2	taste	foodImageDisplay	2	75	15	foodImage.73	FOODEEG_Images\0717.jpg	NY	Right	Yes	0.709464999963529	0	370066	252
724.845703125	0.709464999963529	taste	choicePhaseStart	2	75	15	foodImage.73	FOODEEG_Images\0717.jpg	NY	Right	Yes	0.709464999963529	0	371122	253
725.544921875	0	taste	response	2	75	15	foodImage.73	FOODEEG_Images\0717.jpg	NY	Right	Yes	0.709464999963529	0	371480	235
726.587890625	1	decision	trialStart	2	76	16	foodImage.66	FOODEEG_Images\0676.jpg	NY	Left	No	1.19276100001298	0	372014	251
727.634765625	2	decision	foodImageDisplay	2	76	16	foodImage.66	FOODEEG_Images\0676.jpg	NY	Left	No	1.19276100001298	0	372550	252
729.697265625	1.19276100001298	decision	choicePhaseStart	2	76	16	foodImage.66	FOODEEG_Images\0676.jpg	NY	Left	No	1.19276100001298	0	373606	253
730.880859375	0	decision	response	2	76	16	foodImage.66	FOODEEG_Images\0676.jpg	NY	Left	No	1.19276100001298	0	374212	234
731.923828125	1	taste	trialStart	2	77	17	foodImage.76	FOODEEG_Images\0766.jpg	YN	Left	Yes	0.724389900045935	0	374746	251
732.966796875	2	taste	foodImageDisplay	2	77	17	foodImage.76	FOODEEG_Images\0766.jpg	YN	Left	Yes	0.724389900045935	0	375280	252
735.029296875	0.724389900045935	taste	choicePhaseStart	2	77	17	foodImage.76	FOODEEG_Images\0766.jpg	YN	Left	Yes	0.724389900045935	0	376336	253
735.744140625	0	taste	response	2	77	17	foodImage.76	FOODEEG_Images\0766.jpg	YN	Left	Yes	0.724389900045935	0	376702	234
736.78515625	1	health	trialStart	2	78	18	foodImage.28	FOODEEG_Images\0273.jpg	NY	Right	Yes	0.822509599965997	0	377235	251
737.830078125	2	health	foodImageDisplay	2	78	18	foodImage.28	FOODEEG_Images\0273.jpg	NY	Right	Yes	0.822509599965997	0	377770	252
739.892578125	0.822509599965997	health	choicePhaseStart	2	78	18	foodImage.28	FOODEEG_Images\0273.jpg	NY	Right	Yes	0.822509599965997	0	378826	253
740.705078125	0	health	response	2	78	18	foodImage.28	FOODEEG_Images\0273.jpg	NY	Right	Yes	0.822509599965997	0	379242	235
741.755859375	1	decision	trialStart	2	79	19	foodImage.43	FOODEEG_Images\0445.jpg	NY	Left	No	2.17434580001282	0	379780	251
742.8125	2	decision	foodImageDisplay	2	79	19	foodImage.43	FOODEEG_Images\0445.jpg	NY	Left	No	2.17434580001282	0	380321	252
744.875	2.17434580001282	decision	choicePhaseStart	2	79	19	foodImage.43	FOODEEG_Images\0445.jpg	NY	Left	No	2.17434580001282	0	381377	253
747.041015625	0	decision	response	2	79	19	foodImage.43	FOODEEG_Images\0445.jpg	NY	Left	No	2.17434580001282	0	382486	234
748.083984375	1	health	trialStart	2	80	20	foodImage.71	FOODEEG_Images\0713.jpg	NY	Left	No	1.46983720001299	0	383020	251
749.126953125	2	health	foodImageDisplay	2	80	20	foodImage.71	FOODEEG_Images\0713.jpg	NY	Left	No	1.46983720001299	0	383554	252
751.1953125	1.46983720001299	health	choicePhaseStart	2	80	20	foodImage.71	FOODEEG_Images\0713.jpg	NY	Left	No	1.46983720001299	0	384613	253
752.65625	0	health	response	2	80	20	foodImage.71	FOODEEG_Images\0713.jpg	NY	Left	No	1.46983720001299	0	385361	234
753.697265625	1	decision	trialStart	2	81	21	foodImage.81	FOODEEG_Images\0797.jpg	NY	Left	No	1.43409479997354	0	385894	251
754.75390625	2	decision	foodImageDisplay	2	81	21	foodImage.81	FOODEEG_Images\0797.jpg	NY	Left	No	1.43409479997354	0	386435	252
756.81640625	1.43409479997354	decision	choicePhaseStart	2	81	21	foodImage.81	FOODEEG_Images\0797.jpg	NY	Left	No	1.43409479997354	0	387491	253
758.240234375	0	decision	response	2	81	21	foodImage.81	FOODEEG_Images\0797.jpg	NY	Left	No	1.43409479997354	0	388220	234
759.28125	1	health	trialStart	2	82	22	foodImage.112	FOODEEG_Images\0920.jpg	YN	Left	Yes	0.848574700008612	0	388753	251
760.3203125	2	health	foodImageDisplay	2	82	22	foodImage.112	FOODEEG_Images\0920.jpg	YN	Left	Yes	0.848574700008612	0	389285	252
762.3828125	0.848574700008612	health	choicePhaseStart	2	82	22	foodImage.112	FOODEEG_Images\0920.jpg	YN	Left	Yes	0.848574700008612	0	390341	253
763.22265625	0	health	response	2	82	22	foodImage.112	FOODEEG_Images\0920.jpg	YN	Left	Yes	0.848574700008612	0	390771	234
764.267578125	1	taste	trialStart	2	83	23	foodImage.53	FOODEEG_Images\0547.jpg	YN	Left	Yes	1.29987789998995	0	391306	251
765.326171875	2	taste	foodImageDisplay	2	83	23	foodImage.53	FOODEEG_Images\0547.jpg	YN	Left	Yes	1.29987789998995	0	391848	252
767.388671875	1.29987789998995	taste	choicePhaseStart	2	83	23	foodImage.53	FOODEEG_Images\0547.jpg	YN	Left	Yes	1.29987789998995	0	392904	253
768.6796875	0	taste	response	2	83	23	foodImage.53	FOODEEG_Images\0547.jpg	YN	Left	Yes	1.29987789998995	0	393565	234
769.72265625	1	taste	trialStart	2	84	24	foodImage.68	FOODEEG_Images\0685.jpg	NY	Right	Yes	0.765728600032162	0	394099	251
770.796875	2	taste	foodImageDisplay	2	84	24	foodImage.68	FOODEEG_Images\0685.jpg	NY	Right	Yes	0.765728600032162	0	394649	252
772.857421875	0.765728600032162	taste	choicePhaseStart	2	84	24	foodImage.68	FOODEEG_Images\0685.jpg	NY	Right	Yes	0.765728600032162	0	395704	253
773.615234375	0	taste	response	2	84	24	foodImage.68	FOODEEG_Images\0685.jpg	NY	Right	Yes	0.765728600032162	0	396092	235
774.658203125	1	taste	trialStart	2	85	25	foodImage.23	FOODEEG_Images\0244.jpg	YN	Right	No	1.22335899999598	0	396626	251
775.69921875	2	taste	foodImageDisplay	2	85	25	foodImage.23	FOODEEG_Images\0244.jpg	YN	Right	No	1.22335899999598	0	397159	252
777.76171875	1.22335899999598	taste	choicePhaseStart	2	85	25	foodImage.23	FOODEEG_Images\0244.jpg	YN	Right	No	1.22335899999598	0	398215	253
778.974609375	0	taste	response	2	85	25	foodImage.23	FOODEEG_Images\0244.jpg	YN	Right	No	1.22335899999598	0	398836	235
780.015625	1	decision	trialStart	2	86	26	foodImage.14	FOODEEG_Images\0188.jpg	YN	Left	Yes	0.900448800006416	0	399369	251
781.07421875	2	decision	foodImageDisplay	2	86	26	foodImage.14	FOODEEG_Images\0188.jpg	YN	Left	Yes	0.900448800006416	0	399911	252
783.13671875	0.900448800006416	decision	choicePhaseStart	2	86	26	foodImage.14	FOODEEG_Images\0188.jpg	YN	Left	Yes	0.900448800006416	0	400967	253
784.03125	0	decision	response	2	86	26	foodImage.14	FOODEEG_Images\0188.jpg	YN	Left	Yes	0.900448800006416	0	401425	234
785.07421875	1	health	trialStart	2	87	27	foodImage.18	FOODEEG_Images\0202.jpg	YN	Left	Yes	1.98537910002051	0	401959	251
786.134765625	2	health	foodImageDisplay	2	87	27	foodImage.18	FOODEEG_Images\0202.jpg	YN	Left	Yes	1.98537910002051	0	402502	252
788.197265625	1.98537910002051	health	choicePhaseStart	2	87	27	foodImage.18	FOODEEG_Images\0202.jpg	YN	Left	Yes	1.98537910002051	0	403558	253
790.173828125	0	health	response	2	87	27	foodImage.18	FOODEEG_Images\0202.jpg	YN	Left	Yes	1.98537910002051	0	404570	234
791.216796875	1	taste	trialStart	2	88	28	foodImage.90	FOODEEG_Images\0890.jpg	YN	Right	No	1.14637269999366	0	405104	251
792.271484375	2	taste	foodImageDisplay	2	88	28	foodImage.90	FOODEEG_Images\0890.jpg	YN	Right	No	1.14637269999366	0	405644	252
794.333984375	1.14637269999366	taste	choicePhaseStart	2	88	28	foodImage.90	FOODEEG_Images\0890.jpg	YN	Right	No	1.14637269999366	0	406700	253
795.470703125	0	taste	response	2	88	28	foodImage.90	FOODEEG_Images\0890.jpg	YN	Right	No	1.14637269999366	0	407282	235
796.517578125	1	taste	trialStart	2	89	29	foodImage.32	FOODEEG_Images\0319.jpg	NY	Right	Yes	1.7561784000136	0	407818	251
797.560546875	2	taste	foodImageDisplay	2	89	29	foodImage.32	FOODEEG_Images\0319.jpg	NY	Right	Yes	1.7561784000136	0	408352	252
799.626953125	1.7561784000136	taste	choicePhaseStart	2	89	29	foodImage.32	FOODEEG_Images\0319.jpg	NY	Right	Yes	1.7561784000136	0	409410	253
801.373046875	0	taste	response	2	89	29	foodImage.32	FOODEEG_Images\0319.jpg	NY	Right	Yes	1.7561784000136	0	410304	235
802.41796875	1	taste	trialStart	2	90	30	foodImage.1	FOODEEG_Images\0004.jpg	YN	Left	Yes	1.10643089999212	0	410839	251
803.4609375	2	taste	foodImageDisplay	2	90	30	foodImage.1	FOODEEG_Images\0004.jpg	YN	Left	Yes	1.10643089999212	0	411373	252
805.5234375	1.10643089999212	taste	choicePhaseStart	2	90	30	foodImage.1	FOODEEG_Images\0004.jpg	YN	Left	Yes	1.10643089999212	0	412429	253
806.62109375	0	taste	response	2	90	30	foodImage.1	FOODEEG_Images\0004.jpg	YN	Left	Yes	1.10643089999212	0	412991	234
807.669921875	1	taste	trialStart	2	91	31	foodImage.7	FOODEEG_Images\0116.jpg	YN	Left	Yes	0.58191030001035	0	413528	251
808.71484375	2	taste	foodImageDisplay	2	91	31	foodImage.7	FOODEEG_Images\0116.jpg	YN	Left	Yes	0.58191030001035	0	414063	252
810.77734375	0.58191030001035	taste	choicePhaseStart	2	91	31	foodImage.7	FOODEEG_Images\0116.jpg	YN	Left	Yes	0.58191030001035	0	415119	253
811.349609375	0	taste	response	2	91	31	foodImage.7	FOODEEG_Images\0116.jpg	YN	Left	Yes	0.58191030001035	0	415412	234
812.392578125	1	taste	trialStart	2	92	32	foodImage.106	FOODEEG_Images\0914.jpg	YN	Left	Yes	0.629295499995351	0	415946	251
813.431640625	2	taste	foodImageDisplay	2	92	32	foodImage.106	FOODEEG_Images\0914.jpg	YN	Left	Yes	0.629295499995351	0	416478	252
815.494140625	0.629295499995351	taste	choicePhaseStart	2	92	32	foodImage.106	FOODEEG_Images\0914.jpg	YN	Left	Yes	0.629295499995351	0	417534	253
816.1171875	0	taste	response	2	92	32	foodImage.106	FOODEEG_Images\0914.jpg	YN	Left	Yes	0.629295499995351	0	417853	234
817.181640625	1	health	trialStart	2	93	33	foodImage.115	FOODEEG_Images\0923.jpg	YN	Left	Yes	1.64434100000653	0	418398	251
818.220703125	2	health	foodImageDisplay	2	93	33	foodImage.115	FOODEEG_Images\0923.jpg	YN	Left	Yes	1.64434100000653	0	418930	252
820.283203125	1.64434100000653	health	choicePhaseStart	2	93	33	foodImage.115	FOODEEG_Images\0923.jpg	YN	Left	Yes	1.64434100000653	0	419986	253
821.91796875	0	health	response	2	93	33	foodImage.115	FOODEEG_Images\0923.jpg	YN	Left	Yes	1.64434100000653	0	420823	234
822.958984375	1	decision	trialStart	2	94	34	foodImage.40	FOODEEG_Images\0373.jpg	YN	Left	Yes	0.776893500005826	0	421356	251
824	2	decision	foodImageDisplay	2	94	34	foodImage.40	FOODEEG_Images\0373.jpg	YN	Left	Yes	0.776893500005826	0	421889	252
826.0625	0.776893500005826	decision	choicePhaseStart	2	94	34	foodImage.40	FOODEEG_Images\0373.jpg	YN	Left	Yes	0.776893500005826	0	422945	253
826.828125	0	decision	response	2	94	34	foodImage.40	FOODEEG_Images\0373.jpg	YN	Left	Yes	0.776893500005826	0	423337	234
827.87109375	1	health	trialStart	2	95	35	foodImage.94	FOODEEG_Images\0902.jpg	YN	Right	No	1.07323059998453	0	423871	251
828.908203125	2	health	foodImageDisplay	2	95	35	foodImage.94	FOODEEG_Images\0902.jpg	YN	Right	No	1.07323059998453	0	424402	252
830.970703125	1.07323059998453	health	choicePhaseStart	2	95	35	foodImage.94	FOODEEG_Images\0902.jpg	YN	Right	No	1.07323059998453	0	425458	253
832.037109375	0	health	response	2	95	35	foodImage.94	FOODEEG_Images\0902.jpg	YN	Right	No	1.07323059998453	0	426004	235
833.080078125	1	decision	trialStart	2	96	36	foodImage.116	FOODEEG_Images\0924.jpg	NY	Left	No	0.775724600011017	0	426538	251
834.119140625	2	decision	foodImageDisplay	2	96	36	foodImage.116	FOODEEG_Images\0924.jpg	NY	Left	No	0.775724600011017	0	427070	252
836.181640625	0.775724600011017	decision	choicePhaseStart	2	96	36	foodImage.116	FOODEEG_Images\0924.jpg	NY	Left	No	0.775724600011017	0	428126	253
836.94921875	0	decision	response	2	96	36	foodImage.116	FOODEEG_Images\0924.jpg	NY	Left	No	0.775724600011017	0	428519	234
837.990234375	1	taste	trialStart	2	97	37	foodImage.111	FOODEEG_Images\0919.jpg	NY	Left	No	0.753651799983345	0	429052	251
839.02734375	2	taste	foodImageDisplay	2	97	37	foodImage.111	FOODEEG_Images\0919.jpg	NY	Left	No	0.753651799983345	0	429583	252
841.08984375	0.753651799983345	taste	choicePhaseStart	2	97	37	foodImage.111	FOODEEG_Images\0919.jpg	NY	Left	No	0.753651799983345	0	430639	253
841.8359375	0	taste	response	2	97	37	foodImage.111	FOODEEG_Images\0919.jpg	NY	Left	No	0.753651799983345	0	431021	234
842.87890625	1	health	trialStart	2	98	38	foodImage.50	FOODEEG_Images\0529.jpg	NY	Right	Yes	0.639015800028574	0	431555	251
843.935546875	2	health	foodImageDisplay	2	98	38	foodImage.50	FOODEEG_Images\0529.jpg	NY	Right	Yes	0.639015800028574	0	432096	252
845.998046875	0.639015800028574	health	choicePhaseStart	2	98	38	foodImage.50	FOODEEG_Images\0529.jpg	NY	Right	Yes	0.639015800028574	0	433152	253
846.62890625	0	health	response	2	98	38	foodImage.50	FOODEEG_Images\0529.jpg	NY	Right	Yes	0.639015800028574	0	433475	235
847.67578125	1	decision	trialStart	2	99	39	foodImage.106	FOODEEG_Images\0914.jpg	NY	Right	Yes	0.707585199968889	0	434011	251
848.71484375	2	decision	foodImageDisplay	2	99	39	foodImage.106	FOODEEG_Images\0914.jpg	NY	Right	Yes	0.707585199968889	0	434543	252
850.77734375	0.707585199968889	decision	choicePhaseStart	2	99	39	foodImage.106	FOODEEG_Images\0914.jpg	NY	Right	Yes	0.707585199968889	0	435599	253
851.4765625	0	decision	response	2	99	39	foodImage.106	FOODEEG_Images\0914.jpg	NY	Right	Yes	0.707585199968889	0	435957	235
852.52734375	1	health	trialStart	2	100	40	foodImage.45	FOODEEG_Images\0478.jpg	YN	Left	Yes	1.11367719998816	0	436495	251
853.572265625	2	health	foodImageDisplay	2	100	40	foodImage.45	FOODEEG_Images\0478.jpg	YN	Left	Yes	1.11367719998816	0	437030	252
855.634765625	1.11367719998816	health	choicePhaseStart	2	100	40	foodImage.45	FOODEEG_Images\0478.jpg	YN	Left	Yes	1.11367719998816	0	438086	253
856.740234375	0	health	response	2	100	40	foodImage.45	FOODEEG_Images\0478.jpg	YN	Left	Yes	1.11367719998816	0	438652	234
857.783203125	1	health	trialStart	2	101	41	foodImage.70	FOODEEG_Images\0705.jpg	YN	Left	Yes	1.70067479996942	0	439186	251
858.841796875	2	health	foodImageDisplay	2	101	41	foodImage.70	FOODEEG_Images\0705.jpg	YN	Left	Yes	1.70067479996942	0	439728	252
860.904296875	1.70067479996942	health	choicePhaseStart	2	101	41	foodImage.70	FOODEEG_Images\0705.jpg	YN	Left	Yes	1.70067479996942	0	440784	253
862.595703125	0	health	response	2	101	41	foodImage.70	FOODEEG_Images\0705.jpg	YN	Left	Yes	1.70067479996942	0	441650	234
863.63671875	1	health	trialStart	2	102	42	foodImage.101	FOODEEG_Images\0909.jpg	NY	Left	No	1.64309520000825	0	442183	251
864.673828125	2	health	foodImageDisplay	2	102	42	foodImage.101	FOODEEG_Images\0909.jpg	NY	Left	No	1.64309520000825	0	442714	252
866.736328125	1.64309520000825	health	choicePhaseStart	2	102	42	foodImage.101	FOODEEG_Images\0909.jpg	NY	Left	No	1.64309520000825	0	443770	253
868.37109375	0	health	response	2	102	42	foodImage.101	FOODEEG_Images\0909.jpg	NY	Left	No	1.64309520000825	0	444607	234
869.412109375	1	taste	trialStart	2	103	43	foodImage.102	FOODEEG_Images\0910.jpg	NY	Left	No	0.937941399984993	0	445140	251
870.453125	2	taste	foodImageDisplay	2	103	43	foodImage.102	FOODEEG_Images\0910.jpg	NY	Left	No	0.937941399984993	0	445673	252
872.521484375	0.937941399984993	taste	choicePhaseStart	2	103	43	foodImage.102	FOODEEG_Images\0910.jpg	NY	Left	No	0.937941399984993	0	446732	253
873.451171875	0	taste	response	2	103	43	foodImage.102	FOODEEG_Images\0910.jpg	NY	Left	No	0.937941399984993	0	447208	234
874.494140625	1	health	trialStart	2	104	44	foodImage.10	FOODEEG_Images\0145.jpg	NY	Left	No	0.815301899972837	0	447742	251
875.55078125	2	health	foodImageDisplay	2	104	44	foodImage.10	FOODEEG_Images\0145.jpg	NY	Left	No	0.815301899972837	0	448283	252
877.61328125	0.815301899972837	health	choicePhaseStart	2	104	44	foodImage.10	FOODEEG_Images\0145.jpg	NY	Left	No	0.815301899972837	0	449339	253
878.419921875	0	health	response	2	104	44	foodImage.10	FOODEEG_Images\0145.jpg	NY	Left	No	0.815301899972837	0	449752	234
879.4609375	1	health	trialStart	2	105	45	foodImage.24	FOODEEG_Images\0250.jpg	NY	Right	Yes	1.19819169997936	0	450285	251
880.50390625	2	health	foodImageDisplay	2	105	45	foodImage.24	FOODEEG_Images\0250.jpg	NY	Right	Yes	1.19819169997936	0	450819	252
882.56640625	1.19819169997936	health	choicePhaseStart	2	105	45	foodImage.24	FOODEEG_Images\0250.jpg	NY	Right	Yes	1.19819169997936	0	451875	253
883.755859375	0	health	response	2	105	45	foodImage.24	FOODEEG_Images\0250.jpg	NY	Right	Yes	1.19819169997936	0	452484	235
884.798828125	1	taste	trialStart	2	106	46	foodImage.77	FOODEEG_Images\0771.jpg	YN	Left	Yes	1.03432809998048	0	453018	251
885.841796875	2	taste	foodImageDisplay	2	106	46	foodImage.77	FOODEEG_Images\0771.jpg	YN	Left	Yes	1.03432809998048	0	453552	252
887.904296875	1.03432809998048	taste	choicePhaseStart	2	106	46	foodImage.77	FOODEEG_Images\0771.jpg	YN	Left	Yes	1.03432809998048	0	454608	253
888.9296875	0	taste	response	2	106	46	foodImage.77	FOODEEG_Images\0771.jpg	YN	Left	Yes	1.03432809998048	0	455133	234
889.97265625	1	taste	trialStart	2	107	47	foodImage.16	FOODEEG_Images\0196.jpg	YN	Right	No	1.05628760001855	0	455667	251
891.029296875	2	taste	foodImageDisplay	2	107	47	foodImage.16	FOODEEG_Images\0196.jpg	YN	Right	No	1.05628760001855	0	456208	252
893.091796875	1.05628760001855	taste	choicePhaseStart	2	107	47	foodImage.16	FOODEEG_Images\0196.jpg	YN	Right	No	1.05628760001855	0	457264	253
894.138671875	0	taste	response	2	107	47	foodImage.16	FOODEEG_Images\0196.jpg	YN	Right	No	1.05628760001855	0	457800	235
895.181640625	1	taste	trialStart	2	108	48	foodImage.17	FOODEEG_Images\0199.jpg	YN	Left	Yes	0.575533499999437	0	458334	251
896.220703125	2	taste	foodImageDisplay	2	108	48	foodImage.17	FOODEEG_Images\0199.jpg	YN	Left	Yes	0.575533499999437	0	458866	252
898.283203125	0.575533499999437	taste	choicePhaseStart	2	108	48	foodImage.17	FOODEEG_Images\0199.jpg	YN	Left	Yes	0.575533499999437	0	459922	253
898.849609375	0	taste	response	2	108	48	foodImage.17	FOODEEG_Images\0199.jpg	YN	Left	Yes	0.575533499999437	0	460212	234
899.89453125	1	health	trialStart	2	109	49	foodImage.91	FOODEEG_Images\0896.jpg	YN	Right	No	1.39694840001175	0	460747	251
900.9609375	2	health	foodImageDisplay	2	109	49	foodImage.91	FOODEEG_Images\0896.jpg	YN	Right	No	1.39694840001175	0	461293	252
903.0234375	1.39694840001175	health	choicePhaseStart	2	109	49	foodImage.91	FOODEEG_Images\0896.jpg	YN	Right	No	1.39694840001175	0	462349	253
904.41015625	0	health	response	2	109	49	foodImage.91	FOODEEG_Images\0896.jpg	YN	Right	No	1.39694840001175	0	463059	235
905.453125	1	decision	trialStart	2	110	50	foodImage.17	FOODEEG_Images\0199.jpg	YN	Left	Yes	0.709665999980643	0	463593	251
906.494140625	2	decision	foodImageDisplay	2	110	50	foodImage.17	FOODEEG_Images\0199.jpg	YN	Left	Yes	0.709665999980643	0	464126	252
908.556640625	0.709665999980643	decision	choicePhaseStart	2	110	50	foodImage.17	FOODEEG_Images\0199.jpg	YN	Left	Yes	0.709665999980643	0	465182	253
909.2578125	0	decision	response	2	110	50	foodImage.17	FOODEEG_Images\0199.jpg	YN	Left	Yes	0.709665999980643	0	465541	234
910.30078125	1	taste	trialStart	2	111	51	foodImage.62	FOODEEG_Images\0644.jpg	NY	Left	No	0.786206999968272	0	466075	251
911.361328125	2	taste	foodImageDisplay	2	111	51	foodImage.62	FOODEEG_Images\0644.jpg	NY	Left	No	0.786206999968272	0	466618	252
913.423828125	0.786206999968272	taste	choicePhaseStart	2	111	51	foodImage.62	FOODEEG_Images\0644.jpg	NY	Left	No	0.786206999968272	0	467674	253
914.201171875	0	taste	response	2	111	51	foodImage.62	FOODEEG_Images\0644.jpg	NY	Left	No	0.786206999968272	0	468072	234
915.244140625	1	decision	trialStart	2	112	52	foodImage.69	FOODEEG_Images\0693.jpg	YN	Right	No	1.08539889997337	0	468606	251
916.287109375	2	decision	foodImageDisplay	2	112	52	foodImage.69	FOODEEG_Images\0693.jpg	YN	Right	No	1.08539889997337	0	469140	252
918.357421875	1.08539889997337	decision	choicePhaseStart	2	112	52	foodImage.69	FOODEEG_Images\0693.jpg	YN	Right	No	1.08539889997337	0	470200	253
919.43359375	0	decision	response	2	112	52	foodImage.69	FOODEEG_Images\0693.jpg	YN	Right	No	1.08539889997337	0	470751	235
920.4765625	1	taste	trialStart	2	113	53	foodImage.86	FOODEEG_Images\0844.jpg	YN	Right	No	1.11413560004439	0	471285	251
921.5390625	2	taste	foodImageDisplay	2	113	53	foodImage.86	FOODEEG_Images\0844.jpg	YN	Right	No	1.11413560004439	0	471829	252
923.6015625	1.11413560004439	taste	choicePhaseStart	2	113	53	foodImage.86	FOODEEG_Images\0844.jpg	YN	Right	No	1.11413560004439	0	472885	253
924.705078125	0	taste	response	2	113	53	foodImage.86	FOODEEG_Images\0844.jpg	YN	Right	No	1.11413560004439	0	473450	235
925.748046875	1	health	trialStart	2	114	54	foodImage.23	FOODEEG_Images\0244.jpg	NY	Right	Yes	0.982979100022931	0	473984	251
926.7890625	2	health	foodImageDisplay	2	114	54	foodImage.23	FOODEEG_Images\0244.jpg	NY	Right	Yes	0.982979100022931	0	474517	252
928.857421875	0.982979100022931	health	choicePhaseStart	2	114	54	foodImage.23	FOODEEG_Images\0244.jpg	NY	Right	Yes	0.982979100022931	0	475576	253
929.833984375	0	health	response	2	114	54	foodImage.23	FOODEEG_Images\0244.jpg	NY	Right	Yes	0.982979100022931	0	476076	235
930.875	1	decision	trialStart	2	115	55	foodImage.74	FOODEEG_Images\0752.jpg	YN	Right	No	1.75623949995497	0	476609	251
931.91796875	2	decision	foodImageDisplay	2	115	55	foodImage.74	FOODEEG_Images\0752.jpg	YN	Right	No	1.75623949995497	0	477143	252
933.98046875	1.75623949995497	decision	choicePhaseStart	2	115	55	foodImage.74	FOODEEG_Images\0752.jpg	YN	Right	No	1.75623949995497	0	478199	253
935.728515625	0	decision	response	2	115	55	foodImage.74	FOODEEG_Images\0752.jpg	YN	Right	No	1.75623949995497	0	479094	235
936.771484375	1	decision	trialStart	2	116	56	foodImage.16	FOODEEG_Images\0196.jpg	NY	Left	No	1.15854090003995	0	479628	251
937.830078125	2	decision	foodImageDisplay	2	116	56	foodImage.16	FOODEEG_Images\0196.jpg	NY	Left	No	1.15854090003995	0	480170	252
939.890625	1.15854090003995	decision	choicePhaseStart	2	116	56	foodImage.16	FOODEEG_Images\0196.jpg	NY	Left	No	1.15854090003995	0	481225	253
941.041015625	0	decision	response	2	116	56	foodImage.16	FOODEEG_Images\0196.jpg	NY	Left	No	1.15854090003995	0	481814	234
942.08203125	1	decision	trialStart	2	117	57	foodImage.57	FOODEEG_Images\0587.jpg	YN	Left	Yes	1.09193170000799	0	482347	251
943.126953125	2	decision	foodImageDisplay	2	117	57	foodImage.57	FOODEEG_Images\0587.jpg	YN	Left	Yes	1.09193170000799	0	482882	252
945.189453125	1.09193170000799	decision	choicePhaseStart	2	117	57	foodImage.57	FOODEEG_Images\0587.jpg	YN	Left	Yes	1.09193170000799	0	483938	253
946.271484375	0	decision	response	2	117	57	foodImage.57	FOODEEG_Images\0587.jpg	YN	Left	Yes	1.09193170000799	0	484492	234
947.314453125	1	taste	trialStart	2	118	58	foodImage.96	FOODEEG_Images\0904.jpg	NY	Left	No	1.60113650001585	0	485026	251
948.353515625	2	taste	foodImageDisplay	2	118	58	foodImage.96	FOODEEG_Images\0904.jpg	NY	Left	No	1.60113650001585	0	485558	252
950.416015625	1.60113650001585	taste	choicePhaseStart	2	118	58	foodImage.96	FOODEEG_Images\0904.jpg	NY	Left	No	1.60113650001585	0	486614	253
952.0078125	0	taste	response	2	118	58	foodImage.96	FOODEEG_Images\0904.jpg	NY	Left	No	1.60113650001585	0	487429	234
953.05078125	1	decision	trialStart	2	119	59	foodImage.95	FOODEEG_Images\0903.jpg	NY	Left	No	0.737151100009214	0	487963	251
954.08984375	2	decision	foodImageDisplay	2	119	59	foodImage.95	FOODEEG_Images\0903.jpg	NY	Left	No	0.737151100009214	0	488495	252
956.15234375	0.737151100009214	decision	choicePhaseStart	2	119	59	foodImage.95	FOODEEG_Images\0903.jpg	NY	Left	No	0.737151100009214	0	489551	253
956.880859375	0	decision	response	2	119	59	foodImage.95	FOODEEG_Images\0903.jpg	NY	Left	No	0.737151100009214	0	489924	234
957.921875	1	taste	trialStart	2	120	60	foodImage.25	FOODEEG_Images\0261.jpg	YN	Right	No	1.65250009996817	0	490457	251
958.96484375	2	taste	foodImageDisplay	2	120	60	foodImage.25	FOODEEG_Images\0261.jpg	YN	Right	No	1.65250009996817	0	490991	252
961.02734375	1.65250009996817	taste	choicePhaseStart	2	120	60	foodImage.25	FOODEEG_Images\0261.jpg	YN	Right	No	1.65250009996817	0	492047	253
962.671875	0	taste	response	2	120	60	foodImage.25	FOODEEG_Images\0261.jpg	YN	Right	No	1.65250009996817	0	492889	235
964.712890625	17.794921875	n/a	blockEnd	n/a	n/a	n/a	n/a	n/a	n/a	n/a	n/a	n/a	n/a	493934	254
982.5078125	2	n/a	blockStart	3	n/a	n/a	n/a	n/a	n/a	n/a	n/a	n/a	n/a	503045	250
984.546875	1	taste	trialStart	3	121	1	foodImage.47	FOODEEG_Images\0488.jpg	YN	Left	Yes	0.799868399975821	0	504089	251
985.591796875	2	taste	foodImageDisplay	3	121	1	foodImage.47	FOODEEG_Images\0488.jpg	YN	Left	Yes	0.799868399975821	0	504624	252
987.65625	0.799868399975821	taste	choicePhaseStart	3	121	1	foodImage.47	FOODEEG_Images\0488.jpg	YN	Left	Yes	0.799868399975821	0	505681	253
988.447265625	0	taste	response	3	121	1	foodImage.47	FOODEEG_Images\0488.jpg	YN	Left	Yes	0.799868399975821	0	506086	234
989.48828125	1	health	trialStart	3	122	2	foodImage.39	FOODEEG_Images\0367.jpg	YN	Right	No	0.834147799992934	0	506619	251
990.525390625	2	health	foodImageDisplay	3	122	2	foodImage.39	FOODEEG_Images\0367.jpg	YN	Right	No	0.834147799992934	0	507150	252
992.58984375	0.834147799992934	health	choicePhaseStart	3	122	2	foodImage.39	FOODEEG_Images\0367.jpg	YN	Right	No	0.834147799992934	0	508207	253
993.4140625	0	health	response	3	122	2	foodImage.39	FOODEEG_Images\0367.jpg	YN	Right	No	0.834147799992934	0	508629	235
994.455078125	1	taste	trialStart	3	123	3	foodImage.41	FOODEEG_Images\0409.jpg	YN	Right	No	1.17245700000785	0	509162	251
995.517578125	2	taste	foodImageDisplay	3	123	3	foodImage.41	FOODEEG_Images\0409.jpg	YN	Right	No	1.17245700000785	0	509706	252
997.580078125	1.17245700000785	taste	choicePhaseStart	3	123	3	foodImage.41	FOODEEG_Images\0409.jpg	YN	Right	No	1.17245700000785	0	510762	253
998.7421875	0	taste	response	3	123	3	foodImage.41	FOODEEG_Images\0409.jpg	YN	Right	No	1.17245700000785	0	511357	235
999.78515625	1	health	trialStart	3	124	4	foodImage.95	FOODEEG_Images\0903.jpg	YN	Right	No	1.13759639998898	0	511891	251
1000.82421875	2	health	foodImageDisplay	3	124	4	foodImage.95	FOODEEG_Images\0903.jpg	YN	Right	No	1.13759639998898	0	512423	252
1002.88671875	1.13759639998898	health	choicePhaseStart	3	124	4	foodImage.95	FOODEEG_Images\0903.jpg	YN	Right	No	1.13759639998898	0	513479	253
1004.013671875	0	health	response	3	124	4	foodImage.95	FOODEEG_Images\0903.jpg	YN	Right	No	1.13759639998898	0	514056	235
1005.056640625	1	taste	trialStart	3	125	5	foodImage.24	FOODEEG_Images\0250.jpg	YN	Right	No	1.19486690004123	0	514590	251
1006.09765625	2	taste	foodImageDisplay	3	125	5	foodImage.24	FOODEEG_Images\0250.jpg	YN	Right	No	1.19486690004123	0	515123	252
1008.1640625	1.19486690004123	taste	choicePhaseStart	3	125	5	foodImage.24	FOODEEG_Images\0250.jpg	YN	Right	No	1.19486690004123	0	516181	253
1009.349609375	0	taste	response	3	125	5	foodImage.24	FOODEEG_Images\0250.jpg	YN	Right	No	1.19486690004123	0	516788	235
1010.388671875	1	decision	trialStart	3	126	6	foodImage.36	FOODEEG_Images\0352.jpg	NY	Left	No	1.02166319999378	0	517320	251
1011.451171875	2	decision	foodImageDisplay	3	126	6	foodImage.36	FOODEEG_Images\0352.jpg	NY	Left	No	1.02166319999378	0	517864	252
1013.513671875	1.02166319999378	decision	choicePhaseStart	3	126	6	foodImage.36	FOODEEG_Images\0352.jpg	NY	Left	No	1.02166319999378	0	518920	253
1014.525390625	0	decision	response	3	126	6	foodImage.36	FOODEEG_Images\0352.jpg	NY	Left	No	1.02166319999378	0	519438	234
1015.5703125	1	decision	trialStart	3	127	7	foodImage.70	FOODEEG_Images\0705.jpg	NY	Left	No	3.09832450002432	0	519973	251
1016.62890625	2	decision	foodImageDisplay	3	127	7	foodImage.70	FOODEEG_Images\0705.jpg	NY	Left	No	3.09832450002432	0	520515	252
1018.69140625	3.09832450002432	decision	choicePhaseStart	3	127	7	foodImage.70	FOODEEG_Images\0705.jpg	NY	Left	No	3.09832450002432	0	521571	253
1021.78125	0	decision	response	3	127	7	foodImage.70	FOODEEG_Images\0705.jpg	NY	Left	No	3.09832450002432	0	523153	234
1022.82421875	1	taste	trialStart	3	128	8	foodImage.2	FOODEEG_Images\0028.jpg	YN	Left	Yes	0.995718399994075	0	523687	251
1023.869140625	2	taste	foodImageDisplay	3	128	8	foodImage.2	FOODEEG_Images\0028.jpg	YN	Left	Yes	0.995718399994075	0	524222	252
1025.9296875	0.995718399994075	taste	choicePhaseStart	3	128	8	foodImage.2	FOODEEG_Images\0028.jpg	YN	Left	Yes	0.995718399994075	0	525277	253
1026.916015625	0	taste	response	3	128	8	foodImage.2	FOODEEG_Images\0028.jpg	YN	Left	Yes	0.995718399994075	0	525782	234
1027.958984375	1	decision	trialStart	3	129	9	foodImage.7	FOODEEG_Images\0116.jpg	YN	Left	Yes	0.679937100037932	0	526316	251
1029	2	decision	foodImageDisplay	3	129	9	foodImage.7	FOODEEG_Images\0116.jpg	YN	Left	Yes	0.679937100037932	0	526849	252
1031.0625	0.679937100037932	decision	choicePhaseStart	3	129	9	foodImage.7	FOODEEG_Images\0116.jpg	YN	Left	Yes	0.679937100037932	0	527905	253
1031.732421875	0	decision	response	3	129	9	foodImage.7	FOODEEG_Images\0116.jpg	YN	Left	Yes	0.679937100037932	0	528248	234
1032.775390625	1	decision	trialStart	3	130	10	foodImage.61	FOODEEG_Images\0640.jpg	NY	Left	No	0.716265900002327	0	528782	251
1033.818359375	2	decision	foodImageDisplay	3	130	10	foodImage.61	FOODEEG_Images\0640.jpg	NY	Left	No	0.716265900002327	0	529316	252
1035.880859375	0.716265900002327	decision	choicePhaseStart	3	130	10	foodImage.61	FOODEEG_Images\0640.jpg	NY	Left	No	0.716265900002327	0	530372	253
1036.587890625	0	decision	response	3	130	10	foodImage.61	FOODEEG_Images\0640.jpg	NY	Left	No	0.716265900002327	0	530734	234
1037.63671875	1	health	trialStart	3	131	11	foodImage.14	FOODEEG_Images\0188.jpg	NY	Left	No	0.966790599981323	0	531271	251
1038.71875	2	health	foodImageDisplay	3	131	11	foodImage.14	FOODEEG_Images\0188.jpg	NY	Left	No	0.966790599981323	0	531825	252
1040.78125	0.966790599981323	health	choicePhaseStart	3	131	11	foodImage.14	FOODEEG_Images\0188.jpg	NY	Left	No	0.966790599981323	0	532881	253
1041.740234375	0	health	response	3	131	11	foodImage.14	FOODEEG_Images\0188.jpg	NY	Left	No	0.966790599981323	0	533372	234
1042.783203125	1	health	trialStart	3	132	12	foodImage.85	FOODEEG_Images\0841.jpg	YN	Right	No	1.23821899999166	0	533906	251
1043.849609375	2	health	foodImageDisplay	3	132	12	foodImage.85	FOODEEG_Images\0841.jpg	YN	Right	No	1.23821899999166	0	534452	252
1045.912109375	1.23821899999166	health	choicePhaseStart	3	132	12	foodImage.85	FOODEEG_Images\0841.jpg	YN	Right	No	1.23821899999166	0	535508	253
1047.140625	0	health	response	3	132	12	foodImage.85	FOODEEG_Images\0841.jpg	YN	Right	No	1.23821899999166	0	536137	235
1048.1875	1	taste	trialStart	3	133	13	foodImage.115	FOODEEG_Images\0923.jpg	YN	Right	No	0.918455300037749	0	536673	251
1049.224609375	2	taste	foodImageDisplay	3	133	13	foodImage.115	FOODEEG_Images\0923.jpg	YN	Right	No	0.918455300037749	0	537204	252
1051.294921875	0.918455300037749	taste	choicePhaseStart	3	133	13	foodImage.115	FOODEEG_Images\0923.jpg	YN	Right	No	0.918455300037749	0	538264	253
1052.205078125	0	taste	response	3	133	13	foodImage.115	FOODEEG_Images\0923.jpg	YN	Right	No	0.918455300037749	0	538730	235
1053.24609375	1	taste	trialStart	3	134	14	foodImage.109	FOODEEG_Images\0917.jpg	NY	Left	No	0.929207600012887	0	539263	251
1054.28515625	2	taste	foodImageDisplay	3	134	14	foodImage.109	FOODEEG_Images\0917.jpg	NY	Left	No	0.929207600012887	0	539795	252
1056.34765625	0.929207600012887	taste	choicePhaseStart	3	134	14	foodImage.109	FOODEEG_Images\0917.jpg	NY	Left	No	0.929207600012887	0	540851	253
1057.267578125	0	taste	response	3	134	14	foodImage.109	FOODEEG_Images\0917.jpg	NY	Left	No	0.929207600012887	0	541322	234
1058.30859375	1	taste	trialStart	3	135	15	foodImage.14	FOODEEG_Images\0188.jpg	YN	Left	Yes	1.47574319998967	0	541855	251
1059.369140625	2	taste	foodImageDisplay	3	135	15	foodImage.14	FOODEEG_Images\0188.jpg	YN	Left	Yes	1.47574319998967	0	542398	252
1061.43359375	1.47574319998967	taste	choicePhaseStart	3	135	15	foodImage.14	FOODEEG_Images\0188.jpg	YN	Left	Yes	1.47574319998967	0	543455	253
1062.900390625	0	taste	response	3	135	15	foodImage.14	FOODEEG_Images\0188.jpg	YN	Left	Yes	1.47574319998967	0	544206	234
1063.943359375	1	decision	trialStart	3	136	16	foodImage.91	FOODEEG_Images\0896.jpg	YN	Left	Yes	0.828072800009977	0	544740	251
1065	2	decision	foodImageDisplay	3	136	16	foodImage.91	FOODEEG_Images\0896.jpg	YN	Left	Yes	0.828072800009977	0	545281	252
1067.064453125	0.828072800009977	decision	choicePhaseStart	3	136	16	foodImage.91	FOODEEG_Images\0896.jpg	YN	Left	Yes	0.828072800009977	0	546338	253
1067.8828125	0	decision	response	3	136	16	foodImage.91	FOODEEG_Images\0896.jpg	YN	Left	Yes	0.828072800009977	0	546757	234
1068.92578125	1	taste	trialStart	3	137	17	foodImage.43	FOODEEG_Images\0445.jpg	NY	Left	No	1.74461580003845	0	547291	251
1069.98046875	2	taste	foodImageDisplay	3	137	17	foodImage.43	FOODEEG_Images\0445.jpg	NY	Left	No	1.74461580003845	0	547831	252
1072.04296875	1.74461580003845	taste	choicePhaseStart	3	137	17	foodImage.43	FOODEEG_Images\0445.jpg	NY	Left	No	1.74461580003845	0	548887	253
1073.779296875	0	taste	response	3	137	17	foodImage.43	FOODEEG_Images\0445.jpg	NY	Left	No	1.74461580003845	0	549776	234
1074.82421875	1	decision	trialStart	3	138	18	foodImage.49	FOODEEG_Images\0515.jpg	YN	Right	No	1.39750540000387	0	550311	251
1075.865234375	2	decision	foodImageDisplay	3	138	18	foodImage.49	FOODEEG_Images\0515.jpg	YN	Right	No	1.39750540000387	0	550844	252
1077.93359375	1.39750540000387	decision	choicePhaseStart	3	138	18	foodImage.49	FOODEEG_Images\0515.jpg	YN	Right	No	1.39750540000387	0	551903	253
1079.322265625	0	decision	response	3	138	18	foodImage.49	FOODEEG_Images\0515.jpg	YN	Right	No	1.39750540000387	0	552614	235
1080.36328125	1	health	trialStart	3	139	19	foodImage.84	FOODEEG_Images\0830.jpg	YN	Left	Yes	0.812644000048749	0	553147	251
1081.423828125	2	health	foodImageDisplay	3	139	19	foodImage.84	FOODEEG_Images\0830.jpg	YN	Left	Yes	0.812644000048749	0	553690	252
1083.486328125	0.812644000048749	health	choicePhaseStart	3	139	19	foodImage.84	FOODEEG_Images\0830.jpg	YN	Left	Yes	0.812644000048749	0	554746	253
1084.291015625	0	health	response	3	139	19	foodImage.84	FOODEEG_Images\0830.jpg	YN	Left	Yes	0.812644000048749	0	555158	234
1085.333984375	1	decision	trialStart	3	140	20	foodImage.47	FOODEEG_Images\0488.jpg	NY	Right	Yes	0.837665099999867	0	555692	251
1086.375	2	decision	foodImageDisplay	3	140	20	foodImage.47	FOODEEG_Images\0488.jpg	NY	Right	Yes	0.837665099999867	0	556225	252
1088.4375	0.837665099999867	decision	choicePhaseStart	3	140	20	foodImage.47	FOODEEG_Images\0488.jpg	NY	Right	Yes	0.837665099999867	0	557281	253
1089.265625	0	decision	response	3	140	20	foodImage.47	FOODEEG_Images\0488.jpg	NY	Right	Yes	0.837665099999867	0	557705	235
1090.310546875	1	taste	trialStart	3	141	21	foodImage.56	FOODEEG_Images\0586.jpg	NY	Left	No	2.01389760000166	0	558240	251
1091.3515625	2	taste	foodImageDisplay	3	141	21	foodImage.56	FOODEEG_Images\0586.jpg	NY	Left	No	2.01389760000166	0	558773	252
1093.4140625	2.01389760000166	taste	choicePhaseStart	3	141	21	foodImage.56	FOODEEG_Images\0586.jpg	NY	Left	No	2.01389760000166	0	559829	253
1095.41796875	0	taste	response	3	141	21	foodImage.56	FOODEEG_Images\0586.jpg	NY	Left	No	2.01389760000166	0	560855	234
1096.4609375	1	decision	trialStart	3	142	22	foodImage.103	FOODEEG_Images\0911.jpg	NY	Left	No	0.788180299976375	0	561389	251
1097.5	2	decision	foodImageDisplay	3	142	22	foodImage.103	FOODEEG_Images\0911.jpg	NY	Left	No	0.788180299976375	0	561921	252
1099.56640625	0.788180299976375	decision	choicePhaseStart	3	142	22	foodImage.103	FOODEEG_Images\0911.jpg	NY	Left	No	0.788180299976375	0	562979	253
1100.345703125	0	decision	response	3	142	22	foodImage.103	FOODEEG_Images\0911.jpg	NY	Left	No	0.788180299976375	0	563378	234
1101.388671875	1	decision	trialStart	3	143	23	foodImage.71	FOODEEG_Images\0713.jpg	NY	Right	Yes	0.5665575999883	0	563912	251
1102.4296875	2	decision	foodImageDisplay	3	143	23	foodImage.71	FOODEEG_Images\0713.jpg	NY	Right	Yes	0.5665575999883	0	564445	252
1104.4921875	0.5665575999883	decision	choicePhaseStart	3	143	23	foodImage.71	FOODEEG_Images\0713.jpg	NY	Right	Yes	0.5665575999883	0	565501	253
1105.05078125	0	decision	response	3	143	23	foodImage.71	FOODEEG_Images\0713.jpg	NY	Right	Yes	0.5665575999883	0	565787	235
1106.091796875	1	decision	trialStart	3	144	24	foodImage.13	FOODEEG_Images\0183.jpg	NY	Right	Yes	0.584634600032587	0	566320	251
1107.140625	2	decision	foodImageDisplay	3	144	24	foodImage.13	FOODEEG_Images\0183.jpg	NY	Right	Yes	0.584634600032587	0	566857	252
1109.203125	0.584634600032587	decision	choicePhaseStart	3	144	24	foodImage.13	FOODEEG_Images\0183.jpg	NY	Right	Yes	0.584634600032587	0	567913	253
1109.77734375	0	decision	response	3	144	24	foodImage.13	FOODEEG_Images\0183.jpg	NY	Right	Yes	0.584634600032587	0	568207	235
1110.8203125	1	health	trialStart	3	145	25	foodImage.92	FOODEEG_Images\0900.jpg	NY	Left	No	1.05279650003649	0	568741	251
1111.86328125	2	health	foodImageDisplay	3	145	25	foodImage.92	FOODEEG_Images\0900.jpg	NY	Left	No	1.05279650003649	0	569275	252
1113.92578125	1.05279650003649	health	choicePhaseStart	3	145	25	foodImage.92	FOODEEG_Images\0900.jpg	NY	Left	No	1.05279650003649	0	570331	253
1114.96875	0	health	response	3	145	25	foodImage.92	FOODEEG_Images\0900.jpg	NY	Left	No	1.05279650003649	0	570865	234
1116.01953125	1	decision	trialStart	3	146	26	foodImage.80	FOODEEG_Images\0796.jpg	NY	Right	Yes	1.23259279999183	0	571403	251
1117.07421875	2	decision	foodImageDisplay	3	146	26	foodImage.80	FOODEEG_Images\0796.jpg	NY	Right	Yes	1.23259279999183	0	571943	252
1119.13671875	1.23259279999183	decision	choicePhaseStart	3	146	26	foodImage.80	FOODEEG_Images\0796.jpg	NY	Right	Yes	1.23259279999183	0	572999	253
1120.361328125	0	decision	response	3	146	26	foodImage.80	FOODEEG_Images\0796.jpg	NY	Right	Yes	1.23259279999183	0	573626	235
1121.404296875	1	taste	trialStart	3	147	27	foodImage.71	FOODEEG_Images\0713.jpg	NY	Right	Yes	0.789235099975485	0	574160	251
1122.4453125	2	taste	foodImageDisplay	3	147	27	foodImage.71	FOODEEG_Images\0713.jpg	NY	Right	Yes	0.789235099975485	0	574693	252
1124.5078125	0.789235099975485	taste	choicePhaseStart	3	147	27	foodImage.71	FOODEEG_Images\0713.jpg	NY	Right	Yes	0.789235099975485	0	575749	253
1125.2890625	0	taste	response	3	147	27	foodImage.71	FOODEEG_Images\0713.jpg	NY	Right	Yes	0.789235099975485	0	576149	235
1126.330078125	1	decision	trialStart	3	148	28	foodImage.4	FOODEEG_Images\0065.jpg	NY	Right	Yes	0.743518599949311	0	576682	251
1127.388671875	2	decision	foodImageDisplay	3	148	28	foodImage.4	FOODEEG_Images\0065.jpg	NY	Right	Yes	0.743518599949311	0	577224	252
1129.451171875	0.743518599949311	decision	choicePhaseStart	3	148	28	foodImage.4	FOODEEG_Images\0065.jpg	NY	Right	Yes	0.743518599949311	0	578280	253
1130.185546875	0	decision	response	3	148	28	foodImage.4	FOODEEG_Images\0065.jpg	NY	Right	Yes	0.743518599949311	0	578656	235
1131.2265625	1	taste	trialStart	3	149	29	foodImage.9	FOODEEG_Images\0138.jpg	YN	Right	No	1.17518660001224	0	579189	251
1132.283203125	2	taste	foodImageDisplay	3	149	29	foodImage.9	FOODEEG_Images\0138.jpg	YN	Right	No	1.17518660001224	0	579730	252
1134.345703125	1.17518660001224	taste	choicePhaseStart	3	149	29	foodImage.9	FOODEEG_Images\0138.jpg	YN	Right	No	1.17518660001224	0	580786	253
1135.513671875	0	taste	response	3	149	29	foodImage.9	FOODEEG_Images\0138.jpg	YN	Right	No	1.17518660001224	0	581384	235
1136.5546875	1	taste	trialStart	3	150	30	foodImage.61	FOODEEG_Images\0640.jpg	YN	Right	No	0.942035500018392	0	581917	251
1137.59765625	2	taste	foodImageDisplay	3	150	30	foodImage.61	FOODEEG_Images\0640.jpg	YN	Right	No	0.942035500018392	0	582451	252
1139.66015625	0.942035500018392	taste	choicePhaseStart	3	150	30	foodImage.61	FOODEEG_Images\0640.jpg	YN	Right	No	0.942035500018392	0	583507	253
1140.591796875	0	taste	response	3	150	30	foodImage.61	FOODEEG_Images\0640.jpg	YN	Right	No	0.942035500018392	0	583984	235
1141.634765625	1	decision	trialStart	3	151	31	foodImage.82	FOODEEG_Images\0805.jpg	YN	Right	No	0.746969100029673	0	584518	251
1142.6875	2	decision	foodImageDisplay	3	151	31	foodImage.82	FOODEEG_Images\0805.jpg	YN	Right	No	0.746969100029673	0	585057	252
1144.75	0.746969100029673	decision	choicePhaseStart	3	151	31	foodImage.82	FOODEEG_Images\0805.jpg	YN	Right	No	0.746969100029673	0	586113	253
1145.48828125	0	decision	response	3	151	31	foodImage.82	FOODEEG_Images\0805.jpg	YN	Right	No	0.746969100029673	0	586491	235
1146.53125	1	health	trialStart	3	152	32	foodImage.62	FOODEEG_Images\0644.jpg	YN	Right	No	3.78912620001938	0	587025	251
1147.587890625	2	health	foodImageDisplay	3	152	32	foodImage.62	FOODEEG_Images\0644.jpg	YN	Right	No	3.78912620001938	0	587566	252
1149.65234375	3.78912620001938	health	choicePhaseStart	3	152	32	foodImage.62	FOODEEG_Images\0644.jpg	YN	Right	No	3.78912620001938	0	588623	253
1153.431640625	0	health	response	3	152	32	foodImage.62	FOODEEG_Images\0644.jpg	YN	Right	No	3.78912620001938	0	590558	235
1154.474609375	1	health	trialStart	3	153	33	foodImage.119	FOODEEG_Images\0927.jpg	YN	Right	No	0.624155599973164	0	591092	251
1155.515625	2	health	foodImageDisplay	3	153	33	foodImage.119	FOODEEG_Images\0927.jpg	YN	Right	No	0.624155599973164	0	591625	252
1157.578125	0.624155599973164	health	choicePhaseStart	3	153	33	foodImage.119	FOODEEG_Images\0927.jpg	YN	Right	No	0.624155599973164	0	592681	253
1158.19140625	0	health	response	3	153	33	foodImage.119	FOODEEG_Images\0927.jpg	YN	Right	No	0.624155599973164	0	592995	235
1159.240234375	1	taste	trialStart	3	154	34	foodImage.5	FOODEEG_Images\0107.jpg	NY	Right	Yes	0.839944100007415	0	593532	251
1160.298828125	2	taste	foodImageDisplay	3	154	34	foodImage.5	FOODEEG_Images\0107.jpg	NY	Right	Yes	0.839944100007415	0	594074	252
1162.361328125	0.839944100007415	taste	choicePhaseStart	3	154	34	foodImage.5	FOODEEG_Images\0107.jpg	NY	Right	Yes	0.839944100007415	0	595130	253
1163.19140625	0	taste	response	3	154	34	foodImage.5	FOODEEG_Images\0107.jpg	NY	Right	Yes	0.839944100007415	0	595555	235
1164.234375	1	decision	trialStart	3	155	35	foodImage.68	FOODEEG_Images\0685.jpg	YN	Left	Yes	0.745067199983168	0	596089	251
1165.314453125	2	decision	foodImageDisplay	3	155	35	foodImage.68	FOODEEG_Images\0685.jpg	YN	Left	Yes	0.745067199983168	0	596642	252
1167.376953125	0.745067199983168	decision	choicePhaseStart	3	155	35	foodImage.68	FOODEEG_Images\0685.jpg	YN	Left	Yes	0.745067199983168	0	597698	253
1168.111328125	0	decision	response	3	155	35	foodImage.68	FOODEEG_Images\0685.jpg	YN	Left	Yes	0.745067199983168	0	598074	234
1169.16796875	1	taste	trialStart	3	156	36	foodImage.4	FOODEEG_Images\0065.jpg	NY	Right	Yes	1.54651759995613	0	598615	251
1170.251953125	2	taste	foodImageDisplay	3	156	36	foodImage.4	FOODEEG_Images\0065.jpg	NY	Right	Yes	1.54651759995613	0	599170	252
1172.318359375	1.54651759995613	taste	choicePhaseStart	3	156	36	foodImage.4	FOODEEG_Images\0065.jpg	NY	Right	Yes	1.54651759995613	0	600228	253
1173.85546875	0	taste	response	3	156	36	foodImage.4	FOODEEG_Images\0065.jpg	NY	Right	Yes	1.54651759995613	0	601015	235
1174.8984375	1	decision	trialStart	3	157	37	foodImage.76	FOODEEG_Images\0766.jpg	NY	Right	Yes	0.849664099980146	0	601549	251
1175.943359375	2	decision	foodImageDisplay	3	157	37	foodImage.76	FOODEEG_Images\0766.jpg	NY	Right	Yes	0.849664099980146	0	602084	252
1178.005859375	0.849664099980146	decision	choicePhaseStart	3	157	37	foodImage.76	FOODEEG_Images\0766.jpg	NY	Right	Yes	0.849664099980146	0	603140	253
1178.84765625	0	decision	response	3	157	37	foodImage.76	FOODEEG_Images\0766.jpg	NY	Right	Yes	0.849664099980146	0	603571	235
1179.888671875	1	decision	trialStart	3	158	38	foodImage.98	FOODEEG_Images\0906.jpg	NY	Left	No	0.911799599998631	0	604104	251
1180.9296875	2	decision	foodImageDisplay	3	158	38	foodImage.98	FOODEEG_Images\0906.jpg	NY	Left	No	0.911799599998631	0	604637	252
1182.9921875	0.911799599998631	decision	choicePhaseStart	3	158	38	foodImage.98	FOODEEG_Images\0906.jpg	NY	Left	No	0.911799599998631	0	605693	253
1183.89453125	0	decision	response	3	158	38	foodImage.98	FOODEEG_Images\0906.jpg	NY	Left	No	0.911799599998631	0	606155	234
1184.9375	1	taste	trialStart	3	159	39	foodImage.72	FOODEEG_Images\0714.jpg	YN	Right	No	0.987881399982143	0	606689	251
1185.98046875	2	taste	foodImageDisplay	3	159	39	foodImage.72	FOODEEG_Images\0714.jpg	YN	Right	No	0.987881399982143	0	607223	252
1188.04296875	0.987881399982143	taste	choicePhaseStart	3	159	39	foodImage.72	FOODEEG_Images\0714.jpg	YN	Right	No	0.987881399982143	0	608279	253
1189.021484375	0	taste	response	3	159	39	foodImage.72	FOODEEG_Images\0714.jpg	YN	Right	No	0.987881399982143	0	608780	235
1190.064453125	1	decision	trialStart	3	160	40	foodImage.25	FOODEEG_Images\0261.jpg	YN	Right	No	1.61689810000826	0	609314	251
1191.10546875	2	decision	foodImageDisplay	3	160	40	foodImage.25	FOODEEG_Images\0261.jpg	YN	Right	No	1.61689810000826	0	609847	252
1193.16796875	1.61689810000826	decision	choicePhaseStart	3	160	40	foodImage.25	FOODEEG_Images\0261.jpg	YN	Right	No	1.61689810000826	0	610903	253
1194.775390625	0	decision	response	3	160	40	foodImage.25	FOODEEG_Images\0261.jpg	YN	Right	No	1.61689810000826	0	611726	235
1195.818359375	1	decision	trialStart	3	161	41	foodImage.104	FOODEEG_Images\0912.jpg	YN	Right	No	0.840306699974462	0	612260	251
1196.85546875	2	decision	foodImageDisplay	3	161	41	foodImage.104	FOODEEG_Images\0912.jpg	YN	Right	No	0.840306699974462	0	612791	252
1198.91796875	0.840306699974462	decision	choicePhaseStart	3	161	41	foodImage.104	FOODEEG_Images\0912.jpg	YN	Right	No	0.840306699974462	0	613847	253
1199.75	0	decision	response	3	161	41	foodImage.104	FOODEEG_Images\0912.jpg	YN	Right	No	0.840306699974462	0	614273	235
1200.79296875	1	health	trialStart	3	162	42	foodImage.30	FOODEEG_Images\0282.jpg	NY	Right	Yes	0.853573900007177	0	614807	251
1201.84375	2	health	foodImageDisplay	3	162	42	foodImage.30	FOODEEG_Images\0282.jpg	NY	Right	Yes	0.853573900007177	0	615345	252
1203.90625	0.853573900007177	health	choicePhaseStart	3	162	42	foodImage.30	FOODEEG_Images\0282.jpg	NY	Right	Yes	0.853573900007177	0	616401	253
1204.75	0	health	response	3	162	42	foodImage.30	FOODEEG_Images\0282.jpg	NY	Right	Yes	0.853573900007177	0	616833	235
1205.791015625	1	health	trialStart	3	163	43	foodImage.116	FOODEEG_Images\0924.jpg	NY	Left	No	0.967190700001083	0	617366	251
1206.841796875	2	health	foodImageDisplay	3	163	43	foodImage.116	FOODEEG_Images\0924.jpg	NY	Left	No	0.967190700001083	0	617904	252
1208.904296875	0.967190700001083	health	choicePhaseStart	3	163	43	foodImage.116	FOODEEG_Images\0924.jpg	NY	Left	No	0.967190700001083	0	618960	253
1209.861328125	0	health	response	3	163	43	foodImage.116	FOODEEG_Images\0924.jpg	NY	Left	No	0.967190700001083	0	619450	234
1210.904296875	1	decision	trialStart	3	164	44	foodImage.45	FOODEEG_Images\0478.jpg	NY	Left	No	1.21755360002862	0	619984	251
1211.951171875	2	decision	foodImageDisplay	3	164	44	foodImage.45	FOODEEG_Images\0478.jpg	NY	Left	No	1.21755360002862	0	620520	252
1214.01171875	1.21755360002862	decision	choicePhaseStart	3	164	44	foodImage.45	FOODEEG_Images\0478.jpg	NY	Left	No	1.21755360002862	0	621575	253
1215.220703125	0	decision	response	3	164	44	foodImage.45	FOODEEG_Images\0478.jpg	NY	Left	No	1.21755360002862	0	622194	234
1216.263671875	1	decision	trialStart	3	165	45	foodImage.11	FOODEEG_Images\0180.jpg	NY	Left	No	0.765925100015011	0	622728	251
1217.3046875	2	decision	foodImageDisplay	3	165	45	foodImage.11	FOODEEG_Images\0180.jpg	NY	Left	No	0.765925100015011	0	623261	252
1219.3671875	0.765925100015011	decision	choicePhaseStart	3	165	45	foodImage.11	FOODEEG_Images\0180.jpg	NY	Left	No	0.765925100015011	0	624317	253
1220.125	0	decision	response	3	165	45	foodImage.11	FOODEEG_Images\0180.jpg	NY	Left	No	0.765925100015011	0	624705	234
1221.16796875	1	taste	trialStart	3	166	46	foodImage.45	FOODEEG_Images\0478.jpg	YN	Left	Yes	1.61610420001671	0	625239	251
1222.21484375	2	taste	foodImageDisplay	3	166	46	foodImage.45	FOODEEG_Images\0478.jpg	YN	Left	Yes	1.61610420001671	0	625775	252
1224.27734375	1.61610420001671	taste	choicePhaseStart	3	166	46	foodImage.45	FOODEEG_Images\0478.jpg	YN	Left	Yes	1.61610420001671	0	626831	253
1225.884765625	0	taste	response	3	166	46	foodImage.45	FOODEEG_Images\0478.jpg	YN	Left	Yes	1.61610420001671	0	627654	234
1226.92578125	1	health	trialStart	3	167	47	foodImage.19	FOODEEG_Images\0225.jpg	YN	Left	Yes	0.869315800024197	0	628187	251
1227.970703125	2	health	foodImageDisplay	3	167	47	foodImage.19	FOODEEG_Images\0225.jpg	YN	Left	Yes	0.869315800024197	0	628722	252
1230.033203125	0.869315800024197	health	choicePhaseStart	3	167	47	foodImage.19	FOODEEG_Images\0225.jpg	YN	Left	Yes	0.869315800024197	0	629778	253
1230.892578125	0	health	response	3	167	47	foodImage.19	FOODEEG_Images\0225.jpg	YN	Left	Yes	0.869315800024197	0	630218	234
1231.935546875	1	decision	trialStart	3	168	48	foodImage.24	FOODEEG_Images\0250.jpg	NY	Left	No	1.25559820001945	0	630752	251
1232.978515625	2	decision	foodImageDisplay	3	168	48	foodImage.24	FOODEEG_Images\0250.jpg	NY	Left	No	1.25559820001945	0	631286	252
1235.044921875	1.25559820001945	decision	choicePhaseStart	3	168	48	foodImage.24	FOODEEG_Images\0250.jpg	NY	Left	No	1.25559820001945	0	632344	253
1236.29296875	0	decision	response	3	168	48	foodImage.24	FOODEEG_Images\0250.jpg	NY	Left	No	1.25559820001945	0	632983	234
1237.3359375	1	taste	trialStart	3	169	49	foodImage.31	FOODEEG_Images\0294.jpg	YN	Left	Yes	0.830749300017487	0	633517	251
1238.376953125	2	taste	foodImageDisplay	3	169	49	foodImage.31	FOODEEG_Images\0294.jpg	YN	Left	Yes	0.830749300017487	0	634050	252
1240.4375	0.830749300017487	taste	choicePhaseStart	3	169	49	foodImage.31	FOODEEG_Images\0294.jpg	YN	Left	Yes	0.830749300017487	0	635105	253
1241.259765625	0	taste	response	3	169	49	foodImage.31	FOODEEG_Images\0294.jpg	YN	Left	Yes	0.830749300017487	0	635526	234
1242.302734375	1	health	trialStart	3	170	50	foodImage.83	FOODEEG_Images\0827.jpg	NY	Right	Yes	1.29554580000695	0	636060	251
1243.361328125	2	health	foodImageDisplay	3	170	50	foodImage.83	FOODEEG_Images\0827.jpg	NY	Right	Yes	1.29554580000695	0	636602	252
1245.423828125	1.29554580000695	health	choicePhaseStart	3	170	50	foodImage.83	FOODEEG_Images\0827.jpg	NY	Right	Yes	1.29554580000695	0	637658	253
1246.708984375	0	health	response	3	170	50	foodImage.83	FOODEEG_Images\0827.jpg	NY	Right	Yes	1.29554580000695	0	638316	235
1247.751953125	1	taste	trialStart	3	171	51	foodImage.18	FOODEEG_Images\0202.jpg	NY	Right	Yes	1.09950459998799	0	638850	251
1248.810546875	2	taste	foodImageDisplay	3	171	51	foodImage.18	FOODEEG_Images\0202.jpg	NY	Right	Yes	1.09950459998799	0	639392	252
1250.875	1.09950459998799	taste	choicePhaseStart	3	171	51	foodImage.18	FOODEEG_Images\0202.jpg	NY	Right	Yes	1.09950459998799	0	640449	253
1251.96484375	0	taste	response	3	171	51	foodImage.18	FOODEEG_Images\0202.jpg	NY	Right	Yes	1.09950459998799	0	641007	235
1253.0078125	1	decision	trialStart	3	172	52	foodImage.41	FOODEEG_Images\0409.jpg	NY	Left	No	0.894352700037416	0	641541	251
1254.0546875	2	decision	foodImageDisplay	3	172	52	foodImage.41	FOODEEG_Images\0409.jpg	NY	Left	No	0.894352700037416	0	642077	252
1256.119140625	0.894352700037416	decision	choicePhaseStart	3	172	52	foodImage.41	FOODEEG_Images\0409.jpg	NY	Left	No	0.894352700037416	0	643134	253
1257.00390625	0	decision	response	3	172	52	foodImage.41	FOODEEG_Images\0409.jpg	NY	Left	No	0.894352700037416	0	643587	234
1258.048828125	1	health	trialStart	3	173	53	foodImage.67	FOODEEG_Images\0679.jpg	NY	Left	No	0.869390100007877	0	644122	251
1259.11328125	2	health	foodImageDisplay	3	173	53	foodImage.67	FOODEEG_Images\0679.jpg	NY	Left	No	0.869390100007877	0	644667	252
1261.17578125	0.869390100007877	health	choicePhaseStart	3	173	53	foodImage.67	FOODEEG_Images\0679.jpg	NY	Left	No	0.869390100007877	0	645723	253
1262.03515625	0	health	response	3	173	53	foodImage.67	FOODEEG_Images\0679.jpg	NY	Left	No	0.869390100007877	0	646163	234
1263.078125	1	taste	trialStart	3	174	54	foodImage.35	FOODEEG_Images\0350.jpg	NY	Left	No	1.0969194000354	0	646697	251
1264.1171875	2	taste	foodImageDisplay	3	174	54	foodImage.35	FOODEEG_Images\0350.jpg	NY	Left	No	1.0969194000354	0	647229	252
1266.1796875	1.0969194000354	taste	choicePhaseStart	3	174	54	foodImage.35	FOODEEG_Images\0350.jpg	NY	Left	No	1.0969194000354	0	648285	253
1267.267578125	0	taste	response	3	174	54	foodImage.35	FOODEEG_Images\0350.jpg	NY	Left	No	1.0969194000354	0	648842	234
1268.310546875	1	decision	trialStart	3	175	55	foodImage.109	FOODEEG_Images\0917.jpg	YN	Right	No	0.864312899997458	0	649376	251
1269.349609375	2	decision	foodImageDisplay	3	175	55	foodImage.109	FOODEEG_Images\0917.jpg	YN	Right	No	0.864312899997458	0	649908	252
1271.412109375	0.864312899997458	decision	choicePhaseStart	3	175	55	foodImage.109	FOODEEG_Images\0917.jpg	YN	Right	No	0.864312899997458	0	650964	253
1272.267578125	0	decision	response	3	175	55	foodImage.109	FOODEEG_Images\0917.jpg	YN	Right	No	0.864312899997458	0	651402	235
1273.310546875	1	decision	trialStart	3	176	56	foodImage.26	FOODEEG_Images\0262.jpg	NY	Left	No	1.17259590001777	0	651936	251
1274.353515625	2	decision	foodImageDisplay	3	176	56	foodImage.26	FOODEEG_Images\0262.jpg	NY	Left	No	1.17259590001777	0	652470	252
1276.416015625	1.17259590001777	decision	choicePhaseStart	3	176	56	foodImage.26	FOODEEG_Images\0262.jpg	NY	Left	No	1.17259590001777	0	653526	253
1277.578125	0	decision	response	3	176	56	foodImage.26	FOODEEG_Images\0262.jpg	NY	Left	No	1.17259590001777	0	654121	234
1278.62109375	1	taste	trialStart	3	177	57	foodImage.99	FOODEEG_Images\0907.jpg	NY	Right	Yes	1.40091939998092	0	654655	251
1279.66015625	2	taste	foodImageDisplay	3	177	57	foodImage.99	FOODEEG_Images\0907.jpg	NY	Right	Yes	1.40091939998092	0	655187	252
1281.72265625	1.40091939998092	taste	choicePhaseStart	3	177	57	foodImage.99	FOODEEG_Images\0907.jpg	NY	Right	Yes	1.40091939998092	0	656243	253
1283.115234375	0	taste	response	3	177	57	foodImage.99	FOODEEG_Images\0907.jpg	NY	Right	Yes	1.40091939998092	0	656956	235
1284.158203125	1	health	trialStart	3	178	58	foodImage.1	FOODEEG_Images\0004.jpg	YN	Right	No	1.78863580001052	0	657490	251
1285.201171875	2	health	foodImageDisplay	3	178	58	foodImage.1	FOODEEG_Images\0004.jpg	YN	Right	No	1.78863580001052	0	658024	252
1287.263671875	1.78863580001052	health	choicePhaseStart	3	178	58	foodImage.1	FOODEEG_Images\0004.jpg	YN	Right	No	1.78863580001052	0	659080	253
1289.04296875	0	health	response	3	178	58	foodImage.1	FOODEEG_Images\0004.jpg	YN	Right	No	1.78863580001052	0	659991	235
1290.087890625	1	decision	trialStart	3	179	59	foodImage.97	FOODEEG_Images\0905.jpg	YN	Right	No	2.29258320003282	0	660526	251
1291.126953125	2	decision	foodImageDisplay	3	179	59	foodImage.97	FOODEEG_Images\0905.jpg	YN	Right	No	2.29258320003282	0	661058	252
1293.189453125	2.29258320003282	decision	choicePhaseStart	3	179	59	foodImage.97	FOODEEG_Images\0905.jpg	YN	Right	No	2.29258320003282	0	662114	253
1295.474609375	0	decision	response	3	179	59	foodImage.97	FOODEEG_Images\0905.jpg	YN	Right	No	2.29258320003282	0	663284	235
1296.517578125	1	decision	trialStart	3	180	60	foodImage.94	FOODEEG_Images\0902.jpg	NY	Right	Yes	0.874852999986615	0	663818	251
1297.5546875	2	decision	foodImageDisplay	3	180	60	foodImage.94	FOODEEG_Images\0902.jpg	NY	Right	Yes	0.874852999986615	0	664349	252
1299.6171875	0.874852999986615	decision	choicePhaseStart	3	180	60	foodImage.94	FOODEEG_Images\0902.jpg	NY	Right	Yes	0.874852999986615	0	665405	253
1300.482421875	0	decision	response	3	180	60	foodImage.94	FOODEEG_Images\0902.jpg	NY	Right	Yes	0.874852999986615	0	665848	235
1302.5234375	13.009765625	n/a	blockEnd	n/a	n/a	n/a	n/a	n/a	n/a	n/a	n/a	n/a	n/a	666893	254
1315.533203125	2	n/a	blockStart	4	n/a	n/a	n/a	n/a	n/a	n/a	n/a	n/a	n/a	673554	250
1317.568359375	1	decision	trialStart	4	181	1	foodImage.62	FOODEEG_Images\0644.jpg	YN	Right	No	1.05384420003975	0	674596	251
1318.626953125	2	decision	foodImageDisplay	4	181	1	foodImage.62	FOODEEG_Images\0644.jpg	YN	Right	No	1.05384420003975	0	675138	252
1320.693359375	1.05384420003975	decision	choicePhaseStart	4	181	1	foodImage.62	FOODEEG_Images\0644.jpg	YN	Right	No	1.05384420003975	0	676196	253
1321.736328125	0	decision	response	4	181	1	foodImage.62	FOODEEG_Images\0644.jpg	YN	Right	No	1.05384420003975	0	676730	235
1322.78515625	1	health	trialStart	4	182	2	foodImage.33	FOODEEG_Images\0329.jpg	NY	Right	Yes	1.08900119998725	0	677267	251
1323.826171875	2	health	foodImageDisplay	4	182	2	foodImage.33	FOODEEG_Images\0329.jpg	NY	Right	Yes	1.08900119998725	0	677800	252
1325.888671875	1.08900119998725	health	choicePhaseStart	4	182	2	foodImage.33	FOODEEG_Images\0329.jpg	NY	Right	Yes	1.08900119998725	0	678856	253
1326.96875	0	health	response	4	182	2	foodImage.33	FOODEEG_Images\0329.jpg	NY	Right	Yes	1.08900119998725	0	679409	235
1328.013671875	1	decision	trialStart	4	183	3	foodImage.117	FOODEEG_Images\0925.jpg	YN	Left	Yes	1.07039389997954	0	679944	251
1329.052734375	2	decision	foodImageDisplay	4	183	3	foodImage.117	FOODEEG_Images\0925.jpg	YN	Left	Yes	1.07039389997954	0	680476	252
1331.115234375	1.07039389997954	decision	choicePhaseStart	4	183	3	foodImage.117	FOODEEG_Images\0925.jpg	YN	Left	Yes	1.07039389997954	0	681532	253
1332.177734375	0	decision	response	4	183	3	foodImage.117	FOODEEG_Images\0925.jpg	YN	Left	Yes	1.07039389997954	0	682076	234
1333.22265625	1	decision	trialStart	4	184	4	foodImage.37	FOODEEG_Images\0359.jpg	YN	Left	Yes	0.934320999949705	0	682611	251
1334.263671875	2	decision	foodImageDisplay	4	184	4	foodImage.37	FOODEEG_Images\0359.jpg	YN	Left	Yes	0.934320999949705	0	683144	252
1336.33203125	0.934320999949705	decision	choicePhaseStart	4	184	4	foodImage.37	FOODEEG_Images\0359.jpg	YN	Left	Yes	0.934320999949705	0	684203	253
1337.2578125	0	decision	response	4	184	4	foodImage.37	FOODEEG_Images\0359.jpg	YN	Left	Yes	0.934320999949705	0	684677	234
1338.298828125	1	decision	trialStart	4	185	5	foodImage.28	FOODEEG_Images\0273.jpg	NY	Left	No	0.959744499996305	0	685210	251
1339.33984375	2	decision	foodImageDisplay	4	185	5	foodImage.28	FOODEEG_Images\0273.jpg	NY	Left	No	0.959744499996305	0	685743	252
1341.40234375	0.959744499996305	decision	choicePhaseStart	4	185	5	foodImage.28	FOODEEG_Images\0273.jpg	NY	Left	No	0.959744499996305	0	686799	253
1342.353515625	0	decision	response	4	185	5	foodImage.28	FOODEEG_Images\0273.jpg	NY	Left	No	0.959744499996305	0	687286	234
1343.39453125	1	health	trialStart	4	186	6	foodImage.69	FOODEEG_Images\0693.jpg	NY	Right	Yes	1.19368320005015	0	687819	251
1344.4375	2	health	foodImageDisplay	4	186	6	foodImage.69	FOODEEG_Images\0693.jpg	NY	Right	Yes	1.19368320005015	0	688353	252
1346.50390625	1.19368320005015	health	choicePhaseStart	4	186	6	foodImage.69	FOODEEG_Images\0693.jpg	NY	Right	Yes	1.19368320005015	0	689411	253
1347.6875	0	health	response	4	186	6	foodImage.69	FOODEEG_Images\0693.jpg	NY	Right	Yes	1.19368320005015	0	690017	235
1348.732421875	1	decision	trialStart	4	187	7	foodImage.53	FOODEEG_Images\0547.jpg	YN	Left	Yes	1.02819320000708	0	690552	251
1349.7890625	2	decision	foodImageDisplay	4	187	7	foodImage.53	FOODEEG_Images\0547.jpg	YN	Left	Yes	1.02819320000708	0	691093	252
1351.8515625	1.02819320000708	decision	choicePhaseStart	4	187	7	foodImage.53	FOODEEG_Images\0547.jpg	YN	Left	Yes	1.02819320000708	0	692149	253
1352.873046875	0	decision	response	4	187	7	foodImage.53	FOODEEG_Images\0547.jpg	YN	Left	Yes	1.02819320000708	0	692672	234
1353.9140625	1	taste	trialStart	4	188	8	foodImage.98	FOODEEG_Images\0906.jpg	YN	Right	No	1.00361710001016	0	693205	251
1354.958984375	2	taste	foodImageDisplay	4	188	8	foodImage.98	FOODEEG_Images\0906.jpg	YN	Right	No	1.00361710001016	0	693740	252
1357.021484375	1.00361710001016	taste	choicePhaseStart	4	188	8	foodImage.98	FOODEEG_Images\0906.jpg	YN	Right	No	1.00361710001016	0	694796	253
1358.015625	0	taste	response	4	188	8	foodImage.98	FOODEEG_Images\0906.jpg	YN	Right	No	1.00361710001016	0	695305	235
1359.08203125	1	taste	trialStart	4	189	9	foodImage.59	FOODEEG_Images\0607.jpg	YN	Left	Yes	0.739022699999623	0	695851	251
1360.12890625	2	taste	foodImageDisplay	4	189	9	foodImage.59	FOODEEG_Images\0607.jpg	YN	Left	Yes	0.739022699999623	0	696387	252
1362.19140625	0.739022699999623	taste	choicePhaseStart	4	189	9	foodImage.59	FOODEEG_Images\0607.jpg	YN	Left	Yes	0.739022699999623	0	697443	253
1362.919921875	0	taste	response	4	189	9	foodImage.59	FOODEEG_Images\0607.jpg	YN	Left	Yes	0.739022699999623	0	697816	234
1363.97265625	1	taste	trialStart	4	190	10	foodImage.100	FOODEEG_Images\0908.jpg	NY	Left	No	0.750485899974592	0	698355	251
1365.01171875	2	taste	foodImageDisplay	4	190	10	foodImage.100	FOODEEG_Images\0908.jpg	NY	Left	No	0.750485899974592	0	698887	252
1367.07421875	0.750485899974592	taste	choicePhaseStart	4	190	10	foodImage.100	FOODEEG_Images\0908.jpg	NY	Left	No	0.750485899974592	0	699943	253
1367.81640625	0	taste	response	4	190	10	foodImage.100	FOODEEG_Images\0908.jpg	NY	Left	No	0.750485899974592	0	700323	234
1368.861328125	1	health	trialStart	4	191	11	foodImage.54	FOODEEG_Images\0560.jpg	YN	Left	Yes	1.6853191999835	0	700858	251
1369.91796875	2	health	foodImageDisplay	4	191	11	foodImage.54	FOODEEG_Images\0560.jpg	YN	Left	Yes	1.6853191999835	0	701399	252
1371.98046875	1.6853191999835	health	choicePhaseStart	4	191	11	foodImage.54	FOODEEG_Images\0560.jpg	YN	Left	Yes	1.6853191999835	0	702455	253
1373.654296875	0	health	response	4	191	11	foodImage.54	FOODEEG_Images\0560.jpg	YN	Left	Yes	1.6853191999835	0	703312	234
1374.6953125	1	taste	trialStart	4	192	12	foodImage.82	FOODEEG_Images\0805.jpg	YN	Right	No	1.17119999998249	0	703845	251
1375.75	2	taste	foodImageDisplay	4	192	12	foodImage.82	FOODEEG_Images\0805.jpg	YN	Right	No	1.17119999998249	0	704385	252
1377.8125	1.17119999998249	taste	choicePhaseStart	4	192	12	foodImage.82	FOODEEG_Images\0805.jpg	YN	Right	No	1.17119999998249	0	705441	253
1378.974609375	0	taste	response	4	192	12	foodImage.82	FOODEEG_Images\0805.jpg	YN	Right	No	1.17119999998249	0	706036	235
1380.021484375	1	taste	trialStart	4	193	13	foodImage.65	FOODEEG_Images\0658.jpg	YN	Right	No	2.28146240004571	0	706572	251
1381.0625	2	taste	foodImageDisplay	4	193	13	foodImage.65	FOODEEG_Images\0658.jpg	YN	Right	No	2.28146240004571	0	707105	252
1383.125	2.28146240004571	taste	choicePhaseStart	4	193	13	foodImage.65	FOODEEG_Images\0658.jpg	YN	Right	No	2.28146240004571	0	708161	253
1385.3984375	0	taste	response	4	193	13	foodImage.65	FOODEEG_Images\0658.jpg	YN	Right	No	2.28146240004571	0	709325	235
1386.44140625	1	decision	trialStart	4	194	14	foodImage.120	FOODEEG_Images\0928.jpg	NY	Left	No	2.0153879999998	0	709859	251
1387.48046875	2	decision	foodImageDisplay	4	194	14	foodImage.120	FOODEEG_Images\0928.jpg	NY	Left	No	2.0153879999998	0	710391	252
1389.54296875	2.0153879999998	decision	choicePhaseStart	4	194	14	foodImage.120	FOODEEG_Images\0928.jpg	NY	Left	No	2.0153879999998	0	711447	253
1391.55078125	0	decision	response	4	194	14	foodImage.120	FOODEEG_Images\0928.jpg	NY	Left	No	2.0153879999998	0	712475	234
1392.59765625	1	health	trialStart	4	195	15	foodImage.97	FOODEEG_Images\0905.jpg	YN	Right	No	0.875759900023695	0	713011	251
