onset	duration	trial_type	event_type	block	trial_total	trial_in_block	food_image_code	food_image_path	button_position	resp_position	resp_choice	choice_rt	resp_too_slow	sample	trigger
188.34765625	2	n/a	blockStart	1	n/a	n/a	n/a	n/a	n/a	n/a	n/a	n/a	n/a	96435	250
190.384765625	1	decision	trialStart	1	1	1	foodImage.19	FOODEEG_Images\0225.jpg	YN	Left	Yes	1.18985760000032	0	97478	251
191.4296875	2	decision	foodImageDisplay	1	1	1	foodImage.19	FOODEEG_Images\0225.jpg	YN	Left	Yes	1.18985760000032	0	98013	252
193.49609375	1.18985760000032	decision	choicePhaseStart	1	1	1	foodImage.19	FOODEEG_Images\0225.jpg	YN	Left	Yes	1.18985760000032	0	99071	253
194.677734375	0	decision	response	1	1	1	foodImage.19	FOODEEG_Images\0225.jpg	YN	Left	Yes	1.18985760000032	0	99676	234
195.76953125	1	decision	trialStart	1	2	2	foodImage.111	FOODEEG_Images\0919.jpg	NY	Left	No	1.69074600000022	0	100235	251
196.810546875	2	decision	foodImageDisplay	1	2	2	foodImage.111	FOODEEG_Images\0919.jpg	NY	Left	No	1.69074600000022	0	100768	252
198.875	1.69074600000022	decision	choicePhaseStart	1	2	2	foodImage.111	FOODEEG_Images\0919.jpg	NY	Left	No	1.69074600000022	0	101825	253
200.55859375	0	decision	response	1	2	2	foodImage.111	FOODEEG_Images\0919.jpg	NY	Left	No	1.69074600000022	0	102687	234
201.609375	1	health	trialStart	1	3	3	foodImage.47	FOODEEG_Images\0488.jpg	YN	Right	No	1.97696050000013	0	103225	251
202.654296875	2	health	foodImageDisplay	1	3	3	foodImage.47	FOODEEG_Images\0488.jpg	YN	Right	No	1.97696050000013	0	103760	252
204.716796875	1.97696050000013	health	choicePhaseStart	1	3	3	foodImage.47	FOODEEG_Images\0488.jpg	YN	Right	No	1.97696050000013	0	104816	253
206.685546875	0	health	response	1	3	3	foodImage.47	FOODEEG_Images\0488.jpg	YN	Right	No	1.97696050000013	0	105824	235
207.73046875	1	taste	trialStart	1	4	4	foodImage.5	FOODEEG_Images\0107.jpg	YN	Left	Yes	0.713103599999158	0	106359	251
208.787109375	2	taste	foodImageDisplay	1	4	4	foodImage.5	FOODEEG_Images\0107.jpg	YN	Left	Yes	0.713103599999158	0	106900	252
210.853515625	0.713103599999158	taste	choicePhaseStart	1	4	4	foodImage.5	FOODEEG_Images\0107.jpg	YN	Left	Yes	0.713103599999158	0	107958	253
211.556640625	0	taste	response	1	4	4	foodImage.5	FOODEEG_Images\0107.jpg	YN	Left	Yes	0.713103599999158	0	108318	234
212.6015625	1	taste	trialStart	1	5	5	foodImage.46	FOODEEG_Images\0479.jpg	YN	Left	Yes	0.912517500000831	0	108853	251
213.662109375	2	taste	foodImageDisplay	1	5	5	foodImage.46	FOODEEG_Images\0479.jpg	YN	Left	Yes	0.912517500000831	0	109396	252
215.7265625	0.912517500000831	taste	choicePhaseStart	1	5	5	foodImage.46	FOODEEG_Images\0479.jpg	YN	Left	Yes	0.912517500000831	0	110453	253
216.62890625	0	taste	response	1	5	5	foodImage.46	FOODEEG_Images\0479.jpg	YN	Left	Yes	0.912517500000831	0	110915	234
217.6796875	1	taste	trialStart	1	6	6	foodImage.68	FOODEEG_Images\0685.jpg	YN	Left	Yes	0.886551699999472	0	111453	251
218.78125	2	taste	foodImageDisplay	1	6	6	foodImage.68	FOODEEG_Images\0685.jpg	YN	Left	Yes	0.886551699999472	0	112017	252
220.845703125	0.886551699999472	taste	choicePhaseStart	1	6	6	foodImage.68	FOODEEG_Images\0685.jpg	YN	Left	Yes	0.886551699999472	0	113074	253
221.7265625	0	taste	response	1	6	6	foodImage.68	FOODEEG_Images\0685.jpg	YN	Left	Yes	0.886551699999472	0	113525	234
222.76953125	1	decision	trialStart	1	7	7	foodImage.102	FOODEEG_Images\0910.jpg	NY	Left	No	1.10718359999919	0	114059	251
223.810546875	2	decision	foodImageDisplay	1	7	7	foodImage.102	FOODEEG_Images\0910.jpg	NY	Left	No	1.10718359999919	0	114592	252
225.873046875	1.10718359999919	decision	choicePhaseStart	1	7	7	foodImage.102	FOODEEG_Images\0910.jpg	NY	Left	No	1.10718359999919	0	115648	253
226.974609375	0	decision	response	1	7	7	foodImage.102	FOODEEG_Images\0910.jpg	NY	Left	No	1.10718359999919	0	116212	234
228.017578125	1	taste	trialStart	1	8	8	foodImage.7	FOODEEG_Images\0116.jpg	NY	Right	Yes	0.810406500000681	0	116746	251
229.060546875	2	taste	foodImageDisplay	1	8	8	foodImage.7	FOODEEG_Images\0116.jpg	NY	Right	Yes	0.810406500000681	0	117280	252
231.123046875	0.810406500000681	taste	choicePhaseStart	1	8	8	foodImage.7	FOODEEG_Images\0116.jpg	NY	Right	Yes	0.810406500000681	0	118336	253
231.923828125	0	taste	response	1	8	8	foodImage.7	FOODEEG_Images\0116.jpg	NY	Right	Yes	0.810406500000681	0	118746	235
232.96875	1	decision	trialStart	1	9	9	foodImage.80	FOODEEG_Images\0796.jpg	NY	Right	Yes	0.697995699998501	0	119281	251
234.05078125	2	decision	foodImageDisplay	1	9	9	foodImage.80	FOODEEG_Images\0796.jpg	NY	Right	Yes	0.697995699998501	0	119835	252
236.11328125	0.697995699998501	decision	choicePhaseStart	1	9	9	foodImage.80	FOODEEG_Images\0796.jpg	NY	Right	Yes	0.697995699998501	0	120891	253
236.8046875	0	decision	response	1	9	9	foodImage.80	FOODEEG_Images\0796.jpg	NY	Right	Yes	0.697995699998501	0	121245	235
237.845703125	1	decision	trialStart	1	10	10	foodImage.67	FOODEEG_Images\0679.jpg	NY	Right	Yes	1.94487419999859	0	121778	251
238.90234375	2	decision	foodImageDisplay	1	10	10	foodImage.67	FOODEEG_Images\0679.jpg	NY	Right	Yes	1.94487419999859	0	122319	252
240.966796875	1.94487419999859	decision	choicePhaseStart	1	10	10	foodImage.67	FOODEEG_Images\0679.jpg	NY	Right	Yes	1.94487419999859	0	123376	253
242.908203125	0	decision	response	1	10	10	foodImage.67	FOODEEG_Images\0679.jpg	NY	Right	Yes	1.94487419999859	0	124370	235
243.953125	1	taste	trialStart	1	11	11	foodImage.37	FOODEEG_Images\0359.jpg	NY	Right	Yes	0.731029500000659	0	124905	251
244.994140625	2	taste	foodImageDisplay	1	11	11	foodImage.37	FOODEEG_Images\0359.jpg	NY	Right	Yes	0.731029500000659	0	125438	252
247.05859375	0.731029500000659	taste	choicePhaseStart	1	11	11	foodImage.37	FOODEEG_Images\0359.jpg	NY	Right	Yes	0.731029500000659	0	126495	253
247.78125	0	taste	response	1	11	11	foodImage.37	FOODEEG_Images\0359.jpg	NY	Right	Yes	0.731029500000659	0	126865	235
248.822265625	1	health	trialStart	1	12	12	foodImage.38	FOODEEG_Images\0365.jpg	NY	Right	Yes	0.797901899999488	0	127398	251
249.861328125	2	health	foodImageDisplay	1	12	12	foodImage.38	FOODEEG_Images\0365.jpg	NY	Right	Yes	0.797901899999488	0	127930	252
251.923828125	0.797901899999488	health	choicePhaseStart	1	12	12	foodImage.38	FOODEEG_Images\0365.jpg	NY	Right	Yes	0.797901899999488	0	128986	253
252.716796875	0	health	response	1	12	12	foodImage.38	FOODEEG_Images\0365.jpg	NY	Right	Yes	0.797901899999488	0	129392	235
253.755859375	1	decision	trialStart	1	13	13	foodImage.29	FOODEEG_Images\0278.jpg	YN	Left	Yes	1.00362740000128	0	129924	251
254.798828125	2	decision	foodImageDisplay	1	13	13	foodImage.29	FOODEEG_Images\0278.jpg	YN	Left	Yes	1.00362740000128	0	130458	252
256.86328125	1.00362740000128	decision	choicePhaseStart	1	13	13	foodImage.29	FOODEEG_Images\0278.jpg	YN	Left	Yes	1.00362740000128	0	131515	253
257.859375	0	decision	response	1	13	13	foodImage.29	FOODEEG_Images\0278.jpg	YN	Left	Yes	1.00362740000128	0	132025	234
258.900390625	1	health	trialStart	1	14	14	foodImage.98	FOODEEG_Images\0906.jpg	NY	Right	Yes	0.754634799999621	0	132558	251
259.939453125	2	health	foodImageDisplay	1	14	14	foodImage.98	FOODEEG_Images\0906.jpg	NY	Right	Yes	0.754634799999621	0	133090	252
262.001953125	0.754634799999621	health	choicePhaseStart	1	14	14	foodImage.98	FOODEEG_Images\0906.jpg	NY	Right	Yes	0.754634799999621	0	134146	253
262.748046875	0	health	response	1	14	14	foodImage.98	FOODEEG_Images\0906.jpg	NY	Right	Yes	0.754634799999621	0	134528	235
263.7890625	1	decision	trialStart	1	15	15	foodImage.26	FOODEEG_Images\0262.jpg	NY	Left	No	0.961197399999946	0	135061	251
264.830078125	2	decision	foodImageDisplay	1	15	15	foodImage.26	FOODEEG_Images\0262.jpg	NY	Left	No	0.961197399999946	0	135594	252
266.892578125	0.961197399999946	decision	choicePhaseStart	1	15	15	foodImage.26	FOODEEG_Images\0262.jpg	NY	Left	No	0.961197399999946	0	136650	253
267.84375	0	decision	response	1	15	15	foodImage.26	FOODEEG_Images\0262.jpg	NY	Left	No	0.961197399999946	0	137137	234
268.88671875	1	decision	trialStart	1	16	16	foodImage.35	FOODEEG_Images\0350.jpg	NY	Right	Yes	0.622343899998668	0	137671	251
269.92578125	2	decision	foodImageDisplay	1	16	16	foodImage.35	FOODEEG_Images\0350.jpg	NY	Right	Yes	0.622343899998668	0	138203	252
271.98828125	0.622343899998668	decision	choicePhaseStart	1	16	16	foodImage.35	FOODEEG_Images\0350.jpg	NY	Right	Yes	0.622343899998668	0	139259	253
272.603515625	0	decision	response	1	16	16	foodImage.35	FOODEEG_Images\0350.jpg	NY	Right	Yes	0.622343899998668	0	139574	235
273.646484375	1	health	trialStart	1	17	17	foodImage.118	FOODEEG_Images\0926.jpg	YN	Right	No	1.93408030000137	0	140108	251
274.68359375	2	health	foodImageDisplay	1	17	17	foodImage.118	FOODEEG_Images\0926.jpg	YN	Right	No	1.93408030000137	0	140639	252
276.748046875	1.93408030000137	health	choicePhaseStart	1	17	17	foodImage.118	FOODEEG_Images\0926.jpg	YN	Right	No	1.93408030000137	0	141696	253
278.673828125	0	health	response	1	17	17	foodImage.118	FOODEEG_Images\0926.jpg	YN	Right	No	1.93408030000137	0	142682	235
279.71875	1	health	trialStart	1	18	18	foodImage.99	FOODEEG_Images\0907.jpg	NY	Left	No	2.06465539999954	0	143217	251
280.755859375	2	health	foodImageDisplay	1	18	18	foodImage.99	FOODEEG_Images\0907.jpg	NY	Left	No	2.06465539999954	0	143748	252
282.818359375	2.06465539999954	health	choicePhaseStart	1	18	18	foodImage.99	FOODEEG_Images\0907.jpg	NY	Left	No	2.06465539999954	0	144804	253
284.875	0	health	response	1	18	18	foodImage.99	FOODEEG_Images\0907.jpg	NY	Left	No	2.06465539999954	0	145857	234
285.921875	1	decision	trialStart	1	19	19	foodImage.91	FOODEEG_Images\0896.jpg	YN	Left	Yes	0.919223599999896	0	146393	251
286.98046875	2	decision	foodImageDisplay	1	19	19	foodImage.91	FOODEEG_Images\0896.jpg	YN	Left	Yes	0.919223599999896	0	146935	252
289.041015625	0.919223599999896	decision	choicePhaseStart	1	19	19	foodImage.91	FOODEEG_Images\0896.jpg	YN	Left	Yes	0.919223599999896	0	147990	253
289.955078125	0	decision	response	1	19	19	foodImage.91	FOODEEG_Images\0896.jpg	YN	Left	Yes	0.919223599999896	0	148458	234
290.994140625	1	decision	trialStart	1	20	20	foodImage.8	FOODEEG_Images\0136.jpg	YN	Left	Yes	0.601982700000008	0	148990	251
292.03515625	2	decision	foodImageDisplay	1	20	20	foodImage.8	FOODEEG_Images\0136.jpg	YN	Left	Yes	0.601982700000008	0	149523	252
294.10546875	0.601982700000008	decision	choicePhaseStart	1	20	20	foodImage.8	FOODEEG_Images\0136.jpg	YN	Left	Yes	0.601982700000008	0	150583	253
294.697265625	0	decision	response	1	20	20	foodImage.8	FOODEEG_Images\0136.jpg	YN	Left	Yes	0.601982700000008	0	150886	234
295.73828125	1	health	trialStart	1	21	21	foodImage.81	FOODEEG_Images\0797.jpg	YN	Left	Yes	0.881797799998822	0	151419	251
296.79296875	2	health	foodImageDisplay	1	21	21	foodImage.81	FOODEEG_Images\0797.jpg	YN	Left	Yes	0.881797799998822	0	151959	252
298.857421875	0.881797799998822	health	choicePhaseStart	1	21	21	foodImage.81	FOODEEG_Images\0797.jpg	YN	Left	Yes	0.881797799998822	0	153016	253
299.73046875	0	health	response	1	21	21	foodImage.81	FOODEEG_Images\0797.jpg	YN	Left	Yes	0.881797799998822	0	153463	234
300.771484375	1	taste	trialStart	1	22	22	foodImage.95	FOODEEG_Images\0903.jpg	YN	Right	No	1.01129109999965	0	153996	251
301.80859375	2	taste	foodImageDisplay	1	22	22	foodImage.95	FOODEEG_Images\0903.jpg	YN	Right	No	1.01129109999965	0	154527	252
303.87109375	1.01129109999965	taste	choicePhaseStart	1	22	22	foodImage.95	FOODEEG_Images\0903.jpg	YN	Right	No	1.01129109999965	0	155583	253
304.873046875	0	taste	response	1	22	22	foodImage.95	FOODEEG_Images\0903.jpg	YN	Right	No	1.01129109999965	0	156096	235
305.919921875	1	health	trialStart	1	23	23	foodImage.29	FOODEEG_Images\0278.jpg	NY	Left	No	1.74519549999968	0	156632	251
306.962890625	2	health	foodImageDisplay	1	23	23	foodImage.29	FOODEEG_Images\0278.jpg	NY	Left	No	1.74519549999968	0	157166	252
309.025390625	1.74519549999968	health	choicePhaseStart	1	23	23	foodImage.29	FOODEEG_Images\0278.jpg	NY	Left	No	1.74519549999968	0	158222	253
310.76171875	0	health	response	1	23	23	foodImage.29	FOODEEG_Images\0278.jpg	NY	Left	No	1.74519549999968	0	159111	234
311.802734375	1	health	trialStart	1	24	24	foodImage.109	FOODEEG_Images\0917.jpg	NY	Right	Yes	0.740100799999709	0	159644	251
312.83984375	2	health	foodImageDisplay	1	24	24	foodImage.109	FOODEEG_Images\0917.jpg	NY	Right	Yes	0.740100799999709	0	160175	252
314.90234375	0.740100799999709	health	choicePhaseStart	1	24	24	foodImage.109	FOODEEG_Images\0917.jpg	NY	Right	Yes	0.740100799999709	0	161231	253
315.6328125	0	health	response	1	24	24	foodImage.109	FOODEEG_Images\0917.jpg	NY	Right	Yes	0.740100799999709	0	161605	235
316.67578125	1	taste	trialStart	1	25	25	foodImage.41	FOODEEG_Images\0409.jpg	NY	Right	Yes	1.35400750000008	0	162139	251
317.72265625	2	taste	foodImageDisplay	1	25	25	foodImage.41	FOODEEG_Images\0409.jpg	NY	Right	Yes	1.35400750000008	0	162675	252
319.78515625	1.35400750000008	taste	choicePhaseStart	1	25	25	foodImage.41	FOODEEG_Images\0409.jpg	NY	Right	Yes	1.35400750000008	0	163731	253
321.12890625	0	taste	response	1	25	25	foodImage.41	FOODEEG_Images\0409.jpg	NY	Right	Yes	1.35400750000008	0	164419	235
322.171875	1	health	trialStart	1	26	26	foodImage.28	FOODEEG_Images\0273.jpg	NY	Right	Yes	1.41253330000109	0	164953	251
323.21484375	2	health	foodImageDisplay	1	26	26	foodImage.28	FOODEEG_Images\0273.jpg	NY	Right	Yes	1.41253330000109	0	165487	252
325.27734375	1.41253330000109	health	choicePhaseStart	1	26	26	foodImage.28	FOODEEG_Images\0273.jpg	NY	Right	Yes	1.41253330000109	0	166543	253
326.681640625	0	health	response	1	26	26	foodImage.28	FOODEEG_Images\0273.jpg	NY	Right	Yes	1.41253330000109	0	167262	235
327.724609375	1	health	trialStart	1	27	27	foodImage.79	FOODEEG_Images\0794.jpg	NY	Right	Yes	0.661223799999789	0	167796	251
328.765625	2	health	foodImageDisplay	1	27	27	foodImage.79	FOODEEG_Images\0794.jpg	NY	Right	Yes	0.661223799999789	0	168329	252
330.828125	0.661223799999789	health	choicePhaseStart	1	27	27	foodImage.79	FOODEEG_Images\0794.jpg	NY	Right	Yes	0.661223799999789	0	169385	253
331.48046875	0	health	response	1	27	27	foodImage.79	FOODEEG_Images\0794.jpg	NY	Right	Yes	0.661223799999789	0	169719	235
332.521484375	1	taste	trialStart	1	28	28	foodImage.112	FOODEEG_Images\0920.jpg	YN	Left	Yes	1.18684220000068	0	170252	251
333.576171875	2	taste	foodImageDisplay	1	28	28	foodImage.112	FOODEEG_Images\0920.jpg	YN	Left	Yes	1.18684220000068	0	170792	252
335.638671875	1.18684220000068	taste	choicePhaseStart	1	28	28	foodImage.112	FOODEEG_Images\0920.jpg	YN	Left	Yes	1.18684220000068	0	171848	253
336.81640625	0	taste	response	1	28	28	foodImage.112	FOODEEG_Images\0920.jpg	YN	Left	Yes	1.18684220000068	0	172451	234
337.859375	1	taste	trialStart	1	29	29	foodImage.2	FOODEEG_Images\0028.jpg	NY	Right	Yes	1.18205030000172	0	172985	251
338.90234375	2	taste	foodImageDisplay	1	29	29	foodImage.2	FOODEEG_Images\0028.jpg	NY	Right	Yes	1.18205030000172	0	173519	252
340.962890625	1.18205030000172	taste	choicePhaseStart	1	29	29	foodImage.2	FOODEEG_Images\0028.jpg	NY	Right	Yes	1.18205030000172	0	174574	253
342.13671875	0	taste	response	1	29	29	foodImage.2	FOODEEG_Images\0028.jpg	NY	Right	Yes	1.18205030000172	0	175175	235
343.1796875	1	decision	trialStart	1	30	30	foodImage.7	FOODEEG_Images\0116.jpg	YN	Left	Yes	0.877555999999458	0	175709	251
344.220703125	2	decision	foodImageDisplay	1	30	30	foodImage.7	FOODEEG_Images\0116.jpg	YN	Left	Yes	0.877555999999458	0	176242	252
346.2890625	0.877555999999458	decision	choicePhaseStart	1	30	30	foodImage.7	FOODEEG_Images\0116.jpg	YN	Left	Yes	0.877555999999458	0	177301	253
347.16015625	0	decision	response	1	30	30	foodImage.7	FOODEEG_Images\0116.jpg	YN	Left	Yes	0.877555999999458	0	177747	234
348.201171875	1	decision	trialStart	1	31	31	foodImage.43	FOODEEG_Images\0445.jpg	NY	Right	Yes	1.50135050000063	0	178280	251
349.27734375	2	decision	foodImageDisplay	1	31	31	foodImage.43	FOODEEG_Images\0445.jpg	NY	Right	Yes	1.50135050000063	0	178831	252
351.33984375	1.50135050000063	decision	choicePhaseStart	1	31	31	foodImage.43	FOODEEG_Images\0445.jpg	NY	Right	Yes	1.50135050000063	0	179887	253
352.83203125	0	decision	response	1	31	31	foodImage.43	FOODEEG_Images\0445.jpg	NY	Right	Yes	1.50135050000063	0	180651	235
353.875	1	taste	trialStart	1	32	32	foodImage.22	FOODEEG_Images\0236.jpg	NY	Right	Yes	0.831120599999849	0	181185	251
354.9140625	2	taste	foodImageDisplay	1	32	32	foodImage.22	FOODEEG_Images\0236.jpg	NY	Right	Yes	0.831120599999849	0	181717	252
356.9765625	0.831120599999849	taste	choicePhaseStart	1	32	32	foodImage.22	FOODEEG_Images\0236.jpg	NY	Right	Yes	0.831120599999849	0	182773	253
357.798828125	0	taste	response	1	32	32	foodImage.22	FOODEEG_Images\0236.jpg	NY	Right	Yes	0.831120599999849	0	183194	235
358.841796875	1	decision	trialStart	1	33	33	foodImage.59	FOODEEG_Images\0607.jpg	YN	Right	No	1.40372329999991	0	183728	251
359.88671875	2	decision	foodImageDisplay	1	33	33	foodImage.59	FOODEEG_Images\0607.jpg	YN	Right	No	1.40372329999991	0	184263	252
361.94921875	1.40372329999991	decision	choicePhaseStart	1	33	33	foodImage.59	FOODEEG_Images\0607.jpg	YN	Right	No	1.40372329999991	0	185319	253
363.34375	0	decision	response	1	33	33	foodImage.59	FOODEEG_Images\0607.jpg	YN	Right	No	1.40372329999991	0	186033	235
364.384765625	1	decision	trialStart	1	34	34	foodImage.47	FOODEEG_Images\0488.jpg	YN	Left	Yes	0.660332100000232	0	186566	251
365.42578125	2	decision	foodImageDisplay	1	34	34	foodImage.47	FOODEEG_Images\0488.jpg	YN	Left	Yes	0.660332100000232	0	187099	252
367.48828125	0.660332100000232	decision	choicePhaseStart	1	34	34	foodImage.47	FOODEEG_Images\0488.jpg	YN	Left	Yes	0.660332100000232	0	188155	253
368.142578125	0	decision	response	1	34	34	foodImage.47	FOODEEG_Images\0488.jpg	YN	Left	Yes	0.660332100000232	0	188490	234
369.185546875	1	health	trialStart	1	35	35	foodImage.21	FOODEEG_Images\0234.jpg	YN	Left	Yes	0.695309400000042	0	189024	251
370.2421875	2	health	foodImageDisplay	1	35	35	foodImage.21	FOODEEG_Images\0234.jpg	YN	Left	Yes	0.695309400000042	0	189565	252
372.3046875	0.695309400000042	health	choicePhaseStart	1	35	35	foodImage.21	FOODEEG_Images\0234.jpg	YN	Left	Yes	0.695309400000042	0	190621	253
372.990234375	0	health	response	1	35	35	foodImage.21	FOODEEG_Images\0234.jpg	YN	Left	Yes	0.695309400000042	0	190972	234
374.033203125	1	decision	trialStart	1	36	36	foodImage.84	FOODEEG_Images\0830.jpg	NY	Right	Yes	1.07022900000084	0	191506	251
375.08984375	2	decision	foodImageDisplay	1	36	36	foodImage.84	FOODEEG_Images\0830.jpg	NY	Right	Yes	1.07022900000084	0	192047	252
377.154296875	1.07022900000084	decision	choicePhaseStart	1	36	36	foodImage.84	FOODEEG_Images\0830.jpg	NY	Right	Yes	1.07022900000084	0	193104	253
378.21484375	0	decision	response	1	36	36	foodImage.84	FOODEEG_Images\0830.jpg	NY	Right	Yes	1.07022900000084	0	193647	235
379.2578125	1	health	trialStart	1	37	37	foodImage.108	FOODEEG_Images\0916.jpg	YN	Right	No	1.69023390000075	0	194181	251
380.294921875	2	health	foodImageDisplay	1	37	37	foodImage.108	FOODEEG_Images\0916.jpg	YN	Right	No	1.69023390000075	0	194712	252
382.357421875	1.69023390000075	health	choicePhaseStart	1	37	37	foodImage.108	FOODEEG_Images\0916.jpg	YN	Right	No	1.69023390000075	0	195768	253
384.0390625	0	health	response	1	37	37	foodImage.108	FOODEEG_Images\0916.jpg	YN	Right	No	1.69023390000075	0	196629	235
385.08203125	1	taste	trialStart	1	38	38	foodImage.25	FOODEEG_Images\0261.jpg	NY	Left	No	1.46660069999962	0	197163	251
386.142578125	2	taste	foodImageDisplay	1	38	38	foodImage.25	FOODEEG_Images\0261.jpg	NY	Left	No	1.46660069999962	0	197706	252
388.205078125	1.46660069999962	taste	choicePhaseStart	1	38	38	foodImage.25	FOODEEG_Images\0261.jpg	NY	Left	No	1.46660069999962	0	198762	253
389.662109375	0	taste	response	1	38	38	foodImage.25	FOODEEG_Images\0261.jpg	NY	Left	No	1.46660069999962	0	199508	234
390.705078125	1	decision	trialStart	1	39	39	foodImage.107	FOODEEG_Images\0915.jpg	NY	Left	No	1.06636419999995	0	200042	251
391.74609375	2	decision	foodImageDisplay	1	39	39	foodImage.107	FOODEEG_Images\0915.jpg	NY	Left	No	1.06636419999995	0	200575	252
393.814453125	1.06636419999995	decision	choicePhaseStart	1	39	39	foodImage.107	FOODEEG_Images\0915.jpg	NY	Left	No	1.06636419999995	0	201634	253
394.87109375	0	decision	response	1	39	39	foodImage.107	FOODEEG_Images\0915.jpg	NY	Left	No	1.06636419999995	0	202175	234
395.9140625	1	health	trialStart	1	40	40	foodImage.40	FOODEEG_Images\0373.jpg	NY	Right	Yes	0.78422590000082	0	202709	251
396.95703125	2	health	foodImageDisplay	1	40	40	foodImage.40	FOODEEG_Images\0373.jpg	NY	Right	Yes	0.78422590000082	0	203243	252
399.0234375	0.78422590000082	health	choicePhaseStart	1	40	40	foodImage.40	FOODEEG_Images\0373.jpg	NY	Right	Yes	0.78422590000082	0	204301	253
399.798828125	0	health	response	1	40	40	foodImage.40	FOODEEG_Images\0373.jpg	NY	Right	Yes	0.78422590000082	0	204698	235
400.841796875	1	decision	trialStart	1	41	41	foodImage.120	FOODEEG_Images\0928.jpg	YN	Left	Yes	1.26571589999912	0	205232	251
401.87890625	2	decision	foodImageDisplay	1	41	41	foodImage.120	FOODEEG_Images\0928.jpg	YN	Left	Yes	1.26571589999912	0	205763	252
403.94140625	1.26571589999912	decision	choicePhaseStart	1	41	41	foodImage.120	FOODEEG_Images\0928.jpg	YN	Left	Yes	1.26571589999912	0	206819	253
405.197265625	0	decision	response	1	41	41	foodImage.120	FOODEEG_Images\0928.jpg	YN	Left	Yes	1.26571589999912	0	207462	234
406.244140625	1	decision	trialStart	1	42	42	foodImage.60	FOODEEG_Images\0614.jpg	YN	Right	No	1.94500239999979	0	207998	251
407.302734375	2	decision	foodImageDisplay	1	42	42	foodImage.60	FOODEEG_Images\0614.jpg	YN	Right	No	1.94500239999979	0	208540	252
409.3671875	1.94500239999979	decision	choicePhaseStart	1	42	42	foodImage.60	FOODEEG_Images\0614.jpg	YN	Right	No	1.94500239999979	0	209597	253
411.30078125	0	decision	response	1	42	42	foodImage.60	FOODEEG_Images\0614.jpg	YN	Right	No	1.94500239999979	0	210587	235
412.34375	1	taste	trialStart	1	43	43	foodImage.39	FOODEEG_Images\0367.jpg	NY	Right	Yes	1.68315110000003	0	211121	251
413.3828125	2	taste	foodImageDisplay	1	43	43	foodImage.39	FOODEEG_Images\0367.jpg	NY	Right	Yes	1.68315110000003	0	211653	252
415.451171875	1.68315110000003	taste	choicePhaseStart	1	43	43	foodImage.39	FOODEEG_Images\0367.jpg	NY	Right	Yes	1.68315110000003	0	212712	253
417.125	0	taste	response	1	43	43	foodImage.39	FOODEEG_Images\0367.jpg	NY	Right	Yes	1.68315110000003	0	213569	235
418.166015625	1	taste	trialStart	1	44	44	foodImage.51	FOODEEG_Images\0536.jpg	YN	Left	Yes	2.00609840000106	0	214102	251
419.208984375	2	taste	foodImageDisplay	1	44	44	foodImage.51	FOODEEG_Images\0536.jpg	YN	Left	Yes	2.00609840000106	0	214636	252
421.271484375	2.00609840000106	taste	choicePhaseStart	1	44	44	foodImage.51	FOODEEG_Images\0536.jpg	YN	Left	Yes	2.00609840000106	0	215692	253
423.26953125	0	taste	response	1	44	44	foodImage.51	FOODEEG_Images\0536.jpg	YN	Left	Yes	2.00609840000106	0	216715	234
424.3125	1	health	trialStart	1	45	45	foodImage.24	FOODEEG_Images\0250.jpg	NY	Right	Yes	1.21124830000008	0	217249	251
425.353515625	2	health	foodImageDisplay	1	45	45	foodImage.24	FOODEEG_Images\0250.jpg	NY	Right	Yes	1.21124830000008	0	217782	252
427.416015625	1.21124830000008	health	choicePhaseStart	1	45	45	foodImage.24	FOODEEG_Images\0250.jpg	NY	Right	Yes	1.21124830000008	0	218838	253
428.62109375	0	health	response	1	45	45	foodImage.24	FOODEEG_Images\0250.jpg	NY	Right	Yes	1.21124830000008	0	219455	235
429.662109375	1	health	trialStart	1	46	46	foodImage.8	FOODEEG_Images\0136.jpg	YN	Right	No	0.912320800000089	0	219988	251
430.705078125	2	health	foodImageDisplay	1	46	46	foodImage.8	FOODEEG_Images\0136.jpg	YN	Right	No	0.912320800000089	0	220522	252
432.771484375	0.912320800000089	health	choicePhaseStart	1	46	46	foodImage.8	FOODEEG_Images\0136.jpg	YN	Right	No	0.912320800000089	0	221580	253
433.67578125	0	health	response	1	46	46	foodImage.8	FOODEEG_Images\0136.jpg	YN	Right	No	0.912320800000089	0	222043	235
434.71875	1	taste	trialStart	1	47	47	foodImage.10	FOODEEG_Images\0145.jpg	NY	Right	Yes	1.23323550000168	0	222577	251
435.7734375	2	taste	foodImageDisplay	1	47	47	foodImage.10	FOODEEG_Images\0145.jpg	NY	Right	Yes	1.23323550000168	0	223117	252
437.8359375	1.23323550000168	taste	choicePhaseStart	1	47	47	foodImage.10	FOODEEG_Images\0145.jpg	NY	Right	Yes	1.23323550000168	0	224173	253
439.060546875	0	taste	response	1	47	47	foodImage.10	FOODEEG_Images\0145.jpg	NY	Right	Yes	1.23323550000168	0	224800	235
440.103515625	1	taste	trialStart	1	48	48	foodImage.50	FOODEEG_Images\0529.jpg	NY	Right	Yes	1.09969760000058	0	225334	251
441.16015625	2	taste	foodImageDisplay	1	48	48	foodImage.50	FOODEEG_Images\0529.jpg	NY	Right	Yes	1.09969760000058	0	225875	252
443.22265625	1.09969760000058	taste	choicePhaseStart	1	48	48	foodImage.50	FOODEEG_Images\0529.jpg	NY	Right	Yes	1.09969760000058	0	226931	253
444.31640625	0	taste	response	1	48	48	foodImage.50	FOODEEG_Images\0529.jpg	NY	Right	Yes	1.09969760000058	0	227491	235
445.359375	1	taste	trialStart	1	49	49	foodImage.117	FOODEEG_Images\0925.jpg	NY	Right	Yes	0.993985999999495	0	228025	251
446.396484375	2	taste	foodImageDisplay	1	49	49	foodImage.117	FOODEEG_Images\0925.jpg	NY	Right	Yes	0.993985999999495	0	228556	252
448.458984375	0.993985999999495	taste	choicePhaseStart	1	49	49	foodImage.117	FOODEEG_Images\0925.jpg	NY	Right	Yes	0.993985999999495	0	229612	253
449.443359375	0	taste	response	1	49	49	foodImage.117	FOODEEG_Images\0925.jpg	NY	Right	Yes	0.993985999999495	0	230116	235
450.486328125	1	taste	trialStart	1	50	50	foodImage.76	FOODEEG_Images\0766.jpg	NY	Right	Yes	2.12458819999847	0	230650	251
451.529296875	2	taste	foodImageDisplay	1	50	50	foodImage.76	FOODEEG_Images\0766.jpg	NY	Right	Yes	2.12458819999847	0	231184	252
453.591796875	2.12458819999847	taste	choicePhaseStart	1	50	50	foodImage.76	FOODEEG_Images\0766.jpg	NY	Right	Yes	2.12458819999847	0	232240	253
455.70703125	0	taste	response	1	50	50	foodImage.76	FOODEEG_Images\0766.jpg	NY	Right	Yes	2.12458819999847	0	233323	235
456.75	1	health	trialStart	1	51	51	foodImage.43	FOODEEG_Images\0445.jpg	NY	Right	Yes	0.609399900000426	0	233857	251
457.8046875	2	health	foodImageDisplay	1	51	51	foodImage.43	FOODEEG_Images\0445.jpg	NY	Right	Yes	0.609399900000426	0	234397	252
459.8671875	0.609399900000426	health	choicePhaseStart	1	51	51	foodImage.43	FOODEEG_Images\0445.jpg	NY	Right	Yes	0.609399900000426	0	235453	253
460.466796875	0	health	response	1	51	51	foodImage.43	FOODEEG_Images\0445.jpg	NY	Right	Yes	0.609399900000426	0	235760	235
461.517578125	1	decision	trialStart	1	52	52	foodImage.6	FOODEEG_Images\0113.jpg	NY	Right	Yes	1.60918219999985	0	236298	251
462.58203125	2	decision	foodImageDisplay	1	52	52	foodImage.6	FOODEEG_Images\0113.jpg	NY	Right	Yes	1.60918219999985	0	236843	252
464.642578125	1.60918219999985	decision	choicePhaseStart	1	52	52	foodImage.6	FOODEEG_Images\0113.jpg	NY	Right	Yes	1.60918219999985	0	237898	253
466.244140625	0	decision	response	1	52	52	foodImage.6	FOODEEG_Images\0113.jpg	NY	Right	Yes	1.60918219999985	0	238718	235
467.28515625	1	taste	trialStart	1	53	53	foodImage.21	FOODEEG_Images\0234.jpg	YN	Left	Yes	1.7123761999992	0	239251	251
468.341796875	2	taste	foodImageDisplay	1	53	53	foodImage.21	FOODEEG_Images\0234.jpg	YN	Left	Yes	1.7123761999992	0	239792	252
470.404296875	1.7123761999992	taste	choicePhaseStart	1	53	53	foodImage.21	FOODEEG_Images\0234.jpg	YN	Left	Yes	1.7123761999992	0	240848	253
472.109375	0	taste	response	1	53	53	foodImage.21	FOODEEG_Images\0234.jpg	YN	Left	Yes	1.7123761999992	0	241721	234
473.150390625	1	health	trialStart	1	54	54	foodImage.30	FOODEEG_Images\0282.jpg	NY	Right	Yes	1.16603340000074	0	242254	251
474.19140625	2	health	foodImageDisplay	1	54	54	foodImage.30	FOODEEG_Images\0282.jpg	NY	Right	Yes	1.16603340000074	0	242787	252
476.25390625	1.16603340000074	health	choicePhaseStart	1	54	54	foodImage.30	FOODEEG_Images\0282.jpg	NY	Right	Yes	1.16603340000074	0	243843	253
477.41015625	0	health	response	1	54	54	foodImage.30	FOODEEG_Images\0282.jpg	NY	Right	Yes	1.16603340000074	0	244435	235
478.458984375	1	health	trialStart	1	55	55	foodImage.60	FOODEEG_Images\0614.jpg	YN	Left	Yes	0.745037099999536	0	244972	251
479.517578125	2	health	foodImageDisplay	1	55	55	foodImage.60	FOODEEG_Images\0614.jpg	YN	Left	Yes	0.745037099999536	0	245514	252
481.580078125	0.745037099999536	health	choicePhaseStart	1	55	55	foodImage.60	FOODEEG_Images\0614.jpg	YN	Left	Yes	0.745037099999536	0	246570	253
482.314453125	0	health	response	1	55	55	foodImage.60	FOODEEG_Images\0614.jpg	YN	Left	Yes	0.745037099999536	0	246946	234
483.357421875	1	health	trialStart	1	56	56	foodImage.97	FOODEEG_Images\0905.jpg	NY	Left	No	1.24122179999904	0	247480	251
484.396484375	2	health	foodImageDisplay	1	56	56	foodImage.97	FOODEEG_Images\0905.jpg	NY	Left	No	1.24122179999904	0	248012	252
486.458984375	1.24122179999904	health	choicePhaseStart	1	56	56	foodImage.97	FOODEEG_Images\0905.jpg	NY	Left	No	1.24122179999904	0	249068	253
487.689453125	0	health	response	1	56	56	foodImage.97	FOODEEG_Images\0905.jpg	NY	Left	No	1.24122179999904	0	249698	234
488.732421875	1	decision	trialStart	1	57	57	foodImage.110	FOODEEG_Images\0918.jpg	NY	Right	Yes	1.37756730000001	0	250232	251
489.771484375	2	decision	foodImageDisplay	1	57	57	foodImage.110	FOODEEG_Images\0918.jpg	NY	Right	Yes	1.37756730000001	0	250764	252
491.833984375	1.37756730000001	decision	choicePhaseStart	1	57	57	foodImage.110	FOODEEG_Images\0918.jpg	NY	Right	Yes	1.37756730000001	0	251820	253
493.203125	0	decision	response	1	57	57	foodImage.110	FOODEEG_Images\0918.jpg	NY	Right	Yes	1.37756730000001	0	252521	235
494.24609375	1	taste	trialStart	1	58	58	foodImage.44	FOODEEG_Images\0459.jpg	NY	Right	Yes	1.32459780000136	0	253055	251
495.310546875	2	taste	foodImageDisplay	1	58	58	foodImage.44	FOODEEG_Images\0459.jpg	NY	Right	Yes	1.32459780000136	0	253600	252
497.375	1.32459780000136	taste	choicePhaseStart	1	58	58	foodImage.44	FOODEEG_Images\0459.jpg	NY	Right	Yes	1.32459780000136	0	254657	253
498.689453125	0	taste	response	1	58	58	foodImage.44	FOODEEG_Images\0459.jpg	NY	Right	Yes	1.32459780000136	0	255330	235
499.73046875	1	taste	trialStart	1	59	59	foodImage.66	FOODEEG_Images\0676.jpg	NY	Right	Yes	0.95272709999881	0	255863	251
500.771484375	2	taste	foodImageDisplay	1	59	59	foodImage.66	FOODEEG_Images\0676.jpg	NY	Right	Yes	0.95272709999881	0	256396	252
502.8359375	0.95272709999881	taste	choicePhaseStart	1	59	59	foodImage.66	FOODEEG_Images\0676.jpg	NY	Right	Yes	0.95272709999881	0	257453	253
503.77734375	0	taste	response	1	59	59	foodImage.66	FOODEEG_Images\0676.jpg	NY	Right	Yes	0.95272709999881	0	257935	235
504.8203125	1	health	trialStart	1	60	60	foodImage.103	FOODEEG_Images\0911.jpg	NY	Right	Yes	1.17430910000076	0	258469	251
505.859375	2	health	foodImageDisplay	1	60	60	foodImage.103	FOODEEG_Images\0911.jpg	NY	Right	Yes	1.17430910000076	0	259001	252
507.921875	1.17430910000076	health	choicePhaseStart	1	60	60	foodImage.103	FOODEEG_Images\0911.jpg	NY	Right	Yes	1.17430910000076	0	260057	253
509.08984375	0	health	response	1	60	60	foodImage.103	FOODEEG_Images\0911.jpg	NY	Right	Yes	1.17430910000076	0	260655	235
511.1328125	42.10546875	n/a	blockEnd	n/a	n/a	n/a	n/a	n/a	n/a	n/a	n/a	n/a	n/a	261701	254
553.23828125	2	n/a	blockStart	2	n/a	n/a	n/a	n/a	n/a	n/a	n/a	n/a	n/a	283259	250
555.27734375	1	health	trialStart	2	61	1	foodImage.105	FOODEEG_Images\0913.jpg	YN	Left	Yes	0.703288700000485	0	284303	251
556.31640625	2	health	foodImageDisplay	2	61	1	foodImage.105	FOODEEG_Images\0913.jpg	YN	Left	Yes	0.703288700000485	0	284835	252
558.3828125	0.703288700000485	health	choicePhaseStart	2	61	1	foodImage.105	FOODEEG_Images\0913.jpg	YN	Left	Yes	0.703288700000485	0	285893	253
559.080078125	0	health	response	2	61	1	foodImage.105	FOODEEG_Images\0913.jpg	YN	Left	Yes	0.703288700000485	0	286250	234
560.12109375	1	decision	trialStart	2	62	2	foodImage.12	FOODEEG_Images\0181.jpg	NY	Right	Yes	0.910875999999917	0	286783	251
561.1640625	2	decision	foodImageDisplay	2	62	2	foodImage.12	FOODEEG_Images\0181.jpg	NY	Right	Yes	0.910875999999917	0	287317	252
563.2265625	0.910875999999917	decision	choicePhaseStart	2	62	2	foodImage.12	FOODEEG_Images\0181.jpg	NY	Right	Yes	0.910875999999917	0	288373	253
564.126953125	0	decision	response	2	62	2	foodImage.12	FOODEEG_Images\0181.jpg	NY	Right	Yes	0.910875999999917	0	288834	235
565.169921875	1	taste	trialStart	2	63	3	foodImage.113	FOODEEG_Images\0921.jpg	NY	Right	Yes	0.943650499999421	0	289368	251
566.208984375	2	taste	foodImageDisplay	2	63	3	foodImage.113	FOODEEG_Images\0921.jpg	NY	Right	Yes	0.943650499999421	0	289900	252
568.271484375	0.943650499999421	taste	choicePhaseStart	2	63	3	foodImage.113	FOODEEG_Images\0921.jpg	NY	Right	Yes	0.943650499999421	0	290956	253
569.20703125	0	taste	response	2	63	3	foodImage.113	FOODEEG_Images\0921.jpg	NY	Right	Yes	0.943650499999421	0	291435	235
570.248046875	1	health	trialStart	2	64	4	foodImage.70	FOODEEG_Images\0705.jpg	NY	Right	Yes	1.37786339999911	0	291968	251
571.3046875	2	health	foodImageDisplay	2	64	4	foodImage.70	FOODEEG_Images\0705.jpg	NY	Right	Yes	1.37786339999911	0	292509	252
573.3671875	1.37786339999911	health	choicePhaseStart	2	64	4	foodImage.70	FOODEEG_Images\0705.jpg	NY	Right	Yes	1.37786339999911	0	293565	253
574.734375	0	health	response	2	64	4	foodImage.70	FOODEEG_Images\0705.jpg	NY	Right	Yes	1.37786339999911	0	294265	235
575.775390625	1	taste	trialStart	2	65	5	foodImage.31	FOODEEG_Images\0294.jpg	YN	Left	Yes	0.918386600000304	0	294798	251
576.81640625	2	taste	foodImageDisplay	2	65	5	foodImage.31	FOODEEG_Images\0294.jpg	YN	Left	Yes	0.918386600000304	0	295331	252
578.87890625	0.918386600000304	taste	choicePhaseStart	2	65	5	foodImage.31	FOODEEG_Images\0294.jpg	YN	Left	Yes	0.918386600000304	0	296387	253
579.791015625	0	taste	response	2	65	5	foodImage.31	FOODEEG_Images\0294.jpg	YN	Left	Yes	0.918386600000304	0	296854	234
580.830078125	1	taste	trialStart	2	66	6	foodImage.97	FOODEEG_Images\0905.jpg	YN	Right	No	1.23886420000053	0	297386	251
581.8671875	2	taste	foodImageDisplay	2	66	6	foodImage.97	FOODEEG_Images\0905.jpg	YN	Right	No	1.23886420000053	0	297917	252
583.9296875	1.23886420000053	taste	choicePhaseStart	2	66	6	foodImage.97	FOODEEG_Images\0905.jpg	YN	Right	No	1.23886420000053	0	298973	253
585.16015625	0	taste	response	2	66	6	foodImage.97	FOODEEG_Images\0905.jpg	YN	Right	No	1.23886420000053	0	299603	235
586.201171875	1	health	trialStart	2	67	7	foodImage.48	FOODEEG_Images\0494.jpg	NY	Left	No	1.43863939999937	0	300136	251
587.244140625	2	health	foodImageDisplay	2	67	7	foodImage.48	FOODEEG_Images\0494.jpg	NY	Left	No	1.43863939999937	0	300670	252
589.306640625	1.43863939999937	health	choicePhaseStart	2	67	7	foodImage.48	FOODEEG_Images\0494.jpg	NY	Left	No	1.43863939999937	0	301726	253
590.734375	0	health	response	2	67	7	foodImage.48	FOODEEG_Images\0494.jpg	NY	Left	No	1.43863939999937	0	302457	234
591.77734375	1	taste	trialStart	2	68	8	foodImage.101	FOODEEG_Images\0909.jpg	NY	Left	No	2.16290180000033	0	302991	251
592.814453125	2	taste	foodImageDisplay	2	68	8	foodImage.101	FOODEEG_Images\0909.jpg	NY	Left	No	2.16290180000033	0	303522	252
594.876953125	2.16290180000033	taste	choicePhaseStart	2	68	8	foodImage.101	FOODEEG_Images\0909.jpg	NY	Left	No	2.16290180000033	0	304578	253
597.029296875	0	taste	response	2	68	8	foodImage.101	FOODEEG_Images\0909.jpg	NY	Left	No	2.16290180000033	0	305680	234
598.072265625	1	health	trialStart	2	69	9	foodImage.92	FOODEEG_Images\0900.jpg	YN	Right	No	1.07629310000084	0	306214	251
599.123046875	2	health	foodImageDisplay	2	69	9	foodImage.92	FOODEEG_Images\0900.jpg	YN	Right	No	1.07629310000084	0	306752	252
601.1875	1.07629310000084	health	choicePhaseStart	2	69	9	foodImage.92	FOODEEG_Images\0900.jpg	YN	Right	No	1.07629310000084	0	307809	253
602.25390625	0	health	response	2	69	9	foodImage.92	FOODEEG_Images\0900.jpg	YN	Right	No	1.07629310000084	0	308355	235
603.296875	1	decision	trialStart	2	70	10	foodImage.103	FOODEEG_Images\0911.jpg	YN	Left	Yes	0.783129600000393	0	308889	251
604.337890625	2	decision	foodImageDisplay	2	70	10	foodImage.103	FOODEEG_Images\0911.jpg	YN	Left	Yes	0.783129600000393	0	309422	252
606.400390625	0.783129600000393	decision	choicePhaseStart	2	70	10	foodImage.103	FOODEEG_Images\0911.jpg	YN	Left	Yes	0.783129600000393	0	310478	253
607.173828125	0	decision	response	2	70	10	foodImage.103	FOODEEG_Images\0911.jpg	YN	Left	Yes	0.783129600000393	0	310874	234
608.216796875	1	taste	trialStart	2	71	11	foodImage.116	FOODEEG_Images\0924.jpg	YN	Left	Yes	0.844898899998952	0	311408	251
609.255859375	2	taste	foodImageDisplay	2	71	11	foodImage.116	FOODEEG_Images\0924.jpg	YN	Left	Yes	0.844898899998952	0	311940	252
611.318359375	0.844898899998952	taste	choicePhaseStart	2	71	11	foodImage.116	FOODEEG_Images\0924.jpg	YN	Left	Yes	0.844898899998952	0	312996	253
612.158203125	0	taste	response	2	71	11	foodImage.116	FOODEEG_Images\0924.jpg	YN	Left	Yes	0.844898899998952	0	313426	234
613.19921875	1	decision	trialStart	2	72	12	foodImage.72	FOODEEG_Images\0714.jpg	NY	Right	Yes	1.09891620000053	0	313959	251
614.240234375	2	decision	foodImageDisplay	2	72	12	foodImage.72	FOODEEG_Images\0714.jpg	NY	Right	Yes	1.09891620000053	0	314492	252
616.3046875	1.09891620000053	decision	choicePhaseStart	2	72	12	foodImage.72	FOODEEG_Images\0714.jpg	NY	Right	Yes	1.09891620000053	0	315549	253
617.396484375	0	decision	response	2	72	12	foodImage.72	FOODEEG_Images\0714.jpg	NY	Right	Yes	1.09891620000053	0	316108	235
618.4375	1	decision	trialStart	2	73	13	foodImage.36	FOODEEG_Images\0352.jpg	NY	Left	No	1.8076312000012	0	316641	251
619.49609375	2	decision	foodImageDisplay	2	73	13	foodImage.36	FOODEEG_Images\0352.jpg	NY	Left	No	1.8076312000012	0	317183	252
621.55859375	1.8076312000012	decision	choicePhaseStart	2	73	13	foodImage.36	FOODEEG_Images\0352.jpg	NY	Left	No	1.8076312000012	0	318239	253
623.357421875	0	decision	response	2	73	13	foodImage.36	FOODEEG_Images\0352.jpg	NY	Left	No	1.8076312000012	0	319160	234
624.400390625	1	decision	trialStart	2	74	14	foodImage.81	FOODEEG_Images\0797.jpg	YN	Left	Yes	2.0779104000012	0	319694	251
625.458984375	2	decision	foodImageDisplay	2	74	14	foodImage.81	FOODEEG_Images\0797.jpg	YN	Left	Yes	2.0779104000012	0	320236	252
627.521484375	2.0779104000012	decision	choicePhaseStart	2	74	14	foodImage.81	FOODEEG_Images\0797.jpg	YN	Left	Yes	2.0779104000012	0	321292	253
629.58984375	0	decision	response	2	74	14	foodImage.81	FOODEEG_Images\0797.jpg	YN	Left	Yes	2.0779104000012	0	322351	234
630.630859375	1	decision	trialStart	2	75	15	foodImage.9	FOODEEG_Images\0138.jpg	YN	Left	Yes	0.758685400000104	0	322884	251
631.689453125	2	decision	foodImageDisplay	2	75	15	foodImage.9	FOODEEG_Images\0138.jpg	YN	Left	Yes	0.758685400000104	0	323426	252
633.751953125	0.758685400000104	decision	choicePhaseStart	2	75	15	foodImage.9	FOODEEG_Images\0138.jpg	YN	Left	Yes	0.758685400000104	0	324482	253
634.5	0	decision	response	2	75	15	foodImage.9	FOODEEG_Images\0138.jpg	YN	Left	Yes	0.758685400000104	0	324865	234
635.54296875	1	taste	trialStart	2	76	16	foodImage.114	FOODEEG_Images\0922.jpg	YN	Right	No	1.09720430000016	0	325399	251
636.58984375	2	taste	foodImageDisplay	2	76	16	foodImage.114	FOODEEG_Images\0922.jpg	YN	Right	No	1.09720430000016	0	325935	252
638.65234375	1.09720430000016	taste	choicePhaseStart	2	76	16	foodImage.114	FOODEEG_Images\0922.jpg	YN	Right	No	1.09720430000016	0	326991	253
639.740234375	0	taste	response	2	76	16	foodImage.114	FOODEEG_Images\0922.jpg	YN	Right	No	1.09720430000016	0	327548	235
640.783203125	1	decision	trialStart	2	77	17	foodImage.28	FOODEEG_Images\0273.jpg	NY	Left	No	0.974281499999051	0	328082	251
641.826171875	2	decision	foodImageDisplay	2	77	17	foodImage.28	FOODEEG_Images\0273.jpg	NY	Left	No	0.974281499999051	0	328616	252
643.88671875	0.974281499999051	decision	choicePhaseStart	2	77	17	foodImage.28	FOODEEG_Images\0273.jpg	NY	Left	No	0.974281499999051	0	329671	253
644.8515625	0	decision	response	2	77	17	foodImage.28	FOODEEG_Images\0273.jpg	NY	Left	No	0.974281499999051	0	330165	234
645.896484375	1	health	trialStart	2	78	18	foodImage.85	FOODEEG_Images\0841.jpg	NY	Left	No	1.01018250000016	0	330700	251
646.955078125	2	health	foodImageDisplay	2	78	18	foodImage.85	FOODEEG_Images\0841.jpg	NY	Left	No	1.01018250000016	0	331242	252
649.01953125	1.01018250000016	health	choicePhaseStart	2	78	18	foodImage.85	FOODEEG_Images\0841.jpg	NY	Left	No	1.01018250000016	0	332299	253
650.01953125	0	health	response	2	78	18	foodImage.85	FOODEEG_Images\0841.jpg	NY	Left	No	1.01018250000016	0	332811	234
651.068359375	1	taste	trialStart	2	79	19	foodImage.36	FOODEEG_Images\0352.jpg	YN	Left	Yes	2.38276610000139	0	333348	251
652.126953125	2	taste	foodImageDisplay	2	79	19	foodImage.36	FOODEEG_Images\0352.jpg	YN	Left	Yes	2.38276610000139	0	333890	252
654.189453125	2.38276610000139	taste	choicePhaseStart	2	79	19	foodImage.36	FOODEEG_Images\0352.jpg	YN	Left	Yes	2.38276610000139	0	334946	253
656.564453125	0	taste	response	2	79	19	foodImage.36	FOODEEG_Images\0352.jpg	YN	Left	Yes	2.38276610000139	0	336162	234
657.607421875	1	health	trialStart	2	80	20	foodImage.54	FOODEEG_Images\0560.jpg	YN	Left	Yes	1.15779689999908	0	336696	251
658.6640625	2	health	foodImageDisplay	2	80	20	foodImage.54	FOODEEG_Images\0560.jpg	YN	Left	Yes	1.15779689999908	0	337237	252
660.7265625	1.15779689999908	health	choicePhaseStart	2	80	20	foodImage.54	FOODEEG_Images\0560.jpg	YN	Left	Yes	1.15779689999908	0	338293	253
661.875	0	health	response	2	80	20	foodImage.54	FOODEEG_Images\0560.jpg	YN	Left	Yes	1.15779689999908	0	338881	234
662.91796875	1	decision	trialStart	2	81	21	foodImage.55	FOODEEG_Images\0567.jpg	NY	Right	Yes	0.898397900000418	0	339415	251
663.9765625	2	decision	foodImageDisplay	2	81	21	foodImage.55	FOODEEG_Images\0567.jpg	NY	Right	Yes	0.898397900000418	0	339957	252
666.041015625	0.898397900000418	decision	choicePhaseStart	2	81	21	foodImage.55	FOODEEG_Images\0567.jpg	NY	Right	Yes	0.898397900000418	0	341014	253
666.931640625	0	decision	response	2	81	21	foodImage.55	FOODEEG_Images\0567.jpg	NY	Right	Yes	0.898397900000418	0	341470	235
667.9765625	1	health	trialStart	2	82	22	foodImage.14	FOODEEG_Images\0188.jpg	NY	Right	Yes	1.44775380000101	0	342005	251
669.044921875	2	health	foodImageDisplay	2	82	22	foodImage.14	FOODEEG_Images\0188.jpg	NY	Right	Yes	1.44775380000101	0	342552	252
671.109375	1.44775380000101	health	choicePhaseStart	2	82	22	foodImage.14	FOODEEG_Images\0188.jpg	NY	Right	Yes	1.44775380000101	0	343609	253
672.546875	0	health	response	2	82	22	foodImage.14	FOODEEG_Images\0188.jpg	NY	Right	Yes	1.44775380000101	0	344345	235
673.58984375	1	health	trialStart	2	83	23	foodImage.96	FOODEEG_Images\0904.jpg	NY	Right	Yes	0.741904299999078	0	344879	251
674.6328125	2	health	foodImageDisplay	2	83	23	foodImage.96	FOODEEG_Images\0904.jpg	NY	Right	Yes	0.741904299999078	0	345413	252
676.6953125	0.741904299999078	health	choicePhaseStart	2	83	23	foodImage.96	FOODEEG_Images\0904.jpg	NY	Right	Yes	0.741904299999078	0	346469	253
677.427734375	0	health	response	2	83	23	foodImage.96	FOODEEG_Images\0904.jpg	NY	Right	Yes	0.741904299999078	0	346844	235
678.470703125	1	health	trialStart	2	84	24	foodImage.1	FOODEEG_Images\0004.jpg	YN	Right	No	1.39680720000069	0	347378	251
679.513671875	2	health	foodImageDisplay	2	84	24	foodImage.1	FOODEEG_Images\0004.jpg	YN	Right	No	1.39680720000069	0	347912	252
681.576171875	1.39680720000069	health	choicePhaseStart	2	84	24	foodImage.1	FOODEEG_Images\0004.jpg	YN	Right	No	1.39680720000069	0	348968	253
682.962890625	0	health	response	2	84	24	foodImage.1	FOODEEG_Images\0004.jpg	YN	Right	No	1.39680720000069	0	349678	235
684.005859375	1	decision	trialStart	2	85	25	foodImage.98	FOODEEG_Images\0906.jpg	YN	Left	Yes	0.753794699998252	0	350212	251
685.044921875	2	decision	foodImageDisplay	2	85	25	foodImage.98	FOODEEG_Images\0906.jpg	YN	Left	Yes	0.753794699998252	0	350744	252
687.107421875	0.753794699998252	decision	choicePhaseStart	2	85	25	foodImage.98	FOODEEG_Images\0906.jpg	YN	Left	Yes	0.753794699998252	0	351800	253
687.849609375	0	decision	response	2	85	25	foodImage.98	FOODEEG_Images\0906.jpg	YN	Left	Yes	0.753794699998252	0	352180	234
688.892578125	1	taste	trialStart	2	86	26	foodImage.80	FOODEEG_Images\0796.jpg	NY	Right	Yes	0.903917899999215	0	352714	251
689.94921875	2	taste	foodImageDisplay	2	86	26	foodImage.80	FOODEEG_Images\0796.jpg	NY	Right	Yes	0.903917899999215	0	353255	252
692.01171875	0.903917899999215	taste	choicePhaseStart	2	86	26	foodImage.80	FOODEEG_Images\0796.jpg	NY	Right	Yes	0.903917899999215	0	354311	253
692.90625	0	taste	response	2	86	26	foodImage.80	FOODEEG_Images\0796.jpg	NY	Right	Yes	0.903917899999215	0	354769	235
693.94921875	1	health	trialStart	2	87	27	foodImage.90	FOODEEG_Images\0890.jpg	YN	Left	Yes	0.904156299999158	0	355303	251
695.005859375	2	health	foodImageDisplay	2	87	27	foodImage.90	FOODEEG_Images\0890.jpg	YN	Left	Yes	0.904156299999158	0	355844	252
697.068359375	0.904156299999158	health	choicePhaseStart	2	87	27	foodImage.90	FOODEEG_Images\0890.jpg	YN	Left	Yes	0.904156299999158	0	356900	253
697.962890625	0	health	response	2	87	27	foodImage.90	FOODEEG_Images\0890.jpg	YN	Left	Yes	0.904156299999158	0	357358	234
699.005859375	1	taste	trialStart	2	88	28	foodImage.62	FOODEEG_Images\0644.jpg	NY	Left	No	2.12793569999849	0	357892	251
700.0625	2	taste	foodImageDisplay	2	88	28	foodImage.62	FOODEEG_Images\0644.jpg	NY	Left	No	2.12793569999849	0	358433	252
702.125	2.12793569999849	taste	choicePhaseStart	2	88	28	foodImage.62	FOODEEG_Images\0644.jpg	NY	Left	No	2.12793569999849	0	359489	253
704.2421875	0	taste	response	2	88	28	foodImage.62	FOODEEG_Images\0644.jpg	NY	Left	No	2.12793569999849	0	360573	234
705.28515625	1	decision	trialStart	2	89	29	foodImage.44	FOODEEG_Images\0459.jpg	NY	Right	Yes	1.37227869999879	0	361107	251
706.34375	2	decision	foodImageDisplay	2	89	29	foodImage.44	FOODEEG_Images\0459.jpg	NY	Right	Yes	1.37227869999879	0	361649	252
708.40625	1.37227869999879	decision	choicePhaseStart	2	89	29	foodImage.44	FOODEEG_Images\0459.jpg	NY	Right	Yes	1.37227869999879	0	362705	253
709.76953125	0	decision	response	2	89	29	foodImage.44	FOODEEG_Images\0459.jpg	NY	Right	Yes	1.37227869999879	0	363403	235
710.8125	1	decision	trialStart	2	90	30	foodImage.73	FOODEEG_Images\0717.jpg	NY	Left	No	1.2292765000002	0	363937	251
711.873046875	2	decision	foodImageDisplay	2	90	30	foodImage.73	FOODEEG_Images\0717.jpg	NY	Left	No	1.2292765000002	0	364480	252
713.935546875	1.2292765000002	decision	choicePhaseStart	2	90	30	foodImage.73	FOODEEG_Images\0717.jpg	NY	Left	No	1.2292765000002	0	365536	253
715.154296875	0	decision	response	2	90	30	foodImage.73	FOODEEG_Images\0717.jpg	NY	Left	No	1.2292765000002	0	366160	234
716.197265625	1	decision	trialStart	2	91	31	foodImage.104	FOODEEG_Images\0912.jpg	NY	Right	Yes	1.18586959999993	0	366694	251
717.25	2	decision	foodImageDisplay	2	91	31	foodImage.104	FOODEEG_Images\0912.jpg	NY	Right	Yes	1.18586959999993	0	367233	252
719.3125	1.18586959999993	decision	choicePhaseStart	2	91	31	foodImage.104	FOODEEG_Images\0912.jpg	NY	Right	Yes	1.18586959999993	0	368289	253
720.48828125	0	decision	response	2	91	31	foodImage.104	FOODEEG_Images\0912.jpg	NY	Right	Yes	1.18586959999993	0	368891	235
721.53125	1	taste	trialStart	2	92	32	foodImage.74	FOODEEG_Images\0752.jpg	YN	Left	Yes	1.65185730000121	0	369425	251
722.57421875	2	taste	foodImageDisplay	2	92	32	foodImage.74	FOODEEG_Images\0752.jpg	YN	Left	Yes	1.65185730000121	0	369959	252
724.63671875	1.65185730000121	taste	choicePhaseStart	2	92	32	foodImage.74	FOODEEG_Images\0752.jpg	YN	Left	Yes	1.65185730000121	0	371015	253
726.28125	0	taste	response	2	92	32	foodImage.74	FOODEEG_Images\0752.jpg	YN	Left	Yes	1.65185730000121	0	371857	234
727.32421875	1	health	trialStart	2	93	33	foodImage.27	FOODEEG_Images\0263.jpg	NY	Right	Yes	0.830671900001107	0	372391	251
728.365234375	2	health	foodImageDisplay	2	93	33	foodImage.27	FOODEEG_Images\0263.jpg	NY	Right	Yes	0.830671900001107	0	372924	252
730.427734375	0.830671900001107	health	choicePhaseStart	2	93	33	foodImage.27	FOODEEG_Images\0263.jpg	NY	Right	Yes	0.830671900001107	0	373980	253
731.248046875	0	health	response	2	93	33	foodImage.27	FOODEEG_Images\0263.jpg	NY	Right	Yes	0.830671900001107	0	374400	235
732.298828125	1	health	trialStart	2	94	34	foodImage.83	FOODEEG_Images\0827.jpg	YN	Left	Yes	1.13783240000157	0	374938	251
733.353515625	2	health	foodImageDisplay	2	94	34	foodImage.83	FOODEEG_Images\0827.jpg	YN	Left	Yes	1.13783240000157	0	375478	252
735.416015625	1.13783240000157	health	choicePhaseStart	2	94	34	foodImage.83	FOODEEG_Images\0827.jpg	YN	Left	Yes	1.13783240000157	0	376534	253
736.544921875	0	health	response	2	94	34	foodImage.83	FOODEEG_Images\0827.jpg	YN	Left	Yes	1.13783240000157	0	377112	234
737.587890625	1	decision	trialStart	2	95	35	foodImage.115	FOODEEG_Images\0923.jpg	YN	Left	Yes	2.38598340000135	0	377646	251
738.625	2	decision	foodImageDisplay	2	95	35	foodImage.115	FOODEEG_Images\0923.jpg	YN	Left	Yes	2.38598340000135	0	378177	252
740.6875	2.38598340000135	decision	choicePhaseStart	2	95	35	foodImage.115	FOODEEG_Images\0923.jpg	YN	Left	Yes	2.38598340000135	0	379233	253
743.064453125	0	decision	response	2	95	35	foodImage.115	FOODEEG_Images\0923.jpg	YN	Left	Yes	2.38598340000135	0	380450	234
744.107421875	1	decision	trialStart	2	96	36	foodImage.31	FOODEEG_Images\0294.jpg	YN	Left	Yes	1.26736250000067	0	380984	251
745.15234375	2	decision	foodImageDisplay	2	96	36	foodImage.31	FOODEEG_Images\0294.jpg	YN	Left	Yes	1.26736250000067	0	381519	252
747.21484375	1.26736250000067	decision	choicePhaseStart	2	96	36	foodImage.31	FOODEEG_Images\0294.jpg	YN	Left	Yes	1.26736250000067	0	382575	253
748.47265625	0	decision	response	2	96	36	foodImage.31	FOODEEG_Images\0294.jpg	YN	Left	Yes	1.26736250000067	0	383219	234
749.515625	1	decision	trialStart	2	97	37	foodImage.65	FOODEEG_Images\0658.jpg	NY	Right	Yes	1.74183980000089	0	383753	251
750.556640625	2	decision	foodImageDisplay	2	97	37	foodImage.65	FOODEEG_Images\0658.jpg	NY	Right	Yes	1.74183980000089	0	384286	252
752.619140625	1.74183980000089	decision	choicePhaseStart	2	97	37	foodImage.65	FOODEEG_Images\0658.jpg	NY	Right	Yes	1.74183980000089	0	385342	253
754.3515625	0	decision	response	2	97	37	foodImage.65	FOODEEG_Images\0658.jpg	NY	Right	Yes	1.74183980000089	0	386229	235
755.39453125	1	taste	trialStart	2	98	38	foodImage.38	FOODEEG_Images\0365.jpg	NY	Right	Yes	2.61618169999929	0	386763	251
756.43359375	2	taste	foodImageDisplay	2	98	38	foodImage.38	FOODEEG_Images\0365.jpg	NY	Right	Yes	2.61618169999929	0	387295	252
758.49609375	2.61618169999929	taste	choicePhaseStart	2	98	38	foodImage.38	FOODEEG_Images\0365.jpg	NY	Right	Yes	2.61618169999929	0	388351	253
761.103515625	0	taste	response	2	98	38	foodImage.38	FOODEEG_Images\0365.jpg	NY	Right	Yes	2.61618169999929	0	389686	235
762.1484375	1	taste	trialStart	2	99	39	foodImage.81	FOODEEG_Images\0797.jpg	NY	Left	No	1.70679089999976	0	390221	251
763.20703125	2	taste	foodImageDisplay	2	99	39	foodImage.81	FOODEEG_Images\0797.jpg	NY	Left	No	1.70679089999976	0	390763	252
765.26953125	1.70679089999976	taste	choicePhaseStart	2	99	39	foodImage.81	FOODEEG_Images\0797.jpg	NY	Left	No	1.70679089999976	0	391819	253
766.966796875	0	taste	response	2	99	39	foodImage.81	FOODEEG_Images\0797.jpg	NY	Left	No	1.70679089999976	0	392688	234
768.009765625	1	health	trialStart	2	100	40	foodImage.116	FOODEEG_Images\0924.jpg	NY	Right	Yes	2.03267749999941	0	393222	251
769.048828125	2	health	foodImageDisplay	2	100	40	foodImage.116	FOODEEG_Images\0924.jpg	NY	Right	Yes	2.03267749999941	0	393754	252
771.111328125	2.03267749999941	health	choicePhaseStart	2	100	40	foodImage.116	FOODEEG_Images\0924.jpg	NY	Right	Yes	2.03267749999941	0	394810	253
773.134765625	0	health	response	2	100	40	foodImage.116	FOODEEG_Images\0924.jpg	NY	Right	Yes	2.03267749999941	0	395846	235
774.177734375	1	health	trialStart	2	101	41	foodImage.68	FOODEEG_Images\0685.jpg	YN	Right	No	1.36100499999884	0	396380	251
775.255859375	2	health	foodImageDisplay	2	101	41	foodImage.68	FOODEEG_Images\0685.jpg	YN	Right	No	1.36100499999884	0	396932	252
777.3203125	1.36100499999884	health	choicePhaseStart	2	101	41	foodImage.68	FOODEEG_Images\0685.jpg	YN	Right	No	1.36100499999884	0	397989	253
778.671875	0	health	response	2	101	41	foodImage.68	FOODEEG_Images\0685.jpg	YN	Right	No	1.36100499999884	0	398681	235
779.716796875	1	taste	trialStart	2	102	42	foodImage.4	FOODEEG_Images\0065.jpg	NY	Right	Yes	1.10322959999939	0	399216	251
780.771484375	2	taste	foodImageDisplay	2	102	42	foodImage.4	FOODEEG_Images\0065.jpg	NY	Right	Yes	1.10322959999939	0	399756	252
782.83203125	1.10322959999939	taste	choicePhaseStart	2	102	42	foodImage.4	FOODEEG_Images\0065.jpg	NY	Right	Yes	1.10322959999939	0	400811	253
783.92578125	0	taste	response	2	102	42	foodImage.4	FOODEEG_Images\0065.jpg	NY	Right	Yes	1.10322959999939	0	401371	235
784.96875	1	decision	trialStart	2	103	43	foodImage.14	FOODEEG_Images\0188.jpg	NY	Right	Yes	0.924929099999645	0	401905	251
786.02734375	2	decision	foodImageDisplay	2	103	43	foodImage.14	FOODEEG_Images\0188.jpg	NY	Right	Yes	0.924929099999645	0	402447	252
788.08984375	0.924929099999645	decision	choicePhaseStart	2	103	43	foodImage.14	FOODEEG_Images\0188.jpg	NY	Right	Yes	0.924929099999645	0	403503	253
789.005859375	0	decision	response	2	103	43	foodImage.14	FOODEEG_Images\0188.jpg	NY	Right	Yes	0.924929099999645	0	403972	235
790.048828125	1	decision	trialStart	2	104	44	foodImage.94	FOODEEG_Images\0902.jpg	YN	Right	No	1.12293099999988	0	404506	251
791.0859375	2	decision	foodImageDisplay	2	104	44	foodImage.94	FOODEEG_Images\0902.jpg	YN	Right	No	1.12293099999988	0	405037	252
793.1484375	1.12293099999988	decision	choicePhaseStart	2	104	44	foodImage.94	FOODEEG_Images\0902.jpg	YN	Right	No	1.12293099999988	0	406093	253
794.26171875	0	decision	response	2	104	44	foodImage.94	FOODEEG_Images\0902.jpg	YN	Right	No	1.12293099999988	0	406663	235
795.3046875	1	health	trialStart	2	105	45	foodImage.55	FOODEEG_Images\0567.jpg	NY	Right	Yes	4.3033329000009	0	407197	251
796.361328125	2	health	foodImageDisplay	2	105	45	foodImage.55	FOODEEG_Images\0567.jpg	NY	Right	Yes	4.3033329000009	0	407738	252
798.423828125	4.3033329000009	health	choicePhaseStart	2	105	45	foodImage.55	FOODEEG_Images\0567.jpg	NY	Right	Yes	4.3033329000009	0	408794	253
802.71875	0	health	response	2	105	45	foodImage.55	FOODEEG_Images\0567.jpg	NY	Right	Yes	4.3033329000009	0	410993	235
803.76171875	1	decision	trialStart	2	106	46	foodImage.20	FOODEEG_Images\0226.jpg	NY	Left	No	0.975176399999327	0	411527	251
804.80078125	2	decision	foodImageDisplay	2	106	46	foodImage.20	FOODEEG_Images\0226.jpg	NY	Left	No	0.975176399999327	0	412059	252
806.86328125	0.975176399999327	decision	choicePhaseStart	2	106	46	foodImage.20	FOODEEG_Images\0226.jpg	NY	Left	No	0.975176399999327	0	413115	253
807.830078125	0	decision	response	2	106	46	foodImage.20	FOODEEG_Images\0226.jpg	NY	Left	No	0.975176399999327	0	413610	234
808.87109375	1	health	trialStart	2	107	47	foodImage.110	FOODEEG_Images\0918.jpg	YN	Right	No	2.97896409999885	0	414143	251
809.91015625	2	health	foodImageDisplay	2	107	47	foodImage.110	FOODEEG_Images\0918.jpg	YN	Right	No	2.97896409999885	0	414675	252
811.97265625	2.97896409999885	health	choicePhaseStart	2	107	47	foodImage.110	FOODEEG_Images\0918.jpg	YN	Right	No	2.97896409999885	0	415731	253
814.94140625	0	health	response	2	107	47	foodImage.110	FOODEEG_Images\0918.jpg	YN	Right	No	2.97896409999885	0	417251	235
815.984375	1	taste	trialStart	2	108	48	foodImage.119	FOODEEG_Images\0927.jpg	NY	Right	Yes	0.801595099999759	0	417785	251
817.0234375	2	taste	foodImageDisplay	2	108	48	foodImage.119	FOODEEG_Images\0927.jpg	NY	Right	Yes	0.801595099999759	0	418317	252
819.0859375	0.801595099999759	taste	choicePhaseStart	2	108	48	foodImage.119	FOODEEG_Images\0927.jpg	NY	Right	Yes	0.801595099999759	0	419373	253
819.876953125	0	taste	response	2	108	48	foodImage.119	FOODEEG_Images\0927.jpg	NY	Right	Yes	0.801595099999759	0	419778	235
820.919921875	1	health	trialStart	2	109	49	foodImage.44	FOODEEG_Images\0459.jpg	YN	Left	Yes	0.746140200000809	0	420312	251
821.966796875	2	health	foodImageDisplay	2	109	49	foodImage.44	FOODEEG_Images\0459.jpg	YN	Left	Yes	0.746140200000809	0	420848	252
824.029296875	0.746140200000809	health	choicePhaseStart	2	109	49	foodImage.44	FOODEEG_Images\0459.jpg	YN	Left	Yes	0.746140200000809	0	421904	253
824.765625	0	health	response	2	109	49	foodImage.44	FOODEEG_Images\0459.jpg	YN	Left	Yes	0.746140200000809	0	422281	234
825.80859375	1	health	trialStart	2	110	50	foodImage.53	FOODEEG_Images\0547.jpg	NY	Left	No	1.27680379999947	0	422815	251
826.8671875	2	health	foodImageDisplay	2	110	50	foodImage.53	FOODEEG_Images\0547.jpg	NY	Left	No	1.27680379999947	0	423357	252
828.935546875	1.27680379999947	health	choicePhaseStart	2	110	50	foodImage.53	FOODEEG_Images\0547.jpg	NY	Left	No	1.27680379999947	0	424416	253
830.205078125	0	health	response	2	110	50	foodImage.53	FOODEEG_Images\0547.jpg	NY	Left	No	1.27680379999947	0	425066	234
831.248046875	1	decision	trialStart	2	111	51	foodImage.54	FOODEEG_Images\0560.jpg	NY	Right	Yes	1.00933120000082	0	425600	251
832.302734375	2	decision	foodImageDisplay	2	111	51	foodImage.54	FOODEEG_Images\0560.jpg	NY	Right	Yes	1.00933120000082	0	426140	252
834.365234375	1.00933120000082	decision	choicePhaseStart	2	111	51	foodImage.54	FOODEEG_Images\0560.jpg	NY	Right	Yes	1.00933120000082	0	427196	253
835.365234375	0	decision	response	2	111	51	foodImage.54	FOODEEG_Images\0560.jpg	NY	Right	Yes	1.00933120000082	0	427708	235
836.412109375	1	taste	trialStart	2	112	52	foodImage.35	FOODEEG_Images\0350.jpg	NY	Right	Yes	0.965389399998458	0	428244	251
837.451171875	2	taste	foodImageDisplay	2	112	52	foodImage.35	FOODEEG_Images\0350.jpg	NY	Right	Yes	0.965389399998458	0	428776	252
839.51171875	0.965389399998458	taste	choicePhaseStart	2	112	52	foodImage.35	FOODEEG_Images\0350.jpg	NY	Right	Yes	0.965389399998458	0	429831	253
840.46875	0	taste	response	2	112	52	foodImage.35	FOODEEG_Images\0350.jpg	NY	Right	Yes	0.965389399998458	0	430321	235
841.509765625	1	taste	trialStart	2	113	53	foodImage.27	FOODEEG_Images\0263.jpg	NY	Right	Yes	1.98597040000095	0	430854	251
842.572265625	2	taste	foodImageDisplay	2	113	53	foodImage.27	FOODEEG_Images\0263.jpg	NY	Right	Yes	1.98597040000095	0	431398	252
844.63671875	1.98597040000095	taste	choicePhaseStart	2	113	53	foodImage.27	FOODEEG_Images\0263.jpg	NY	Right	Yes	1.98597040000095	0	432455	253
846.61328125	0	taste	response	2	113	53	foodImage.27	FOODEEG_Images\0263.jpg	NY	Right	Yes	1.98597040000095	0	433467	235
847.654296875	1	health	trialStart	2	114	54	foodImage.22	FOODEEG_Images\0236.jpg	YN	Right	No	2.34276379999937	0	434000	251
848.6953125	2	health	foodImageDisplay	2	114	54	foodImage.22	FOODEEG_Images\0236.jpg	YN	Right	No	2.34276379999937	0	434533	252
850.759765625	2.34276379999937	health	choicePhaseStart	2	114	54	foodImage.22	FOODEEG_Images\0236.jpg	YN	Right	No	2.34276379999937	0	435590	253
853.091796875	0	health	response	2	114	54	foodImage.22	FOODEEG_Images\0236.jpg	YN	Right	No	2.34276379999937	0	436784	235
854.134765625	1	taste	trialStart	2	115	55	foodImage.102	FOODEEG_Images\0910.jpg	NY	Right	Yes	1.39174800000001	0	437318	251
855.173828125	2	taste	foodImageDisplay	2	115	55	foodImage.102	FOODEEG_Images\0910.jpg	NY	Right	Yes	1.39174800000001	0	437850	252
857.23828125	1.39174800000001	taste	choicePhaseStart	2	115	55	foodImage.102	FOODEEG_Images\0910.jpg	NY	Right	Yes	1.39174800000001	0	438907	253
858.619140625	0	taste	response	2	115	55	foodImage.102	FOODEEG_Images\0910.jpg	NY	Right	Yes	1.39174800000001	0	439614	235
859.662109375	1	decision	trialStart	2	116	56	foodImage.15	FOODEEG_Images\0189.jpg	NY	Right	Yes	0.998564999999871	0	440148	251
860.71875	2	decision	foodImageDisplay	2	116	56	foodImage.15	FOODEEG_Images\0189.jpg	NY	Right	Yes	0.998564999999871	0	440689	252
862.78125	0.998564999999871	decision	choicePhaseStart	2	116	56	foodImage.15	FOODEEG_Images\0189.jpg	NY	Right	Yes	0.998564999999871	0	441745	253
863.7734375	0	decision	response	2	116	56	foodImage.15	FOODEEG_Images\0189.jpg	NY	Right	Yes	0.998564999999871	0	442253	235
864.81640625	1	taste	trialStart	2	117	57	foodImage.18	FOODEEG_Images\0202.jpg	YN	Right	No	2.71552460000021	0	442787	251
865.875	2	taste	foodImageDisplay	2	117	57	foodImage.18	FOODEEG_Images\0202.jpg	YN	Right	No	2.71552460000021	0	443329	252
867.9375	2.71552460000021	taste	choicePhaseStart	2	117	57	foodImage.18	FOODEEG_Images\0202.jpg	YN	Right	No	2.71552460000021	0	444385	253
870.64453125	0	taste	response	2	117	57	foodImage.18	FOODEEG_Images\0202.jpg	YN	Right	No	2.71552460000021	0	445771	235
871.6875	1	taste	trialStart	2	118	58	foodImage.19	FOODEEG_Images\0225.jpg	NY	Left	No	4.63724410000032	0	446305	251
872.728515625	2	taste	foodImageDisplay	2	118	58	foodImage.19	FOODEEG_Images\0225.jpg	NY	Left	No	4.63724410000032	0	446838	252
874.791015625	4.63724410000032	taste	choicePhaseStart	2	118	58	foodImage.19	FOODEEG_Images\0225.jpg	NY	Left	No	4.63724410000032	0	447894	253
879.419921875	0	taste	response	2	118	58	foodImage.19	FOODEEG_Images\0225.jpg	NY	Left	No	4.63724410000032	0	450264	234
880.46484375	1	decision	trialStart	2	119	59	foodImage.114	FOODEEG_Images\0922.jpg	YN	Right	No	1.12941169999976	0	450799	251
881.501953125	2	decision	foodImageDisplay	2	119	59	foodImage.114	FOODEEG_Images\0922.jpg	YN	Right	No	1.12941169999976	0	451330	252
883.5625	1.12941169999976	decision	choicePhaseStart	2	119	59	foodImage.114	FOODEEG_Images\0922.jpg	YN	Right	No	1.12941169999976	0	452385	253
884.681640625	0	decision	response	2	119	59	foodImage.114	FOODEEG_Images\0922.jpg	YN	Right	No	1.12941169999976	0	452958	235
885.7265625	1	decision	trialStart	2	120	60	foodImage.23	FOODEEG_Images\0244.jpg	NY	Right	Yes	2.23809579999943	0	453493	251
886.767578125	2	decision	foodImageDisplay	2	120	60	foodImage.23	FOODEEG_Images\0244.jpg	NY	Right	Yes	2.23809579999943	0	454026	252
888.830078125	2.23809579999943	decision	choicePhaseStart	2	120	60	foodImage.23	FOODEEG_Images\0244.jpg	NY	Right	Yes	2.23809579999943	0	455082	253
891.05859375	0	decision	response	2	120	60	foodImage.23	FOODEEG_Images\0244.jpg	NY	Right	Yes	2.23809579999943	0	456223	235
893.1015625	60.642578125	n/a	blockEnd	n/a	n/a	n/a	n/a	n/a	n/a	n/a	n/a	n/a	n/a	457269	254
953.744140625	2	n/a	blockStart	3	n/a	n/a	n/a	n/a	n/a	n/a	n/a	n/a	n/a	488318	250
955.77734375	1	decision	trialStart	3	121	1	foodImage.50	FOODEEG_Images\0529.jpg	YN	Left	Yes	1.76723499999935	0	489359	251
956.859375	2	decision	foodImageDisplay	3	121	1	foodImage.50	FOODEEG_Images\0529.jpg	YN	Left	Yes	1.76723499999935	0	489913	252
958.921875	1.76723499999935	decision	choicePhaseStart	3	121	1	foodImage.50	FOODEEG_Images\0529.jpg	YN	Left	Yes	1.76723499999935	0	490969	253
960.6796875	0	decision	response	3	121	1	foodImage.50	FOODEEG_Images\0529.jpg	YN	Left	Yes	1.76723499999935	0	491869	234
961.72265625	1	health	trialStart	3	122	2	foodImage.20	FOODEEG_Images\0226.jpg	YN	Right	No	1.17258680000123	0	492403	251
962.765625	2	health	foodImageDisplay	3	122	2	foodImage.20	FOODEEG_Images\0226.jpg	YN	Right	No	1.17258680000123	0	492937	252
964.830078125	1.17258680000123	health	choicePhaseStart	3	122	2	foodImage.20	FOODEEG_Images\0226.jpg	YN	Right	No	1.17258680000123	0	493994	253
965.9921875	0	health	response	3	122	2	foodImage.20	FOODEEG_Images\0226.jpg	YN	Right	No	1.17258680000123	0	494589	235
967.03515625	1	taste	trialStart	3	123	3	foodImage.75	FOODEEG_Images\0763.jpg	YN	Left	Yes	0.980003599999691	0	495123	251
968.078125	2	taste	foodImageDisplay	3	123	3	foodImage.75	FOODEEG_Images\0763.jpg	YN	Left	Yes	0.980003599999691	0	495657	252
970.140625	0.980003599999691	taste	choicePhaseStart	3	123	3	foodImage.75	FOODEEG_Images\0763.jpg	YN	Left	Yes	0.980003599999691	0	496713	253
971.111328125	0	taste	response	3	123	3	foodImage.75	FOODEEG_Images\0763.jpg	YN	Left	Yes	0.980003599999691	0	497210	234
972.154296875	1	decision	trialStart	3	124	4	foodImage.77	FOODEEG_Images\0771.jpg	YN	Left	Yes	1.74691480000001	0	497744	251
973.197265625	2	decision	foodImageDisplay	3	124	4	foodImage.77	FOODEEG_Images\0771.jpg	YN	Left	Yes	1.74691480000001	0	498278	252
975.26171875	1.74691480000001	decision	choicePhaseStart	3	124	4	foodImage.77	FOODEEG_Images\0771.jpg	YN	Left	Yes	1.74691480000001	0	499335	253
977	0	decision	response	3	124	4	foodImage.77	FOODEEG_Images\0771.jpg	YN	Left	Yes	1.74691480000001	0	500225	234
978.04296875	1	health	trialStart	3	125	5	foodImage.87	FOODEEG_Images\0873.jpg	YN	Left	Yes	3.89280719999988	0	500759	251
979.1015625	2	health	foodImageDisplay	3	125	5	foodImage.87	FOODEEG_Images\0873.jpg	YN	Left	Yes	3.89280719999988	0	501301	252
981.1640625	3.89280719999988	health	choicePhaseStart	3	125	5	foodImage.87	FOODEEG_Images\0873.jpg	YN	Left	Yes	3.89280719999988	0	502357	253
985.046875	0	health	response	3	125	5	foodImage.87	FOODEEG_Images\0873.jpg	YN	Left	Yes	3.89280719999988	0	504345	234
986.08984375	1	taste	trialStart	3	126	6	foodImage.15	FOODEEG_Images\0189.jpg	YN	Left	Yes	1.03640690000066	0	504879	251
987.1484375	2	taste	foodImageDisplay	3	126	6	foodImage.15	FOODEEG_Images\0189.jpg	YN	Left	Yes	1.03640690000066	0	505421	252
989.2109375	1.03640690000066	taste	choicePhaseStart	3	126	6	foodImage.15	FOODEEG_Images\0189.jpg	YN	Left	Yes	1.03640690000066	0	506477	253
990.23828125	0	taste	response	3	126	6	foodImage.15	FOODEEG_Images\0189.jpg	YN	Left	Yes	1.03640690000066	0	507003	234
991.28125	1	taste	trialStart	3	127	7	foodImage.3	FOODEEG_Images\0046.jpg	NY	Right	Yes	1.30160050000086	0	507537	251
992.32421875	2	taste	foodImageDisplay	3	127	7	foodImage.3	FOODEEG_Images\0046.jpg	NY	Right	Yes	1.30160050000086	0	508071	252
994.38671875	1.30160050000086	taste	choicePhaseStart	3	127	7	foodImage.3	FOODEEG_Images\0046.jpg	NY	Right	Yes	1.30160050000086	0	509127	253
995.677734375	0	taste	response	3	127	7	foodImage.3	FOODEEG_Images\0046.jpg	NY	Right	Yes	1.30160050000086	0	509788	235
996.7265625	1	taste	trialStart	3	128	8	foodImage.104	FOODEEG_Images\0912.jpg	YN	Left	Yes	0.986919599999965	0	510325	251
997.765625	2	taste	foodImageDisplay	3	128	8	foodImage.104	FOODEEG_Images\0912.jpg	YN	Left	Yes	0.986919599999965	0	510857	252
999.828125	0.986919599999965	taste	choicePhaseStart	3	128	8	foodImage.104	FOODEEG_Images\0912.jpg	YN	Left	Yes	0.986919599999965	0	511913	253
1000.806640625	0	taste	response	3	128	8	foodImage.104	FOODEEG_Images\0912.jpg	YN	Left	Yes	0.986919599999965	0	512414	234
1001.849609375	1	decision	trialStart	3	129	9	foodImage.63	FOODEEG_Images\0645.jpg	NY	Right	Yes	1.28415290000157	0	512948	251
1002.892578125	2	decision	foodImageDisplay	3	129	9	foodImage.63	FOODEEG_Images\0645.jpg	NY	Right	Yes	1.28415290000157	0	513482	252
1004.955078125	1.28415290000157	decision	choicePhaseStart	3	129	9	foodImage.63	FOODEEG_Images\0645.jpg	NY	Right	Yes	1.28415290000157	0	514538	253
1006.23046875	0	decision	response	3	129	9	foodImage.63	FOODEEG_Images\0645.jpg	NY	Right	Yes	1.28415290000157	0	515191	235
1007.275390625	1	taste	trialStart	3	130	10	foodImage.103	FOODEEG_Images\0911.jpg	YN	Left	Yes	2.59238670000013	0	515726	251
1008.3125	2	taste	foodImageDisplay	3	130	10	foodImage.103	FOODEEG_Images\0911.jpg	YN	Left	Yes	2.59238670000013	0	516257	252
1010.375	2.59238670000013	taste	choicePhaseStart	3	130	10	foodImage.103	FOODEEG_Images\0911.jpg	YN	Left	Yes	2.59238670000013	0	517313	253
1012.95703125	0	taste	response	3	130	10	foodImage.103	FOODEEG_Images\0911.jpg	YN	Left	Yes	2.59238670000013	0	518635	234
1014	1	decision	trialStart	3	131	11	foodImage.22	FOODEEG_Images\0236.jpg	NY	Right	Yes	1.02458289999959	0	519169	251
1015.041015625	2	decision	foodImageDisplay	3	131	11	foodImage.22	FOODEEG_Images\0236.jpg	NY	Right	Yes	1.02458289999959	0	519702	252
1017.103515625	1.02458289999959	decision	choicePhaseStart	3	131	11	foodImage.22	FOODEEG_Images\0236.jpg	NY	Right	Yes	1.02458289999959	0	520758	253
1018.1171875	0	decision	response	3	131	11	foodImage.22	FOODEEG_Images\0236.jpg	NY	Right	Yes	1.02458289999959	0	521277	235
1019.16015625	1	health	trialStart	3	132	12	foodImage.57	FOODEEG_Images\0587.jpg	YN	Right	No	1.44346210000003	0	521811	251
1020.205078125	2	health	foodImageDisplay	3	132	12	foodImage.57	FOODEEG_Images\0587.jpg	YN	Right	No	1.44346210000003	0	522346	252
1022.267578125	1.44346210000003	health	choicePhaseStart	3	132	12	foodImage.57	FOODEEG_Images\0587.jpg	YN	Right	No	1.44346210000003	0	523402	253
1023.701171875	0	health	response	3	132	12	foodImage.57	FOODEEG_Images\0587.jpg	YN	Right	No	1.44346210000003	0	524136	235
1024.74609375	1	decision	trialStart	3	133	13	foodImage.96	FOODEEG_Images\0904.jpg	NY	Right	Yes	1.50310309999986	0	524671	251
1025.783203125	2	decision	foodImageDisplay	3	133	13	foodImage.96	FOODEEG_Images\0904.jpg	NY	Right	Yes	1.50310309999986	0	525202	252
1027.845703125	1.50310309999986	decision	choicePhaseStart	3	133	13	foodImage.96	FOODEEG_Images\0904.jpg	NY	Right	Yes	1.50310309999986	0	526258	253
1029.341796875	0	decision	response	3	133	13	foodImage.96	FOODEEG_Images\0904.jpg	NY	Right	Yes	1.50310309999986	0	527024	235
1030.3828125	1	decision	trialStart	3	134	14	foodImage.97	FOODEEG_Images\0905.jpg	NY	Left	No	0.825435099999595	0	527557	251
1031.421875	2	decision	foodImageDisplay	3	134	14	foodImage.97	FOODEEG_Images\0905.jpg	NY	Left	No	0.825435099999595	0	528089	252
1033.484375	0.825435099999595	decision	choicePhaseStart	3	134	14	foodImage.97	FOODEEG_Images\0905.jpg	NY	Left	No	0.825435099999595	0	529145	253
1034.30078125	0	decision	response	3	134	14	foodImage.97	FOODEEG_Images\0905.jpg	NY	Left	No	0.825435099999595	0	529563	234
1035.34375	1	decision	trialStart	3	135	15	foodImage.119	FOODEEG_Images\0927.jpg	NY	Left	No	0.753418899999815	0	530097	251
1036.3828125	2	decision	foodImageDisplay	3	135	15	foodImage.119	FOODEEG_Images\0927.jpg	NY	Left	No	0.753418899999815	0	530629	252
1038.4453125	0.753418899999815	decision	choicePhaseStart	3	135	15	foodImage.119	FOODEEG_Images\0927.jpg	NY	Left	No	0.753418899999815	0	531685	253
1039.189453125	0	decision	response	3	135	15	foodImage.119	FOODEEG_Images\0927.jpg	NY	Left	No	0.753418899999815	0	532066	234
1040.232421875	1	taste	trialStart	3	136	16	foodImage.115	FOODEEG_Images\0923.jpg	NY	Left	No	1.32560590000139	0	532600	251
1041.2734375	2	taste	foodImageDisplay	3	136	16	foodImage.115	FOODEEG_Images\0923.jpg	NY	Left	No	1.32560590000139	0	533133	252
1043.3359375	1.32560590000139	taste	choicePhaseStart	3	136	16	foodImage.115	FOODEEG_Images\0923.jpg	NY	Left	No	1.32560590000139	0	534189	253
1044.65234375	0	taste	response	3	136	16	foodImage.115	FOODEEG_Images\0923.jpg	NY	Left	No	1.32560590000139	0	534863	234
1045.6953125	1	decision	trialStart	3	137	17	foodImage.4	FOODEEG_Images\0065.jpg	NY	Right	Yes	0.88161559999935	0	535397	251
1046.755859375	2	decision	foodImageDisplay	3	137	17	foodImage.4	FOODEEG_Images\0065.jpg	NY	Right	Yes	0.88161559999935	0	535940	252
1048.8203125	0.88161559999935	decision	choicePhaseStart	3	137	17	foodImage.4	FOODEEG_Images\0065.jpg	NY	Right	Yes	0.88161559999935	0	536997	253
1049.69140625	0	decision	response	3	137	17	foodImage.4	FOODEEG_Images\0065.jpg	NY	Right	Yes	0.88161559999935	0	537443	235
1050.736328125	1	health	trialStart	3	138	18	foodImage.64	FOODEEG_Images\0647.jpg	YN	Left	Yes	1.16417010000077	0	537978	251
1051.794921875	2	health	foodImageDisplay	3	138	18	foodImage.64	FOODEEG_Images\0647.jpg	YN	Left	Yes	1.16417010000077	0	538520	252
1053.857421875	1.16417010000077	health	choicePhaseStart	3	138	18	foodImage.64	FOODEEG_Images\0647.jpg	YN	Left	Yes	1.16417010000077	0	539576	253
1055.01171875	0	health	response	3	138	18	foodImage.64	FOODEEG_Images\0647.jpg	YN	Left	Yes	1.16417010000077	0	540167	234
1056.0546875	1	taste	trialStart	3	139	19	foodImage.45	FOODEEG_Images\0478.jpg	NY	Right	Yes	0.754520800001046	0	540701	251
1057.099609375	2	taste	foodImageDisplay	3	139	19	foodImage.45	FOODEEG_Images\0478.jpg	NY	Right	Yes	0.754520800001046	0	541236	252
1059.162109375	0.754520800001046	taste	choicePhaseStart	3	139	19	foodImage.45	FOODEEG_Images\0478.jpg	NY	Right	Yes	0.754520800001046	0	542292	253
1059.908203125	0	taste	response	3	139	19	foodImage.45	FOODEEG_Images\0478.jpg	NY	Right	Yes	0.754520800001046	0	542674	235
1060.951171875	1	taste	trialStart	3	140	20	foodImage.34	FOODEEG_Images\0339.jpg	YN	Left	Yes	1.00579110000035	0	543208	251
1062.0078125	2	taste	foodImageDisplay	3	140	20	foodImage.34	FOODEEG_Images\0339.jpg	YN	Left	Yes	1.00579110000035	0	543749	252
1064.0703125	1.00579110000035	taste	choicePhaseStart	3	140	20	foodImage.34	FOODEEG_Images\0339.jpg	YN	Left	Yes	1.00579110000035	0	544805	253
1065.068359375	0	taste	response	3	140	20	foodImage.34	FOODEEG_Images\0339.jpg	YN	Left	Yes	1.00579110000035	0	545316	234
1066.111328125	1	health	trialStart	3	141	21	foodImage.112	FOODEEG_Images\0920.jpg	NY	Right	Yes	2.6541715000003	0	545850	251
1067.16796875	2	health	foodImageDisplay	3	141	21	foodImage.112	FOODEEG_Images\0920.jpg	NY	Right	Yes	2.6541715000003	0	546391	252
1069.23046875	2.6541715000003	health	choicePhaseStart	3	141	21	foodImage.112	FOODEEG_Images\0920.jpg	NY	Right	Yes	2.6541715000003	0	547447	253
1071.875	0	health	response	3	141	21	foodImage.112	FOODEEG_Images\0920.jpg	NY	Right	Yes	2.6541715000003	0	548801	235
1072.91796875	1	decision	trialStart	3	142	22	foodImage.16	FOODEEG_Images\0196.jpg	NY	Right	Yes	0.951376500001061	0	549335	251
1073.998046875	2	decision	foodImageDisplay	3	142	22	foodImage.16	FOODEEG_Images\0196.jpg	NY	Right	Yes	0.951376500001061	0	549888	252
1076.060546875	0.951376500001061	decision	choicePhaseStart	3	142	22	foodImage.16	FOODEEG_Images\0196.jpg	NY	Right	Yes	0.951376500001061	0	550944	253
1077.00390625	0	decision	response	3	142	22	foodImage.16	FOODEEG_Images\0196.jpg	NY	Right	Yes	0.951376500001061	0	551427	235
1078.046875	1	decision	trialStart	3	143	23	foodImage.21	FOODEEG_Images\0234.jpg	NY	Right	Yes	1.03797879999911	0	551961	251
1079.103515625	2	decision	foodImageDisplay	3	143	23	foodImage.21	FOODEEG_Images\0234.jpg	NY	Right	Yes	1.03797879999911	0	552502	252
1081.166015625	1.03797879999911	decision	choicePhaseStart	3	143	23	foodImage.21	FOODEEG_Images\0234.jpg	NY	Right	Yes	1.03797879999911	0	553558	253
1082.1953125	0	decision	response	3	143	23	foodImage.21	FOODEEG_Images\0234.jpg	NY	Right	Yes	1.03797879999911	0	554085	235
1083.23828125	1	health	trialStart	3	144	24	foodImage.94	FOODEEG_Images\0902.jpg	NY	Right	Yes	0.674513600000864	0	554619	251
1084.291015625	2	health	foodImageDisplay	3	144	24	foodImage.94	FOODEEG_Images\0902.jpg	NY	Right	Yes	0.674513600000864	0	555158	252
1086.353515625	0.674513600000864	health	choicePhaseStart	3	144	24	foodImage.94	FOODEEG_Images\0902.jpg	NY	Right	Yes	0.674513600000864	0	556214	253
1087.01953125	0	health	response	3	144	24	foodImage.94	FOODEEG_Images\0902.jpg	NY	Right	Yes	0.674513600000864	0	556555	235
1088.060546875	1	taste	trialStart	3	145	25	foodImage.33	FOODEEG_Images\0329.jpg	NY	Right	Yes	0.96913080000013	0	557088	251
1089.125	2	taste	foodImageDisplay	3	145	25	foodImage.33	FOODEEG_Images\0329.jpg	NY	Right	Yes	0.96913080000013	0	557633	252
1091.1875	0.96913080000013	taste	choicePhaseStart	3	145	25	foodImage.33	FOODEEG_Images\0329.jpg	NY	Right	Yes	0.96913080000013	0	558689	253
1092.146484375	0	taste	response	3	145	25	foodImage.33	FOODEEG_Images\0329.jpg	NY	Right	Yes	0.96913080000013	0	559180	235
1093.189453125	1	health	trialStart	3	146	26	foodImage.32	FOODEEG_Images\0319.jpg	YN	Left	Yes	1.87836939999943	0	559714	251
1094.23046875	2	health	foodImageDisplay	3	146	26	foodImage.32	FOODEEG_Images\0319.jpg	YN	Left	Yes	1.87836939999943	0	560247	252
1096.29296875	1.87836939999943	health	choicePhaseStart	3	146	26	foodImage.32	FOODEEG_Images\0319.jpg	YN	Left	Yes	1.87836939999943	0	561303	253
1098.162109375	0	health	response	3	146	26	foodImage.32	FOODEEG_Images\0319.jpg	YN	Left	Yes	1.87836939999943	0	562260	234
1099.205078125	1	decision	trialStart	3	147	27	foodImage.41	FOODEEG_Images\0409.jpg	NY	Right	Yes	0.98670839999977	0	562794	251
1100.25	2	decision	foodImageDisplay	3	147	27	foodImage.41	FOODEEG_Images\0409.jpg	NY	Right	Yes	0.98670839999977	0	563329	252
1102.3125	0.98670839999977	decision	choicePhaseStart	3	147	27	foodImage.41	FOODEEG_Images\0409.jpg	NY	Right	Yes	0.98670839999977	0	564385	253
1103.2890625	0	decision	response	3	147	27	foodImage.41	FOODEEG_Images\0409.jpg	NY	Right	Yes	0.98670839999977	0	564885	235
1104.333984375	1	taste	trialStart	3	148	28	foodImage.42	FOODEEG_Images\0438.jpg	YN	Right	No	2.746564699999	0	565420	251
1105.42578125	2	taste	foodImageDisplay	3	148	28	foodImage.42	FOODEEG_Images\0438.jpg	YN	Right	No	2.746564699999	0	565979	252
1107.48828125	2.746564699999	taste	choicePhaseStart	3	148	28	foodImage.42	FOODEEG_Images\0438.jpg	YN	Right	No	2.746564699999	0	567035	253
1110.2265625	0	taste	response	3	148	28	foodImage.42	FOODEEG_Images\0438.jpg	YN	Right	No	2.746564699999	0	568437	235
1111.26953125	1	decision	trialStart	3	149	29	foodImage.34	FOODEEG_Images\0339.jpg	NY	Right	Yes	1.19422989999839	0	568971	251
1112.328125	2	decision	foodImageDisplay	3	149	29	foodImage.34	FOODEEG_Images\0339.jpg	NY	Right	Yes	1.19422989999839	0	569513	252
1114.392578125	1.19422989999839	decision	choicePhaseStart	3	149	29	foodImage.34	FOODEEG_Images\0339.jpg	NY	Right	Yes	1.19422989999839	0	570570	253
1115.578125	0	decision	response	3	149	29	foodImage.34	FOODEEG_Images\0339.jpg	NY	Right	Yes	1.19422989999839	0	571177	235
1116.62109375	1	health	trialStart	3	150	30	foodImage.51	FOODEEG_Images\0536.jpg	YN	Right	No	3.82004340000094	0	571711	251
1117.6640625	2	health	foodImageDisplay	3	150	30	foodImage.51	FOODEEG_Images\0536.jpg	YN	Right	No	3.82004340000094	0	572245	252
1119.7265625	3.82004340000094	health	choicePhaseStart	3	150	30	foodImage.51	FOODEEG_Images\0536.jpg	YN	Right	No	3.82004340000094	0	573301	253
1123.537109375	0	health	response	3	150	30	foodImage.51	FOODEEG_Images\0536.jpg	YN	Right	No	3.82004340000094	0	575252	235
1124.580078125	1	decision	trialStart	3	151	31	foodImage.79	FOODEEG_Images\0794.jpg	NY	Left	No	1.43123360000027	0	575786	251
1125.642578125	2	decision	foodImageDisplay	3	151	31	foodImage.79	FOODEEG_Images\0794.jpg	NY	Left	No	1.43123360000027	0	576330	252
1127.70703125	1.43123360000027	decision	choicePhaseStart	3	151	31	foodImage.79	FOODEEG_Images\0794.jpg	NY	Left	No	1.43123360000027	0	577387	253
1129.12890625	0	decision	response	3	151	31	foodImage.79	FOODEEG_Images\0794.jpg	NY	Left	No	1.43123360000027	0	578115	234
1130.171875	1	health	trialStart	3	152	32	foodImage.58	FOODEEG_Images\0605.jpg	YN	Left	Yes	0.763375299999097	0	578649	251
1131.232421875	2	health	foodImageDisplay	3	152	32	foodImage.58	FOODEEG_Images\0605.jpg	YN	Left	Yes	0.763375299999097	0	579192	252
1133.294921875	0.763375299999097	health	choicePhaseStart	3	152	32	foodImage.58	FOODEEG_Images\0605.jpg	YN	Left	Yes	0.763375299999097	0	580248	253
1134.048828125	0	health	response	3	152	32	foodImage.58	FOODEEG_Images\0605.jpg	YN	Left	Yes	0.763375299999097	0	580634	234
1135.091796875	1	health	trialStart	3	153	33	foodImage.59	FOODEEG_Images\0607.jpg	YN	Left	Yes	3.48986119999972	0	581168	251
1136.13671875	2	health	foodImageDisplay	3	153	33	foodImage.59	FOODEEG_Images\0607.jpg	YN	Left	Yes	3.48986119999972	0	581703	252
1138.19921875	3.48986119999972	health	choicePhaseStart	3	153	33	foodImage.59	FOODEEG_Images\0607.jpg	YN	Left	Yes	3.48986119999972	0	582759	253
1141.6796875	0	health	response	3	153	33	foodImage.59	FOODEEG_Images\0607.jpg	YN	Left	Yes	3.48986119999972	0	584541	234
1142.724609375	1	taste	trialStart	3	154	34	foodImage.72	FOODEEG_Images\0714.jpg	YN	Left	Yes	0.859662200000457	0	585076	251
1143.767578125	2	taste	foodImageDisplay	3	154	34	foodImage.72	FOODEEG_Images\0714.jpg	YN	Left	Yes	0.859662200000457	0	585610	252
1145.830078125	0.859662200000457	taste	choicePhaseStart	3	154	34	foodImage.72	FOODEEG_Images\0714.jpg	YN	Left	Yes	0.859662200000457	0	586666	253
1146.6796875	0	taste	response	3	154	34	foodImage.72	FOODEEG_Images\0714.jpg	YN	Left	Yes	0.859662200000457	0	587101	234
1147.72265625	1	health	trialStart	3	155	35	foodImage.101	FOODEEG_Images\0909.jpg	YN	Right	No	1.163142899999	0	587635	251
1148.759765625	2	health	foodImageDisplay	3	155	35	foodImage.101	FOODEEG_Images\0909.jpg	YN	Right	No	1.163142899999	0	588166	252
1150.822265625	1.163142899999	health	choicePhaseStart	3	155	35	foodImage.101	FOODEEG_Images\0909.jpg	YN	Right	No	1.163142899999	0	589222	253
1151.9765625	0	health	response	3	155	35	foodImage.101	FOODEEG_Images\0909.jpg	YN	Right	No	1.163142899999	0	589813	235
1153.017578125	1	decision	trialStart	3	156	36	foodImage.82	FOODEEG_Images\0805.jpg	NY	Right	Yes	0.908754500000214	0	590346	251
1154.078125	2	decision	foodImageDisplay	3	156	36	foodImage.82	FOODEEG_Images\0805.jpg	NY	Right	Yes	0.908754500000214	0	590889	252
1156.140625	0.908754500000214	decision	choicePhaseStart	3	156	36	foodImage.82	FOODEEG_Images\0805.jpg	NY	Right	Yes	0.908754500000214	0	591945	253
1157.0390625	0	decision	response	3	156	36	foodImage.82	FOODEEG_Images\0805.jpg	NY	Right	Yes	0.908754500000214	0	592405	235
1158.083984375	1	health	trialStart	3	157	37	foodImage.93	FOODEEG_Images\0901.jpg	YN	Left	Yes	0.783672599998681	0	592940	251
1159.123046875	2	health	foodImageDisplay	3	157	37	foodImage.93	FOODEEG_Images\0901.jpg	YN	Left	Yes	0.783672599998681	0	593472	252
1161.185546875	0.783672599998681	health	choicePhaseStart	3	157	37	foodImage.93	FOODEEG_Images\0901.jpg	YN	Left	Yes	0.783672599998681	0	594528	253
1161.958984375	0	health	response	3	157	37	foodImage.93	FOODEEG_Images\0901.jpg	YN	Left	Yes	0.783672599998681	0	594924	234
1163.005859375	1	taste	trialStart	3	158	38	foodImage.16	FOODEEG_Images\0196.jpg	YN	Left	Yes	0.880635400000756	0	595460	251
1164.064453125	2	taste	foodImageDisplay	3	158	38	foodImage.16	FOODEEG_Images\0196.jpg	YN	Left	Yes	0.880635400000756	0	596002	252
1166.12890625	0.880635400000756	taste	choicePhaseStart	3	158	38	foodImage.16	FOODEEG_Images\0196.jpg	YN	Left	Yes	0.880635400000756	0	597059	253
1167	0	taste	response	3	158	38	foodImage.16	FOODEEG_Images\0196.jpg	YN	Left	Yes	0.880635400000756	0	597505	234
1168.04296875	1	decision	trialStart	3	159	39	foodImage.118	FOODEEG_Images\0926.jpg	NY	Left	No	1.0292587999993	0	598039	251
1169.08203125	2	decision	foodImageDisplay	3	159	39	foodImage.118	FOODEEG_Images\0926.jpg	NY	Left	No	1.0292587999993	0	598571	252
1171.1484375	1.0292587999993	decision	choicePhaseStart	3	159	39	foodImage.118	FOODEEG_Images\0926.jpg	NY	Left	No	1.0292587999993	0	599629	253
1172.16796875	0	decision	response	3	159	39	foodImage.118	FOODEEG_Images\0926.jpg	NY	Left	No	1.0292587999993	0	600151	234
1173.208984375	1	decision	trialStart	3	160	40	foodImage.61	FOODEEG_Images\0640.jpg	YN	Left	Yes	0.990277299999434	0	600684	251
1174.251953125	2	decision	foodImageDisplay	3	160	40	foodImage.61	FOODEEG_Images\0640.jpg	YN	Left	Yes	0.990277299999434	0	601218	252
1176.314453125	0.990277299999434	decision	choicePhaseStart	3	160	40	foodImage.61	FOODEEG_Images\0640.jpg	YN	Left	Yes	0.990277299999434	0	602274	253
1177.296875	0	decision	response	3	160	40	foodImage.61	FOODEEG_Images\0640.jpg	YN	Left	Yes	0.990277299999434	0	602777	234
1178.33984375	1	decision	trialStart	3	161	41	foodImage.99	FOODEEG_Images\0907.jpg	NY	Right	Yes	0.704069200000959	0	603311	251
1179.376953125	2	decision	foodImageDisplay	3	161	41	foodImage.99	FOODEEG_Images\0907.jpg	NY	Right	Yes	0.704069200000959	0	603842	252
1181.44140625	0.704069200000959	decision	choicePhaseStart	3	161	41	foodImage.99	FOODEEG_Images\0907.jpg	NY	Right	Yes	0.704069200000959	0	604899	253
1182.134765625	0	decision	response	3	161	41	foodImage.99	FOODEEG_Images\0907.jpg	NY	Right	Yes	0.704069200000959	0	605254	235
1183.177734375	1	taste	trialStart	3	162	42	foodImage.28	FOODEEG_Images\0273.jpg	NY	Left	No	2.24728239999968	0	605788	251
1184.21875	2	taste	foodImageDisplay	3	162	42	foodImage.28	FOODEEG_Images\0273.jpg	NY	Left	No	2.24728239999968	0	606321	252
1186.28125	2.24728239999968	taste	choicePhaseStart	3	162	42	foodImage.28	FOODEEG_Images\0273.jpg	NY	Left	No	2.24728239999968	0	607377	253
1188.51953125	0	taste	response	3	162	42	foodImage.28	FOODEEG_Images\0273.jpg	NY	Left	No	2.24728239999968	0	608523	234
1189.5625	1	decision	trialStart	3	163	43	foodImage.53	FOODEEG_Images\0547.jpg	NY	Right	Yes	0.867712699999174	0	609057	251
1190.62109375	2	decision	foodImageDisplay	3	163	43	foodImage.53	FOODEEG_Images\0547.jpg	NY	Right	Yes	0.867712699999174	0	609599	252
1192.68359375	0.867712699999174	decision	choicePhaseStart	3	163	43	foodImage.53	FOODEEG_Images\0547.jpg	NY	Right	Yes	0.867712699999174	0	610655	253
1193.54296875	0	decision	response	3	163	43	foodImage.53	FOODEEG_Images\0547.jpg	NY	Right	Yes	0.867712699999174	0	611095	235
1194.5859375	1	health	trialStart	3	164	44	foodImage.35	FOODEEG_Images\0350.jpg	NY	Left	No	2.12201129999994	0	611629	251
1195.623046875	2	health	foodImageDisplay	3	164	44	foodImage.35	FOODEEG_Images\0350.jpg	NY	Left	No	2.12201129999994	0	612160	252
1197.685546875	2.12201129999994	health	choicePhaseStart	3	164	44	foodImage.35	FOODEEG_Images\0350.jpg	NY	Left	No	2.12201129999994	0	613216	253
1199.798828125	0	health	response	3	164	44	foodImage.35	FOODEEG_Images\0350.jpg	NY	Left	No	2.12201129999994	0	614298	234
1200.837890625	1	taste	trialStart	3	165	45	foodImage.52	FOODEEG_Images\0539.jpg	NY	Left	No	1.87638329999936	0	614830	251
1201.892578125	2	taste	foodImageDisplay	3	165	45	foodImage.52	FOODEEG_Images\0539.jpg	NY	Left	No	1.87638329999936	0	615370	252
1203.955078125	1.87638329999936	taste	choicePhaseStart	3	165	45	foodImage.52	FOODEEG_Images\0539.jpg	NY	Left	No	1.87638329999936	0	616426	253
1205.822265625	0	taste	response	3	165	45	foodImage.52	FOODEEG_Images\0539.jpg	NY	Left	No	1.87638329999936	0	617382	234
1206.875	1	health	trialStart	3	166	46	foodImage.7	FOODEEG_Images\0116.jpg	YN	Right	No	2.33691960000033	0	617921	251
1207.935546875	2	health	foodImageDisplay	3	166	46	foodImage.7	FOODEEG_Images\0116.jpg	YN	Right	No	2.33691960000033	0	618464	252
1209.998046875	2.33691960000033	health	choicePhaseStart	3	166	46	foodImage.7	FOODEEG_Images\0116.jpg	YN	Right	No	2.33691960000033	0	619520	253
1212.326171875	0	health	response	3	166	46	foodImage.7	FOODEEG_Images\0116.jpg	YN	Right	No	2.33691960000033	0	620712	235
1213.3671875	1	decision	trialStart	3	167	47	foodImage.117	FOODEEG_Images\0925.jpg	NY	Right	Yes	1.12171479999961	0	621245	251
1214.40625	2	decision	foodImageDisplay	3	167	47	foodImage.117	FOODEEG_Images\0925.jpg	NY	Right	Yes	1.12171479999961	0	621777	252
1216.46875	1.12171479999961	decision	choicePhaseStart	3	167	47	foodImage.117	FOODEEG_Images\0925.jpg	NY	Right	Yes	1.12171479999961	0	622833	253
1217.58203125	0	decision	response	3	167	47	foodImage.117	FOODEEG_Images\0925.jpg	NY	Right	Yes	1.12171479999961	0	623403	235
1218.623046875	1	decision	trialStart	3	168	48	foodImage.101	FOODEEG_Images\0909.jpg	NY	Left	No	1.76102149999861	0	623936	251
1219.6640625	2	decision	foodImageDisplay	3	168	48	foodImage.101	FOODEEG_Images\0909.jpg	NY	Left	No	1.76102149999861	0	624469	252
1221.7265625	1.76102149999861	decision	choicePhaseStart	3	168	48	foodImage.101	FOODEEG_Images\0909.jpg	NY	Left	No	1.76102149999861	0	625525	253
1223.478515625	0	decision	response	3	168	48	foodImage.101	FOODEEG_Images\0909.jpg	NY	Left	No	1.76102149999861	0	626422	234
1224.51953125	1	taste	trialStart	3	169	49	foodImage.30	FOODEEG_Images\0282.jpg	NY	Right	Yes	1.13072290000127	0	626955	251
1225.5625	2	taste	foodImageDisplay	3	169	49	foodImage.30	FOODEEG_Images\0282.jpg	NY	Right	Yes	1.13072290000127	0	627489	252
1227.625	1.13072290000127	taste	choicePhaseStart	3	169	49	foodImage.30	FOODEEG_Images\0282.jpg	NY	Right	Yes	1.13072290000127	0	628545	253
1228.75	0	taste	response	3	169	49	foodImage.30	FOODEEG_Images\0282.jpg	NY	Right	Yes	1.13072290000127	0	629121	235
1229.79296875	1	taste	trialStart	3	170	50	foodImage.87	FOODEEG_Images\0873.jpg	YN	Right	No	2.18853909999962	0	629655	251
1230.8515625	2	taste	foodImageDisplay	3	170	50	foodImage.87	FOODEEG_Images\0873.jpg	YN	Right	No	2.18853909999962	0	630197	252
1232.9140625	2.18853909999962	taste	choicePhaseStart	3	170	50	foodImage.87	FOODEEG_Images\0873.jpg	YN	Right	No	2.18853909999962	0	631253	253
1235.09375	0	taste	response	3	170	50	foodImage.87	FOODEEG_Images\0873.jpg	YN	Right	No	2.18853909999962	0	632369	235
1236.13671875	1	decision	trialStart	3	171	51	foodImage.11	FOODEEG_Images\0180.jpg	NY	Right	Yes	0.828256300001158	0	632903	251
1237.1796875	2	decision	foodImageDisplay	3	171	51	foodImage.11	FOODEEG_Images\0180.jpg	NY	Right	Yes	0.828256300001158	0	633437	252
1239.2421875	0.828256300001158	decision	choicePhaseStart	3	171	51	foodImage.11	FOODEEG_Images\0180.jpg	NY	Right	Yes	0.828256300001158	0	634493	253
1240.060546875	0	decision	response	3	171	51	foodImage.11	FOODEEG_Images\0180.jpg	NY	Right	Yes	0.828256300001158	0	634912	235
1241.103515625	1	taste	trialStart	3	172	52	foodImage.13	FOODEEG_Images\0183.jpg	NY	Left	No	0.857180699998935	0	635446	251
1242.166015625	2	taste	foodImageDisplay	3	172	52	foodImage.13	FOODEEG_Images\0183.jpg	NY	Left	No	0.857180699998935	0	635990	252
1244.228515625	0.857180699998935	taste	choicePhaseStart	3	172	52	foodImage.13	FOODEEG_Images\0183.jpg	NY	Left	No	0.857180699998935	0	637046	253
1245.076171875	0	taste	response	3	172	52	foodImage.13	FOODEEG_Images\0183.jpg	NY	Left	No	0.857180699998935	0	637480	234
1246.12109375	1	taste	trialStart	3	173	53	foodImage.106	FOODEEG_Images\0914.jpg	NY	Left	No	0.98601029999918	0	638015	251
1247.16015625	2	taste	foodImageDisplay	3	173	53	foodImage.106	FOODEEG_Images\0914.jpg	NY	Left	No	0.98601029999918	0	638547	252
1249.2265625	0.98601029999918	taste	choicePhaseStart	3	173	53	foodImage.106	FOODEEG_Images\0914.jpg	NY	Left	No	0.98601029999918	0	639605	253
1250.205078125	0	taste	response	3	173	53	foodImage.106	FOODEEG_Images\0914.jpg	NY	Left	No	0.98601029999918	0	640106	234
1251.248046875	1	health	trialStart	3	174	54	foodImage.50	FOODEEG_Images\0529.jpg	YN	Left	Yes	1.39637210000001	0	640640	251
1252.306640625	2	health	foodImageDisplay	3	174	54	foodImage.50	FOODEEG_Images\0529.jpg	YN	Left	Yes	1.39637210000001	0	641182	252
1254.369140625	1.39637210000001	health	choicePhaseStart	3	174	54	foodImage.50	FOODEEG_Images\0529.jpg	YN	Left	Yes	1.39637210000001	0	642238	253
1255.7578125	0	health	response	3	174	54	foodImage.50	FOODEEG_Images\0529.jpg	YN	Left	Yes	1.39637210000001	0	642949	234
1256.8046875	1	decision	trialStart	3	175	55	foodImage.71	FOODEEG_Images\0713.jpg	YN	Left	Yes	1.14900579999994	0	643485	251
1257.84765625	2	decision	foodImageDisplay	3	175	55	foodImage.71	FOODEEG_Images\0713.jpg	YN	Left	Yes	1.14900579999994	0	644019	252
1259.912109375	1.14900579999994	decision	choicePhaseStart	3	175	55	foodImage.71	FOODEEG_Images\0713.jpg	YN	Left	Yes	1.14900579999994	0	645076	253
1261.052734375	0	decision	response	3	175	55	foodImage.71	FOODEEG_Images\0713.jpg	YN	Left	Yes	1.14900579999994	0	645660	234
1262.095703125	1	decision	trialStart	3	176	56	foodImage.51	FOODEEG_Images\0536.jpg	NY	Left	No	0.936914300000353	0	646194	251
1263.138671875	2	decision	foodImageDisplay	3	176	56	foodImage.51	FOODEEG_Images\0536.jpg	NY	Left	No	0.936914300000353	0	646728	252
1265.201171875	0.936914300000353	decision	choicePhaseStart	3	176	56	foodImage.51	FOODEEG_Images\0536.jpg	NY	Left	No	0.936914300000353	0	647784	253
1266.130859375	0	decision	response	3	176	56	foodImage.51	FOODEEG_Images\0536.jpg	NY	Left	No	0.936914300000353	0	648260	234
1267.173828125	1	taste	trialStart	3	177	57	foodImage.108	FOODEEG_Images\0916.jpg	YN	Left	Yes	1.26698530000067	0	648794	251
1268.212890625	2	taste	foodImageDisplay	3	177	57	foodImage.108	FOODEEG_Images\0916.jpg	YN	Left	Yes	1.26698530000067	0	649326	252
1270.275390625	1.26698530000067	taste	choicePhaseStart	3	177	57	foodImage.108	FOODEEG_Images\0916.jpg	YN	Left	Yes	1.26698530000067	0	650382	253
1271.53125	0	taste	response	3	177	57	foodImage.108	FOODEEG_Images\0916.jpg	YN	Left	Yes	1.26698530000067	0	651025	234
1272.576171875	1	health	trialStart	3	178	58	foodImage.10	FOODEEG_Images\0145.jpg	YN	Right	No	2.30982559999939	0	651560	251
1273.6328125	2	health	foodImageDisplay	3	178	58	foodImage.10	FOODEEG_Images\0145.jpg	YN	Right	No	2.30982559999939	0	652101	252
1275.6953125	2.30982559999939	health	choicePhaseStart	3	178	58	foodImage.10	FOODEEG_Images\0145.jpg	YN	Right	No	2.30982559999939	0	653157	253
1277.994140625	0	health	response	3	178	58	foodImage.10	FOODEEG_Images\0145.jpg	YN	Right	No	2.30982559999939	0	654334	235
1279.0390625	1	health	trialStart	3	179	59	foodImage.45	FOODEEG_Images\0478.jpg	NY	Right	Yes	3.03461299999981	0	654869	251
1280.083984375	2	health	foodImageDisplay	3	179	59	foodImage.45	FOODEEG_Images\0478.jpg	NY	Right	Yes	3.03461299999981	0	655404	252
1282.146484375	3.03461299999981	health	choicePhaseStart	3	179	59	foodImage.45	FOODEEG_Images\0478.jpg	NY	Right	Yes	3.03461299999981	0	656460	253
1285.171875	0	health	response	3	179	59	foodImage.45	FOODEEG_Images\0478.jpg	NY	Right	Yes	3.03461299999981	0	658009	235
1286.212890625	1	taste	trialStart	3	180	60	foodImage.71	FOODEEG_Images\0713.jpg	YN	Left	Yes	1.55005390000042	0	658542	251
1287.255859375	2	taste	foodImageDisplay	3	180	60	foodImage.71	FOODEEG_Images\0713.jpg	YN	Left	Yes	1.55005390000042	0	659076	252
1289.318359375	1.55005390000042	taste	choicePhaseStart	3	180	60	foodImage.71	FOODEEG_Images\0713.jpg	YN	Left	Yes	1.55005390000042	0	660132	253
1290.859375	0	taste	response	3	180	60	foodImage.71	FOODEEG_Images\0713.jpg	YN	Left	Yes	1.55005390000042	0	660921	234
1292.900390625	77.970703125	n/a	blockEnd	n/a	n/a	n/a	n/a	n/a	n/a	n/a	n/a	n/a	n/a	661966	254
1370.87109375	2	n/a	blockStart	4	n/a	n/a	n/a	n/a	n/a	n/a	n/a	n/a	n/a	701887	250
1372.904296875	1	decision	trialStart	4	181	1	foodImage.89	FOODEEG_Images\0881.jpg	YN	Left	Yes	3.05669359999956	0	702928	251
1373.9609375	2	decision	foodImageDisplay	4	181	1	foodImage.89	FOODEEG_Images\0881.jpg	YN	Left	Yes	3.05669359999956	0	703469	252
1376.0234375	3.05669359999956	decision	choicePhaseStart	4	181	1	foodImage.89	FOODEEG_Images\0881.jpg	YN	Left	Yes	3.05669359999956	0	704525	253
1379.072265625	0	decision	response	4	181	1	foodImage.89	FOODEEG_Images\0881.jpg	YN	Left	Yes	3.05669359999956	0	706086	234
1380.115234375	1	decision	trialStart	4	182	2	foodImage.1	FOODEEG_Images\0004.jpg	YN	Left	Yes	0.758404899999732	0	706620	251
1381.15625	2	decision	foodImageDisplay	4	182	2	foodImage.1	FOODEEG_Images\0004.jpg	YN	Left	Yes	0.758404899999732	0	707153	252
1383.21875	0.758404899999732	decision	choicePhaseStart	4	182	2	foodImage.1	FOODEEG_Images\0004.jpg	YN	Left	Yes	0.758404899999732	0	708209	253
1383.966796875	0	decision	response	4	182	2	foodImage.1	FOODEEG_Images\0004.jpg	YN	Left	Yes	0.758404899999732	0	708592	234
1385.009765625	1	health	trialStart	4	183	3	foodImage.89	FOODEEG_Images\0881.jpg	NY	Right	Yes	1.28803049999988	0	709126	251
1386.06640625	2	health	foodImageDisplay	4	183	3	foodImage.89	FOODEEG_Images\0881.jpg	NY	Right	Yes	1.28803049999988	0	709667	252
1388.12890625	1.28803049999988	health	choicePhaseStart	4	183	3	foodImage.89	FOODEEG_Images\0881.jpg	NY	Right	Yes	1.28803049999988	0	710723	253
1389.408203125	0	health	response	4	183	3	foodImage.89	FOODEEG_Images\0881.jpg	NY	Right	Yes	1.28803049999988	0	711378	235
1390.451171875	1	taste	trialStart	4	184	4	foodImage.60	FOODEEG_Images\0614.jpg	NY	Right	Yes	0.810444000000643	0	711912	251
1391.509765625	2	taste	foodImageDisplay	4	184	4	foodImage.60	FOODEEG_Images\0614.jpg	NY	Right	Yes	0.810444000000643	0	712454	252
1393.57421875	0.810444000000643	taste	choicePhaseStart	4	184	4	foodImage.60	FOODEEG_Images\0614.jpg	NY	Right	Yes	0.810444000000643	0	713511	253
1394.375	0	taste	response	4	184	4	foodImage.60	FOODEEG_Images\0614.jpg	NY	Right	Yes	0.810444000000643	0	713921	235
1395.41796875	1	decision	trialStart	4	185	5	foodImage.17	FOODEEG_Images\0199.jpg	NY	Right	Yes	1.84906329999831	0	714455	251
1396.46484375	2	decision	foodImageDisplay	4	185	5	foodImage.17	FOODEEG_Images\0199.jpg	NY	Right	Yes	1.84906329999831	0	714991	252
1398.52734375	1.84906329999831	decision	choicePhaseStart	4	185	5	foodImage.17	FOODEEG_Images\0199.jpg	NY	Right	Yes	1.84906329999831	0	716047	253
1400.3671875	0	decision	response	4	185	5	foodImage.17	FOODEEG_Images\0199.jpg	NY	Right	Yes	1.84906329999831	0	716989	235
1401.41015625	1	health	trialStart	4	186	6	foodImage.37	FOODEEG_Images\0359.jpg	YN	Left	Yes	1.38788059999933	0	717523	251
1402.451171875	2	health	foodImageDisplay	4	186	6	foodImage.37	FOODEEG_Images\0359.jpg	YN	Left	Yes	1.38788059999933	0	718056	252
1404.515625	1.38788059999933	health	choicePhaseStart	4	186	6	foodImage.37	FOODEEG_Images\0359.jpg	YN	Left	Yes	1.38788059999933	0	719113	253
1405.89453125	0	health	response	4	186	6	foodImage.37	FOODEEG_Images\0359.jpg	YN	Left	Yes	1.38788059999933	0	719819	234
1406.935546875	1	decision	trialStart	4	187	7	foodImage.30	FOODEEG_Images\0282.jpg	NY	Right	Yes	0.844123499999114	0	720352	251
1407.994140625	2	decision	foodImageDisplay	4	187	7	foodImage.30	FOODEEG_Images\0282.jpg	NY	Right	Yes	0.844123499999114	0	720894	252
1410.05859375	0.844123499999114	decision	choicePhaseStart	4	187	7	foodImage.30	FOODEEG_Images\0282.jpg	NY	Right	Yes	0.844123499999114	0	721951	253
1410.89453125	0	decision	response	4	187	7	foodImage.30	FOODEEG_Images\0282.jpg	NY	Right	Yes	0.844123499999114	0	722379	235
1411.9375	1	taste	trialStart	4	188	8	foodImage.26	FOODEEG_Images\0262.jpg	YN	Right	No	1.14170139999987	0	722913	251
1412.98046875	2	taste	foodImageDisplay	4	188	8	foodImage.26	FOODEEG_Images\0262.jpg	YN	Right	No	1.14170139999987	0	723447	252
1415.041015625	1.14170139999987	taste	choicePhaseStart	4	188	8	foodImage.26	FOODEEG_Images\0262.jpg	YN	Right	No	1.14170139999987	0	724502	253
1416.173828125	0	taste	response	4	188	8	foodImage.26	FOODEEG_Images\0262.jpg	YN	Right	No	1.14170139999987	0	725082	235
1417.216796875	1	taste	trialStart	4	189	9	foodImage.89	FOODEEG_Images\0881.jpg	YN	Left	Yes	1.09592650000013	0	725616	251
1418.2734375	2	taste	foodImageDisplay	4	189	9	foodImage.89	FOODEEG_Images\0881.jpg	YN	Left	Yes	1.09592650000013	0	726157	252
1420.3359375	1.09592650000013	taste	choicePhaseStart	4	189	9	foodImage.89	FOODEEG_Images\0881.jpg	YN	Left	Yes	1.09592650000013	0	727213	253
1421.421875	0	taste	response	4	189	9	foodImage.89	FOODEEG_Images\0881.jpg	YN	Left	Yes	1.09592650000013	0	727769	234
1422.46484375	1	health	trialStart	4	190	10	foodImage.3	FOODEEG_Images\0046.jpg	NY	Left	No	1.33917669999937	0	728303	251
1423.5078125	2	health	foodImageDisplay	4	190	10	foodImage.3	FOODEEG_Images\0046.jpg	NY	Left	No	1.33917669999937	0	728837	252
1425.5703125	1.33917669999937	health	choicePhaseStart	4	190	10	foodImage.3	FOODEEG_Images\0046.jpg	NY	Left	No	1.33917669999937	0	729893	253
1426.90234375	0	health	response	4	190	10	foodImage.3	FOODEEG_Images\0046.jpg	NY	Left	No	1.33917669999937	0	730575	234
1427.94140625	1	health	trialStart	4	191	11	foodImage.100	FOODEEG_Images\0908.jpg	YN	Left	Yes	0.907995999999912	0	731107	251
1428.978515625	2	health	foodImageDisplay	4	191	11	foodImage.100	FOODEEG_Images\0908.jpg	YN	Left	Yes	0.907995999999912	0	731638	252
1431.0390625	0.907995999999912	health	choicePhaseStart	4	191	11	foodImage.100	FOODEEG_Images\0908.jpg	YN	Left	Yes	0.907995999999912	0	732693	253
1431.94140625	0	health	response	4	191	11	foodImage.100	FOODEEG_Images\0908.jpg	YN	Left	Yes	0.907995999999912	0	733155	234
1432.984375	1	taste	trialStart	4	192	12	foodImage.14	FOODEEG_Images\0188.jpg	YN	Left	Yes	0.99596290000045	0	733689	251
1434.044921875	2	taste	foodImageDisplay	4	192	12	foodImage.14	FOODEEG_Images\0188.jpg	YN	Left	Yes	0.99596290000045	0	734232	252
1436.107421875	0.99596290000045	taste	choicePhaseStart	4	192	12	foodImage.14	FOODEEG_Images\0188.jpg	YN	Left	Yes	0.99596290000045	0	735288	253
1437.09375	0	taste	response	4	192	12	foodImage.14	FOODEEG_Images\0188.jpg	YN	Left	Yes	0.99596290000045	0	735793	234
1438.13671875	1	health	trialStart	4	193	13	foodImage.49	FOODEEG_Images\0515.jpg	YN	Right	No	3.36557610000091	0	736327	251
1439.17578125	2	health	foodImageDisplay	4	193	13	foodImage.49	FOODEEG_Images\0515.jpg	YN	Right	No	3.36557610000091	0	736859	252
