onset	duration	trial_type	event_type	block	trial_total	trial_in_block	food_image_code	food_image_path	button_position	resp_position	resp_choice	choice_rt	resp_too_slow	sample	trigger
383.669921875	2	n/a	blockStart	1	n/a	n/a	n/a	n/a	n/a	n/a	n/a	n/a	n/a	196440	250
385.708984375	1	decision	trialStart	1	1	1	foodImage.57	FOODEEG_Images\0587.jpg	YN	Left	Yes	0.641666300129145	0	197484	251
386.767578125	2	decision	foodImageDisplay	1	1	1	foodImage.57	FOODEEG_Images\0587.jpg	YN	Left	Yes	0.641666300129145	0	198026	252
388.83203125	0.641666300129145	decision	choicePhaseStart	1	1	1	foodImage.57	FOODEEG_Images\0587.jpg	YN	Left	Yes	0.641666300129145	0	199083	253
389.470703125	0	decision	response	1	1	1	foodImage.57	FOODEEG_Images\0587.jpg	YN	Left	Yes	0.641666300129145	0	199410	234
390.556640625	1	taste	trialStart	1	2	2	foodImage.103	FOODEEG_Images\0911.jpg	NY	Left	No	0.738010399974883	0	199966	251
391.595703125	2	taste	foodImageDisplay	1	2	2	foodImage.103	FOODEEG_Images\0911.jpg	NY	Left	No	0.738010399974883	0	200498	252
393.66015625	0.738010399974883	taste	choicePhaseStart	1	2	2	foodImage.103	FOODEEG_Images\0911.jpg	NY	Left	No	0.738010399974883	0	201555	253
394.388671875	0	taste	response	1	2	2	foodImage.103	FOODEEG_Images\0911.jpg	NY	Left	No	0.738010399974883	0	201928	234
395.447265625	1	taste	trialStart	1	3	3	foodImage.21	FOODEEG_Images\0234.jpg	NY	Right	Yes	0.485044500324875	0	202470	251
396.5078125	2	taste	foodImageDisplay	1	3	3	foodImage.21	FOODEEG_Images\0234.jpg	NY	Right	Yes	0.485044500324875	0	203013	252
398.5703125	0.485044500324875	taste	choicePhaseStart	1	3	3	foodImage.21	FOODEEG_Images\0234.jpg	NY	Right	Yes	0.485044500324875	0	204069	253
399.044921875	0	taste	response	1	3	3	foodImage.21	FOODEEG_Images\0234.jpg	NY	Right	Yes	0.485044500324875	0	204312	235
400.08984375	1	health	trialStart	1	4	4	foodImage.84	FOODEEG_Images\0830.jpg	NY	Right	Yes	0.49398439982906	0	204847	251
401.14453125	2	health	foodImageDisplay	1	4	4	foodImage.84	FOODEEG_Images\0830.jpg	NY	Right	Yes	0.49398439982906	0	205387	252
403.208984375	0.49398439982906	health	choicePhaseStart	1	4	4	foodImage.84	FOODEEG_Images\0830.jpg	NY	Right	Yes	0.49398439982906	0	206444	253
403.693359375	0	health	response	1	4	4	foodImage.84	FOODEEG_Images\0830.jpg	NY	Right	Yes	0.49398439982906	0	206692	235
404.734375	1	decision	trialStart	1	5	5	foodImage.13	FOODEEG_Images\0183.jpg	YN	Left	Yes	0.52509169979021	0	207225	251
405.779296875	2	decision	foodImageDisplay	1	5	5	foodImage.13	FOODEEG_Images\0183.jpg	YN	Left	Yes	0.52509169979021	0	207760	252
407.845703125	0.52509169979021	decision	choicePhaseStart	1	5	5	foodImage.13	FOODEEG_Images\0183.jpg	YN	Left	Yes	0.52509169979021	0	208818	253
408.365234375	0	decision	response	1	5	5	foodImage.13	FOODEEG_Images\0183.jpg	YN	Left	Yes	0.52509169979021	0	209084	234
409.41796875	1	health	trialStart	1	6	6	foodImage.34	FOODEEG_Images\0339.jpg	YN	Right	No	0.610658099874854	0	209623	251
410.474609375	2	health	foodImageDisplay	1	6	6	foodImage.34	FOODEEG_Images\0339.jpg	YN	Right	No	0.610658099874854	0	210164	252
412.5390625	0.610658099874854	health	choicePhaseStart	1	6	6	foodImage.34	FOODEEG_Images\0339.jpg	YN	Right	No	0.610658099874854	0	211221	253
413.140625	0	health	response	1	6	6	foodImage.34	FOODEEG_Images\0339.jpg	YN	Right	No	0.610658099874854	0	211529	235
414.185546875	1	decision	trialStart	1	7	7	foodImage.1	FOODEEG_Images\0004.jpg	NY	Right	Yes	0.523036200087517	0	212064	251
415.2265625	2	decision	foodImageDisplay	1	7	7	foodImage.1	FOODEEG_Images\0004.jpg	NY	Right	Yes	0.523036200087517	0	212597	252
417.2890625	0.523036200087517	decision	choicePhaseStart	1	7	7	foodImage.1	FOODEEG_Images\0004.jpg	NY	Right	Yes	0.523036200087517	0	213653	253
417.8046875	0	decision	response	1	7	7	foodImage.1	FOODEEG_Images\0004.jpg	NY	Right	Yes	0.523036200087517	0	213917	235
418.84765625	1	decision	trialStart	1	8	8	foodImage.59	FOODEEG_Images\0607.jpg	NY	Right	Yes	0.432527299970388	0	214451	251
419.892578125	2	decision	foodImageDisplay	1	8	8	foodImage.59	FOODEEG_Images\0607.jpg	NY	Right	Yes	0.432527299970388	0	214986	252
421.955078125	0.432527299970388	decision	choicePhaseStart	1	8	8	foodImage.59	FOODEEG_Images\0607.jpg	NY	Right	Yes	0.432527299970388	0	216042	253
422.380859375	0	decision	response	1	8	8	foodImage.59	FOODEEG_Images\0607.jpg	NY	Right	Yes	0.432527299970388	0	216260	235
423.423828125	1	decision	trialStart	1	9	9	foodImage.93	FOODEEG_Images\0901.jpg	NY	Left	No	0.565648499876261	0	216794	251
424.462890625	2	decision	foodImageDisplay	1	9	9	foodImage.93	FOODEEG_Images\0901.jpg	NY	Left	No	0.565648499876261	0	217326	252
426.52734375	0.565648499876261	decision	choicePhaseStart	1	9	9	foodImage.93	FOODEEG_Images\0901.jpg	NY	Left	No	0.565648499876261	0	218383	253
427.083984375	0	decision	response	1	9	9	foodImage.93	FOODEEG_Images\0901.jpg	NY	Left	No	0.565648499876261	0	218668	234
428.125	1	taste	trialStart	1	10	10	foodImage.33	FOODEEG_Images\0329.jpg	NY	Right	Yes	0.416076499968767	0	219201	251
429.166015625	2	taste	foodImageDisplay	1	10	10	foodImage.33	FOODEEG_Images\0329.jpg	NY	Right	Yes	0.416076499968767	0	219734	252
431.228515625	0.416076499968767	taste	choicePhaseStart	1	10	10	foodImage.33	FOODEEG_Images\0329.jpg	NY	Right	Yes	0.416076499968767	0	220790	253
431.63671875	0	taste	response	1	10	10	foodImage.33	FOODEEG_Images\0329.jpg	NY	Right	Yes	0.416076499968767	0	220999	235
432.677734375	1	decision	trialStart	1	11	11	foodImage.9	FOODEEG_Images\0138.jpg	NY	Right	Yes	0.343160199932754	0	221532	251
433.734375	2	decision	foodImageDisplay	1	11	11	foodImage.9	FOODEEG_Images\0138.jpg	NY	Right	Yes	0.343160199932754	0	222073	252
435.796875	0.343160199932754	decision	choicePhaseStart	1	11	11	foodImage.9	FOODEEG_Images\0138.jpg	NY	Right	Yes	0.343160199932754	0	223129	253
436.130859375	0	decision	response	1	11	11	foodImage.9	FOODEEG_Images\0138.jpg	NY	Right	Yes	0.343160199932754	0	223300	235
437.173828125	1	health	trialStart	1	12	12	foodImage.81	FOODEEG_Images\0797.jpg	YN	Right	No	0.684887299779803	0	223834	251
438.23046875	2	health	foodImageDisplay	1	12	12	foodImage.81	FOODEEG_Images\0797.jpg	YN	Right	No	0.684887299779803	0	224375	252
440.29296875	0.684887299779803	health	choicePhaseStart	1	12	12	foodImage.81	FOODEEG_Images\0797.jpg	YN	Right	No	0.684887299779803	0	225431	253
440.970703125	0	health	response	1	12	12	foodImage.81	FOODEEG_Images\0797.jpg	YN	Right	No	0.684887299779803	0	225778	235
442.025390625	1	taste	trialStart	1	13	13	foodImage.7	FOODEEG_Images\0116.jpg	YN	Left	Yes	0.505090599879622	0	226318	251
443.06640625	2	taste	foodImageDisplay	1	13	13	foodImage.7	FOODEEG_Images\0116.jpg	YN	Left	Yes	0.505090599879622	0	226851	252
445.12890625	0.505090599879622	taste	choicePhaseStart	1	13	13	foodImage.7	FOODEEG_Images\0116.jpg	YN	Left	Yes	0.505090599879622	0	227907	253
445.62890625	0	taste	response	1	13	13	foodImage.7	FOODEEG_Images\0116.jpg	YN	Left	Yes	0.505090599879622	0	228163	234
446.671875	1	taste	trialStart	1	14	14	foodImage.19	FOODEEG_Images\0225.jpg	NY	Right	Yes	0.74466080032289	0	228697	251
447.71484375	2	taste	foodImageDisplay	1	14	14	foodImage.19	FOODEEG_Images\0225.jpg	NY	Right	Yes	0.74466080032289	0	229231	252
449.779296875	0.74466080032289	taste	choicePhaseStart	1	14	14	foodImage.19	FOODEEG_Images\0225.jpg	NY	Right	Yes	0.74466080032289	0	230288	253
450.515625	0	taste	response	1	14	14	foodImage.19	FOODEEG_Images\0225.jpg	NY	Right	Yes	0.74466080032289	0	230665	235
451.556640625	1	taste	trialStart	1	15	15	foodImage.87	FOODEEG_Images\0873.jpg	NY	Right	Yes	0.615439800079912	0	231198	251
452.61328125	2	taste	foodImageDisplay	1	15	15	foodImage.87	FOODEEG_Images\0873.jpg	NY	Right	Yes	0.615439800079912	0	231739	252
454.67578125	0.615439800079912	taste	choicePhaseStart	1	15	15	foodImage.87	FOODEEG_Images\0873.jpg	NY	Right	Yes	0.615439800079912	0	232795	253
455.283203125	0	taste	response	1	15	15	foodImage.87	FOODEEG_Images\0873.jpg	NY	Right	Yes	0.615439800079912	0	233106	235
456.326171875	1	decision	trialStart	1	16	16	foodImage.54	FOODEEG_Images\0560.jpg	YN	Left	Yes	0.572500000242144	0	233640	251
457.384765625	2	decision	foodImageDisplay	1	16	16	foodImage.54	FOODEEG_Images\0560.jpg	YN	Left	Yes	0.572500000242144	0	234182	252
459.447265625	0.572500000242144	decision	choicePhaseStart	1	16	16	foodImage.54	FOODEEG_Images\0560.jpg	YN	Left	Yes	0.572500000242144	0	235238	253
460.009765625	0	decision	response	1	16	16	foodImage.54	FOODEEG_Images\0560.jpg	YN	Left	Yes	0.572500000242144	0	235526	234
461.0546875	1	taste	trialStart	1	17	17	foodImage.111	FOODEEG_Images\0919.jpg	YN	Right	No	0.670985199976712	0	236061	251
462.091796875	2	taste	foodImageDisplay	1	17	17	foodImage.111	FOODEEG_Images\0919.jpg	YN	Right	No	0.670985199976712	0	236592	252
464.154296875	0.670985199976712	taste	choicePhaseStart	1	17	17	foodImage.111	FOODEEG_Images\0919.jpg	YN	Right	No	0.670985199976712	0	237648	253
464.818359375	0	taste	response	1	17	17	foodImage.111	FOODEEG_Images\0919.jpg	YN	Right	No	0.670985199976712	0	237988	235
465.86328125	1	decision	trialStart	1	18	18	foodImage.42	FOODEEG_Images\0438.jpg	YN	Left	Yes	2.38106189994141	0	238523	251
466.9765625	2	decision	foodImageDisplay	1	18	18	foodImage.42	FOODEEG_Images\0438.jpg	YN	Left	Yes	2.38106189994141	0	239093	252
469.0390625	2.38106189994141	decision	choicePhaseStart	1	18	18	foodImage.42	FOODEEG_Images\0438.jpg	YN	Left	Yes	2.38106189994141	0	240149	253
471.41015625	0	decision	response	1	18	18	foodImage.42	FOODEEG_Images\0438.jpg	YN	Left	Yes	2.38106189994141	0	241363	234
472.453125	1	taste	trialStart	1	19	19	foodImage.13	FOODEEG_Images\0183.jpg	YN	Left	Yes	1.09309519967064	0	241897	251
473.49609375	2	taste	foodImageDisplay	1	19	19	foodImage.13	FOODEEG_Images\0183.jpg	YN	Left	Yes	1.09309519967064	0	242431	252
475.55859375	1.09309519967064	taste	choicePhaseStart	1	19	19	foodImage.13	FOODEEG_Images\0183.jpg	YN	Left	Yes	1.09309519967064	0	243487	253
476.642578125	0	taste	response	1	19	19	foodImage.13	FOODEEG_Images\0183.jpg	YN	Left	Yes	1.09309519967064	0	244042	234
477.685546875	1	taste	trialStart	1	20	20	foodImage.86	FOODEEG_Images\0844.jpg	YN	Left	Yes	0.437443799804896	0	244576	251
478.7421875	2	taste	foodImageDisplay	1	20	20	foodImage.86	FOODEEG_Images\0844.jpg	YN	Left	Yes	0.437443799804896	0	245117	252
480.8046875	0.437443799804896	taste	choicePhaseStart	1	20	20	foodImage.86	FOODEEG_Images\0844.jpg	YN	Left	Yes	0.437443799804896	0	246173	253
481.234375	0	taste	response	1	20	20	foodImage.86	FOODEEG_Images\0844.jpg	YN	Left	Yes	0.437443799804896	0	246393	234
482.283203125	1	taste	trialStart	1	21	21	foodImage.9	FOODEEG_Images\0138.jpg	YN	Left	Yes	0.513011900242418	0	246930	251
483.337890625	2	taste	foodImageDisplay	1	21	21	foodImage.9	FOODEEG_Images\0138.jpg	YN	Left	Yes	0.513011900242418	0	247470	252
485.400390625	0.513011900242418	taste	choicePhaseStart	1	21	21	foodImage.9	FOODEEG_Images\0138.jpg	YN	Left	Yes	0.513011900242418	0	248526	253
485.90625	0	taste	response	1	21	21	foodImage.9	FOODEEG_Images\0138.jpg	YN	Left	Yes	0.513011900242418	0	248785	234
486.947265625	1	decision	trialStart	1	22	22	foodImage.31	FOODEEG_Images\0294.jpg	NY	Right	Yes	0.505588099826127	0	249318	251
487.994140625	2	decision	foodImageDisplay	1	22	22	foodImage.31	FOODEEG_Images\0294.jpg	NY	Right	Yes	0.505588099826127	0	249854	252
490.056640625	0.505588099826127	decision	choicePhaseStart	1	22	22	foodImage.31	FOODEEG_Images\0294.jpg	NY	Right	Yes	0.505588099826127	0	250910	253
490.552734375	0	decision	response	1	22	22	foodImage.31	FOODEEG_Images\0294.jpg	NY	Right	Yes	0.505588099826127	0	251164	235
491.595703125	1	decision	trialStart	1	23	23	foodImage.27	FOODEEG_Images\0263.jpg	YN	Left	Yes	0.463002900127321	0	251698	251
492.63671875	2	decision	foodImageDisplay	1	23	23	foodImage.27	FOODEEG_Images\0263.jpg	YN	Left	Yes	0.463002900127321	0	252231	252
494.69921875	0.463002900127321	decision	choicePhaseStart	1	23	23	foodImage.27	FOODEEG_Images\0263.jpg	YN	Left	Yes	0.463002900127321	0	253287	253
495.15234375	0	decision	response	1	23	23	foodImage.27	FOODEEG_Images\0263.jpg	YN	Left	Yes	0.463002900127321	0	253519	234
496.1953125	1	health	trialStart	1	24	24	foodImage.117	FOODEEG_Images\0925.jpg	YN	Left	Yes	0.95347429998219	0	254053	251
497.23046875	2	health	foodImageDisplay	1	24	24	foodImage.117	FOODEEG_Images\0925.jpg	YN	Left	Yes	0.95347429998219	0	254583	252
499.29296875	0.95347429998219	health	choicePhaseStart	1	24	24	foodImage.117	FOODEEG_Images\0925.jpg	YN	Left	Yes	0.95347429998219	0	255639	253
500.240234375	0	health	response	1	24	24	foodImage.117	FOODEEG_Images\0925.jpg	YN	Left	Yes	0.95347429998219	0	256124	234
501.28125	1	taste	trialStart	1	25	25	foodImage.70	FOODEEG_Images\0705.jpg	NY	Right	Yes	0.642275600228459	0	256657	251
502.353515625	2	taste	foodImageDisplay	1	25	25	foodImage.70	FOODEEG_Images\0705.jpg	NY	Right	Yes	0.642275600228459	0	257206	252
504.416015625	0.642275600228459	taste	choicePhaseStart	1	25	25	foodImage.70	FOODEEG_Images\0705.jpg	NY	Right	Yes	0.642275600228459	0	258262	253
505.048828125	0	taste	response	1	25	25	foodImage.70	FOODEEG_Images\0705.jpg	NY	Right	Yes	0.642275600228459	0	258586	235
506.08984375	1	decision	trialStart	1	26	26	foodImage.76	FOODEEG_Images\0766.jpg	YN	Left	Yes	0.48439889959991	0	259119	251
507.134765625	2	decision	foodImageDisplay	1	26	26	foodImage.76	FOODEEG_Images\0766.jpg	YN	Left	Yes	0.48439889959991	0	259654	252
509.197265625	0.48439889959991	decision	choicePhaseStart	1	26	26	foodImage.76	FOODEEG_Images\0766.jpg	YN	Left	Yes	0.48439889959991	0	260710	253
509.671875	0	decision	response	1	26	26	foodImage.76	FOODEEG_Images\0766.jpg	YN	Left	Yes	0.48439889959991	0	260953	234
510.71875	1	health	trialStart	1	27	27	foodImage.17	FOODEEG_Images\0199.jpg	YN	Left	Yes	0.447753000073135	0	261489	251
511.76171875	2	health	foodImageDisplay	1	27	27	foodImage.17	FOODEEG_Images\0199.jpg	YN	Left	Yes	0.447753000073135	0	262023	252
513.82421875	0.447753000073135	health	choicePhaseStart	1	27	27	foodImage.17	FOODEEG_Images\0199.jpg	YN	Left	Yes	0.447753000073135	0	263079	253
514.263671875	0	health	response	1	27	27	foodImage.17	FOODEEG_Images\0199.jpg	YN	Left	Yes	0.447753000073135	0	263304	234
515.314453125	1	decision	trialStart	1	28	28	foodImage.80	FOODEEG_Images\0796.jpg	YN	Left	Yes	2.49019369995221	0	263842	251
516.369140625	2	decision	foodImageDisplay	1	28	28	foodImage.80	FOODEEG_Images\0796.jpg	YN	Left	Yes	2.49019369995221	0	264382	252
518.431640625	2.49019369995221	decision	choicePhaseStart	1	28	28	foodImage.80	FOODEEG_Images\0796.jpg	YN	Left	Yes	2.49019369995221	0	265438	253
520.912109375	0	decision	response	1	28	28	foodImage.80	FOODEEG_Images\0796.jpg	YN	Left	Yes	2.49019369995221	0	266708	234
521.955078125	1	health	trialStart	1	29	29	foodImage.89	FOODEEG_Images\0881.jpg	NY	Right	Yes	0.530295400414616	0	267242	251
523.009765625	2	health	foodImageDisplay	1	29	29	foodImage.89	FOODEEG_Images\0881.jpg	NY	Right	Yes	0.530295400414616	0	267782	252
525.072265625	0.530295400414616	health	choicePhaseStart	1	29	29	foodImage.89	FOODEEG_Images\0881.jpg	NY	Right	Yes	0.530295400414616	0	268838	253
525.591796875	0	health	response	1	29	29	foodImage.89	FOODEEG_Images\0881.jpg	NY	Right	Yes	0.530295400414616	0	269104	235
526.6328125	1	decision	trialStart	1	30	30	foodImage.79	FOODEEG_Images\0794.jpg	YN	Left	Yes	0.349828500300646	0	269637	251
527.677734375	2	decision	foodImageDisplay	1	30	30	foodImage.79	FOODEEG_Images\0794.jpg	YN	Left	Yes	0.349828500300646	0	270172	252
529.740234375	0.349828500300646	decision	choicePhaseStart	1	30	30	foodImage.79	FOODEEG_Images\0794.jpg	YN	Left	Yes	0.349828500300646	0	271228	253
530.080078125	0	decision	response	1	30	30	foodImage.79	FOODEEG_Images\0794.jpg	YN	Left	Yes	0.349828500300646	0	271402	234
531.12109375	1	health	trialStart	1	31	31	foodImage.59	FOODEEG_Images\0607.jpg	YN	Left	Yes	0.442269000224769	0	271935	251
532.166015625	2	health	foodImageDisplay	1	31	31	foodImage.59	FOODEEG_Images\0607.jpg	YN	Left	Yes	0.442269000224769	0	272470	252
534.228515625	0.442269000224769	health	choicePhaseStart	1	31	31	foodImage.59	FOODEEG_Images\0607.jpg	YN	Left	Yes	0.442269000224769	0	273526	253
534.6640625	0	health	response	1	31	31	foodImage.59	FOODEEG_Images\0607.jpg	YN	Left	Yes	0.442269000224769	0	273749	234
535.705078125	1	decision	trialStart	1	32	32	foodImage.36	FOODEEG_Images\0352.jpg	YN	Left	Yes	0.381506399717182	0	274282	251
536.76171875	2	decision	foodImageDisplay	1	32	32	foodImage.36	FOODEEG_Images\0352.jpg	YN	Left	Yes	0.381506399717182	0	274823	252
538.826171875	0.381506399717182	decision	choicePhaseStart	1	32	32	foodImage.36	FOODEEG_Images\0352.jpg	YN	Left	Yes	0.381506399717182	0	275880	253
539.19921875	0	decision	response	1	32	32	foodImage.36	FOODEEG_Images\0352.jpg	YN	Left	Yes	0.381506399717182	0	276071	234
540.2421875	1	health	trialStart	1	33	33	foodImage.92	FOODEEG_Images\0900.jpg	NY	Left	No	1.00590280024335	0	276605	251
541.291015625	2	health	foodImageDisplay	1	33	33	foodImage.92	FOODEEG_Images\0900.jpg	NY	Left	No	1.00590280024335	0	277142	252
543.353515625	1.00590280024335	health	choicePhaseStart	1	33	33	foodImage.92	FOODEEG_Images\0900.jpg	NY	Left	No	1.00590280024335	0	278198	253
544.3515625	0	health	response	1	33	33	foodImage.92	FOODEEG_Images\0900.jpg	NY	Left	No	1.00590280024335	0	278709	234
545.400390625	1	health	trialStart	1	34	34	foodImage.116	FOODEEG_Images\0924.jpg	YN	Right	No	0.875875900033861	0	279246	251
546.4375	2	health	foodImageDisplay	1	34	34	foodImage.116	FOODEEG_Images\0924.jpg	YN	Right	No	0.875875900033861	0	279777	252
548.5	0.875875900033861	health	choicePhaseStart	1	34	34	foodImage.116	FOODEEG_Images\0924.jpg	YN	Right	No	0.875875900033861	0	280833	253
549.3671875	0	health	response	1	34	34	foodImage.116	FOODEEG_Images\0924.jpg	YN	Right	No	0.875875900033861	0	281277	235
550.41015625	1	health	trialStart	1	35	35	foodImage.22	FOODEEG_Images\0236.jpg	NY	Right	Yes	0.461385400034487	0	281811	251
551.451171875	2	health	foodImageDisplay	1	35	35	foodImage.22	FOODEEG_Images\0236.jpg	NY	Right	Yes	0.461385400034487	0	282344	252
553.513671875	0.461385400034487	health	choicePhaseStart	1	35	35	foodImage.22	FOODEEG_Images\0236.jpg	NY	Right	Yes	0.461385400034487	0	283400	253
553.966796875	0	health	response	1	35	35	foodImage.22	FOODEEG_Images\0236.jpg	NY	Right	Yes	0.461385400034487	0	283632	235
555.009765625	1	decision	trialStart	1	36	36	foodImage.35	FOODEEG_Images\0350.jpg	NY	Right	Yes	0.464539800304919	0	284166	251
556.048828125	2	decision	foodImageDisplay	1	36	36	foodImage.35	FOODEEG_Images\0350.jpg	NY	Right	Yes	0.464539800304919	0	284698	252
558.111328125	0.464539800304919	decision	choicePhaseStart	1	36	36	foodImage.35	FOODEEG_Images\0350.jpg	NY	Right	Yes	0.464539800304919	0	285754	253
558.56640625	0	decision	response	1	36	36	foodImage.35	FOODEEG_Images\0350.jpg	NY	Right	Yes	0.464539800304919	0	285987	235
559.60546875	1	health	trialStart	1	37	37	foodImage.12	FOODEEG_Images\0181.jpg	YN	Left	Yes	0.626332000363618	0	286519	251
560.646484375	2	health	foodImageDisplay	1	37	37	foodImage.12	FOODEEG_Images\0181.jpg	YN	Left	Yes	0.626332000363618	0	287052	252
562.708984375	0.626332000363618	health	choicePhaseStart	1	37	37	foodImage.12	FOODEEG_Images\0181.jpg	YN	Left	Yes	0.626332000363618	0	288108	253
563.326171875	0	health	response	1	37	37	foodImage.12	FOODEEG_Images\0181.jpg	YN	Left	Yes	0.626332000363618	0	288424	234
564.369140625	1	taste	trialStart	1	38	38	foodImage.3	FOODEEG_Images\0046.jpg	YN	Left	Yes	0.515603200066835	0	288958	251
565.412109375	2	taste	foodImageDisplay	1	38	38	foodImage.3	FOODEEG_Images\0046.jpg	YN	Left	Yes	0.515603200066835	0	289492	252
567.474609375	0.515603200066835	taste	choicePhaseStart	1	38	38	foodImage.3	FOODEEG_Images\0046.jpg	YN	Left	Yes	0.515603200066835	0	290548	253
567.982421875	0	taste	response	1	38	38	foodImage.3	FOODEEG_Images\0046.jpg	YN	Left	Yes	0.515603200066835	0	290808	234
569.03515625	1	health	trialStart	1	39	39	foodImage.54	FOODEEG_Images\0560.jpg	YN	Left	Yes	0.506612500175834	0	291347	251
570.091796875	2	health	foodImageDisplay	1	39	39	foodImage.54	FOODEEG_Images\0560.jpg	YN	Left	Yes	0.506612500175834	0	291888	252
572.154296875	0.506612500175834	health	choicePhaseStart	1	39	39	foodImage.54	FOODEEG_Images\0560.jpg	YN	Left	Yes	0.506612500175834	0	292944	253
572.654296875	0	health	response	1	39	39	foodImage.54	FOODEEG_Images\0560.jpg	YN	Left	Yes	0.506612500175834	0	293200	234
573.693359375	1	decision	trialStart	1	40	40	foodImage.46	FOODEEG_Images\0479.jpg	YN	Left	Yes	0.458934499882162	0	293732	251
574.75	2	decision	foodImageDisplay	1	40	40	foodImage.46	FOODEEG_Images\0479.jpg	YN	Left	Yes	0.458934499882162	0	294273	252
576.810546875	0.458934499882162	decision	choicePhaseStart	1	40	40	foodImage.46	FOODEEG_Images\0479.jpg	YN	Left	Yes	0.458934499882162	0	295328	253
577.26171875	0	decision	response	1	40	40	foodImage.46	FOODEEG_Images\0479.jpg	YN	Left	Yes	0.458934499882162	0	295559	234
578.3046875	1	taste	trialStart	1	41	41	foodImage.27	FOODEEG_Images\0263.jpg	NY	Right	Yes	0.53278120001778	0	296093	251
579.34765625	2	taste	foodImageDisplay	1	41	41	foodImage.27	FOODEEG_Images\0263.jpg	NY	Right	Yes	0.53278120001778	0	296627	252
581.41015625	0.53278120001778	taste	choicePhaseStart	1	41	41	foodImage.27	FOODEEG_Images\0263.jpg	NY	Right	Yes	0.53278120001778	0	297683	253
581.93359375	0	taste	response	1	41	41	foodImage.27	FOODEEG_Images\0263.jpg	NY	Right	Yes	0.53278120001778	0	297951	235
582.97265625	1	taste	trialStart	1	42	42	foodImage.107	FOODEEG_Images\0915.jpg	YN	Right	No	0.88310999982059	0	298483	251
584.01171875	2	taste	foodImageDisplay	1	42	42	foodImage.107	FOODEEG_Images\0915.jpg	YN	Right	No	0.88310999982059	0	299015	252
586.07421875	0.88310999982059	taste	choicePhaseStart	1	42	42	foodImage.107	FOODEEG_Images\0915.jpg	YN	Right	No	0.88310999982059	0	300071	253
586.94921875	0	taste	response	1	42	42	foodImage.107	FOODEEG_Images\0915.jpg	YN	Right	No	0.88310999982059	0	300519	235
587.994140625	1	health	trialStart	1	43	43	foodImage.112	FOODEEG_Images\0920.jpg	NY	Left	No	0.710495899897069	0	301054	251
589.033203125	2	health	foodImageDisplay	1	43	43	foodImage.112	FOODEEG_Images\0920.jpg	NY	Left	No	0.710495899897069	0	301586	252
591.095703125	0.710495899897069	health	choicePhaseStart	1	43	43	foodImage.112	FOODEEG_Images\0920.jpg	NY	Left	No	0.710495899897069	0	302642	253
591.796875	0	health	response	1	43	43	foodImage.112	FOODEEG_Images\0920.jpg	NY	Left	No	0.710495899897069	0	303001	234
592.837890625	1	decision	trialStart	1	44	44	foodImage.56	FOODEEG_Images\0586.jpg	YN	Left	Yes	0.776007699780166	0	303534	251
593.87890625	2	decision	foodImageDisplay	1	44	44	foodImage.56	FOODEEG_Images\0586.jpg	YN	Left	Yes	0.776007699780166	0	304067	252
595.94140625	0.776007699780166	decision	choicePhaseStart	1	44	44	foodImage.56	FOODEEG_Images\0586.jpg	YN	Left	Yes	0.776007699780166	0	305123	253
596.708984375	0	decision	response	1	44	44	foodImage.56	FOODEEG_Images\0586.jpg	YN	Left	Yes	0.776007699780166	0	305516	234
597.751953125	1	health	trialStart	1	45	45	foodImage.105	FOODEEG_Images\0913.jpg	NY	Right	Yes	0.570685800164938	0	306050	251
598.787109375	2	health	foodImageDisplay	1	45	45	foodImage.105	FOODEEG_Images\0913.jpg	NY	Right	Yes	0.570685800164938	0	306580	252
600.8515625	0.570685800164938	health	choicePhaseStart	1	45	45	foodImage.105	FOODEEG_Images\0913.jpg	NY	Right	Yes	0.570685800164938	0	307637	253
601.4140625	0	health	response	1	45	45	foodImage.105	FOODEEG_Images\0913.jpg	NY	Right	Yes	0.570685800164938	0	307925	235
602.45703125	1	health	trialStart	1	46	46	foodImage.102	FOODEEG_Images\0910.jpg	YN	Left	Yes	0.569198300130665	0	308459	251
603.494140625	2	health	foodImageDisplay	1	46	46	foodImage.102	FOODEEG_Images\0910.jpg	YN	Left	Yes	0.569198300130665	0	308990	252
605.556640625	0.569198300130665	health	choicePhaseStart	1	46	46	foodImage.102	FOODEEG_Images\0910.jpg	YN	Left	Yes	0.569198300130665	0	310046	253
606.1171875	0	health	response	1	46	46	foodImage.102	FOODEEG_Images\0910.jpg	YN	Left	Yes	0.569198300130665	0	310333	234
607.16015625	1	decision	trialStart	1	47	47	foodImage.62	FOODEEG_Images\0644.jpg	YN	Left	Yes	0.38336249999702	0	310867	251
608.216796875	2	decision	foodImageDisplay	1	47	47	foodImage.62	FOODEEG_Images\0644.jpg	YN	Left	Yes	0.38336249999702	0	311408	252
610.279296875	0.38336249999702	decision	choicePhaseStart	1	47	47	foodImage.62	FOODEEG_Images\0644.jpg	YN	Left	Yes	0.38336249999702	0	312464	253
610.65234375	0	decision	response	1	47	47	foodImage.62	FOODEEG_Images\0644.jpg	YN	Left	Yes	0.38336249999702	0	312655	234
611.6953125	1	decision	trialStart	1	48	48	foodImage.101	FOODEEG_Images\0909.jpg	YN	Right	No	0.569760200101882	0	313189	251
612.732421875	2	decision	foodImageDisplay	1	48	48	foodImage.101	FOODEEG_Images\0909.jpg	YN	Right	No	0.569760200101882	0	313720	252
614.794921875	0.569760200101882	decision	choicePhaseStart	1	48	48	foodImage.101	FOODEEG_Images\0909.jpg	YN	Right	No	0.569760200101882	0	314776	253
615.357421875	0	decision	response	1	48	48	foodImage.101	FOODEEG_Images\0909.jpg	YN	Right	No	0.569760200101882	0	315064	235
616.3984375	1	health	trialStart	1	49	49	foodImage.94	FOODEEG_Images\0902.jpg	NY	Right	Yes	0.89867589995265	0	315597	251
617.4375	2	health	foodImageDisplay	1	49	49	foodImage.94	FOODEEG_Images\0902.jpg	NY	Right	Yes	0.89867589995265	0	316129	252
619.5	0.89867589995265	health	choicePhaseStart	1	49	49	foodImage.94	FOODEEG_Images\0902.jpg	NY	Right	Yes	0.89867589995265	0	317185	253
620.388671875	0	health	response	1	49	49	foodImage.94	FOODEEG_Images\0902.jpg	NY	Right	Yes	0.89867589995265	0	317640	235
621.431640625	1	health	trialStart	1	50	50	foodImage.82	FOODEEG_Images\0805.jpg	YN	Left	Yes	0.462119999807328	0	318174	251
622.48828125	2	health	foodImageDisplay	1	50	50	foodImage.82	FOODEEG_Images\0805.jpg	YN	Left	Yes	0.462119999807328	0	318715	252
624.55078125	0.462119999807328	health	choicePhaseStart	1	50	50	foodImage.82	FOODEEG_Images\0805.jpg	YN	Left	Yes	0.462119999807328	0	319771	253
625.00390625	0	health	response	1	50	50	foodImage.82	FOODEEG_Images\0805.jpg	YN	Left	Yes	0.462119999807328	0	320003	234
626.052734375	1	taste	trialStart	1	51	51	foodImage.36	FOODEEG_Images\0352.jpg	NY	Right	Yes	0.565926100127399	0	320540	251
627.111328125	2	taste	foodImageDisplay	1	51	51	foodImage.36	FOODEEG_Images\0352.jpg	NY	Right	Yes	0.565926100127399	0	321082	252
629.173828125	0.565926100127399	taste	choicePhaseStart	1	51	51	foodImage.36	FOODEEG_Images\0352.jpg	NY	Right	Yes	0.565926100127399	0	322138	253
629.732421875	0	taste	response	1	51	51	foodImage.36	FOODEEG_Images\0352.jpg	NY	Right	Yes	0.565926100127399	0	322424	235
630.775390625	1	taste	trialStart	1	52	52	foodImage.84	FOODEEG_Images\0830.jpg	YN	Left	Yes	0.558151999954134	0	322958	251
631.83203125	2	taste	foodImageDisplay	1	52	52	foodImage.84	FOODEEG_Images\0830.jpg	YN	Left	Yes	0.558151999954134	0	323499	252
633.89453125	0.558151999954134	taste	choicePhaseStart	1	52	52	foodImage.84	FOODEEG_Images\0830.jpg	YN	Left	Yes	0.558151999954134	0	324555	253
634.443359375	0	taste	response	1	52	52	foodImage.84	FOODEEG_Images\0830.jpg	YN	Left	Yes	0.558151999954134	0	324836	234
635.486328125	1	taste	trialStart	1	53	53	foodImage.108	FOODEEG_Images\0916.jpg	NY	Left	No	0.573213600087911	0	325370	251
636.52734375	2	taste	foodImageDisplay	1	53	53	foodImage.108	FOODEEG_Images\0916.jpg	NY	Left	No	0.573213600087911	0	325903	252
638.58984375	0.573213600087911	taste	choicePhaseStart	1	53	53	foodImage.108	FOODEEG_Images\0916.jpg	NY	Left	No	0.573213600087911	0	326959	253
639.15625	0	taste	response	1	53	53	foodImage.108	FOODEEG_Images\0916.jpg	NY	Left	No	0.573213600087911	0	327249	234
640.19921875	1	health	trialStart	1	54	54	foodImage.120	FOODEEG_Images\0928.jpg	NY	Left	No	0.377105699852109	0	327783	251
641.236328125	2	health	foodImageDisplay	1	54	54	foodImage.120	FOODEEG_Images\0928.jpg	NY	Left	No	0.377105699852109	0	328314	252
643.298828125	0.377105699852109	health	choicePhaseStart	1	54	54	foodImage.120	FOODEEG_Images\0928.jpg	NY	Left	No	0.377105699852109	0	329370	253
643.66796875	0	health	response	1	54	54	foodImage.120	FOODEEG_Images\0928.jpg	NY	Left	No	0.377105699852109	0	329559	234
644.71484375	1	health	trialStart	1	55	55	foodImage.110	FOODEEG_Images\0918.jpg	YN	Right	No	0.636608500033617	0	330095	251
645.751953125	2	health	foodImageDisplay	1	55	55	foodImage.110	FOODEEG_Images\0918.jpg	YN	Right	No	0.636608500033617	0	330626	252
647.814453125	0.636608500033617	health	choicePhaseStart	1	55	55	foodImage.110	FOODEEG_Images\0918.jpg	YN	Right	No	0.636608500033617	0	331682	253
648.443359375	0	health	response	1	55	55	foodImage.110	FOODEEG_Images\0918.jpg	YN	Right	No	0.636608500033617	0	332004	235
649.486328125	1	health	trialStart	1	56	56	foodImage.27	FOODEEG_Images\0263.jpg	YN	Left	Yes	0.516952199861407	0	332538	251
650.529296875	2	health	foodImageDisplay	1	56	56	foodImage.27	FOODEEG_Images\0263.jpg	YN	Left	Yes	0.516952199861407	0	333072	252
652.591796875	0.516952199861407	health	choicePhaseStart	1	56	56	foodImage.27	FOODEEG_Images\0263.jpg	YN	Left	Yes	0.516952199861407	0	334128	253
653.099609375	0	health	response	1	56	56	foodImage.27	FOODEEG_Images\0263.jpg	YN	Left	Yes	0.516952199861407	0	334388	234
654.140625	1	taste	trialStart	1	57	57	foodImage.106	FOODEEG_Images\0914.jpg	NY	Left	No	0.97817900031805	0	334921	251
655.177734375	2	taste	foodImageDisplay	1	57	57	foodImage.106	FOODEEG_Images\0914.jpg	NY	Left	No	0.97817900031805	0	335452	252
657.240234375	0.97817900031805	taste	choicePhaseStart	1	57	57	foodImage.106	FOODEEG_Images\0914.jpg	NY	Left	No	0.97817900031805	0	336508	253
658.2109375	0	taste	response	1	57	57	foodImage.106	FOODEEG_Images\0914.jpg	NY	Left	No	0.97817900031805	0	337005	234
659.25390625	1	health	trialStart	1	58	58	foodImage.41	FOODEEG_Images\0409.jpg	YN	Left	Yes	0.424395000096411	0	337539	251
660.298828125	2	health	foodImageDisplay	1	58	58	foodImage.41	FOODEEG_Images\0409.jpg	YN	Left	Yes	0.424395000096411	0	338074	252
662.361328125	0.424395000096411	health	choicePhaseStart	1	58	58	foodImage.41	FOODEEG_Images\0409.jpg	YN	Left	Yes	0.424395000096411	0	339130	253
662.779296875	0	health	response	1	58	58	foodImage.41	FOODEEG_Images\0409.jpg	YN	Left	Yes	0.424395000096411	0	339344	234
663.828125	1	health	trialStart	1	59	59	foodImage.11	FOODEEG_Images\0180.jpg	YN	Left	Yes	0.455263200215995	0	339881	251
664.869140625	2	health	foodImageDisplay	1	59	59	foodImage.11	FOODEEG_Images\0180.jpg	YN	Left	Yes	0.455263200215995	0	340414	252
666.9375	0.455263200215995	health	choicePhaseStart	1	59	59	foodImage.11	FOODEEG_Images\0180.jpg	YN	Left	Yes	0.455263200215995	0	341473	253
667.38671875	0	health	response	1	59	59	foodImage.11	FOODEEG_Images\0180.jpg	YN	Left	Yes	0.455263200215995	0	341703	234
668.4296875	1	health	trialStart	1	60	60	foodImage.62	FOODEEG_Images\0644.jpg	NY	Right	Yes	0.702078100293875	0	342237	251
669.48828125	2	health	foodImageDisplay	1	60	60	foodImage.62	FOODEEG_Images\0644.jpg	NY	Right	Yes	0.702078100293875	0	342779	252
671.548828125	0.702078100293875	health	choicePhaseStart	1	60	60	foodImage.62	FOODEEG_Images\0644.jpg	NY	Right	Yes	0.702078100293875	0	343834	253
672.2421875	0	health	response	1	60	60	foodImage.62	FOODEEG_Images\0644.jpg	NY	Right	Yes	0.702078100293875	0	344189	235
674.283203125	23.583984375	n/a	blockEnd	n/a	n/a	n/a	n/a	n/a	n/a	n/a	n/a	n/a	n/a	345234	254
697.8671875	2	n/a	blockStart	2	n/a	n/a	n/a	n/a	n/a	n/a	n/a	n/a	n/a	357309	250
699.8984375	1	decision	trialStart	2	61	1	foodImage.110	FOODEEG_Images\0918.jpg	YN	Right	No	0.640186300035566	0	358349	251
700.9375	2	decision	foodImageDisplay	2	61	1	foodImage.110	FOODEEG_Images\0918.jpg	YN	Right	No	0.640186300035566	0	358881	252
703.001953125	0.640186300035566	decision	choicePhaseStart	2	61	1	foodImage.110	FOODEEG_Images\0918.jpg	YN	Right	No	0.640186300035566	0	359938	253
703.6328125	0	decision	response	2	61	1	foodImage.110	FOODEEG_Images\0918.jpg	YN	Right	No	0.640186300035566	0	360261	235
704.67578125	1	health	trialStart	2	62	2	foodImage.44	FOODEEG_Images\0459.jpg	YN	Right	No	0.812186299823225	0	360795	251
705.720703125	2	health	foodImageDisplay	2	62	2	foodImage.44	FOODEEG_Images\0459.jpg	YN	Right	No	0.812186299823225	0	361330	252
707.783203125	0.812186299823225	health	choicePhaseStart	2	62	2	foodImage.44	FOODEEG_Images\0459.jpg	YN	Right	No	0.812186299823225	0	362386	253
708.5859375	0	health	response	2	62	2	foodImage.44	FOODEEG_Images\0459.jpg	YN	Right	No	0.812186299823225	0	362797	235
709.626953125	1	taste	trialStart	2	63	3	foodImage.28	FOODEEG_Images\0273.jpg	YN	Left	Yes	0.358662199694663	0	363330	251
710.66796875	2	taste	foodImageDisplay	2	63	3	foodImage.28	FOODEEG_Images\0273.jpg	YN	Left	Yes	0.358662199694663	0	363863	252
712.73046875	0.358662199694663	taste	choicePhaseStart	2	63	3	foodImage.28	FOODEEG_Images\0273.jpg	YN	Left	Yes	0.358662199694663	0	364919	253
713.080078125	0	taste	response	2	63	3	foodImage.28	FOODEEG_Images\0273.jpg	YN	Left	Yes	0.358662199694663	0	365098	234
714.125	1	taste	trialStart	2	64	4	foodImage.102	FOODEEG_Images\0910.jpg	NY	Left	No	0.895146300084889	0	365633	251
715.1640625	2	taste	foodImageDisplay	2	64	4	foodImage.102	FOODEEG_Images\0910.jpg	NY	Left	No	0.895146300084889	0	366165	252
717.2265625	0.895146300084889	taste	choicePhaseStart	2	64	4	foodImage.102	FOODEEG_Images\0910.jpg	NY	Left	No	0.895146300084889	0	367221	253
718.11328125	0	taste	response	2	64	4	foodImage.102	FOODEEG_Images\0910.jpg	NY	Left	No	0.895146300084889	0	367675	234
719.15625	1	health	trialStart	2	65	5	foodImage.31	FOODEEG_Images\0294.jpg	YN	Left	Yes	0.443379300180823	0	368209	251
720.19921875	2	health	foodImageDisplay	2	65	5	foodImage.31	FOODEEG_Images\0294.jpg	YN	Left	Yes	0.443379300180823	0	368743	252
722.26171875	0.443379300180823	health	choicePhaseStart	2	65	5	foodImage.31	FOODEEG_Images\0294.jpg	YN	Left	Yes	0.443379300180823	0	369799	253
722.697265625	0	health	response	2	65	5	foodImage.31	FOODEEG_Images\0294.jpg	YN	Left	Yes	0.443379300180823	0	370022	234
723.736328125	1	taste	trialStart	2	66	6	foodImage.62	FOODEEG_Images\0644.jpg	YN	Left	Yes	0.465054499916732	0	370554	251
724.79296875	2	taste	foodImageDisplay	2	66	6	foodImage.62	FOODEEG_Images\0644.jpg	YN	Left	Yes	0.465054499916732	0	371095	252
726.85546875	0.465054499916732	taste	choicePhaseStart	2	66	6	foodImage.62	FOODEEG_Images\0644.jpg	YN	Left	Yes	0.465054499916732	0	372151	253
727.3125	0	taste	response	2	66	6	foodImage.62	FOODEEG_Images\0644.jpg	YN	Left	Yes	0.465054499916732	0	372385	234
728.35546875	1	decision	trialStart	2	67	7	foodImage.86	FOODEEG_Images\0844.jpg	YN	Left	Yes	0.70618289988488	0	372919	251
729.4140625	2	decision	foodImageDisplay	2	67	7	foodImage.86	FOODEEG_Images\0844.jpg	YN	Left	Yes	0.70618289988488	0	373461	252
731.4765625	0.70618289988488	decision	choicePhaseStart	2	67	7	foodImage.86	FOODEEG_Images\0844.jpg	YN	Left	Yes	0.70618289988488	0	374517	253
732.17578125	0	decision	response	2	67	7	foodImage.86	FOODEEG_Images\0844.jpg	YN	Left	Yes	0.70618289988488	0	374875	234
733.21875	1	decision	trialStart	2	68	8	foodImage.3	FOODEEG_Images\0046.jpg	YN	Left	Yes	0.546235700137913	0	375409	251
734.263671875	2	decision	foodImageDisplay	2	68	8	foodImage.3	FOODEEG_Images\0046.jpg	YN	Left	Yes	0.546235700137913	0	375944	252
736.326171875	0.546235700137913	decision	choicePhaseStart	2	68	8	foodImage.3	FOODEEG_Images\0046.jpg	YN	Left	Yes	0.546235700137913	0	377000	253
736.86328125	0	decision	response	2	68	8	foodImage.3	FOODEEG_Images\0046.jpg	YN	Left	Yes	0.546235700137913	0	377275	234
737.90625	1	taste	trialStart	2	69	9	foodImage.105	FOODEEG_Images\0913.jpg	YN	Left	Yes	0.544466600287706	0	377809	251
738.9453125	2	taste	foodImageDisplay	2	69	9	foodImage.105	FOODEEG_Images\0913.jpg	YN	Left	Yes	0.544466600287706	0	378341	252
741.0078125	0.544466600287706	taste	choicePhaseStart	2	69	9	foodImage.105	FOODEEG_Images\0913.jpg	YN	Left	Yes	0.544466600287706	0	379397	253
741.54296875	0	taste	response	2	69	9	foodImage.105	FOODEEG_Images\0913.jpg	YN	Left	Yes	0.544466600287706	0	379671	234
742.591796875	1	decision	trialStart	2	70	10	foodImage.61	FOODEEG_Images\0640.jpg	YN	Left	Yes	0.575616899877787	0	380208	251
743.634765625	2	decision	foodImageDisplay	2	70	10	foodImage.61	FOODEEG_Images\0640.jpg	YN	Left	Yes	0.575616899877787	0	380742	252
745.697265625	0.575616899877787	decision	choicePhaseStart	2	70	10	foodImage.61	FOODEEG_Images\0640.jpg	YN	Left	Yes	0.575616899877787	0	381798	253
746.263671875	0	decision	response	2	70	10	foodImage.61	FOODEEG_Images\0640.jpg	YN	Left	Yes	0.575616899877787	0	382088	234
747.306640625	1	decision	trialStart	2	71	11	foodImage.89	FOODEEG_Images\0881.jpg	NY	Right	Yes	0.566099400166422	0	382622	251
748.36328125	2	decision	foodImageDisplay	2	71	11	foodImage.89	FOODEEG_Images\0881.jpg	NY	Right	Yes	0.566099400166422	0	383163	252
750.423828125	0.566099400166422	decision	choicePhaseStart	2	71	11	foodImage.89	FOODEEG_Images\0881.jpg	NY	Right	Yes	0.566099400166422	0	384218	253
750.982421875	0	decision	response	2	71	11	foodImage.89	FOODEEG_Images\0881.jpg	NY	Right	Yes	0.566099400166422	0	384504	235
752.025390625	1	health	trialStart	2	72	12	foodImage.55	FOODEEG_Images\0567.jpg	YN	Left	Yes	0.496093399822712	0	385038	251
753.08203125	2	health	foodImageDisplay	2	72	12	foodImage.55	FOODEEG_Images\0567.jpg	YN	Left	Yes	0.496093399822712	0	385579	252
755.14453125	0.496093399822712	health	choicePhaseStart	2	72	12	foodImage.55	FOODEEG_Images\0567.jpg	YN	Left	Yes	0.496093399822712	0	386635	253
755.630859375	0	health	response	2	72	12	foodImage.55	FOODEEG_Images\0567.jpg	YN	Left	Yes	0.496093399822712	0	386884	234
756.6796875	1	health	trialStart	2	73	13	foodImage.78	FOODEEG_Images\0787.jpg	YN	Left	Yes	1.13603719975799	0	387421	251
757.72265625	2	health	foodImageDisplay	2	73	13	foodImage.78	FOODEEG_Images\0787.jpg	YN	Left	Yes	1.13603719975799	0	387955	252
759.78515625	1.13603719975799	health	choicePhaseStart	2	73	13	foodImage.78	FOODEEG_Images\0787.jpg	YN	Left	Yes	1.13603719975799	0	389011	253
760.91015625	0	health	response	2	73	13	foodImage.78	FOODEEG_Images\0787.jpg	YN	Left	Yes	1.13603719975799	0	389587	234
761.951171875	1	health	trialStart	2	74	14	foodImage.9	FOODEEG_Images\0138.jpg	NY	Right	Yes	0.819326399825513	0	390120	251
763.01953125	2	health	foodImageDisplay	2	74	14	foodImage.9	FOODEEG_Images\0138.jpg	NY	Right	Yes	0.819326399825513	0	390667	252
765.08203125	0.819326399825513	health	choicePhaseStart	2	74	14	foodImage.9	FOODEEG_Images\0138.jpg	NY	Right	Yes	0.819326399825513	0	391723	253
765.89453125	0	health	response	2	74	14	foodImage.9	FOODEEG_Images\0138.jpg	NY	Right	Yes	0.819326399825513	0	392139	235
766.95703125	1	decision	trialStart	2	75	15	foodImage.8	FOODEEG_Images\0136.jpg	NY	Left	No	0.699005899950862	0	392683	251
767.998046875	2	decision	foodImageDisplay	2	75	15	foodImage.8	FOODEEG_Images\0136.jpg	NY	Left	No	0.699005899950862	0	393216	252
770.060546875	0.699005899950862	decision	choicePhaseStart	2	75	15	foodImage.8	FOODEEG_Images\0136.jpg	NY	Left	No	0.699005899950862	0	394272	253
770.75	0	decision	response	2	75	15	foodImage.8	FOODEEG_Images\0136.jpg	NY	Left	No	0.699005899950862	0	394625	234
771.79296875	1	health	trialStart	2	76	16	foodImage.119	FOODEEG_Images\0927.jpg	YN	Right	No	0.483232900034636	0	395159	251
772.830078125	2	health	foodImageDisplay	2	76	16	foodImage.119	FOODEEG_Images\0927.jpg	YN	Right	No	0.483232900034636	0	395690	252
774.892578125	0.483232900034636	health	choicePhaseStart	2	76	16	foodImage.119	FOODEEG_Images\0927.jpg	YN	Right	No	0.483232900034636	0	396746	253
775.3671875	0	health	response	2	76	16	foodImage.119	FOODEEG_Images\0927.jpg	YN	Right	No	0.483232900034636	0	396989	235
776.408203125	1	decision	trialStart	2	77	17	foodImage.51	FOODEEG_Images\0536.jpg	YN	Left	Yes	0.403154700063169	0	397522	251
777.455078125	2	decision	foodImageDisplay	2	77	17	foodImage.51	FOODEEG_Images\0536.jpg	YN	Left	Yes	0.403154700063169	0	398058	252
779.517578125	0.403154700063169	decision	choicePhaseStart	2	77	17	foodImage.51	FOODEEG_Images\0536.jpg	YN	Left	Yes	0.403154700063169	0	399114	253
779.91015625	0	decision	response	2	77	17	foodImage.51	FOODEEG_Images\0536.jpg	YN	Left	Yes	0.403154700063169	0	399315	234
780.951171875	1	health	trialStart	2	78	18	foodImage.45	FOODEEG_Images\0478.jpg	YN	Left	Yes	0.63722989987582	0	399848	251
781.994140625	2	health	foodImageDisplay	2	78	18	foodImage.45	FOODEEG_Images\0478.jpg	YN	Left	Yes	0.63722989987582	0	400382	252
784.056640625	0.63722989987582	health	choicePhaseStart	2	78	18	foodImage.45	FOODEEG_Images\0478.jpg	YN	Left	Yes	0.63722989987582	0	401438	253
784.685546875	0	health	response	2	78	18	foodImage.45	FOODEEG_Images\0478.jpg	YN	Left	Yes	0.63722989987582	0	401760	234
785.728515625	1	taste	trialStart	2	79	19	foodImage.47	FOODEEG_Images\0488.jpg	YN	Left	Yes	0.475227000191808	0	402294	251
786.771484375	2	taste	foodImageDisplay	2	79	19	foodImage.47	FOODEEG_Images\0488.jpg	YN	Left	Yes	0.475227000191808	0	402828	252
788.833984375	0.475227000191808	taste	choicePhaseStart	2	79	19	foodImage.47	FOODEEG_Images\0488.jpg	YN	Left	Yes	0.475227000191808	0	403884	253
789.302734375	0	taste	response	2	79	19	foodImage.47	FOODEEG_Images\0488.jpg	YN	Left	Yes	0.475227000191808	0	404124	234
790.34375	1	decision	trialStart	2	80	20	foodImage.102	FOODEEG_Images\0910.jpg	NY	Left	No	0.988900300115347	0	404657	251
791.3984375	2	decision	foodImageDisplay	2	80	20	foodImage.102	FOODEEG_Images\0910.jpg	NY	Left	No	0.988900300115347	0	405197	252
793.46484375	0.988900300115347	decision	choicePhaseStart	2	80	20	foodImage.102	FOODEEG_Images\0910.jpg	NY	Left	No	0.988900300115347	0	406255	253
794.4453125	0	decision	response	2	80	20	foodImage.102	FOODEEG_Images\0910.jpg	NY	Left	No	0.988900300115347	0	406757	234
795.48828125	1	taste	trialStart	2	81	21	foodImage.88	FOODEEG_Images\0878.jpg	NY	Right	Yes	0.710838000290096	0	407291	251
796.544921875	2	taste	foodImageDisplay	2	81	21	foodImage.88	FOODEEG_Images\0878.jpg	NY	Right	Yes	0.710838000290096	0	407832	252
798.607421875	0.710838000290096	taste	choicePhaseStart	2	81	21	foodImage.88	FOODEEG_Images\0878.jpg	NY	Right	Yes	0.710838000290096	0	408888	253
799.30859375	0	taste	response	2	81	21	foodImage.88	FOODEEG_Images\0878.jpg	NY	Right	Yes	0.710838000290096	0	409247	235
800.361328125	1	decision	trialStart	2	82	22	foodImage.106	FOODEEG_Images\0914.jpg	NY	Left	No	0.542860299814492	0	409786	251
801.400390625	2	decision	foodImageDisplay	2	82	22	foodImage.106	FOODEEG_Images\0914.jpg	NY	Left	No	0.542860299814492	0	410318	252
803.46484375	0.542860299814492	decision	choicePhaseStart	2	82	22	foodImage.106	FOODEEG_Images\0914.jpg	NY	Left	No	0.542860299814492	0	411375	253
803.998046875	0	decision	response	2	82	22	foodImage.106	FOODEEG_Images\0914.jpg	NY	Left	No	0.542860299814492	0	411648	234
805.037109375	1	decision	trialStart	2	83	23	foodImage.6	FOODEEG_Images\0113.jpg	YN	Left	Yes	0.695999399758875	0	412180	251
806.078125	2	decision	foodImageDisplay	2	83	23	foodImage.6	FOODEEG_Images\0113.jpg	YN	Left	Yes	0.695999399758875	0	412713	252
808.140625	0.695999399758875	decision	choicePhaseStart	2	83	23	foodImage.6	FOODEEG_Images\0113.jpg	YN	Left	Yes	0.695999399758875	0	413769	253
808.828125	0	decision	response	2	83	23	foodImage.6	FOODEEG_Images\0113.jpg	YN	Left	Yes	0.695999399758875	0	414121	234
809.87109375	1	health	trialStart	2	84	24	foodImage.104	FOODEEG_Images\0912.jpg	NY	Left	No	0.89130280027166	0	414655	251
810.908203125	2	health	foodImageDisplay	2	84	24	foodImage.104	FOODEEG_Images\0912.jpg	NY	Left	No	0.89130280027166	0	415186	252
812.970703125	0.89130280027166	health	choicePhaseStart	2	84	24	foodImage.104	FOODEEG_Images\0912.jpg	NY	Left	No	0.89130280027166	0	416242	253
813.853515625	0	health	response	2	84	24	foodImage.104	FOODEEG_Images\0912.jpg	NY	Left	No	0.89130280027166	0	416694	234
814.904296875	1	health	trialStart	2	85	25	foodImage.43	FOODEEG_Images\0445.jpg	NY	Right	Yes	1.10233999975026	0	417232	251
815.9609375	2	health	foodImageDisplay	2	85	25	foodImage.43	FOODEEG_Images\0445.jpg	NY	Right	Yes	1.10233999975026	0	417773	252
818.0234375	1.10233999975026	health	choicePhaseStart	2	85	25	foodImage.43	FOODEEG_Images\0445.jpg	NY	Right	Yes	1.10233999975026	0	418829	253
819.1171875	0	health	response	2	85	25	foodImage.43	FOODEEG_Images\0445.jpg	NY	Right	Yes	1.10233999975026	0	419389	235
820.158203125	1	taste	trialStart	2	86	26	foodImage.67	FOODEEG_Images\0679.jpg	YN	Left	Yes	0.510135000105947	0	419922	251
821.216796875	2	taste	foodImageDisplay	2	86	26	foodImage.67	FOODEEG_Images\0679.jpg	YN	Left	Yes	0.510135000105947	0	420464	252
823.279296875	0.510135000105947	taste	choicePhaseStart	2	86	26	foodImage.67	FOODEEG_Images\0679.jpg	YN	Left	Yes	0.510135000105947	0	421520	253
823.78125	0	taste	response	2	86	26	foodImage.67	FOODEEG_Images\0679.jpg	YN	Left	Yes	0.510135000105947	0	421777	234
824.822265625	1	health	trialStart	2	87	27	foodImage.91	FOODEEG_Images\0896.jpg	NY	Right	Yes	0.490690500009805	0	422310	251
825.8828125	2	health	foodImageDisplay	2	87	27	foodImage.91	FOODEEG_Images\0896.jpg	NY	Right	Yes	0.490690500009805	0	422853	252
827.9453125	0.490690500009805	health	choicePhaseStart	2	87	27	foodImage.91	FOODEEG_Images\0896.jpg	NY	Right	Yes	0.490690500009805	0	423909	253
828.427734375	0	health	response	2	87	27	foodImage.91	FOODEEG_Images\0896.jpg	NY	Right	Yes	0.490690500009805	0	424156	235
829.4765625	1	taste	trialStart	2	88	28	foodImage.4	FOODEEG_Images\0065.jpg	NY	Right	Yes	0.424873299896717	0	424693	251
830.533203125	2	taste	foodImageDisplay	2	88	28	foodImage.4	FOODEEG_Images\0065.jpg	NY	Right	Yes	0.424873299896717	0	425234	252
832.595703125	0.424873299896717	taste	choicePhaseStart	2	88	28	foodImage.4	FOODEEG_Images\0065.jpg	NY	Right	Yes	0.424873299896717	0	426290	253
833.01171875	0	taste	response	2	88	28	foodImage.4	FOODEEG_Images\0065.jpg	NY	Right	Yes	0.424873299896717	0	426503	235
834.0625	1	health	trialStart	2	89	29	foodImage.77	FOODEEG_Images\0771.jpg	YN	Left	Yes	0.571581399999559	0	427041	251
835.10546875	2	health	foodImageDisplay	2	89	29	foodImage.77	FOODEEG_Images\0771.jpg	YN	Left	Yes	0.571581399999559	0	427575	252
837.16796875	0.571581399999559	health	choicePhaseStart	2	89	29	foodImage.77	FOODEEG_Images\0771.jpg	YN	Left	Yes	0.571581399999559	0	428631	253
837.732421875	0	health	response	2	89	29	foodImage.77	FOODEEG_Images\0771.jpg	YN	Left	Yes	0.571581399999559	0	428920	234
838.779296875	1	taste	trialStart	2	90	30	foodImage.63	FOODEEG_Images\0645.jpg	YN	Left	Yes	0.69641390023753	0	429456	251
839.822265625	2	taste	foodImageDisplay	2	90	30	foodImage.63	FOODEEG_Images\0645.jpg	YN	Left	Yes	0.69641390023753	0	429990	252
841.884765625	0.69641390023753	taste	choicePhaseStart	2	90	30	foodImage.63	FOODEEG_Images\0645.jpg	YN	Left	Yes	0.69641390023753	0	431046	253
842.572265625	0	taste	response	2	90	30	foodImage.63	FOODEEG_Images\0645.jpg	YN	Left	Yes	0.69641390023753	0	431398	234
843.61328125	1	taste	trialStart	2	91	31	foodImage.16	FOODEEG_Images\0196.jpg	NY	Right	Yes	0.685827400069684	0	431931	251
844.673828125	2	taste	foodImageDisplay	2	91	31	foodImage.16	FOODEEG_Images\0196.jpg	NY	Right	Yes	0.685827400069684	0	432474	252
846.736328125	0.685827400069684	taste	choicePhaseStart	2	91	31	foodImage.16	FOODEEG_Images\0196.jpg	NY	Right	Yes	0.685827400069684	0	433530	253
847.412109375	0	taste	response	2	91	31	foodImage.16	FOODEEG_Images\0196.jpg	NY	Right	Yes	0.685827400069684	0	433876	235
848.45703125	1	health	trialStart	2	92	32	foodImage.88	FOODEEG_Images\0878.jpg	NY	Left	No	0.797270499635488	0	434411	251
849.529296875	2	health	foodImageDisplay	2	92	32	foodImage.88	FOODEEG_Images\0878.jpg	NY	Left	No	0.797270499635488	0	434960	252
851.58984375	0.797270499635488	health	choicePhaseStart	2	92	32	foodImage.88	FOODEEG_Images\0878.jpg	NY	Left	No	0.797270499635488	0	436015	253
852.37890625	0	health	response	2	92	32	foodImage.88	FOODEEG_Images\0878.jpg	NY	Left	No	0.797270499635488	0	436419	234
853.421875	1	health	trialStart	2	93	33	foodImage.79	FOODEEG_Images\0794.jpg	NY	Right	Yes	0.500469800084829	0	436953	251
854.46484375	2	health	foodImageDisplay	2	93	33	foodImage.79	FOODEEG_Images\0794.jpg	NY	Right	Yes	0.500469800084829	0	437487	252
856.52734375	0.500469800084829	health	choicePhaseStart	2	93	33	foodImage.79	FOODEEG_Images\0794.jpg	NY	Right	Yes	0.500469800084829	0	438543	253
857.01953125	0	health	response	2	93	33	foodImage.79	FOODEEG_Images\0794.jpg	NY	Right	Yes	0.500469800084829	0	438795	235
858.0625	1	health	trialStart	2	94	34	foodImage.4	FOODEEG_Images\0065.jpg	NY	Left	No	1.25355109991506	0	439329	251
859.119140625	2	health	foodImageDisplay	2	94	34	foodImage.4	FOODEEG_Images\0065.jpg	NY	Left	No	1.25355109991506	0	439870	252
861.181640625	1.25355109991506	health	choicePhaseStart	2	94	34	foodImage.4	FOODEEG_Images\0065.jpg	NY	Left	No	1.25355109991506	0	440926	253
862.427734375	0	health	response	2	94	34	foodImage.4	FOODEEG_Images\0065.jpg	NY	Left	No	1.25355109991506	0	441564	234
863.4765625	1	health	trialStart	2	95	35	foodImage.38	FOODEEG_Images\0365.jpg	NY	Right	Yes	0.940220400225371	0	442101	251
864.515625	2	health	foodImageDisplay	2	95	35	foodImage.38	FOODEEG_Images\0365.jpg	NY	Right	Yes	0.940220400225371	0	442633	252
866.58203125	0.940220400225371	health	choicePhaseStart	2	95	35	foodImage.38	FOODEEG_Images\0365.jpg	NY	Right	Yes	0.940220400225371	0	443691	253
867.515625	0	health	response	2	95	35	foodImage.38	FOODEEG_Images\0365.jpg	NY	Right	Yes	0.940220400225371	0	444169	235
868.5625	1	health	trialStart	2	96	36	foodImage.60	FOODEEG_Images\0614.jpg	NY	Right	Yes	0.725842100102454	0	444705	251
869.638671875	2	health	foodImageDisplay	2	96	36	foodImage.60	FOODEEG_Images\0614.jpg	NY	Right	Yes	0.725842100102454	0	445256	252
871.701171875	0.725842100102454	health	choicePhaseStart	2	96	36	foodImage.60	FOODEEG_Images\0614.jpg	NY	Right	Yes	0.725842100102454	0	446312	253
872.41796875	0	health	response	2	96	36	foodImage.60	FOODEEG_Images\0614.jpg	NY	Right	Yes	0.725842100102454	0	446679	235
873.458984375	1	health	trialStart	2	97	37	foodImage.57	FOODEEG_Images\0587.jpg	NY	Right	Yes	0.542480899952352	0	447212	251
874.501953125	2	health	foodImageDisplay	2	97	37	foodImage.57	FOODEEG_Images\0587.jpg	NY	Right	Yes	0.542480899952352	0	447746	252
876.564453125	0.542480899952352	health	choicePhaseStart	2	97	37	foodImage.57	FOODEEG_Images\0587.jpg	NY	Right	Yes	0.542480899952352	0	448802	253
877.09765625	0	health	response	2	97	37	foodImage.57	FOODEEG_Images\0587.jpg	NY	Right	Yes	0.542480899952352	0	449075	235
878.142578125	1	taste	trialStart	2	98	38	foodImage.61	FOODEEG_Images\0640.jpg	NY	Right	Yes	0.483266100287437	0	449610	251
879.185546875	2	taste	foodImageDisplay	2	98	38	foodImage.61	FOODEEG_Images\0640.jpg	NY	Right	Yes	0.483266100287437	0	450144	252
881.248046875	0.483266100287437	taste	choicePhaseStart	2	98	38	foodImage.61	FOODEEG_Images\0640.jpg	NY	Right	Yes	0.483266100287437	0	451200	253
881.72265625	0	taste	response	2	98	38	foodImage.61	FOODEEG_Images\0640.jpg	NY	Right	Yes	0.483266100287437	0	451443	235
882.765625	1	health	trialStart	2	99	39	foodImage.63	FOODEEG_Images\0645.jpg	NY	Right	Yes	0.727357900235802	0	451977	251
883.806640625	2	health	foodImageDisplay	2	99	39	foodImage.63	FOODEEG_Images\0645.jpg	NY	Right	Yes	0.727357900235802	0	452510	252
885.8671875	0.727357900235802	health	choicePhaseStart	2	99	39	foodImage.63	FOODEEG_Images\0645.jpg	NY	Right	Yes	0.727357900235802	0	453565	253
886.5859375	0	health	response	2	99	39	foodImage.63	FOODEEG_Images\0645.jpg	NY	Right	Yes	0.727357900235802	0	453933	235
887.6328125	1	decision	trialStart	2	100	40	foodImage.55	FOODEEG_Images\0567.jpg	YN	Left	Yes	0.626442600041628	0	454469	251
888.689453125	2	decision	foodImageDisplay	2	100	40	foodImage.55	FOODEEG_Images\0567.jpg	YN	Left	Yes	0.626442600041628	0	455010	252
890.751953125	0.626442600041628	decision	choicePhaseStart	2	100	40	foodImage.55	FOODEEG_Images\0567.jpg	YN	Left	Yes	0.626442600041628	0	456066	253
891.369140625	0	decision	response	2	100	40	foodImage.55	FOODEEG_Images\0567.jpg	YN	Left	Yes	0.626442600041628	0	456382	234
892.4140625	1	decision	trialStart	2	101	41	foodImage.75	FOODEEG_Images\0763.jpg	NY	Left	No	0.707732100039721	0	456917	251
893.45703125	2	decision	foodImageDisplay	2	101	41	foodImage.75	FOODEEG_Images\0763.jpg	NY	Left	No	0.707732100039721	0	457451	252
895.51953125	0.707732100039721	decision	choicePhaseStart	2	101	41	foodImage.75	FOODEEG_Images\0763.jpg	NY	Left	No	0.707732100039721	0	458507	253
896.216796875	0	decision	response	2	101	41	foodImage.75	FOODEEG_Images\0763.jpg	NY	Left	No	0.707732100039721	0	458864	234
897.259765625	1	health	trialStart	2	102	42	foodImage.23	FOODEEG_Images\0244.jpg	NY	Right	Yes	0.676930899731815	0	459398	251
898.302734375	2	health	foodImageDisplay	2	102	42	foodImage.23	FOODEEG_Images\0244.jpg	NY	Right	Yes	0.676930899731815	0	459932	252
900.365234375	0.676930899731815	health	choicePhaseStart	2	102	42	foodImage.23	FOODEEG_Images\0244.jpg	NY	Right	Yes	0.676930899731815	0	460988	253
901.033203125	0	health	response	2	102	42	foodImage.23	FOODEEG_Images\0244.jpg	NY	Right	Yes	0.676930899731815	0	461330	235
902.078125	1	decision	trialStart	2	103	43	foodImage.119	FOODEEG_Images\0927.jpg	NY	Left	No	0.55960620008409	0	461865	251
903.115234375	2	decision	foodImageDisplay	2	103	43	foodImage.119	FOODEEG_Images\0927.jpg	NY	Left	No	0.55960620008409	0	462396	252
905.177734375	0.55960620008409	decision	choicePhaseStart	2	103	43	foodImage.119	FOODEEG_Images\0927.jpg	NY	Left	No	0.55960620008409	0	463452	253
905.728515625	0	decision	response	2	103	43	foodImage.119	FOODEEG_Images\0927.jpg	NY	Left	No	0.55960620008409	0	463734	234
906.7734375	1	health	trialStart	2	104	44	foodImage.113	FOODEEG_Images\0921.jpg	NY	Right	Yes	0.977020099759102	0	464269	251
907.826171875	2	health	foodImageDisplay	2	104	44	foodImage.113	FOODEEG_Images\0921.jpg	NY	Right	Yes	0.977020099759102	0	464808	252
909.888671875	0.977020099759102	health	choicePhaseStart	2	104	44	foodImage.113	FOODEEG_Images\0921.jpg	NY	Right	Yes	0.977020099759102	0	465864	253
910.857421875	0	health	response	2	104	44	foodImage.113	FOODEEG_Images\0921.jpg	NY	Right	Yes	0.977020099759102	0	466360	235
911.900390625	1	decision	trialStart	2	105	45	foodImage.97	FOODEEG_Images\0905.jpg	YN	Right	No	0.639993499964476	0	466894	251
912.939453125	2	decision	foodImageDisplay	2	105	45	foodImage.97	FOODEEG_Images\0905.jpg	YN	Right	No	0.639993499964476	0	467426	252
915.001953125	0.639993499964476	decision	choicePhaseStart	2	105	45	foodImage.97	FOODEEG_Images\0905.jpg	YN	Right	No	0.639993499964476	0	468482	253
915.6328125	0	decision	response	2	105	45	foodImage.97	FOODEEG_Images\0905.jpg	YN	Right	No	0.639993499964476	0	468805	235
916.67578125	1	health	trialStart	2	106	46	foodImage.103	FOODEEG_Images\0911.jpg	YN	Right	No	0.674714500084519	0	469339	251
917.712890625	2	health	foodImageDisplay	2	106	46	foodImage.103	FOODEEG_Images\0911.jpg	YN	Right	No	0.674714500084519	0	469870	252
919.775390625	0.674714500084519	health	choicePhaseStart	2	106	46	foodImage.103	FOODEEG_Images\0911.jpg	YN	Right	No	0.674714500084519	0	470926	253
920.44140625	0	health	response	2	106	46	foodImage.103	FOODEEG_Images\0911.jpg	YN	Right	No	0.674714500084519	0	471267	235
921.484375	1	taste	trialStart	2	107	47	foodImage.73	FOODEEG_Images\0717.jpg	NY	Right	Yes	0.625757999718189	0	471801	251
922.544921875	2	taste	foodImageDisplay	2	107	47	foodImage.73	FOODEEG_Images\0717.jpg	NY	Right	Yes	0.625757999718189	0	472344	252
924.607421875	0.625757999718189	taste	choicePhaseStart	2	107	47	foodImage.73	FOODEEG_Images\0717.jpg	NY	Right	Yes	0.625757999718189	0	473400	253
925.224609375	0	taste	response	2	107	47	foodImage.73	FOODEEG_Images\0717.jpg	NY	Right	Yes	0.625757999718189	0	473716	235
926.267578125	1	decision	trialStart	2	108	48	foodImage.53	FOODEEG_Images\0547.jpg	YN	Left	Yes	0.589075999800116	0	474250	251
927.326171875	2	decision	foodImageDisplay	2	108	48	foodImage.53	FOODEEG_Images\0547.jpg	YN	Left	Yes	0.589075999800116	0	474792	252
929.388671875	0.589075999800116	decision	choicePhaseStart	2	108	48	foodImage.53	FOODEEG_Images\0547.jpg	YN	Left	Yes	0.589075999800116	0	475848	253
929.96875	0	decision	response	2	108	48	foodImage.53	FOODEEG_Images\0547.jpg	YN	Left	Yes	0.589075999800116	0	476145	234
931.017578125	1	decision	trialStart	2	109	49	foodImage.23	FOODEEG_Images\0244.jpg	YN	Right	No	1.39813699992374	0	476682	251
932.05859375	2	decision	foodImageDisplay	2	109	49	foodImage.23	FOODEEG_Images\0244.jpg	YN	Right	No	1.39813699992374	0	477215	252
934.12109375	1.39813699992374	decision	choicePhaseStart	2	109	49	foodImage.23	FOODEEG_Images\0244.jpg	YN	Right	No	1.39813699992374	0	478271	253
935.51171875	0	decision	response	2	109	49	foodImage.23	FOODEEG_Images\0244.jpg	YN	Right	No	1.39813699992374	0	478983	235
936.5546875	1	health	trialStart	2	110	50	foodImage.8	FOODEEG_Images\0136.jpg	YN	Right	No	0.869024600367993	0	479517	251
937.59765625	2	health	foodImageDisplay	2	110	50	foodImage.8	FOODEEG_Images\0136.jpg	YN	Right	No	0.869024600367993	0	480051	252
939.66015625	0.869024600367993	health	choicePhaseStart	2	110	50	foodImage.8	FOODEEG_Images\0136.jpg	YN	Right	No	0.869024600367993	0	481107	253
940.51953125	0	health	response	2	110	50	foodImage.8	FOODEEG_Images\0136.jpg	YN	Right	No	0.869024600367993	0	481547	235
941.5625	1	taste	trialStart	2	111	51	foodImage.101	FOODEEG_Images\0909.jpg	NY	Left	No	0.729138599708676	0	482081	251
942.603515625	2	taste	foodImageDisplay	2	111	51	foodImage.101	FOODEEG_Images\0909.jpg	NY	Left	No	0.729138599708676	0	482614	252
944.671875	0.729138599708676	taste	choicePhaseStart	2	111	51	foodImage.101	FOODEEG_Images\0909.jpg	NY	Left	No	0.729138599708676	0	483673	253
945.392578125	0	taste	response	2	111	51	foodImage.101	FOODEEG_Images\0909.jpg	NY	Left	No	0.729138599708676	0	484042	234
946.435546875	1	health	trialStart	2	112	52	foodImage.28	FOODEEG_Images\0273.jpg	NY	Right	Yes	0.509240699931979	0	484576	251
947.4765625	2	health	foodImageDisplay	2	112	52	foodImage.28	FOODEEG_Images\0273.jpg	NY	Right	Yes	0.509240699931979	0	485109	252
949.541015625	0.509240699931979	health	choicePhaseStart	2	112	52	foodImage.28	FOODEEG_Images\0273.jpg	NY	Right	Yes	0.509240699931979	0	486166	253
950.0390625	0	health	response	2	112	52	foodImage.28	FOODEEG_Images\0273.jpg	NY	Right	Yes	0.509240699931979	0	486421	235
951.0859375	1	taste	trialStart	2	113	53	foodImage.1	FOODEEG_Images\0004.jpg	YN	Left	Yes	0.505460399668664	0	486957	251
952.126953125	2	taste	foodImageDisplay	2	113	53	foodImage.1	FOODEEG_Images\0004.jpg	YN	Left	Yes	0.505460399668664	0	487490	252
954.19140625	0.505460399668664	taste	choicePhaseStart	2	113	53	foodImage.1	FOODEEG_Images\0004.jpg	YN	Left	Yes	0.505460399668664	0	488547	253
954.6875	0	taste	response	2	113	53	foodImage.1	FOODEEG_Images\0004.jpg	YN	Left	Yes	0.505460399668664	0	488801	234
955.728515625	1	taste	trialStart	2	114	54	foodImage.40	FOODEEG_Images\0373.jpg	NY	Right	Yes	0.585538599640131	0	489334	251
956.767578125	2	taste	foodImageDisplay	2	114	54	foodImage.40	FOODEEG_Images\0373.jpg	NY	Right	Yes	0.585538599640131	0	489866	252
958.830078125	0.585538599640131	taste	choicePhaseStart	2	114	54	foodImage.40	FOODEEG_Images\0373.jpg	NY	Right	Yes	0.585538599640131	0	490922	253
959.40625	0	taste	response	2	114	54	foodImage.40	FOODEEG_Images\0373.jpg	NY	Right	Yes	0.585538599640131	0	491217	235
960.44921875	1	decision	trialStart	2	115	55	foodImage.43	FOODEEG_Images\0445.jpg	YN	Right	No	0.526738599874079	0	491751	251
961.5078125	2	decision	foodImageDisplay	2	115	55	foodImage.43	FOODEEG_Images\0445.jpg	YN	Right	No	0.526738599874079	0	492293	252
963.5703125	0.526738599874079	decision	choicePhaseStart	2	115	55	foodImage.43	FOODEEG_Images\0445.jpg	YN	Right	No	0.526738599874079	0	493349	253
964.087890625	0	decision	response	2	115	55	foodImage.43	FOODEEG_Images\0445.jpg	YN	Right	No	0.526738599874079	0	493614	235
965.130859375	1	health	trialStart	2	116	56	foodImage.95	FOODEEG_Images\0903.jpg	NY	Left	No	0.735392699949443	0	494148	251
966.16796875	2	health	foodImageDisplay	2	116	56	foodImage.95	FOODEEG_Images\0903.jpg	NY	Left	No	0.735392699949443	0	494679	252
968.232421875	0.735392699949443	health	choicePhaseStart	2	116	56	foodImage.95	FOODEEG_Images\0903.jpg	NY	Left	No	0.735392699949443	0	495736	253
968.958984375	0	health	response	2	116	56	foodImage.95	FOODEEG_Images\0903.jpg	NY	Left	No	0.735392699949443	0	496108	234
970.0078125	1	decision	trialStart	2	117	57	foodImage.111	FOODEEG_Images\0919.jpg	YN	Right	No	0.517196500208229	0	496645	251
971.044921875	2	decision	foodImageDisplay	2	117	57	foodImage.111	FOODEEG_Images\0919.jpg	YN	Right	No	0.517196500208229	0	497176	252
973.10546875	0.517196500208229	decision	choicePhaseStart	2	117	57	foodImage.111	FOODEEG_Images\0919.jpg	YN	Right	No	0.517196500208229	0	498231	253
973.615234375	0	decision	response	2	117	57	foodImage.111	FOODEEG_Images\0919.jpg	YN	Right	No	0.517196500208229	0	498492	235
974.65625	1	decision	trialStart	2	118	58	foodImage.103	FOODEEG_Images\0911.jpg	NY	Left	No	0.546475000213832	0	499025	251
975.693359375	2	decision	foodImageDisplay	2	118	58	foodImage.103	FOODEEG_Images\0911.jpg	NY	Left	No	0.546475000213832	0	499556	252
977.755859375	0.546475000213832	decision	choicePhaseStart	2	118	58	foodImage.103	FOODEEG_Images\0911.jpg	NY	Left	No	0.546475000213832	0	500612	253
978.294921875	0	decision	response	2	118	58	foodImage.103	FOODEEG_Images\0911.jpg	NY	Left	No	0.546475000213832	0	500888	234
979.33984375	1	decision	trialStart	2	119	59	foodImage.63	FOODEEG_Images\0645.jpg	YN	Left	Yes	0.497555700130761	0	501423	251
980.3828125	2	decision	foodImageDisplay	2	119	59	foodImage.63	FOODEEG_Images\0645.jpg	YN	Left	Yes	0.497555700130761	0	501957	252
982.4453125	0.497555700130761	decision	choicePhaseStart	2	119	59	foodImage.63	FOODEEG_Images\0645.jpg	YN	Left	Yes	0.497555700130761	0	503013	253
982.93359375	0	decision	response	2	119	59	foodImage.63	FOODEEG_Images\0645.jpg	YN	Left	Yes	0.497555700130761	0	503263	234
983.978515625	1	decision	trialStart	2	120	60	foodImage.20	FOODEEG_Images\0226.jpg	YN	Left	Yes	0.584122100379318	0	503798	251
985.017578125	2	decision	foodImageDisplay	2	120	60	foodImage.20	FOODEEG_Images\0226.jpg	YN	Left	Yes	0.584122100379318	0	504330	252
987.080078125	0.584122100379318	decision	choicePhaseStart	2	120	60	foodImage.20	FOODEEG_Images\0226.jpg	YN	Left	Yes	0.584122100379318	0	505386	253
987.654296875	0	decision	response	2	120	60	foodImage.20	FOODEEG_Images\0226.jpg	YN	Left	Yes	0.584122100379318	0	505680	234
989.6953125	31.30859375	n/a	blockEnd	n/a	n/a	n/a	n/a	n/a	n/a	n/a	n/a	n/a	n/a	506725	254
1021.00390625	2	n/a	blockStart	3	n/a	n/a	n/a	n/a	n/a	n/a	n/a	n/a	n/a	522755	250
1023.037109375	1	health	trialStart	3	121	1	foodImage.73	FOODEEG_Images\0717.jpg	YN	Left	Yes	0.526890300214291	0	523796	251
1024.09765625	2	health	foodImageDisplay	3	121	1	foodImage.73	FOODEEG_Images\0717.jpg	YN	Left	Yes	0.526890300214291	0	524339	252
1026.16015625	0.526890300214291	health	choicePhaseStart	3	121	1	foodImage.73	FOODEEG_Images\0717.jpg	YN	Left	Yes	0.526890300214291	0	525395	253
1026.67578125	0	health	response	3	121	1	foodImage.73	FOODEEG_Images\0717.jpg	YN	Left	Yes	0.526890300214291	0	525659	234
1027.72265625	1	decision	trialStart	3	122	2	foodImage.17	FOODEEG_Images\0199.jpg	YN	Left	Yes	0.71542190015316	0	526195	251
1028.763671875	2	decision	foodImageDisplay	3	122	2	foodImage.17	FOODEEG_Images\0199.jpg	YN	Left	Yes	0.71542190015316	0	526728	252
1030.826171875	0.71542190015316	decision	choicePhaseStart	3	122	2	foodImage.17	FOODEEG_Images\0199.jpg	YN	Left	Yes	0.71542190015316	0	527784	253
1031.53125	0	decision	response	3	122	2	foodImage.17	FOODEEG_Images\0199.jpg	YN	Left	Yes	0.71542190015316	0	528145	234
1032.578125	1	health	trialStart	3	123	3	foodImage.49	FOODEEG_Images\0515.jpg	YN	Left	Yes	0.513825000263751	0	528681	251
1033.619140625	2	health	foodImageDisplay	3	123	3	foodImage.49	FOODEEG_Images\0515.jpg	YN	Left	Yes	0.513825000263751	0	529214	252
1035.681640625	0.513825000263751	health	choicePhaseStart	3	123	3	foodImage.49	FOODEEG_Images\0515.jpg	YN	Left	Yes	0.513825000263751	0	530270	253
1036.1875	0	health	response	3	123	3	foodImage.49	FOODEEG_Images\0515.jpg	YN	Left	Yes	0.513825000263751	0	530529	234
1037.232421875	1	decision	trialStart	3	124	4	foodImage.116	FOODEEG_Images\0924.jpg	NY	Left	No	0.503393599763513	0	531064	251
1038.271484375	2	decision	foodImageDisplay	3	124	4	foodImage.116	FOODEEG_Images\0924.jpg	NY	Left	No	0.503393599763513	0	531596	252
1040.33203125	0.503393599763513	decision	choicePhaseStart	3	124	4	foodImage.116	FOODEEG_Images\0924.jpg	NY	Left	No	0.503393599763513	0	532651	253
1040.828125	0	decision	response	3	124	4	foodImage.116	FOODEEG_Images\0924.jpg	NY	Left	No	0.503393599763513	0	532905	234
1041.87109375	1	health	trialStart	3	125	5	foodImage.93	FOODEEG_Images\0901.jpg	NY	Left	No	0.403106899932027	0	533439	251
1042.916015625	2	health	foodImageDisplay	3	125	5	foodImage.93	FOODEEG_Images\0901.jpg	NY	Left	No	0.403106899932027	0	533974	252
1044.978515625	0.403106899932027	health	choicePhaseStart	3	125	5	foodImage.93	FOODEEG_Images\0901.jpg	NY	Left	No	0.403106899932027	0	535030	253
1045.37109375	0	health	response	3	125	5	foodImage.93	FOODEEG_Images\0901.jpg	NY	Left	No	0.403106899932027	0	535231	234
1046.4140625	1	decision	trialStart	3	126	6	foodImage.96	FOODEEG_Images\0904.jpg	YN	Right	No	0.643056099768728	0	535765	251
1047.453125	2	decision	foodImageDisplay	3	126	6	foodImage.96	FOODEEG_Images\0904.jpg	YN	Right	No	0.643056099768728	0	536297	252
1049.513671875	0.643056099768728	decision	choicePhaseStart	3	126	6	foodImage.96	FOODEEG_Images\0904.jpg	YN	Right	No	0.643056099768728	0	537352	253
1050.1484375	0	decision	response	3	126	6	foodImage.96	FOODEEG_Images\0904.jpg	YN	Right	No	0.643056099768728	0	537677	235
1051.189453125	1	taste	trialStart	3	127	7	foodImage.64	FOODEEG_Images\0647.jpg	NY	Right	Yes	0.691739700268954	0	538210	251
1052.25	2	taste	foodImageDisplay	3	127	7	foodImage.64	FOODEEG_Images\0647.jpg	NY	Right	Yes	0.691739700268954	0	538753	252
1054.3125	0.691739700268954	taste	choicePhaseStart	3	127	7	foodImage.64	FOODEEG_Images\0647.jpg	NY	Right	Yes	0.691739700268954	0	539809	253
1054.99609375	0	taste	response	3	127	7	foodImage.64	FOODEEG_Images\0647.jpg	NY	Right	Yes	0.691739700268954	0	540159	235
1056.037109375	1	taste	trialStart	3	128	8	foodImage.115	FOODEEG_Images\0923.jpg	YN	Right	No	0.476815300062299	0	540692	251
1057.076171875	2	taste	foodImageDisplay	3	128	8	foodImage.115	FOODEEG_Images\0923.jpg	YN	Right	No	0.476815300062299	0	541224	252
1059.14453125	0.476815300062299	taste	choicePhaseStart	3	128	8	foodImage.115	FOODEEG_Images\0923.jpg	YN	Right	No	0.476815300062299	0	542283	253
1059.611328125	0	taste	response	3	128	8	foodImage.115	FOODEEG_Images\0923.jpg	YN	Right	No	0.476815300062299	0	542522	235
1060.65234375	1	taste	trialStart	3	129	9	foodImage.117	FOODEEG_Images\0925.jpg	YN	Right	No	0.508146899752319	0	543055	251
1061.689453125	2	taste	foodImageDisplay	3	129	9	foodImage.117	FOODEEG_Images\0925.jpg	YN	Right	No	0.508146899752319	0	543586	252
1063.751953125	0.508146899752319	taste	choicePhaseStart	3	129	9	foodImage.117	FOODEEG_Images\0925.jpg	YN	Right	No	0.508146899752319	0	544642	253
1064.251953125	0	taste	response	3	129	9	foodImage.117	FOODEEG_Images\0925.jpg	YN	Right	No	0.508146899752319	0	544898	235
1065.294921875	1	taste	trialStart	3	130	10	foodImage.37	FOODEEG_Images\0359.jpg	NY	Right	Yes	0.422052300069481	0	545432	251
1066.3359375	2	taste	foodImageDisplay	3	130	10	foodImage.37	FOODEEG_Images\0359.jpg	NY	Right	Yes	0.422052300069481	0	545965	252
1068.396484375	0.422052300069481	taste	choicePhaseStart	3	130	10	foodImage.37	FOODEEG_Images\0359.jpg	NY	Right	Yes	0.422052300069481	0	547020	253
1068.810546875	0	taste	response	3	130	10	foodImage.37	FOODEEG_Images\0359.jpg	NY	Right	Yes	0.422052300069481	0	547232	235
1069.857421875	1	taste	trialStart	3	131	11	foodImage.77	FOODEEG_Images\0771.jpg	YN	Left	Yes	0.367696600034833	0	547768	251
1070.900390625	2	taste	foodImageDisplay	3	131	11	foodImage.77	FOODEEG_Images\0771.jpg	YN	Left	Yes	0.367696600034833	0	548302	252
1072.962890625	0.367696600034833	taste	choicePhaseStart	3	131	11	foodImage.77	FOODEEG_Images\0771.jpg	YN	Left	Yes	0.367696600034833	0	549358	253
1073.322265625	0	taste	response	3	131	11	foodImage.77	FOODEEG_Images\0771.jpg	YN	Left	Yes	0.367696600034833	0	549542	234
1074.365234375	1	decision	trialStart	3	132	12	foodImage.10	FOODEEG_Images\0145.jpg	NY	Right	Yes	0.460812299977988	0	550076	251
1075.421875	2	decision	foodImageDisplay	3	132	12	foodImage.10	FOODEEG_Images\0145.jpg	NY	Right	Yes	0.460812299977988	0	550617	252
1077.484375	0.460812299977988	decision	choicePhaseStart	3	132	12	foodImage.10	FOODEEG_Images\0145.jpg	NY	Right	Yes	0.460812299977988	0	551673	253
1077.9375	0	decision	response	3	132	12	foodImage.10	FOODEEG_Images\0145.jpg	NY	Right	Yes	0.460812299977988	0	551905	235
1078.982421875	1	taste	trialStart	3	133	13	foodImage.43	FOODEEG_Images\0445.jpg	NY	Left	No	1.15137419989333	0	552440	251
1080.037109375	2	taste	foodImageDisplay	3	133	13	foodImage.43	FOODEEG_Images\0445.jpg	NY	Left	No	1.15137419989333	0	552980	252
1082.099609375	1.15137419989333	taste	choicePhaseStart	3	133	13	foodImage.43	FOODEEG_Images\0445.jpg	NY	Left	No	1.15137419989333	0	554036	253
1083.2421875	0	taste	response	3	133	13	foodImage.43	FOODEEG_Images\0445.jpg	NY	Left	No	1.15137419989333	0	554621	234
1084.291015625	1	decision	trialStart	3	134	14	foodImage.115	FOODEEG_Images\0923.jpg	YN	Right	No	0.53008609963581	0	555158	251
1085.330078125	2	decision	foodImageDisplay	3	134	14	foodImage.115	FOODEEG_Images\0923.jpg	YN	Right	No	0.53008609963581	0	555690	252
1087.392578125	0.53008609963581	decision	choicePhaseStart	3	134	14	foodImage.115	FOODEEG_Images\0923.jpg	YN	Right	No	0.53008609963581	0	556746	253
1087.9140625	0	decision	response	3	134	14	foodImage.115	FOODEEG_Images\0923.jpg	YN	Right	No	0.53008609963581	0	557013	235
1088.958984375	1	taste	trialStart	3	135	15	foodImage.17	FOODEEG_Images\0199.jpg	YN	Left	Yes	0.812612500041723	0	557548	251
1089.998046875	2	taste	foodImageDisplay	3	135	15	foodImage.17	FOODEEG_Images\0199.jpg	YN	Left	Yes	0.812612500041723	0	558080	252
1092.060546875	0.812612500041723	taste	choicePhaseStart	3	135	15	foodImage.17	FOODEEG_Images\0199.jpg	YN	Left	Yes	0.812612500041723	0	559136	253
1092.865234375	0	taste	response	3	135	15	foodImage.17	FOODEEG_Images\0199.jpg	YN	Left	Yes	0.812612500041723	0	559548	234
1093.908203125	1	health	trialStart	3	136	16	foodImage.47	FOODEEG_Images\0488.jpg	YN	Right	No	0.390051600057632	0	560082	251
1094.94921875	2	health	foodImageDisplay	3	136	16	foodImage.47	FOODEEG_Images\0488.jpg	YN	Right	No	0.390051600057632	0	560615	252
1097.01171875	0.390051600057632	health	choicePhaseStart	3	136	16	foodImage.47	FOODEEG_Images\0488.jpg	YN	Right	No	0.390051600057632	0	561671	253
1097.392578125	0	health	response	3	136	16	foodImage.47	FOODEEG_Images\0488.jpg	YN	Right	No	0.390051600057632	0	561866	235
1098.4375	1	taste	trialStart	3	137	17	foodImage.12	FOODEEG_Images\0181.jpg	NY	Right	Yes	1.02123579988256	0	562401	251
1099.478515625	2	taste	foodImageDisplay	3	137	17	foodImage.12	FOODEEG_Images\0181.jpg	NY	Right	Yes	1.02123579988256	0	562934	252
1101.541015625	1.02123579988256	taste	choicePhaseStart	3	137	17	foodImage.12	FOODEEG_Images\0181.jpg	NY	Right	Yes	1.02123579988256	0	563990	253
1102.552734375	0	taste	response	3	137	17	foodImage.12	FOODEEG_Images\0181.jpg	NY	Right	Yes	1.02123579988256	0	564508	235
1103.595703125	1	decision	trialStart	3	138	18	foodImage.21	FOODEEG_Images\0234.jpg	YN	Left	Yes	0.59740830026567	0	565042	251
1104.654296875	2	decision	foodImageDisplay	3	138	18	foodImage.21	FOODEEG_Images\0234.jpg	YN	Left	Yes	0.59740830026567	0	565584	252
1106.716796875	0.59740830026567	decision	choicePhaseStart	3	138	18	foodImage.21	FOODEEG_Images\0234.jpg	YN	Left	Yes	0.59740830026567	0	566640	253
1107.3046875	0	decision	response	3	138	18	foodImage.21	FOODEEG_Images\0234.jpg	YN	Left	Yes	0.59740830026567	0	566941	234
1108.34765625	1	decision	trialStart	3	139	19	foodImage.73	FOODEEG_Images\0717.jpg	YN	Left	Yes	0.476796500384808	0	567475	251
1109.40625	2	decision	foodImageDisplay	3	139	19	foodImage.73	FOODEEG_Images\0717.jpg	YN	Left	Yes	0.476796500384808	0	568017	252
1111.46875	0.476796500384808	decision	choicePhaseStart	3	139	19	foodImage.73	FOODEEG_Images\0717.jpg	YN	Left	Yes	0.476796500384808	0	569073	253
1111.9375	0	decision	response	3	139	19	foodImage.73	FOODEEG_Images\0717.jpg	YN	Left	Yes	0.476796500384808	0	569313	234
1112.98046875	1	health	trialStart	3	140	20	foodImage.7	FOODEEG_Images\0116.jpg	YN	Left	Yes	0.474083399865776	0	569847	251
1114.021484375	2	health	foodImageDisplay	3	140	20	foodImage.7	FOODEEG_Images\0116.jpg	YN	Left	Yes	0.474083399865776	0	570380	252
1116.087890625	0.474083399865776	health	choicePhaseStart	3	140	20	foodImage.7	FOODEEG_Images\0116.jpg	YN	Left	Yes	0.474083399865776	0	571438	253
1116.552734375	0	health	response	3	140	20	foodImage.7	FOODEEG_Images\0116.jpg	YN	Left	Yes	0.474083399865776	0	571676	234
1117.59765625	1	health	trialStart	3	141	21	foodImage.69	FOODEEG_Images\0693.jpg	YN	Left	Yes	0.900759499985725	0	572211	251
1118.638671875	2	health	foodImageDisplay	3	141	21	foodImage.69	FOODEEG_Images\0693.jpg	YN	Left	Yes	0.900759499985725	0	572744	252
1120.701171875	0.900759499985725	health	choicePhaseStart	3	141	21	foodImage.69	FOODEEG_Images\0693.jpg	YN	Left	Yes	0.900759499985725	0	573800	253
1121.59375	0	health	response	3	141	21	foodImage.69	FOODEEG_Images\0693.jpg	YN	Left	Yes	0.900759499985725	0	574257	234
1122.63671875	1	decision	trialStart	3	142	22	foodImage.2	FOODEEG_Images\0028.jpg	YN	Left	Yes	0.46492510009557	0	574791	251
1123.6796875	2	decision	foodImageDisplay	3	142	22	foodImage.2	FOODEEG_Images\0028.jpg	YN	Left	Yes	0.46492510009557	0	575325	252
1125.7421875	0.46492510009557	decision	choicePhaseStart	3	142	22	foodImage.2	FOODEEG_Images\0028.jpg	YN	Left	Yes	0.46492510009557	0	576381	253
1126.201171875	0	decision	response	3	142	22	foodImage.2	FOODEEG_Images\0028.jpg	YN	Left	Yes	0.46492510009557	0	576616	234
1127.248046875	1	taste	trialStart	3	143	23	foodImage.118	FOODEEG_Images\0926.jpg	NY	Left	No	0.631368699949235	0	577152	251
1128.296875	2	taste	foodImageDisplay	3	143	23	foodImage.118	FOODEEG_Images\0926.jpg	NY	Left	No	0.631368699949235	0	577689	252
1130.36328125	0.631368699949235	taste	choicePhaseStart	3	143	23	foodImage.118	FOODEEG_Images\0926.jpg	NY	Left	No	0.631368699949235	0	578747	253
1130.984375	0	taste	response	3	143	23	foodImage.118	FOODEEG_Images\0926.jpg	NY	Left	No	0.631368699949235	0	579065	234
1132.029296875	1	taste	trialStart	3	144	24	foodImage.82	FOODEEG_Images\0805.jpg	YN	Left	Yes	0.758388800080866	0	579600	251
1133.08203125	2	taste	foodImageDisplay	3	144	24	foodImage.82	FOODEEG_Images\0805.jpg	YN	Left	Yes	0.758388800080866	0	580139	252
1135.14453125	0.758388800080866	taste	choicePhaseStart	3	144	24	foodImage.82	FOODEEG_Images\0805.jpg	YN	Left	Yes	0.758388800080866	0	581195	253
1135.896484375	0	taste	response	3	144	24	foodImage.82	FOODEEG_Images\0805.jpg	YN	Left	Yes	0.758388800080866	0	581580	234
1136.9453125	1	decision	trialStart	3	145	25	foodImage.4	FOODEEG_Images\0065.jpg	YN	Left	Yes	0.417718400247395	0	582117	251
1138	2	decision	foodImageDisplay	3	145	25	foodImage.4	FOODEEG_Images\0065.jpg	YN	Left	Yes	0.417718400247395	0	582657	252
1140.0625	0.417718400247395	decision	choicePhaseStart	3	145	25	foodImage.4	FOODEEG_Images\0065.jpg	YN	Left	Yes	0.417718400247395	0	583713	253
1140.47265625	0	decision	response	3	145	25	foodImage.4	FOODEEG_Images\0065.jpg	YN	Left	Yes	0.417718400247395	0	583923	234
1141.513671875	1	taste	trialStart	3	146	26	foodImage.71	FOODEEG_Images\0713.jpg	NY	Right	Yes	0.462757899891585	0	584456	251
1142.556640625	2	taste	foodImageDisplay	3	146	26	foodImage.71	FOODEEG_Images\0713.jpg	NY	Right	Yes	0.462757899891585	0	584990	252
1144.6171875	0.462757899891585	taste	choicePhaseStart	3	146	26	foodImage.71	FOODEEG_Images\0713.jpg	NY	Right	Yes	0.462757899891585	0	586045	253
1145.072265625	0	taste	response	3	146	26	foodImage.71	FOODEEG_Images\0713.jpg	NY	Right	Yes	0.462757899891585	0	586278	235
1146.115234375	1	taste	trialStart	3	147	27	foodImage.76	FOODEEG_Images\0766.jpg	YN	Left	Yes	0.508133199997246	0	586812	251
1147.158203125	2	taste	foodImageDisplay	3	147	27	foodImage.76	FOODEEG_Images\0766.jpg	YN	Left	Yes	0.508133199997246	0	587346	252
1149.220703125	0.508133199997246	taste	choicePhaseStart	3	147	27	foodImage.76	FOODEEG_Images\0766.jpg	YN	Left	Yes	0.508133199997246	0	588402	253
1149.720703125	0	taste	response	3	147	27	foodImage.76	FOODEEG_Images\0766.jpg	YN	Left	Yes	0.508133199997246	0	588658	234
1150.763671875	1	taste	trialStart	3	148	28	foodImage.5	FOODEEG_Images\0107.jpg	YN	Left	Yes	0.546340600121766	0	589192	251
1151.822265625	2	taste	foodImageDisplay	3	148	28	foodImage.5	FOODEEG_Images\0107.jpg	YN	Left	Yes	0.546340600121766	0	589734	252
1153.88671875	0.546340600121766	taste	choicePhaseStart	3	148	28	foodImage.5	FOODEEG_Images\0107.jpg	YN	Left	Yes	0.546340600121766	0	590791	253
1154.423828125	0	taste	response	3	148	28	foodImage.5	FOODEEG_Images\0107.jpg	YN	Left	Yes	0.546340600121766	0	591066	234
1155.466796875	1	taste	trialStart	3	149	29	foodImage.10	FOODEEG_Images\0145.jpg	NY	Right	Yes	0.499882000032812	0	591600	251
1156.525390625	2	taste	foodImageDisplay	3	149	29	foodImage.10	FOODEEG_Images\0145.jpg	NY	Right	Yes	0.499882000032812	0	592142	252
1158.587890625	0.499882000032812	taste	choicePhaseStart	3	149	29	foodImage.10	FOODEEG_Images\0145.jpg	NY	Right	Yes	0.499882000032812	0	593198	253
1159.080078125	0	taste	response	3	149	29	foodImage.10	FOODEEG_Images\0145.jpg	NY	Right	Yes	0.499882000032812	0	593450	235
1160.12109375	1	health	trialStart	3	150	30	foodImage.13	FOODEEG_Images\0183.jpg	NY	Right	Yes	0.486474999692291	0	593983	251
1161.1640625	2	health	foodImageDisplay	3	150	30	foodImage.13	FOODEEG_Images\0183.jpg	NY	Right	Yes	0.486474999692291	0	594517	252
1163.2265625	0.486474999692291	health	choicePhaseStart	3	150	30	foodImage.13	FOODEEG_Images\0183.jpg	NY	Right	Yes	0.486474999692291	0	595573	253
1163.703125	0	health	response	3	150	30	foodImage.13	FOODEEG_Images\0183.jpg	NY	Right	Yes	0.486474999692291	0	595817	235
1164.74609375	1	health	trialStart	3	151	31	foodImage.80	FOODEEG_Images\0796.jpg	YN	Left	Yes	0.516066000331193	0	596351	251
1165.8046875	2	health	foodImageDisplay	3	151	31	foodImage.80	FOODEEG_Images\0796.jpg	YN	Left	Yes	0.516066000331193	0	596893	252
1167.8671875	0.516066000331193	health	choicePhaseStart	3	151	31	foodImage.80	FOODEEG_Images\0796.jpg	YN	Left	Yes	0.516066000331193	0	597949	253
1168.375	0	health	response	3	151	31	foodImage.80	FOODEEG_Images\0796.jpg	YN	Left	Yes	0.516066000331193	0	598209	234
1169.416015625	1	taste	trialStart	3	152	32	foodImage.98	FOODEEG_Images\0906.jpg	YN	Right	No	0.569452399853617	0	598742	251
1170.455078125	2	taste	foodImageDisplay	3	152	32	foodImage.98	FOODEEG_Images\0906.jpg	YN	Right	No	0.569452399853617	0	599274	252
1172.517578125	0.569452399853617	taste	choicePhaseStart	3	152	32	foodImage.98	FOODEEG_Images\0906.jpg	YN	Right	No	0.569452399853617	0	600330	253
1173.078125	0	taste	response	3	152	32	foodImage.98	FOODEEG_Images\0906.jpg	YN	Right	No	0.569452399853617	0	600617	235
1174.123046875	1	taste	trialStart	3	153	33	foodImage.99	FOODEEG_Images\0907.jpg	NY	Left	No	0.610106899868697	0	601152	251
1175.16015625	2	taste	foodImageDisplay	3	153	33	foodImage.99	FOODEEG_Images\0907.jpg	NY	Left	No	0.610106899868697	0	601683	252
1177.22265625	0.610106899868697	taste	choicePhaseStart	3	153	33	foodImage.99	FOODEEG_Images\0907.jpg	NY	Left	No	0.610106899868697	0	602739	253
1177.822265625	0	taste	response	3	153	33	foodImage.99	FOODEEG_Images\0907.jpg	NY	Left	No	0.610106899868697	0	603046	234
1178.865234375	1	decision	trialStart	3	154	34	foodImage.50	FOODEEG_Images\0529.jpg	NY	Left	No	0.575176100246608	0	603580	251
1179.921875	2	decision	foodImageDisplay	3	154	34	foodImage.50	FOODEEG_Images\0529.jpg	NY	Left	No	0.575176100246608	0	604121	252
1181.984375	0.575176100246608	decision	choicePhaseStart	3	154	34	foodImage.50	FOODEEG_Images\0529.jpg	NY	Left	No	0.575176100246608	0	605177	253
1182.55078125	0	decision	response	3	154	34	foodImage.50	FOODEEG_Images\0529.jpg	NY	Left	No	0.575176100246608	0	605467	234
1183.591796875	1	decision	trialStart	3	155	35	foodImage.49	FOODEEG_Images\0515.jpg	NY	Right	Yes	0.520816800184548	0	606000	251
1184.6328125	2	decision	foodImageDisplay	3	155	35	foodImage.49	FOODEEG_Images\0515.jpg	NY	Right	Yes	0.520816800184548	0	606533	252
1186.6953125	0.520816800184548	decision	choicePhaseStart	3	155	35	foodImage.49	FOODEEG_Images\0515.jpg	NY	Right	Yes	0.520816800184548	0	607589	253
1187.205078125	0	decision	response	3	155	35	foodImage.49	FOODEEG_Images\0515.jpg	NY	Right	Yes	0.520816800184548	0	607850	235
1188.248046875	1	decision	trialStart	3	156	36	foodImage.83	FOODEEG_Images\0827.jpg	YN	Left	Yes	0.599769100081176	0	608384	251
1189.302734375	2	decision	foodImageDisplay	3	156	36	foodImage.83	FOODEEG_Images\0827.jpg	YN	Left	Yes	0.599769100081176	0	608924	252
1191.3671875	0.599769100081176	decision	choicePhaseStart	3	156	36	foodImage.83	FOODEEG_Images\0827.jpg	YN	Left	Yes	0.599769100081176	0	609981	253
1191.958984375	0	decision	response	3	156	36	foodImage.83	FOODEEG_Images\0827.jpg	YN	Left	Yes	0.599769100081176	0	610284	234
1193.001953125	1	decision	trialStart	3	157	37	foodImage.82	FOODEEG_Images\0805.jpg	NY	Left	No	0.728729499969631	0	610818	251
1194.064453125	2	decision	foodImageDisplay	3	157	37	foodImage.82	FOODEEG_Images\0805.jpg	NY	Left	No	0.728729499969631	0	611362	252
1196.126953125	0.728729499969631	decision	choicePhaseStart	3	157	37	foodImage.82	FOODEEG_Images\0805.jpg	NY	Left	No	0.728729499969631	0	612418	253
1196.845703125	0	decision	response	3	157	37	foodImage.82	FOODEEG_Images\0805.jpg	NY	Left	No	0.728729499969631	0	612786	234
1197.888671875	1	health	trialStart	3	158	38	foodImage.118	FOODEEG_Images\0926.jpg	NY	Left	No	0.560765199828893	0	613320	251
1198.927734375	2	health	foodImageDisplay	3	158	38	foodImage.118	FOODEEG_Images\0926.jpg	NY	Left	No	0.560765199828893	0	613852	252
1200.990234375	0.560765199828893	health	choicePhaseStart	3	158	38	foodImage.118	FOODEEG_Images\0926.jpg	NY	Left	No	0.560765199828893	0	614908	253
1201.541015625	0	health	response	3	158	38	foodImage.118	FOODEEG_Images\0926.jpg	NY	Left	No	0.560765199828893	0	615190	234
1202.583984375	1	n/a	trialStart	3	159	39	foodImage.47	FOODEEG_Images\0488.jpg	n/a	n/a	n/a	0.477393100038171	0	615724	251
1203.626953125	2	decision	foodImageDisplay	3	159	39	foodImage.47	FOODEEG_Images\0488.jpg	NY	Right	Yes	0.477393100038171	0	616258	252
1205.689453125	0.477393100038171	decision	choicePhaseStart	3	159	39	foodImage.47	FOODEEG_Images\0488.jpg	NY	Right	Yes	0.477393100038171	0	617314	253
1206.158203125	0	decision	response	3	159	39	foodImage.47	FOODEEG_Images\0488.jpg	NY	Right	Yes	0.477393100038171	0	617554	235
1207.201171875	1	decision	trialStart	3	160	40	foodImage.94	FOODEEG_Images\0902.jpg	YN	Right	No	0.568539200350642	0	618088	251
1208.23828125	2	decision	foodImageDisplay	3	160	40	foodImage.94	FOODEEG_Images\0902.jpg	YN	Right	No	0.568539200350642	0	618619	252
1210.30078125	0.568539200350642	decision	choicePhaseStart	3	160	40	foodImage.94	FOODEEG_Images\0902.jpg	YN	Right	No	0.568539200350642	0	619675	253
1210.861328125	0	decision	response	3	160	40	foodImage.94	FOODEEG_Images\0902.jpg	YN	Right	No	0.568539200350642	0	619962	235
1211.904296875	1	decision	trialStart	3	161	41	foodImage.25	FOODEEG_Images\0261.jpg	NY	Right	Yes	0.74346509994939	0	620496	251
1212.9453125	2	decision	foodImageDisplay	3	161	41	foodImage.25	FOODEEG_Images\0261.jpg	NY	Right	Yes	0.74346509994939	0	621029	252
1215.0078125	0.74346509994939	decision	choicePhaseStart	3	161	41	foodImage.25	FOODEEG_Images\0261.jpg	NY	Right	Yes	0.74346509994939	0	622085	253
1215.7421875	0	decision	response	3	161	41	foodImage.25	FOODEEG_Images\0261.jpg	NY	Right	Yes	0.74346509994939	0	622461	235
1216.78515625	1	taste	trialStart	3	162	42	foodImage.34	FOODEEG_Images\0339.jpg	YN	Left	Yes	0.771066999994218	0	622995	251
1217.861328125	2	taste	foodImageDisplay	3	162	42	foodImage.34	FOODEEG_Images\0339.jpg	YN	Left	Yes	0.771066999994218	0	623546	252
1219.923828125	0.771066999994218	taste	choicePhaseStart	3	162	42	foodImage.34	FOODEEG_Images\0339.jpg	YN	Left	Yes	0.771066999994218	0	624602	253
1220.685546875	0	taste	response	3	162	42	foodImage.34	FOODEEG_Images\0339.jpg	YN	Left	Yes	0.771066999994218	0	624992	234
1221.7265625	1	decision	trialStart	3	163	43	foodImage.66	FOODEEG_Images\0676.jpg	YN	Left	Yes	0.402822900097817	0	625525	251
1222.7890625	2	decision	foodImageDisplay	3	163	43	foodImage.66	FOODEEG_Images\0676.jpg	YN	Left	Yes	0.402822900097817	0	626069	252
1224.8515625	0.402822900097817	decision	choicePhaseStart	3	163	43	foodImage.66	FOODEEG_Images\0676.jpg	YN	Left	Yes	0.402822900097817	0	627125	253
1225.244140625	0	decision	response	3	163	43	foodImage.66	FOODEEG_Images\0676.jpg	YN	Left	Yes	0.402822900097817	0	627326	234
1226.2890625	1	taste	trialStart	3	164	44	foodImage.83	FOODEEG_Images\0827.jpg	NY	Right	Yes	0.491545999888331	0	627861	251
1227.34765625	2	taste	foodImageDisplay	3	164	44	foodImage.83	FOODEEG_Images\0827.jpg	NY	Right	Yes	0.491545999888331	0	628403	252
1229.408203125	0.491545999888331	taste	choicePhaseStart	3	164	44	foodImage.83	FOODEEG_Images\0827.jpg	NY	Right	Yes	0.491545999888331	0	629458	253
1229.892578125	0	taste	response	3	164	44	foodImage.83	FOODEEG_Images\0827.jpg	NY	Right	Yes	0.491545999888331	0	629706	235
1230.935546875	1	health	trialStart	3	165	45	foodImage.67	FOODEEG_Images\0679.jpg	YN	Left	Yes	0.594602700322866	0	630240	251
1231.994140625	2	health	foodImageDisplay	3	165	45	foodImage.67	FOODEEG_Images\0679.jpg	YN	Left	Yes	0.594602700322866	0	630782	252
1234.05859375	0.594602700322866	health	choicePhaseStart	3	165	45	foodImage.67	FOODEEG_Images\0679.jpg	YN	Left	Yes	0.594602700322866	0	631839	253
1234.64453125	0	health	response	3	165	45	foodImage.67	FOODEEG_Images\0679.jpg	YN	Left	Yes	0.594602700322866	0	632139	234
1235.69140625	1	decision	trialStart	3	166	46	foodImage.58	FOODEEG_Images\0605.jpg	YN	Right	No	0.673280800227076	0	632675	251
1236.748046875	2	decision	foodImageDisplay	3	166	46	foodImage.58	FOODEEG_Images\0605.jpg	YN	Right	No	0.673280800227076	0	633216	252
1238.8125	0.673280800227076	decision	choicePhaseStart	3	166	46	foodImage.58	FOODEEG_Images\0605.jpg	YN	Right	No	0.673280800227076	0	634273	253
1239.4765625	0	decision	response	3	166	46	foodImage.58	FOODEEG_Images\0605.jpg	YN	Right	No	0.673280800227076	0	634613	235
1240.517578125	1	health	trialStart	3	167	47	foodImage.30	FOODEEG_Images\0282.jpg	NY	Right	Yes	0.56877649994567	0	635146	251
1241.55859375	2	health	foodImageDisplay	3	167	47	foodImage.30	FOODEEG_Images\0282.jpg	NY	Right	Yes	0.56877649994567	0	635679	252
1243.62109375	0.56877649994567	health	choicePhaseStart	3	167	47	foodImage.30	FOODEEG_Images\0282.jpg	NY	Right	Yes	0.56877649994567	0	636735	253
1244.1796875	0	health	response	3	167	47	foodImage.30	FOODEEG_Images\0282.jpg	NY	Right	Yes	0.56877649994567	0	637021	235
1245.22265625	1	taste	trialStart	3	168	48	foodImage.15	FOODEEG_Images\0189.jpg	YN	Left	Yes	0.6191909997724	0	637555	251
1246.283203125	2	taste	foodImageDisplay	3	168	48	foodImage.15	FOODEEG_Images\0189.jpg	YN	Left	Yes	0.6191909997724	0	638098	252
1248.345703125	0.6191909997724	taste	choicePhaseStart	3	168	48	foodImage.15	FOODEEG_Images\0189.jpg	YN	Left	Yes	0.6191909997724	0	639154	253
1248.955078125	0	taste	response	3	168	48	foodImage.15	FOODEEG_Images\0189.jpg	YN	Left	Yes	0.6191909997724	0	639466	234
1249.998046875	1	decision	trialStart	3	169	49	foodImage.81	FOODEEG_Images\0797.jpg	NY	Left	No	0.759097500238568	0	640000	251
1251.064453125	2	decision	foodImageDisplay	3	169	49	foodImage.81	FOODEEG_Images\0797.jpg	NY	Left	No	0.759097500238568	0	640546	252
1253.126953125	0.759097500238568	decision	choicePhaseStart	3	169	49	foodImage.81	FOODEEG_Images\0797.jpg	NY	Left	No	0.759097500238568	0	641602	253
1253.875	0	decision	response	3	169	49	foodImage.81	FOODEEG_Images\0797.jpg	NY	Left	No	0.759097500238568	0	641985	234
1254.919921875	1	health	trialStart	3	170	50	foodImage.36	FOODEEG_Images\0352.jpg	YN	Left	Yes	1.39862910006195	0	642520	251
1255.9765625	2	health	foodImageDisplay	3	170	50	foodImage.36	FOODEEG_Images\0352.jpg	YN	Left	Yes	1.39862910006195	0	643061	252
1258.0390625	1.39862910006195	health	choicePhaseStart	3	170	50	foodImage.36	FOODEEG_Images\0352.jpg	YN	Left	Yes	1.39862910006195	0	644117	253
1259.427734375	0	health	response	3	170	50	foodImage.36	FOODEEG_Images\0352.jpg	YN	Left	Yes	1.39862910006195	0	644828	234
1260.470703125	1	health	trialStart	3	171	51	foodImage.86	FOODEEG_Images\0844.jpg	YN	Right	No	0.608400700148195	0	645362	251
1261.52734375	2	health	foodImageDisplay	3	171	51	foodImage.86	FOODEEG_Images\0844.jpg	YN	Right	No	0.608400700148195	0	645903	252
1263.58984375	0.608400700148195	health	choicePhaseStart	3	171	51	foodImage.86	FOODEEG_Images\0844.jpg	YN	Right	No	0.608400700148195	0	646959	253
1264.1875	0	health	response	3	171	51	foodImage.86	FOODEEG_Images\0844.jpg	YN	Right	No	0.608400700148195	0	647265	235
1265.232421875	1	health	trialStart	3	172	52	foodImage.16	FOODEEG_Images\0196.jpg	YN	Left	Yes	0.491875099949539	0	647800	251
1266.2890625	2	health	foodImageDisplay	3	172	52	foodImage.16	FOODEEG_Images\0196.jpg	YN	Left	Yes	0.491875099949539	0	648341	252
1268.353515625	0.491875099949539	health	choicePhaseStart	3	172	52	foodImage.16	FOODEEG_Images\0196.jpg	YN	Left	Yes	0.491875099949539	0	649398	253
1268.8359375	0	health	response	3	172	52	foodImage.16	FOODEEG_Images\0196.jpg	YN	Left	Yes	0.491875099949539	0	649645	234
1269.87890625	1	taste	trialStart	3	173	53	foodImage.96	FOODEEG_Images\0904.jpg	YN	Right	No	0.484078300185502	0	650179	251
1270.916015625	2	taste	foodImageDisplay	3	173	53	foodImage.96	FOODEEG_Images\0904.jpg	YN	Right	No	0.484078300185502	0	650710	252
1272.984375	0.484078300185502	taste	choicePhaseStart	3	173	53	foodImage.96	FOODEEG_Images\0904.jpg	YN	Right	No	0.484078300185502	0	651769	253
1273.458984375	0	taste	response	3	173	53	foodImage.96	FOODEEG_Images\0904.jpg	YN	Right	No	0.484078300185502	0	652012	235
1274.501953125	1	health	trialStart	3	174	54	foodImage.85	FOODEEG_Images\0841.jpg	YN	Right	No	1.27656590007246	0	652546	251
1275.55859375	2	health	foodImageDisplay	3	174	54	foodImage.85	FOODEEG_Images\0841.jpg	YN	Right	No	1.27656590007246	0	653087	252
1277.623046875	1.27656590007246	health	choicePhaseStart	3	174	54	foodImage.85	FOODEEG_Images\0841.jpg	YN	Right	No	1.27656590007246	0	654144	253
1278.890625	0	health	response	3	174	54	foodImage.85	FOODEEG_Images\0841.jpg	YN	Right	No	1.27656590007246	0	654793	235
1279.9375	1	taste	trialStart	3	175	55	foodImage.116	FOODEEG_Images\0924.jpg	YN	Right	No	0.594973200000823	0	655329	251
1280.9765625	2	taste	foodImageDisplay	3	175	55	foodImage.116	FOODEEG_Images\0924.jpg	YN	Right	No	0.594973200000823	0	655861	252
1283.0390625	0.594973200000823	taste	choicePhaseStart	3	175	55	foodImage.116	FOODEEG_Images\0924.jpg	YN	Right	No	0.594973200000823	0	656917	253
1283.626953125	0	taste	response	3	175	55	foodImage.116	FOODEEG_Images\0924.jpg	YN	Right	No	0.594973200000823	0	657218	235
1284.66796875	1	decision	trialStart	3	176	56	foodImage.68	FOODEEG_Images\0685.jpg	NY	Right	Yes	0.67601770022884	0	657751	251
1285.7421875	2	decision	foodImageDisplay	3	176	56	foodImage.68	FOODEEG_Images\0685.jpg	NY	Right	Yes	0.67601770022884	0	658301	252
1287.8046875	0.67601770022884	decision	choicePhaseStart	3	176	56	foodImage.68	FOODEEG_Images\0685.jpg	NY	Right	Yes	0.67601770022884	0	659357	253
1288.474609375	0	decision	response	3	176	56	foodImage.68	FOODEEG_Images\0685.jpg	NY	Right	Yes	0.67601770022884	0	659700	235
1289.517578125	1	taste	trialStart	3	177	57	foodImage.60	FOODEEG_Images\0614.jpg	NY	Right	Yes	0.4595413999632	0	660234	251
1290.576171875	2	taste	foodImageDisplay	3	177	57	foodImage.60	FOODEEG_Images\0614.jpg	NY	Right	Yes	0.4595413999632	0	660776	252
1292.638671875	0.4595413999632	taste	choicePhaseStart	3	177	57	foodImage.60	FOODEEG_Images\0614.jpg	NY	Right	Yes	0.4595413999632	0	661832	253
1293.08984375	0	taste	response	3	177	57	foodImage.60	FOODEEG_Images\0614.jpg	NY	Right	Yes	0.4595413999632	0	662063	235
1294.134765625	1	decision	trialStart	3	178	58	foodImage.90	FOODEEG_Images\0890.jpg	YN	Left	Yes	0.637542199809104	0	662598	251
1295.19140625	2	decision	foodImageDisplay	3	178	58	foodImage.90	FOODEEG_Images\0890.jpg	YN	Left	Yes	0.637542199809104	0	663139	252
1297.251953125	0.637542199809104	decision	choicePhaseStart	3	178	58	foodImage.90	FOODEEG_Images\0890.jpg	YN	Left	Yes	0.637542199809104	0	664194	253
1297.8828125	0	decision	response	3	178	58	foodImage.90	FOODEEG_Images\0890.jpg	YN	Left	Yes	0.637542199809104	0	664517	234
1298.923828125	1	decision	trialStart	3	179	59	foodImage.108	FOODEEG_Images\0916.jpg	NY	Left	No	0.430582499597222	0	665050	251
1299.966796875	2	decision	foodImageDisplay	3	179	59	foodImage.108	FOODEEG_Images\0916.jpg	NY	Left	No	0.430582499597222	0	665584	252
1302.029296875	0.430582499597222	decision	choicePhaseStart	3	179	59	foodImage.108	FOODEEG_Images\0916.jpg	NY	Left	No	0.430582499597222	0	666640	253
1302.44921875	0	decision	response	3	179	59	foodImage.108	FOODEEG_Images\0916.jpg	NY	Left	No	0.430582499597222	0	666855	234
1303.4921875	1	taste	trialStart	3	180	60	foodImage.92	FOODEEG_Images\0900.jpg	YN	Right	No	0.642036099918187	0	667389	251
1304.53125	2	taste	foodImageDisplay	3	180	60	foodImage.92	FOODEEG_Images\0900.jpg	YN	Right	No	0.642036099918187	0	667921	252
1306.59375	0.642036099918187	taste	choicePhaseStart	3	180	60	foodImage.92	FOODEEG_Images\0900.jpg	YN	Right	No	0.642036099918187	0	668977	253
1307.224609375	0	taste	response	n/a	180	60	foodImage.92	FOODEEG_Images\0900.jpg	YN	Right	No	0.642036099918187	0	669300	235
1309.26953125	33.32421875	n/a	blockEnd	n/a	n/a	n/a	n/a	n/a	n/a	n/a	n/a	n/a	n/a	670347	254
1342.59375	2	n/a	blockStart	4	n/a	n/a	n/a	n/a	n/a	n/a	n/a	n/a	n/a	687409	250
1344.626953125	1	taste	trialStart	4	181	1	foodImage.14	FOODEEG_Images\0188.jpg	YN	Left	Yes	0.507032100111246	0	688450	251
1345.685546875	2	taste	foodImageDisplay	4	181	1	foodImage.14	FOODEEG_Images\0188.jpg	YN	Left	Yes	0.507032100111246	0	688992	252
1347.75	0.507032100111246	taste	choicePhaseStart	4	181	1	foodImage.14	FOODEEG_Images\0188.jpg	YN	Left	Yes	0.507032100111246	0	690049	253
1348.248046875	0	taste	response	4	181	1	foodImage.14	FOODEEG_Images\0188.jpg	YN	Left	Yes	0.507032100111246	0	690304	234
1349.2890625	1	health	trialStart	4	182	2	foodImage.18	FOODEEG_Images\0202.jpg	YN	Left	Yes	0.433667100034654	0	690837	251
1350.34375	2	health	foodImageDisplay	4	182	2	foodImage.18	FOODEEG_Images\0202.jpg	YN	Left	Yes	0.433667100034654	0	691377	252
1352.40625	0.433667100034654	health	choicePhaseStart	4	182	2	foodImage.18	FOODEEG_Images\0202.jpg	YN	Left	Yes	0.433667100034654	0	692433	253
1352.83203125	0	health	response	4	182	2	foodImage.18	FOODEEG_Images\0202.jpg	YN	Left	Yes	0.433667100034654	0	692651	234
1353.876953125	1	decision	trialStart	4	183	3	foodImage.120	FOODEEG_Images\0928.jpg	YN	Right	No	0.59743420034647	0	693186	251
1354.916015625	2	decision	foodImageDisplay	4	183	3	foodImage.120	FOODEEG_Images\0928.jpg	YN	Right	No	0.59743420034647	0	693718	252
1356.978515625	0.59743420034647	decision	choicePhaseStart	4	183	3	foodImage.120	FOODEEG_Images\0928.jpg	YN	Right	No	0.59743420034647	0	694774	253
1357.568359375	0	decision	response	4	183	3	foodImage.120	FOODEEG_Images\0928.jpg	YN	Right	No	0.59743420034647	0	695076	235
1358.611328125	1	decision	trialStart	4	184	4	foodImage.67	FOODEEG_Images\0679.jpg	NY	Right	Yes	0.505539200268686	0	695610	251
1359.671875	2	decision	foodImageDisplay	4	184	4	foodImage.67	FOODEEG_Images\0679.jpg	NY	Right	Yes	0.505539200268686	0	696153	252
1361.734375	0.505539200268686	decision	choicePhaseStart	4	184	4	foodImage.67	FOODEEG_Images\0679.jpg	NY	Right	Yes	0.505539200268686	0	697209	253
1362.232421875	0	decision	response	4	184	4	foodImage.67	FOODEEG_Images\0679.jpg	NY	Right	Yes	0.505539200268686	0	697464	235
1363.271484375	1	decision	trialStart	4	185	5	foodImage.7	FOODEEG_Images\0116.jpg	NY	Right	Yes	0.502488299738616	0	697996	251
1364.3125	2	decision	foodImageDisplay	4	185	5	foodImage.7	FOODEEG_Images\0116.jpg	NY	Right	Yes	0.502488299738616	0	698529	252
1366.375	0.502488299738616	decision	choicePhaseStart	4	185	5	foodImage.7	FOODEEG_Images\0116.jpg	NY	Right	Yes	0.502488299738616	0	699585	253
1366.87109375	0	decision	response	4	185	5	foodImage.7	FOODEEG_Images\0116.jpg	NY	Right	Yes	0.502488299738616	0	699839	235
1367.9140625	1	taste	trialStart	4	186	6	foodImage.79	FOODEEG_Images\0794.jpg	NY	Right	Yes	0.573747700080276	0	700373	251
1368.95703125	2	taste	foodImageDisplay	4	186	6	foodImage.79	FOODEEG_Images\0794.jpg	NY	Right	Yes	0.573747700080276	0	700907	252
1371.017578125	0.573747700080276	taste	choicePhaseStart	4	186	6	foodImage.79	FOODEEG_Images\0794.jpg	NY	Right	Yes	0.573747700080276	0	701962	253
1371.583984375	0	taste	response	4	186	6	foodImage.79	FOODEEG_Images\0794.jpg	NY	Right	Yes	0.573747700080276	0	702252	235
1372.625	1	taste	trialStart	4	187	7	foodImage.113	FOODEEG_Images\0921.jpg	YN	Left	Yes	0.626641800161451	0	702785	251
1373.662109375	2	taste	foodImageDisplay	4	187	7	foodImage.113	FOODEEG_Images\0921.jpg	YN	Left	Yes	0.626641800161451	0	703316	252
1375.724609375	0.626641800161451	taste	choicePhaseStart	4	187	7	foodImage.113	FOODEEG_Images\0921.jpg	YN	Left	Yes	0.626641800161451	0	704372	253
1376.341796875	0	taste	response	4	187	7	foodImage.113	FOODEEG_Images\0921.jpg	YN	Left	Yes	0.626641800161451	0	704688	234
1377.3828125	1	health	trialStart	4	188	8	foodImage.83	FOODEEG_Images\0827.jpg	NY	Right	Yes	0.800883200019598	0	705221	251
1378.45703125	2	health	foodImageDisplay	4	188	8	foodImage.83	FOODEEG_Images\0827.jpg	NY	Right	Yes	0.800883200019598	0	705771	252
1380.51953125	0.800883200019598	health	choicePhaseStart	4	188	8	foodImage.83	FOODEEG_Images\0827.jpg	NY	Right	Yes	0.800883200019598	0	706827	253
1381.310546875	0	health	response	4	188	8	foodImage.83	FOODEEG_Images\0827.jpg	NY	Right	Yes	0.800883200019598	0	707232	235
1382.353515625	1	health	trialStart	4	189	9	foodImage.24	FOODEEG_Images\0250.jpg	NY	Right	Yes	0.886800299864262	0	707766	251
1383.39453125	2	health	foodImageDisplay	4	189	9	foodImage.24	FOODEEG_Images\0250.jpg	NY	Right	Yes	0.886800299864262	0	708299	252
1385.45703125	0.886800299864262	health	choicePhaseStart	4	189	9	foodImage.24	FOODEEG_Images\0250.jpg	NY	Right	Yes	0.886800299864262	0	709355	253
1386.333984375	0	health	response	4	189	9	foodImage.24	FOODEEG_Images\0250.jpg	NY	Right	Yes	0.886800299864262	0	709804	235
1387.376953125	1	taste	trialStart	4	190	10	foodImage.46	FOODEEG_Images\0479.jpg	YN	Left	Yes	0.544395999982953	0	710338	251
1388.43359375	2	taste	foodImageDisplay	4	190	10	foodImage.46	FOODEEG_Images\0479.jpg	YN	Left	Yes	0.544395999982953	0	710879	252
1390.49609375	0.544395999982953	taste	choicePhaseStart	4	190	10	foodImage.46	FOODEEG_Images\0479.jpg	YN	Left	Yes	0.544395999982953	0	711935	253
1391.029296875	0	taste	response	4	190	10	foodImage.46	FOODEEG_Images\0479.jpg	YN	Left	Yes	0.544395999982953	0	712208	234
1392.07421875	1	decision	trialStart	4	191	11	foodImage.29	FOODEEG_Images\0278.jpg	NY	Left	No	0.721559800207615	0	712743	251
1393.134765625	2	decision	foodImageDisplay	4	191	11	foodImage.29	FOODEEG_Images\0278.jpg	NY	Left	No	0.721559800207615	0	713286	252
1395.197265625	0.721559800207615	decision	choicePhaseStart	4	191	11	foodImage.29	FOODEEG_Images\0278.jpg	NY	Left	No	0.721559800207615	0	714342	253
1395.91015625	0	decision	response	4	191	11	foodImage.29	FOODEEG_Images\0278.jpg	NY	Left	No	0.721559800207615	0	714707	234
1396.953125	1	taste	trialStart	4	192	12	foodImage.89	FOODEEG_Images\0881.jpg	NY	Right	Yes	0.671956100035459	0	715241	251
1398.009765625	2	taste	foodImageDisplay	4	192	12	foodImage.89	FOODEEG_Images\0881.jpg	NY	Right	Yes	0.671956100035459	0	715782	252
1400.072265625	0.671956100035459	taste	choicePhaseStart	4	192	12	foodImage.89	FOODEEG_Images\0881.jpg	NY	Right	Yes	0.671956100035459	0	716838	253
1400.734375	0	taste	response	4	192	12	foodImage.89	FOODEEG_Images\0881.jpg	NY	Right	Yes	0.671956100035459	0	717177	235
1401.77734375	1	taste	trialStart	4	193	13	foodImage.30	FOODEEG_Images\0282.jpg	YN	Left	Yes	0.64513080008328	0	717711	251
1402.8203125	2	taste	foodImageDisplay	4	193	13	foodImage.30	FOODEEG_Images\0282.jpg	YN	Left	Yes	0.64513080008328	0	718245	252
1404.8828125	0.64513080008328	taste	choicePhaseStart	4	193	13	foodImage.30	FOODEEG_Images\0282.jpg	YN	Left	Yes	0.64513080008328	0	719301	253
1405.517578125	0	taste	response	4	193	13	foodImage.30	FOODEEG_Images\0282.jpg	YN	Left	Yes	0.64513080008328	0	719626	234
