onset	duration	trial_type	event_type	block	trial_total	trial_in_block	food_image_code	food_image_path	button_position	resp_position	resp_choice	choice_rt	resp_too_slow	sample	trigger
364.62890625	2	n/a	blockStart	1	n/a	n/a	n/a	n/a	n/a	n/a	n/a	n/a	n/a	186691	250
366.669921875	1	health	trialStart	1	1	1	foodImage.33	FOODEEG_Images\0329.jpg	NY	Right	Yes	1.09278289997019	0	187736	251
367.71875	2	health	foodImageDisplay	1	1	1	foodImage.33	FOODEEG_Images\0329.jpg	NY	Right	Yes	1.09278289997019	0	188273	252
369.78125	1.09278289997019	health	choicePhaseStart	1	1	1	foodImage.33	FOODEEG_Images\0329.jpg	NY	Right	Yes	1.09278289997019	0	189329	253
370.8671875	0	health	response	1	1	1	foodImage.33	FOODEEG_Images\0329.jpg	NY	Right	Yes	1.09278289997019	0	189885	235
371.978515625	1	decision	trialStart	1	2	2	foodImage.47	FOODEEG_Images\0488.jpg	NY	Right	Yes	1.19759300001897	0	190454	251
373.021484375	2	decision	foodImageDisplay	1	2	2	foodImage.47	FOODEEG_Images\0488.jpg	NY	Right	Yes	1.19759300001897	0	190988	252
375.0859375	1.19759300001897	decision	choicePhaseStart	1	2	2	foodImage.47	FOODEEG_Images\0488.jpg	NY	Right	Yes	1.19759300001897	0	192045	253
376.275390625	0	decision	response	1	2	2	foodImage.47	FOODEEG_Images\0488.jpg	NY	Right	Yes	1.19759300001897	0	192654	235
377.328125	1	health	trialStart	1	3	3	foodImage.5	FOODEEG_Images\0107.jpg	NY	Left	No	0.948072300059721	0	193193	251
378.388671875	2	health	foodImageDisplay	1	3	3	foodImage.5	FOODEEG_Images\0107.jpg	NY	Left	No	0.948072300059721	0	193736	252
380.451171875	0.948072300059721	health	choicePhaseStart	1	3	3	foodImage.5	FOODEEG_Images\0107.jpg	NY	Left	No	0.948072300059721	0	194792	253
381.39453125	0	health	response	1	3	3	foodImage.5	FOODEEG_Images\0107.jpg	NY	Left	No	0.948072300059721	0	195275	234
382.435546875	1	decision	trialStart	1	4	4	foodImage.40	FOODEEG_Images\0373.jpg	NY	Right	Yes	0.795919999945909	0	195808	251
383.478515625	2	decision	foodImageDisplay	1	4	4	foodImage.40	FOODEEG_Images\0373.jpg	NY	Right	Yes	0.795919999945909	0	196342	252
385.54296875	0.795919999945909	decision	choicePhaseStart	1	4	4	foodImage.40	FOODEEG_Images\0373.jpg	NY	Right	Yes	0.795919999945909	0	197399	253
386.330078125	0	decision	response	1	4	4	foodImage.40	FOODEEG_Images\0373.jpg	NY	Right	Yes	0.795919999945909	0	197802	235
387.375	1	decision	trialStart	1	5	5	foodImage.94	FOODEEG_Images\0902.jpg	YN	Left	Yes	1.43433830002323	0	198337	251
388.419921875	2	decision	foodImageDisplay	1	5	5	foodImage.94	FOODEEG_Images\0902.jpg	YN	Left	Yes	1.43433830002323	0	198872	252
390.486328125	1.43433830002323	decision	choicePhaseStart	1	5	5	foodImage.94	FOODEEG_Images\0902.jpg	YN	Left	Yes	1.43433830002323	0	199930	253
391.9140625	0	decision	response	1	5	5	foodImage.94	FOODEEG_Images\0902.jpg	YN	Left	Yes	1.43433830002323	0	200661	234
392.962890625	1	decision	trialStart	1	6	6	foodImage.39	FOODEEG_Images\0367.jpg	YN	Left	Yes	1.4080902999267	0	201198	251
394.001953125	2	decision	foodImageDisplay	1	6	6	foodImage.39	FOODEEG_Images\0367.jpg	YN	Left	Yes	1.4080902999267	0	201730	252
396.06640625	1.4080902999267	decision	choicePhaseStart	1	6	6	foodImage.39	FOODEEG_Images\0367.jpg	YN	Left	Yes	1.4080902999267	0	202787	253
397.46484375	0	decision	response	1	6	6	foodImage.39	FOODEEG_Images\0367.jpg	YN	Left	Yes	1.4080902999267	0	203503	234
398.509765625	1	health	trialStart	1	7	7	foodImage.28	FOODEEG_Images\0273.jpg	YN	Left	Yes	0.997297500027344	0	204038	251
399.5546875	2	health	foodImageDisplay	1	7	7	foodImage.28	FOODEEG_Images\0273.jpg	YN	Left	Yes	0.997297500027344	0	204573	252
401.62109375	0.997297500027344	health	choicePhaseStart	1	7	7	foodImage.28	FOODEEG_Images\0273.jpg	YN	Left	Yes	0.997297500027344	0	205631	253
402.609375	0	health	response	1	7	7	foodImage.28	FOODEEG_Images\0273.jpg	YN	Left	Yes	0.997297500027344	0	206137	234
403.65234375	1	decision	trialStart	1	8	8	foodImage.120	FOODEEG_Images\0928.jpg	YN	Right	No	0.820762600051239	0	206671	251
404.69140625	2	decision	foodImageDisplay	1	8	8	foodImage.120	FOODEEG_Images\0928.jpg	YN	Right	No	0.820762600051239	0	207203	252
406.7578125	0.820762600051239	decision	choicePhaseStart	1	8	8	foodImage.120	FOODEEG_Images\0928.jpg	YN	Right	No	0.820762600051239	0	208261	253
407.568359375	0	decision	response	1	8	8	foodImage.120	FOODEEG_Images\0928.jpg	YN	Right	No	0.820762600051239	0	208676	235
408.611328125	1	health	trialStart	1	9	9	foodImage.80	FOODEEG_Images\0796.jpg	YN	Left	Yes	0.795977000147104	0	209210	251
409.669921875	2	health	foodImageDisplay	1	9	9	foodImage.80	FOODEEG_Images\0796.jpg	YN	Left	Yes	0.795977000147104	0	209752	252
411.732421875	0.795977000147104	health	choicePhaseStart	1	9	9	foodImage.80	FOODEEG_Images\0796.jpg	YN	Left	Yes	0.795977000147104	0	210808	253
412.521484375	0	health	response	1	9	9	foodImage.80	FOODEEG_Images\0796.jpg	YN	Left	Yes	0.795977000147104	0	211212	234
413.56640625	1	decision	trialStart	1	10	10	foodImage.22	FOODEEG_Images\0236.jpg	NY	Right	Yes	0.76356690004468	0	211747	251
414.60546875	2	decision	foodImageDisplay	1	10	10	foodImage.22	FOODEEG_Images\0236.jpg	NY	Right	Yes	0.76356690004468	0	212279	252
416.669921875	0.76356690004468	decision	choicePhaseStart	1	10	10	foodImage.22	FOODEEG_Images\0236.jpg	NY	Right	Yes	0.76356690004468	0	213336	253
417.42578125	0	decision	response	1	10	10	foodImage.22	FOODEEG_Images\0236.jpg	NY	Right	Yes	0.76356690004468	0	213723	235
418.46875	1	taste	trialStart	1	11	11	foodImage.30	FOODEEG_Images\0282.jpg	NY	Right	Yes	1.38108059996739	0	214257	251
419.509765625	2	taste	foodImageDisplay	1	11	11	foodImage.30	FOODEEG_Images\0282.jpg	NY	Right	Yes	1.38108059996739	0	214790	252
421.572265625	1.38108059996739	taste	choicePhaseStart	1	11	11	foodImage.30	FOODEEG_Images\0282.jpg	NY	Right	Yes	1.38108059996739	0	215846	253
422.9453125	0	taste	response	1	11	11	foodImage.30	FOODEEG_Images\0282.jpg	NY	Right	Yes	1.38108059996739	0	216549	235
423.98828125	1	taste	trialStart	1	12	12	foodImage.82	FOODEEG_Images\0805.jpg	NY	Right	Yes	1.20489920000546	0	217083	251
425.044921875	2	taste	foodImageDisplay	1	12	12	foodImage.82	FOODEEG_Images\0805.jpg	NY	Right	Yes	1.20489920000546	0	217624	252
427.109375	1.20489920000546	taste	choicePhaseStart	1	12	12	foodImage.82	FOODEEG_Images\0805.jpg	NY	Right	Yes	1.20489920000546	0	218681	253
428.3046875	0	taste	response	1	12	12	foodImage.82	FOODEEG_Images\0805.jpg	NY	Right	Yes	1.20489920000546	0	219293	235
429.3515625	1	health	trialStart	1	13	13	foodImage.95	FOODEEG_Images\0903.jpg	YN	Right	No	1.74681459995918	0	219829	251
430.388671875	2	health	foodImageDisplay	1	13	13	foodImage.95	FOODEEG_Images\0903.jpg	YN	Right	No	1.74681459995918	0	220360	252
432.453125	1.74681459995918	health	choicePhaseStart	1	13	13	foodImage.95	FOODEEG_Images\0903.jpg	YN	Right	No	1.74681459995918	0	221417	253
434.19140625	0	health	response	1	13	13	foodImage.95	FOODEEG_Images\0903.jpg	YN	Right	No	1.74681459995918	0	222307	235
435.232421875	1	taste	trialStart	1	14	14	foodImage.94	FOODEEG_Images\0902.jpg	NY	Right	Yes	2.32632160000503	0	222840	251
436.26953125	2	taste	foodImageDisplay	1	14	14	foodImage.94	FOODEEG_Images\0902.jpg	NY	Right	Yes	2.32632160000503	0	223371	252
438.33203125	2.32632160000503	taste	choicePhaseStart	1	14	14	foodImage.94	FOODEEG_Images\0902.jpg	NY	Right	Yes	2.32632160000503	0	224427	253
440.6484375	0	taste	response	1	14	14	foodImage.94	FOODEEG_Images\0902.jpg	NY	Right	Yes	2.32632160000503	0	225613	235
441.6875	1	decision	trialStart	1	15	15	foodImage.96	FOODEEG_Images\0904.jpg	NY	Left	No	1.53744810004719	0	226145	251
442.728515625	2	decision	foodImageDisplay	1	15	15	foodImage.96	FOODEEG_Images\0904.jpg	NY	Left	No	1.53744810004719	0	226678	252
444.79296875	1.53744810004719	decision	choicePhaseStart	1	15	15	foodImage.96	FOODEEG_Images\0904.jpg	NY	Left	No	1.53744810004719	0	227735	253
446.3203125	0	decision	response	1	15	15	foodImage.96	FOODEEG_Images\0904.jpg	NY	Left	No	1.53744810004719	0	228517	234
447.361328125	1	taste	trialStart	1	16	16	foodImage.75	FOODEEG_Images\0763.jpg	YN	Right	No	1.25885270000435	0	229050	251
448.40625	2	taste	foodImageDisplay	1	16	16	foodImage.75	FOODEEG_Images\0763.jpg	YN	Right	No	1.25885270000435	0	229585	252
450.470703125	1.25885270000435	taste	choicePhaseStart	1	16	16	foodImage.75	FOODEEG_Images\0763.jpg	YN	Right	No	1.25885270000435	0	230642	253
451.71875	0	taste	response	1	16	16	foodImage.75	FOODEEG_Images\0763.jpg	YN	Right	No	1.25885270000435	0	231281	235
452.767578125	1	decision	trialStart	1	17	17	foodImage.16	FOODEEG_Images\0196.jpg	YN	Left	Yes	1.14471630007029	0	231818	251
453.830078125	2	decision	foodImageDisplay	1	17	17	foodImage.16	FOODEEG_Images\0196.jpg	YN	Left	Yes	1.14471630007029	0	232362	252
455.89453125	1.14471630007029	decision	choicePhaseStart	1	17	17	foodImage.16	FOODEEG_Images\0196.jpg	YN	Left	Yes	1.14471630007029	0	233419	253
457.03125	0	decision	response	1	17	17	foodImage.16	FOODEEG_Images\0196.jpg	YN	Left	Yes	1.14471630007029	0	234001	234
458.072265625	1	decision	trialStart	1	18	18	foodImage.57	FOODEEG_Images\0587.jpg	NY	Right	Yes	0.692846500081941	0	234534	251
459.115234375	2	decision	foodImageDisplay	1	18	18	foodImage.57	FOODEEG_Images\0587.jpg	NY	Right	Yes	0.692846500081941	0	235068	252
461.1796875	0.692846500081941	decision	choicePhaseStart	1	18	18	foodImage.57	FOODEEG_Images\0587.jpg	NY	Right	Yes	0.692846500081941	0	236125	253
461.86328125	0	decision	response	1	18	18	foodImage.57	FOODEEG_Images\0587.jpg	NY	Right	Yes	0.692846500081941	0	236475	235
462.904296875	1	decision	trialStart	1	19	19	foodImage.103	FOODEEG_Images\0911.jpg	YN	Right	No	0.992192900041118	0	237008	251
463.943359375	2	decision	foodImageDisplay	1	19	19	foodImage.103	FOODEEG_Images\0911.jpg	YN	Right	No	0.992192900041118	0	237540	252
466.0078125	0.992192900041118	decision	choicePhaseStart	1	19	19	foodImage.103	FOODEEG_Images\0911.jpg	YN	Right	No	0.992192900041118	0	238597	253
466.990234375	0	decision	response	1	19	19	foodImage.103	FOODEEG_Images\0911.jpg	YN	Right	No	0.992192900041118	0	239100	235
468.033203125	1	decision	trialStart	1	20	20	foodImage.78	FOODEEG_Images\0787.jpg	NY	Right	Yes	1.35502899996936	0	239634	251
469.078125	2	decision	foodImageDisplay	1	20	20	foodImage.78	FOODEEG_Images\0787.jpg	NY	Right	Yes	1.35502899996936	0	240169	252
471.140625	1.35502899996936	decision	choicePhaseStart	1	20	20	foodImage.78	FOODEEG_Images\0787.jpg	NY	Right	Yes	1.35502899996936	0	241225	253
472.486328125	0	decision	response	1	20	20	foodImage.78	FOODEEG_Images\0787.jpg	NY	Right	Yes	1.35502899996936	0	241914	235
473.533203125	1	taste	trialStart	1	21	21	foodImage.60	FOODEEG_Images\0614.jpg	YN	Left	Yes	1.36008380004205	0	242450	251
474.58984375	2	taste	foodImageDisplay	1	21	21	foodImage.60	FOODEEG_Images\0614.jpg	YN	Left	Yes	1.36008380004205	0	242991	252
476.65625	1.36008380004205	taste	choicePhaseStart	1	21	21	foodImage.60	FOODEEG_Images\0614.jpg	YN	Left	Yes	1.36008380004205	0	244049	253
478.005859375	0	taste	response	1	21	21	foodImage.60	FOODEEG_Images\0614.jpg	YN	Left	Yes	1.36008380004205	0	244740	234
479.048828125	1	taste	trialStart	1	22	22	foodImage.25	FOODEEG_Images\0261.jpg	NY	Right	Yes	0.851041699992493	0	245274	251
480.091796875	2	taste	foodImageDisplay	1	22	22	foodImage.25	FOODEEG_Images\0261.jpg	NY	Right	Yes	0.851041699992493	0	245808	252
482.15625	0.851041699992493	taste	choicePhaseStart	1	22	22	foodImage.25	FOODEEG_Images\0261.jpg	NY	Right	Yes	0.851041699992493	0	246865	253
482.998046875	0	taste	response	1	22	22	foodImage.25	FOODEEG_Images\0261.jpg	NY	Right	Yes	0.851041699992493	0	247296	235
484.04296875	1	decision	trialStart	1	23	23	foodImage.46	FOODEEG_Images\0479.jpg	NY	Right	Yes	0.752693600021303	0	247831	251
485.1015625	2	decision	foodImageDisplay	1	23	23	foodImage.46	FOODEEG_Images\0479.jpg	NY	Right	Yes	0.752693600021303	0	248373	252
487.166015625	0.752693600021303	decision	choicePhaseStart	1	23	23	foodImage.46	FOODEEG_Images\0479.jpg	NY	Right	Yes	0.752693600021303	0	249430	253
487.91015625	0	decision	response	1	23	23	foodImage.46	FOODEEG_Images\0479.jpg	NY	Right	Yes	0.752693600021303	0	249811	235
488.94921875	1	decision	trialStart	1	24	24	foodImage.91	FOODEEG_Images\0896.jpg	YN	Left	Yes	0.727091399952769	0	250343	251
490.005859375	2	decision	foodImageDisplay	1	24	24	foodImage.91	FOODEEG_Images\0896.jpg	YN	Left	Yes	0.727091399952769	0	250884	252
492.0703125	0.727091399952769	decision	choicePhaseStart	1	24	24	foodImage.91	FOODEEG_Images\0896.jpg	YN	Left	Yes	0.727091399952769	0	251941	253
492.7890625	0	decision	response	1	24	24	foodImage.91	FOODEEG_Images\0896.jpg	YN	Left	Yes	0.727091399952769	0	252309	234
493.833984375	1	health	trialStart	1	25	25	foodImage.101	FOODEEG_Images\0909.jpg	YN	Left	Yes	1.42864729999565	0	252844	251
494.873046875	2	health	foodImageDisplay	1	25	25	foodImage.101	FOODEEG_Images\0909.jpg	YN	Left	Yes	1.42864729999565	0	253376	252
496.9375	1.42864729999565	health	choicePhaseStart	1	25	25	foodImage.101	FOODEEG_Images\0909.jpg	YN	Left	Yes	1.42864729999565	0	254433	253
498.357421875	0	health	response	1	25	25	foodImage.101	FOODEEG_Images\0909.jpg	YN	Left	Yes	1.42864729999565	0	255160	234
499.400390625	1	decision	trialStart	1	26	26	foodImage.99	FOODEEG_Images\0907.jpg	NY	Left	No	1.93726740009151	0	255694	251
500.439453125	2	decision	foodImageDisplay	1	26	26	foodImage.99	FOODEEG_Images\0907.jpg	NY	Left	No	1.93726740009151	0	256226	252
502.501953125	1.93726740009151	decision	choicePhaseStart	1	26	26	foodImage.99	FOODEEG_Images\0907.jpg	NY	Left	No	1.93726740009151	0	257282	253
504.4296875	0	decision	response	1	26	26	foodImage.99	FOODEEG_Images\0907.jpg	NY	Left	No	1.93726740009151	0	258269	234
505.47265625	1	health	trialStart	1	27	27	foodImage.114	FOODEEG_Images\0922.jpg	NY	Right	Yes	0.824731200002134	0	258803	251
506.509765625	2	health	foodImageDisplay	1	27	27	foodImage.114	FOODEEG_Images\0922.jpg	NY	Right	Yes	0.824731200002134	0	259334	252
508.578125	0.824731200002134	health	choicePhaseStart	1	27	27	foodImage.114	FOODEEG_Images\0922.jpg	NY	Right	Yes	0.824731200002134	0	260393	253
509.396484375	0	health	response	1	27	27	foodImage.114	FOODEEG_Images\0922.jpg	NY	Right	Yes	0.824731200002134	0	260812	235
510.439453125	1	taste	trialStart	1	28	28	foodImage.11	FOODEEG_Images\0180.jpg	YN	Right	No	1.14454140001908	0	261346	251
511.482421875	2	taste	foodImageDisplay	1	28	28	foodImage.11	FOODEEG_Images\0180.jpg	YN	Right	No	1.14454140001908	0	261880	252
513.55078125	1.14454140001908	taste	choicePhaseStart	1	28	28	foodImage.11	FOODEEG_Images\0180.jpg	YN	Right	No	1.14454140001908	0	262939	253
514.685546875	0	taste	response	1	28	28	foodImage.11	FOODEEG_Images\0180.jpg	YN	Right	No	1.14454140001908	0	263520	235
515.7265625	1	health	trialStart	1	29	29	foodImage.16	FOODEEG_Images\0196.jpg	NY	Right	Yes	0.802014499902725	0	264053	251
516.78125	2	health	foodImageDisplay	1	29	29	foodImage.16	FOODEEG_Images\0196.jpg	NY	Right	Yes	0.802014499902725	0	264593	252
518.84375	0.802014499902725	health	choicePhaseStart	1	29	29	foodImage.16	FOODEEG_Images\0196.jpg	NY	Right	Yes	0.802014499902725	0	265649	253
519.63671875	0	health	response	1	29	29	foodImage.16	FOODEEG_Images\0196.jpg	NY	Right	Yes	0.802014499902725	0	266055	235
520.681640625	1	decision	trialStart	1	30	30	foodImage.108	FOODEEG_Images\0916.jpg	YN	Left	Yes	1.42107259994373	0	266590	251
521.72265625	2	decision	foodImageDisplay	1	30	30	foodImage.108	FOODEEG_Images\0916.jpg	YN	Left	Yes	1.42107259994373	0	267123	252
523.78515625	1.42107259994373	decision	choicePhaseStart	1	30	30	foodImage.108	FOODEEG_Images\0916.jpg	YN	Left	Yes	1.42107259994373	0	268179	253
525.197265625	0	decision	response	1	30	30	foodImage.108	FOODEEG_Images\0916.jpg	YN	Left	Yes	1.42107259994373	0	268902	234
526.240234375	1	decision	trialStart	1	31	31	foodImage.79	FOODEEG_Images\0794.jpg	NY	Right	Yes	1.36919540003873	0	269436	251
527.28515625	2	decision	foodImageDisplay	1	31	31	foodImage.79	FOODEEG_Images\0794.jpg	NY	Right	Yes	1.36919540003873	0	269971	252
529.349609375	1.36919540003873	decision	choicePhaseStart	1	31	31	foodImage.79	FOODEEG_Images\0794.jpg	NY	Right	Yes	1.36919540003873	0	271028	253
530.708984375	0	decision	response	1	31	31	foodImage.79	FOODEEG_Images\0794.jpg	NY	Right	Yes	1.36919540003873	0	271724	235
531.751953125	1	health	trialStart	1	32	32	foodImage.100	FOODEEG_Images\0908.jpg	YN	Right	No	1.28038870007731	0	272258	251
532.7890625	2	health	foodImageDisplay	1	32	32	foodImage.100	FOODEEG_Images\0908.jpg	YN	Right	No	1.28038870007731	0	272789	252
534.853515625	1.28038870007731	health	choicePhaseStart	1	32	32	foodImage.100	FOODEEG_Images\0908.jpg	YN	Right	No	1.28038870007731	0	273846	253
536.125	0	health	response	1	32	32	foodImage.100	FOODEEG_Images\0908.jpg	YN	Right	No	1.28038870007731	0	274497	235
537.166015625	1	taste	trialStart	1	33	33	foodImage.116	FOODEEG_Images\0924.jpg	YN	Right	No	1.16030049999245	0	275030	251
538.205078125	2	taste	foodImageDisplay	1	33	33	foodImage.116	FOODEEG_Images\0924.jpg	YN	Right	No	1.16030049999245	0	275562	252
540.26953125	1.16030049999245	taste	choicePhaseStart	1	33	33	foodImage.116	FOODEEG_Images\0924.jpg	YN	Right	No	1.16030049999245	0	276619	253
541.419921875	0	taste	response	1	33	33	foodImage.116	FOODEEG_Images\0924.jpg	YN	Right	No	1.16030049999245	0	277208	235
542.462890625	1	taste	trialStart	1	34	34	foodImage.112	FOODEEG_Images\0920.jpg	NY	Left	No	1.34084239997901	0	277742	251
543.50390625	2	taste	foodImageDisplay	1	34	34	foodImage.112	FOODEEG_Images\0920.jpg	NY	Left	No	1.34084239997901	0	278275	252
545.57421875	1.34084239997901	taste	choicePhaseStart	1	34	34	foodImage.112	FOODEEG_Images\0920.jpg	NY	Left	No	1.34084239997901	0	279335	253
546.908203125	0	taste	response	1	34	34	foodImage.112	FOODEEG_Images\0920.jpg	NY	Left	No	1.34084239997901	0	280018	234
547.951171875	1	decision	trialStart	1	35	35	foodImage.32	FOODEEG_Images\0319.jpg	YN	Left	Yes	0.829686200013384	0	280552	251
548.9921875	2	decision	foodImageDisplay	1	35	35	foodImage.32	FOODEEG_Images\0319.jpg	YN	Left	Yes	0.829686200013384	0	281085	252
551.0546875	0.829686200013384	decision	choicePhaseStart	1	35	35	foodImage.32	FOODEEG_Images\0319.jpg	YN	Left	Yes	0.829686200013384	0	282141	253
551.875	0	decision	response	1	35	35	foodImage.32	FOODEEG_Images\0319.jpg	YN	Left	Yes	0.829686200013384	0	282561	234
552.91796875	1	taste	trialStart	1	36	36	foodImage.86	FOODEEG_Images\0844.jpg	YN	Left	Yes	0.654759399825707	0	283095	251
553.974609375	2	taste	foodImageDisplay	1	36	36	foodImage.86	FOODEEG_Images\0844.jpg	YN	Left	Yes	0.654759399825707	0	283636	252
556.037109375	0.654759399825707	taste	choicePhaseStart	1	36	36	foodImage.86	FOODEEG_Images\0844.jpg	YN	Left	Yes	0.654759399825707	0	284692	253
556.68359375	0	taste	response	1	36	36	foodImage.86	FOODEEG_Images\0844.jpg	YN	Left	Yes	0.654759399825707	0	285023	234
557.73046875	1	taste	trialStart	1	37	37	foodImage.113	FOODEEG_Images\0921.jpg	YN	Right	No	1.01682569994591	0	285559	251
558.7734375	2	taste	foodImageDisplay	1	37	37	foodImage.113	FOODEEG_Images\0921.jpg	YN	Right	No	1.01682569994591	0	286093	252
560.8359375	1.01682569994591	taste	choicePhaseStart	1	37	37	foodImage.113	FOODEEG_Images\0921.jpg	YN	Right	No	1.01682569994591	0	287149	253
561.84375	0	taste	response	1	37	37	foodImage.113	FOODEEG_Images\0921.jpg	YN	Right	No	1.01682569994591	0	287665	235
562.892578125	1	taste	trialStart	1	38	38	foodImage.119	FOODEEG_Images\0927.jpg	NY	Left	No	1.01146410009824	0	288202	251
563.931640625	2	taste	foodImageDisplay	1	38	38	foodImage.119	FOODEEG_Images\0927.jpg	NY	Left	No	1.01146410009824	0	288734	252
565.994140625	1.01146410009824	taste	choicePhaseStart	1	38	38	foodImage.119	FOODEEG_Images\0927.jpg	NY	Left	No	1.01146410009824	0	289790	253
566.994140625	0	taste	response	1	38	38	foodImage.119	FOODEEG_Images\0927.jpg	NY	Left	No	1.01146410009824	0	290302	234
568.03515625	1	health	trialStart	1	39	39	foodImage.40	FOODEEG_Images\0373.jpg	NY	Left	No	0.99242620007135	0	290835	251
569.076171875	2	health	foodImageDisplay	1	39	39	foodImage.40	FOODEEG_Images\0373.jpg	NY	Left	No	0.99242620007135	0	291368	252
571.138671875	0.99242620007135	health	choicePhaseStart	1	39	39	foodImage.40	FOODEEG_Images\0373.jpg	NY	Left	No	0.99242620007135	0	292424	253
572.123046875	0	health	response	1	39	39	foodImage.40	FOODEEG_Images\0373.jpg	NY	Left	No	0.99242620007135	0	292928	234
573.166015625	1	health	trialStart	1	40	40	foodImage.83	FOODEEG_Images\0827.jpg	YN	Right	No	0.926935099996626	0	293462	251
574.22265625	2	health	foodImageDisplay	1	40	40	foodImage.83	FOODEEG_Images\0827.jpg	YN	Right	No	0.926935099996626	0	294003	252
576.28515625	0.926935099996626	health	choicePhaseStart	1	40	40	foodImage.83	FOODEEG_Images\0827.jpg	YN	Right	No	0.926935099996626	0	295059	253
577.203125	0	health	response	1	40	40	foodImage.83	FOODEEG_Images\0827.jpg	YN	Right	No	0.926935099996626	0	295529	235
578.24609375	1	taste	trialStart	1	41	41	foodImage.108	FOODEEG_Images\0916.jpg	YN	Right	No	0.917555500054732	0	296063	251
579.28515625	2	taste	foodImageDisplay	1	41	41	foodImage.108	FOODEEG_Images\0916.jpg	YN	Right	No	0.917555500054732	0	296595	252
581.349609375	0.917555500054732	taste	choicePhaseStart	1	41	41	foodImage.108	FOODEEG_Images\0916.jpg	YN	Right	No	0.917555500054732	0	297652	253
582.2578125	0	taste	response	1	41	41	foodImage.108	FOODEEG_Images\0916.jpg	YN	Right	No	0.917555500054732	0	298117	235
583.30078125	1	health	trialStart	1	42	42	foodImage.99	FOODEEG_Images\0907.jpg	YN	Right	No	1.54609409999102	0	298651	251
584.337890625	2	health	foodImageDisplay	1	42	42	foodImage.99	FOODEEG_Images\0907.jpg	YN	Right	No	1.54609409999102	0	299182	252
586.400390625	1.54609409999102	health	choicePhaseStart	1	42	42	foodImage.99	FOODEEG_Images\0907.jpg	YN	Right	No	1.54609409999102	0	300238	253
587.9375	0	health	response	1	42	42	foodImage.99	FOODEEG_Images\0907.jpg	YN	Right	No	1.54609409999102	0	301025	235
588.986328125	1	health	trialStart	1	43	43	foodImage.116	FOODEEG_Images\0924.jpg	NY	Left	No	1.25996010005474	0	301562	251
590.033203125	2	health	foodImageDisplay	1	43	43	foodImage.116	FOODEEG_Images\0924.jpg	NY	Left	No	1.25996010005474	0	302098	252
592.095703125	1.25996010005474	health	choicePhaseStart	1	43	43	foodImage.116	FOODEEG_Images\0924.jpg	NY	Left	No	1.25996010005474	0	303154	253
593.345703125	0	health	response	1	43	43	foodImage.116	FOODEEG_Images\0924.jpg	NY	Left	No	1.25996010005474	0	303794	234
594.396484375	1	taste	trialStart	1	44	44	foodImage.44	FOODEEG_Images\0459.jpg	NY	Right	Yes	1.05839310004376	0	304332	251
595.44140625	2	taste	foodImageDisplay	1	44	44	foodImage.44	FOODEEG_Images\0459.jpg	NY	Right	Yes	1.05839310004376	0	304867	252
597.505859375	1.05839310004376	taste	choicePhaseStart	1	44	44	foodImage.44	FOODEEG_Images\0459.jpg	NY	Right	Yes	1.05839310004376	0	305924	253
598.552734375	0	taste	response	1	44	44	foodImage.44	FOODEEG_Images\0459.jpg	NY	Right	Yes	1.05839310004376	0	306460	235
599.6015625	1	taste	trialStart	1	45	45	foodImage.3	FOODEEG_Images\0046.jpg	YN	Left	Yes	1.0073921000585	0	306997	251
600.64453125	2	taste	foodImageDisplay	1	45	45	foodImage.3	FOODEEG_Images\0046.jpg	YN	Left	Yes	1.0073921000585	0	307531	252
602.70703125	1.0073921000585	taste	choicePhaseStart	1	45	45	foodImage.3	FOODEEG_Images\0046.jpg	YN	Left	Yes	1.0073921000585	0	308587	253
603.705078125	0	taste	response	1	45	45	foodImage.3	FOODEEG_Images\0046.jpg	YN	Left	Yes	1.0073921000585	0	309098	234
604.75	1	decision	trialStart	1	46	46	foodImage.27	FOODEEG_Images\0263.jpg	YN	Left	Yes	1.08378560002893	0	309633	251
605.791015625	2	decision	foodImageDisplay	1	46	46	foodImage.27	FOODEEG_Images\0263.jpg	YN	Left	Yes	1.08378560002893	0	310166	252
607.85546875	1.08378560002893	decision	choicePhaseStart	1	46	46	foodImage.27	FOODEEG_Images\0263.jpg	YN	Left	Yes	1.08378560002893	0	311223	253
608.9296875	0	decision	response	1	46	46	foodImage.27	FOODEEG_Images\0263.jpg	YN	Left	Yes	1.08378560002893	0	311773	234
609.970703125	1	taste	trialStart	1	47	47	foodImage.107	FOODEEG_Images\0915.jpg	YN	Left	Yes	2.11512689990923	0	312306	251
611.009765625	2	taste	foodImageDisplay	1	47	47	foodImage.107	FOODEEG_Images\0915.jpg	YN	Left	Yes	2.11512689990923	0	312838	252
613.078125	2.11512689990923	taste	choicePhaseStart	1	47	47	foodImage.107	FOODEEG_Images\0915.jpg	YN	Left	Yes	2.11512689990923	0	313897	253
615.185546875	0	taste	response	1	47	47	foodImage.107	FOODEEG_Images\0915.jpg	YN	Left	Yes	2.11512689990923	0	314976	234
616.228515625	1	health	trialStart	1	48	48	foodImage.1	FOODEEG_Images\0004.jpg	YN	Left	Yes	0.88949629990384	0	315510	251
617.271484375	2	health	foodImageDisplay	1	48	48	foodImage.1	FOODEEG_Images\0004.jpg	YN	Left	Yes	0.88949629990384	0	316044	252
619.3359375	0.88949629990384	health	choicePhaseStart	1	48	48	foodImage.1	FOODEEG_Images\0004.jpg	YN	Left	Yes	0.88949629990384	0	317101	253
620.216796875	0	health	response	1	48	48	foodImage.1	FOODEEG_Images\0004.jpg	YN	Left	Yes	0.88949629990384	0	317552	234
621.259765625	1	health	trialStart	1	49	49	foodImage.79	FOODEEG_Images\0794.jpg	YN	Left	Yes	1.08228840003721	0	318086	251
622.3046875	2	health	foodImageDisplay	1	49	49	foodImage.79	FOODEEG_Images\0794.jpg	YN	Left	Yes	1.08228840003721	0	318621	252
624.3671875	1.08228840003721	health	choicePhaseStart	1	49	49	foodImage.79	FOODEEG_Images\0794.jpg	YN	Left	Yes	1.08228840003721	0	319677	253
625.44140625	0	health	response	1	49	49	foodImage.79	FOODEEG_Images\0794.jpg	YN	Left	Yes	1.08228840003721	0	320227	234
626.48046875	1	decision	trialStart	1	50	50	foodImage.92	FOODEEG_Images\0900.jpg	YN	Right	No	0.922690900042653	0	320759	251
627.51953125	2	decision	foodImageDisplay	1	50	50	foodImage.92	FOODEEG_Images\0900.jpg	YN	Right	No	0.922690900042653	0	321291	252
629.58203125	0.922690900042653	decision	choicePhaseStart	1	50	50	foodImage.92	FOODEEG_Images\0900.jpg	YN	Right	No	0.922690900042653	0	322347	253
630.49609375	0	decision	response	1	50	50	foodImage.92	FOODEEG_Images\0900.jpg	YN	Right	No	0.922690900042653	0	322815	235
631.537109375	1	decision	trialStart	1	51	51	foodImage.76	FOODEEG_Images\0766.jpg	YN	Left	Yes	0.892642500111833	0	323348	251
632.58203125	2	decision	foodImageDisplay	1	51	51	foodImage.76	FOODEEG_Images\0766.jpg	YN	Left	Yes	0.892642500111833	0	323883	252
634.650390625	0.892642500111833	decision	choicePhaseStart	1	51	51	foodImage.76	FOODEEG_Images\0766.jpg	YN	Left	Yes	0.892642500111833	0	324942	253
635.53515625	0	decision	response	1	51	51	foodImage.76	FOODEEG_Images\0766.jpg	YN	Left	Yes	0.892642500111833	0	325395	234
636.578125	1	decision	trialStart	1	52	52	foodImage.89	FOODEEG_Images\0881.jpg	NY	Right	Yes	1.02868290012702	0	325929	251
637.63671875	2	decision	foodImageDisplay	1	52	52	foodImage.89	FOODEEG_Images\0881.jpg	NY	Right	Yes	1.02868290012702	0	326471	252
639.701171875	1.02868290012702	decision	choicePhaseStart	1	52	52	foodImage.89	FOODEEG_Images\0881.jpg	NY	Right	Yes	1.02868290012702	0	327528	253
640.720703125	0	decision	response	1	52	52	foodImage.89	FOODEEG_Images\0881.jpg	NY	Right	Yes	1.02868290012702	0	328050	235
641.763671875	1	health	trialStart	1	53	53	foodImage.67	FOODEEG_Images\0679.jpg	YN	Right	No	1.70172280003317	0	328584	251
642.822265625	2	health	foodImageDisplay	1	53	53	foodImage.67	FOODEEG_Images\0679.jpg	YN	Right	No	1.70172280003317	0	329126	252
644.884765625	1.70172280003317	health	choicePhaseStart	1	53	53	foodImage.67	FOODEEG_Images\0679.jpg	YN	Right	No	1.70172280003317	0	330182	253
646.576171875	0	health	response	1	53	53	foodImage.67	FOODEEG_Images\0679.jpg	YN	Right	No	1.70172280003317	0	331048	235
647.615234375	1	health	trialStart	1	54	54	foodImage.81	FOODEEG_Images\0797.jpg	YN	Left	Yes	3.21067599998787	0	331580	251
648.671875	2	health	foodImageDisplay	1	54	54	foodImage.81	FOODEEG_Images\0797.jpg	YN	Left	Yes	3.21067599998787	0	332121	252
650.734375	3.21067599998787	health	choicePhaseStart	1	54	54	foodImage.81	FOODEEG_Images\0797.jpg	YN	Left	Yes	3.21067599998787	0	333177	253
653.935546875	0	health	response	1	54	54	foodImage.81	FOODEEG_Images\0797.jpg	YN	Left	Yes	3.21067599998787	0	334816	234
654.978515625	1	health	trialStart	1	55	55	foodImage.70	FOODEEG_Images\0705.jpg	NY	Left	No	1.64667349983938	0	335350	251
656.03515625	2	health	foodImageDisplay	1	55	55	foodImage.70	FOODEEG_Images\0705.jpg	NY	Left	No	1.64667349983938	0	335891	252
658.099609375	1.64667349983938	health	choicePhaseStart	1	55	55	foodImage.70	FOODEEG_Images\0705.jpg	NY	Left	No	1.64667349983938	0	336948	253
659.734375	0	health	response	1	55	55	foodImage.70	FOODEEG_Images\0705.jpg	NY	Left	No	1.64667349983938	0	337785	234
660.783203125	1	decision	trialStart	1	56	56	foodImage.35	FOODEEG_Images\0350.jpg	NY	Right	Yes	1.25541600002907	0	338322	251
661.82421875	2	decision	foodImageDisplay	1	56	56	foodImage.35	FOODEEG_Images\0350.jpg	NY	Right	Yes	1.25541600002907	0	338855	252
663.888671875	1.25541600002907	decision	choicePhaseStart	1	56	56	foodImage.35	FOODEEG_Images\0350.jpg	NY	Right	Yes	1.25541600002907	0	339912	253
665.134765625	0	decision	response	1	56	56	foodImage.35	FOODEEG_Images\0350.jpg	NY	Right	Yes	1.25541600002907	0	340550	235
666.1796875	1	taste	trialStart	1	57	57	foodImage.69	FOODEEG_Images\0693.jpg	NY	Right	Yes	0.869296699995175	0	341085	251
667.220703125	2	taste	foodImageDisplay	1	57	57	foodImage.69	FOODEEG_Images\0693.jpg	NY	Right	Yes	0.869296699995175	0	341618	252
669.283203125	0.869296699995175	taste	choicePhaseStart	1	57	57	foodImage.69	FOODEEG_Images\0693.jpg	NY	Right	Yes	0.869296699995175	0	342674	253
670.142578125	0	taste	response	1	57	57	foodImage.69	FOODEEG_Images\0693.jpg	NY	Right	Yes	0.869296699995175	0	343114	235
671.1875	1	decision	trialStart	1	58	58	foodImage.67	FOODEEG_Images\0679.jpg	YN	Left	Yes	0.81573239993304	0	343649	251
672.24609375	2	decision	foodImageDisplay	1	58	58	foodImage.67	FOODEEG_Images\0679.jpg	YN	Left	Yes	0.81573239993304	0	344191	252
674.310546875	0.81573239993304	decision	choicePhaseStart	1	58	58	foodImage.67	FOODEEG_Images\0679.jpg	YN	Left	Yes	0.81573239993304	0	345248	253
675.119140625	0	decision	response	1	58	58	foodImage.67	FOODEEG_Images\0679.jpg	YN	Left	Yes	0.81573239993304	0	345662	234
676.162109375	1	decision	trialStart	1	59	59	foodImage.29	FOODEEG_Images\0278.jpg	YN	Left	Yes	1.52458189986646	0	346196	251
677.205078125	2	decision	foodImageDisplay	1	59	59	foodImage.29	FOODEEG_Images\0278.jpg	YN	Left	Yes	1.52458189986646	0	346730	252
679.267578125	1.52458189986646	decision	choicePhaseStart	1	59	59	foodImage.29	FOODEEG_Images\0278.jpg	YN	Left	Yes	1.52458189986646	0	347786	253
680.783203125	0	decision	response	1	59	59	foodImage.29	FOODEEG_Images\0278.jpg	YN	Left	Yes	1.52458189986646	0	348562	234
681.828125	1	taste	trialStart	1	60	60	foodImage.89	FOODEEG_Images\0881.jpg	NY	Right	Yes	0.852644899860024	0	349097	251
682.884765625	2	taste	foodImageDisplay	1	60	60	foodImage.89	FOODEEG_Images\0881.jpg	NY	Right	Yes	0.852644899860024	0	349638	252
684.947265625	0.852644899860024	taste	choicePhaseStart	1	60	60	foodImage.89	FOODEEG_Images\0881.jpg	NY	Right	Yes	0.852644899860024	0	350694	253
685.791015625	0	taste	response	1	60	60	foodImage.89	FOODEEG_Images\0881.jpg	NY	Right	Yes	0.852644899860024	0	351126	235
687.830078125	4.716796875	n/a	blockEnd	n/a	n/a	n/a	n/a	n/a	n/a	n/a	n/a	n/a	n/a	352170	254
692.546875	2	n/a	blockStart	2	n/a	n/a	n/a	n/a	n/a	n/a	n/a	n/a	n/a	354585	250
694.5859375	1	health	trialStart	2	61	1	foodImage.2	FOODEEG_Images\0028.jpg	NY	Left	No	0.927196400007233	0	355629	251
695.638671875	2	health	foodImageDisplay	2	61	1	foodImage.2	FOODEEG_Images\0028.jpg	NY	Left	No	0.927196400007233	0	356168	252
697.703125	0.927196400007233	health	choicePhaseStart	2	61	1	foodImage.2	FOODEEG_Images\0028.jpg	NY	Left	No	0.927196400007233	0	357225	253
698.62109375	0	health	response	2	61	1	foodImage.2	FOODEEG_Images\0028.jpg	NY	Left	No	0.927196400007233	0	357695	234
699.666015625	1	health	trialStart	2	62	2	foodImage.45	FOODEEG_Images\0478.jpg	NY	Right	Yes	4.29504429991357	0	358230	251
700.7109375	2	health	foodImageDisplay	2	62	2	foodImage.45	FOODEEG_Images\0478.jpg	NY	Right	Yes	4.29504429991357	0	358765	252
702.775390625	4.29504429991357	health	choicePhaseStart	2	62	2	foodImage.45	FOODEEG_Images\0478.jpg	NY	Right	Yes	4.29504429991357	0	359822	253
707.060546875	0	health	response	2	62	2	foodImage.45	FOODEEG_Images\0478.jpg	NY	Right	Yes	4.29504429991357	0	362016	235
708.103515625	1	taste	trialStart	2	63	3	foodImage.65	FOODEEG_Images\0658.jpg	YN	Left	Yes	1.93815699988045	0	362550	251
709.14453125	2	taste	foodImageDisplay	2	63	3	foodImage.65	FOODEEG_Images\0658.jpg	YN	Left	Yes	1.93815699988045	0	363083	252
711.212890625	1.93815699988045	taste	choicePhaseStart	2	63	3	foodImage.65	FOODEEG_Images\0658.jpg	YN	Left	Yes	1.93815699988045	0	364142	253
713.140625	0	taste	response	2	63	3	foodImage.65	FOODEEG_Images\0658.jpg	YN	Left	Yes	1.93815699988045	0	365129	234
714.18359375	1	health	trialStart	2	64	4	foodImage.7	FOODEEG_Images\0116.jpg	NY	Left	No	1.58775199996307	0	365663	251
715.2265625	2	health	foodImageDisplay	2	64	4	foodImage.7	FOODEEG_Images\0116.jpg	NY	Left	No	1.58775199996307	0	366197	252
717.291015625	1.58775199996307	health	choicePhaseStart	2	64	4	foodImage.7	FOODEEG_Images\0116.jpg	NY	Left	No	1.58775199996307	0	367254	253
718.869140625	0	health	response	2	64	4	foodImage.7	FOODEEG_Images\0116.jpg	NY	Left	No	1.58775199996307	0	368062	234
719.91015625	1	taste	trialStart	2	65	5	foodImage.84	FOODEEG_Images\0830.jpg	NY	Right	Yes	0.918833300005645	0	368595	251
720.96484375	2	taste	foodImageDisplay	2	65	5	foodImage.84	FOODEEG_Images\0830.jpg	NY	Right	Yes	0.918833300005645	0	369135	252
723.029296875	0.918833300005645	taste	choicePhaseStart	2	65	5	foodImage.84	FOODEEG_Images\0830.jpg	NY	Right	Yes	0.918833300005645	0	370192	253
723.94140625	0	taste	response	2	65	5	foodImage.84	FOODEEG_Images\0830.jpg	NY	Right	Yes	0.918833300005645	0	370659	235
724.982421875	1	taste	trialStart	2	66	6	foodImage.32	FOODEEG_Images\0319.jpg	YN	Left	Yes	1.43063750001602	0	371192	251
726.025390625	2	taste	foodImageDisplay	2	66	6	foodImage.32	FOODEEG_Images\0319.jpg	YN	Left	Yes	1.43063750001602	0	371726	252
728.087890625	1.43063750001602	taste	choicePhaseStart	2	66	6	foodImage.32	FOODEEG_Images\0319.jpg	YN	Left	Yes	1.43063750001602	0	372782	253
729.5078125	0	taste	response	2	66	6	foodImage.32	FOODEEG_Images\0319.jpg	YN	Left	Yes	1.43063750001602	0	373509	234
730.552734375	1	taste	trialStart	2	67	7	foodImage.8	FOODEEG_Images\0136.jpg	NY	Right	Yes	1.78462809999473	0	374044	251
731.595703125	2	taste	foodImageDisplay	2	67	7	foodImage.8	FOODEEG_Images\0136.jpg	NY	Right	Yes	1.78462809999473	0	374578	252
733.6640625	1.78462809999473	taste	choicePhaseStart	2	67	7	foodImage.8	FOODEEG_Images\0136.jpg	NY	Right	Yes	1.78462809999473	0	375637	253
735.443359375	0	taste	response	2	67	7	foodImage.8	FOODEEG_Images\0136.jpg	NY	Right	Yes	1.78462809999473	0	376548	235
736.48828125	1	taste	trialStart	2	68	8	foodImage.20	FOODEEG_Images\0226.jpg	NY	Right	Yes	0.630141500150785	0	377083	251
737.53125	2	taste	foodImageDisplay	2	68	8	foodImage.20	FOODEEG_Images\0226.jpg	NY	Right	Yes	0.630141500150785	0	377617	252
739.599609375	0.630141500150785	taste	choicePhaseStart	2	68	8	foodImage.20	FOODEEG_Images\0226.jpg	NY	Right	Yes	0.630141500150785	0	378676	253
740.220703125	0	taste	response	2	68	8	foodImage.20	FOODEEG_Images\0226.jpg	NY	Right	Yes	0.630141500150785	0	378994	235
741.263671875	1	decision	trialStart	2	69	9	foodImage.86	FOODEEG_Images\0844.jpg	YN	Left	Yes	0.986470900010318	0	379528	251
742.322265625	2	decision	foodImageDisplay	2	69	9	foodImage.86	FOODEEG_Images\0844.jpg	YN	Left	Yes	0.986470900010318	0	380070	252
744.38671875	0.986470900010318	decision	choicePhaseStart	2	69	9	foodImage.86	FOODEEG_Images\0844.jpg	YN	Left	Yes	0.986470900010318	0	381127	253
745.36328125	0	decision	response	2	69	9	foodImage.86	FOODEEG_Images\0844.jpg	YN	Left	Yes	0.986470900010318	0	381627	234
746.40625	1	health	trialStart	2	70	10	foodImage.17	FOODEEG_Images\0199.jpg	YN	Left	Yes	0.729848599992692	0	382161	251
747.44921875	2	health	foodImageDisplay	2	70	10	foodImage.17	FOODEEG_Images\0199.jpg	YN	Left	Yes	0.729848599992692	0	382695	252
749.515625	0.729848599992692	health	choicePhaseStart	2	70	10	foodImage.17	FOODEEG_Images\0199.jpg	YN	Left	Yes	0.729848599992692	0	383753	253
750.236328125	0	health	response	2	70	10	foodImage.17	FOODEEG_Images\0199.jpg	YN	Left	Yes	0.729848599992692	0	384122	234
751.279296875	1	decision	trialStart	2	71	11	foodImage.53	FOODEEG_Images\0547.jpg	YN	Left	Yes	1.16032640007325	0	384656	251
752.33984375	2	decision	foodImageDisplay	2	71	11	foodImage.53	FOODEEG_Images\0547.jpg	YN	Left	Yes	1.16032640007325	0	385199	252
754.404296875	1.16032640007325	decision	choicePhaseStart	2	71	11	foodImage.53	FOODEEG_Images\0547.jpg	YN	Left	Yes	1.16032640007325	0	386256	253
755.5546875	0	decision	response	2	71	11	foodImage.53	FOODEEG_Images\0547.jpg	YN	Left	Yes	1.16032640007325	0	386845	234
756.599609375	1	decision	trialStart	2	72	12	foodImage.74	FOODEEG_Images\0752.jpg	YN	Left	Yes	0.675738099962473	0	387380	251
757.642578125	2	decision	foodImageDisplay	2	72	12	foodImage.74	FOODEEG_Images\0752.jpg	YN	Left	Yes	0.675738099962473	0	387914	252
759.705078125	0.675738099962473	decision	choicePhaseStart	2	72	12	foodImage.74	FOODEEG_Images\0752.jpg	YN	Left	Yes	0.675738099962473	0	388970	253
760.37109375	0	decision	response	2	72	12	foodImage.74	FOODEEG_Images\0752.jpg	YN	Left	Yes	0.675738099962473	0	389311	234
761.4140625	1	taste	trialStart	2	73	13	foodImage.41	FOODEEG_Images\0409.jpg	NY	Right	Yes	0.92974349996075	0	389845	251
762.4609375	2	taste	foodImageDisplay	2	73	13	foodImage.41	FOODEEG_Images\0409.jpg	NY	Right	Yes	0.92974349996075	0	390381	252
764.5234375	0.92974349996075	taste	choicePhaseStart	2	73	13	foodImage.41	FOODEEG_Images\0409.jpg	NY	Right	Yes	0.92974349996075	0	391437	253
765.443359375	0	taste	response	2	73	13	foodImage.41	FOODEEG_Images\0409.jpg	NY	Right	Yes	0.92974349996075	0	391908	235
766.486328125	1	decision	trialStart	2	74	14	foodImage.7	FOODEEG_Images\0116.jpg	YN	Left	Yes	0.93616949999705	0	392442	251
767.529296875	2	decision	foodImageDisplay	2	74	14	foodImage.7	FOODEEG_Images\0116.jpg	YN	Left	Yes	0.93616949999705	0	392976	252
769.59375	0.93616949999705	decision	choicePhaseStart	2	74	14	foodImage.7	FOODEEG_Images\0116.jpg	YN	Left	Yes	0.93616949999705	0	394033	253
770.5234375	0	decision	response	2	74	14	foodImage.7	FOODEEG_Images\0116.jpg	YN	Left	Yes	0.93616949999705	0	394509	234
771.564453125	1	health	trialStart	2	75	15	foodImage.120	FOODEEG_Images\0928.jpg	YN	Right	No	2.0562704000622	0	395042	251
772.6015625	2	health	foodImageDisplay	2	75	15	foodImage.120	FOODEEG_Images\0928.jpg	YN	Right	No	2.0562704000622	0	395573	252
774.66796875	2.0562704000622	health	choicePhaseStart	2	75	15	foodImage.120	FOODEEG_Images\0928.jpg	YN	Right	No	2.0562704000622	0	396631	253
776.71484375	0	health	response	2	75	15	foodImage.120	FOODEEG_Images\0928.jpg	YN	Right	No	2.0562704000622	0	397679	235
777.7578125	1	decision	trialStart	2	76	16	foodImage.37	FOODEEG_Images\0359.jpg	NY	Right	Yes	0.988696000073105	0	398213	251
778.798828125	2	decision	foodImageDisplay	2	76	16	foodImage.37	FOODEEG_Images\0359.jpg	NY	Right	Yes	0.988696000073105	0	398746	252
780.8671875	0.988696000073105	decision	choicePhaseStart	2	76	16	foodImage.37	FOODEEG_Images\0359.jpg	NY	Right	Yes	0.988696000073105	0	399805	253
781.849609375	0	decision	response	2	76	16	foodImage.37	FOODEEG_Images\0359.jpg	NY	Right	Yes	0.988696000073105	0	400308	235
782.900390625	1	decision	trialStart	2	77	17	foodImage.70	FOODEEG_Images\0705.jpg	YN	Left	Yes	0.693369100103155	0	400846	251
783.95703125	2	decision	foodImageDisplay	2	77	17	foodImage.70	FOODEEG_Images\0705.jpg	YN	Left	Yes	0.693369100103155	0	401387	252
786.021484375	0.693369100103155	decision	choicePhaseStart	2	77	17	foodImage.70	FOODEEG_Images\0705.jpg	YN	Left	Yes	0.693369100103155	0	402444	253
786.70703125	0	decision	response	2	77	17	foodImage.70	FOODEEG_Images\0705.jpg	YN	Left	Yes	0.693369100103155	0	402795	234
787.751953125	1	decision	trialStart	2	78	18	foodImage.56	FOODEEG_Images\0586.jpg	NY	Right	Yes	1.25721330009401	0	403330	251
788.794921875	2	decision	foodImageDisplay	2	78	18	foodImage.56	FOODEEG_Images\0586.jpg	NY	Right	Yes	1.25721330009401	0	403864	252
790.859375	1.25721330009401	decision	choicePhaseStart	2	78	18	foodImage.56	FOODEEG_Images\0586.jpg	NY	Right	Yes	1.25721330009401	0	404921	253
792.10546875	0	decision	response	2	78	18	foodImage.56	FOODEEG_Images\0586.jpg	NY	Right	Yes	1.25721330009401	0	405559	235
793.150390625	1	decision	trialStart	2	79	19	foodImage.12	FOODEEG_Images\0181.jpg	NY	Right	Yes	0.914195399964228	0	406094	251
794.193359375	2	decision	foodImageDisplay	2	79	19	foodImage.12	FOODEEG_Images\0181.jpg	NY	Right	Yes	0.914195399964228	0	406628	252
796.2578125	0.914195399964228	decision	choicePhaseStart	2	79	19	foodImage.12	FOODEEG_Images\0181.jpg	NY	Right	Yes	0.914195399964228	0	407685	253
797.162109375	0	decision	response	2	79	19	foodImage.12	FOODEEG_Images\0181.jpg	NY	Right	Yes	0.914195399964228	0	408148	235
798.201171875	1	taste	trialStart	2	80	20	foodImage.39	FOODEEG_Images\0367.jpg	NY	Right	Yes	0.780933100031689	0	408680	251
799.23828125	2	taste	foodImageDisplay	2	80	20	foodImage.39	FOODEEG_Images\0367.jpg	NY	Right	Yes	0.780933100031689	0	409211	252
801.30078125	0.780933100031689	taste	choicePhaseStart	2	80	20	foodImage.39	FOODEEG_Images\0367.jpg	NY	Right	Yes	0.780933100031689	0	410267	253
802.07421875	0	taste	response	2	80	20	foodImage.39	FOODEEG_Images\0367.jpg	NY	Right	Yes	0.780933100031689	0	410663	235
803.115234375	1	health	trialStart	2	81	21	foodImage.20	FOODEEG_Images\0226.jpg	NY	Right	Yes	1.12185310013592	0	411196	251
804.158203125	2	health	foodImageDisplay	2	81	21	foodImage.20	FOODEEG_Images\0226.jpg	NY	Right	Yes	1.12185310013592	0	411730	252
806.224609375	1.12185310013592	health	choicePhaseStart	2	81	21	foodImage.20	FOODEEG_Images\0226.jpg	NY	Right	Yes	1.12185310013592	0	412788	253
807.337890625	0	health	response	2	81	21	foodImage.20	FOODEEG_Images\0226.jpg	NY	Right	Yes	1.12185310013592	0	413358	235
808.380859375	1	health	trialStart	2	82	22	foodImage.69	FOODEEG_Images\0693.jpg	NY	Right	Yes	0.757734299870208	0	413892	251
809.421875	2	health	foodImageDisplay	2	82	22	foodImage.69	FOODEEG_Images\0693.jpg	NY	Right	Yes	0.757734299870208	0	414425	252
811.484375	0.757734299870208	health	choicePhaseStart	2	82	22	foodImage.69	FOODEEG_Images\0693.jpg	NY	Right	Yes	0.757734299870208	0	415481	253
812.232421875	0	health	response	2	82	22	foodImage.69	FOODEEG_Images\0693.jpg	NY	Right	Yes	0.757734299870208	0	415864	235
813.28125	1	decision	trialStart	2	83	23	foodImage.83	FOODEEG_Images\0827.jpg	YN	Left	Yes	0.797881699865684	0	416401	251
814.341796875	2	decision	foodImageDisplay	2	83	23	foodImage.83	FOODEEG_Images\0827.jpg	YN	Left	Yes	0.797881699865684	0	416944	252
816.404296875	0.797881699865684	decision	choicePhaseStart	2	83	23	foodImage.83	FOODEEG_Images\0827.jpg	YN	Left	Yes	0.797881699865684	0	418000	253
817.193359375	0	decision	response	2	83	23	foodImage.83	FOODEEG_Images\0827.jpg	YN	Left	Yes	0.797881699865684	0	418404	234
818.236328125	1	decision	trialStart	2	84	24	foodImage.90	FOODEEG_Images\0890.jpg	YN	Left	Yes	0.729827100178227	0	418938	251
819.296875	2	decision	foodImageDisplay	2	84	24	foodImage.90	FOODEEG_Images\0890.jpg	YN	Left	Yes	0.729827100178227	0	419481	252
821.361328125	0.729827100178227	decision	choicePhaseStart	2	84	24	foodImage.90	FOODEEG_Images\0890.jpg	YN	Left	Yes	0.729827100178227	0	420538	253
822.080078125	0	decision	response	2	84	24	foodImage.90	FOODEEG_Images\0890.jpg	YN	Left	Yes	0.729827100178227	0	420906	234
823.12890625	1	health	trialStart	2	85	25	foodImage.56	FOODEEG_Images\0586.jpg	NY	Right	Yes	1.23610910004936	0	421443	251
824.173828125	2	health	foodImageDisplay	2	85	25	foodImage.56	FOODEEG_Images\0586.jpg	NY	Right	Yes	1.23610910004936	0	421978	252
826.2421875	1.23610910004936	health	choicePhaseStart	2	85	25	foodImage.56	FOODEEG_Images\0586.jpg	NY	Right	Yes	1.23610910004936	0	423037	253
827.47265625	0	health	response	2	85	25	foodImage.56	FOODEEG_Images\0586.jpg	NY	Right	Yes	1.23610910004936	0	423667	235
828.513671875	1	decision	trialStart	2	86	26	foodImage.30	FOODEEG_Images\0282.jpg	YN	Left	Yes	0.855733399977908	0	424200	251
829.5546875	2	decision	foodImageDisplay	2	86	26	foodImage.30	FOODEEG_Images\0282.jpg	YN	Left	Yes	0.855733399977908	0	424733	252
831.6171875	0.855733399977908	decision	choicePhaseStart	2	86	26	foodImage.30	FOODEEG_Images\0282.jpg	YN	Left	Yes	0.855733399977908	0	425789	253
832.46484375	0	decision	response	2	86	26	foodImage.30	FOODEEG_Images\0282.jpg	YN	Left	Yes	0.855733399977908	0	426223	234
833.5078125	1	decision	trialStart	2	87	27	foodImage.88	FOODEEG_Images\0878.jpg	YN	Left	Yes	1.23058239999227	0	426757	251
834.564453125	2	decision	foodImageDisplay	2	87	27	foodImage.88	FOODEEG_Images\0878.jpg	YN	Left	Yes	1.23058239999227	0	427298	252
836.626953125	1.23058239999227	decision	choicePhaseStart	2	87	27	foodImage.88	FOODEEG_Images\0878.jpg	YN	Left	Yes	1.23058239999227	0	428354	253
837.84765625	0	decision	response	2	87	27	foodImage.88	FOODEEG_Images\0878.jpg	YN	Left	Yes	1.23058239999227	0	428979	234
838.892578125	1	decision	trialStart	2	88	28	foodImage.98	FOODEEG_Images\0906.jpg	NY	Left	No	1.06122300005518	0	429514	251
839.931640625	2	decision	foodImageDisplay	2	88	28	foodImage.98	FOODEEG_Images\0906.jpg	NY	Left	No	1.06122300005518	0	430046	252
841.99609375	1.06122300005518	decision	choicePhaseStart	2	88	28	foodImage.98	FOODEEG_Images\0906.jpg	NY	Left	No	1.06122300005518	0	431103	253
843.048828125	0	decision	response	2	88	28	foodImage.98	FOODEEG_Images\0906.jpg	NY	Left	No	1.06122300005518	0	431642	234
844.091796875	1	taste	trialStart	2	89	29	foodImage.99	FOODEEG_Images\0907.jpg	NY	Left	No	0.759601099882275	0	432176	251
845.130859375	2	taste	foodImageDisplay	2	89	29	foodImage.99	FOODEEG_Images\0907.jpg	NY	Left	No	0.759601099882275	0	432708	252
847.193359375	0.759601099882275	taste	choicePhaseStart	2	89	29	foodImage.99	FOODEEG_Images\0907.jpg	NY	Left	No	0.759601099882275	0	433764	253
847.943359375	0	taste	response	2	89	29	foodImage.99	FOODEEG_Images\0907.jpg	NY	Left	No	0.759601099882275	0	434148	234
848.986328125	1	health	trialStart	2	90	30	foodImage.62	FOODEEG_Images\0644.jpg	NY	Right	Yes	0.796960999956354	0	434682	251
850.044921875	2	health	foodImageDisplay	2	90	30	foodImage.62	FOODEEG_Images\0644.jpg	NY	Right	Yes	0.796960999956354	0	435224	252
852.107421875	0.796960999956354	health	choicePhaseStart	2	90	30	foodImage.62	FOODEEG_Images\0644.jpg	NY	Right	Yes	0.796960999956354	0	436280	253
852.89453125	0	health	response	2	90	30	foodImage.62	FOODEEG_Images\0644.jpg	NY	Right	Yes	0.796960999956354	0	436683	235
853.94140625	1	health	trialStart	2	91	31	foodImage.39	FOODEEG_Images\0367.jpg	NY	Right	Yes	0.861132699996233	0	437219	251
854.98046875	2	health	foodImageDisplay	2	91	31	foodImage.39	FOODEEG_Images\0367.jpg	NY	Right	Yes	0.861132699996233	0	437751	252
857.04296875	0.861132699996233	health	choicePhaseStart	2	91	31	foodImage.39	FOODEEG_Images\0367.jpg	NY	Right	Yes	0.861132699996233	0	438807	253
857.89453125	0	health	response	2	91	31	foodImage.39	FOODEEG_Images\0367.jpg	NY	Right	Yes	0.861132699996233	0	439243	235
858.9453125	1	health	trialStart	2	92	32	foodImage.21	FOODEEG_Images\0234.jpg	NY	Right	Yes	1.14327959995717	0	439781	251
860.001953125	2	health	foodImageDisplay	2	92	32	foodImage.21	FOODEEG_Images\0234.jpg	NY	Right	Yes	1.14327959995717	0	440322	252
862.064453125	1.14327959995717	health	choicePhaseStart	2	92	32	foodImage.21	FOODEEG_Images\0234.jpg	NY	Right	Yes	1.14327959995717	0	441378	253
863.19921875	0	health	response	2	92	32	foodImage.21	FOODEEG_Images\0234.jpg	NY	Right	Yes	1.14327959995717	0	441959	235
864.25390625	1	decision	trialStart	2	93	33	foodImage.84	FOODEEG_Images\0830.jpg	NY	Right	Yes	0.858761499868706	0	442499	251
865.310546875	2	decision	foodImageDisplay	2	93	33	foodImage.84	FOODEEG_Images\0830.jpg	NY	Right	Yes	0.858761499868706	0	443040	252
867.37890625	0.858761499868706	decision	choicePhaseStart	2	93	33	foodImage.84	FOODEEG_Images\0830.jpg	NY	Right	Yes	0.858761499868706	0	444099	253
868.23046875	0	decision	response	2	93	33	foodImage.84	FOODEEG_Images\0830.jpg	NY	Right	Yes	0.858761499868706	0	444535	235
869.275390625	1	health	trialStart	2	94	34	foodImage.58	FOODEEG_Images\0605.jpg	NY	Right	Yes	1.7234410000965	0	445070	251
870.333984375	2	health	foodImageDisplay	2	94	34	foodImage.58	FOODEEG_Images\0605.jpg	NY	Right	Yes	1.7234410000965	0	445612	252
872.40234375	1.7234410000965	health	choicePhaseStart	2	94	34	foodImage.58	FOODEEG_Images\0605.jpg	NY	Right	Yes	1.7234410000965	0	446671	253
874.119140625	0	health	response	2	94	34	foodImage.58	FOODEEG_Images\0605.jpg	NY	Right	Yes	1.7234410000965	0	447550	235
875.1640625	1	decision	trialStart	2	95	35	foodImage.82	FOODEEG_Images\0805.jpg	NY	Right	Yes	1.67925819987431	0	448085	251
876.21875	2	decision	foodImageDisplay	2	95	35	foodImage.82	FOODEEG_Images\0805.jpg	NY	Right	Yes	1.67925819987431	0	448625	252
878.28125	1.67925819987431	decision	choicePhaseStart	2	95	35	foodImage.82	FOODEEG_Images\0805.jpg	NY	Right	Yes	1.67925819987431	0	449681	253
879.951171875	0	decision	response	2	95	35	foodImage.82	FOODEEG_Images\0805.jpg	NY	Right	Yes	1.67925819987431	0	450536	235
880.998046875	1	decision	trialStart	2	96	36	foodImage.52	FOODEEG_Images\0539.jpg	NY	Right	Yes	0.637993499869481	0	451072	251
882.056640625	2	decision	foodImageDisplay	2	96	36	foodImage.52	FOODEEG_Images\0539.jpg	NY	Right	Yes	0.637993499869481	0	451614	252
884.12109375	0.637993499869481	decision	choicePhaseStart	2	96	36	foodImage.52	FOODEEG_Images\0539.jpg	NY	Right	Yes	0.637993499869481	0	452671	253
884.75	0	decision	response	2	96	36	foodImage.52	FOODEEG_Images\0539.jpg	NY	Right	Yes	0.637993499869481	0	452993	235
885.79296875	1	health	trialStart	2	97	37	foodImage.77	FOODEEG_Images\0771.jpg	NY	Right	Yes	0.900993199786171	0	453527	251
886.8359375	2	health	foodImageDisplay	2	97	37	foodImage.77	FOODEEG_Images\0771.jpg	NY	Right	Yes	0.900993199786171	0	454061	252
888.8984375	0.900993199786171	health	choicePhaseStart	2	97	37	foodImage.77	FOODEEG_Images\0771.jpg	NY	Right	Yes	0.900993199786171	0	455117	253
889.791015625	0	health	response	2	97	37	foodImage.77	FOODEEG_Images\0771.jpg	NY	Right	Yes	0.900993199786171	0	455574	235
890.833984375	1	health	trialStart	2	98	38	foodImage.46	FOODEEG_Images\0479.jpg	NY	Right	Yes	2.04470209986903	0	456108	251
891.892578125	2	health	foodImageDisplay	2	98	38	foodImage.46	FOODEEG_Images\0479.jpg	NY	Right	Yes	2.04470209986903	0	456650	252
893.955078125	2.04470209986903	health	choicePhaseStart	2	98	38	foodImage.46	FOODEEG_Images\0479.jpg	NY	Right	Yes	2.04470209986903	0	457706	253
895.990234375	0	health	response	2	98	38	foodImage.46	FOODEEG_Images\0479.jpg	NY	Right	Yes	2.04470209986903	0	458748	235
897.03125	1	decision	trialStart	2	99	39	foodImage.111	FOODEEG_Images\0919.jpg	YN	Right	No	1.49809230002575	0	459281	251
898.0703125	2	decision	foodImageDisplay	2	99	39	foodImage.111	FOODEEG_Images\0919.jpg	YN	Right	No	1.49809230002575	0	459813	252
900.1328125	1.49809230002575	decision	choicePhaseStart	2	99	39	foodImage.111	FOODEEG_Images\0919.jpg	YN	Right	No	1.49809230002575	0	460869	253
901.62109375	0	decision	response	2	99	39	foodImage.111	FOODEEG_Images\0919.jpg	YN	Right	No	1.49809230002575	0	461631	235
902.666015625	1	taste	trialStart	2	100	40	foodImage.115	FOODEEG_Images\0923.jpg	YN	Right	No	1.29384499997832	0	462166	251
903.705078125	2	taste	foodImageDisplay	2	100	40	foodImage.115	FOODEEG_Images\0923.jpg	YN	Right	No	1.29384499997832	0	462698	252
905.76953125	1.29384499997832	taste	choicePhaseStart	2	100	40	foodImage.115	FOODEEG_Images\0923.jpg	YN	Right	No	1.29384499997832	0	463755	253
907.052734375	0	taste	response	2	100	40	foodImage.115	FOODEEG_Images\0923.jpg	YN	Right	No	1.29384499997832	0	464412	235
908.1015625	1	taste	trialStart	2	101	41	foodImage.111	FOODEEG_Images\0919.jpg	NY	Left	No	1.00900719990022	0	464949	251
909.140625	2	taste	foodImageDisplay	2	101	41	foodImage.111	FOODEEG_Images\0919.jpg	NY	Left	No	1.00900719990022	0	465481	252
911.205078125	1.00900719990022	taste	choicePhaseStart	2	101	41	foodImage.111	FOODEEG_Images\0919.jpg	NY	Left	No	1.00900719990022	0	466538	253
912.205078125	0	taste	response	2	101	41	foodImage.111	FOODEEG_Images\0919.jpg	NY	Left	No	1.00900719990022	0	467050	234
913.248046875	1	decision	trialStart	2	102	42	foodImage.118	FOODEEG_Images\0926.jpg	NY	Right	Yes	0.787889099912718	0	467584	251
914.2890625	2	decision	foodImageDisplay	2	102	42	foodImage.118	FOODEEG_Images\0926.jpg	NY	Right	Yes	0.787889099912718	0	468117	252
916.3515625	0.787889099912718	decision	choicePhaseStart	2	102	42	foodImage.118	FOODEEG_Images\0926.jpg	NY	Right	Yes	0.787889099912718	0	469173	253
917.1328125	0	decision	response	2	102	42	foodImage.118	FOODEEG_Images\0926.jpg	NY	Right	Yes	0.787889099912718	0	469573	235
918.1796875	1	taste	trialStart	2	103	43	foodImage.114	FOODEEG_Images\0922.jpg	YN	Left	Yes	1.45218840008602	0	470109	251
919.21875	2	taste	foodImageDisplay	2	103	43	foodImage.114	FOODEEG_Images\0922.jpg	YN	Left	Yes	1.45218840008602	0	470641	252
921.283203125	1.45218840008602	taste	choicePhaseStart	2	103	43	foodImage.114	FOODEEG_Images\0922.jpg	YN	Left	Yes	1.45218840008602	0	471698	253
922.724609375	0	taste	response	2	103	43	foodImage.114	FOODEEG_Images\0922.jpg	YN	Left	Yes	1.45218840008602	0	472436	234
923.767578125	1	taste	trialStart	2	104	44	foodImage.63	FOODEEG_Images\0645.jpg	NY	Right	Yes	0.883349800016731	0	472970	251
924.810546875	2	taste	foodImageDisplay	2	104	44	foodImage.63	FOODEEG_Images\0645.jpg	NY	Right	Yes	0.883349800016731	0	473504	252
926.875	0.883349800016731	taste	choicePhaseStart	2	104	44	foodImage.63	FOODEEG_Images\0645.jpg	NY	Right	Yes	0.883349800016731	0	474561	253
927.748046875	0	taste	response	2	104	44	foodImage.63	FOODEEG_Images\0645.jpg	NY	Right	Yes	0.883349800016731	0	475008	235
928.79296875	1	decision	trialStart	2	105	45	foodImage.41	FOODEEG_Images\0409.jpg	NY	Right	Yes	0.752424400066957	0	475543	251
929.83984375	2	decision	foodImageDisplay	2	105	45	foodImage.41	FOODEEG_Images\0409.jpg	NY	Right	Yes	0.752424400066957	0	476079	252
931.90234375	0.752424400066957	decision	choicePhaseStart	2	105	45	foodImage.41	FOODEEG_Images\0409.jpg	NY	Right	Yes	0.752424400066957	0	477135	253
932.64453125	0	decision	response	2	105	45	foodImage.41	FOODEEG_Images\0409.jpg	NY	Right	Yes	0.752424400066957	0	477515	235
933.693359375	1	taste	trialStart	2	106	46	foodImage.38	FOODEEG_Images\0365.jpg	YN	Left	Yes	0.755938800051808	0	478052	251
934.73828125	2	taste	foodImageDisplay	2	106	46	foodImage.38	FOODEEG_Images\0365.jpg	YN	Left	Yes	0.755938800051808	0	478587	252
936.80078125	0.755938800051808	taste	choicePhaseStart	2	106	46	foodImage.38	FOODEEG_Images\0365.jpg	YN	Left	Yes	0.755938800051808	0	479643	253
937.548828125	0	taste	response	2	106	46	foodImage.38	FOODEEG_Images\0365.jpg	YN	Left	Yes	0.755938800051808	0	480026	234
938.591796875	1	decision	trialStart	2	107	47	foodImage.63	FOODEEG_Images\0645.jpg	YN	Left	Yes	0.69494040007703	0	480560	251
939.630859375	2	decision	foodImageDisplay	2	107	47	foodImage.63	FOODEEG_Images\0645.jpg	YN	Left	Yes	0.69494040007703	0	481092	252
941.69921875	0.69494040007703	decision	choicePhaseStart	2	107	47	foodImage.63	FOODEEG_Images\0645.jpg	YN	Left	Yes	0.69494040007703	0	482151	253
942.388671875	0	decision	response	2	107	47	foodImage.63	FOODEEG_Images\0645.jpg	YN	Left	Yes	0.69494040007703	0	482504	234
943.431640625	1	taste	trialStart	2	108	48	foodImage.109	FOODEEG_Images\0917.jpg	YN	Left	Yes	1.1305188999977	0	483038	251
944.470703125	2	taste	foodImageDisplay	2	108	48	foodImage.109	FOODEEG_Images\0917.jpg	YN	Left	Yes	1.1305188999977	0	483570	252
946.537109375	1.1305188999977	taste	choicePhaseStart	2	108	48	foodImage.109	FOODEEG_Images\0917.jpg	YN	Left	Yes	1.1305188999977	0	484628	253
947.66015625	0	taste	response	2	108	48	foodImage.109	FOODEEG_Images\0917.jpg	YN	Left	Yes	1.1305188999977	0	485203	234
948.703125	1	taste	trialStart	2	109	49	foodImage.43	FOODEEG_Images\0445.jpg	NY	Right	Yes	1.55504980008118	0	485737	251
949.763671875	2	taste	foodImageDisplay	2	109	49	foodImage.43	FOODEEG_Images\0445.jpg	NY	Right	Yes	1.55504980008118	0	486280	252
951.83203125	1.55504980008118	taste	choicePhaseStart	2	109	49	foodImage.43	FOODEEG_Images\0445.jpg	NY	Right	Yes	1.55504980008118	0	487339	253
953.37890625	0	taste	response	2	109	49	foodImage.43	FOODEEG_Images\0445.jpg	NY	Right	Yes	1.55504980008118	0	488131	235
954.421875	1	decision	trialStart	2	110	50	foodImage.25	FOODEEG_Images\0261.jpg	NY	Right	Yes	1.13335150014609	0	488665	251
955.46484375	2	decision	foodImageDisplay	2	110	50	foodImage.25	FOODEEG_Images\0261.jpg	NY	Right	Yes	1.13335150014609	0	489199	252
957.52734375	1.13335150014609	decision	choicePhaseStart	2	110	50	foodImage.25	FOODEEG_Images\0261.jpg	NY	Right	Yes	1.13335150014609	0	490255	253
958.65234375	0	decision	response	2	110	50	foodImage.25	FOODEEG_Images\0261.jpg	NY	Right	Yes	1.13335150014609	0	490831	235
959.693359375	1	decision	trialStart	2	111	51	foodImage.10	FOODEEG_Images\0145.jpg	NY	Right	Yes	0.516092600068077	0	491364	251
960.751953125	2	decision	foodImageDisplay	2	111	51	foodImage.10	FOODEEG_Images\0145.jpg	NY	Right	Yes	0.516092600068077	0	491906	252
962.81640625	0.516092600068077	decision	choicePhaseStart	2	111	51	foodImage.10	FOODEEG_Images\0145.jpg	NY	Right	Yes	0.516092600068077	0	492963	253
963.32421875	0	decision	response	2	111	51	foodImage.10	FOODEEG_Images\0145.jpg	NY	Right	Yes	0.516092600068077	0	493223	235
964.365234375	1	health	trialStart	2	112	52	foodImage.26	FOODEEG_Images\0262.jpg	NY	Right	Yes	1.30221130000427	0	493756	251
965.408203125	2	health	foodImageDisplay	2	112	52	foodImage.26	FOODEEG_Images\0262.jpg	NY	Right	Yes	1.30221130000427	0	494290	252
967.470703125	1.30221130000427	health	choicePhaseStart	2	112	52	foodImage.26	FOODEEG_Images\0262.jpg	NY	Right	Yes	1.30221130000427	0	495346	253
968.763671875	0	health	response	2	112	52	foodImage.26	FOODEEG_Images\0262.jpg	NY	Right	Yes	1.30221130000427	0	496008	235
969.8125	1	health	trialStart	2	113	53	foodImage.90	FOODEEG_Images\0890.jpg	NY	Right	Yes	0.542213300010189	0	496545	251
970.87109375	2	health	foodImageDisplay	2	113	53	foodImage.90	FOODEEG_Images\0890.jpg	NY	Right	Yes	0.542213300010189	0	497087	252
972.935546875	0.542213300010189	health	choicePhaseStart	2	113	53	foodImage.90	FOODEEG_Images\0890.jpg	NY	Right	Yes	0.542213300010189	0	498144	253
973.466796875	0	health	response	2	113	53	foodImage.90	FOODEEG_Images\0890.jpg	NY	Right	Yes	0.542213300010189	0	498416	235
974.509765625	1	taste	trialStart	2	114	54	foodImage.73	FOODEEG_Images\0717.jpg	YN	Left	Yes	0.702570399967954	0	498950	251
975.56640625	2	taste	foodImageDisplay	2	114	54	foodImage.73	FOODEEG_Images\0717.jpg	YN	Left	Yes	0.702570399967954	0	499491	252
977.62890625	0.702570399967954	taste	choicePhaseStart	2	114	54	foodImage.73	FOODEEG_Images\0717.jpg	YN	Left	Yes	0.702570399967954	0	500547	253
978.322265625	0	taste	response	2	114	54	foodImage.73	FOODEEG_Images\0717.jpg	YN	Left	Yes	0.702570399967954	0	500902	234
979.3671875	1	health	trialStart	2	115	55	foodImage.112	FOODEEG_Images\0920.jpg	NY	Right	Yes	1.94899160019122	0	501437	251
980.40625	2	health	foodImageDisplay	2	115	55	foodImage.112	FOODEEG_Images\0920.jpg	NY	Right	Yes	1.94899160019122	0	501969	252
982.470703125	1.94899160019122	health	choicePhaseStart	2	115	55	foodImage.112	FOODEEG_Images\0920.jpg	NY	Right	Yes	1.94899160019122	0	503026	253
984.41015625	0	health	response	2	115	55	foodImage.112	FOODEEG_Images\0920.jpg	NY	Right	Yes	1.94899160019122	0	504019	235
985.455078125	1	health	trialStart	2	116	56	foodImage.75	FOODEEG_Images\0763.jpg	YN	Left	Yes	1.61084989993833	0	504554	251
986.498046875	2	health	foodImageDisplay	2	116	56	foodImage.75	FOODEEG_Images\0763.jpg	YN	Left	Yes	1.61084989993833	0	505088	252
988.560546875	1.61084989993833	health	choicePhaseStart	2	116	56	foodImage.75	FOODEEG_Images\0763.jpg	YN	Left	Yes	1.61084989993833	0	506144	253
990.162109375	0	health	response	2	116	56	foodImage.75	FOODEEG_Images\0763.jpg	YN	Left	Yes	1.61084989993833	0	506964	234
991.212890625	1	health	trialStart	2	117	57	foodImage.61	FOODEEG_Images\0640.jpg	NY	Right	Yes	1.12539110006765	0	507502	251
992.25390625	2	health	foodImageDisplay	2	117	57	foodImage.61	FOODEEG_Images\0640.jpg	NY	Right	Yes	1.12539110006765	0	508035	252
994.318359375	1.12539110006765	health	choicePhaseStart	2	117	57	foodImage.61	FOODEEG_Images\0640.jpg	NY	Right	Yes	1.12539110006765	0	509092	253
995.43359375	0	health	response	2	117	57	foodImage.61	FOODEEG_Images\0640.jpg	NY	Right	Yes	1.12539110006765	0	509663	235
996.4765625	1	taste	trialStart	2	118	58	foodImage.76	FOODEEG_Images\0766.jpg	NY	Right	Yes	1.22307810001075	0	510197	251
997.521484375	2	taste	foodImageDisplay	2	118	58	foodImage.76	FOODEEG_Images\0766.jpg	NY	Right	Yes	1.22307810001075	0	510732	252
999.587890625	1.22307810001075	taste	choicePhaseStart	2	118	58	foodImage.76	FOODEEG_Images\0766.jpg	NY	Right	Yes	1.22307810001075	0	511790	253
1000.80078125	0	taste	response	2	118	58	foodImage.76	FOODEEG_Images\0766.jpg	NY	Right	Yes	1.22307810001075	0	512411	235
1001.845703125	1	decision	trialStart	2	119	59	foodImage.1	FOODEEG_Images\0004.jpg	NY	Right	Yes	0.685243600048125	0	512946	251
1002.88671875	2	decision	foodImageDisplay	2	119	59	foodImage.1	FOODEEG_Images\0004.jpg	NY	Right	Yes	0.685243600048125	0	513479	252
1004.94921875	0.685243600048125	decision	choicePhaseStart	2	119	59	foodImage.1	FOODEEG_Images\0004.jpg	NY	Right	Yes	0.685243600048125	0	514535	253
1005.625	0	decision	response	2	119	59	foodImage.1	FOODEEG_Images\0004.jpg	NY	Right	Yes	0.685243600048125	0	514881	235
1006.669921875	1	decision	trialStart	2	120	60	foodImage.6	FOODEEG_Images\0113.jpg	NY	Right	Yes	1.03018289990723	0	515416	251
1007.7109375	2	decision	foodImageDisplay	2	120	60	foodImage.6	FOODEEG_Images\0113.jpg	NY	Right	Yes	1.03018289990723	0	515949	252
1009.7734375	1.03018289990723	decision	choicePhaseStart	2	120	60	foodImage.6	FOODEEG_Images\0113.jpg	NY	Right	Yes	1.03018289990723	0	517005	253
1010.79296875	0	decision	response	2	120	60	foodImage.6	FOODEEG_Images\0113.jpg	NY	Right	Yes	1.03018289990723	0	517527	235
1012.8359375	13.171875	n/a	blockEnd	n/a	n/a	n/a	n/a	n/a	n/a	n/a	n/a	n/a	n/a	518573	254
1026.0078125	2	n/a	blockStart	3	n/a	n/a	n/a	n/a	n/a	n/a	n/a	n/a	n/a	525317	250
1028.041015625	1	taste	trialStart	3	121	1	foodImage.23	FOODEEG_Images\0244.jpg	NY	Right	Yes	0.759966799989343	0	526358	251
1029.107421875	2	taste	foodImageDisplay	3	121	1	foodImage.23	FOODEEG_Images\0244.jpg	NY	Right	Yes	0.759966799989343	0	526904	252
1031.17578125	0.759966799989343	taste	choicePhaseStart	3	121	1	foodImage.23	FOODEEG_Images\0244.jpg	NY	Right	Yes	0.759966799989343	0	527963	253
1031.927734375	0	taste	response	3	121	1	foodImage.23	FOODEEG_Images\0244.jpg	NY	Right	Yes	0.759966799989343	0	528348	235
1032.974609375	1	decision	trialStart	3	122	2	foodImage.97	FOODEEG_Images\0905.jpg	NY	Left	No	1.06441210000776	0	528884	251
1034.015625	2	decision	foodImageDisplay	3	122	2	foodImage.97	FOODEEG_Images\0905.jpg	NY	Left	No	1.06441210000776	0	529417	252
1036.078125	1.06441210000776	decision	choicePhaseStart	3	122	2	foodImage.97	FOODEEG_Images\0905.jpg	NY	Left	No	1.06441210000776	0	530473	253
1037.13671875	0	decision	response	3	122	2	foodImage.97	FOODEEG_Images\0905.jpg	NY	Left	No	1.06441210000776	0	531015	234
1038.205078125	1	decision	trialStart	3	123	3	foodImage.3	FOODEEG_Images\0046.jpg	YN	Left	Yes	0.850054199807346	0	531562	251
1039.248046875	2	decision	foodImageDisplay	3	123	3	foodImage.3	FOODEEG_Images\0046.jpg	YN	Left	Yes	0.850054199807346	0	532096	252
1041.31640625	0.850054199807346	decision	choicePhaseStart	3	123	3	foodImage.3	FOODEEG_Images\0046.jpg	YN	Left	Yes	0.850054199807346	0	533155	253
1042.16015625	0	decision	response	3	123	3	foodImage.3	FOODEEG_Images\0046.jpg	YN	Left	Yes	0.850054199807346	0	533587	234
1043.232421875	1	decision	trialStart	3	124	4	foodImage.8	FOODEEG_Images\0136.jpg	YN	Left	Yes	0.978740399936214	0	534136	251
1044.2734375	2	decision	foodImageDisplay	3	124	4	foodImage.8	FOODEEG_Images\0136.jpg	YN	Left	Yes	0.978740399936214	0	534669	252
1046.341796875	0.978740399936214	decision	choicePhaseStart	3	124	4	foodImage.8	FOODEEG_Images\0136.jpg	YN	Left	Yes	0.978740399936214	0	535728	253
1047.3125	0	decision	response	3	124	4	foodImage.8	FOODEEG_Images\0136.jpg	YN	Left	Yes	0.978740399936214	0	536225	234
1048.35546875	1	taste	trialStart	3	125	5	foodImage.88	FOODEEG_Images\0878.jpg	YN	Left	Yes	0.784009800059721	0	536759	251
1049.41015625	2	taste	foodImageDisplay	3	125	5	foodImage.88	FOODEEG_Images\0878.jpg	YN	Left	Yes	0.784009800059721	0	537299	252
1051.47265625	0.784009800059721	taste	choicePhaseStart	3	125	5	foodImage.88	FOODEEG_Images\0878.jpg	YN	Left	Yes	0.784009800059721	0	538355	253
1052.248046875	0	taste	response	3	125	5	foodImage.88	FOODEEG_Images\0878.jpg	YN	Left	Yes	0.784009800059721	0	538752	234
1053.296875	1	taste	trialStart	3	126	6	foodImage.21	FOODEEG_Images\0234.jpg	YN	Left	Yes	1.19055219995789	0	539289	251
1054.37890625	2	taste	foodImageDisplay	3	126	6	foodImage.21	FOODEEG_Images\0234.jpg	YN	Left	Yes	1.19055219995789	0	539843	252
1056.44140625	1.19055219995789	taste	choicePhaseStart	3	126	6	foodImage.21	FOODEEG_Images\0234.jpg	YN	Left	Yes	1.19055219995789	0	540899	253
1057.623046875	0	taste	response	3	126	6	foodImage.21	FOODEEG_Images\0234.jpg	YN	Left	Yes	1.19055219995789	0	541504	234
1058.669921875	1	health	trialStart	3	127	7	foodImage.82	FOODEEG_Images\0805.jpg	NY	Right	Yes	1.01902020000853	0	542040	251
1059.7265625	2	health	foodImageDisplay	3	127	7	foodImage.82	FOODEEG_Images\0805.jpg	NY	Right	Yes	1.01902020000853	0	542581	252
1061.7890625	1.01902020000853	health	choicePhaseStart	3	127	7	foodImage.82	FOODEEG_Images\0805.jpg	NY	Right	Yes	1.01902020000853	0	543637	253
1062.798828125	0	health	response	3	127	7	foodImage.82	FOODEEG_Images\0805.jpg	NY	Right	Yes	1.01902020000853	0	544154	235
1063.83984375	1	taste	trialStart	3	128	8	foodImage.33	FOODEEG_Images\0329.jpg	NY	Right	Yes	1.08550269994885	0	544687	251
1064.8828125	2	taste	foodImageDisplay	3	128	8	foodImage.33	FOODEEG_Images\0329.jpg	NY	Right	Yes	1.08550269994885	0	545221	252
1066.9453125	1.08550269994885	taste	choicePhaseStart	3	128	8	foodImage.33	FOODEEG_Images\0329.jpg	NY	Right	Yes	1.08550269994885	0	546277	253
1068.0234375	0	taste	response	3	128	8	foodImage.33	FOODEEG_Images\0329.jpg	NY	Right	Yes	1.08550269994885	0	546829	235
1069.064453125	1	health	trialStart	3	129	9	foodImage.42	FOODEEG_Images\0438.jpg	NY	Right	Yes	1.13970659999177	0	547362	251
1070.154296875	2	health	foodImageDisplay	3	129	9	foodImage.42	FOODEEG_Images\0438.jpg	NY	Right	Yes	1.13970659999177	0	547920	252
1072.216796875	1.13970659999177	health	choicePhaseStart	3	129	9	foodImage.42	FOODEEG_Images\0438.jpg	NY	Right	Yes	1.13970659999177	0	548976	253
1073.3515625	0	health	response	3	129	9	foodImage.42	FOODEEG_Images\0438.jpg	NY	Right	Yes	1.13970659999177	0	549557	235
1074.3984375	1	taste	trialStart	3	130	10	foodImage.98	FOODEEG_Images\0906.jpg	YN	Right	No	0.991397500038147	0	550093	251
1075.44921875	2	taste	foodImageDisplay	3	130	10	foodImage.98	FOODEEG_Images\0906.jpg	YN	Right	No	0.991397500038147	0	550631	252
1077.517578125	0.991397500038147	taste	choicePhaseStart	3	130	10	foodImage.98	FOODEEG_Images\0906.jpg	YN	Right	No	0.991397500038147	0	551690	253
1078.501953125	0	taste	response	3	130	10	foodImage.98	FOODEEG_Images\0906.jpg	YN	Right	No	0.991397500038147	0	552194	235
1079.544921875	1	health	trialStart	3	131	11	foodImage.109	FOODEEG_Images\0917.jpg	NY	Left	No	1.10530510009266	0	552728	251
1080.583984375	2	health	foodImageDisplay	3	131	11	foodImage.109	FOODEEG_Images\0917.jpg	NY	Left	No	1.10530510009266	0	553260	252
1082.646484375	1.10530510009266	health	choicePhaseStart	3	131	11	foodImage.109	FOODEEG_Images\0917.jpg	NY	Left	No	1.10530510009266	0	554316	253
1083.7421875	0	health	response	3	131	11	foodImage.109	FOODEEG_Images\0917.jpg	NY	Left	No	1.10530510009266	0	554877	234
1084.78515625	1	taste	trialStart	3	132	12	foodImage.22	FOODEEG_Images\0236.jpg	NY	Right	Yes	0.748972900211811	0	555411	251
1085.826171875	2	taste	foodImageDisplay	3	132	12	foodImage.22	FOODEEG_Images\0236.jpg	NY	Right	Yes	0.748972900211811	0	555944	252
1087.890625	0.748972900211811	taste	choicePhaseStart	3	132	12	foodImage.22	FOODEEG_Images\0236.jpg	NY	Right	Yes	0.748972900211811	0	557001	253
1088.630859375	0	taste	response	3	132	12	foodImage.22	FOODEEG_Images\0236.jpg	NY	Right	Yes	0.748972900211811	0	557380	235
1089.67578125	1	health	trialStart	3	133	13	foodImage.18	FOODEEG_Images\0202.jpg	YN	Left	Yes	1.5624232001137	0	557915	251
1090.732421875	2	health	foodImageDisplay	3	133	13	foodImage.18	FOODEEG_Images\0202.jpg	YN	Left	Yes	1.5624232001137	0	558456	252
1092.796875	1.5624232001137	health	choicePhaseStart	3	133	13	foodImage.18	FOODEEG_Images\0202.jpg	YN	Left	Yes	1.5624232001137	0	559513	253
1094.349609375	0	health	response	3	133	13	foodImage.18	FOODEEG_Images\0202.jpg	YN	Left	Yes	1.5624232001137	0	560308	234
1095.392578125	1	taste	trialStart	3	134	14	foodImage.42	FOODEEG_Images\0438.jpg	NY	Right	Yes	1.16162539995275	0	560842	251
1096.478515625	2	taste	foodImageDisplay	3	134	14	foodImage.42	FOODEEG_Images\0438.jpg	NY	Right	Yes	1.16162539995275	0	561398	252
1098.54296875	1.16162539995275	taste	choicePhaseStart	3	134	14	foodImage.42	FOODEEG_Images\0438.jpg	NY	Right	Yes	1.16162539995275	0	562455	253
1099.693359375	0	taste	response	3	134	14	foodImage.42	FOODEEG_Images\0438.jpg	NY	Right	Yes	1.16162539995275	0	563044	235
1100.73828125	1	health	trialStart	3	135	15	foodImage.105	FOODEEG_Images\0913.jpg	YN	Left	Yes	0.9170975999441	0	563579	251
1101.77734375	2	health	foodImageDisplay	3	135	15	foodImage.105	FOODEEG_Images\0913.jpg	YN	Left	Yes	0.9170975999441	0	564111	252
1103.841796875	0.9170975999441	health	choicePhaseStart	3	135	15	foodImage.105	FOODEEG_Images\0913.jpg	YN	Left	Yes	0.9170975999441	0	565168	253
1104.75	0	health	response	3	135	15	foodImage.105	FOODEEG_Images\0913.jpg	YN	Left	Yes	0.9170975999441	0	565633	234
1105.79296875	1	health	trialStart	3	136	16	foodImage.63	FOODEEG_Images\0645.jpg	NY	Left	No	0.980834600050002	0	566167	251
1106.833984375	2	health	foodImageDisplay	3	136	16	foodImage.63	FOODEEG_Images\0645.jpg	NY	Left	No	0.980834600050002	0	566700	252
1108.896484375	0.980834600050002	health	choicePhaseStart	3	136	16	foodImage.63	FOODEEG_Images\0645.jpg	NY	Left	No	0.980834600050002	0	567756	253
1109.869140625	0	health	response	3	136	16	foodImage.63	FOODEEG_Images\0645.jpg	NY	Left	No	0.980834600050002	0	568254	234
1110.9140625	1	taste	trialStart	3	137	17	foodImage.54	FOODEEG_Images\0560.jpg	YN	Left	Yes	0.874830899992958	0	568789	251
1111.97265625	2	taste	foodImageDisplay	3	137	17	foodImage.54	FOODEEG_Images\0560.jpg	YN	Left	Yes	0.874830899992958	0	569331	252
1114.03515625	0.874830899992958	taste	choicePhaseStart	3	137	17	foodImage.54	FOODEEG_Images\0560.jpg	YN	Left	Yes	0.874830899992958	0	570387	253
1114.90234375	0	taste	response	3	137	17	foodImage.54	FOODEEG_Images\0560.jpg	YN	Left	Yes	0.874830899992958	0	570831	234
1115.943359375	1	taste	trialStart	3	138	18	foodImage.101	FOODEEG_Images\0909.jpg	YN	Right	No	0.829041599994525	0	571364	251
1116.982421875	2	taste	foodImageDisplay	3	138	18	foodImage.101	FOODEEG_Images\0909.jpg	YN	Right	No	0.829041599994525	0	571896	252
1119.046875	0.829041599994525	taste	choicePhaseStart	3	138	18	foodImage.101	FOODEEG_Images\0909.jpg	YN	Right	No	0.829041599994525	0	572953	253
1119.869140625	0	taste	response	3	138	18	foodImage.101	FOODEEG_Images\0909.jpg	YN	Right	No	0.829041599994525	0	573374	235
1120.912109375	1	taste	trialStart	3	139	19	foodImage.117	FOODEEG_Images\0925.jpg	YN	Right	No	1.48762729996815	0	573908	251
1121.951171875	2	taste	foodImageDisplay	3	139	19	foodImage.117	FOODEEG_Images\0925.jpg	YN	Right	No	1.48762729996815	0	574440	252
1124.013671875	1.48762729996815	taste	choicePhaseStart	3	139	19	foodImage.117	FOODEEG_Images\0925.jpg	YN	Right	No	1.48762729996815	0	575496	253
1125.4921875	0	taste	response	3	139	19	foodImage.117	FOODEEG_Images\0925.jpg	YN	Right	No	1.48762729996815	0	576253	235
1126.537109375	1	health	trialStart	3	140	20	foodImage.73	FOODEEG_Images\0717.jpg	YN	Right	No	0.884447900112718	0	576788	251
1127.595703125	2	health	foodImageDisplay	3	140	20	foodImage.73	FOODEEG_Images\0717.jpg	YN	Right	No	0.884447900112718	0	577330	252
1129.658203125	0.884447900112718	health	choicePhaseStart	3	140	20	foodImage.73	FOODEEG_Images\0717.jpg	YN	Right	No	0.884447900112718	0	578386	253
1130.533203125	0	health	response	3	140	20	foodImage.73	FOODEEG_Images\0717.jpg	YN	Right	No	0.884447900112718	0	578834	235
1131.580078125	1	taste	trialStart	3	141	21	foodImage.47	FOODEEG_Images\0488.jpg	NY	Right	Yes	2.17902569985017	0	579370	251
1132.62109375	2	taste	foodImageDisplay	3	141	21	foodImage.47	FOODEEG_Images\0488.jpg	NY	Right	Yes	2.17902569985017	0	579903	252
1134.68359375	2.17902569985017	taste	choicePhaseStart	3	141	21	foodImage.47	FOODEEG_Images\0488.jpg	NY	Right	Yes	2.17902569985017	0	580959	253
1136.853515625	0	taste	response	3	141	21	foodImage.47	FOODEEG_Images\0488.jpg	NY	Right	Yes	2.17902569985017	0	582070	235
1137.89453125	1	taste	trialStart	3	142	22	foodImage.80	FOODEEG_Images\0796.jpg	NY	Right	Yes	1.22720480011776	0	582603	251
1138.953125	2	taste	foodImageDisplay	3	142	22	foodImage.80	FOODEEG_Images\0796.jpg	NY	Right	Yes	1.22720480011776	0	583145	252
1141.017578125	1.22720480011776	taste	choicePhaseStart	3	142	22	foodImage.80	FOODEEG_Images\0796.jpg	NY	Right	Yes	1.22720480011776	0	584202	253
1142.236328125	0	taste	response	3	142	22	foodImage.80	FOODEEG_Images\0796.jpg	NY	Right	Yes	1.22720480011776	0	584826	235
1143.279296875	1	decision	trialStart	3	143	23	foodImage.105	FOODEEG_Images\0913.jpg	NY	Right	Yes	0.657304499996826	0	585360	251
1144.318359375	2	decision	foodImageDisplay	3	143	23	foodImage.105	FOODEEG_Images\0913.jpg	NY	Right	Yes	0.657304499996826	0	585892	252
1146.380859375	0.657304499996826	decision	choicePhaseStart	3	143	23	foodImage.105	FOODEEG_Images\0913.jpg	NY	Right	Yes	0.657304499996826	0	586948	253
1147.02734375	0	decision	response	3	143	23	foodImage.105	FOODEEG_Images\0913.jpg	NY	Right	Yes	0.657304499996826	0	587279	235
1148.0703125	1	health	trialStart	3	144	24	foodImage.24	FOODEEG_Images\0250.jpg	YN	Left	Yes	1.02768000005744	0	587813	251
1149.115234375	2	health	foodImageDisplay	3	144	24	foodImage.24	FOODEEG_Images\0250.jpg	YN	Left	Yes	1.02768000005744	0	588348	252
1151.177734375	1.02768000005744	health	choicePhaseStart	3	144	24	foodImage.24	FOODEEG_Images\0250.jpg	YN	Left	Yes	1.02768000005744	0	589404	253
1152.1953125	0	health	response	3	144	24	foodImage.24	FOODEEG_Images\0250.jpg	YN	Left	Yes	1.02768000005744	0	589925	234
1153.240234375	1	health	trialStart	3	145	25	foodImage.53	FOODEEG_Images\0547.jpg	NY	Left	No	1.69867269997485	0	590460	251
1154.298828125	2	health	foodImageDisplay	3	145	25	foodImage.53	FOODEEG_Images\0547.jpg	NY	Left	No	1.69867269997485	0	591002	252
1156.361328125	1.69867269997485	health	choicePhaseStart	3	145	25	foodImage.53	FOODEEG_Images\0547.jpg	NY	Left	No	1.69867269997485	0	592058	253
1158.05078125	0	health	response	3	145	25	foodImage.53	FOODEEG_Images\0547.jpg	NY	Left	No	1.69867269997485	0	592923	234
1159.1015625	1	health	trialStart	3	146	26	foodImage.52	FOODEEG_Images\0539.jpg	YN	Left	Yes	3.10084979981184	0	593461	251
1160.16015625	2	health	foodImageDisplay	3	146	26	foodImage.52	FOODEEG_Images\0539.jpg	YN	Left	Yes	3.10084979981184	0	594003	252
1162.224609375	3.10084979981184	health	choicePhaseStart	3	146	26	foodImage.52	FOODEEG_Images\0539.jpg	YN	Left	Yes	3.10084979981184	0	595060	253
1165.314453125	0	health	response	3	146	26	foodImage.52	FOODEEG_Images\0539.jpg	YN	Left	Yes	3.10084979981184	0	596642	234
1166.357421875	1	health	trialStart	3	147	27	foodImage.15	FOODEEG_Images\0189.jpg	YN	Right	No	2.34474459988996	0	597176	251
1167.41796875	2	health	foodImageDisplay	3	147	27	foodImage.15	FOODEEG_Images\0189.jpg	YN	Right	No	2.34474459988996	0	597719	252
1169.484375	2.34474459988996	health	choicePhaseStart	3	147	27	foodImage.15	FOODEEG_Images\0189.jpg	YN	Right	No	2.34474459988996	0	598777	253
1171.818359375	0	health	response	3	147	27	foodImage.15	FOODEEG_Images\0189.jpg	YN	Right	No	2.34474459988996	0	599972	235
1172.861328125	1	taste	trialStart	3	148	28	foodImage.14	FOODEEG_Images\0188.jpg	NY	Right	Yes	1.55947149987333	0	600506	251
1173.91796875	2	taste	foodImageDisplay	3	148	28	foodImage.14	FOODEEG_Images\0188.jpg	NY	Right	Yes	1.55947149987333	0	601047	252
1175.98046875	1.55947149987333	taste	choicePhaseStart	3	148	28	foodImage.14	FOODEEG_Images\0188.jpg	NY	Right	Yes	1.55947149987333	0	602103	253
1177.53125	0	taste	response	3	148	28	foodImage.14	FOODEEG_Images\0188.jpg	NY	Right	Yes	1.55947149987333	0	602897	235
1178.580078125	1	decision	trialStart	3	149	29	foodImage.69	FOODEEG_Images\0693.jpg	NY	Right	Yes	0.939062900142744	0	603434	251
1179.623046875	2	decision	foodImageDisplay	3	149	29	foodImage.69	FOODEEG_Images\0693.jpg	NY	Right	Yes	0.939062900142744	0	603968	252
1181.685546875	0.939062900142744	decision	choicePhaseStart	3	149	29	foodImage.69	FOODEEG_Images\0693.jpg	NY	Right	Yes	0.939062900142744	0	605024	253
1182.619140625	0	decision	response	3	149	29	foodImage.69	FOODEEG_Images\0693.jpg	NY	Right	Yes	0.939062900142744	0	605502	235
1183.662109375	1	taste	trialStart	3	150	30	foodImage.110	FOODEEG_Images\0918.jpg	NY	Left	No	1.11530010006391	0	606036	251
1184.701171875	2	taste	foodImageDisplay	3	150	30	foodImage.110	FOODEEG_Images\0918.jpg	NY	Left	No	1.11530010006391	0	606568	252
1186.765625	1.11530010006391	taste	choicePhaseStart	3	150	30	foodImage.110	FOODEEG_Images\0918.jpg	NY	Left	No	1.11530010006391	0	607625	253
1187.875	0	taste	response	3	150	30	foodImage.110	FOODEEG_Images\0918.jpg	NY	Left	No	1.11530010006391	0	608193	234
1188.916015625	1	health	trialStart	3	151	31	foodImage.34	FOODEEG_Images\0339.jpg	NY	Right	Yes	0.525200400035828	0	608726	251
1189.974609375	2	health	foodImageDisplay	3	151	31	foodImage.34	FOODEEG_Images\0339.jpg	NY	Right	Yes	0.525200400035828	0	609268	252
1192.037109375	0.525200400035828	health	choicePhaseStart	3	151	31	foodImage.34	FOODEEG_Images\0339.jpg	NY	Right	Yes	0.525200400035828	0	610324	253
1192.5546875	0	health	response	3	151	31	foodImage.34	FOODEEG_Images\0339.jpg	NY	Right	Yes	0.525200400035828	0	610589	235
1193.59765625	1	decision	trialStart	3	152	32	foodImage.54	FOODEEG_Images\0560.jpg	YN	Left	Yes	1.06621189997531	0	611123	251
1194.658203125	2	decision	foodImageDisplay	3	152	32	foodImage.54	FOODEEG_Images\0560.jpg	YN	Left	Yes	1.06621189997531	0	611666	252
1196.720703125	1.06621189997531	decision	choicePhaseStart	3	152	32	foodImage.54	FOODEEG_Images\0560.jpg	YN	Left	Yes	1.06621189997531	0	612722	253
1197.77734375	0	decision	response	3	152	32	foodImage.54	FOODEEG_Images\0560.jpg	YN	Left	Yes	1.06621189997531	0	613263	234
1198.8203125	1	decision	trialStart	3	153	33	foodImage.102	FOODEEG_Images\0910.jpg	NY	Right	Yes	0.622004699893296	0	613797	251
1199.859375	2	decision	foodImageDisplay	3	153	33	foodImage.102	FOODEEG_Images\0910.jpg	NY	Right	Yes	0.622004699893296	0	614329	252
1201.923828125	0.622004699893296	decision	choicePhaseStart	3	153	33	foodImage.102	FOODEEG_Images\0910.jpg	NY	Right	Yes	0.622004699893296	0	615386	253
1202.537109375	0	decision	response	3	153	33	foodImage.102	FOODEEG_Images\0910.jpg	NY	Right	Yes	0.622004699893296	0	615700	235
1203.583984375	1	taste	trialStart	3	154	34	foodImage.4	FOODEEG_Images\0065.jpg	YN	Left	Yes	0.737494700122625	0	616236	251
1204.642578125	2	taste	foodImageDisplay	3	154	34	foodImage.4	FOODEEG_Images\0065.jpg	YN	Left	Yes	0.737494700122625	0	616778	252
1206.70703125	0.737494700122625	taste	choicePhaseStart	3	154	34	foodImage.4	FOODEEG_Images\0065.jpg	YN	Left	Yes	0.737494700122625	0	617835	253
1207.43359375	0	taste	response	3	154	34	foodImage.4	FOODEEG_Images\0065.jpg	YN	Left	Yes	0.737494700122625	0	618207	234
1208.4765625	1	decision	trialStart	3	155	35	foodImage.117	FOODEEG_Images\0925.jpg	YN	Right	No	0.879468099912629	0	618741	251
1209.515625	2	decision	foodImageDisplay	3	155	35	foodImage.117	FOODEEG_Images\0925.jpg	YN	Right	No	0.879468099912629	0	619273	252
1211.580078125	0.879468099912629	decision	choicePhaseStart	3	155	35	foodImage.117	FOODEEG_Images\0925.jpg	YN	Right	No	0.879468099912629	0	620330	253
1212.44921875	0	decision	response	3	155	35	foodImage.117	FOODEEG_Images\0925.jpg	YN	Right	No	0.879468099912629	0	620775	235
1213.498046875	1	taste	trialStart	3	156	36	foodImage.49	FOODEEG_Images\0515.jpg	YN	Left	Yes	1.54140849993564	0	621312	251
1214.541015625	2	taste	foodImageDisplay	3	156	36	foodImage.49	FOODEEG_Images\0515.jpg	YN	Left	Yes	1.54140849993564	0	621846	252
1216.60546875	1.54140849993564	taste	choicePhaseStart	3	156	36	foodImage.49	FOODEEG_Images\0515.jpg	YN	Left	Yes	1.54140849993564	0	622903	253
1218.13671875	0	taste	response	3	156	36	foodImage.49	FOODEEG_Images\0515.jpg	YN	Left	Yes	1.54140849993564	0	623687	234
1219.177734375	1	decision	trialStart	3	157	37	foodImage.107	FOODEEG_Images\0915.jpg	NY	Right	Yes	0.97111520008184	0	624220	251
1220.216796875	2	decision	foodImageDisplay	3	157	37	foodImage.107	FOODEEG_Images\0915.jpg	NY	Right	Yes	0.97111520008184	0	624752	252
1222.279296875	0.97111520008184	decision	choicePhaseStart	3	157	37	foodImage.107	FOODEEG_Images\0915.jpg	NY	Right	Yes	0.97111520008184	0	625808	253
1223.240234375	0	decision	response	3	157	37	foodImage.107	FOODEEG_Images\0915.jpg	NY	Right	Yes	0.97111520008184	0	626300	235
1224.283203125	1	decision	trialStart	3	158	38	foodImage.87	FOODEEG_Images\0873.jpg	YN	Left	Yes	1.73285740008578	0	626834	251
1225.341796875	2	decision	foodImageDisplay	3	158	38	foodImage.87	FOODEEG_Images\0873.jpg	YN	Left	Yes	1.73285740008578	0	627376	252
1227.41015625	1.73285740008578	decision	choicePhaseStart	3	158	38	foodImage.87	FOODEEG_Images\0873.jpg	YN	Left	Yes	1.73285740008578	0	628435	253
1229.13671875	0	decision	response	3	158	38	foodImage.87	FOODEEG_Images\0873.jpg	YN	Left	Yes	1.73285740008578	0	629319	234
1230.181640625	1	decision	trialStart	3	159	39	foodImage.62	FOODEEG_Images\0644.jpg	YN	Left	Yes	1.33508330001496	0	629854	251
1231.236328125	2	decision	foodImageDisplay	3	159	39	foodImage.62	FOODEEG_Images\0644.jpg	YN	Left	Yes	1.33508330001496	0	630394	252
1233.298828125	1.33508330001496	decision	choicePhaseStart	3	159	39	foodImage.62	FOODEEG_Images\0644.jpg	YN	Left	Yes	1.33508330001496	0	631450	253
1234.625	0	decision	response	3	159	39	foodImage.62	FOODEEG_Images\0644.jpg	YN	Left	Yes	1.33508330001496	0	632129	234
1235.66796875	1	decision	trialStart	3	160	40	foodImage.31	FOODEEG_Images\0294.jpg	NY	Right	Yes	1.2511837000493	0	632663	251
1236.7109375	2	decision	foodImageDisplay	3	160	40	foodImage.31	FOODEEG_Images\0294.jpg	NY	Right	Yes	1.2511837000493	0	633197	252
1238.775390625	1.2511837000493	decision	choicePhaseStart	3	160	40	foodImage.31	FOODEEG_Images\0294.jpg	NY	Right	Yes	1.2511837000493	0	634254	253
1240.015625	0	decision	response	3	160	40	foodImage.31	FOODEEG_Images\0294.jpg	NY	Right	Yes	1.2511837000493	0	634889	235
1241.05859375	1	decision	trialStart	3	161	41	foodImage.109	FOODEEG_Images\0917.jpg	YN	Right	No	0.943524500122294	0	635423	251
1242.09765625	2	decision	foodImageDisplay	3	161	41	foodImage.109	FOODEEG_Images\0917.jpg	YN	Right	No	0.943524500122294	0	635955	252
1244.166015625	0.943524500122294	decision	choicePhaseStart	3	161	41	foodImage.109	FOODEEG_Images\0917.jpg	YN	Right	No	0.943524500122294	0	637014	253
1245.103515625	0	decision	response	3	161	41	foodImage.109	FOODEEG_Images\0917.jpg	YN	Right	No	0.943524500122294	0	637494	235
1246.154296875	1	health	trialStart	3	162	42	foodImage.41	FOODEEG_Images\0409.jpg	YN	Left	Yes	0.890153600135818	0	638032	251
1247.201171875	2	health	foodImageDisplay	3	162	42	foodImage.41	FOODEEG_Images\0409.jpg	YN	Left	Yes	0.890153600135818	0	638568	252
1249.263671875	0.890153600135818	health	choicePhaseStart	3	162	42	foodImage.41	FOODEEG_Images\0409.jpg	YN	Left	Yes	0.890153600135818	0	639624	253
1250.14453125	0	health	response	3	162	42	foodImage.41	FOODEEG_Images\0409.jpg	YN	Left	Yes	0.890153600135818	0	640075	234
1251.19140625	1	decision	trialStart	3	163	43	foodImage.49	FOODEEG_Images\0515.jpg	NY	Left	No	1.96396570000798	0	640611	251
1252.232421875	2	decision	foodImageDisplay	3	163	43	foodImage.49	FOODEEG_Images\0515.jpg	NY	Left	No	1.96396570000798	0	641144	252
1254.29296875	1.96396570000798	decision	choicePhaseStart	3	163	43	foodImage.49	FOODEEG_Images\0515.jpg	NY	Left	No	1.96396570000798	0	642199	253
1256.248046875	0	decision	response	3	163	43	foodImage.49	FOODEEG_Images\0515.jpg	NY	Left	No	1.96396570000798	0	643200	234
1257.287109375	1	health	trialStart	3	164	44	foodImage.35	FOODEEG_Images\0350.jpg	YN	Right	No	1.12146170018241	0	643732	251
1258.330078125	2	health	foodImageDisplay	3	164	44	foodImage.35	FOODEEG_Images\0350.jpg	YN	Right	No	1.12146170018241	0	644266	252
1260.392578125	1.12146170018241	health	choicePhaseStart	3	164	44	foodImage.35	FOODEEG_Images\0350.jpg	YN	Right	No	1.12146170018241	0	645322	253
1261.50390625	0	health	response	3	164	44	foodImage.35	FOODEEG_Images\0350.jpg	YN	Right	No	1.12146170018241	0	645891	235
1262.544921875	1	taste	trialStart	3	165	45	foodImage.81	FOODEEG_Images\0797.jpg	YN	Left	Yes	1.56741479993798	0	646424	251
1263.6015625	2	taste	foodImageDisplay	3	165	45	foodImage.81	FOODEEG_Images\0797.jpg	YN	Left	Yes	1.56741479993798	0	646965	252
1265.666015625	1.56741479993798	taste	choicePhaseStart	3	165	45	foodImage.81	FOODEEG_Images\0797.jpg	YN	Left	Yes	1.56741479993798	0	648022	253
1267.22265625	0	taste	response	3	165	45	foodImage.81	FOODEEG_Images\0797.jpg	YN	Left	Yes	1.56741479993798	0	648819	234
1268.26953125	1	taste	trialStart	3	166	46	foodImage.18	FOODEEG_Images\0202.jpg	NY	Right	Yes	1.67811349988915	0	649355	251
1269.33203125	2	taste	foodImageDisplay	3	166	46	foodImage.18	FOODEEG_Images\0202.jpg	NY	Right	Yes	1.67811349988915	0	649899	252
1271.39453125	1.67811349988915	taste	choicePhaseStart	3	166	46	foodImage.18	FOODEEG_Images\0202.jpg	NY	Right	Yes	1.67811349988915	0	650955	253
1273.0625	0	taste	response	3	166	46	foodImage.18	FOODEEG_Images\0202.jpg	NY	Right	Yes	1.67811349988915	0	651809	235
1274.107421875	1	taste	trialStart	3	167	47	foodImage.83	FOODEEG_Images\0827.jpg	YN	Left	Yes	2.34529480012134	0	652344	251
1275.166015625	2	taste	foodImageDisplay	3	167	47	foodImage.83	FOODEEG_Images\0827.jpg	YN	Left	Yes	2.34529480012134	0	652886	252
1277.228515625	2.34529480012134	taste	choicePhaseStart	3	167	47	foodImage.83	FOODEEG_Images\0827.jpg	YN	Left	Yes	2.34529480012134	0	653942	253
1279.56640625	0	taste	response	3	167	47	foodImage.83	FOODEEG_Images\0827.jpg	YN	Left	Yes	2.34529480012134	0	655139	234
1280.611328125	1	taste	trialStart	3	168	48	foodImage.52	FOODEEG_Images\0539.jpg	NY	Right	Yes	1.32094580004923	0	655674	251
1281.666015625	2	taste	foodImageDisplay	3	168	48	foodImage.52	FOODEEG_Images\0539.jpg	NY	Right	Yes	1.32094580004923	0	656214	252
1283.7265625	1.32094580004923	taste	choicePhaseStart	3	168	48	foodImage.52	FOODEEG_Images\0539.jpg	NY	Right	Yes	1.32094580004923	0	657269	253
1285.0390625	0	taste	response	3	168	48	foodImage.52	FOODEEG_Images\0539.jpg	NY	Right	Yes	1.32094580004923	0	657941	235
1286.08203125	1	health	trialStart	3	169	49	foodImage.64	FOODEEG_Images\0647.jpg	NY	Right	Yes	1.9614357999526	0	658475	251
1287.142578125	2	health	foodImageDisplay	3	169	49	foodImage.64	FOODEEG_Images\0647.jpg	NY	Right	Yes	1.9614357999526	0	659018	252
1289.20703125	1.9614357999526	health	choicePhaseStart	3	169	49	foodImage.64	FOODEEG_Images\0647.jpg	NY	Right	Yes	1.9614357999526	0	660075	253
1291.158203125	0	health	response	3	169	49	foodImage.64	FOODEEG_Images\0647.jpg	NY	Right	Yes	1.9614357999526	0	661074	235
1292.203125	1	decision	trialStart	3	170	50	foodImage.58	FOODEEG_Images\0605.jpg	NY	Right	Yes	1.73130890005268	0	661609	251
1293.26171875	2	decision	foodImageDisplay	3	170	50	foodImage.58	FOODEEG_Images\0605.jpg	NY	Right	Yes	1.73130890005268	0	662151	252
1295.32421875	1.73130890005268	decision	choicePhaseStart	3	170	50	foodImage.58	FOODEEG_Images\0605.jpg	NY	Right	Yes	1.73130890005268	0	663207	253
1297.046875	0	decision	response	3	170	50	foodImage.58	FOODEEG_Images\0605.jpg	NY	Right	Yes	1.73130890005268	0	664089	235
1298.08984375	1	health	trialStart	3	171	51	foodImage.119	FOODEEG_Images\0927.jpg	NY	Right	Yes	1.47025570017286	0	664623	251
1299.12890625	2	health	foodImageDisplay	3	171	51	foodImage.119	FOODEEG_Images\0927.jpg	NY	Right	Yes	1.47025570017286	0	665155	252
1301.193359375	1.47025570017286	health	choicePhaseStart	3	171	51	foodImage.119	FOODEEG_Images\0927.jpg	NY	Right	Yes	1.47025570017286	0	666212	253
1302.654296875	0	health	response	3	171	51	foodImage.119	FOODEEG_Images\0927.jpg	NY	Right	Yes	1.47025570017286	0	666960	235
1303.6953125	1	health	trialStart	3	172	52	foodImage.72	FOODEEG_Images\0714.jpg	YN	Right	No	1.01160470000468	0	667493	251
1304.73828125	2	health	foodImageDisplay	3	172	52	foodImage.72	FOODEEG_Images\0714.jpg	YN	Right	No	1.01160470000468	0	668027	252
1306.80859375	1.01160470000468	health	choicePhaseStart	3	172	52	foodImage.72	FOODEEG_Images\0714.jpg	YN	Right	No	1.01160470000468	0	669087	253
1307.814453125	0	health	response	3	172	52	foodImage.72	FOODEEG_Images\0714.jpg	YN	Right	No	1.01160470000468	0	669602	235
1308.857421875	1	health	trialStart	3	173	53	foodImage.74	FOODEEG_Images\0752.jpg	NY	Right	Yes	1.29929820005782	0	670136	251
1309.90234375	2	health	foodImageDisplay	3	173	53	foodImage.74	FOODEEG_Images\0752.jpg	NY	Right	Yes	1.29929820005782	0	670671	252
1311.96484375	1.29929820005782	health	choicePhaseStart	3	173	53	foodImage.74	FOODEEG_Images\0752.jpg	NY	Right	Yes	1.29929820005782	0	671727	253
1313.25390625	0	health	response	3	173	53	foodImage.74	FOODEEG_Images\0752.jpg	NY	Right	Yes	1.29929820005782	0	672387	235
1314.298828125	1	decision	trialStart	3	174	54	foodImage.95	FOODEEG_Images\0903.jpg	NY	Left	No	0.877787499921396	0	672922	251
1315.3359375	2	decision	foodImageDisplay	3	174	54	foodImage.95	FOODEEG_Images\0903.jpg	NY	Left	No	0.877787499921396	0	673453	252
1317.400390625	0.877787499921396	decision	choicePhaseStart	3	174	54	foodImage.95	FOODEEG_Images\0903.jpg	NY	Left	No	0.877787499921396	0	674510	253
1318.26953125	0	decision	response	3	174	54	foodImage.95	FOODEEG_Images\0903.jpg	NY	Left	No	0.877787499921396	0	674955	234
1319.3125	1	taste	trialStart	3	175	55	foodImage.64	FOODEEG_Images\0647.jpg	NY	Right	Yes	1.04859090014361	0	675489	251
1320.373046875	2	taste	foodImageDisplay	3	175	55	foodImage.64	FOODEEG_Images\0647.jpg	NY	Right	Yes	1.04859090014361	0	676032	252
1322.4375	1.04859090014361	taste	choicePhaseStart	3	175	55	foodImage.64	FOODEEG_Images\0647.jpg	NY	Right	Yes	1.04859090014361	0	677089	253
1323.4765625	0	taste	response	3	175	55	foodImage.64	FOODEEG_Images\0647.jpg	NY	Right	Yes	1.04859090014361	0	677621	235
1324.52734375	1	health	trialStart	3	176	56	foodImage.4	FOODEEG_Images\0065.jpg	NY	Left	No	0.783050999976695	0	678159	251
1325.5859375	2	health	foodImageDisplay	3	176	56	foodImage.4	FOODEEG_Images\0065.jpg	NY	Left	No	0.783050999976695	0	678701	252
1327.6484375	0.783050999976695	health	choicePhaseStart	3	176	56	foodImage.4	FOODEEG_Images\0065.jpg	NY	Left	No	0.783050999976695	0	679757	253
1328.421875	0	health	response	3	176	56	foodImage.4	FOODEEG_Images\0065.jpg	NY	Left	No	0.783050999976695	0	680153	234
1329.46484375	1	decision	trialStart	3	177	57	foodImage.101	FOODEEG_Images\0909.jpg	YN	Right	No	1.2718778999988	0	680687	251
1330.50390625	2	decision	foodImageDisplay	3	177	57	foodImage.101	FOODEEG_Images\0909.jpg	YN	Right	No	1.2718778999988	0	681219	252
1332.56640625	1.2718778999988	decision	choicePhaseStart	3	177	57	foodImage.101	FOODEEG_Images\0909.jpg	YN	Right	No	1.2718778999988	0	682275	253
1333.828125	0	decision	response	3	177	57	foodImage.101	FOODEEG_Images\0909.jpg	YN	Right	No	1.2718778999988	0	682921	235
1334.873046875	1	taste	trialStart	3	178	58	foodImage.19	FOODEEG_Images\0225.jpg	NY	Right	Yes	0.760612900136039	0	683456	251
1335.916015625	2	taste	foodImageDisplay	3	178	58	foodImage.19	FOODEEG_Images\0225.jpg	NY	Right	Yes	0.760612900136039	0	683990	252
1337.982421875	0.760612900136039	taste	choicePhaseStart	3	178	58	foodImage.19	FOODEEG_Images\0225.jpg	NY	Right	Yes	0.760612900136039	0	685048	253
1338.732421875	0	taste	response	3	178	58	foodImage.19	FOODEEG_Images\0225.jpg	NY	Right	Yes	0.760612900136039	0	685432	235
1339.775390625	1	health	trialStart	3	179	59	foodImage.93	FOODEEG_Images\0901.jpg	NY	Left	No	1.29567010002211	0	685966	251
1340.814453125	2	health	foodImageDisplay	3	179	59	foodImage.93	FOODEEG_Images\0901.jpg	NY	Left	No	1.29567010002211	0	686498	252
1342.876953125	1.29567010002211	health	choicePhaseStart	3	179	59	foodImage.93	FOODEEG_Images\0901.jpg	NY	Left	No	1.29567010002211	0	687554	253
1344.1640625	0	health	response	3	179	59	foodImage.93	FOODEEG_Images\0901.jpg	NY	Left	No	1.29567010002211	0	688213	234
1345.208984375	1	decision	trialStart	3	180	60	foodImage.61	FOODEEG_Images\0640.jpg	NY	Right	Yes	1.36502180015668	0	688748	251
1346.25	2	decision	foodImageDisplay	3	180	60	foodImage.61	FOODEEG_Images\0640.jpg	NY	Right	Yes	1.36502180015668	0	689281	252
1348.3125	1.36502180015668	decision	choicePhaseStart	3	180	60	foodImage.61	FOODEEG_Images\0640.jpg	NY	Right	Yes	1.36502180015668	0	690337	253
1349.66796875	0	decision	response	3	180	60	foodImage.61	FOODEEG_Images\0640.jpg	NY	Right	Yes	1.36502180015668	0	691031	235
1351.708984375	58.0625	n/a	blockEnd	n/a	n/a	n/a	n/a	n/a	n/a	n/a	n/a	n/a	n/a	692076	254
1409.771484375	2	n/a	blockStart	4	n/a	n/a	n/a	n/a	n/a	n/a	n/a	n/a	n/a	721804	250
1411.802734375	1	health	trialStart	4	181	1	foodImage.78	FOODEEG_Images\0787.jpg	NY	Right	Yes	0.900192999979481	0	722844	251
1412.84765625	2	health	foodImageDisplay	4	181	1	foodImage.78	FOODEEG_Images\0787.jpg	NY	Right	Yes	0.900192999979481	0	723379	252
1414.91015625	0.900192999979481	health	choicePhaseStart	4	181	1	foodImage.78	FOODEEG_Images\0787.jpg	NY	Right	Yes	0.900192999979481	0	724435	253
1415.80078125	0	health	response	4	181	1	foodImage.78	FOODEEG_Images\0787.jpg	NY	Right	Yes	0.900192999979481	0	724891	235
1416.845703125	1	health	trialStart	4	182	2	foodImage.97	FOODEEG_Images\0905.jpg	NY	Left	No	1.03919010004029	0	725426	251
1417.884765625	2	health	foodImageDisplay	4	182	2	foodImage.97	FOODEEG_Images\0905.jpg	NY	Left	No	1.03919010004029	0	725958	252
1419.947265625	1.03919010004029	health	choicePhaseStart	4	182	2	foodImage.97	FOODEEG_Images\0905.jpg	NY	Left	No	1.03919010004029	0	727014	253
1420.978515625	0	health	response	4	182	2	foodImage.97	FOODEEG_Images\0905.jpg	NY	Left	No	1.03919010004029	0	727542	234
1422.02734375	1	health	trialStart	4	183	3	foodImage.32	FOODEEG_Images\0319.jpg	NY	Right	Yes	1.17433799989522	0	728079	251
1423.068359375	2	health	foodImageDisplay	4	183	3	foodImage.32	FOODEEG_Images\0319.jpg	NY	Right	Yes	1.17433799989522	0	728612	252
1425.130859375	1.17433799989522	health	choicePhaseStart	4	183	3	foodImage.32	FOODEEG_Images\0319.jpg	NY	Right	Yes	1.17433799989522	0	729668	253
1426.296875	0	health	response	4	183	3	foodImage.32	FOODEEG_Images\0319.jpg	NY	Right	Yes	1.17433799989522	0	730265	235
1427.33984375	1	taste	trialStart	4	184	4	foodImage.57	FOODEEG_Images\0587.jpg	NY	Right	Yes	0.928795899963006	0	730799	251
1428.3828125	2	taste	foodImageDisplay	4	184	4	foodImage.57	FOODEEG_Images\0587.jpg	NY	Right	Yes	0.928795899963006	0	731333	252
1430.44921875	0.928795899963006	taste	choicePhaseStart	4	184	4	foodImage.57	FOODEEG_Images\0587.jpg	NY	Right	Yes	0.928795899963006	0	732391	253
1431.369140625	0	taste	response	4	184	4	foodImage.57	FOODEEG_Images\0587.jpg	NY	Right	Yes	0.928795899963006	0	732862	235
1432.412109375	1	health	trialStart	4	185	5	foodImage.111	FOODEEG_Images\0919.jpg	YN	Right	No	1.48692509997636	0	733396	251
1433.451171875	2	health	foodImageDisplay	4	185	5	foodImage.111	FOODEEG_Images\0919.jpg	YN	Right	No	1.48692509997636	0	733928	252
1435.515625	1.48692509997636	health	choicePhaseStart	4	185	5	foodImage.111	FOODEEG_Images\0919.jpg	YN	Right	No	1.48692509997636	0	734985	253
1436.9921875	0	health	response	4	185	5	foodImage.111	FOODEEG_Images\0919.jpg	YN	Right	No	1.48692509997636	0	735741	235
1438.037109375	1	decision	trialStart	4	186	6	foodImage.66	FOODEEG_Images\0676.jpg	YN	Left	Yes	1.09046339988708	0	736276	251
1439.080078125	2	decision	foodImageDisplay	4	186	6	foodImage.66	FOODEEG_Images\0676.jpg	YN	Left	Yes	1.09046339988708	0	736810	252
1441.142578125	1.09046339988708	decision	choicePhaseStart	4	186	6	foodImage.66	FOODEEG_Images\0676.jpg	YN	Left	Yes	1.09046339988708	0	737866	253
1442.224609375	0	decision	response	4	186	6	foodImage.66	FOODEEG_Images\0676.jpg	YN	Left	Yes	1.09046339988708	0	738420	234
1443.267578125	1	health	trialStart	4	187	7	foodImage.11	FOODEEG_Images\0180.jpg	NY	Right	Yes	0.959347999887541	0	738954	251
1444.30859375	2	health	foodImageDisplay	4	187	7	foodImage.11	FOODEEG_Images\0180.jpg	NY	Right	Yes	0.959347999887541	0	739487	252
1446.37109375	0.959347999887541	health	choicePhaseStart	4	187	7	foodImage.11	FOODEEG_Images\0180.jpg	NY	Right	Yes	0.959347999887541	0	740543	253
1447.3203125	0	health	response	4	187	7	foodImage.11	FOODEEG_Images\0180.jpg	NY	Right	Yes	0.959347999887541	0	741029	235
1448.361328125	1	decision	trialStart	4	188	8	foodImage.19	FOODEEG_Images\0225.jpg	YN	Left	Yes	1.66132999979891	0	741562	251
1449.404296875	2	decision	foodImageDisplay	4	188	8	foodImage.19	FOODEEG_Images\0225.jpg	YN	Left	Yes	1.66132999979891	0	742096	252
1451.46875	1.66132999979891	decision	choicePhaseStart	4	188	8	foodImage.19	FOODEEG_Images\0225.jpg	YN	Left	Yes	1.66132999979891	0	743153	253
1453.119140625	0	decision	response	4	188	8	foodImage.19	FOODEEG_Images\0225.jpg	YN	Left	Yes	1.66132999979891	0	743998	234
1454.1640625	1	decision	trialStart	4	189	9	foodImage.44	FOODEEG_Images\0459.jpg	YN	Left	Yes	0.709533300017938	0	744533	251
1455.208984375	2	decision	foodImageDisplay	4	189	9	foodImage.44	FOODEEG_Images\0459.jpg	YN	Left	Yes	0.709533300017938	0	745068	252
1457.2734375	0.709533300017938	decision	choicePhaseStart	4	189	9	foodImage.44	FOODEEG_Images\0459.jpg	YN	Left	Yes	0.709533300017938	0	746125	253
1457.9765625	0	decision	response	4	189	9	foodImage.44	FOODEEG_Images\0459.jpg	YN	Left	Yes	0.709533300017938	0	746485	234
1459.025390625	1	decision	trialStart	4	190	10	foodImage.80	FOODEEG_Images\0796.jpg	NY	Right	Yes	0.94111829996109	0	747022	251
1460.083984375	2	decision	foodImageDisplay	4	190	10	foodImage.80	FOODEEG_Images\0796.jpg	NY	Right	Yes	0.94111829996109	0	747564	252
1462.1484375	0.94111829996109	decision	choicePhaseStart	4	190	10	foodImage.80	FOODEEG_Images\0796.jpg	NY	Right	Yes	0.94111829996109	0	748621	253
1463.080078125	0	decision	response	4	190	10	foodImage.80	FOODEEG_Images\0796.jpg	NY	Right	Yes	0.94111829996109	0	749098	235
1464.123046875	1	taste	trialStart	4	191	11	foodImage.37	FOODEEG_Images\0359.jpg	YN	Left	Yes	0.948840900091454	0	749632	251
1465.1640625	2	taste	foodImageDisplay	4	191	11	foodImage.37	FOODEEG_Images\0359.jpg	YN	Left	Yes	0.948840900091454	0	750165	252
1467.228515625	0.948840900091454	taste	choicePhaseStart	4	191	11	foodImage.37	FOODEEG_Images\0359.jpg	YN	Left	Yes	0.948840900091454	0	751222	253
1468.16796875	0	taste	response	4	191	11	foodImage.37	FOODEEG_Images\0359.jpg	YN	Left	Yes	0.948840900091454	0	751703	234
1469.2109375	1	health	trialStart	4	192	12	foodImage.85	FOODEEG_Images\0841.jpg	NY	Right	Yes	0.626358999870718	0	752237	251
1470.26953125	2	health	foodImageDisplay	4	192	12	foodImage.85	FOODEEG_Images\0841.jpg	NY	Right	Yes	0.626358999870718	0	752779	252
1472.333984375	0.626358999870718	health	choicePhaseStart	4	192	12	foodImage.85	FOODEEG_Images\0841.jpg	NY	Right	Yes	0.626358999870718	0	753836	253
1472.951171875	0	health	response	4	192	12	foodImage.85	FOODEEG_Images\0841.jpg	NY	Right	Yes	0.626358999870718	0	754152	235
1473.994140625	1	decision	trialStart	4	193	13	foodImage.4	FOODEEG_Images\0065.jpg	YN	Left	Yes	1.07444289978594	0	754686	251
1475.0546875	2	decision	foodImageDisplay	4	193	13	foodImage.4	FOODEEG_Images\0065.jpg	YN	Left	Yes	1.07444289978594	0	755229	252
1477.1171875	1.07444289978594	decision	choicePhaseStart	4	193	13	foodImage.4	FOODEEG_Images\0065.jpg	YN	Left	Yes	1.07444289978594	0	756285	253
1478.18359375	0	decision	response	4	193	13	foodImage.4	FOODEEG_Images\0065.jpg	YN	Left	Yes	1.07444289978594	0	756831	234
1479.2265625	1	taste	trialStart	4	194	14	foodImage.53	FOODEEG_Images\0547.jpg	YN	Left	Yes	0.931291300104931	0	757365	251
1480.28515625	2	taste	foodImageDisplay	4	194	14	foodImage.53	FOODEEG_Images\0547.jpg	YN	Left	Yes	0.931291300104931	0	757907	252
