onset	duration	trial_type	event_type	block	trial_total	trial_in_block	food_image_code	food_image_path	button_position	resp_position	resp_choice	choice_rt	resp_too_slow	sample	trigger
282.36328125	2	n/a	blockStart	1	n/a	n/a	n/a	n/a	n/a	n/a	n/a	n/a	n/a	144571	250
284.404296875	1	health	trialStart	1	1	1	foodImage.91	FOODEEG_Images\0896.jpg	YN	Right	No	4.81747659994289	0	145616	251
285.466796875	2	health	foodImageDisplay	1	1	1	foodImage.91	FOODEEG_Images\0896.jpg	YN	Right	No	4.81747659994289	0	146160	252
287.53125	4.81747659994289	health	choicePhaseStart	1	1	1	foodImage.91	FOODEEG_Images\0896.jpg	YN	Right	No	4.81747659994289	0	147217	253
292.345703125	0	health	response	1	1	1	foodImage.91	FOODEEG_Images\0896.jpg	YN	Right	No	4.81747659994289	0	149682	235
293.43359375	1	decision	trialStart	1	2	2	foodImage.37	FOODEEG_Images\0359.jpg	YN	Right	No	1.07241310004611	0	150239	251
294.482421875	2	decision	foodImageDisplay	1	2	2	foodImage.37	FOODEEG_Images\0359.jpg	YN	Right	No	1.07241310004611	0	150776	252
296.544921875	1.07241310004611	decision	choicePhaseStart	1	2	2	foodImage.37	FOODEEG_Images\0359.jpg	YN	Right	No	1.07241310004611	0	151832	253
297.609375	0	decision	response	1	2	2	foodImage.37	FOODEEG_Images\0359.jpg	YN	Right	No	1.07241310004611	0	152377	235
298.662109375	1	health	trialStart	1	3	3	foodImage.119	FOODEEG_Images\0927.jpg	YN	Right	No	0.900638300110586	0	152916	251
299.712890625	2	health	foodImageDisplay	1	3	3	foodImage.119	FOODEEG_Images\0927.jpg	YN	Right	No	0.900638300110586	0	153454	252
301.779296875	0.900638300110586	health	choicePhaseStart	1	3	3	foodImage.119	FOODEEG_Images\0927.jpg	YN	Right	No	0.900638300110586	0	154512	253
302.673828125	0	health	response	1	3	3	foodImage.119	FOODEEG_Images\0927.jpg	YN	Right	No	0.900638300110586	0	154970	235
303.716796875	1	taste	trialStart	1	4	4	foodImage.81	FOODEEG_Images\0797.jpg	NY	Right	Yes	1.58129120001104	0	155504	251
304.7734375	2	taste	foodImageDisplay	1	4	4	foodImage.81	FOODEEG_Images\0797.jpg	NY	Right	Yes	1.58129120001104	0	156045	252
306.8359375	1.58129120001104	taste	choicePhaseStart	1	4	4	foodImage.81	FOODEEG_Images\0797.jpg	NY	Right	Yes	1.58129120001104	0	157101	253
308.408203125	0	taste	response	1	4	4	foodImage.81	FOODEEG_Images\0797.jpg	NY	Right	Yes	1.58129120001104	0	157906	235
309.451171875	1	decision	trialStart	1	5	5	foodImage.44	FOODEEG_Images\0459.jpg	NY	Right	Yes	1.42292639997322	0	158440	251
310.498046875	2	decision	foodImageDisplay	1	5	5	foodImage.44	FOODEEG_Images\0459.jpg	NY	Right	Yes	1.42292639997322	0	158976	252
312.5625	1.42292639997322	decision	choicePhaseStart	1	5	5	foodImage.44	FOODEEG_Images\0459.jpg	NY	Right	Yes	1.42292639997322	0	160033	253
313.978515625	0	decision	response	1	5	5	foodImage.44	FOODEEG_Images\0459.jpg	NY	Right	Yes	1.42292639997322	0	160758	235
315.02734375	1	decision	trialStart	1	6	6	foodImage.4	FOODEEG_Images\0065.jpg	YN	Left	Yes	2.55732279992662	0	161295	251
316.083984375	2	decision	foodImageDisplay	1	6	6	foodImage.4	FOODEEG_Images\0065.jpg	YN	Left	Yes	2.55732279992662	0	161836	252
318.1484375	2.55732279992662	decision	choicePhaseStart	1	6	6	foodImage.4	FOODEEG_Images\0065.jpg	YN	Left	Yes	2.55732279992662	0	162893	253
320.697265625	0	decision	response	1	6	6	foodImage.4	FOODEEG_Images\0065.jpg	YN	Left	Yes	2.55732279992662	0	164198	234
321.74609375	1	health	trialStart	1	7	7	foodImage.53	FOODEEG_Images\0547.jpg	YN	Right	No	1.2610559000168	0	164735	251
322.802734375	2	health	foodImageDisplay	1	7	7	foodImage.53	FOODEEG_Images\0547.jpg	YN	Right	No	1.2610559000168	0	165276	252
324.8671875	1.2610559000168	health	choicePhaseStart	1	7	7	foodImage.53	FOODEEG_Images\0547.jpg	YN	Right	No	1.2610559000168	0	166333	253
326.119140625	0	health	response	1	7	7	foodImage.53	FOODEEG_Images\0547.jpg	YN	Right	No	1.2610559000168	0	166974	235
327.1640625	1	health	trialStart	1	8	8	foodImage.58	FOODEEG_Images\0605.jpg	NY	Left	No	1.4026286000153	0	167509	251
328.22265625	2	health	foodImageDisplay	1	8	8	foodImage.58	FOODEEG_Images\0605.jpg	NY	Left	No	1.4026286000153	0	168051	252
330.28515625	1.4026286000153	health	choicePhaseStart	1	8	8	foodImage.58	FOODEEG_Images\0605.jpg	NY	Left	No	1.4026286000153	0	169107	253
331.6796875	0	health	response	1	8	8	foodImage.58	FOODEEG_Images\0605.jpg	NY	Left	No	1.4026286000153	0	169821	234
332.724609375	1	taste	trialStart	1	9	9	foodImage.59	FOODEEG_Images\0607.jpg	NY	Right	Yes	0.911190500017256	0	170356	251
333.76953125	2	taste	foodImageDisplay	1	9	9	foodImage.59	FOODEEG_Images\0607.jpg	NY	Right	Yes	0.911190500017256	0	170891	252
335.83203125	0.911190500017256	taste	choicePhaseStart	1	9	9	foodImage.59	FOODEEG_Images\0607.jpg	NY	Right	Yes	0.911190500017256	0	171947	253
336.736328125	0	taste	response	1	9	9	foodImage.59	FOODEEG_Images\0607.jpg	NY	Right	Yes	0.911190500017256	0	172410	235
337.77734375	1	health	trialStart	1	10	10	foodImage.116	FOODEEG_Images\0924.jpg	YN	Right	No	1.11561009997968	0	172943	251
338.81640625	2	health	foodImageDisplay	1	10	10	foodImage.116	FOODEEG_Images\0924.jpg	YN	Right	No	1.11561009997968	0	173475	252
340.884765625	1.11561009997968	health	choicePhaseStart	1	10	10	foodImage.116	FOODEEG_Images\0924.jpg	YN	Right	No	1.11561009997968	0	174534	253
341.9921875	0	health	response	1	10	10	foodImage.116	FOODEEG_Images\0924.jpg	YN	Right	No	1.11561009997968	0	175101	235
343.03515625	1	taste	trialStart	1	11	11	foodImage.65	FOODEEG_Images\0658.jpg	NY	Right	Yes	0.651971900020726	0	175635	251
344.076171875	2	taste	foodImageDisplay	1	11	11	foodImage.65	FOODEEG_Images\0658.jpg	NY	Right	Yes	0.651971900020726	0	176168	252
346.138671875	0.651971900020726	taste	choicePhaseStart	1	11	11	foodImage.65	FOODEEG_Images\0658.jpg	NY	Right	Yes	0.651971900020726	0	177224	253
346.783203125	0	taste	response	1	11	11	foodImage.65	FOODEEG_Images\0658.jpg	NY	Right	Yes	0.651971900020726	0	177554	235
347.826171875	1	taste	trialStart	1	12	12	foodImage.94	FOODEEG_Images\0902.jpg	YN	Right	No	0.902736599906348	0	178088	251
348.8671875	2	taste	foodImageDisplay	1	12	12	foodImage.94	FOODEEG_Images\0902.jpg	YN	Right	No	0.902736599906348	0	178621	252
350.9296875	0.902736599906348	taste	choicePhaseStart	1	12	12	foodImage.94	FOODEEG_Images\0902.jpg	YN	Right	No	0.902736599906348	0	179677	253
351.822265625	0	taste	response	1	12	12	foodImage.94	FOODEEG_Images\0902.jpg	YN	Right	No	0.902736599906348	0	180134	235
352.87109375	1	decision	trialStart	1	13	13	foodImage.85	FOODEEG_Images\0841.jpg	YN	Left	Yes	0.953199399984442	0	180671	251
353.927734375	2	decision	foodImageDisplay	1	13	13	foodImage.85	FOODEEG_Images\0841.jpg	YN	Left	Yes	0.953199399984442	0	181212	252
355.990234375	0.953199399984442	decision	choicePhaseStart	1	13	13	foodImage.85	FOODEEG_Images\0841.jpg	YN	Left	Yes	0.953199399984442	0	182268	253
356.935546875	0	decision	response	1	13	13	foodImage.85	FOODEEG_Images\0841.jpg	YN	Left	Yes	0.953199399984442	0	182752	234
357.978515625	1	health	trialStart	1	14	14	foodImage.68	FOODEEG_Images\0685.jpg	NY	Right	Yes	0.846347199985757	0	183286	251
359.07421875	2	health	foodImageDisplay	1	14	14	foodImage.68	FOODEEG_Images\0685.jpg	NY	Right	Yes	0.846347199985757	0	183847	252
361.13671875	0.846347199985757	health	choicePhaseStart	1	14	14	foodImage.68	FOODEEG_Images\0685.jpg	NY	Right	Yes	0.846347199985757	0	184903	253
361.974609375	0	health	response	1	14	14	foodImage.68	FOODEEG_Images\0685.jpg	NY	Right	Yes	0.846347199985757	0	185332	235
363.017578125	1	taste	trialStart	1	15	15	foodImage.4	FOODEEG_Images\0065.jpg	NY	Right	Yes	0.864887399948202	0	185866	251
364.078125	2	taste	foodImageDisplay	1	15	15	foodImage.4	FOODEEG_Images\0065.jpg	NY	Right	Yes	0.864887399948202	0	186409	252
366.142578125	0.864887399948202	taste	choicePhaseStart	1	15	15	foodImage.4	FOODEEG_Images\0065.jpg	NY	Right	Yes	0.864887399948202	0	187466	253
366.998046875	0	taste	response	1	15	15	foodImage.4	FOODEEG_Images\0065.jpg	NY	Right	Yes	0.864887399948202	0	187904	235
368.04296875	1	decision	trialStart	1	16	16	foodImage.93	FOODEEG_Images\0901.jpg	NY	Left	No	0.878792200004682	0	188439	251
369.080078125	2	decision	foodImageDisplay	1	16	16	foodImage.93	FOODEEG_Images\0901.jpg	NY	Left	No	0.878792200004682	0	188970	252
371.14453125	0.878792200004682	decision	choicePhaseStart	1	16	16	foodImage.93	FOODEEG_Images\0901.jpg	NY	Left	No	0.878792200004682	0	190027	253
372.013671875	0	decision	response	1	16	16	foodImage.93	FOODEEG_Images\0901.jpg	NY	Left	No	0.878792200004682	0	190472	234
373.056640625	1	health	trialStart	1	17	17	foodImage.77	FOODEEG_Images\0771.jpg	NY	Right	Yes	1.66236280009616	0	191006	251
374.10546875	2	health	foodImageDisplay	1	17	17	foodImage.77	FOODEEG_Images\0771.jpg	NY	Right	Yes	1.66236280009616	0	191543	252
376.16796875	1.66236280009616	health	choicePhaseStart	1	17	17	foodImage.77	FOODEEG_Images\0771.jpg	NY	Right	Yes	1.66236280009616	0	192599	253
377.822265625	0	health	response	1	17	17	foodImage.77	FOODEEG_Images\0771.jpg	NY	Right	Yes	1.66236280009616	0	193446	235
378.86328125	1	taste	trialStart	1	18	18	foodImage.101	FOODEEG_Images\0909.jpg	YN	Right	No	1.13113949995022	0	193979	251
379.900390625	2	taste	foodImageDisplay	1	18	18	foodImage.101	FOODEEG_Images\0909.jpg	YN	Right	No	1.13113949995022	0	194510	252
381.962890625	1.13113949995022	taste	choicePhaseStart	1	18	18	foodImage.101	FOODEEG_Images\0909.jpg	YN	Right	No	1.13113949995022	0	195566	253
383.0859375	0	taste	response	1	18	18	foodImage.101	FOODEEG_Images\0909.jpg	YN	Right	No	1.13113949995022	0	196141	235
384.126953125	1	decision	trialStart	1	19	19	foodImage.16	FOODEEG_Images\0196.jpg	YN	Left	Yes	0.927447899943218	0	196674	251
385.185546875	2	decision	foodImageDisplay	1	19	19	foodImage.16	FOODEEG_Images\0196.jpg	YN	Left	Yes	0.927447899943218	0	197216	252
387.248046875	0.927447899943218	decision	choicePhaseStart	1	19	19	foodImage.16	FOODEEG_Images\0196.jpg	YN	Left	Yes	0.927447899943218	0	198272	253
388.166015625	0	decision	response	1	19	19	foodImage.16	FOODEEG_Images\0196.jpg	YN	Left	Yes	0.927447899943218	0	198742	234
389.208984375	1	decision	trialStart	1	20	20	foodImage.77	FOODEEG_Images\0771.jpg	YN	Left	Yes	1.1938436999917	0	199276	251
390.25390625	2	decision	foodImageDisplay	1	20	20	foodImage.77	FOODEEG_Images\0771.jpg	YN	Left	Yes	1.1938436999917	0	199811	252
392.31640625	1.1938436999917	decision	choicePhaseStart	1	20	20	foodImage.77	FOODEEG_Images\0771.jpg	YN	Left	Yes	1.1938436999917	0	200867	253
393.501953125	0	decision	response	1	20	20	foodImage.77	FOODEEG_Images\0771.jpg	YN	Left	Yes	1.1938436999917	0	201474	234
394.544921875	1	decision	trialStart	1	21	21	foodImage.100	FOODEEG_Images\0908.jpg	NY	Left	No	1.04889469989575	0	202008	251
395.58203125	2	decision	foodImageDisplay	1	21	21	foodImage.100	FOODEEG_Images\0908.jpg	NY	Left	No	1.04889469989575	0	202539	252
397.64453125	1.04889469989575	decision	choicePhaseStart	1	21	21	foodImage.100	FOODEEG_Images\0908.jpg	NY	Left	No	1.04889469989575	0	203595	253
398.685546875	0	decision	response	1	21	21	foodImage.100	FOODEEG_Images\0908.jpg	NY	Left	No	1.04889469989575	0	204128	234
399.728515625	1	decision	trialStart	1	22	22	foodImage.20	FOODEEG_Images\0226.jpg	YN	Left	Yes	1.05162949999794	0	204662	251
400.771484375	2	decision	foodImageDisplay	1	22	22	foodImage.20	FOODEEG_Images\0226.jpg	YN	Left	Yes	1.05162949999794	0	205196	252
402.833984375	1.05162949999794	decision	choicePhaseStart	1	22	22	foodImage.20	FOODEEG_Images\0226.jpg	YN	Left	Yes	1.05162949999794	0	206252	253
403.876953125	0	decision	response	1	22	22	foodImage.20	FOODEEG_Images\0226.jpg	YN	Left	Yes	1.05162949999794	0	206786	234
404.91796875	1	taste	trialStart	1	23	23	foodImage.116	FOODEEG_Images\0924.jpg	NY	Left	No	1.40988239995204	0	207319	251
405.95703125	2	taste	foodImageDisplay	1	23	23	foodImage.116	FOODEEG_Images\0924.jpg	NY	Left	No	1.40988239995204	0	207851	252
408.01953125	1.40988239995204	taste	choicePhaseStart	1	23	23	foodImage.116	FOODEEG_Images\0924.jpg	NY	Left	No	1.40988239995204	0	208907	253
409.419921875	0	taste	response	1	23	23	foodImage.116	FOODEEG_Images\0924.jpg	NY	Left	No	1.40988239995204	0	209624	234
410.462890625	1	decision	trialStart	1	24	24	foodImage.61	FOODEEG_Images\0640.jpg	YN	Left	Yes	2.60451779991854	0	210158	251
411.505859375	2	decision	foodImageDisplay	1	24	24	foodImage.61	FOODEEG_Images\0640.jpg	YN	Left	Yes	2.60451779991854	0	210692	252
413.568359375	2.60451779991854	decision	choicePhaseStart	1	24	24	foodImage.61	FOODEEG_Images\0640.jpg	YN	Left	Yes	2.60451779991854	0	211748	253
416.1640625	0	decision	response	1	24	24	foodImage.61	FOODEEG_Images\0640.jpg	YN	Left	Yes	2.60451779991854	0	213077	234
417.20703125	1	taste	trialStart	1	25	25	foodImage.72	FOODEEG_Images\0714.jpg	YN	Right	No	0.88606280006934	0	213611	251
418.248046875	2	taste	foodImageDisplay	1	25	25	foodImage.72	FOODEEG_Images\0714.jpg	YN	Right	No	0.88606280006934	0	214144	252
420.310546875	0.88606280006934	taste	choicePhaseStart	1	25	25	foodImage.72	FOODEEG_Images\0714.jpg	YN	Right	No	0.88606280006934	0	215200	253
421.1875	0	taste	response	1	25	25	foodImage.72	FOODEEG_Images\0714.jpg	YN	Right	No	0.88606280006934	0	215649	235
422.23046875	1	taste	trialStart	1	26	26	foodImage.95	FOODEEG_Images\0903.jpg	YN	Right	No	0.95392030000221	0	216183	251
423.26953125	2	taste	foodImageDisplay	1	26	26	foodImage.95	FOODEEG_Images\0903.jpg	YN	Right	No	0.95392030000221	0	216715	252
425.33203125	0.95392030000221	taste	choicePhaseStart	1	26	26	foodImage.95	FOODEEG_Images\0903.jpg	YN	Right	No	0.95392030000221	0	217771	253
426.275390625	0	taste	response	1	26	26	foodImage.95	FOODEEG_Images\0903.jpg	YN	Right	No	0.95392030000221	0	218254	235
427.318359375	1	taste	trialStart	1	27	27	foodImage.79	FOODEEG_Images\0794.jpg	YN	Left	Yes	1.34385099995416	0	218788	251
428.36328125	2	taste	foodImageDisplay	1	27	27	foodImage.79	FOODEEG_Images\0794.jpg	YN	Left	Yes	1.34385099995416	0	219323	252
430.427734375	1.34385099995416	taste	choicePhaseStart	1	27	27	foodImage.79	FOODEEG_Images\0794.jpg	YN	Left	Yes	1.34385099995416	0	220380	253
431.763671875	0	taste	response	1	27	27	foodImage.79	FOODEEG_Images\0794.jpg	YN	Left	Yes	1.34385099995416	0	221064	234
432.806640625	1	decision	trialStart	1	28	28	foodImage.57	FOODEEG_Images\0587.jpg	NY	Left	No	1.00587270001415	0	221598	251
433.857421875	2	decision	foodImageDisplay	1	28	28	foodImage.57	FOODEEG_Images\0587.jpg	NY	Left	No	1.00587270001415	0	222136	252
435.919921875	1.00587270001415	decision	choicePhaseStart	1	28	28	foodImage.57	FOODEEG_Images\0587.jpg	NY	Left	No	1.00587270001415	0	223192	253
436.916015625	0	decision	response	1	28	28	foodImage.57	FOODEEG_Images\0587.jpg	NY	Left	No	1.00587270001415	0	223702	234
437.95703125	1	decision	trialStart	1	29	29	foodImage.68	FOODEEG_Images\0685.jpg	YN	Left	Yes	1.44017429999076	0	224235	251
439.029296875	2	decision	foodImageDisplay	1	29	29	foodImage.68	FOODEEG_Images\0685.jpg	YN	Left	Yes	1.44017429999076	0	224784	252
441.091796875	1.44017429999076	decision	choicePhaseStart	1	29	29	foodImage.68	FOODEEG_Images\0685.jpg	YN	Left	Yes	1.44017429999076	0	225840	253
442.5234375	0	decision	response	1	29	29	foodImage.68	FOODEEG_Images\0685.jpg	YN	Left	Yes	1.44017429999076	0	226573	234
443.568359375	1	health	trialStart	1	30	30	foodImage.52	FOODEEG_Images\0539.jpg	NY	Right	Yes	0.726347999996506	0	227108	251
444.630859375	2	health	foodImageDisplay	1	30	30	foodImage.52	FOODEEG_Images\0539.jpg	NY	Right	Yes	0.726347999996506	0	227652	252
446.693359375	0.726347999996506	health	choicePhaseStart	1	30	30	foodImage.52	FOODEEG_Images\0539.jpg	NY	Right	Yes	0.726347999996506	0	228708	253
447.41015625	0	health	response	1	30	30	foodImage.52	FOODEEG_Images\0539.jpg	NY	Right	Yes	0.726347999996506	0	229075	235
448.453125	1	taste	trialStart	1	31	31	foodImage.19	FOODEEG_Images\0225.jpg	YN	Left	Yes	0.839081399957649	0	229609	251
449.49609375	2	taste	foodImageDisplay	1	31	31	foodImage.19	FOODEEG_Images\0225.jpg	YN	Left	Yes	0.839081399957649	0	230143	252
451.556640625	0.839081399957649	taste	choicePhaseStart	1	31	31	foodImage.19	FOODEEG_Images\0225.jpg	YN	Left	Yes	0.839081399957649	0	231198	253
452.38671875	0	taste	response	1	31	31	foodImage.19	FOODEEG_Images\0225.jpg	YN	Left	Yes	0.839081399957649	0	231623	234
453.4296875	1	decision	trialStart	1	32	32	foodImage.3	FOODEEG_Images\0046.jpg	YN	Left	Yes	0.791745999944396	0	232157	251
454.470703125	2	decision	foodImageDisplay	1	32	32	foodImage.3	FOODEEG_Images\0046.jpg	YN	Left	Yes	0.791745999944396	0	232690	252
456.533203125	0.791745999944396	decision	choicePhaseStart	1	32	32	foodImage.3	FOODEEG_Images\0046.jpg	YN	Left	Yes	0.791745999944396	0	233746	253
457.31640625	0	decision	response	1	32	32	foodImage.3	FOODEEG_Images\0046.jpg	YN	Left	Yes	0.791745999944396	0	234147	234
458.35546875	1	health	trialStart	1	33	33	foodImage.7	FOODEEG_Images\0116.jpg	NY	Left	No	0.862066700006835	0	234679	251
459.408203125	2	health	foodImageDisplay	1	33	33	foodImage.7	FOODEEG_Images\0116.jpg	NY	Left	No	0.862066700006835	0	235218	252
461.46875	0.862066700006835	health	choicePhaseStart	1	33	33	foodImage.7	FOODEEG_Images\0116.jpg	NY	Left	No	0.862066700006835	0	236273	253
462.322265625	0	health	response	1	33	33	foodImage.7	FOODEEG_Images\0116.jpg	NY	Left	No	0.862066700006835	0	236710	234
463.365234375	1	taste	trialStart	1	34	34	foodImage.104	FOODEEG_Images\0912.jpg	YN	Right	No	0.778936800081283	0	237244	251
464.40234375	2	taste	foodImageDisplay	1	34	34	foodImage.104	FOODEEG_Images\0912.jpg	YN	Right	No	0.778936800081283	0	237775	252
466.46484375	0.778936800081283	taste	choicePhaseStart	1	34	34	foodImage.104	FOODEEG_Images\0912.jpg	YN	Right	No	0.778936800081283	0	238831	253
467.234375	0	taste	response	1	34	34	foodImage.104	FOODEEG_Images\0912.jpg	YN	Right	No	0.778936800081283	0	239225	235
468.27734375	1	health	trialStart	1	35	35	foodImage.55	FOODEEG_Images\0567.jpg	NY	Right	Yes	0.604096799972467	0	239759	251
469.349609375	2	health	foodImageDisplay	1	35	35	foodImage.55	FOODEEG_Images\0567.jpg	NY	Right	Yes	0.604096799972467	0	240308	252
471.416015625	0.604096799972467	health	choicePhaseStart	1	35	35	foodImage.55	FOODEEG_Images\0567.jpg	NY	Right	Yes	0.604096799972467	0	241366	253
472.009765625	0	health	response	1	35	35	foodImage.55	FOODEEG_Images\0567.jpg	NY	Right	Yes	0.604096799972467	0	241670	235
473.05078125	1	decision	trialStart	1	36	36	foodImage.86	FOODEEG_Images\0844.jpg	NY	Right	Yes	1.89064159989357	0	242203	251
474.12890625	2	decision	foodImageDisplay	1	36	36	foodImage.86	FOODEEG_Images\0844.jpg	NY	Right	Yes	1.89064159989357	0	242755	252
476.193359375	1.89064159989357	decision	choicePhaseStart	1	36	36	foodImage.86	FOODEEG_Images\0844.jpg	NY	Right	Yes	1.89064159989357	0	243812	253
478.07421875	0	decision	response	1	36	36	foodImage.86	FOODEEG_Images\0844.jpg	NY	Right	Yes	1.89064159989357	0	244775	235
479.1171875	1	taste	trialStart	1	37	37	foodImage.1	FOODEEG_Images\0004.jpg	YN	Left	Yes	0.88671130000148	0	245309	251
480.15625	2	taste	foodImageDisplay	1	37	37	foodImage.1	FOODEEG_Images\0004.jpg	YN	Left	Yes	0.88671130000148	0	245841	252
482.21875	0.88671130000148	taste	choicePhaseStart	1	37	37	foodImage.1	FOODEEG_Images\0004.jpg	YN	Left	Yes	0.88671130000148	0	246897	253
483.09765625	0	taste	response	1	37	37	foodImage.1	FOODEEG_Images\0004.jpg	YN	Left	Yes	0.88671130000148	0	247347	234
484.146484375	1	taste	trialStart	1	38	38	foodImage.68	FOODEEG_Images\0685.jpg	YN	Left	Yes	0.696397599996999	0	247884	251
485.220703125	2	taste	foodImageDisplay	1	38	38	foodImage.68	FOODEEG_Images\0685.jpg	YN	Left	Yes	0.696397599996999	0	248434	252
487.283203125	0.696397599996999	taste	choicePhaseStart	1	38	38	foodImage.68	FOODEEG_Images\0685.jpg	YN	Left	Yes	0.696397599996999	0	249490	253
487.96875	0	taste	response	1	38	38	foodImage.68	FOODEEG_Images\0685.jpg	YN	Left	Yes	0.696397599996999	0	249841	234
489.01171875	1	health	trialStart	1	39	39	foodImage.24	FOODEEG_Images\0250.jpg	YN	Left	Yes	0.811320099979639	0	250375	251
490.0703125	2	health	foodImageDisplay	1	39	39	foodImage.24	FOODEEG_Images\0250.jpg	YN	Left	Yes	0.811320099979639	0	250917	252
492.134765625	0.811320099979639	health	choicePhaseStart	1	39	39	foodImage.24	FOODEEG_Images\0250.jpg	YN	Left	Yes	0.811320099979639	0	251974	253
492.9375	0	health	response	1	39	39	foodImage.24	FOODEEG_Images\0250.jpg	YN	Left	Yes	0.811320099979639	0	252385	234
493.98046875	1	health	trialStart	1	40	40	foodImage.66	FOODEEG_Images\0676.jpg	NY	Left	No	1.10244279995095	0	252919	251
495.021484375	2	health	foodImageDisplay	1	40	40	foodImage.66	FOODEEG_Images\0676.jpg	NY	Left	No	1.10244279995095	0	253452	252
497.08203125	1.10244279995095	health	choicePhaseStart	1	40	40	foodImage.66	FOODEEG_Images\0676.jpg	NY	Left	No	1.10244279995095	0	254507	253
498.177734375	0	health	response	1	40	40	foodImage.66	FOODEEG_Images\0676.jpg	NY	Left	No	1.10244279995095	0	255068	234
499.220703125	1	health	trialStart	1	41	41	foodImage.5	FOODEEG_Images\0107.jpg	NY	Left	No	0.911514699924737	0	255602	251
500.30078125	2	health	foodImageDisplay	1	41	41	foodImage.5	FOODEEG_Images\0107.jpg	NY	Left	No	0.911514699924737	0	256155	252
502.36328125	0.911514699924737	health	choicePhaseStart	1	41	41	foodImage.5	FOODEEG_Images\0107.jpg	NY	Left	No	0.911514699924737	0	257211	253
503.265625	0	health	response	1	41	41	foodImage.5	FOODEEG_Images\0107.jpg	NY	Left	No	0.911514699924737	0	257673	234
504.30859375	1	decision	trialStart	1	42	42	foodImage.73	FOODEEG_Images\0717.jpg	YN	Right	No	1.05854480003472	0	258207	251
505.3671875	2	decision	foodImageDisplay	1	42	42	foodImage.73	FOODEEG_Images\0717.jpg	YN	Right	No	1.05854480003472	0	258749	252
507.4296875	1.05854480003472	decision	choicePhaseStart	1	42	42	foodImage.73	FOODEEG_Images\0717.jpg	YN	Right	No	1.05854480003472	0	259805	253
508.48046875	0	decision	response	1	42	42	foodImage.73	FOODEEG_Images\0717.jpg	YN	Right	No	1.05854480003472	0	260343	235
509.521484375	1	decision	trialStart	1	43	43	foodImage.74	FOODEEG_Images\0752.jpg	YN	Right	No	1.43799130001571	0	260876	251
510.564453125	2	decision	foodImageDisplay	1	43	43	foodImage.74	FOODEEG_Images\0752.jpg	YN	Right	No	1.43799130001571	0	261410	252
512.626953125	1.43799130001571	decision	choicePhaseStart	1	43	43	foodImage.74	FOODEEG_Images\0752.jpg	YN	Right	No	1.43799130001571	0	262466	253
514.056640625	0	decision	response	1	43	43	foodImage.74	FOODEEG_Images\0752.jpg	YN	Right	No	1.43799130001571	0	263198	235
515.115234375	1	taste	trialStart	1	44	44	foodImage.43	FOODEEG_Images\0445.jpg	YN	Left	Yes	0.605249300017022	0	263740	251
516.173828125	2	taste	foodImageDisplay	1	44	44	foodImage.43	FOODEEG_Images\0445.jpg	YN	Left	Yes	0.605249300017022	0	264282	252
518.236328125	0.605249300017022	taste	choicePhaseStart	1	44	44	foodImage.43	FOODEEG_Images\0445.jpg	YN	Left	Yes	0.605249300017022	0	265338	253
518.83203125	0	taste	response	1	44	44	foodImage.43	FOODEEG_Images\0445.jpg	YN	Left	Yes	0.605249300017022	0	265643	234
519.873046875	1	health	trialStart	1	45	45	foodImage.120	FOODEEG_Images\0928.jpg	YN	Left	Yes	1.08444959996268	0	266176	251
520.91015625	2	health	foodImageDisplay	1	45	45	foodImage.120	FOODEEG_Images\0928.jpg	YN	Left	Yes	1.08444959996268	0	266707	252
522.97265625	1.08444959996268	health	choicePhaseStart	1	45	45	foodImage.120	FOODEEG_Images\0928.jpg	YN	Left	Yes	1.08444959996268	0	267763	253
524.048828125	0	health	response	1	45	45	foodImage.120	FOODEEG_Images\0928.jpg	YN	Left	Yes	1.08444959996268	0	268314	234
525.091796875	1	taste	trialStart	1	46	46	foodImage.34	FOODEEG_Images\0339.jpg	NY	Right	Yes	0.805948900058866	0	268848	251
526.1484375	2	taste	foodImageDisplay	1	46	46	foodImage.34	FOODEEG_Images\0339.jpg	NY	Right	Yes	0.805948900058866	0	269389	252
528.2109375	0.805948900058866	taste	choicePhaseStart	1	46	46	foodImage.34	FOODEEG_Images\0339.jpg	NY	Right	Yes	0.805948900058866	0	270445	253
529.0078125	0	taste	response	1	46	46	foodImage.34	FOODEEG_Images\0339.jpg	NY	Right	Yes	0.805948900058866	0	270853	235
530.05078125	1	health	trialStart	1	47	47	foodImage.37	FOODEEG_Images\0359.jpg	YN	Left	Yes	0.838493400020525	0	271387	251
531.091796875	2	health	foodImageDisplay	1	47	47	foodImage.37	FOODEEG_Images\0359.jpg	YN	Left	Yes	0.838493400020525	0	271920	252
533.154296875	0.838493400020525	health	choicePhaseStart	1	47	47	foodImage.37	FOODEEG_Images\0359.jpg	YN	Left	Yes	0.838493400020525	0	272976	253
533.984375	0	health	response	1	47	47	foodImage.37	FOODEEG_Images\0359.jpg	YN	Left	Yes	0.838493400020525	0	273401	234
535.025390625	1	health	trialStart	1	48	48	foodImage.79	FOODEEG_Images\0794.jpg	YN	Left	Yes	0.813978600082919	0	273934	251
536.068359375	2	health	foodImageDisplay	1	48	48	foodImage.79	FOODEEG_Images\0794.jpg	YN	Left	Yes	0.813978600082919	0	274468	252
538.130859375	0.813978600082919	health	choicePhaseStart	1	48	48	foodImage.79	FOODEEG_Images\0794.jpg	YN	Left	Yes	0.813978600082919	0	275524	253
538.935546875	0	health	response	1	48	48	foodImage.79	FOODEEG_Images\0794.jpg	YN	Left	Yes	0.813978600082919	0	275936	234
539.978515625	1	health	trialStart	1	49	49	foodImage.13	FOODEEG_Images\0183.jpg	YN	Left	Yes	0.628249899949878	0	276470	251
541.0390625	2	health	foodImageDisplay	1	49	49	foodImage.13	FOODEEG_Images\0183.jpg	YN	Left	Yes	0.628249899949878	0	277013	252
543.1015625	0.628249899949878	health	choicePhaseStart	1	49	49	foodImage.13	FOODEEG_Images\0183.jpg	YN	Left	Yes	0.628249899949878	0	278069	253
543.71875	0	health	response	1	49	49	foodImage.13	FOODEEG_Images\0183.jpg	YN	Left	Yes	0.628249899949878	0	278385	234
544.76171875	1	health	trialStart	1	50	50	foodImage.104	FOODEEG_Images\0912.jpg	YN	Right	No	1.02599810005631	0	278919	251
545.798828125	2	health	foodImageDisplay	1	50	50	foodImage.104	FOODEEG_Images\0912.jpg	YN	Right	No	1.02599810005631	0	279450	252
547.861328125	1.02599810005631	health	choicePhaseStart	1	50	50	foodImage.104	FOODEEG_Images\0912.jpg	YN	Right	No	1.02599810005631	0	280506	253
548.87890625	0	health	response	1	50	50	foodImage.104	FOODEEG_Images\0912.jpg	YN	Right	No	1.02599810005631	0	281027	235
549.921875	1	health	trialStart	1	51	51	foodImage.106	FOODEEG_Images\0914.jpg	NY	Left	No	1.00887690007221	0	281561	251
550.9609375	2	health	foodImageDisplay	1	51	51	foodImage.106	FOODEEG_Images\0914.jpg	NY	Left	No	1.00887690007221	0	282093	252
553.0234375	1.00887690007221	health	choicePhaseStart	1	51	51	foodImage.106	FOODEEG_Images\0914.jpg	NY	Left	No	1.00887690007221	0	283149	253
554.0234375	0	health	response	1	51	51	foodImage.106	FOODEEG_Images\0914.jpg	NY	Left	No	1.00887690007221	0	283661	234
555.064453125	1	taste	trialStart	1	52	52	foodImage.42	FOODEEG_Images\0438.jpg	YN	Left	Yes	0.637379900086671	0	284194	251
556.154296875	2	taste	foodImageDisplay	1	52	52	foodImage.42	FOODEEG_Images\0438.jpg	YN	Left	Yes	0.637379900086671	0	284752	252
558.21875	0.637379900086671	taste	choicePhaseStart	1	52	52	foodImage.42	FOODEEG_Images\0438.jpg	YN	Left	Yes	0.637379900086671	0	285809	253
558.84765625	0	taste	response	1	52	52	foodImage.42	FOODEEG_Images\0438.jpg	YN	Left	Yes	0.637379900086671	0	286131	234
559.888671875	1	health	trialStart	1	53	53	foodImage.110	FOODEEG_Images\0918.jpg	YN	Right	No	0.627893600030802	0	286664	251
560.92578125	2	health	foodImageDisplay	1	53	53	foodImage.110	FOODEEG_Images\0918.jpg	YN	Right	No	0.627893600030802	0	287195	252
562.986328125	0.627893600030802	health	choicePhaseStart	1	53	53	foodImage.110	FOODEEG_Images\0918.jpg	YN	Right	No	0.627893600030802	0	288250	253
563.60546875	0	health	response	1	53	53	foodImage.110	FOODEEG_Images\0918.jpg	YN	Right	No	0.627893600030802	0	288567	235
564.646484375	1	decision	trialStart	1	54	54	foodImage.10	FOODEEG_Images\0145.jpg	YN	Left	Yes	0.658709399984218	0	289100	251
565.701171875	2	decision	foodImageDisplay	1	54	54	foodImage.10	FOODEEG_Images\0145.jpg	YN	Left	Yes	0.658709399984218	0	289640	252
567.763671875	0.658709399984218	decision	choicePhaseStart	1	54	54	foodImage.10	FOODEEG_Images\0145.jpg	YN	Left	Yes	0.658709399984218	0	290696	253
568.4140625	0	decision	response	1	54	54	foodImage.10	FOODEEG_Images\0145.jpg	YN	Left	Yes	0.658709399984218	0	291029	234
569.455078125	1	taste	trialStart	1	55	55	foodImage.49	FOODEEG_Images\0515.jpg	NY	Right	Yes	3.4510645000264	0	291562	251
570.515625	2	taste	foodImageDisplay	1	55	55	foodImage.49	FOODEEG_Images\0515.jpg	NY	Right	Yes	3.4510645000264	0	292105	252
572.580078125	3.4510645000264	taste	choicePhaseStart	1	55	55	foodImage.49	FOODEEG_Images\0515.jpg	NY	Right	Yes	3.4510645000264	0	293162	253
576.021484375	0	taste	response	1	55	55	foodImage.49	FOODEEG_Images\0515.jpg	NY	Right	Yes	3.4510645000264	0	294924	235
577.064453125	1	taste	trialStart	1	56	56	foodImage.60	FOODEEG_Images\0614.jpg	NY	Right	Yes	1.47894020006061	0	295458	251
578.119140625	2	taste	foodImageDisplay	1	56	56	foodImage.60	FOODEEG_Images\0614.jpg	NY	Right	Yes	1.47894020006061	0	295998	252
580.181640625	1.47894020006061	taste	choicePhaseStart	1	56	56	foodImage.60	FOODEEG_Images\0614.jpg	NY	Right	Yes	1.47894020006061	0	297054	253
581.654296875	0	taste	response	1	56	56	foodImage.60	FOODEEG_Images\0614.jpg	NY	Right	Yes	1.47894020006061	0	297808	235
582.697265625	1	decision	trialStart	1	57	57	foodImage.103	FOODEEG_Images\0911.jpg	YN	Right	No	1.17735569993965	0	298342	251
583.734375	2	decision	foodImageDisplay	1	57	57	foodImage.103	FOODEEG_Images\0911.jpg	YN	Right	No	1.17735569993965	0	298873	252
585.796875	1.17735569993965	decision	choicePhaseStart	1	57	57	foodImage.103	FOODEEG_Images\0911.jpg	YN	Right	No	1.17735569993965	0	299929	253
586.96484375	0	decision	response	1	57	57	foodImage.103	FOODEEG_Images\0911.jpg	YN	Right	No	1.17735569993965	0	300527	235
588.01171875	1	health	trialStart	1	58	58	foodImage.69	FOODEEG_Images\0693.jpg	YN	Left	Yes	0.825954600004479	0	301063	251
589.052734375	2	health	foodImageDisplay	1	58	58	foodImage.69	FOODEEG_Images\0693.jpg	YN	Left	Yes	0.825954600004479	0	301596	252
591.1171875	0.825954600004479	health	choicePhaseStart	1	58	58	foodImage.69	FOODEEG_Images\0693.jpg	YN	Left	Yes	0.825954600004479	0	302653	253
591.93359375	0	health	response	1	58	58	foodImage.69	FOODEEG_Images\0693.jpg	YN	Left	Yes	0.825954600004479	0	303071	234
592.9765625	1	taste	trialStart	1	59	59	foodImage.14	FOODEEG_Images\0188.jpg	YN	Left	Yes	0.515482099959627	0	303605	251
594.037109375	2	taste	foodImageDisplay	1	59	59	foodImage.14	FOODEEG_Images\0188.jpg	YN	Left	Yes	0.515482099959627	0	304148	252
596.099609375	0.515482099959627	taste	choicePhaseStart	1	59	59	foodImage.14	FOODEEG_Images\0188.jpg	YN	Left	Yes	0.515482099959627	0	305204	253
596.60546875	0	taste	response	1	59	59	foodImage.14	FOODEEG_Images\0188.jpg	YN	Left	Yes	0.515482099959627	0	305463	234
597.646484375	1	taste	trialStart	1	60	60	foodImage.66	FOODEEG_Images\0676.jpg	YN	Left	Yes	0.566380799980834	0	305996	251
598.689453125	2	taste	foodImageDisplay	1	60	60	foodImage.66	FOODEEG_Images\0676.jpg	YN	Left	Yes	0.566380799980834	0	306530	252
600.751953125	0.566380799980834	taste	choicePhaseStart	1	60	60	foodImage.66	FOODEEG_Images\0676.jpg	YN	Left	Yes	0.566380799980834	0	307586	253
601.30859375	0	taste	response	1	60	60	foodImage.66	FOODEEG_Images\0676.jpg	YN	Left	Yes	0.566380799980834	0	307871	234
603.3515625	27.439453125	n/a	blockEnd	n/a	n/a	n/a	n/a	n/a	n/a	n/a	n/a	n/a	n/a	308917	254
630.791015625	2	n/a	blockStart	2	n/a	n/a	n/a	n/a	n/a	n/a	n/a	n/a	n/a	322966	250
632.826171875	1	health	trialStart	2	61	1	foodImage.30	FOODEEG_Images\0282.jpg	YN	Left	Yes	0.732705799979158	0	324008	251
633.87109375	2	health	foodImageDisplay	2	61	1	foodImage.30	FOODEEG_Images\0282.jpg	YN	Left	Yes	0.732705799979158	0	324543	252
635.93359375	0.732705799979158	health	choicePhaseStart	2	61	1	foodImage.30	FOODEEG_Images\0282.jpg	YN	Left	Yes	0.732705799979158	0	325599	253
636.66015625	0	health	response	2	61	1	foodImage.30	FOODEEG_Images\0282.jpg	YN	Left	Yes	0.732705799979158	0	325971	234
637.701171875	1	decision	trialStart	2	62	2	foodImage.60	FOODEEG_Images\0614.jpg	NY	Right	Yes	0.659382500103675	0	326504	251
638.755859375	2	decision	foodImageDisplay	2	62	2	foodImage.60	FOODEEG_Images\0614.jpg	NY	Right	Yes	0.659382500103675	0	327044	252
640.818359375	0.659382500103675	decision	choicePhaseStart	2	62	2	foodImage.60	FOODEEG_Images\0614.jpg	NY	Right	Yes	0.659382500103675	0	328100	253
641.466796875	0	decision	response	2	62	2	foodImage.60	FOODEEG_Images\0614.jpg	NY	Right	Yes	0.659382500103675	0	328432	235
642.5078125	1	decision	trialStart	2	63	3	foodImage.96	FOODEEG_Images\0904.jpg	YN	Right	No	0.683574400027283	0	328965	251
643.546875	2	decision	foodImageDisplay	2	63	3	foodImage.96	FOODEEG_Images\0904.jpg	YN	Right	No	0.683574400027283	0	329497	252
645.609375	0.683574400027283	decision	choicePhaseStart	2	63	3	foodImage.96	FOODEEG_Images\0904.jpg	YN	Right	No	0.683574400027283	0	330553	253
646.283203125	0	decision	response	2	63	3	foodImage.96	FOODEEG_Images\0904.jpg	YN	Right	No	0.683574400027283	0	330898	235
647.326171875	1	taste	trialStart	2	64	4	foodImage.91	FOODEEG_Images\0896.jpg	YN	Left	Yes	0.702528099995106	0	331432	251
648.380859375	2	taste	foodImageDisplay	2	64	4	foodImage.91	FOODEEG_Images\0896.jpg	YN	Left	Yes	0.702528099995106	0	331972	252
650.4453125	0.702528099995106	taste	choicePhaseStart	2	64	4	foodImage.91	FOODEEG_Images\0896.jpg	YN	Left	Yes	0.702528099995106	0	333029	253
651.138671875	0	taste	response	2	64	4	foodImage.91	FOODEEG_Images\0896.jpg	YN	Left	Yes	0.702528099995106	0	333384	234
652.181640625	1	taste	trialStart	2	65	5	foodImage.99	FOODEEG_Images\0907.jpg	NY	Left	No	0.873811299912632	0	333918	251
653.220703125	2	taste	foodImageDisplay	2	65	5	foodImage.99	FOODEEG_Images\0907.jpg	NY	Left	No	0.873811299912632	0	334450	252
655.283203125	0.873811299912632	taste	choicePhaseStart	2	65	5	foodImage.99	FOODEEG_Images\0907.jpg	NY	Left	No	0.873811299912632	0	335506	253
656.146484375	0	taste	response	2	65	5	foodImage.99	FOODEEG_Images\0907.jpg	NY	Left	No	0.873811299912632	0	335948	234
657.189453125	1	health	trialStart	2	66	6	foodImage.40	FOODEEG_Images\0373.jpg	YN	Right	No	0.790788799989969	0	336482	251
658.23046875	2	health	foodImageDisplay	2	66	6	foodImage.40	FOODEEG_Images\0373.jpg	YN	Right	No	0.790788799989969	0	337015	252
660.291015625	0.790788799989969	health	choicePhaseStart	2	66	6	foodImage.40	FOODEEG_Images\0373.jpg	YN	Right	No	0.790788799989969	0	338070	253
661.07421875	0	health	response	2	66	6	foodImage.40	FOODEEG_Images\0373.jpg	YN	Right	No	0.790788799989969	0	338471	235
662.1171875	1	decision	trialStart	2	67	7	foodImage.7	FOODEEG_Images\0116.jpg	NY	Right	Yes	0.866567100048997	0	339005	251
663.158203125	2	decision	foodImageDisplay	2	67	7	foodImage.7	FOODEEG_Images\0116.jpg	NY	Right	Yes	0.866567100048997	0	339538	252
665.224609375	0.866567100048997	decision	choicePhaseStart	2	67	7	foodImage.7	FOODEEG_Images\0116.jpg	NY	Right	Yes	0.866567100048997	0	340596	253
666.08203125	0	decision	response	2	67	7	foodImage.7	FOODEEG_Images\0116.jpg	NY	Right	Yes	0.866567100048997	0	341035	235
667.125	1	taste	trialStart	2	68	8	foodImage.18	FOODEEG_Images\0202.jpg	NY	Right	Yes	1.06247410003562	0	341569	251
668.20703125	2	taste	foodImageDisplay	2	68	8	foodImage.18	FOODEEG_Images\0202.jpg	NY	Right	Yes	1.06247410003562	0	342123	252
670.26953125	1.06247410003562	taste	choicePhaseStart	2	68	8	foodImage.18	FOODEEG_Images\0202.jpg	NY	Right	Yes	1.06247410003562	0	343179	253
671.322265625	0	taste	response	2	68	8	foodImage.18	FOODEEG_Images\0202.jpg	NY	Right	Yes	1.06247410003562	0	343718	235
672.365234375	1	taste	trialStart	2	69	9	foodImage.41	FOODEEG_Images\0409.jpg	NY	Right	Yes	0.982446700101718	0	344252	251
673.412109375	2	taste	foodImageDisplay	2	69	9	foodImage.41	FOODEEG_Images\0409.jpg	NY	Right	Yes	0.982446700101718	0	344788	252
675.478515625	0.982446700101718	taste	choicePhaseStart	2	69	9	foodImage.41	FOODEEG_Images\0409.jpg	NY	Right	Yes	0.982446700101718	0	345846	253
676.44921875	0	taste	response	2	69	9	foodImage.41	FOODEEG_Images\0409.jpg	NY	Right	Yes	0.982446700101718	0	346343	235
677.4921875	1	decision	trialStart	2	70	10	foodImage.17	FOODEEG_Images\0199.jpg	NY	Right	Yes	0.878960600006394	0	346877	251
678.53515625	2	decision	foodImageDisplay	2	70	10	foodImage.17	FOODEEG_Images\0199.jpg	NY	Right	Yes	0.878960600006394	0	347411	252
680.59765625	0.878960600006394	decision	choicePhaseStart	2	70	10	foodImage.17	FOODEEG_Images\0199.jpg	NY	Right	Yes	0.878960600006394	0	348467	253
681.466796875	0	decision	response	2	70	10	foodImage.17	FOODEEG_Images\0199.jpg	NY	Right	Yes	0.878960600006394	0	348912	235
682.509765625	1	health	trialStart	2	71	11	foodImage.105	FOODEEG_Images\0913.jpg	YN	Left	Yes	1.04912079998758	0	349446	251
683.546875	2	health	foodImageDisplay	2	71	11	foodImage.105	FOODEEG_Images\0913.jpg	YN	Left	Yes	1.04912079998758	0	349977	252
685.609375	1.04912079998758	health	choicePhaseStart	2	71	11	foodImage.105	FOODEEG_Images\0913.jpg	YN	Left	Yes	1.04912079998758	0	351033	253
686.650390625	0	health	response	2	71	11	foodImage.105	FOODEEG_Images\0913.jpg	YN	Left	Yes	1.04912079998758	0	351566	234
687.693359375	1	health	trialStart	2	72	12	foodImage.111	FOODEEG_Images\0919.jpg	YN	Right	No	0.738438699976541	0	352100	251
688.73046875	2	health	foodImageDisplay	2	72	12	foodImage.111	FOODEEG_Images\0919.jpg	YN	Right	No	0.738438699976541	0	352631	252
690.79296875	0.738438699976541	health	choicePhaseStart	2	72	12	foodImage.111	FOODEEG_Images\0919.jpg	YN	Right	No	0.738438699976541	0	353687	253
691.521484375	0	health	response	2	72	12	foodImage.111	FOODEEG_Images\0919.jpg	YN	Right	No	0.738438699976541	0	354060	235
692.564453125	1	taste	trialStart	2	73	13	foodImage.58	FOODEEG_Images\0605.jpg	YN	Left	Yes	1.45525040000211	0	354594	251
693.62109375	2	taste	foodImageDisplay	2	73	13	foodImage.58	FOODEEG_Images\0605.jpg	YN	Left	Yes	1.45525040000211	0	355135	252
695.681640625	1.45525040000211	taste	choicePhaseStart	2	73	13	foodImage.58	FOODEEG_Images\0605.jpg	YN	Left	Yes	1.45525040000211	0	356190	253
697.12890625	0	taste	response	2	73	13	foodImage.58	FOODEEG_Images\0605.jpg	YN	Left	Yes	1.45525040000211	0	356931	234
698.171875	1	health	trialStart	2	74	14	foodImage.62	FOODEEG_Images\0644.jpg	YN	Left	Yes	0.934055499965325	0	357465	251
699.23046875	2	health	foodImageDisplay	2	74	14	foodImage.62	FOODEEG_Images\0644.jpg	YN	Left	Yes	0.934055499965325	0	358007	252
701.29296875	0.934055499965325	health	choicePhaseStart	2	74	14	foodImage.62	FOODEEG_Images\0644.jpg	YN	Left	Yes	0.934055499965325	0	359063	253
702.216796875	0	health	response	2	74	14	foodImage.62	FOODEEG_Images\0644.jpg	YN	Left	Yes	0.934055499965325	0	359536	234
703.259765625	1	taste	trialStart	2	75	15	foodImage.77	FOODEEG_Images\0771.jpg	YN	Left	Yes	0.459804499987513	0	360070	251
704.3046875	2	taste	foodImageDisplay	2	75	15	foodImage.77	FOODEEG_Images\0771.jpg	YN	Left	Yes	0.459804499987513	0	360605	252
706.365234375	0.459804499987513	taste	choicePhaseStart	2	75	15	foodImage.77	FOODEEG_Images\0771.jpg	YN	Left	Yes	0.459804499987513	0	361660	253
706.81640625	0	taste	response	2	75	15	foodImage.77	FOODEEG_Images\0771.jpg	YN	Left	Yes	0.459804499987513	0	361891	234
707.857421875	1	health	trialStart	2	76	16	foodImage.118	FOODEEG_Images\0926.jpg	YN	Right	No	0.579189600073732	0	362424	251
708.896484375	2	health	foodImageDisplay	2	76	16	foodImage.118	FOODEEG_Images\0926.jpg	YN	Right	No	0.579189600073732	0	362956	252
710.958984375	0.579189600073732	health	choicePhaseStart	2	76	16	foodImage.118	FOODEEG_Images\0926.jpg	YN	Right	No	0.579189600073732	0	364012	253
711.529296875	0	health	response	2	76	16	foodImage.118	FOODEEG_Images\0926.jpg	YN	Right	No	0.579189600073732	0	364304	235
712.572265625	1	health	trialStart	2	77	17	foodImage.54	FOODEEG_Images\0560.jpg	YN	Left	Yes	0.612881399923936	0	364838	251
713.630859375	2	health	foodImageDisplay	2	77	17	foodImage.54	FOODEEG_Images\0560.jpg	YN	Left	Yes	0.612881399923936	0	365380	252
715.69140625	0.612881399923936	health	choicePhaseStart	2	77	17	foodImage.54	FOODEEG_Images\0560.jpg	YN	Left	Yes	0.612881399923936	0	366435	253
716.296875	0	health	response	2	77	17	foodImage.54	FOODEEG_Images\0560.jpg	YN	Left	Yes	0.612881399923936	0	366745	234
717.33984375	1	decision	trialStart	2	78	18	foodImage.70	FOODEEG_Images\0705.jpg	NY	Left	No	1.02089149993844	0	367279	251
718.396484375	2	decision	foodImageDisplay	2	78	18	foodImage.70	FOODEEG_Images\0705.jpg	NY	Left	No	1.02089149993844	0	367820	252
720.458984375	1.02089149993844	decision	choicePhaseStart	2	78	18	foodImage.70	FOODEEG_Images\0705.jpg	NY	Left	No	1.02089149993844	0	368876	253
721.47265625	0	decision	response	2	78	18	foodImage.70	FOODEEG_Images\0705.jpg	NY	Left	No	1.02089149993844	0	369395	234
722.515625	1	health	trialStart	2	79	19	foodImage.90	FOODEEG_Images\0890.jpg	NY	Right	Yes	0.727069100015797	0	369929	251
723.5703125	2	health	foodImageDisplay	2	79	19	foodImage.90	FOODEEG_Images\0890.jpg	NY	Right	Yes	0.727069100015797	0	370469	252
725.6328125	0.727069100015797	health	choicePhaseStart	2	79	19	foodImage.90	FOODEEG_Images\0890.jpg	NY	Right	Yes	0.727069100015797	0	371525	253
726.3515625	0	health	response	2	79	19	foodImage.90	FOODEEG_Images\0890.jpg	NY	Right	Yes	0.727069100015797	0	371893	235
727.39453125	1	taste	trialStart	2	80	20	foodImage.67	FOODEEG_Images\0679.jpg	NY	Right	Yes	1.46929369994905	0	372427	251
728.453125	2	taste	foodImageDisplay	2	80	20	foodImage.67	FOODEEG_Images\0679.jpg	NY	Right	Yes	1.46929369994905	0	372969	252
730.515625	1.46929369994905	taste	choicePhaseStart	2	80	20	foodImage.67	FOODEEG_Images\0679.jpg	NY	Right	Yes	1.46929369994905	0	374025	253
731.9765625	0	taste	response	2	80	20	foodImage.67	FOODEEG_Images\0679.jpg	NY	Right	Yes	1.46929369994905	0	374773	235
733.017578125	1	decision	trialStart	2	81	21	foodImage.2	FOODEEG_Images\0028.jpg	NY	Right	Yes	0.718833700055256	0	375306	251
734.05859375	2	decision	foodImageDisplay	2	81	21	foodImage.2	FOODEEG_Images\0028.jpg	NY	Right	Yes	0.718833700055256	0	375839	252
736.12109375	0.718833700055256	decision	choicePhaseStart	2	81	21	foodImage.2	FOODEEG_Images\0028.jpg	NY	Right	Yes	0.718833700055256	0	376895	253
736.83203125	0	decision	response	2	81	21	foodImage.2	FOODEEG_Images\0028.jpg	NY	Right	Yes	0.718833700055256	0	377259	235
737.875	1	taste	trialStart	2	82	22	foodImage.102	FOODEEG_Images\0910.jpg	NY	Left	No	0.881127399974503	0	377793	251
738.9140625	2	taste	foodImageDisplay	2	82	22	foodImage.102	FOODEEG_Images\0910.jpg	NY	Left	No	0.881127399974503	0	378325	252
740.9765625	0.881127399974503	taste	choicePhaseStart	2	82	22	foodImage.102	FOODEEG_Images\0910.jpg	NY	Left	No	0.881127399974503	0	379381	253
741.84765625	0	taste	response	2	82	22	foodImage.102	FOODEEG_Images\0910.jpg	NY	Left	No	0.881127399974503	0	379827	234
742.890625	1	decision	trialStart	2	83	23	foodImage.98	FOODEEG_Images\0906.jpg	NY	Left	No	1.09671209997032	0	380361	251
743.9296875	2	decision	foodImageDisplay	2	83	23	foodImage.98	FOODEEG_Images\0906.jpg	NY	Left	No	1.09671209997032	0	380893	252
745.9921875	1.09671209997032	decision	choicePhaseStart	2	83	23	foodImage.98	FOODEEG_Images\0906.jpg	NY	Left	No	1.09671209997032	0	381949	253
747.080078125	0	decision	response	2	83	23	foodImage.98	FOODEEG_Images\0906.jpg	NY	Left	No	1.09671209997032	0	382506	234
748.12109375	1	health	trialStart	2	84	24	foodImage.72	FOODEEG_Images\0714.jpg	YN	Right	No	0.974528499995358	0	383039	251
749.1640625	2	health	foodImageDisplay	2	84	24	foodImage.72	FOODEEG_Images\0714.jpg	YN	Right	No	0.974528499995358	0	383573	252
751.2265625	0.974528499995358	health	choicePhaseStart	2	84	24	foodImage.72	FOODEEG_Images\0714.jpg	YN	Right	No	0.974528499995358	0	384629	253
752.19140625	0	health	response	2	84	24	foodImage.72	FOODEEG_Images\0714.jpg	YN	Right	No	0.974528499995358	0	385123	235
753.234375	1	decision	trialStart	2	85	25	foodImage.59	FOODEEG_Images\0607.jpg	NY	Left	No	2.93379789998289	0	385657	251
754.30078125	2	decision	foodImageDisplay	2	85	25	foodImage.59	FOODEEG_Images\0607.jpg	NY	Left	No	2.93379789998289	0	386203	252
756.36328125	2.93379789998289	decision	choicePhaseStart	2	85	25	foodImage.59	FOODEEG_Images\0607.jpg	NY	Left	No	2.93379789998289	0	387259	253
759.287109375	0	decision	response	2	85	25	foodImage.59	FOODEEG_Images\0607.jpg	NY	Left	No	2.93379789998289	0	388756	234
760.328125	1	decision	trialStart	2	86	26	foodImage.99	FOODEEG_Images\0907.jpg	YN	Right	No	0.490500200074166	0	389289	251
761.3671875	2	decision	foodImageDisplay	2	86	26	foodImage.99	FOODEEG_Images\0907.jpg	YN	Right	No	0.490500200074166	0	389821	252
763.4296875	0.490500200074166	decision	choicePhaseStart	2	86	26	foodImage.99	FOODEEG_Images\0907.jpg	YN	Right	No	0.490500200074166	0	390877	253
763.91015625	0	decision	response	2	86	26	foodImage.99	FOODEEG_Images\0907.jpg	YN	Right	No	0.490500200074166	0	391123	235
764.953125	1	taste	trialStart	2	87	27	foodImage.11	FOODEEG_Images\0180.jpg	NY	Right	Yes	0.686147299944423	0	391657	251
765.994140625	2	taste	foodImageDisplay	2	87	27	foodImage.11	FOODEEG_Images\0180.jpg	NY	Right	Yes	0.686147299944423	0	392190	252
768.056640625	0.686147299944423	taste	choicePhaseStart	2	87	27	foodImage.11	FOODEEG_Images\0180.jpg	NY	Right	Yes	0.686147299944423	0	393246	253
768.734375	0	taste	response	2	87	27	foodImage.11	FOODEEG_Images\0180.jpg	NY	Right	Yes	0.686147299944423	0	393593	235
769.77734375	1	decision	trialStart	2	88	28	foodImage.66	FOODEEG_Images\0676.jpg	NY	Right	Yes	1.55032139993273	0	394127	251
770.818359375	2	decision	foodImageDisplay	2	88	28	foodImage.66	FOODEEG_Images\0676.jpg	NY	Right	Yes	1.55032139993273	0	394660	252
772.880859375	1.55032139993273	decision	choicePhaseStart	2	88	28	foodImage.66	FOODEEG_Images\0676.jpg	NY	Right	Yes	1.55032139993273	0	395716	253
774.421875	0	decision	response	2	88	28	foodImage.66	FOODEEG_Images\0676.jpg	NY	Right	Yes	1.55032139993273	0	396505	235
775.46484375	1	health	trialStart	2	89	29	foodImage.83	FOODEEG_Images\0827.jpg	YN	Left	Yes	1.45217589999083	0	397039	251
776.541015625	2	health	foodImageDisplay	2	89	29	foodImage.83	FOODEEG_Images\0827.jpg	YN	Left	Yes	1.45217589999083	0	397590	252
778.603515625	1.45217589999083	health	choicePhaseStart	2	89	29	foodImage.83	FOODEEG_Images\0827.jpg	YN	Left	Yes	1.45217589999083	0	398646	253
780.044921875	0	health	response	2	89	29	foodImage.83	FOODEEG_Images\0827.jpg	YN	Left	Yes	1.45217589999083	0	399384	234
781.08984375	1	decision	trialStart	2	90	30	foodImage.110	FOODEEG_Images\0918.jpg	YN	Right	No	1.42616549995728	0	399919	251
782.12890625	2	decision	foodImageDisplay	2	90	30	foodImage.110	FOODEEG_Images\0918.jpg	YN	Right	No	1.42616549995728	0	400451	252
784.197265625	1.42616549995728	decision	choicePhaseStart	2	90	30	foodImage.110	FOODEEG_Images\0918.jpg	YN	Right	No	1.42616549995728	0	401510	253
785.61328125	0	decision	response	2	90	30	foodImage.110	FOODEEG_Images\0918.jpg	YN	Right	No	1.42616549995728	0	402235	235
786.658203125	1	taste	trialStart	2	91	31	foodImage.84	FOODEEG_Images\0830.jpg	YN	Left	Yes	1.07017750001978	0	402770	251
787.73828125	2	taste	foodImageDisplay	2	91	31	foodImage.84	FOODEEG_Images\0830.jpg	YN	Left	Yes	1.07017750001978	0	403323	252
789.798828125	1.07017750001978	taste	choicePhaseStart	2	91	31	foodImage.84	FOODEEG_Images\0830.jpg	YN	Left	Yes	1.07017750001978	0	404378	253
790.861328125	0	taste	response	2	91	31	foodImage.84	FOODEEG_Images\0830.jpg	YN	Left	Yes	1.07017750001978	0	404922	234
791.904296875	1	health	trialStart	2	92	32	foodImage.60	FOODEEG_Images\0614.jpg	NY	Right	Yes	0.995704599888995	0	405456	251
792.96484375	2	health	foodImageDisplay	2	92	32	foodImage.60	FOODEEG_Images\0614.jpg	NY	Right	Yes	0.995704599888995	0	405999	252
795.02734375	0.995704599888995	health	choicePhaseStart	2	92	32	foodImage.60	FOODEEG_Images\0614.jpg	NY	Right	Yes	0.995704599888995	0	407055	253
796.013671875	0	health	response	2	92	32	foodImage.60	FOODEEG_Images\0614.jpg	NY	Right	Yes	0.995704599888995	0	407560	235
797.056640625	1	decision	trialStart	2	93	33	foodImage.82	FOODEEG_Images\0805.jpg	NY	Right	Yes	1.69638069998473	0	408094	251
798.12890625	2	decision	foodImageDisplay	2	93	33	foodImage.82	FOODEEG_Images\0805.jpg	NY	Right	Yes	1.69638069998473	0	408643	252
800.19140625	1.69638069998473	decision	choicePhaseStart	2	93	33	foodImage.82	FOODEEG_Images\0805.jpg	NY	Right	Yes	1.69638069998473	0	409699	253
801.876953125	0	decision	response	2	93	33	foodImage.82	FOODEEG_Images\0805.jpg	NY	Right	Yes	1.69638069998473	0	410562	235
802.919921875	1	health	trialStart	2	94	34	foodImage.41	FOODEEG_Images\0409.jpg	NY	Right	Yes	1.30658279999625	0	411096	251
803.96484375	2	health	foodImageDisplay	2	94	34	foodImage.41	FOODEEG_Images\0409.jpg	NY	Right	Yes	1.30658279999625	0	411631	252
806.02734375	1.30658279999625	health	choicePhaseStart	2	94	34	foodImage.41	FOODEEG_Images\0409.jpg	NY	Right	Yes	1.30658279999625	0	412687	253
807.32421875	0	health	response	2	94	34	foodImage.41	FOODEEG_Images\0409.jpg	NY	Right	Yes	1.30658279999625	0	413351	235
808.3671875	1	taste	trialStart	2	95	35	foodImage.57	FOODEEG_Images\0587.jpg	YN	Left	Yes	2.42137090000324	0	413885	251
809.41015625	2	taste	foodImageDisplay	2	95	35	foodImage.57	FOODEEG_Images\0587.jpg	YN	Left	Yes	2.42137090000324	0	414419	252
811.47265625	2.42137090000324	taste	choicePhaseStart	2	95	35	foodImage.57	FOODEEG_Images\0587.jpg	YN	Left	Yes	2.42137090000324	0	415475	253
813.884765625	0	taste	response	2	95	35	foodImage.57	FOODEEG_Images\0587.jpg	YN	Left	Yes	2.42137090000324	0	416710	234
814.92578125	1	health	trialStart	2	96	36	foodImage.16	FOODEEG_Images\0196.jpg	YN	Left	Yes	0.873825399903581	0	417243	251
815.982421875	2	health	foodImageDisplay	2	96	36	foodImage.16	FOODEEG_Images\0196.jpg	YN	Left	Yes	0.873825399903581	0	417784	252
818.044921875	0.873825399903581	health	choicePhaseStart	2	96	36	foodImage.16	FOODEEG_Images\0196.jpg	YN	Left	Yes	0.873825399903581	0	418840	253
818.908203125	0	health	response	2	96	36	foodImage.16	FOODEEG_Images\0196.jpg	YN	Left	Yes	0.873825399903581	0	419282	234
819.951171875	1	taste	trialStart	2	97	37	foodImage.51	FOODEEG_Images\0536.jpg	NY	Left	No	1.06024060002528	0	419816	251
820.994140625	2	taste	foodImageDisplay	2	97	37	foodImage.51	FOODEEG_Images\0536.jpg	NY	Left	No	1.06024060002528	0	420350	252
823.056640625	1.06024060002528	taste	choicePhaseStart	2	97	37	foodImage.51	FOODEEG_Images\0536.jpg	NY	Left	No	1.06024060002528	0	421406	253
824.107421875	0	taste	response	2	97	37	foodImage.51	FOODEEG_Images\0536.jpg	NY	Left	No	1.06024060002528	0	421944	234
825.15234375	1	health	trialStart	2	98	38	foodImage.101	FOODEEG_Images\0909.jpg	NY	Left	No	1.0239185000537	0	422479	251
826.189453125	2	health	foodImageDisplay	2	98	38	foodImage.101	FOODEEG_Images\0909.jpg	NY	Left	No	1.0239185000537	0	423010	252
828.251953125	1.0239185000537	health	choicePhaseStart	2	98	38	foodImage.101	FOODEEG_Images\0909.jpg	NY	Left	No	1.0239185000537	0	424066	253
829.267578125	0	health	response	2	98	38	foodImage.101	FOODEEG_Images\0909.jpg	NY	Left	No	1.0239185000537	0	424586	234
830.3125	1	health	trialStart	2	99	39	foodImage.70	FOODEEG_Images\0705.jpg	NY	Left	No	0.867751999991015	0	425121	251
831.37109375	2	health	foodImageDisplay	2	99	39	foodImage.70	FOODEEG_Images\0705.jpg	NY	Left	No	0.867751999991015	0	425663	252
833.43359375	0.867751999991015	health	choicePhaseStart	2	99	39	foodImage.70	FOODEEG_Images\0705.jpg	NY	Left	No	0.867751999991015	0	426719	253
834.291015625	0	health	response	2	99	39	foodImage.70	FOODEEG_Images\0705.jpg	NY	Left	No	0.867751999991015	0	427158	234
835.333984375	1	taste	trialStart	2	100	40	foodImage.16	FOODEEG_Images\0196.jpg	NY	Right	Yes	1.28652530000545	0	427692	251
836.392578125	2	taste	foodImageDisplay	2	100	40	foodImage.16	FOODEEG_Images\0196.jpg	NY	Right	Yes	1.28652530000545	0	428234	252
838.453125	1.28652530000545	taste	choicePhaseStart	2	100	40	foodImage.16	FOODEEG_Images\0196.jpg	NY	Right	Yes	1.28652530000545	0	429289	253
839.73046875	0	taste	response	2	100	40	foodImage.16	FOODEEG_Images\0196.jpg	NY	Right	Yes	1.28652530000545	0	429943	235
840.7734375	1	taste	trialStart	2	101	41	foodImage.2	FOODEEG_Images\0028.jpg	YN	Left	Yes	0.885745399980806	0	430477	251
841.81640625	2	taste	foodImageDisplay	2	101	41	foodImage.2	FOODEEG_Images\0028.jpg	YN	Left	Yes	0.885745399980806	0	431011	252
843.87890625	0.885745399980806	taste	choicePhaseStart	2	101	41	foodImage.2	FOODEEG_Images\0028.jpg	YN	Left	Yes	0.885745399980806	0	432067	253
844.755859375	0	taste	response	2	101	41	foodImage.2	FOODEEG_Images\0028.jpg	YN	Left	Yes	0.885745399980806	0	432516	234
845.798828125	1	health	trialStart	2	102	42	foodImage.44	FOODEEG_Images\0459.jpg	YN	Left	Yes	1.25591410009656	0	433050	251
846.845703125	2	health	foodImageDisplay	2	102	42	foodImage.44	FOODEEG_Images\0459.jpg	YN	Left	Yes	1.25591410009656	0	433586	252
848.908203125	1.25591410009656	health	choicePhaseStart	2	102	42	foodImage.44	FOODEEG_Images\0459.jpg	YN	Left	Yes	1.25591410009656	0	434642	253
850.154296875	0	health	response	2	102	42	foodImage.44	FOODEEG_Images\0459.jpg	YN	Left	Yes	1.25591410009656	0	435280	234
851.197265625	1	health	trialStart	2	103	43	foodImage.38	FOODEEG_Images\0365.jpg	NY	Right	Yes	1.21883789997082	0	435814	251
852.234375	2	health	foodImageDisplay	2	103	43	foodImage.38	FOODEEG_Images\0365.jpg	NY	Right	Yes	1.21883789997082	0	436345	252
854.296875	1.21883789997082	health	choicePhaseStart	2	103	43	foodImage.38	FOODEEG_Images\0365.jpg	NY	Right	Yes	1.21883789997082	0	437401	253
855.5078125	0	health	response	2	103	43	foodImage.38	FOODEEG_Images\0365.jpg	NY	Right	Yes	1.21883789997082	0	438021	235
856.55078125	1	health	trialStart	2	104	44	foodImage.28	FOODEEG_Images\0273.jpg	NY	Right	Yes	0.965595999965444	0	438555	251
857.59375	2	health	foodImageDisplay	2	104	44	foodImage.28	FOODEEG_Images\0273.jpg	NY	Right	Yes	0.965595999965444	0	439089	252
859.65625	0.965595999965444	health	choicePhaseStart	2	104	44	foodImage.28	FOODEEG_Images\0273.jpg	NY	Right	Yes	0.965595999965444	0	440145	253
860.611328125	0	health	response	2	104	44	foodImage.28	FOODEEG_Images\0273.jpg	NY	Right	Yes	0.965595999965444	0	440634	235
861.654296875	1	taste	trialStart	2	105	45	foodImage.73	FOODEEG_Images\0717.jpg	NY	Right	Yes	0.684638399980031	0	441168	251
862.712890625	2	taste	foodImageDisplay	2	105	45	foodImage.73	FOODEEG_Images\0717.jpg	NY	Right	Yes	0.684638399980031	0	441710	252
864.7734375	0.684638399980031	taste	choicePhaseStart	2	105	45	foodImage.73	FOODEEG_Images\0717.jpg	NY	Right	Yes	0.684638399980031	0	442765	253
865.451171875	0	taste	response	2	105	45	foodImage.73	FOODEEG_Images\0717.jpg	NY	Right	Yes	0.684638399980031	0	443112	235
866.494140625	1	decision	trialStart	2	106	46	foodImage.32	FOODEEG_Images\0319.jpg	YN	Right	No	1.10478199995123	0	443646	251
867.541015625	2	decision	foodImageDisplay	2	106	46	foodImage.32	FOODEEG_Images\0319.jpg	YN	Right	No	1.10478199995123	0	444182	252
869.603515625	1.10478199995123	decision	choicePhaseStart	2	106	46	foodImage.32	FOODEEG_Images\0319.jpg	YN	Right	No	1.10478199995123	0	445238	253
870.69921875	0	decision	response	2	106	46	foodImage.32	FOODEEG_Images\0319.jpg	YN	Right	No	1.10478199995123	0	445799	235
871.740234375	1	taste	trialStart	2	107	47	foodImage.61	FOODEEG_Images\0640.jpg	YN	Left	Yes	0.565731800044887	0	446332	251
872.783203125	2	taste	foodImageDisplay	2	107	47	foodImage.61	FOODEEG_Images\0640.jpg	YN	Left	Yes	0.565731800044887	0	446866	252
874.845703125	0.565731800044887	taste	choicePhaseStart	2	107	47	foodImage.61	FOODEEG_Images\0640.jpg	YN	Left	Yes	0.565731800044887	0	447922	253
875.40234375	0	taste	response	2	107	47	foodImage.61	FOODEEG_Images\0640.jpg	YN	Left	Yes	0.565731800044887	0	448207	234
876.4453125	1	health	trialStart	2	108	48	foodImage.85	FOODEEG_Images\0841.jpg	NY	Right	Yes	0.662401699926704	0	448741	251
877.50390625	2	health	foodImageDisplay	2	108	48	foodImage.85	FOODEEG_Images\0841.jpg	NY	Right	Yes	0.662401699926704	0	449283	252
879.56640625	0.662401699926704	health	choicePhaseStart	2	108	48	foodImage.85	FOODEEG_Images\0841.jpg	NY	Right	Yes	0.662401699926704	0	450339	253
880.21875	0	health	response	2	108	48	foodImage.85	FOODEEG_Images\0841.jpg	NY	Right	Yes	0.662401699926704	0	450673	235
881.26171875	1	taste	trialStart	2	109	49	foodImage.78	FOODEEG_Images\0787.jpg	YN	Left	Yes	0.727858199970797	0	451207	251
882.32421875	2	taste	foodImageDisplay	2	109	49	foodImage.78	FOODEEG_Images\0787.jpg	YN	Left	Yes	0.727858199970797	0	451751	252
884.38671875	0.727858199970797	taste	choicePhaseStart	2	109	49	foodImage.78	FOODEEG_Images\0787.jpg	YN	Left	Yes	0.727858199970797	0	452807	253
885.10546875	0	taste	response	2	109	49	foodImage.78	FOODEEG_Images\0787.jpg	YN	Left	Yes	0.727858199970797	0	453175	234
886.1484375	1	health	trialStart	2	110	50	foodImage.89	FOODEEG_Images\0881.jpg	NY	Right	Yes	0.898358400096186	0	453709	251
887.203125	2	health	foodImageDisplay	2	110	50	foodImage.89	FOODEEG_Images\0881.jpg	NY	Right	Yes	0.898358400096186	0	454249	252
889.265625	0.898358400096186	health	choicePhaseStart	2	110	50	foodImage.89	FOODEEG_Images\0881.jpg	NY	Right	Yes	0.898358400096186	0	455305	253
890.154296875	0	health	response	2	110	50	foodImage.89	FOODEEG_Images\0881.jpg	NY	Right	Yes	0.898358400096186	0	455760	235
891.193359375	1	decision	trialStart	2	111	51	foodImage.106	FOODEEG_Images\0914.jpg	NY	Left	No	0.476264399942011	0	456292	251
892.232421875	2	decision	foodImageDisplay	2	111	51	foodImage.106	FOODEEG_Images\0914.jpg	NY	Left	No	0.476264399942011	0	456824	252
894.294921875	0.476264399942011	decision	choicePhaseStart	2	111	51	foodImage.106	FOODEEG_Images\0914.jpg	NY	Left	No	0.476264399942011	0	457880	253
894.76171875	0	decision	response	2	111	51	foodImage.106	FOODEEG_Images\0914.jpg	NY	Left	No	0.476264399942011	0	458119	234
895.8046875	1	health	trialStart	2	112	52	foodImage.103	FOODEEG_Images\0911.jpg	YN	Right	No	0.777534699998796	0	458653	251
896.841796875	2	health	foodImageDisplay	2	112	52	foodImage.103	FOODEEG_Images\0911.jpg	YN	Right	No	0.777534699998796	0	459184	252
898.904296875	0.777534699998796	health	choicePhaseStart	2	112	52	foodImage.103	FOODEEG_Images\0911.jpg	YN	Right	No	0.777534699998796	0	460240	253
899.673828125	0	health	response	2	112	52	foodImage.103	FOODEEG_Images\0911.jpg	YN	Right	No	0.777534699998796	0	460634	235
900.716796875	1	health	trialStart	2	113	53	foodImage.73	FOODEEG_Images\0717.jpg	NY	Right	Yes	0.923288600053638	0	461168	251
901.78125	2	health	foodImageDisplay	2	113	53	foodImage.73	FOODEEG_Images\0717.jpg	NY	Right	Yes	0.923288600053638	0	461713	252
903.84375	0.923288600053638	health	choicePhaseStart	2	113	53	foodImage.73	FOODEEG_Images\0717.jpg	NY	Right	Yes	0.923288600053638	0	462769	253
904.76171875	0	health	response	2	113	53	foodImage.73	FOODEEG_Images\0717.jpg	NY	Right	Yes	0.923288600053638	0	463239	235
905.8046875	1	decision	trialStart	2	114	54	foodImage.90	FOODEEG_Images\0890.jpg	NY	Right	Yes	0.925850500003435	0	463773	251
906.861328125	2	decision	foodImageDisplay	2	114	54	foodImage.90	FOODEEG_Images\0890.jpg	NY	Right	Yes	0.925850500003435	0	464314	252
908.923828125	0.925850500003435	decision	choicePhaseStart	2	114	54	foodImage.90	FOODEEG_Images\0890.jpg	NY	Right	Yes	0.925850500003435	0	465370	253
909.841796875	0	decision	response	2	114	54	foodImage.90	FOODEEG_Images\0890.jpg	NY	Right	Yes	0.925850500003435	0	465840	235
910.884765625	1	taste	trialStart	2	115	55	foodImage.36	FOODEEG_Images\0352.jpg	YN	Left	Yes	0.642780299996957	0	466374	251
911.943359375	2	taste	foodImageDisplay	2	115	55	foodImage.36	FOODEEG_Images\0352.jpg	YN	Left	Yes	0.642780299996957	0	466916	252
914.005859375	0.642780299996957	taste	choicePhaseStart	2	115	55	foodImage.36	FOODEEG_Images\0352.jpg	YN	Left	Yes	0.642780299996957	0	467972	253
914.640625	0	taste	response	2	115	55	foodImage.36	FOODEEG_Images\0352.jpg	YN	Left	Yes	0.642780299996957	0	468297	234
915.681640625	1	health	trialStart	2	116	56	foodImage.48	FOODEEG_Images\0494.jpg	NY	Left	No	0.998564000008628	0	468830	251
916.724609375	2	health	foodImageDisplay	2	116	56	foodImage.48	FOODEEG_Images\0494.jpg	NY	Left	No	0.998564000008628	0	469364	252
918.787109375	0.998564000008628	health	choicePhaseStart	2	116	56	foodImage.48	FOODEEG_Images\0494.jpg	NY	Left	No	0.998564000008628	0	470420	253
919.77734375	0	health	response	2	116	56	foodImage.48	FOODEEG_Images\0494.jpg	NY	Left	No	0.998564000008628	0	470927	234
920.8203125	1	decision	trialStart	2	117	57	foodImage.84	FOODEEG_Images\0830.jpg	NY	Right	Yes	0.79086039995309	0	471461	251
921.884765625	2	decision	foodImageDisplay	2	117	57	foodImage.84	FOODEEG_Images\0830.jpg	NY	Right	Yes	0.79086039995309	0	472006	252
923.947265625	0.79086039995309	decision	choicePhaseStart	2	117	57	foodImage.84	FOODEEG_Images\0830.jpg	NY	Right	Yes	0.79086039995309	0	473062	253
924.728515625	0	decision	response	2	117	57	foodImage.84	FOODEEG_Images\0830.jpg	NY	Right	Yes	0.79086039995309	0	473462	235
925.76953125	1	health	trialStart	2	118	58	foodImage.95	FOODEEG_Images\0903.jpg	YN	Right	No	0.871272100019269	0	473995	251
926.818359375	2	health	foodImageDisplay	2	118	58	foodImage.95	FOODEEG_Images\0903.jpg	YN	Right	No	0.871272100019269	0	474532	252
928.880859375	0.871272100019269	health	choicePhaseStart	2	118	58	foodImage.95	FOODEEG_Images\0903.jpg	YN	Right	No	0.871272100019269	0	475588	253
929.744140625	0	health	response	2	118	58	foodImage.95	FOODEEG_Images\0903.jpg	YN	Right	No	0.871272100019269	0	476030	235
930.791015625	1	taste	trialStart	2	119	59	foodImage.71	FOODEEG_Images\0713.jpg	YN	Left	Yes	0.578991199960001	0	476566	251
931.83984375	2	taste	foodImageDisplay	2	119	59	foodImage.71	FOODEEG_Images\0713.jpg	YN	Left	Yes	0.578991199960001	0	477103	252
933.90234375	0.578991199960001	taste	choicePhaseStart	2	119	59	foodImage.71	FOODEEG_Images\0713.jpg	YN	Left	Yes	0.578991199960001	0	478159	253
934.47265625	0	taste	response	2	119	59	foodImage.71	FOODEEG_Images\0713.jpg	YN	Left	Yes	0.578991199960001	0	478451	234
935.513671875	1	health	trialStart	2	120	60	foodImage.113	FOODEEG_Images\0921.jpg	YN	Right	No	1.72931490000337	0	478984	251
936.552734375	2	health	foodImageDisplay	2	120	60	foodImage.113	FOODEEG_Images\0921.jpg	YN	Right	No	1.72931490000337	0	479516	252
938.615234375	1.72931490000337	health	choicePhaseStart	2	120	60	foodImage.113	FOODEEG_Images\0921.jpg	YN	Right	No	1.72931490000337	0	480572	253
940.3359375	0	health	response	2	120	60	foodImage.113	FOODEEG_Images\0921.jpg	YN	Right	No	1.72931490000337	0	481453	235
942.3828125	65.451171875	n/a	blockEnd	n/a	n/a	n/a	n/a	n/a	n/a	n/a	n/a	n/a	n/a	482501	254
1007.833984375	2	n/a	blockStart	3	n/a	n/a	n/a	n/a	n/a	n/a	n/a	n/a	n/a	516012	250
1009.873046875	1	health	trialStart	3	121	1	foodImage.81	FOODEEG_Images\0797.jpg	NY	Right	Yes	0.774303199956194	0	517056	251
1010.9453125	2	health	foodImageDisplay	3	121	1	foodImage.81	FOODEEG_Images\0797.jpg	NY	Right	Yes	0.774303199956194	0	517605	252
1013.0078125	0.774303199956194	health	choicePhaseStart	3	121	1	foodImage.81	FOODEEG_Images\0797.jpg	NY	Right	Yes	0.774303199956194	0	518661	253
1013.7734375	0	health	response	3	121	1	foodImage.81	FOODEEG_Images\0797.jpg	NY	Right	Yes	0.774303199956194	0	519053	235
1014.8125	1	decision	trialStart	3	122	2	foodImage.1	FOODEEG_Images\0004.jpg	NY	Right	Yes	0.600971300038509	0	519585	251
1015.87109375	2	decision	foodImageDisplay	3	122	2	foodImage.1	FOODEEG_Images\0004.jpg	NY	Right	Yes	0.600971300038509	0	520127	252
1017.93359375	0.600971300038509	decision	choicePhaseStart	3	122	2	foodImage.1	FOODEEG_Images\0004.jpg	NY	Right	Yes	0.600971300038509	0	521183	253
1018.525390625	0	decision	response	3	122	2	foodImage.1	FOODEEG_Images\0004.jpg	NY	Right	Yes	0.600971300038509	0	521486	235
1019.56640625	1	health	trialStart	3	123	3	foodImage.67	FOODEEG_Images\0679.jpg	NY	Left	No	0.871811099932529	0	522019	251
1020.625	2	health	foodImageDisplay	3	123	3	foodImage.67	FOODEEG_Images\0679.jpg	NY	Left	No	0.871811099932529	0	522561	252
1022.6875	0.871811099932529	health	choicePhaseStart	3	123	3	foodImage.67	FOODEEG_Images\0679.jpg	NY	Left	No	0.871811099932529	0	523617	253
1023.548828125	0	health	response	3	123	3	foodImage.67	FOODEEG_Images\0679.jpg	NY	Left	No	0.871811099932529	0	524058	234
1024.58984375	1	decision	trialStart	3	124	4	foodImage.112	FOODEEG_Images\0920.jpg	YN	Right	No	1.07288979995064	0	524591	251
1025.62890625	2	decision	foodImageDisplay	3	124	4	foodImage.112	FOODEEG_Images\0920.jpg	YN	Right	No	1.07288979995064	0	525123	252
1027.69140625	1.07288979995064	decision	choicePhaseStart	3	124	4	foodImage.112	FOODEEG_Images\0920.jpg	YN	Right	No	1.07288979995064	0	526179	253
1028.755859375	0	decision	response	3	124	4	foodImage.112	FOODEEG_Images\0920.jpg	YN	Right	No	1.07288979995064	0	526724	235
1029.80078125	1	decision	trialStart	3	125	5	foodImage.94	FOODEEG_Images\0902.jpg	YN	Right	No	1.13727309997194	0	527259	251
1030.837890625	2	decision	foodImageDisplay	3	125	5	foodImage.94	FOODEEG_Images\0902.jpg	YN	Right	No	1.13727309997194	0	527790	252
1032.900390625	1.13727309997194	decision	choicePhaseStart	3	125	5	foodImage.94	FOODEEG_Images\0902.jpg	YN	Right	No	1.13727309997194	0	528846	253
1034.02734375	0	decision	response	3	125	5	foodImage.94	FOODEEG_Images\0902.jpg	YN	Right	No	1.13727309997194	0	529423	235
1035.0703125	1	decision	trialStart	3	126	6	foodImage.33	FOODEEG_Images\0329.jpg	NY	Left	No	2.55257950001396	0	529957	251
1036.1171875	2	decision	foodImageDisplay	3	126	6	foodImage.33	FOODEEG_Images\0329.jpg	NY	Left	No	2.55257950001396	0	530493	252
1038.1796875	2.55257950001396	decision	choicePhaseStart	3	126	6	foodImage.33	FOODEEG_Images\0329.jpg	NY	Left	No	2.55257950001396	0	531549	253
1040.724609375	0	decision	response	3	126	6	foodImage.33	FOODEEG_Images\0329.jpg	NY	Left	No	2.55257950001396	0	532852	234
1041.767578125	1	decision	trialStart	3	127	7	foodImage.108	FOODEEG_Images\0916.jpg	YN	Right	No	0.791653699940071	0	533386	251
1042.806640625	2	decision	foodImageDisplay	3	127	7	foodImage.108	FOODEEG_Images\0916.jpg	YN	Right	No	0.791653699940071	0	533918	252
1044.869140625	0.791653699940071	decision	choicePhaseStart	3	127	7	foodImage.108	FOODEEG_Images\0916.jpg	YN	Right	No	0.791653699940071	0	534974	253
1045.65234375	0	decision	response	3	127	7	foodImage.108	FOODEEG_Images\0916.jpg	YN	Right	No	0.791653699940071	0	535375	235
1046.6953125	1	taste	trialStart	3	128	8	foodImage.111	FOODEEG_Images\0919.jpg	NY	Left	No	0.890756699955091	0	535909	251
1047.740234375	2	taste	foodImageDisplay	3	128	8	foodImage.111	FOODEEG_Images\0919.jpg	NY	Left	No	0.890756699955091	0	536444	252
1049.802734375	0.890756699955091	taste	choicePhaseStart	3	128	8	foodImage.111	FOODEEG_Images\0919.jpg	NY	Left	No	0.890756699955091	0	537500	253
1050.68359375	0	taste	response	3	128	8	foodImage.111	FOODEEG_Images\0919.jpg	NY	Left	No	0.890756699955091	0	537951	234
1051.724609375	1	decision	trialStart	3	129	9	foodImage.42	FOODEEG_Images\0438.jpg	NY	Right	Yes	2.03239009995013	0	538484	251
1052.814453125	2	decision	foodImageDisplay	3	129	9	foodImage.42	FOODEEG_Images\0438.jpg	NY	Right	Yes	2.03239009995013	0	539042	252
1054.876953125	2.03239009995013	decision	choicePhaseStart	3	129	9	foodImage.42	FOODEEG_Images\0438.jpg	NY	Right	Yes	2.03239009995013	0	540098	253
1056.8984375	0	decision	response	3	129	9	foodImage.42	FOODEEG_Images\0438.jpg	NY	Right	Yes	2.03239009995013	0	541133	235
1057.943359375	1	taste	trialStart	3	130	10	foodImage.17	FOODEEG_Images\0199.jpg	YN	Left	Yes	0.73244200006593	0	541668	251
1058.984375	2	taste	foodImageDisplay	3	130	10	foodImage.17	FOODEEG_Images\0199.jpg	YN	Left	Yes	0.73244200006593	0	542201	252
1061.046875	0.73244200006593	taste	choicePhaseStart	3	130	10	foodImage.17	FOODEEG_Images\0199.jpg	YN	Left	Yes	0.73244200006593	0	543257	253
1061.771484375	0	taste	response	3	130	10	foodImage.17	FOODEEG_Images\0199.jpg	YN	Left	Yes	0.73244200006593	0	543628	234
1062.8125	1	health	trialStart	3	131	11	foodImage.31	FOODEEG_Images\0294.jpg	YN	Right	No	0.463624499971047	0	544161	251
1063.85546875	2	health	foodImageDisplay	3	131	11	foodImage.31	FOODEEG_Images\0294.jpg	YN	Right	No	0.463624499971047	0	544695	252
1065.91796875	0.463624499971047	health	choicePhaseStart	3	131	11	foodImage.31	FOODEEG_Images\0294.jpg	YN	Right	No	0.463624499971047	0	545751	253
1066.37109375	0	health	response	3	131	11	foodImage.31	FOODEEG_Images\0294.jpg	YN	Right	No	0.463624499971047	0	545983	235
1067.4140625	1	health	trialStart	3	132	12	foodImage.33	FOODEEG_Images\0329.jpg	YN	Right	No	1.01389049994759	0	546517	251
1068.470703125	2	health	foodImageDisplay	3	132	12	foodImage.33	FOODEEG_Images\0329.jpg	YN	Right	No	1.01389049994759	0	547058	252
1070.533203125	1.01389049994759	health	choicePhaseStart	3	132	12	foodImage.33	FOODEEG_Images\0329.jpg	YN	Right	No	1.01389049994759	0	548114	253
1071.5390625	0	health	response	3	132	12	foodImage.33	FOODEEG_Images\0329.jpg	YN	Right	No	1.01389049994759	0	548629	235
1072.58203125	1	taste	trialStart	3	133	13	foodImage.20	FOODEEG_Images\0226.jpg	NY	Right	Yes	0.95801229996141	0	549163	251
1073.623046875	2	taste	foodImageDisplay	3	133	13	foodImage.20	FOODEEG_Images\0226.jpg	NY	Right	Yes	0.95801229996141	0	549696	252
1075.685546875	0.95801229996141	taste	choicePhaseStart	3	133	13	foodImage.20	FOODEEG_Images\0226.jpg	NY	Right	Yes	0.95801229996141	0	550752	253
1076.634765625	0	taste	response	3	133	13	foodImage.20	FOODEEG_Images\0226.jpg	NY	Right	Yes	0.95801229996141	0	551238	235
1077.677734375	1	health	trialStart	3	134	14	foodImage.80	FOODEEG_Images\0796.jpg	NY	Right	Yes	0.728636900079437	0	551772	251
1078.732421875	2	health	foodImageDisplay	3	134	14	foodImage.80	FOODEEG_Images\0796.jpg	NY	Right	Yes	0.728636900079437	0	552312	252
1080.794921875	0.728636900079437	health	choicePhaseStart	3	134	14	foodImage.80	FOODEEG_Images\0796.jpg	NY	Right	Yes	0.728636900079437	0	553368	253
1081.515625	0	health	response	3	134	14	foodImage.80	FOODEEG_Images\0796.jpg	NY	Right	Yes	0.728636900079437	0	553737	235
1082.55859375	1	taste	trialStart	3	135	15	foodImage.54	FOODEEG_Images\0560.jpg	NY	Right	Yes	0.770492400042713	0	554271	251
1083.6171875	2	taste	foodImageDisplay	3	135	15	foodImage.54	FOODEEG_Images\0560.jpg	NY	Right	Yes	0.770492400042713	0	554813	252
1085.6796875	0.770492400042713	taste	choicePhaseStart	3	135	15	foodImage.54	FOODEEG_Images\0560.jpg	NY	Right	Yes	0.770492400042713	0	555869	253
1086.44140625	0	taste	response	3	135	15	foodImage.54	FOODEEG_Images\0560.jpg	NY	Right	Yes	0.770492400042713	0	556259	235
1087.484375	1	health	trialStart	3	136	16	foodImage.65	FOODEEG_Images\0658.jpg	YN	Right	No	0.714807200012729	0	556793	251
1088.537109375	2	health	foodImageDisplay	3	136	16	foodImage.65	FOODEEG_Images\0658.jpg	YN	Right	No	0.714807200012729	0	557332	252
1090.599609375	0.714807200012729	health	choicePhaseStart	3	136	16	foodImage.65	FOODEEG_Images\0658.jpg	YN	Right	No	0.714807200012729	0	558388	253
1091.306640625	0	health	response	3	136	16	foodImage.65	FOODEEG_Images\0658.jpg	YN	Right	No	0.714807200012729	0	558750	235
1092.375	1	health	trialStart	3	137	17	foodImage.109	FOODEEG_Images\0917.jpg	NY	Left	No	0.745066500036046	0	559297	251
1093.412109375	2	health	foodImageDisplay	3	137	17	foodImage.109	FOODEEG_Images\0917.jpg	NY	Left	No	0.745066500036046	0	559828	252
1095.474609375	0.745066500036046	health	choicePhaseStart	3	137	17	foodImage.109	FOODEEG_Images\0917.jpg	NY	Left	No	0.745066500036046	0	560884	253
1096.208984375	0	health	response	3	137	17	foodImage.109	FOODEEG_Images\0917.jpg	NY	Left	No	0.745066500036046	0	561260	234
1097.251953125	1	decision	trialStart	3	138	18	foodImage.40	FOODEEG_Images\0373.jpg	YN	Left	Yes	1.06975039991084	0	561794	251
1098.29296875	2	decision	foodImageDisplay	3	138	18	foodImage.40	FOODEEG_Images\0373.jpg	YN	Left	Yes	1.06975039991084	0	562327	252
1100.35546875	1.06975039991084	decision	choicePhaseStart	3	138	18	foodImage.40	FOODEEG_Images\0373.jpg	YN	Left	Yes	1.06975039991084	0	563383	253
1101.41796875	0	decision	response	3	138	18	foodImage.40	FOODEEG_Images\0373.jpg	YN	Left	Yes	1.06975039991084	0	563927	234
1102.4609375	1	health	trialStart	3	139	19	foodImage.75	FOODEEG_Images\0763.jpg	YN	Left	Yes	1.48296689998824	0	564461	251
1103.50390625	2	health	foodImageDisplay	3	139	19	foodImage.75	FOODEEG_Images\0763.jpg	YN	Left	Yes	1.48296689998824	0	564995	252
1105.56640625	1.48296689998824	health	choicePhaseStart	3	139	19	foodImage.75	FOODEEG_Images\0763.jpg	YN	Left	Yes	1.48296689998824	0	566051	253
1107.041015625	0	health	response	3	139	19	foodImage.75	FOODEEG_Images\0763.jpg	YN	Left	Yes	1.48296689998824	0	566806	234
1108.083984375	1	taste	trialStart	3	140	20	foodImage.89	FOODEEG_Images\0881.jpg	YN	Left	Yes	1.34420579997823	0	567340	251
1109.140625	2	taste	foodImageDisplay	3	140	20	foodImage.89	FOODEEG_Images\0881.jpg	YN	Left	Yes	1.34420579997823	0	567881	252
1111.203125	1.34420579997823	taste	choicePhaseStart	3	140	20	foodImage.89	FOODEEG_Images\0881.jpg	YN	Left	Yes	1.34420579997823	0	568937	253
1112.537109375	0	taste	response	3	140	20	foodImage.89	FOODEEG_Images\0881.jpg	YN	Left	Yes	1.34420579997823	0	569620	234
1113.578125	1	taste	trialStart	3	141	21	foodImage.74	FOODEEG_Images\0752.jpg	YN	Left	Yes	0.941199099994265	0	570153	251
1114.638671875	2	taste	foodImageDisplay	3	141	21	foodImage.74	FOODEEG_Images\0752.jpg	YN	Left	Yes	0.941199099994265	0	570696	252
1116.701171875	0.941199099994265	taste	choicePhaseStart	3	141	21	foodImage.74	FOODEEG_Images\0752.jpg	YN	Left	Yes	0.941199099994265	0	571752	253
1117.6328125	0	taste	response	3	141	21	foodImage.74	FOODEEG_Images\0752.jpg	YN	Left	Yes	0.941199099994265	0	572229	234
1118.67578125	1	taste	trialStart	3	142	22	foodImage.106	FOODEEG_Images\0914.jpg	YN	Right	No	2.80785750003997	0	572763	251
1119.71484375	2	taste	foodImageDisplay	3	142	22	foodImage.106	FOODEEG_Images\0914.jpg	YN	Right	No	2.80785750003997	0	573295	252
1121.779296875	2.80785750003997	taste	choicePhaseStart	3	142	22	foodImage.106	FOODEEG_Images\0914.jpg	YN	Right	No	2.80785750003997	0	574352	253
1124.576171875	0	taste	response	3	142	22	foodImage.106	FOODEEG_Images\0914.jpg	YN	Right	No	2.80785750003997	0	575784	235
1125.62109375	1	health	trialStart	3	143	23	foodImage.61	FOODEEG_Images\0640.jpg	YN	Left	Yes	0.653020099969581	0	576319	251
1126.662109375	2	health	foodImageDisplay	3	143	23	foodImage.61	FOODEEG_Images\0640.jpg	YN	Left	Yes	0.653020099969581	0	576852	252
1128.724609375	0.653020099969581	health	choicePhaseStart	3	143	23	foodImage.61	FOODEEG_Images\0640.jpg	YN	Left	Yes	0.653020099969581	0	577908	253
1129.369140625	0	health	response	3	143	23	foodImage.61	FOODEEG_Images\0640.jpg	YN	Left	Yes	0.653020099969581	0	578238	234
1130.41015625	1	taste	trialStart	3	144	24	foodImage.22	FOODEEG_Images\0236.jpg	NY	Left	No	2.11897459998727	0	578771	251
1131.453125	2	taste	foodImageDisplay	3	144	24	foodImage.22	FOODEEG_Images\0236.jpg	NY	Left	No	2.11897459998727	0	579305	252
1133.513671875	2.11897459998727	taste	choicePhaseStart	3	144	24	foodImage.22	FOODEEG_Images\0236.jpg	NY	Left	No	2.11897459998727	0	580360	253
1135.623046875	0	taste	response	3	144	24	foodImage.22	FOODEEG_Images\0236.jpg	NY	Left	No	2.11897459998727	0	581440	234
1136.6640625	1	taste	trialStart	3	145	25	foodImage.97	FOODEEG_Images\0905.jpg	NY	Left	No	0.563962899963371	0	581973	251
1137.701171875	2	taste	foodImageDisplay	3	145	25	foodImage.97	FOODEEG_Images\0905.jpg	NY	Left	No	0.563962899963371	0	582504	252
1139.765625	0.563962899963371	taste	choicePhaseStart	3	145	25	foodImage.97	FOODEEG_Images\0905.jpg	NY	Left	No	0.563962899963371	0	583561	253
1140.3203125	0	taste	response	3	145	25	foodImage.97	FOODEEG_Images\0905.jpg	NY	Left	No	0.563962899963371	0	583845	234
1141.36328125	1	taste	trialStart	3	146	26	foodImage.27	FOODEEG_Images\0263.jpg	NY	Left	No	0.926462700008415	0	584379	251
1142.404296875	2	taste	foodImageDisplay	3	146	26	foodImage.27	FOODEEG_Images\0263.jpg	NY	Left	No	0.926462700008415	0	584912	252
1144.466796875	0.926462700008415	taste	choicePhaseStart	3	146	26	foodImage.27	FOODEEG_Images\0263.jpg	NY	Left	No	0.926462700008415	0	585968	253
1145.3828125	0	taste	response	3	146	26	foodImage.27	FOODEEG_Images\0263.jpg	NY	Left	No	0.926462700008415	0	586437	234
1146.431640625	1	decision	trialStart	3	147	27	foodImage.49	FOODEEG_Images\0515.jpg	YN	Left	Yes	1.46512700000312	0	586974	251
1147.47265625	2	decision	foodImageDisplay	3	147	27	foodImage.49	FOODEEG_Images\0515.jpg	YN	Left	Yes	1.46512700000312	0	587507	252
1149.53515625	1.46512700000312	decision	choicePhaseStart	3	147	27	foodImage.49	FOODEEG_Images\0515.jpg	YN	Left	Yes	1.46512700000312	0	588563	253
1150.9921875	0	decision	response	3	147	27	foodImage.49	FOODEEG_Images\0515.jpg	YN	Left	Yes	1.46512700000312	0	589309	234
1152.03515625	1	decision	trialStart	3	148	28	foodImage.67	FOODEEG_Images\0679.jpg	YN	Right	No	1.91008360008709	0	589843	251
1153.091796875	2	decision	foodImageDisplay	3	148	28	foodImage.67	FOODEEG_Images\0679.jpg	YN	Right	No	1.91008360008709	0	590384	252
1155.154296875	1.91008360008709	decision	choicePhaseStart	3	148	28	foodImage.67	FOODEEG_Images\0679.jpg	YN	Right	No	1.91008360008709	0	591440	253
1157.0546875	0	decision	response	3	148	28	foodImage.67	FOODEEG_Images\0679.jpg	YN	Right	No	1.91008360008709	0	592413	235
1158.09765625	1	taste	trialStart	3	149	29	foodImage.117	FOODEEG_Images\0925.jpg	YN	Right	No	0.82406449993141	0	592947	251
1159.13671875	2	taste	foodImageDisplay	3	149	29	foodImage.117	FOODEEG_Images\0925.jpg	YN	Right	No	0.82406449993141	0	593479	252
1161.19921875	0.82406449993141	taste	choicePhaseStart	3	149	29	foodImage.117	FOODEEG_Images\0925.jpg	YN	Right	No	0.82406449993141	0	594535	253
1162.015625	0	taste	response	3	149	29	foodImage.117	FOODEEG_Images\0925.jpg	YN	Right	No	0.82406449993141	0	594953	235
1163.05859375	1	health	trialStart	3	150	30	foodImage.36	FOODEEG_Images\0352.jpg	YN	Left	Yes	1.00518059998285	0	595487	251
1164.115234375	2	health	foodImageDisplay	3	150	30	foodImage.36	FOODEEG_Images\0352.jpg	YN	Left	Yes	1.00518059998285	0	596028	252
1166.177734375	1.00518059998285	health	choicePhaseStart	3	150	30	foodImage.36	FOODEEG_Images\0352.jpg	YN	Left	Yes	1.00518059998285	0	597084	253
1167.173828125	0	health	response	3	150	30	foodImage.36	FOODEEG_Images\0352.jpg	YN	Left	Yes	1.00518059998285	0	597594	234
1168.21875	1	decision	trialStart	3	151	31	foodImage.19	FOODEEG_Images\0225.jpg	NY	Left	No	0.982926500029862	0	598129	251
1169.267578125	2	decision	foodImageDisplay	3	151	31	foodImage.19	FOODEEG_Images\0225.jpg	NY	Left	No	0.982926500029862	0	598666	252
1171.328125	0.982926500029862	decision	choicePhaseStart	3	151	31	foodImage.19	FOODEEG_Images\0225.jpg	NY	Left	No	0.982926500029862	0	599721	253
1172.302734375	0	decision	response	3	151	31	foodImage.19	FOODEEG_Images\0225.jpg	NY	Left	No	0.982926500029862	0	600220	234
1173.345703125	1	health	trialStart	3	152	32	foodImage.9	FOODEEG_Images\0138.jpg	YN	Right	No	1.42936929990537	0	600754	251
1174.40234375	2	health	foodImageDisplay	3	152	32	foodImage.9	FOODEEG_Images\0138.jpg	YN	Right	No	1.42936929990537	0	601295	252
1176.46484375	1.42936929990537	health	choicePhaseStart	3	152	32	foodImage.9	FOODEEG_Images\0138.jpg	YN	Right	No	1.42936929990537	0	602351	253
1177.88671875	0	health	response	3	152	32	foodImage.9	FOODEEG_Images\0138.jpg	YN	Right	No	1.42936929990537	0	603079	235
1178.93359375	1	taste	trialStart	3	153	33	foodImage.56	FOODEEG_Images\0586.jpg	NY	Right	Yes	0.753775699995458	0	603615	251
1179.974609375	2	taste	foodImageDisplay	3	153	33	foodImage.56	FOODEEG_Images\0586.jpg	NY	Right	Yes	0.753775699995458	0	604148	252
1182.037109375	0.753775699995458	taste	choicePhaseStart	3	153	33	foodImage.56	FOODEEG_Images\0586.jpg	NY	Right	Yes	0.753775699995458	0	605204	253
1182.78125	0	taste	response	3	153	33	foodImage.56	FOODEEG_Images\0586.jpg	NY	Right	Yes	0.753775699995458	0	605585	235
1183.82421875	1	health	trialStart	3	154	34	foodImage.3	FOODEEG_Images\0046.jpg	YN	Left	Yes	0.55206699995324	0	606119	251
1184.865234375	2	health	foodImageDisplay	3	154	34	foodImage.3	FOODEEG_Images\0046.jpg	YN	Left	Yes	0.55206699995324	0	606652	252
1186.927734375	0.55206699995324	health	choicePhaseStart	3	154	34	foodImage.3	FOODEEG_Images\0046.jpg	YN	Left	Yes	0.55206699995324	0	607708	253
1187.470703125	0	health	response	3	154	34	foodImage.3	FOODEEG_Images\0046.jpg	YN	Left	Yes	0.55206699995324	0	607986	234
1188.513671875	1	decision	trialStart	3	155	35	foodImage.115	FOODEEG_Images\0923.jpg	YN	Right	No	0.729065600084141	0	608520	251
1189.552734375	2	decision	foodImageDisplay	3	155	35	foodImage.115	FOODEEG_Images\0923.jpg	YN	Right	No	0.729065600084141	0	609052	252
1191.615234375	0.729065600084141	decision	choicePhaseStart	3	155	35	foodImage.115	FOODEEG_Images\0923.jpg	YN	Right	No	0.729065600084141	0	610108	253
1192.333984375	0	decision	response	3	155	35	foodImage.115	FOODEEG_Images\0923.jpg	YN	Right	No	0.729065600084141	0	610476	235
1193.376953125	1	decision	trialStart	3	156	36	foodImage.55	FOODEEG_Images\0567.jpg	YN	Right	No	0.950168499955907	0	611010	251
1194.43359375	2	decision	foodImageDisplay	3	156	36	foodImage.55	FOODEEG_Images\0567.jpg	YN	Right	No	0.950168499955907	0	611551	252
1196.49609375	0.950168499955907	decision	choicePhaseStart	3	156	36	foodImage.55	FOODEEG_Images\0567.jpg	YN	Right	No	0.950168499955907	0	612607	253
1197.4375	0	decision	response	3	156	36	foodImage.55	FOODEEG_Images\0567.jpg	YN	Right	No	0.950168499955907	0	613089	235
1198.48046875	1	taste	trialStart	3	157	37	foodImage.92	FOODEEG_Images\0900.jpg	YN	Right	No	0.856752299936488	0	613623	251
1199.517578125	2	taste	foodImageDisplay	3	157	37	foodImage.92	FOODEEG_Images\0900.jpg	YN	Right	No	0.856752299936488	0	614154	252
1201.580078125	0.856752299936488	taste	choicePhaseStart	3	157	37	foodImage.92	FOODEEG_Images\0900.jpg	YN	Right	No	0.856752299936488	0	615210	253
1202.4296875	0	taste	response	3	157	37	foodImage.92	FOODEEG_Images\0900.jpg	YN	Right	No	0.856752299936488	0	615645	235
1203.47265625	1	taste	trialStart	3	158	38	foodImage.109	FOODEEG_Images\0917.jpg	YN	Right	No	0.546731299953535	0	616179	251
1204.5078125	2	taste	foodImageDisplay	3	158	38	foodImage.109	FOODEEG_Images\0917.jpg	YN	Right	No	0.546731299953535	0	616709	252
1206.5703125	0.546731299953535	taste	choicePhaseStart	3	158	38	foodImage.109	FOODEEG_Images\0917.jpg	YN	Right	No	0.546731299953535	0	617765	253
1207.109375	0	taste	response	3	158	38	foodImage.109	FOODEEG_Images\0917.jpg	YN	Right	No	0.546731299953535	0	618041	235
1208.15234375	1	taste	trialStart	3	159	39	foodImage.76	FOODEEG_Images\0766.jpg	NY	Right	Yes	0.793050099979155	0	618575	251
1209.1953125	2	taste	foodImageDisplay	3	159	39	foodImage.76	FOODEEG_Images\0766.jpg	NY	Right	Yes	0.793050099979155	0	619109	252
1211.259765625	0.793050099979155	taste	choicePhaseStart	3	159	39	foodImage.76	FOODEEG_Images\0766.jpg	NY	Right	Yes	0.793050099979155	0	620166	253
1212.044921875	0	taste	response	3	159	39	foodImage.76	FOODEEG_Images\0766.jpg	NY	Right	Yes	0.793050099979155	0	620568	235
1213.087890625	1	taste	trialStart	3	160	40	foodImage.13	FOODEEG_Images\0183.jpg	NY	Right	Yes	1.35822399996687	0	621102	251
1214.12890625	2	taste	foodImageDisplay	3	160	40	foodImage.13	FOODEEG_Images\0183.jpg	NY	Right	Yes	1.35822399996687	0	621635	252
1216.19140625	1.35822399996687	taste	choicePhaseStart	3	160	40	foodImage.13	FOODEEG_Images\0183.jpg	NY	Right	Yes	1.35822399996687	0	622691	253
1217.541015625	0	taste	response	3	160	40	foodImage.13	FOODEEG_Images\0183.jpg	NY	Right	Yes	1.35822399996687	0	623382	235
1218.583984375	1	decision	trialStart	3	161	41	foodImage.76	FOODEEG_Images\0766.jpg	YN	Left	Yes	0.466041999985464	0	623916	251
1219.62890625	2	decision	foodImageDisplay	3	161	41	foodImage.76	FOODEEG_Images\0766.jpg	YN	Left	Yes	0.466041999985464	0	624451	252
1221.689453125	0.466041999985464	decision	choicePhaseStart	3	161	41	foodImage.76	FOODEEG_Images\0766.jpg	YN	Left	Yes	0.466041999985464	0	625506	253
1222.1484375	0	decision	response	3	161	41	foodImage.76	FOODEEG_Images\0766.jpg	YN	Left	Yes	0.466041999985464	0	625741	234
1223.19140625	1	decision	trialStart	3	162	42	foodImage.109	FOODEEG_Images\0917.jpg	YN	Right	No	0.679844500031322	0	626275	251
1224.23046875	2	decision	foodImageDisplay	3	162	42	foodImage.109	FOODEEG_Images\0917.jpg	YN	Right	No	0.679844500031322	0	626807	252
1226.291015625	0.679844500031322	decision	choicePhaseStart	3	162	42	foodImage.109	FOODEEG_Images\0917.jpg	YN	Right	No	0.679844500031322	0	627862	253
1226.96484375	0	decision	response	3	162	42	foodImage.109	FOODEEG_Images\0917.jpg	YN	Right	No	0.679844500031322	0	628207	235
1228.005859375	1	health	trialStart	3	163	43	foodImage.57	FOODEEG_Images\0587.jpg	NY	Right	Yes	0.686169199994765	0	628740	251
1229.046875	2	health	foodImageDisplay	3	163	43	foodImage.57	FOODEEG_Images\0587.jpg	NY	Right	Yes	0.686169199994765	0	629273	252
1231.111328125	0.686169199994765	health	choicePhaseStart	3	163	43	foodImage.57	FOODEEG_Images\0587.jpg	NY	Right	Yes	0.686169199994765	0	630330	253
1231.7890625	0	health	response	3	163	43	foodImage.57	FOODEEG_Images\0587.jpg	NY	Right	Yes	0.686169199994765	0	630677	235
1232.83203125	1	health	trialStart	3	164	44	foodImage.21	FOODEEG_Images\0234.jpg	YN	Left	Yes	0.695651800022461	0	631211	251
1233.88671875	2	health	foodImageDisplay	3	164	44	foodImage.21	FOODEEG_Images\0234.jpg	YN	Left	Yes	0.695651800022461	0	631751	252
1235.94921875	0.695651800022461	health	choicePhaseStart	3	164	44	foodImage.21	FOODEEG_Images\0234.jpg	YN	Left	Yes	0.695651800022461	0	632807	253
1236.634765625	0	health	response	3	164	44	foodImage.21	FOODEEG_Images\0234.jpg	YN	Left	Yes	0.695651800022461	0	633158	234
1237.6796875	1	taste	trialStart	3	165	45	foodImage.24	FOODEEG_Images\0250.jpg	YN	Left	Yes	2.1396112999646	0	633693	251
1238.72265625	2	taste	foodImageDisplay	3	165	45	foodImage.24	FOODEEG_Images\0250.jpg	YN	Left	Yes	2.1396112999646	0	634227	252
1240.78515625	2.1396112999646	taste	choicePhaseStart	3	165	45	foodImage.24	FOODEEG_Images\0250.jpg	YN	Left	Yes	2.1396112999646	0	635283	253
1242.916015625	0	taste	response	3	165	45	foodImage.24	FOODEEG_Images\0250.jpg	YN	Left	Yes	2.1396112999646	0	636374	234
1243.958984375	1	decision	trialStart	3	166	46	foodImage.21	FOODEEG_Images\0234.jpg	NY	Right	Yes	1.93577280000318	0	636908	251
1245.015625	2	decision	foodImageDisplay	3	166	46	foodImage.21	FOODEEG_Images\0234.jpg	NY	Right	Yes	1.93577280000318	0	637449	252
1247.078125	1.93577280000318	decision	choicePhaseStart	3	166	46	foodImage.21	FOODEEG_Images\0234.jpg	NY	Right	Yes	1.93577280000318	0	638505	253
1249.00390625	0	decision	response	3	166	46	foodImage.21	FOODEEG_Images\0234.jpg	NY	Right	Yes	1.93577280000318	0	639491	235
1250.046875	1	decision	trialStart	3	167	47	foodImage.50	FOODEEG_Images\0529.jpg	YN	Left	Yes	0.530194799997844	0	640025	251
1251.1015625	2	decision	foodImageDisplay	3	167	47	foodImage.50	FOODEEG_Images\0529.jpg	YN	Left	Yes	0.530194799997844	0	640565	252
1253.162109375	0.530194799997844	decision	choicePhaseStart	3	167	47	foodImage.50	FOODEEG_Images\0529.jpg	YN	Left	Yes	0.530194799997844	0	641620	253
1253.68359375	0	decision	response	3	167	47	foodImage.50	FOODEEG_Images\0529.jpg	YN	Left	Yes	0.530194799997844	0	641887	234
1254.7265625	1	health	trialStart	3	168	48	foodImage.1	FOODEEG_Images\0004.jpg	YN	Left	Yes	0.701574299950153	0	642421	251
1255.767578125	2	health	foodImageDisplay	3	168	48	foodImage.1	FOODEEG_Images\0004.jpg	YN	Left	Yes	0.701574299950153	0	642954	252
1257.830078125	0.701574299950153	health	choicePhaseStart	3	168	48	foodImage.1	FOODEEG_Images\0004.jpg	YN	Left	Yes	0.701574299950153	0	644010	253
1258.5234375	0	health	response	3	168	48	foodImage.1	FOODEEG_Images\0004.jpg	YN	Left	Yes	0.701574299950153	0	644365	234
1259.56640625	1	health	trialStart	3	169	49	foodImage.112	FOODEEG_Images\0920.jpg	NY	Left	No	0.951736200018786	0	644899	251
1260.60546875	2	health	foodImageDisplay	3	169	49	foodImage.112	FOODEEG_Images\0920.jpg	NY	Left	No	0.951736200018786	0	645431	252
1262.66796875	0.951736200018786	health	choicePhaseStart	3	169	49	foodImage.112	FOODEEG_Images\0920.jpg	NY	Left	No	0.951736200018786	0	646487	253
1263.611328125	0	health	response	3	169	49	foodImage.112	FOODEEG_Images\0920.jpg	NY	Left	No	0.951736200018786	0	646970	234
1264.654296875	1	decision	trialStart	3	170	50	foodImage.12	FOODEEG_Images\0181.jpg	YN	Left	Yes	0.685334000037983	0	647504	251
1265.6953125	2	decision	foodImageDisplay	3	170	50	foodImage.12	FOODEEG_Images\0181.jpg	YN	Left	Yes	0.685334000037983	0	648037	252
1267.7578125	0.685334000037983	decision	choicePhaseStart	3	170	50	foodImage.12	FOODEEG_Images\0181.jpg	YN	Left	Yes	0.685334000037983	0	649093	253
1268.435546875	0	decision	response	3	170	50	foodImage.12	FOODEEG_Images\0181.jpg	YN	Left	Yes	0.685334000037983	0	649440	234
1269.478515625	1	taste	trialStart	3	171	51	foodImage.9	FOODEEG_Images\0138.jpg	NY	Right	Yes	0.783853900036775	0	649974	251
1270.533203125	2	taste	foodImageDisplay	3	171	51	foodImage.9	FOODEEG_Images\0138.jpg	NY	Right	Yes	0.783853900036775	0	650514	252
1272.595703125	0.783853900036775	taste	choicePhaseStart	3	171	51	foodImage.9	FOODEEG_Images\0138.jpg	NY	Right	Yes	0.783853900036775	0	651570	253
1273.37109375	0	taste	response	3	171	51	foodImage.9	FOODEEG_Images\0138.jpg	NY	Right	Yes	0.783853900036775	0	651967	235
1274.41796875	1	health	trialStart	3	172	52	foodImage.76	FOODEEG_Images\0766.jpg	YN	Left	Yes	0.635461500030942	0	652503	251
1275.462890625	2	health	foodImageDisplay	3	172	52	foodImage.76	FOODEEG_Images\0766.jpg	YN	Left	Yes	0.635461500030942	0	653038	252
1277.52734375	0.635461500030942	health	choicePhaseStart	3	172	52	foodImage.76	FOODEEG_Images\0766.jpg	YN	Left	Yes	0.635461500030942	0	654095	253
1278.154296875	0	health	response	3	172	52	foodImage.76	FOODEEG_Images\0766.jpg	YN	Left	Yes	0.635461500030942	0	654416	234
1279.1953125	1	decision	trialStart	3	173	53	foodImage.29	FOODEEG_Images\0278.jpg	NY	Right	Yes	1.04973199998494	0	654949	251
1280.234375	2	decision	foodImageDisplay	3	173	53	foodImage.29	FOODEEG_Images\0278.jpg	NY	Right	Yes	1.04973199998494	0	655481	252
1282.296875	1.04973199998494	decision	choicePhaseStart	3	173	53	foodImage.29	FOODEEG_Images\0278.jpg	NY	Right	Yes	1.04973199998494	0	656537	253
1283.337890625	0	decision	response	3	173	53	foodImage.29	FOODEEG_Images\0278.jpg	NY	Right	Yes	1.04973199998494	0	657070	235
1284.380859375	1	decision	trialStart	3	174	54	foodImage.39	FOODEEG_Images\0367.jpg	NY	Right	Yes	1.77687880001031	0	657604	251
1285.419921875	2	decision	foodImageDisplay	3	174	54	foodImage.39	FOODEEG_Images\0367.jpg	NY	Right	Yes	1.77687880001031	0	658136	252
1287.482421875	1.77687880001031	decision	choicePhaseStart	3	174	54	foodImage.39	FOODEEG_Images\0367.jpg	NY	Right	Yes	1.77687880001031	0	659192	253
1289.25	0	decision	response	3	174	54	foodImage.39	FOODEEG_Images\0367.jpg	NY	Right	Yes	1.77687880001031	0	660097	235
1290.296875	1	health	trialStart	3	175	55	foodImage.14	FOODEEG_Images\0188.jpg	YN	Right	No	0.859733699937351	0	660633	251
1291.353515625	2	health	foodImageDisplay	3	175	55	foodImage.14	FOODEEG_Images\0188.jpg	YN	Right	No	0.859733699937351	0	661174	252
1293.416015625	0.859733699937351	health	choicePhaseStart	3	175	55	foodImage.14	FOODEEG_Images\0188.jpg	YN	Right	No	0.859733699937351	0	662230	253
1294.265625	0	health	response	3	175	55	foodImage.14	FOODEEG_Images\0188.jpg	YN	Right	No	0.859733699937351	0	662665	235
1295.30859375	1	health	trialStart	3	176	56	foodImage.64	FOODEEG_Images\0647.jpg	YN	Left	Yes	1.01444410008844	0	663199	251
1296.36328125	2	health	foodImageDisplay	3	176	56	foodImage.64	FOODEEG_Images\0647.jpg	YN	Left	Yes	1.01444410008844	0	663739	252
1298.4296875	1.01444410008844	health	choicePhaseStart	3	176	56	foodImage.64	FOODEEG_Images\0647.jpg	YN	Left	Yes	1.01444410008844	0	664797	253
1299.43359375	0	health	response	3	176	56	foodImage.64	FOODEEG_Images\0647.jpg	YN	Left	Yes	1.01444410008844	0	665311	234
1300.474609375	1	health	trialStart	3	177	57	foodImage.93	FOODEEG_Images\0901.jpg	NY	Left	No	0.835187799995765	0	665844	251
1301.513671875	2	health	foodImageDisplay	3	177	57	foodImage.93	FOODEEG_Images\0901.jpg	NY	Left	No	0.835187799995765	0	666376	252
1303.576171875	0.835187799995765	health	choicePhaseStart	3	177	57	foodImage.93	FOODEEG_Images\0901.jpg	NY	Left	No	0.835187799995765	0	667432	253
1304.40234375	0	health	response	3	177	57	foodImage.93	FOODEEG_Images\0901.jpg	NY	Left	No	0.835187799995765	0	667855	234
1305.443359375	1	taste	trialStart	3	178	58	foodImage.38	FOODEEG_Images\0365.jpg	YN	Left	Yes	0.815450699999928	0	668388	251
1306.4921875	2	taste	foodImageDisplay	3	178	58	foodImage.38	FOODEEG_Images\0365.jpg	YN	Left	Yes	0.815450699999928	0	668925	252
1308.5546875	0.815450699999928	taste	choicePhaseStart	3	178	58	foodImage.38	FOODEEG_Images\0365.jpg	YN	Left	Yes	0.815450699999928	0	669981	253
1309.361328125	0	taste	response	3	178	58	foodImage.38	FOODEEG_Images\0365.jpg	YN	Left	Yes	0.815450699999928	0	670394	234
1310.40234375	1	taste	trialStart	3	179	59	foodImage.115	FOODEEG_Images\0923.jpg	NY	Left	No	1.13868950004689	0	670927	251
1311.447265625	2	taste	foodImageDisplay	3	179	59	foodImage.115	FOODEEG_Images\0923.jpg	NY	Left	No	1.13868950004689	0	671462	252
1313.509765625	1.13868950004689	taste	choicePhaseStart	3	179	59	foodImage.115	FOODEEG_Images\0923.jpg	NY	Left	No	1.13868950004689	0	672518	253
1314.640625	0	taste	response	3	179	59	foodImage.115	FOODEEG_Images\0923.jpg	NY	Left	No	1.13868950004689	0	673097	234
1315.68359375	1	decision	trialStart	3	180	60	foodImage.45	FOODEEG_Images\0478.jpg	NY	Right	Yes	0.949758999980986	0	673631	251
1316.73046875	2	decision	foodImageDisplay	3	180	60	foodImage.45	FOODEEG_Images\0478.jpg	NY	Right	Yes	0.949758999980986	0	674167	252
1318.796875	0.949758999980986	decision	choicePhaseStart	3	180	60	foodImage.45	FOODEEG_Images\0478.jpg	NY	Right	Yes	0.949758999980986	0	675225	253
1319.736328125	0	decision	response	3	180	60	foodImage.45	FOODEEG_Images\0478.jpg	NY	Right	Yes	0.949758999980986	0	675706	235
1321.779296875	60.21484375	n/a	blockEnd	n/a	n/a	n/a	n/a	n/a	n/a	n/a	n/a	n/a	n/a	676752	254
1381.994140625	2	n/a	blockStart	4	n/a	n/a	n/a	n/a	n/a	n/a	n/a	n/a	n/a	707582	250
1384.029296875	1	health	trialStart	4	181	1	foodImage.63	FOODEEG_Images\0645.jpg	NY	Left	No	0.760215000016615	0	708624	251
1385.0703125	2	health	foodImageDisplay	4	181	1	foodImage.63	FOODEEG_Images\0645.jpg	NY	Left	No	0.760215000016615	0	709157	252
1387.134765625	0.760215000016615	health	choicePhaseStart	4	181	1	foodImage.63	FOODEEG_Images\0645.jpg	NY	Left	No	0.760215000016615	0	710214	253
1387.88671875	0	health	response	4	181	1	foodImage.63	FOODEEG_Images\0645.jpg	NY	Left	No	0.760215000016615	0	710599	234
1388.9453125	1	health	trialStart	4	182	2	foodImage.86	FOODEEG_Images\0844.jpg	YN	Right	No	0.821764099993743	0	711141	251
1390.001953125	2	health	foodImageDisplay	4	182	2	foodImage.86	FOODEEG_Images\0844.jpg	YN	Right	No	0.821764099993743	0	711682	252
1392.064453125	0.821764099993743	health	choicePhaseStart	4	182	2	foodImage.86	FOODEEG_Images\0844.jpg	YN	Right	No	0.821764099993743	0	712738	253
1392.876953125	0	health	response	4	182	2	foodImage.86	FOODEEG_Images\0844.jpg	YN	Right	No	0.821764099993743	0	713154	235
1393.91796875	1	decision	trialStart	4	183	3	foodImage.46	FOODEEG_Images\0479.jpg	NY	Right	Yes	0.704263699939474	0	713687	251
1394.974609375	2	decision	foodImageDisplay	4	183	3	foodImage.46	FOODEEG_Images\0479.jpg	NY	Right	Yes	0.704263699939474	0	714228	252
1397.037109375	0.704263699939474	decision	choicePhaseStart	4	183	3	foodImage.46	FOODEEG_Images\0479.jpg	NY	Right	Yes	0.704263699939474	0	715284	253
1397.732421875	0	decision	response	4	183	3	foodImage.46	FOODEEG_Images\0479.jpg	NY	Right	Yes	0.704263699939474	0	715640	235
1398.775390625	1	taste	trialStart	4	184	4	foodImage.45	FOODEEG_Images\0478.jpg	NY	Right	Yes	0.684308300027624	0	716174	251
1399.818359375	2	taste	foodImageDisplay	4	184	4	foodImage.45	FOODEEG_Images\0478.jpg	NY	Right	Yes	0.684308300027624	0	716708	252
1401.880859375	0.684308300027624	taste	choicePhaseStart	4	184	4	foodImage.45	FOODEEG_Images\0478.jpg	NY	Right	Yes	0.684308300027624	0	717764	253
1402.556640625	0	taste	response	4	184	4	foodImage.45	FOODEEG_Images\0478.jpg	NY	Right	Yes	0.684308300027624	0	718110	235
1403.6015625	1	health	trialStart	4	185	5	foodImage.114	FOODEEG_Images\0922.jpg	YN	Right	No	0.817269199993461	0	718645	251
1404.638671875	2	health	foodImageDisplay	4	185	5	foodImage.114	FOODEEG_Images\0922.jpg	YN	Right	No	0.817269199993461	0	719176	252
1406.701171875	0.817269199993461	health	choicePhaseStart	4	185	5	foodImage.114	FOODEEG_Images\0922.jpg	YN	Right	No	0.817269199993461	0	720232	253
1407.509765625	0	health	response	4	185	5	foodImage.114	FOODEEG_Images\0922.jpg	YN	Right	No	0.817269199993461	0	720646	235
1408.552734375	1	decision	trialStart	4	186	6	foodImage.15	FOODEEG_Images\0189.jpg	YN	Left	Yes	0.707744100014679	0	721180	251
1409.619140625	2	decision	foodImageDisplay	4	186	6	foodImage.15	FOODEEG_Images\0189.jpg	YN	Left	Yes	0.707744100014679	0	721726	252
1411.681640625	0.707744100014679	decision	choicePhaseStart	4	186	6	foodImage.15	FOODEEG_Images\0189.jpg	YN	Left	Yes	0.707744100014679	0	722782	253
1412.380859375	0	decision	response	4	186	6	foodImage.15	FOODEEG_Images\0189.jpg	YN	Left	Yes	0.707744100014679	0	723140	234
1413.423828125	1	taste	trialStart	4	187	7	foodImage.7	FOODEEG_Images\0116.jpg	NY	Right	Yes	1.02405679994263	0	723674	251
1414.46484375	2	taste	foodImageDisplay	4	187	7	foodImage.7	FOODEEG_Images\0116.jpg	NY	Right	Yes	1.02405679994263	0	724207	252
1416.525390625	1.02405679994263	taste	choicePhaseStart	4	187	7	foodImage.7	FOODEEG_Images\0116.jpg	NY	Right	Yes	1.02405679994263	0	725262	253
1417.541015625	0	taste	response	4	187	7	foodImage.7	FOODEEG_Images\0116.jpg	NY	Right	Yes	1.02405679994263	0	725782	235
1418.58984375	1	taste	trialStart	4	188	8	foodImage.35	FOODEEG_Images\0350.jpg	NY	Right	Yes	1.30698340001982	0	726319	251
1419.626953125	2	taste	foodImageDisplay	4	188	8	foodImage.35	FOODEEG_Images\0350.jpg	NY	Right	Yes	1.30698340001982	0	726850	252
1421.689453125	1.30698340001982	taste	choicePhaseStart	4	188	8	foodImage.35	FOODEEG_Images\0350.jpg	NY	Right	Yes	1.30698340001982	0	727906	253
1422.98828125	0	taste	response	4	188	8	foodImage.35	FOODEEG_Images\0350.jpg	NY	Right	Yes	1.30698340001982	0	728571	235
1424.029296875	1	health	trialStart	4	189	9	foodImage.17	FOODEEG_Images\0199.jpg	YN	Left	Yes	0.916279899887741	0	729104	251
1425.076171875	2	health	foodImageDisplay	4	189	9	foodImage.17	FOODEEG_Images\0199.jpg	YN	Left	Yes	0.916279899887741	0	729640	252
1427.138671875	0.916279899887741	health	choicePhaseStart	4	189	9	foodImage.17	FOODEEG_Images\0199.jpg	YN	Left	Yes	0.916279899887741	0	730696	253
1428.044921875	0	health	response	4	189	9	foodImage.17	FOODEEG_Images\0199.jpg	YN	Left	Yes	0.916279899887741	0	731160	234
1429.08984375	1	decision	trialStart	4	190	10	foodImage.111	FOODEEG_Images\0919.jpg	NY	Left	No	1.09809820004739	0	731695	251
1430.126953125	2	decision	foodImageDisplay	4	190	10	foodImage.111	FOODEEG_Images\0919.jpg	NY	Left	No	1.09809820004739	0	732226	252
1432.1953125	1.09809820004739	decision	choicePhaseStart	4	190	10	foodImage.111	FOODEEG_Images\0919.jpg	NY	Left	No	1.09809820004739	0	733285	253
1433.28515625	0	decision	response	4	190	10	foodImage.111	FOODEEG_Images\0919.jpg	NY	Left	No	1.09809820004739	0	733843	234
1434.328125	1	decision	trialStart	4	191	11	foodImage.71	FOODEEG_Images\0713.jpg	YN	Left	Yes	0.928493399987929	0	734377	251
1435.369140625	2	decision	foodImageDisplay	4	191	11	foodImage.71	FOODEEG_Images\0713.jpg	YN	Left	Yes	0.928493399987929	0	734910	252
1437.4375	0.928493399987929	decision	choicePhaseStart	4	191	11	foodImage.71	FOODEEG_Images\0713.jpg	YN	Left	Yes	0.928493399987929	0	735969	253
1438.35546875	0	decision	response	4	191	11	foodImage.71	FOODEEG_Images\0713.jpg	YN	Left	Yes	0.928493399987929	0	736439	234
1439.3984375	1	taste	trialStart	4	192	12	foodImage.31	FOODEEG_Images\0294.jpg	YN	Left	Yes	0.780734499916434	0	736973	251
1440.44140625	2	taste	foodImageDisplay	4	192	12	foodImage.31	FOODEEG_Images\0294.jpg	YN	Left	Yes	0.780734499916434	0	737507	252
1442.50390625	0.780734499916434	taste	choicePhaseStart	4	192	12	foodImage.31	FOODEEG_Images\0294.jpg	YN	Left	Yes	0.780734499916434	0	738563	253
1443.275390625	0	taste	response	4	192	12	foodImage.31	FOODEEG_Images\0294.jpg	YN	Left	Yes	0.780734499916434	0	738958	234
1444.3203125	1	decision	trialStart	4	193	13	foodImage.102	FOODEEG_Images\0910.jpg	YN	Right	No	0.73616430000402	0	739493	251
1445.359375	2	decision	foodImageDisplay	4	193	13	foodImage.102	FOODEEG_Images\0910.jpg	YN	Right	No	0.73616430000402	0	740025	252
1447.419921875	0.73616430000402	decision	choicePhaseStart	4	193	13	foodImage.102	FOODEEG_Images\0910.jpg	YN	Right	No	0.73616430000402	0	741080	253
1448.1484375	0	decision	response	4	193	13	foodImage.102	FOODEEG_Images\0910.jpg	YN	Right	No	0.73616430000402	0	741453	235
1449.189453125	1	decision	trialStart	4	194	14	foodImage.43	FOODEEG_Images\0445.jpg	NY	Right	Yes	1.84851130004972	0	741986	251
1450.24609375	2	decision	foodImageDisplay	4	194	14	foodImage.43	FOODEEG_Images\0445.jpg	NY	Right	Yes	1.84851130004972	0	742527	252
