onset	duration	trial_type	event_type	block	trial_total	trial_in_block	food_image_code	food_image_path	button_position	resp_position	resp_choice	choice_rt	resp_too_slow	sample	trigger
331.0625	2	n/a	blockStart	1	n/a	n/a	n/a	n/a	n/a	n/a	n/a	n/a	n/a	169505	250
333.099609375	1	decision	trialStart	1	1	1	foodImage.37	FOODEEG_Images\0359.jpg	YN	Right	No	0.873088499996811	0	170548	251
334.1484375	2	decision	foodImageDisplay	1	1	1	foodImage.37	FOODEEG_Images\0359.jpg	YN	Right	No	0.873088499996811	0	171085	252
336.21484375	0.873088499996811	decision	choicePhaseStart	1	1	1	foodImage.37	FOODEEG_Images\0359.jpg	YN	Right	No	0.873088499996811	0	172143	253
337.080078125	0	decision	response	1	1	1	foodImage.37	FOODEEG_Images\0359.jpg	YN	Right	No	0.873088499996811	0	172586	235
338.193359375	1	decision	trialStart	1	2	2	foodImage.89	FOODEEG_Images\0881.jpg	YN	Left	Yes	1.39806330017745	0	173156	251
339.251953125	2	decision	foodImageDisplay	1	2	2	foodImage.89	FOODEEG_Images\0881.jpg	YN	Left	Yes	1.39806330017745	0	173698	252
341.314453125	1.39806330017745	decision	choicePhaseStart	1	2	2	foodImage.89	FOODEEG_Images\0881.jpg	YN	Left	Yes	1.39806330017745	0	174754	253
342.703125	0	decision	response	1	2	2	foodImage.89	FOODEEG_Images\0881.jpg	YN	Left	Yes	1.39806330017745	0	175465	234
343.755859375	1	health	trialStart	1	3	3	foodImage.58	FOODEEG_Images\0605.jpg	YN	Right	No	0.967964499955997	0	176004	251
344.81640625	2	health	foodImageDisplay	1	3	3	foodImage.58	FOODEEG_Images\0605.jpg	YN	Right	No	0.967964499955997	0	176547	252
346.87890625	0.967964499955997	health	choicePhaseStart	1	3	3	foodImage.58	FOODEEG_Images\0605.jpg	YN	Right	No	0.967964499955997	0	177603	253
347.83984375	0	health	response	1	3	3	foodImage.58	FOODEEG_Images\0605.jpg	YN	Right	No	0.967964499955997	0	178095	235
348.8828125	1	taste	trialStart	1	4	4	foodImage.8	FOODEEG_Images\0136.jpg	NY	Left	No	0.720040200045332	0	178629	251
349.92578125	2	taste	foodImageDisplay	1	4	4	foodImage.8	FOODEEG_Images\0136.jpg	NY	Left	No	0.720040200045332	0	179163	252
351.9921875	0.720040200045332	taste	choicePhaseStart	1	4	4	foodImage.8	FOODEEG_Images\0136.jpg	NY	Left	No	0.720040200045332	0	180221	253
352.703125	0	taste	response	1	4	4	foodImage.8	FOODEEG_Images\0136.jpg	NY	Left	No	0.720040200045332	0	180585	234
353.748046875	1	health	trialStart	1	5	5	foodImage.83	FOODEEG_Images\0827.jpg	YN	Left	Yes	0.677946500014514	0	181120	251
354.80859375	2	health	foodImageDisplay	1	5	5	foodImage.83	FOODEEG_Images\0827.jpg	YN	Left	Yes	0.677946500014514	0	181663	252
356.87890625	0.677946500014514	health	choicePhaseStart	1	5	5	foodImage.83	FOODEEG_Images\0827.jpg	YN	Left	Yes	0.677946500014514	0	182723	253
357.55078125	0	health	response	1	5	5	foodImage.83	FOODEEG_Images\0827.jpg	YN	Left	Yes	0.677946500014514	0	183067	234
358.6015625	1	health	trialStart	1	6	6	foodImage.100	FOODEEG_Images\0908.jpg	NY	Right	Yes	1.46692239982076	0	183605	251
359.642578125	2	health	foodImageDisplay	1	6	6	foodImage.100	FOODEEG_Images\0908.jpg	NY	Right	Yes	1.46692239982076	0	184138	252
361.708984375	1.46692239982076	health	choicePhaseStart	1	6	6	foodImage.100	FOODEEG_Images\0908.jpg	NY	Right	Yes	1.46692239982076	0	185196	253
363.166015625	0	health	response	1	6	6	foodImage.100	FOODEEG_Images\0908.jpg	NY	Right	Yes	1.46692239982076	0	185942	235
364.20703125	1	decision	trialStart	1	7	7	foodImage.63	FOODEEG_Images\0645.jpg	NY	Right	Yes	0.926227899966761	0	186475	251
365.248046875	2	decision	foodImageDisplay	1	7	7	foodImage.63	FOODEEG_Images\0645.jpg	NY	Right	Yes	0.926227899966761	0	187008	252
367.3125	0.926227899966761	decision	choicePhaseStart	1	7	7	foodImage.63	FOODEEG_Images\0645.jpg	NY	Right	Yes	0.926227899966761	0	188065	253
368.23046875	0	decision	response	1	7	7	foodImage.63	FOODEEG_Images\0645.jpg	NY	Right	Yes	0.926227899966761	0	188535	235
369.2734375	1	health	trialStart	1	8	8	foodImage.3	FOODEEG_Images\0046.jpg	NY	Left	No	0.691296399803832	0	189069	251
370.314453125	2	health	foodImageDisplay	1	8	8	foodImage.3	FOODEEG_Images\0046.jpg	NY	Left	No	0.691296399803832	0	189602	252
372.37890625	0.691296399803832	health	choicePhaseStart	1	8	8	foodImage.3	FOODEEG_Images\0046.jpg	NY	Left	No	0.691296399803832	0	190659	253
373.0625	0	health	response	1	8	8	foodImage.3	FOODEEG_Images\0046.jpg	NY	Left	No	0.691296399803832	0	191009	234
374.10546875	1	decision	trialStart	1	9	9	foodImage.113	FOODEEG_Images\0921.jpg	YN	Left	Yes	0.692083399975672	0	191543	251
375.150390625	2	decision	foodImageDisplay	1	9	9	foodImage.113	FOODEEG_Images\0921.jpg	YN	Left	Yes	0.692083399975672	0	192078	252
377.22265625	0.692083399975672	decision	choicePhaseStart	1	9	9	foodImage.113	FOODEEG_Images\0921.jpg	YN	Left	Yes	0.692083399975672	0	193139	253
377.91015625	0	decision	response	1	9	9	foodImage.113	FOODEEG_Images\0921.jpg	YN	Left	Yes	0.692083399975672	0	193491	234
378.955078125	1	decision	trialStart	1	10	10	foodImage.105	FOODEEG_Images\0913.jpg	NY	Left	No	0.747420499799773	0	194026	251
379.994140625	2	decision	foodImageDisplay	1	10	10	foodImage.105	FOODEEG_Images\0913.jpg	NY	Left	No	0.747420499799773	0	194558	252
382.056640625	0.747420499799773	decision	choicePhaseStart	1	10	10	foodImage.105	FOODEEG_Images\0913.jpg	NY	Left	No	0.747420499799773	0	195614	253
382.796875	0	decision	response	1	10	10	foodImage.105	FOODEEG_Images\0913.jpg	NY	Left	No	0.747420499799773	0	195993	234
383.84375	1	taste	trialStart	1	11	11	foodImage.109	FOODEEG_Images\0917.jpg	NY	Left	No	0.640514299971983	0	196529	251
384.8828125	2	taste	foodImageDisplay	1	11	11	foodImage.109	FOODEEG_Images\0917.jpg	NY	Left	No	0.640514299971983	0	197061	252
386.947265625	0.640514299971983	taste	choicePhaseStart	1	11	11	foodImage.109	FOODEEG_Images\0917.jpg	NY	Left	No	0.640514299971983	0	198118	253
387.580078125	0	taste	response	1	11	11	foodImage.109	FOODEEG_Images\0917.jpg	NY	Left	No	0.640514299971983	0	198442	234
388.6328125	1	decision	trialStart	1	12	12	foodImage.77	FOODEEG_Images\0771.jpg	YN	Left	Yes	1.168804399902	0	198981	251
389.6796875	2	decision	foodImageDisplay	1	12	12	foodImage.77	FOODEEG_Images\0771.jpg	YN	Left	Yes	1.168804399902	0	199517	252
391.75	1.168804399902	decision	choicePhaseStart	1	12	12	foodImage.77	FOODEEG_Images\0771.jpg	YN	Left	Yes	1.168804399902	0	200577	253
392.908203125	0	decision	response	1	12	12	foodImage.77	FOODEEG_Images\0771.jpg	YN	Left	Yes	1.168804399902	0	201170	234
393.953125	1	decision	trialStart	1	13	13	foodImage.56	FOODEEG_Images\0586.jpg	NY	Right	Yes	0.819344599964097	0	201705	251
394.994140625	2	decision	foodImageDisplay	1	13	13	foodImage.56	FOODEEG_Images\0586.jpg	NY	Right	Yes	0.819344599964097	0	202238	252
397.05859375	0.819344599964097	decision	choicePhaseStart	1	13	13	foodImage.56	FOODEEG_Images\0586.jpg	NY	Right	Yes	0.819344599964097	0	203295	253
397.869140625	0	decision	response	1	13	13	foodImage.56	FOODEEG_Images\0586.jpg	NY	Right	Yes	0.819344599964097	0	203710	235
398.912109375	1	taste	trialStart	1	14	14	foodImage.63	FOODEEG_Images\0645.jpg	NY	Right	Yes	0.675625800155103	0	204244	251
399.953125	2	taste	foodImageDisplay	1	14	14	foodImage.63	FOODEEG_Images\0645.jpg	NY	Right	Yes	0.675625800155103	0	204777	252
402.017578125	0.675625800155103	taste	choicePhaseStart	1	14	14	foodImage.63	FOODEEG_Images\0645.jpg	NY	Right	Yes	0.675625800155103	0	205834	253
402.68359375	0	taste	response	1	14	14	foodImage.63	FOODEEG_Images\0645.jpg	NY	Right	Yes	0.675625800155103	0	206175	235
403.728515625	1	decision	trialStart	1	15	15	foodImage.55	FOODEEG_Images\0567.jpg	YN	Left	Yes	0.830385899869725	0	206710	251
404.80078125	2	decision	foodImageDisplay	1	15	15	foodImage.55	FOODEEG_Images\0567.jpg	YN	Left	Yes	0.830385899869725	0	207259	252
406.86328125	0.830385899869725	decision	choicePhaseStart	1	15	15	foodImage.55	FOODEEG_Images\0567.jpg	YN	Left	Yes	0.830385899869725	0	208315	253
407.68359375	0	decision	response	1	15	15	foodImage.55	FOODEEG_Images\0567.jpg	YN	Left	Yes	0.830385899869725	0	208735	234
408.7265625	1	health	trialStart	1	16	16	foodImage.90	FOODEEG_Images\0890.jpg	NY	Right	Yes	1.270173399942	0	209269	251
409.798828125	2	health	foodImageDisplay	1	16	16	foodImage.90	FOODEEG_Images\0890.jpg	NY	Right	Yes	1.270173399942	0	209818	252
411.875	1.270173399942	health	choicePhaseStart	1	16	16	foodImage.90	FOODEEG_Images\0890.jpg	NY	Right	Yes	1.270173399942	0	210881	253
413.140625	0	health	response	1	16	16	foodImage.90	FOODEEG_Images\0890.jpg	NY	Right	Yes	1.270173399942	0	211529	235
414.181640625	1	health	trialStart	1	17	17	foodImage.25	FOODEEG_Images\0261.jpg	YN	Left	Yes	1.04587789997458	0	212062	251
415.22265625	2	health	foodImageDisplay	1	17	17	foodImage.25	FOODEEG_Images\0261.jpg	YN	Left	Yes	1.04587789997458	0	212595	252
417.287109375	1.04587789997458	health	choicePhaseStart	1	17	17	foodImage.25	FOODEEG_Images\0261.jpg	YN	Left	Yes	1.04587789997458	0	213652	253
418.32421875	0	health	response	1	17	17	foodImage.25	FOODEEG_Images\0261.jpg	YN	Left	Yes	1.04587789997458	0	214183	234
419.3671875	1	taste	trialStart	1	18	18	foodImage.52	FOODEEG_Images\0539.jpg	YN	Left	Yes	0.707342999987304	0	214717	251
420.42578125	2	taste	foodImageDisplay	1	18	18	foodImage.52	FOODEEG_Images\0539.jpg	YN	Left	Yes	0.707342999987304	0	215259	252
422.490234375	0.707342999987304	taste	choicePhaseStart	1	18	18	foodImage.52	FOODEEG_Images\0539.jpg	YN	Left	Yes	0.707342999987304	0	216316	253
423.1875	0	taste	response	1	18	18	foodImage.52	FOODEEG_Images\0539.jpg	YN	Left	Yes	0.707342999987304	0	216673	234
424.23046875	1	decision	trialStart	1	19	19	foodImage.92	FOODEEG_Images\0900.jpg	NY	Left	No	1.00600409996696	0	217207	251
425.271484375	2	decision	foodImageDisplay	1	19	19	foodImage.92	FOODEEG_Images\0900.jpg	NY	Left	No	1.00600409996696	0	217740	252
427.333984375	1.00600409996696	decision	choicePhaseStart	1	19	19	foodImage.92	FOODEEG_Images\0900.jpg	NY	Left	No	1.00600409996696	0	218796	253
428.33203125	0	decision	response	1	19	19	foodImage.92	FOODEEG_Images\0900.jpg	NY	Left	No	1.00600409996696	0	219307	234
429.375	1	decision	trialStart	1	20	20	foodImage.18	FOODEEG_Images\0202.jpg	NY	Right	Yes	6.01901140017435	1	219841	251
430.43359375	2	decision	foodImageDisplay	1	20	20	foodImage.18	FOODEEG_Images\0202.jpg	NY	Right	Yes	6.01901140017435	1	220383	252
432.498046875	6.01901140017435	decision	choicePhaseStart	1	20	20	foodImage.18	FOODEEG_Images\0202.jpg	NY	Right	Yes	6.01901140017435	1	221440	253
438.505859375	0	decision	response	1	20	20	foodImage.18	FOODEEG_Images\0202.jpg	NY	Right	Yes	6.01901140017435	1	224516	235
439.55078125	1	taste	trialStart	1	21	21	foodImage.112	FOODEEG_Images\0920.jpg	NY	Left	No	0.843872800003737	0	225051	251
440.58984375	2	taste	foodImageDisplay	1	21	21	foodImage.112	FOODEEG_Images\0920.jpg	NY	Left	No	0.843872800003737	0	225583	252
442.65625	0.843872800003737	taste	choicePhaseStart	1	21	21	foodImage.112	FOODEEG_Images\0920.jpg	NY	Left	No	0.843872800003737	0	226641	253
443.490234375	0	taste	response	1	21	21	foodImage.112	FOODEEG_Images\0920.jpg	NY	Left	No	0.843872800003737	0	227068	234
444.533203125	1	taste	trialStart	1	22	22	foodImage.90	FOODEEG_Images\0890.jpg	NY	Right	Yes	1.08336910000071	0	227602	251
445.59375	2	taste	foodImageDisplay	1	22	22	foodImage.90	FOODEEG_Images\0890.jpg	NY	Right	Yes	1.08336910000071	0	228145	252
447.658203125	1.08336910000071	taste	choicePhaseStart	1	22	22	foodImage.90	FOODEEG_Images\0890.jpg	NY	Right	Yes	1.08336910000071	0	229202	253
448.73046875	0	taste	response	1	22	22	foodImage.90	FOODEEG_Images\0890.jpg	NY	Right	Yes	1.08336910000071	0	229751	235
449.7734375	1	decision	trialStart	1	23	23	foodImage.3	FOODEEG_Images\0046.jpg	YN	Left	Yes	1.31706519983709	0	230285	251
450.814453125	2	decision	foodImageDisplay	1	23	23	foodImage.3	FOODEEG_Images\0046.jpg	YN	Left	Yes	1.31706519983709	0	230818	252
452.87890625	1.31706519983709	decision	choicePhaseStart	1	23	23	foodImage.3	FOODEEG_Images\0046.jpg	YN	Left	Yes	1.31706519983709	0	231875	253
454.185546875	0	decision	response	1	23	23	foodImage.3	FOODEEG_Images\0046.jpg	YN	Left	Yes	1.31706519983709	0	232544	234
455.2265625	1	decision	trialStart	1	24	24	foodImage.79	FOODEEG_Images\0794.jpg	YN	Left	Yes	1.2213123999536	0	233077	251
456.26953125	2	decision	foodImageDisplay	1	24	24	foodImage.79	FOODEEG_Images\0794.jpg	YN	Left	Yes	1.2213123999536	0	233611	252
458.333984375	1.2213123999536	decision	choicePhaseStart	1	24	24	foodImage.79	FOODEEG_Images\0794.jpg	YN	Left	Yes	1.2213123999536	0	234668	253
459.546875	0	decision	response	1	24	24	foodImage.79	FOODEEG_Images\0794.jpg	YN	Left	Yes	1.2213123999536	0	235289	234
460.58984375	1	decision	trialStart	1	25	25	foodImage.75	FOODEEG_Images\0763.jpg	NY	Right	Yes	1.20010140002705	0	235823	251
461.634765625	2	decision	foodImageDisplay	1	25	25	foodImage.75	FOODEEG_Images\0763.jpg	NY	Right	Yes	1.20010140002705	0	236358	252
463.69921875	1.20010140002705	decision	choicePhaseStart	1	25	25	foodImage.75	FOODEEG_Images\0763.jpg	NY	Right	Yes	1.20010140002705	0	237415	253
464.890625	0	decision	response	1	25	25	foodImage.75	FOODEEG_Images\0763.jpg	NY	Right	Yes	1.20010140002705	0	238025	235
465.9296875	1	decision	trialStart	1	26	26	foodImage.11	FOODEEG_Images\0180.jpg	NY	Right	Yes	0.610023300163448	0	238557	251
466.970703125	2	decision	foodImageDisplay	1	26	26	foodImage.11	FOODEEG_Images\0180.jpg	NY	Right	Yes	0.610023300163448	0	239090	252
469.033203125	0.610023300163448	decision	choicePhaseStart	1	26	26	foodImage.11	FOODEEG_Images\0180.jpg	NY	Right	Yes	0.610023300163448	0	240146	253
469.634765625	0	decision	response	1	26	26	foodImage.11	FOODEEG_Images\0180.jpg	NY	Right	Yes	0.610023300163448	0	240454	235
470.677734375	1	health	trialStart	1	27	27	foodImage.26	FOODEEG_Images\0262.jpg	YN	Left	Yes	0.849500499898568	0	240988	251
471.71875	2	health	foodImageDisplay	1	27	27	foodImage.26	FOODEEG_Images\0262.jpg	YN	Left	Yes	0.849500499898568	0	241521	252
473.78515625	0.849500499898568	health	choicePhaseStart	1	27	27	foodImage.26	FOODEEG_Images\0262.jpg	YN	Left	Yes	0.849500499898568	0	242579	253
474.625	0	health	response	1	27	27	foodImage.26	FOODEEG_Images\0262.jpg	YN	Left	Yes	0.849500499898568	0	243009	234
475.673828125	1	taste	trialStart	1	28	28	foodImage.49	FOODEEG_Images\0515.jpg	YN	Left	Yes	1.03564839996397	0	243546	251
476.716796875	2	taste	foodImageDisplay	1	28	28	foodImage.49	FOODEEG_Images\0515.jpg	YN	Left	Yes	1.03564839996397	0	244080	252
478.783203125	1.03564839996397	taste	choicePhaseStart	1	28	28	foodImage.49	FOODEEG_Images\0515.jpg	YN	Left	Yes	1.03564839996397	0	245138	253
479.80859375	0	taste	response	1	28	28	foodImage.49	FOODEEG_Images\0515.jpg	YN	Left	Yes	1.03564839996397	0	245663	234
480.853515625	1	decision	trialStart	1	29	29	foodImage.35	FOODEEG_Images\0350.jpg	NY	Right	Yes	0.817846299847588	0	246198	251
481.904296875	2	decision	foodImageDisplay	1	29	29	foodImage.35	FOODEEG_Images\0350.jpg	NY	Right	Yes	0.817846299847588	0	246736	252
483.96875	0.817846299847588	decision	choicePhaseStart	1	29	29	foodImage.35	FOODEEG_Images\0350.jpg	NY	Right	Yes	0.817846299847588	0	247793	253
484.77734375	0	decision	response	1	29	29	foodImage.35	FOODEEG_Images\0350.jpg	NY	Right	Yes	0.817846299847588	0	248207	235
485.8203125	1	health	trialStart	1	30	30	foodImage.4	FOODEEG_Images\0065.jpg	NY	Left	No	0.858777299989015	0	248741	251
486.904296875	2	health	foodImageDisplay	1	30	30	foodImage.4	FOODEEG_Images\0065.jpg	NY	Left	No	0.858777299989015	0	249296	252
488.96875	0.858777299989015	health	choicePhaseStart	1	30	30	foodImage.4	FOODEEG_Images\0065.jpg	NY	Left	No	0.858777299989015	0	250353	253
489.81640625	0	health	response	1	30	30	foodImage.4	FOODEEG_Images\0065.jpg	NY	Left	No	0.858777299989015	0	250787	234
490.859375	1	health	trialStart	1	31	31	foodImage.95	FOODEEG_Images\0903.jpg	YN	Right	No	0.695871100062504	0	251321	251
491.900390625	2	health	foodImageDisplay	1	31	31	foodImage.95	FOODEEG_Images\0903.jpg	YN	Right	No	0.695871100062504	0	251854	252
493.962890625	0.695871100062504	health	choicePhaseStart	1	31	31	foodImage.95	FOODEEG_Images\0903.jpg	YN	Right	No	0.695871100062504	0	252910	253
494.6484375	0	health	response	1	31	31	foodImage.95	FOODEEG_Images\0903.jpg	YN	Right	No	0.695871100062504	0	253261	235
495.69140625	1	decision	trialStart	1	32	32	foodImage.80	FOODEEG_Images\0796.jpg	NY	Right	Yes	0.792947100009769	0	253795	251
496.751953125	2	decision	foodImageDisplay	1	32	32	foodImage.80	FOODEEG_Images\0796.jpg	NY	Right	Yes	0.792947100009769	0	254338	252
498.814453125	0.792947100009769	decision	choicePhaseStart	1	32	32	foodImage.80	FOODEEG_Images\0796.jpg	NY	Right	Yes	0.792947100009769	0	255394	253
499.6015625	0	decision	response	1	32	32	foodImage.80	FOODEEG_Images\0796.jpg	NY	Right	Yes	0.792947100009769	0	255797	235
500.64453125	1	health	trialStart	1	33	33	foodImage.41	FOODEEG_Images\0409.jpg	YN	Left	Yes	1.04501849994995	0	256331	251
501.69140625	2	health	foodImageDisplay	1	33	33	foodImage.41	FOODEEG_Images\0409.jpg	YN	Left	Yes	1.04501849994995	0	256867	252
503.7578125	1.04501849994995	health	choicePhaseStart	1	33	33	foodImage.41	FOODEEG_Images\0409.jpg	YN	Left	Yes	1.04501849994995	0	257925	253
504.79296875	0	health	response	1	33	33	foodImage.41	FOODEEG_Images\0409.jpg	YN	Left	Yes	1.04501849994995	0	258455	234
505.8359375	1	taste	trialStart	1	34	34	foodImage.27	FOODEEG_Images\0263.jpg	YN	Left	Yes	0.908611800055951	0	258989	251
506.87890625	2	taste	foodImageDisplay	1	34	34	foodImage.27	FOODEEG_Images\0263.jpg	YN	Left	Yes	0.908611800055951	0	259523	252
508.94140625	0.908611800055951	taste	choicePhaseStart	1	34	34	foodImage.27	FOODEEG_Images\0263.jpg	YN	Left	Yes	0.908611800055951	0	260579	253
509.83984375	0	taste	response	1	34	34	foodImage.27	FOODEEG_Images\0263.jpg	YN	Left	Yes	0.908611800055951	0	261039	234
510.8828125	1	taste	trialStart	1	35	35	foodImage.69	FOODEEG_Images\0693.jpg	YN	Left	Yes	2.34013749985024	0	261573	251
511.92578125	2	taste	foodImageDisplay	1	35	35	foodImage.69	FOODEEG_Images\0693.jpg	YN	Left	Yes	2.34013749985024	0	262107	252
513.98828125	2.34013749985024	taste	choicePhaseStart	1	35	35	foodImage.69	FOODEEG_Images\0693.jpg	YN	Left	Yes	2.34013749985024	0	263163	253
516.3203125	0	taste	response	1	35	35	foodImage.69	FOODEEG_Images\0693.jpg	YN	Left	Yes	2.34013749985024	0	264357	234
517.359375	1	health	trialStart	1	36	36	foodImage.108	FOODEEG_Images\0916.jpg	NY	Left	No	1.308912999928	0	264889	251
518.3984375	2	health	foodImageDisplay	1	36	36	foodImage.108	FOODEEG_Images\0916.jpg	NY	Left	No	1.308912999928	0	265421	252
520.46875	1.308912999928	health	choicePhaseStart	1	36	36	foodImage.108	FOODEEG_Images\0916.jpg	NY	Left	No	1.308912999928	0	266481	253
521.767578125	0	health	response	1	36	36	foodImage.108	FOODEEG_Images\0916.jpg	NY	Left	No	1.308912999928	0	267146	234
522.8125	1	taste	trialStart	1	37	37	foodImage.16	FOODEEG_Images\0196.jpg	NY	Left	No	1.18828379991464	0	267681	251
523.869140625	2	taste	foodImageDisplay	1	37	37	foodImage.16	FOODEEG_Images\0196.jpg	NY	Left	No	1.18828379991464	0	268222	252
525.93359375	1.18828379991464	taste	choicePhaseStart	1	37	37	foodImage.16	FOODEEG_Images\0196.jpg	NY	Left	No	1.18828379991464	0	269279	253
527.111328125	0	taste	response	1	37	37	foodImage.16	FOODEEG_Images\0196.jpg	NY	Left	No	1.18828379991464	0	269882	234
528.15625	1	health	trialStart	1	38	38	foodImage.60	FOODEEG_Images\0614.jpg	YN	Left	Yes	0.650436699856073	0	270417	251
529.21484375	2	health	foodImageDisplay	1	38	38	foodImage.60	FOODEEG_Images\0614.jpg	YN	Left	Yes	0.650436699856073	0	270959	252
531.279296875	0.650436699856073	health	choicePhaseStart	1	38	38	foodImage.60	FOODEEG_Images\0614.jpg	YN	Left	Yes	0.650436699856073	0	272016	253
531.919921875	0	health	response	1	38	38	foodImage.60	FOODEEG_Images\0614.jpg	YN	Left	Yes	0.650436699856073	0	272344	234
532.96484375	1	decision	trialStart	1	39	39	foodImage.109	FOODEEG_Images\0917.jpg	YN	Right	No	0.75652279984206	0	272879	251
534.00390625	2	decision	foodImageDisplay	1	39	39	foodImage.109	FOODEEG_Images\0917.jpg	YN	Right	No	0.75652279984206	0	273411	252
536.07421875	0.75652279984206	decision	choicePhaseStart	1	39	39	foodImage.109	FOODEEG_Images\0917.jpg	YN	Right	No	0.75652279984206	0	274471	253
536.822265625	0	decision	response	1	39	39	foodImage.109	FOODEEG_Images\0917.jpg	YN	Right	No	0.75652279984206	0	274854	235
537.865234375	1	health	trialStart	1	40	40	foodImage.39	FOODEEG_Images\0367.jpg	NY	Left	No	1.06465299986303	0	275388	251
538.904296875	2	health	foodImageDisplay	1	40	40	foodImage.39	FOODEEG_Images\0367.jpg	NY	Left	No	1.06465299986303	0	275920	252
540.96875	1.06465299986303	health	choicePhaseStart	1	40	40	foodImage.39	FOODEEG_Images\0367.jpg	NY	Left	No	1.06465299986303	0	276977	253
542.0234375	0	health	response	1	40	40	foodImage.39	FOODEEG_Images\0367.jpg	NY	Left	No	1.06465299986303	0	277517	234
543.0625	1	taste	trialStart	1	41	41	foodImage.50	FOODEEG_Images\0529.jpg	NY	Right	Yes	0.832562600029632	0	278049	251
544.119140625	2	taste	foodImageDisplay	1	41	41	foodImage.50	FOODEEG_Images\0529.jpg	NY	Right	Yes	0.832562600029632	0	278590	252
546.18359375	0.832562600029632	taste	choicePhaseStart	1	41	41	foodImage.50	FOODEEG_Images\0529.jpg	NY	Right	Yes	0.832562600029632	0	279647	253
547.005859375	0	taste	response	1	41	41	foodImage.50	FOODEEG_Images\0529.jpg	NY	Right	Yes	0.832562600029632	0	280068	235
548.052734375	1	taste	trialStart	1	42	42	foodImage.21	FOODEEG_Images\0234.jpg	NY	Right	Yes	0.630299099953845	0	280604	251
549.115234375	2	taste	foodImageDisplay	1	42	42	foodImage.21	FOODEEG_Images\0234.jpg	NY	Right	Yes	0.630299099953845	0	281148	252
551.177734375	0.630299099953845	taste	choicePhaseStart	1	42	42	foodImage.21	FOODEEG_Images\0234.jpg	NY	Right	Yes	0.630299099953845	0	282204	253
551.798828125	0	taste	response	1	42	42	foodImage.21	FOODEEG_Images\0234.jpg	NY	Right	Yes	0.630299099953845	0	282522	235
552.841796875	1	health	trialStart	1	43	43	foodImage.81	FOODEEG_Images\0797.jpg	YN	Left	Yes	0.884938299888745	0	283056	251
553.900390625	2	health	foodImageDisplay	1	43	43	foodImage.81	FOODEEG_Images\0797.jpg	YN	Left	Yes	0.884938299888745	0	283598	252
555.962890625	0.884938299888745	health	choicePhaseStart	1	43	43	foodImage.81	FOODEEG_Images\0797.jpg	YN	Left	Yes	0.884938299888745	0	284654	253
556.837890625	0	health	response	1	43	43	foodImage.81	FOODEEG_Images\0797.jpg	YN	Left	Yes	0.884938299888745	0	285102	234
557.88671875	1	decision	trialStart	1	44	44	foodImage.34	FOODEEG_Images\0339.jpg	NY	Left	No	1.21128639997914	0	285639	251
558.94140625	2	decision	foodImageDisplay	1	44	44	foodImage.34	FOODEEG_Images\0339.jpg	NY	Left	No	1.21128639997914	0	286179	252
561.005859375	1.21128639997914	decision	choicePhaseStart	1	44	44	foodImage.34	FOODEEG_Images\0339.jpg	NY	Left	No	1.21128639997914	0	287236	253
562.20703125	0	decision	response	1	44	44	foodImage.34	FOODEEG_Images\0339.jpg	NY	Left	No	1.21128639997914	0	287851	234
563.248046875	1	decision	trialStart	1	45	45	foodImage.31	FOODEEG_Images\0294.jpg	YN	Left	Yes	1.20337300002575	0	288384	251
564.29296875	2	decision	foodImageDisplay	1	45	45	foodImage.31	FOODEEG_Images\0294.jpg	YN	Left	Yes	1.20337300002575	0	288919	252
566.35546875	1.20337300002575	decision	choicePhaseStart	1	45	45	foodImage.31	FOODEEG_Images\0294.jpg	YN	Left	Yes	1.20337300002575	0	289975	253
567.55078125	0	decision	response	1	45	45	foodImage.31	FOODEEG_Images\0294.jpg	YN	Left	Yes	1.20337300002575	0	290587	234
568.591796875	1	taste	trialStart	1	46	46	foodImage.102	FOODEEG_Images\0910.jpg	YN	Right	No	0.802727000089362	0	291120	251
569.6328125	2	taste	foodImageDisplay	1	46	46	foodImage.102	FOODEEG_Images\0910.jpg	YN	Right	No	0.802727000089362	0	291653	252
571.69921875	0.802727000089362	taste	choicePhaseStart	1	46	46	foodImage.102	FOODEEG_Images\0910.jpg	YN	Right	No	0.802727000089362	0	292711	253
572.494140625	0	taste	response	1	46	46	foodImage.102	FOODEEG_Images\0910.jpg	YN	Right	No	0.802727000089362	0	293118	235
573.541015625	1	taste	trialStart	1	47	47	foodImage.93	FOODEEG_Images\0901.jpg	NY	Right	Yes	0.650994200026616	0	293654	251
574.583984375	2	taste	foodImageDisplay	1	47	47	foodImage.93	FOODEEG_Images\0901.jpg	NY	Right	Yes	0.650994200026616	0	294188	252
576.6484375	0.650994200026616	taste	choicePhaseStart	1	47	47	foodImage.93	FOODEEG_Images\0901.jpg	NY	Right	Yes	0.650994200026616	0	295245	253
577.29296875	0	taste	response	1	47	47	foodImage.93	FOODEEG_Images\0901.jpg	NY	Right	Yes	0.650994200026616	0	295575	235
578.3359375	1	decision	trialStart	1	48	48	foodImage.98	FOODEEG_Images\0906.jpg	NY	Left	No	0.646473200060427	0	296109	251
579.373046875	2	decision	foodImageDisplay	1	48	48	foodImage.98	FOODEEG_Images\0906.jpg	NY	Left	No	0.646473200060427	0	296640	252
581.4375	0.646473200060427	decision	choicePhaseStart	1	48	48	foodImage.98	FOODEEG_Images\0906.jpg	NY	Left	No	0.646473200060427	0	297697	253
582.078125	0	decision	response	1	48	48	foodImage.98	FOODEEG_Images\0906.jpg	NY	Left	No	0.646473200060427	0	298025	234
583.1171875	1	health	trialStart	1	49	49	foodImage.116	FOODEEG_Images\0924.jpg	YN	Right	No	1.7980683001224	0	298557	251
584.15625	2	health	foodImageDisplay	1	49	49	foodImage.116	FOODEEG_Images\0924.jpg	YN	Right	No	1.7980683001224	0	299089	252
586.224609375	1.7980683001224	health	choicePhaseStart	1	49	49	foodImage.116	FOODEEG_Images\0924.jpg	YN	Right	No	1.7980683001224	0	300148	253
588.013671875	0	health	response	1	49	49	foodImage.116	FOODEEG_Images\0924.jpg	YN	Right	No	1.7980683001224	0	301064	235
589.056640625	1	health	trialStart	1	50	50	foodImage.103	FOODEEG_Images\0911.jpg	YN	Right	No	0.61481749988161	0	301598	251
590.095703125	2	health	foodImageDisplay	1	50	50	foodImage.103	FOODEEG_Images\0911.jpg	YN	Right	No	0.61481749988161	0	302130	252
592.16015625	0.61481749988161	health	choicePhaseStart	1	50	50	foodImage.103	FOODEEG_Images\0911.jpg	YN	Right	No	0.61481749988161	0	303187	253
592.765625	0	health	response	1	50	50	foodImage.103	FOODEEG_Images\0911.jpg	YN	Right	No	0.61481749988161	0	303497	235
593.80859375	1	decision	trialStart	1	51	51	foodImage.38	FOODEEG_Images\0365.jpg	YN	Left	Yes	3.00573410000652	0	304031	251
594.84765625	2	decision	foodImageDisplay	1	51	51	foodImage.38	FOODEEG_Images\0365.jpg	YN	Left	Yes	3.00573410000652	0	304563	252
596.912109375	3.00573410000652	decision	choicePhaseStart	1	51	51	foodImage.38	FOODEEG_Images\0365.jpg	YN	Left	Yes	3.00573410000652	0	305620	253
599.908203125	0	decision	response	1	51	51	foodImage.38	FOODEEG_Images\0365.jpg	YN	Left	Yes	3.00573410000652	0	307154	234
600.951171875	1	decision	trialStart	1	52	52	foodImage.117	FOODEEG_Images\0925.jpg	YN	Left	Yes	0.689837099984288	0	307688	251
601.98828125	2	decision	foodImageDisplay	1	52	52	foodImage.117	FOODEEG_Images\0925.jpg	YN	Left	Yes	0.689837099984288	0	308219	252
604.05078125	0.689837099984288	decision	choicePhaseStart	1	52	52	foodImage.117	FOODEEG_Images\0925.jpg	YN	Left	Yes	0.689837099984288	0	309275	253
604.732421875	0	decision	response	1	52	52	foodImage.117	FOODEEG_Images\0925.jpg	YN	Left	Yes	0.689837099984288	0	309624	234
605.787109375	1	decision	trialStart	1	53	53	foodImage.103	FOODEEG_Images\0911.jpg	YN	Right	No	0.653543699998409	0	310164	251
606.82421875	2	decision	foodImageDisplay	1	53	53	foodImage.103	FOODEEG_Images\0911.jpg	YN	Right	No	0.653543699998409	0	310695	252
608.888671875	0.653543699998409	decision	choicePhaseStart	1	53	53	foodImage.103	FOODEEG_Images\0911.jpg	YN	Right	No	0.653543699998409	0	311752	253
609.533203125	0	decision	response	1	53	53	foodImage.103	FOODEEG_Images\0911.jpg	YN	Right	No	0.653543699998409	0	312082	235
610.57421875	1	decision	trialStart	1	54	54	foodImage.24	FOODEEG_Images\0250.jpg	NY	Right	Yes	1.05667159985751	0	312615	251
611.6171875	2	decision	foodImageDisplay	1	54	54	foodImage.24	FOODEEG_Images\0250.jpg	NY	Right	Yes	1.05667159985751	0	313149	252
613.685546875	1.05667159985751	decision	choicePhaseStart	1	54	54	foodImage.24	FOODEEG_Images\0250.jpg	NY	Right	Yes	1.05667159985751	0	314208	253
614.732421875	0	decision	response	1	54	54	foodImage.24	FOODEEG_Images\0250.jpg	NY	Right	Yes	1.05667159985751	0	314744	235
615.775390625	1	decision	trialStart	1	55	55	foodImage.115	FOODEEG_Images\0923.jpg	NY	Left	No	1.30487069999799	0	315278	251
616.8203125	2	decision	foodImageDisplay	1	55	55	foodImage.115	FOODEEG_Images\0923.jpg	NY	Left	No	1.30487069999799	0	315813	252
618.890625	1.30487069999799	decision	choicePhaseStart	1	55	55	foodImage.115	FOODEEG_Images\0923.jpg	NY	Left	No	1.30487069999799	0	316873	253
620.1875	0	decision	response	1	55	55	foodImage.115	FOODEEG_Images\0923.jpg	NY	Left	No	1.30487069999799	0	317537	234
621.232421875	1	health	trialStart	1	56	56	foodImage.114	FOODEEG_Images\0922.jpg	YN	Right	No	1.07241880008951	0	318072	251
622.26953125	2	health	foodImageDisplay	1	56	56	foodImage.114	FOODEEG_Images\0922.jpg	YN	Right	No	1.07241880008951	0	318603	252
624.33203125	1.07241880008951	health	choicePhaseStart	1	56	56	foodImage.114	FOODEEG_Images\0922.jpg	YN	Right	No	1.07241880008951	0	319659	253
625.396484375	0	health	response	1	56	56	foodImage.114	FOODEEG_Images\0922.jpg	YN	Right	No	1.07241880008951	0	320204	235
626.4375	1	taste	trialStart	1	57	57	foodImage.11	FOODEEG_Images\0180.jpg	NY	Right	Yes	0.678075099829584	0	320737	251
627.48046875	2	taste	foodImageDisplay	1	57	57	foodImage.11	FOODEEG_Images\0180.jpg	NY	Right	Yes	0.678075099829584	0	321271	252
629.54296875	0.678075099829584	taste	choicePhaseStart	1	57	57	foodImage.11	FOODEEG_Images\0180.jpg	NY	Right	Yes	0.678075099829584	0	322327	253
630.2109375	0	taste	response	1	57	57	foodImage.11	FOODEEG_Images\0180.jpg	NY	Right	Yes	0.678075099829584	0	322669	235
631.251953125	1	decision	trialStart	1	58	58	foodImage.4	FOODEEG_Images\0065.jpg	NY	Right	Yes	0.809104800224304	0	323202	251
632.30859375	2	decision	foodImageDisplay	1	58	58	foodImage.4	FOODEEG_Images\0065.jpg	NY	Right	Yes	0.809104800224304	0	323743	252
634.373046875	0.809104800224304	decision	choicePhaseStart	1	58	58	foodImage.4	FOODEEG_Images\0065.jpg	NY	Right	Yes	0.809104800224304	0	324800	253
635.171875	0	decision	response	1	58	58	foodImage.4	FOODEEG_Images\0065.jpg	NY	Right	Yes	0.809104800224304	0	325209	235
636.212890625	1	health	trialStart	1	59	59	foodImage.48	FOODEEG_Images\0494.jpg	NY	Right	Yes	0.579809400020167	0	325742	251
637.255859375	2	health	foodImageDisplay	1	59	59	foodImage.48	FOODEEG_Images\0494.jpg	NY	Right	Yes	0.579809400020167	0	326276	252
639.318359375	0.579809400020167	health	choicePhaseStart	1	59	59	foodImage.48	FOODEEG_Images\0494.jpg	NY	Right	Yes	0.579809400020167	0	327332	253
639.890625	0	health	response	1	59	59	foodImage.48	FOODEEG_Images\0494.jpg	NY	Right	Yes	0.579809400020167	0	327625	235
640.93359375	1	health	trialStart	1	60	60	foodImage.43	FOODEEG_Images\0445.jpg	YN	Left	Yes	0.874845799989998	0	328159	251
641.9921875	2	health	foodImageDisplay	1	60	60	foodImage.43	FOODEEG_Images\0445.jpg	YN	Left	Yes	0.874845799989998	0	328701	252
644.056640625	0.874845799989998	health	choicePhaseStart	1	60	60	foodImage.43	FOODEEG_Images\0445.jpg	YN	Left	Yes	0.874845799989998	0	329758	253
644.923828125	0	health	response	1	60	60	foodImage.43	FOODEEG_Images\0445.jpg	YN	Left	Yes	0.874845799989998	0	330202	234
646.966796875	20.6953125	n/a	blockEnd	n/a	n/a	n/a	n/a	n/a	n/a	n/a	n/a	n/a	n/a	331248	254
667.662109375	2	n/a	blockStart	2	n/a	n/a	n/a	n/a	n/a	n/a	n/a	n/a	n/a	341844	250
669.6953125	1	taste	trialStart	2	61	1	foodImage.87	FOODEEG_Images\0873.jpg	NY	Right	Yes	0.889992699958384	0	342885	251
670.759765625	2	taste	foodImageDisplay	2	61	1	foodImage.87	FOODEEG_Images\0873.jpg	NY	Right	Yes	0.889992699958384	0	343430	252
672.82421875	0.889992699958384	taste	choicePhaseStart	2	61	1	foodImage.87	FOODEEG_Images\0873.jpg	NY	Right	Yes	0.889992699958384	0	344487	253
673.705078125	0	taste	response	2	61	1	foodImage.87	FOODEEG_Images\0873.jpg	NY	Right	Yes	0.889992699958384	0	344938	235
674.748046875	1	health	trialStart	2	62	2	foodImage.77	FOODEEG_Images\0771.jpg	YN	Left	Yes	0.923844600096345	0	345472	251
675.79296875	2	health	foodImageDisplay	2	62	2	foodImage.77	FOODEEG_Images\0771.jpg	YN	Left	Yes	0.923844600096345	0	346007	252
677.85546875	0.923844600096345	health	choicePhaseStart	2	62	2	foodImage.77	FOODEEG_Images\0771.jpg	YN	Left	Yes	0.923844600096345	0	347063	253
678.76953125	0	health	response	2	62	2	foodImage.77	FOODEEG_Images\0771.jpg	YN	Left	Yes	0.923844600096345	0	347531	234
679.8125	1	taste	trialStart	2	63	3	foodImage.20	FOODEEG_Images\0226.jpg	NY	Right	Yes	0.701081299921498	0	348065	251
680.853515625	2	taste	foodImageDisplay	2	63	3	foodImage.20	FOODEEG_Images\0226.jpg	NY	Right	Yes	0.701081299921498	0	348598	252
682.916015625	0.701081299921498	taste	choicePhaseStart	2	63	3	foodImage.20	FOODEEG_Images\0226.jpg	NY	Right	Yes	0.701081299921498	0	349654	253
683.609375	0	taste	response	2	63	3	foodImage.20	FOODEEG_Images\0226.jpg	NY	Right	Yes	0.701081299921498	0	350009	235
684.65234375	1	taste	trialStart	2	64	4	foodImage.110	FOODEEG_Images\0918.jpg	YN	Left	Yes	0.805107399821281	0	350543	251
685.6953125	2	taste	foodImageDisplay	2	64	4	foodImage.110	FOODEEG_Images\0918.jpg	YN	Left	Yes	0.805107399821281	0	351077	252
687.7578125	0.805107399821281	taste	choicePhaseStart	2	64	4	foodImage.110	FOODEEG_Images\0918.jpg	YN	Left	Yes	0.805107399821281	0	352133	253
688.552734375	0	taste	response	2	64	4	foodImage.110	FOODEEG_Images\0918.jpg	YN	Left	Yes	0.805107399821281	0	352540	234
689.59375	1	taste	trialStart	2	65	5	foodImage.85	FOODEEG_Images\0841.jpg	YN	Left	Yes	0.849767100065947	0	353073	251
690.650390625	2	taste	foodImageDisplay	2	65	5	foodImage.85	FOODEEG_Images\0841.jpg	YN	Left	Yes	0.849767100065947	0	353614	252
692.712890625	0.849767100065947	taste	choicePhaseStart	2	65	5	foodImage.85	FOODEEG_Images\0841.jpg	YN	Left	Yes	0.849767100065947	0	354670	253
693.552734375	0	taste	response	2	65	5	foodImage.85	FOODEEG_Images\0841.jpg	YN	Left	Yes	0.849767100065947	0	355100	234
694.59375	1	health	trialStart	2	66	6	foodImage.97	FOODEEG_Images\0905.jpg	NY	Left	No	1.01978820003569	0	355633	251
695.6328125	2	health	foodImageDisplay	2	66	6	foodImage.97	FOODEEG_Images\0905.jpg	NY	Left	No	1.01978820003569	0	356165	252
697.6953125	1.01978820003569	health	choicePhaseStart	2	66	6	foodImage.97	FOODEEG_Images\0905.jpg	NY	Left	No	1.01978820003569	0	357221	253
698.705078125	0	health	response	2	66	6	foodImage.97	FOODEEG_Images\0905.jpg	NY	Left	No	1.01978820003569	0	357738	234
699.751953125	1	decision	trialStart	2	67	7	foodImage.95	FOODEEG_Images\0903.jpg	NY	Left	No	0.987345299916342	0	358274	251
700.791015625	2	decision	foodImageDisplay	2	67	7	foodImage.95	FOODEEG_Images\0903.jpg	NY	Left	No	0.987345299916342	0	358806	252
702.85546875	0.987345299916342	decision	choicePhaseStart	2	67	7	foodImage.95	FOODEEG_Images\0903.jpg	NY	Left	No	0.987345299916342	0	359863	253
703.83203125	0	decision	response	2	67	7	foodImage.95	FOODEEG_Images\0903.jpg	NY	Left	No	0.987345299916342	0	360363	234
704.873046875	1	health	trialStart	2	68	8	foodImage.6	FOODEEG_Images\0113.jpg	NY	Right	Yes	1.75735140009783	0	360896	251
705.9140625	2	health	foodImageDisplay	2	68	8	foodImage.6	FOODEEG_Images\0113.jpg	NY	Right	Yes	1.75735140009783	0	361429	252
707.978515625	1.75735140009783	health	choicePhaseStart	2	68	8	foodImage.6	FOODEEG_Images\0113.jpg	NY	Right	Yes	1.75735140009783	0	362486	253
709.728515625	0	health	response	2	68	8	foodImage.6	FOODEEG_Images\0113.jpg	NY	Right	Yes	1.75735140009783	0	363382	235
710.771484375	1	health	trialStart	2	69	9	foodImage.67	FOODEEG_Images\0679.jpg	YN	Right	No	0.886225499911234	0	363916	251
711.828125	2	health	foodImageDisplay	2	69	9	foodImage.67	FOODEEG_Images\0679.jpg	YN	Right	No	0.886225499911234	0	364457	252
713.890625	0.886225499911234	health	choicePhaseStart	2	69	9	foodImage.67	FOODEEG_Images\0679.jpg	YN	Right	No	0.886225499911234	0	365513	253
714.767578125	0	health	response	2	69	9	foodImage.67	FOODEEG_Images\0679.jpg	YN	Right	No	0.886225499911234	0	365962	235
715.810546875	1	taste	trialStart	2	70	10	foodImage.84	FOODEEG_Images\0830.jpg	YN	Left	Yes	1.04039669991471	0	366496	251
716.865234375	2	taste	foodImageDisplay	2	70	10	foodImage.84	FOODEEG_Images\0830.jpg	YN	Left	Yes	1.04039669991471	0	367036	252
718.9296875	1.04039669991471	taste	choicePhaseStart	2	70	10	foodImage.84	FOODEEG_Images\0830.jpg	YN	Left	Yes	1.04039669991471	0	368093	253
719.9609375	0	taste	response	2	70	10	foodImage.84	FOODEEG_Images\0830.jpg	YN	Left	Yes	1.04039669991471	0	368621	234
721.001953125	1	decision	trialStart	2	71	11	foodImage.12	FOODEEG_Images\0181.jpg	NY	Right	Yes	2.39325439999811	0	369154	251
722.046875	2	decision	foodImageDisplay	2	71	11	foodImage.12	FOODEEG_Images\0181.jpg	NY	Right	Yes	2.39325439999811	0	369689	252
724.111328125	2.39325439999811	decision	choicePhaseStart	2	71	11	foodImage.12	FOODEEG_Images\0181.jpg	NY	Right	Yes	2.39325439999811	0	370746	253
726.49609375	0	decision	response	2	71	11	foodImage.12	FOODEEG_Images\0181.jpg	NY	Right	Yes	2.39325439999811	0	371967	235
727.541015625	1	taste	trialStart	2	72	12	foodImage.73	FOODEEG_Images\0717.jpg	NY	Right	Yes	0.727586799999699	0	372502	251
728.6015625	2	taste	foodImageDisplay	2	72	12	foodImage.73	FOODEEG_Images\0717.jpg	NY	Right	Yes	0.727586799999699	0	373045	252
730.666015625	0.727586799999699	taste	choicePhaseStart	2	72	12	foodImage.73	FOODEEG_Images\0717.jpg	NY	Right	Yes	0.727586799999699	0	374102	253
731.3828125	0	taste	response	2	72	12	foodImage.73	FOODEEG_Images\0717.jpg	NY	Right	Yes	0.727586799999699	0	374469	235
732.42578125	1	taste	trialStart	2	73	13	foodImage.62	FOODEEG_Images\0644.jpg	NY	Right	Yes	2.00479130004533	0	375003	251
733.486328125	2	taste	foodImageDisplay	2	73	13	foodImage.62	FOODEEG_Images\0644.jpg	NY	Right	Yes	2.00479130004533	0	375546	252
735.548828125	2.00479130004533	taste	choicePhaseStart	2	73	13	foodImage.62	FOODEEG_Images\0644.jpg	NY	Right	Yes	2.00479130004533	0	376602	253
737.54296875	0	taste	response	2	73	13	foodImage.62	FOODEEG_Images\0644.jpg	NY	Right	Yes	2.00479130004533	0	377623	235
738.5859375	1	health	trialStart	2	74	14	foodImage.74	FOODEEG_Images\0752.jpg	NY	Right	Yes	0.744998200098053	0	378157	251
739.6328125	2	health	foodImageDisplay	2	74	14	foodImage.74	FOODEEG_Images\0752.jpg	NY	Right	Yes	0.744998200098053	0	378693	252
741.6953125	0.744998200098053	health	choicePhaseStart	2	74	14	foodImage.74	FOODEEG_Images\0752.jpg	NY	Right	Yes	0.744998200098053	0	379749	253
742.431640625	0	health	response	2	74	14	foodImage.74	FOODEEG_Images\0752.jpg	NY	Right	Yes	0.744998200098053	0	380126	235
743.48046875	1	health	trialStart	2	75	15	foodImage.94	FOODEEG_Images\0902.jpg	YN	Right	No	1.08045420004055	0	380663	251
744.51953125	2	health	foodImageDisplay	2	75	15	foodImage.94	FOODEEG_Images\0902.jpg	YN	Right	No	1.08045420004055	0	381195	252
746.583984375	1.08045420004055	health	choicePhaseStart	2	75	15	foodImage.94	FOODEEG_Images\0902.jpg	YN	Right	No	1.08045420004055	0	382252	253
747.654296875	0	health	response	2	75	15	foodImage.94	FOODEEG_Images\0902.jpg	YN	Right	No	1.08045420004055	0	382800	235
748.697265625	1	decision	trialStart	2	76	16	foodImage.82	FOODEEG_Images\0805.jpg	NY	Right	Yes	0.901397200068459	0	383334	251
749.75390625	2	decision	foodImageDisplay	2	76	16	foodImage.82	FOODEEG_Images\0805.jpg	NY	Right	Yes	0.901397200068459	0	383875	252
751.81640625	0.901397200068459	decision	choicePhaseStart	2	76	16	foodImage.82	FOODEEG_Images\0805.jpg	NY	Right	Yes	0.901397200068459	0	384931	253
752.7109375	0	decision	response	2	76	16	foodImage.82	FOODEEG_Images\0805.jpg	NY	Right	Yes	0.901397200068459	0	385389	235
753.75390625	1	decision	trialStart	2	77	17	foodImage.65	FOODEEG_Images\0658.jpg	YN	Right	No	0.798565599834546	0	385923	251
754.796875	2	decision	foodImageDisplay	2	77	17	foodImage.65	FOODEEG_Images\0658.jpg	YN	Right	No	0.798565599834546	0	386457	252
756.865234375	0.798565599834546	decision	choicePhaseStart	2	77	17	foodImage.65	FOODEEG_Images\0658.jpg	YN	Right	No	0.798565599834546	0	387516	253
757.654296875	0	decision	response	2	77	17	foodImage.65	FOODEEG_Images\0658.jpg	YN	Right	No	0.798565599834546	0	387920	235
758.703125	1	decision	trialStart	2	78	18	foodImage.20	FOODEEG_Images\0226.jpg	NY	Left	No	1.02437520003878	0	388457	251
759.74609375	2	decision	foodImageDisplay	2	78	18	foodImage.20	FOODEEG_Images\0226.jpg	NY	Left	No	1.02437520003878	0	388991	252
761.80859375	1.02437520003878	decision	choicePhaseStart	2	78	18	foodImage.20	FOODEEG_Images\0226.jpg	NY	Left	No	1.02437520003878	0	390047	253
762.822265625	0	decision	response	2	78	18	foodImage.20	FOODEEG_Images\0226.jpg	NY	Left	No	1.02437520003878	0	390566	234
763.865234375	1	taste	trialStart	2	79	19	foodImage.82	FOODEEG_Images\0805.jpg	NY	Right	Yes	1.64183359988965	0	391100	251
764.921875	2	taste	foodImageDisplay	2	79	19	foodImage.82	FOODEEG_Images\0805.jpg	NY	Right	Yes	1.64183359988965	0	391641	252
766.990234375	1.64183359988965	taste	choicePhaseStart	2	79	19	foodImage.82	FOODEEG_Images\0805.jpg	NY	Right	Yes	1.64183359988965	0	392700	253
768.623046875	0	taste	response	2	79	19	foodImage.82	FOODEEG_Images\0805.jpg	NY	Right	Yes	1.64183359988965	0	393536	235
769.6640625	1	taste	trialStart	2	80	20	foodImage.66	FOODEEG_Images\0676.jpg	YN	Left	Yes	0.741297299973667	0	394069	251
770.70703125	2	taste	foodImageDisplay	2	80	20	foodImage.66	FOODEEG_Images\0676.jpg	YN	Left	Yes	0.741297299973667	0	394603	252
772.76953125	0.741297299973667	taste	choicePhaseStart	2	80	20	foodImage.66	FOODEEG_Images\0676.jpg	YN	Left	Yes	0.741297299973667	0	395659	253
773.501953125	0	taste	response	2	80	20	foodImage.66	FOODEEG_Images\0676.jpg	YN	Left	Yes	0.741297299973667	0	396034	234
774.55078125	1	health	trialStart	2	81	21	foodImage.18	FOODEEG_Images\0202.jpg	NY	Right	Yes	0.66016299999319	0	396571	251
775.6171875	2	health	foodImageDisplay	2	81	21	foodImage.18	FOODEEG_Images\0202.jpg	NY	Right	Yes	0.66016299999319	0	397117	252
777.6796875	0.66016299999319	health	choicePhaseStart	2	81	21	foodImage.18	FOODEEG_Images\0202.jpg	NY	Right	Yes	0.66016299999319	0	398173	253
778.333984375	0	health	response	2	81	21	foodImage.18	FOODEEG_Images\0202.jpg	NY	Right	Yes	0.66016299999319	0	398508	235
779.376953125	1	health	trialStart	2	82	22	foodImage.36	FOODEEG_Images\0352.jpg	NY	Right	Yes	1.14549529994838	0	399042	251
780.4609375	2	health	foodImageDisplay	2	82	22	foodImage.36	FOODEEG_Images\0352.jpg	NY	Right	Yes	1.14549529994838	0	399597	252
782.525390625	1.14549529994838	health	choicePhaseStart	2	82	22	foodImage.36	FOODEEG_Images\0352.jpg	NY	Right	Yes	1.14549529994838	0	400654	253
783.662109375	0	health	response	2	82	22	foodImage.36	FOODEEG_Images\0352.jpg	NY	Right	Yes	1.14549529994838	0	401236	235
784.703125	1	taste	trialStart	2	83	23	foodImage.14	FOODEEG_Images\0188.jpg	YN	Left	Yes	0.70024499995634	0	401769	251
785.763671875	2	taste	foodImageDisplay	2	83	23	foodImage.14	FOODEEG_Images\0188.jpg	YN	Left	Yes	0.70024499995634	0	402312	252
787.826171875	0.70024499995634	taste	choicePhaseStart	2	83	23	foodImage.14	FOODEEG_Images\0188.jpg	YN	Left	Yes	0.70024499995634	0	403368	253
788.517578125	0	taste	response	2	83	23	foodImage.14	FOODEEG_Images\0188.jpg	YN	Left	Yes	0.70024499995634	0	403722	234
789.578125	1	decision	trialStart	2	84	24	foodImage.22	FOODEEG_Images\0236.jpg	YN	Right	No	0.939238300081342	0	404265	251
790.619140625	2	decision	foodImageDisplay	2	84	24	foodImage.22	FOODEEG_Images\0236.jpg	YN	Right	No	0.939238300081342	0	404798	252
792.68359375	0.939238300081342	decision	choicePhaseStart	2	84	24	foodImage.22	FOODEEG_Images\0236.jpg	YN	Right	No	0.939238300081342	0	405855	253
793.61328125	0	decision	response	2	84	24	foodImage.22	FOODEEG_Images\0236.jpg	YN	Right	No	0.939238300081342	0	406331	235
794.65625	1	decision	trialStart	2	85	25	foodImage.17	FOODEEG_Images\0199.jpg	NY	Right	Yes	0.738404700066894	0	406865	251
795.708984375	2	decision	foodImageDisplay	2	85	25	foodImage.17	FOODEEG_Images\0199.jpg	NY	Right	Yes	0.738404700066894	0	407404	252
797.771484375	0.738404700066894	decision	choicePhaseStart	2	85	25	foodImage.17	FOODEEG_Images\0199.jpg	NY	Right	Yes	0.738404700066894	0	408460	253
798.5	0	decision	response	2	85	25	foodImage.17	FOODEEG_Images\0199.jpg	NY	Right	Yes	0.738404700066894	0	408833	235
799.544921875	1	taste	trialStart	2	86	26	foodImage.91	FOODEEG_Images\0896.jpg	NY	Right	Yes	0.75456149992533	0	409368	251
800.603515625	2	taste	foodImageDisplay	2	86	26	foodImage.91	FOODEEG_Images\0896.jpg	NY	Right	Yes	0.75456149992533	0	409910	252
802.66796875	0.75456149992533	taste	choicePhaseStart	2	86	26	foodImage.91	FOODEEG_Images\0896.jpg	NY	Right	Yes	0.75456149992533	0	410967	253
803.412109375	0	taste	response	2	86	26	foodImage.91	FOODEEG_Images\0896.jpg	NY	Right	Yes	0.75456149992533	0	411348	235
804.455078125	1	taste	trialStart	2	87	27	foodImage.70	FOODEEG_Images\0705.jpg	YN	Right	No	0.841012299992144	0	411882	251
805.51953125	2	taste	foodImageDisplay	2	87	27	foodImage.70	FOODEEG_Images\0705.jpg	YN	Right	No	0.841012299992144	0	412427	252
807.58203125	0.841012299992144	taste	choicePhaseStart	2	87	27	foodImage.70	FOODEEG_Images\0705.jpg	YN	Right	No	0.841012299992144	0	413483	253
808.412109375	0	taste	response	2	87	27	foodImage.70	FOODEEG_Images\0705.jpg	YN	Right	No	0.841012299992144	0	413908	235
809.455078125	1	health	trialStart	2	88	28	foodImage.101	FOODEEG_Images\0909.jpg	NY	Left	No	0.786105699837208	0	414442	251
810.4921875	2	health	foodImageDisplay	2	88	28	foodImage.101	FOODEEG_Images\0909.jpg	NY	Left	No	0.786105699837208	0	414973	252
812.5546875	0.786105699837208	health	choicePhaseStart	2	88	28	foodImage.101	FOODEEG_Images\0909.jpg	NY	Left	No	0.786105699837208	0	416029	253
813.33203125	0	health	response	2	88	28	foodImage.101	FOODEEG_Images\0909.jpg	NY	Left	No	0.786105699837208	0	416427	234
814.375	1	health	trialStart	2	89	29	foodImage.76	FOODEEG_Images\0766.jpg	YN	Left	Yes	1.22567029995844	0	416961	251
815.419921875	2	health	foodImageDisplay	2	89	29	foodImage.76	FOODEEG_Images\0766.jpg	YN	Left	Yes	1.22567029995844	0	417496	252
817.484375	1.22567029995844	health	choicePhaseStart	2	89	29	foodImage.76	FOODEEG_Images\0766.jpg	YN	Left	Yes	1.22567029995844	0	418553	253
818.701171875	0	health	response	2	89	29	foodImage.76	FOODEEG_Images\0766.jpg	YN	Left	Yes	1.22567029995844	0	419176	234
819.744140625	1	health	trialStart	2	90	30	foodImage.69	FOODEEG_Images\0693.jpg	NY	Right	Yes	1.77804750017822	0	419710	251
820.802734375	2	health	foodImageDisplay	2	90	30	foodImage.69	FOODEEG_Images\0693.jpg	NY	Right	Yes	1.77804750017822	0	420252	252
822.8671875	1.77804750017822	health	choicePhaseStart	2	90	30	foodImage.69	FOODEEG_Images\0693.jpg	NY	Right	Yes	1.77804750017822	0	421309	253
824.634765625	0	health	response	2	90	30	foodImage.69	FOODEEG_Images\0693.jpg	NY	Right	Yes	1.77804750017822	0	422214	235
825.685546875	1	health	trialStart	2	91	31	foodImage.22	FOODEEG_Images\0236.jpg	YN	Right	No	1.08849050011486	0	422752	251
826.724609375	2	health	foodImageDisplay	2	91	31	foodImage.22	FOODEEG_Images\0236.jpg	YN	Right	No	1.08849050011486	0	423284	252
828.7890625	1.08849050011486	health	choicePhaseStart	2	91	31	foodImage.22	FOODEEG_Images\0236.jpg	YN	Right	No	1.08849050011486	0	424341	253
829.8671875	0	health	response	2	91	31	foodImage.22	FOODEEG_Images\0236.jpg	YN	Right	No	1.08849050011486	0	424893	235
830.91015625	1	decision	trialStart	2	92	32	foodImage.7	FOODEEG_Images\0116.jpg	YN	Left	Yes	0.746851800009608	0	425427	251
831.953125	2	decision	foodImageDisplay	2	92	32	foodImage.7	FOODEEG_Images\0116.jpg	YN	Left	Yes	0.746851800009608	0	425961	252
834.017578125	0.746851800009608	decision	choicePhaseStart	2	92	32	foodImage.7	FOODEEG_Images\0116.jpg	YN	Left	Yes	0.746851800009608	0	427018	253
834.755859375	0	decision	response	2	92	32	foodImage.7	FOODEEG_Images\0116.jpg	YN	Left	Yes	0.746851800009608	0	427396	234
835.796875	1	taste	trialStart	2	93	33	foodImage.1	FOODEEG_Images\0004.jpg	YN	Left	Yes	0.713001900119707	0	427929	251
836.837890625	2	taste	foodImageDisplay	2	93	33	foodImage.1	FOODEEG_Images\0004.jpg	YN	Left	Yes	0.713001900119707	0	428462	252
838.900390625	0.713001900119707	taste	choicePhaseStart	2	93	33	foodImage.1	FOODEEG_Images\0004.jpg	YN	Left	Yes	0.713001900119707	0	429518	253
839.603515625	0	taste	response	2	93	33	foodImage.1	FOODEEG_Images\0004.jpg	YN	Left	Yes	0.713001900119707	0	429878	234
840.646484375	1	taste	trialStart	2	94	34	foodImage.47	FOODEEG_Images\0488.jpg	YN	Left	Yes	0.708611299982294	0	430412	251
841.6875	2	taste	foodImageDisplay	2	94	34	foodImage.47	FOODEEG_Images\0488.jpg	YN	Left	Yes	0.708611299982294	0	430945	252
843.75	0.708611299982294	taste	choicePhaseStart	2	94	34	foodImage.47	FOODEEG_Images\0488.jpg	YN	Left	Yes	0.708611299982294	0	432001	253
844.451171875	0	taste	response	2	94	34	foodImage.47	FOODEEG_Images\0488.jpg	YN	Left	Yes	0.708611299982294	0	432360	234
845.494140625	1	health	trialStart	2	95	35	foodImage.50	FOODEEG_Images\0529.jpg	NY	Left	No	0.858355300035328	0	432894	251
846.576171875	2	health	foodImageDisplay	2	95	35	foodImage.50	FOODEEG_Images\0529.jpg	NY	Left	No	0.858355300035328	0	433448	252
848.638671875	0.858355300035328	health	choicePhaseStart	2	95	35	foodImage.50	FOODEEG_Images\0529.jpg	NY	Left	No	0.858355300035328	0	434504	253
849.490234375	0	health	response	2	95	35	foodImage.50	FOODEEG_Images\0529.jpg	NY	Left	No	0.858355300035328	0	434940	234
850.533203125	1	decision	trialStart	2	96	36	foodImage.42	FOODEEG_Images\0438.jpg	YN	Left	Yes	1.08790769986808	0	435474	251
851.62890625	2	decision	foodImageDisplay	2	96	36	foodImage.42	FOODEEG_Images\0438.jpg	YN	Left	Yes	1.08790769986808	0	436035	252
853.69140625	1.08790769986808	decision	choicePhaseStart	2	96	36	foodImage.42	FOODEEG_Images\0438.jpg	YN	Left	Yes	1.08790769986808	0	437091	253
854.771484375	0	decision	response	2	96	36	foodImage.42	FOODEEG_Images\0438.jpg	YN	Left	Yes	1.08790769986808	0	437644	234
855.8125	1	taste	trialStart	2	97	37	foodImage.65	FOODEEG_Images\0658.jpg	NY	Left	No	1.09756639995612	0	438177	251
856.8515625	2	taste	foodImageDisplay	2	97	37	foodImage.65	FOODEEG_Images\0658.jpg	NY	Left	No	1.09756639995612	0	438709	252
858.921875	1.09756639995612	taste	choicePhaseStart	2	97	37	foodImage.65	FOODEEG_Images\0658.jpg	NY	Left	No	1.09756639995612	0	439769	253
860.009765625	0	taste	response	2	97	37	foodImage.65	FOODEEG_Images\0658.jpg	NY	Left	No	1.09756639995612	0	440326	234
861.0546875	1	taste	trialStart	2	98	38	foodImage.117	FOODEEG_Images\0925.jpg	YN	Left	Yes	1.52826540009119	0	440861	251
862.08984375	2	taste	foodImageDisplay	2	98	38	foodImage.117	FOODEEG_Images\0925.jpg	YN	Left	Yes	1.52826540009119	0	441391	252
864.154296875	1.52826540009119	taste	choicePhaseStart	2	98	38	foodImage.117	FOODEEG_Images\0925.jpg	YN	Left	Yes	1.52826540009119	0	442448	253
865.673828125	0	taste	response	2	98	38	foodImage.117	FOODEEG_Images\0925.jpg	YN	Left	Yes	1.52826540009119	0	443226	234
866.716796875	1	health	trialStart	2	99	39	foodImage.13	FOODEEG_Images\0183.jpg	NY	Right	Yes	0.863213100004941	0	443760	251
867.765625	2	health	foodImageDisplay	2	99	39	foodImage.13	FOODEEG_Images\0183.jpg	NY	Right	Yes	0.863213100004941	0	444297	252
869.828125	0.863213100004941	health	choicePhaseStart	2	99	39	foodImage.13	FOODEEG_Images\0183.jpg	NY	Right	Yes	0.863213100004941	0	445353	253
870.681640625	0	health	response	2	99	39	foodImage.13	FOODEEG_Images\0183.jpg	NY	Right	Yes	0.863213100004941	0	445790	235
871.724609375	1	decision	trialStart	2	100	40	foodImage.32	FOODEEG_Images\0319.jpg	YN	Left	Yes	1.00734370015562	0	446324	251
872.76953125	2	decision	foodImageDisplay	2	100	40	foodImage.32	FOODEEG_Images\0319.jpg	YN	Left	Yes	1.00734370015562	0	446859	252
874.8359375	1.00734370015562	decision	choicePhaseStart	2	100	40	foodImage.32	FOODEEG_Images\0319.jpg	YN	Left	Yes	1.00734370015562	0	447917	253
875.833984375	0	decision	response	2	100	40	foodImage.32	FOODEEG_Images\0319.jpg	YN	Left	Yes	1.00734370015562	0	448428	234
876.880859375	1	health	trialStart	2	101	41	foodImage.57	FOODEEG_Images\0587.jpg	NY	Right	Yes	0.868911699857563	0	448964	251
877.927734375	2	health	foodImageDisplay	2	101	41	foodImage.57	FOODEEG_Images\0587.jpg	NY	Right	Yes	0.868911699857563	0	449500	252
879.99609375	0.868911699857563	health	choicePhaseStart	2	101	41	foodImage.57	FOODEEG_Images\0587.jpg	NY	Right	Yes	0.868911699857563	0	450559	253
880.857421875	0	health	response	2	101	41	foodImage.57	FOODEEG_Images\0587.jpg	NY	Right	Yes	0.868911699857563	0	451000	235
881.900390625	1	health	trialStart	2	102	42	foodImage.21	FOODEEG_Images\0234.jpg	NY	Right	Yes	1.0936450001318	0	451534	251
882.95703125	2	health	foodImageDisplay	2	102	42	foodImage.21	FOODEEG_Images\0234.jpg	NY	Right	Yes	1.0936450001318	0	452075	252
885.021484375	1.0936450001318	health	choicePhaseStart	2	102	42	foodImage.21	FOODEEG_Images\0234.jpg	NY	Right	Yes	1.0936450001318	0	453132	253
886.10546875	0	health	response	2	102	42	foodImage.21	FOODEEG_Images\0234.jpg	NY	Right	Yes	1.0936450001318	0	453687	235
887.146484375	1	taste	trialStart	2	103	43	foodImage.72	FOODEEG_Images\0714.jpg	YN	Right	No	1.50285749998875	0	454220	251
888.189453125	2	taste	foodImageDisplay	2	103	43	foodImage.72	FOODEEG_Images\0714.jpg	YN	Right	No	1.50285749998875	0	454754	252
890.251953125	1.50285749998875	taste	choicePhaseStart	2	103	43	foodImage.72	FOODEEG_Images\0714.jpg	YN	Right	No	1.50285749998875	0	455810	253
891.744140625	0	taste	response	2	103	43	foodImage.72	FOODEEG_Images\0714.jpg	YN	Right	No	1.50285749998875	0	456574	235
892.787109375	1	decision	trialStart	2	104	44	foodImage.57	FOODEEG_Images\0587.jpg	NY	Left	No	1.01829720009118	0	457108	251
893.83203125	2	decision	foodImageDisplay	2	104	44	foodImage.57	FOODEEG_Images\0587.jpg	NY	Left	No	1.01829720009118	0	457643	252
895.896484375	1.01829720009118	decision	choicePhaseStart	2	104	44	foodImage.57	FOODEEG_Images\0587.jpg	NY	Left	No	1.01829720009118	0	458700	253
896.904296875	0	decision	response	2	104	44	foodImage.57	FOODEEG_Images\0587.jpg	NY	Left	No	1.01829720009118	0	459216	234
897.94921875	1	health	trialStart	2	105	45	foodImage.86	FOODEEG_Images\0844.jpg	NY	Right	Yes	2.85379570000805	0	459751	251
899.02734375	2	health	foodImageDisplay	2	105	45	foodImage.86	FOODEEG_Images\0844.jpg	NY	Right	Yes	2.85379570000805	0	460303	252
901.08984375	2.85379570000805	health	choicePhaseStart	2	105	45	foodImage.86	FOODEEG_Images\0844.jpg	NY	Right	Yes	2.85379570000805	0	461359	253
903.935546875	0	health	response	2	105	45	foodImage.86	FOODEEG_Images\0844.jpg	NY	Right	Yes	2.85379570000805	0	462816	235
904.98046875	1	decision	trialStart	2	106	46	foodImage.93	FOODEEG_Images\0901.jpg	NY	Left	No	1.00030769989826	0	463351	251
906.01953125	2	decision	foodImageDisplay	2	106	46	foodImage.93	FOODEEG_Images\0901.jpg	NY	Left	No	1.00030769989826	0	463883	252
908.08203125	1.00030769989826	decision	choicePhaseStart	2	106	46	foodImage.93	FOODEEG_Images\0901.jpg	NY	Left	No	1.00030769989826	0	464939	253
909.072265625	0	decision	response	2	106	46	foodImage.93	FOODEEG_Images\0901.jpg	NY	Left	No	1.00030769989826	0	465446	234
910.12109375	1	health	trialStart	2	107	47	foodImage.79	FOODEEG_Images\0794.jpg	YN	Left	Yes	0.901680700015277	0	465983	251
911.1640625	2	health	foodImageDisplay	2	107	47	foodImage.79	FOODEEG_Images\0794.jpg	YN	Left	Yes	0.901680700015277	0	466517	252
913.234375	0.901680700015277	health	choicePhaseStart	2	107	47	foodImage.79	FOODEEG_Images\0794.jpg	YN	Left	Yes	0.901680700015277	0	467577	253
914.12890625	0	health	response	2	107	47	foodImage.79	FOODEEG_Images\0794.jpg	YN	Left	Yes	0.901680700015277	0	468035	234
915.17578125	1	taste	trialStart	2	108	48	foodImage.46	FOODEEG_Images\0479.jpg	YN	Left	Yes	2.14885489991866	0	468571	251
916.26171875	2	taste	foodImageDisplay	2	108	48	foodImage.46	FOODEEG_Images\0479.jpg	YN	Left	Yes	2.14885489991866	0	469127	252
918.32421875	2.14885489991866	taste	choicePhaseStart	2	108	48	foodImage.46	FOODEEG_Images\0479.jpg	YN	Left	Yes	2.14885489991866	0	470183	253
920.46484375	0	taste	response	2	108	48	foodImage.46	FOODEEG_Images\0479.jpg	YN	Left	Yes	2.14885489991866	0	471279	234
921.5078125	1	health	trialStart	2	109	49	foodImage.20	FOODEEG_Images\0226.jpg	YN	Right	No	0.77760610007681	0	471813	251
922.548828125	2	health	foodImageDisplay	2	109	49	foodImage.20	FOODEEG_Images\0226.jpg	YN	Right	No	0.77760610007681	0	472346	252
924.61328125	0.77760610007681	health	choicePhaseStart	2	109	49	foodImage.20	FOODEEG_Images\0226.jpg	YN	Right	No	0.77760610007681	0	473403	253
925.3828125	0	health	response	2	109	49	foodImage.20	FOODEEG_Images\0226.jpg	YN	Right	No	0.77760610007681	0	473797	235
926.427734375	1	taste	trialStart	2	110	50	foodImage.113	FOODEEG_Images\0921.jpg	YN	Right	No	1.29848050000146	0	474332	251
927.46484375	2	taste	foodImageDisplay	2	110	50	foodImage.113	FOODEEG_Images\0921.jpg	YN	Right	No	1.29848050000146	0	474863	252
929.52734375	1.29848050000146	taste	choicePhaseStart	2	110	50	foodImage.113	FOODEEG_Images\0921.jpg	YN	Right	No	1.29848050000146	0	475919	253
930.81640625	0	taste	response	2	110	50	foodImage.113	FOODEEG_Images\0921.jpg	YN	Right	No	1.29848050000146	0	476579	235
931.857421875	1	taste	trialStart	2	111	51	foodImage.101	FOODEEG_Images\0909.jpg	YN	Right	No	1.57603959995322	0	477112	251
932.896484375	2	taste	foodImageDisplay	2	111	51	foodImage.101	FOODEEG_Images\0909.jpg	YN	Right	No	1.57603959995322	0	477644	252
934.9609375	1.57603959995322	taste	choicePhaseStart	2	111	51	foodImage.101	FOODEEG_Images\0909.jpg	YN	Right	No	1.57603959995322	0	478701	253
936.52734375	0	taste	response	2	111	51	foodImage.101	FOODEEG_Images\0909.jpg	YN	Right	No	1.57603959995322	0	479503	235
937.5703125	1	taste	trialStart	2	112	52	foodImage.78	FOODEEG_Images\0787.jpg	YN	Right	No	0.716783500043675	0	480037	251
938.61328125	2	taste	foodImageDisplay	2	112	52	foodImage.78	FOODEEG_Images\0787.jpg	YN	Right	No	0.716783500043675	0	480571	252
940.67578125	0.716783500043675	taste	choicePhaseStart	2	112	52	foodImage.78	FOODEEG_Images\0787.jpg	YN	Right	No	0.716783500043675	0	481627	253
941.3828125	0	taste	response	2	112	52	foodImage.78	FOODEEG_Images\0787.jpg	YN	Right	No	0.716783500043675	0	481989	235
942.427734375	1	decision	trialStart	2	113	53	foodImage.74	FOODEEG_Images\0752.jpg	NY	Right	Yes	0.905407599871978	0	482524	251
943.470703125	2	decision	foodImageDisplay	2	113	53	foodImage.74	FOODEEG_Images\0752.jpg	NY	Right	Yes	0.905407599871978	0	483058	252
945.53515625	0.905407599871978	decision	choicePhaseStart	2	113	53	foodImage.74	FOODEEG_Images\0752.jpg	NY	Right	Yes	0.905407599871978	0	484115	253
946.431640625	0	decision	response	2	113	53	foodImage.74	FOODEEG_Images\0752.jpg	NY	Right	Yes	0.905407599871978	0	484574	235
947.474609375	1	decision	trialStart	2	114	54	foodImage.43	FOODEEG_Images\0445.jpg	NY	Left	No	1.47668650001287	0	485108	251
948.53125	2	decision	foodImageDisplay	2	114	54	foodImage.43	FOODEEG_Images\0445.jpg	NY	Left	No	1.47668650001287	0	485649	252
950.595703125	1.47668650001287	decision	choicePhaseStart	2	114	54	foodImage.43	FOODEEG_Images\0445.jpg	NY	Left	No	1.47668650001287	0	486706	253
952.0625	0	decision	response	2	114	54	foodImage.43	FOODEEG_Images\0445.jpg	NY	Left	No	1.47668650001287	0	487457	234
953.107421875	1	health	trialStart	2	115	55	foodImage.65	FOODEEG_Images\0658.jpg	NY	Left	No	1.02629189984873	0	487992	251
954.150390625	2	health	foodImageDisplay	2	115	55	foodImage.65	FOODEEG_Images\0658.jpg	NY	Left	No	1.02629189984873	0	488526	252
956.21484375	1.02629189984873	health	choicePhaseStart	2	115	55	foodImage.65	FOODEEG_Images\0658.jpg	NY	Left	No	1.02629189984873	0	489583	253
957.23046875	0	health	response	2	115	55	foodImage.65	FOODEEG_Images\0658.jpg	NY	Left	No	1.02629189984873	0	490103	234
958.294921875	1	decision	trialStart	2	116	56	foodImage.106	FOODEEG_Images\0914.jpg	NY	Left	No	0.849074499914423	0	490648	251
959.333984375	2	decision	foodImageDisplay	2	116	56	foodImage.106	FOODEEG_Images\0914.jpg	NY	Left	No	0.849074499914423	0	491180	252
961.3984375	0.849074499914423	decision	choicePhaseStart	2	116	56	foodImage.106	FOODEEG_Images\0914.jpg	NY	Left	No	0.849074499914423	0	492237	253
962.23828125	0	decision	response	2	116	56	foodImage.106	FOODEEG_Images\0914.jpg	NY	Left	No	0.849074499914423	0	492667	234
963.2890625	1	health	trialStart	2	117	57	foodImage.80	FOODEEG_Images\0796.jpg	NY	Left	No	0.870317000197247	0	493205	251
964.3671875	2	health	foodImageDisplay	2	117	57	foodImage.80	FOODEEG_Images\0796.jpg	NY	Left	No	0.870317000197247	0	493757	252
966.435546875	0.870317000197247	health	choicePhaseStart	2	117	57	foodImage.80	FOODEEG_Images\0796.jpg	NY	Left	No	0.870317000197247	0	494816	253
967.302734375	0	health	response	2	117	57	foodImage.80	FOODEEG_Images\0796.jpg	NY	Left	No	0.870317000197247	0	495260	234
968.349609375	1	taste	trialStart	2	118	58	foodImage.26	FOODEEG_Images\0262.jpg	NY	Left	No	0.82581129996106	0	495796	251
969.4140625	2	taste	foodImageDisplay	2	118	58	foodImage.26	FOODEEG_Images\0262.jpg	NY	Left	No	0.82581129996106	0	496341	252
971.478515625	0.82581129996106	taste	choicePhaseStart	2	118	58	foodImage.26	FOODEEG_Images\0262.jpg	NY	Left	No	0.82581129996106	0	497398	253
972.29296875	0	taste	response	2	118	58	foodImage.26	FOODEEG_Images\0262.jpg	NY	Left	No	0.82581129996106	0	497815	234
973.34375	1	health	trialStart	2	119	59	foodImage.105	FOODEEG_Images\0913.jpg	YN	Right	No	0.836266099940985	0	498353	251
974.3828125	2	health	foodImageDisplay	2	119	59	foodImage.105	FOODEEG_Images\0913.jpg	YN	Right	No	0.836266099940985	0	498885	252
976.451171875	0.836266099940985	health	choicePhaseStart	2	119	59	foodImage.105	FOODEEG_Images\0913.jpg	YN	Right	No	0.836266099940985	0	499944	253
977.27734375	0	health	response	2	119	59	foodImage.105	FOODEEG_Images\0913.jpg	YN	Right	No	0.836266099940985	0	500367	235
978.3203125	1	taste	trialStart	2	120	60	foodImage.38	FOODEEG_Images\0365.jpg	NY	Right	Yes	1.57439409988001	0	500901	251
979.359375	2	taste	foodImageDisplay	2	120	60	foodImage.38	FOODEEG_Images\0365.jpg	NY	Right	Yes	1.57439409988001	0	501433	252
981.427734375	1.57439409988001	taste	choicePhaseStart	2	120	60	foodImage.38	FOODEEG_Images\0365.jpg	NY	Right	Yes	1.57439409988001	0	502492	253
982.998046875	0	taste	response	2	120	60	foodImage.38	FOODEEG_Images\0365.jpg	NY	Right	Yes	1.57439409988001	0	503296	235
985.041015625	79.6015625	n/a	blockEnd	n/a	n/a	n/a	n/a	n/a	n/a	n/a	n/a	n/a	n/a	504342	254
1064.642578125	2	n/a	blockStart	3	n/a	n/a	n/a	n/a	n/a	n/a	n/a	n/a	n/a	545098	250
1066.677734375	1	decision	trialStart	3	121	1	foodImage.14	FOODEEG_Images\0188.jpg	YN	Left	Yes	0.927499499870464	0	546140	251
1067.73828125	2	decision	foodImageDisplay	3	121	1	foodImage.14	FOODEEG_Images\0188.jpg	YN	Left	Yes	0.927499499870464	0	546683	252
1069.802734375	0.927499499870464	decision	choicePhaseStart	3	121	1	foodImage.14	FOODEEG_Images\0188.jpg	YN	Left	Yes	0.927499499870464	0	547740	253
1070.72265625	0	decision	response	3	121	1	foodImage.14	FOODEEG_Images\0188.jpg	YN	Left	Yes	0.927499499870464	0	548211	234
1071.765625	1	decision	trialStart	3	122	2	foodImage.107	FOODEEG_Images\0915.jpg	NY	Left	No	1.41621010005474	0	548745	251
1072.802734375	2	decision	foodImageDisplay	3	122	2	foodImage.107	FOODEEG_Images\0915.jpg	NY	Left	No	1.41621010005474	0	549276	252
1074.8671875	1.41621010005474	decision	choicePhaseStart	3	122	2	foodImage.107	FOODEEG_Images\0915.jpg	NY	Left	No	1.41621010005474	0	550333	253
1076.2734375	0	decision	response	3	122	2	foodImage.107	FOODEEG_Images\0915.jpg	NY	Left	No	1.41621010005474	0	551053	234
1077.31640625	1	health	trialStart	3	123	3	foodImage.45	FOODEEG_Images\0478.jpg	NY	Right	Yes	0.841673100134358	0	551587	251
1078.361328125	2	health	foodImageDisplay	3	123	3	foodImage.45	FOODEEG_Images\0478.jpg	NY	Right	Yes	0.841673100134358	0	552122	252
1080.42578125	0.841673100134358	health	choicePhaseStart	3	123	3	foodImage.45	FOODEEG_Images\0478.jpg	NY	Right	Yes	0.841673100134358	0	553179	253
1081.2578125	0	health	response	3	123	3	foodImage.45	FOODEEG_Images\0478.jpg	NY	Right	Yes	0.841673100134358	0	553605	235
1082.30078125	1	health	trialStart	3	124	4	foodImage.61	FOODEEG_Images\0640.jpg	NY	Right	Yes	1.70825320016593	0	554139	251
1083.341796875	2	health	foodImageDisplay	3	124	4	foodImage.61	FOODEEG_Images\0640.jpg	NY	Right	Yes	1.70825320016593	0	554672	252
1085.40625	1.70825320016593	health	choicePhaseStart	3	124	4	foodImage.61	FOODEEG_Images\0640.jpg	NY	Right	Yes	1.70825320016593	0	555729	253
1087.10546875	0	health	response	3	124	4	foodImage.61	FOODEEG_Images\0640.jpg	NY	Right	Yes	1.70825320016593	0	556599	235
1088.154296875	1	decision	trialStart	3	125	5	foodImage.6	FOODEEG_Images\0113.jpg	NY	Right	Yes	2.01272950018756	0	557136	251
1089.1953125	2	decision	foodImageDisplay	3	125	5	foodImage.6	FOODEEG_Images\0113.jpg	NY	Right	Yes	2.01272950018756	0	557669	252
1091.259765625	2.01272950018756	decision	choicePhaseStart	3	125	5	foodImage.6	FOODEEG_Images\0113.jpg	NY	Right	Yes	2.01272950018756	0	558726	253
1093.265625	0	decision	response	3	125	5	foodImage.6	FOODEEG_Images\0113.jpg	NY	Right	Yes	2.01272950018756	0	559753	235
1094.3125	1	health	trialStart	3	126	6	foodImage.64	FOODEEG_Images\0647.jpg	NY	Right	Yes	1.52720819995739	0	560289	251
1095.37890625	2	health	foodImageDisplay	3	126	6	foodImage.64	FOODEEG_Images\0647.jpg	NY	Right	Yes	1.52720819995739	0	560835	252
1097.443359375	1.52720819995739	health	choicePhaseStart	3	126	6	foodImage.64	FOODEEG_Images\0647.jpg	NY	Right	Yes	1.52720819995739	0	561892	253
1098.9609375	0	health	response	3	126	6	foodImage.64	FOODEEG_Images\0647.jpg	NY	Right	Yes	1.52720819995739	0	562669	235
1100.001953125	1	taste	trialStart	3	127	7	foodImage.68	FOODEEG_Images\0685.jpg	YN	Left	Yes	0.718797000125051	0	563202	251
1101.080078125	2	taste	foodImageDisplay	3	127	7	foodImage.68	FOODEEG_Images\0685.jpg	YN	Left	Yes	0.718797000125051	0	563754	252
1103.146484375	0.718797000125051	taste	choicePhaseStart	3	127	7	foodImage.68	FOODEEG_Images\0685.jpg	YN	Left	Yes	0.718797000125051	0	564812	253
1103.857421875	0	taste	response	3	127	7	foodImage.68	FOODEEG_Images\0685.jpg	YN	Left	Yes	0.718797000125051	0	565176	234
1104.904296875	1	taste	trialStart	3	128	8	foodImage.105	FOODEEG_Images\0913.jpg	NY	Right	Yes	1.16493460000493	0	565712	251
1105.94140625	2	taste	foodImageDisplay	3	128	8	foodImage.105	FOODEEG_Images\0913.jpg	NY	Right	Yes	1.16493460000493	0	566243	252
1108.005859375	1.16493460000493	taste	choicePhaseStart	3	128	8	foodImage.105	FOODEEG_Images\0913.jpg	NY	Right	Yes	1.16493460000493	0	567300	253
1109.16015625	0	taste	response	3	128	8	foodImage.105	FOODEEG_Images\0913.jpg	NY	Right	Yes	1.16493460000493	0	567891	235
1110.212890625	1	taste	trialStart	3	129	9	foodImage.12	FOODEEG_Images\0181.jpg	YN	Right	No	1.18256099987775	0	568430	251
1111.25390625	2	taste	foodImageDisplay	3	129	9	foodImage.12	FOODEEG_Images\0181.jpg	YN	Right	No	1.18256099987775	0	568963	252
1113.322265625	1.18256099987775	taste	choicePhaseStart	3	129	9	foodImage.12	FOODEEG_Images\0181.jpg	YN	Right	No	1.18256099987775	0	570022	253
1114.49609375	0	taste	response	3	129	9	foodImage.12	FOODEEG_Images\0181.jpg	YN	Right	No	1.18256099987775	0	570623	235
1115.541015625	1	taste	trialStart	3	130	10	foodImage.41	FOODEEG_Images\0409.jpg	NY	Right	Yes	0.746065299957991	0	571158	251
1116.587890625	2	taste	foodImageDisplay	3	130	10	foodImage.41	FOODEEG_Images\0409.jpg	NY	Right	Yes	0.746065299957991	0	571694	252
1118.654296875	0.746065299957991	taste	choicePhaseStart	3	130	10	foodImage.41	FOODEEG_Images\0409.jpg	NY	Right	Yes	0.746065299957991	0	572752	253
1119.392578125	0	taste	response	3	130	10	foodImage.41	FOODEEG_Images\0409.jpg	NY	Right	Yes	0.746065299957991	0	573130	235
1120.435546875	1	health	trialStart	3	131	11	foodImage.11	FOODEEG_Images\0180.jpg	NY	Left	No	0.97403179993853	0	573664	251
1121.4765625	2	health	foodImageDisplay	3	131	11	foodImage.11	FOODEEG_Images\0180.jpg	NY	Left	No	0.97403179993853	0	574197	252
1123.544921875	0.97403179993853	health	choicePhaseStart	3	131	11	foodImage.11	FOODEEG_Images\0180.jpg	NY	Left	No	0.97403179993853	0	575256	253
1124.51171875	0	health	response	3	131	11	foodImage.11	FOODEEG_Images\0180.jpg	NY	Left	No	0.97403179993853	0	575751	234
1125.5546875	1	decision	trialStart	3	132	12	foodImage.45	FOODEEG_Images\0478.jpg	YN	Left	Yes	0.84295849991031	0	576285	251
1126.599609375	2	decision	foodImageDisplay	3	132	12	foodImage.45	FOODEEG_Images\0478.jpg	YN	Left	Yes	0.84295849991031	0	576820	252
1128.662109375	0.84295849991031	decision	choicePhaseStart	3	132	12	foodImage.45	FOODEEG_Images\0478.jpg	YN	Left	Yes	0.84295849991031	0	577876	253
1129.49609375	0	decision	response	3	132	12	foodImage.45	FOODEEG_Images\0478.jpg	YN	Left	Yes	0.84295849991031	0	578303	234
1130.5390625	1	taste	trialStart	3	133	13	foodImage.60	FOODEEG_Images\0614.jpg	NY	Right	Yes	0.770959499990568	0	578837	251
1131.599609375	2	taste	foodImageDisplay	3	133	13	foodImage.60	FOODEEG_Images\0614.jpg	NY	Right	Yes	0.770959499990568	0	579380	252
1133.662109375	0.770959499990568	taste	choicePhaseStart	3	133	13	foodImage.60	FOODEEG_Images\0614.jpg	NY	Right	Yes	0.770959499990568	0	580436	253
1134.423828125	0	taste	response	3	133	13	foodImage.60	FOODEEG_Images\0614.jpg	NY	Right	Yes	0.770959499990568	0	580826	235
1135.46875	1	decision	trialStart	3	134	14	foodImage.30	FOODEEG_Images\0282.jpg	YN	Left	Yes	0.767076100222766	0	581361	251
1136.509765625	2	decision	foodImageDisplay	3	134	14	foodImage.30	FOODEEG_Images\0282.jpg	YN	Left	Yes	0.767076100222766	0	581894	252
1138.57421875	0.767076100222766	decision	choicePhaseStart	3	134	14	foodImage.30	FOODEEG_Images\0282.jpg	YN	Left	Yes	0.767076100222766	0	582951	253
1139.3359375	0	decision	response	3	134	14	foodImage.30	FOODEEG_Images\0282.jpg	YN	Left	Yes	0.767076100222766	0	583341	234
1140.3828125	1	taste	trialStart	3	135	15	foodImage.3	FOODEEG_Images\0046.jpg	YN	Left	Yes	0.888283899985254	0	583877	251
1141.42578125	2	taste	foodImageDisplay	3	135	15	foodImage.3	FOODEEG_Images\0046.jpg	YN	Left	Yes	0.888283899985254	0	584411	252
1143.48828125	0.888283899985254	taste	choicePhaseStart	3	135	15	foodImage.3	FOODEEG_Images\0046.jpg	YN	Left	Yes	0.888283899985254	0	585467	253
1144.3671875	0	taste	response	3	135	15	foodImage.3	FOODEEG_Images\0046.jpg	YN	Left	Yes	0.888283899985254	0	585917	234
1145.416015625	1	health	trialStart	3	136	16	foodImage.98	FOODEEG_Images\0906.jpg	NY	Left	No	0.707558199996129	0	586454	251
1146.453125	2	health	foodImageDisplay	3	136	16	foodImage.98	FOODEEG_Images\0906.jpg	NY	Left	No	0.707558199996129	0	586985	252
1148.517578125	0.707558199996129	health	choicePhaseStart	3	136	16	foodImage.98	FOODEEG_Images\0906.jpg	NY	Left	No	0.707558199996129	0	588042	253
1149.21484375	0	health	response	3	136	16	foodImage.98	FOODEEG_Images\0906.jpg	NY	Left	No	0.707558199996129	0	588399	234
1150.259765625	1	health	trialStart	3	137	17	foodImage.110	FOODEEG_Images\0918.jpg	YN	Left	Yes	0.744211200159043	0	588934	251
1151.296875	2	health	foodImageDisplay	3	137	17	foodImage.110	FOODEEG_Images\0918.jpg	YN	Left	Yes	0.744211200159043	0	589465	252
1153.361328125	0.744211200159043	health	choicePhaseStart	3	137	17	foodImage.110	FOODEEG_Images\0918.jpg	YN	Left	Yes	0.744211200159043	0	590522	253
1154.095703125	0	health	response	3	137	17	foodImage.110	FOODEEG_Images\0918.jpg	YN	Left	Yes	0.744211200159043	0	590898	234
1155.138671875	1	decision	trialStart	3	138	18	foodImage.88	FOODEEG_Images\0878.jpg	YN	Left	Yes	0.735080600017682	0	591432	251
1156.1953125	2	decision	foodImageDisplay	3	138	18	foodImage.88	FOODEEG_Images\0878.jpg	YN	Left	Yes	0.735080600017682	0	591973	252
1158.2578125	0.735080600017682	decision	choicePhaseStart	3	138	18	foodImage.88	FOODEEG_Images\0878.jpg	YN	Left	Yes	0.735080600017682	0	593029	253
1158.982421875	0	decision	response	3	138	18	foodImage.88	FOODEEG_Images\0878.jpg	YN	Left	Yes	0.735080600017682	0	593400	234
1160.025390625	1	taste	trialStart	3	139	19	foodImage.40	FOODEEG_Images\0373.jpg	YN	Left	Yes	1.21625640010461	0	593934	251
1161.068359375	2	taste	foodImageDisplay	3	139	19	foodImage.40	FOODEEG_Images\0373.jpg	YN	Left	Yes	1.21625640010461	0	594468	252
1163.1328125	1.21625640010461	taste	choicePhaseStart	3	139	19	foodImage.40	FOODEEG_Images\0373.jpg	YN	Left	Yes	1.21625640010461	0	595525	253
1164.341796875	0	taste	response	3	139	19	foodImage.40	FOODEEG_Images\0373.jpg	YN	Left	Yes	1.21625640010461	0	596144	234
1165.3828125	1	decision	trialStart	3	140	20	foodImage.39	FOODEEG_Images\0367.jpg	NY	Right	Yes	0.764805600047112	0	596677	251
1166.419921875	2	decision	foodImageDisplay	3	140	20	foodImage.39	FOODEEG_Images\0367.jpg	NY	Right	Yes	0.764805600047112	0	597208	252
1168.482421875	0.764805600047112	decision	choicePhaseStart	3	140	20	foodImage.39	FOODEEG_Images\0367.jpg	NY	Right	Yes	0.764805600047112	0	598264	253
1169.23828125	0	decision	response	3	140	20	foodImage.39	FOODEEG_Images\0367.jpg	NY	Right	Yes	0.764805600047112	0	598651	235
1170.28125	1	taste	trialStart	3	141	21	foodImage.95	FOODEEG_Images\0903.jpg	NY	Left	No	1.48326770006679	0	599185	251
1171.318359375	2	taste	foodImageDisplay	3	141	21	foodImage.95	FOODEEG_Images\0903.jpg	NY	Left	No	1.48326770006679	0	599716	252
1173.380859375	1.48326770006679	taste	choicePhaseStart	3	141	21	foodImage.95	FOODEEG_Images\0903.jpg	NY	Left	No	1.48326770006679	0	600772	253
1174.853515625	0	taste	response	3	141	21	foodImage.95	FOODEEG_Images\0903.jpg	NY	Left	No	1.48326770006679	0	601526	234
1175.8984375	1	health	trialStart	3	142	22	foodImage.53	FOODEEG_Images\0547.jpg	NY	Right	Yes	1.19582380005158	0	602061	251
1176.955078125	2	health	foodImageDisplay	3	142	22	foodImage.53	FOODEEG_Images\0547.jpg	NY	Right	Yes	1.19582380005158	0	602602	252
1179.01953125	1.19582380005158	health	choicePhaseStart	3	142	22	foodImage.53	FOODEEG_Images\0547.jpg	NY	Right	Yes	1.19582380005158	0	603659	253
1180.205078125	0	health	response	3	142	22	foodImage.53	FOODEEG_Images\0547.jpg	NY	Right	Yes	1.19582380005158	0	604266	235
1181.251953125	1	taste	trialStart	3	143	23	foodImage.79	FOODEEG_Images\0794.jpg	NY	Right	Yes	0.809584899805486	0	604802	251
1182.294921875	2	taste	foodImageDisplay	3	143	23	foodImage.79	FOODEEG_Images\0794.jpg	NY	Right	Yes	0.809584899805486	0	605336	252
1184.357421875	0.809584899805486	taste	choicePhaseStart	3	143	23	foodImage.79	FOODEEG_Images\0794.jpg	NY	Right	Yes	0.809584899805486	0	606392	253
1185.158203125	0	taste	response	3	143	23	foodImage.79	FOODEEG_Images\0794.jpg	NY	Right	Yes	0.809584899805486	0	606802	235
1186.19921875	1	health	trialStart	3	144	24	foodImage.29	FOODEEG_Images\0278.jpg	YN	Left	Yes	1.48321029986255	0	607335	251
1187.2421875	2	health	foodImageDisplay	3	144	24	foodImage.29	FOODEEG_Images\0278.jpg	YN	Left	Yes	1.48321029986255	0	607869	252
1189.30859375	1.48321029986255	health	choicePhaseStart	3	144	24	foodImage.29	FOODEEG_Images\0278.jpg	YN	Left	Yes	1.48321029986255	0	608927	253
1190.78125	0	health	response	3	144	24	foodImage.29	FOODEEG_Images\0278.jpg	YN	Left	Yes	1.48321029986255	0	609681	234
1191.82421875	1	decision	trialStart	3	145	25	foodImage.26	FOODEEG_Images\0262.jpg	NY	Left	No	1.54725629999302	0	610215	251
1192.8671875	2	decision	foodImageDisplay	3	145	25	foodImage.26	FOODEEG_Images\0262.jpg	NY	Left	No	1.54725629999302	0	610749	252
1194.931640625	1.54725629999302	decision	choicePhaseStart	3	145	25	foodImage.26	FOODEEG_Images\0262.jpg	NY	Left	No	1.54725629999302	0	611806	253
1196.46875	0	decision	response	3	145	25	foodImage.26	FOODEEG_Images\0262.jpg	NY	Left	No	1.54725629999302	0	612593	234
1197.51171875	1	decision	trialStart	3	146	26	foodImage.67	FOODEEG_Images\0679.jpg	NY	Left	No	1.04237070004456	0	613127	251
1198.580078125	2	decision	foodImageDisplay	3	146	26	foodImage.67	FOODEEG_Images\0679.jpg	NY	Left	No	1.04237070004456	0	613674	252
1200.64453125	1.04237070004456	decision	choicePhaseStart	3	146	26	foodImage.67	FOODEEG_Images\0679.jpg	NY	Left	No	1.04237070004456	0	614731	253
1201.677734375	0	decision	response	3	146	26	foodImage.67	FOODEEG_Images\0679.jpg	NY	Left	No	1.04237070004456	0	615260	234
1202.720703125	1	health	trialStart	3	147	27	foodImage.35	FOODEEG_Images\0350.jpg	YN	Left	Yes	0.879001999972388	0	615794	251
1203.759765625	2	health	foodImageDisplay	3	147	27	foodImage.35	FOODEEG_Images\0350.jpg	YN	Left	Yes	0.879001999972388	0	616326	252
1205.822265625	0.879001999972388	health	choicePhaseStart	3	147	27	foodImage.35	FOODEEG_Images\0350.jpg	YN	Left	Yes	0.879001999972388	0	617382	253
1206.693359375	0	health	response	3	147	27	foodImage.35	FOODEEG_Images\0350.jpg	YN	Left	Yes	0.879001999972388	0	617828	234
1207.734375	1	taste	trialStart	3	148	28	foodImage.61	FOODEEG_Images\0640.jpg	YN	Left	Yes	2.22202089987695	0	618361	251
1208.77734375	2	taste	foodImageDisplay	3	148	28	foodImage.61	FOODEEG_Images\0640.jpg	YN	Left	Yes	2.22202089987695	0	618895	252
1210.83984375	2.22202089987695	taste	choicePhaseStart	3	148	28	foodImage.61	FOODEEG_Images\0640.jpg	YN	Left	Yes	2.22202089987695	0	619951	253
1213.052734375	0	taste	response	3	148	28	foodImage.61	FOODEEG_Images\0640.jpg	YN	Left	Yes	2.22202089987695	0	621084	234
1214.095703125	1	taste	trialStart	3	149	29	foodImage.19	FOODEEG_Images\0225.jpg	NY	Right	Yes	1.01740310015157	0	621618	251
1215.140625	2	taste	foodImageDisplay	3	149	29	foodImage.19	FOODEEG_Images\0225.jpg	NY	Right	Yes	1.01740310015157	0	622153	252
1217.203125	1.01740310015157	taste	choicePhaseStart	3	149	29	foodImage.19	FOODEEG_Images\0225.jpg	NY	Right	Yes	1.01740310015157	0	623209	253
1218.212890625	0	taste	response	3	149	29	foodImage.19	FOODEEG_Images\0225.jpg	NY	Right	Yes	1.01740310015157	0	623726	235
1219.26171875	1	decision	trialStart	3	150	30	foodImage.64	FOODEEG_Images\0647.jpg	YN	Left	Yes	0.871325899846852	0	624263	251
1220.318359375	2	decision	foodImageDisplay	3	150	30	foodImage.64	FOODEEG_Images\0647.jpg	YN	Left	Yes	0.871325899846852	0	624804	252
1222.3828125	0.871325899846852	decision	choicePhaseStart	3	150	30	foodImage.64	FOODEEG_Images\0647.jpg	YN	Left	Yes	0.871325899846852	0	625861	253
1223.244140625	0	decision	response	3	150	30	foodImage.64	FOODEEG_Images\0647.jpg	YN	Left	Yes	0.871325899846852	0	626302	234
1224.287109375	1	decision	trialStart	3	151	31	foodImage.91	FOODEEG_Images\0896.jpg	NY	Right	Yes	0.787811700021848	0	626836	251
1225.34765625	2	decision	foodImageDisplay	3	151	31	foodImage.91	FOODEEG_Images\0896.jpg	NY	Right	Yes	0.787811700021848	0	627379	252
1227.41015625	0.787811700021848	decision	choicePhaseStart	3	151	31	foodImage.91	FOODEEG_Images\0896.jpg	NY	Right	Yes	0.787811700021848	0	628435	253
1228.1875	0	decision	response	3	151	31	foodImage.91	FOODEEG_Images\0896.jpg	NY	Right	Yes	0.787811700021848	0	628833	235
1229.236328125	1	taste	trialStart	3	152	32	foodImage.32	FOODEEG_Images\0319.jpg	NY	Right	Yes	0.60094440006651	0	629370	251
1230.27734375	2	taste	foodImageDisplay	3	152	32	foodImage.32	FOODEEG_Images\0319.jpg	NY	Right	Yes	0.60094440006651	0	629903	252
1232.33984375	0.60094440006651	taste	choicePhaseStart	3	152	32	foodImage.32	FOODEEG_Images\0319.jpg	NY	Right	Yes	0.60094440006651	0	630959	253
1232.931640625	0	taste	response	3	152	32	foodImage.32	FOODEEG_Images\0319.jpg	NY	Right	Yes	0.60094440006651	0	631262	235
1233.974609375	1	health	trialStart	3	153	33	foodImage.5	FOODEEG_Images\0107.jpg	NY	Right	Yes	0.576175299938768	0	631796	251
1235.03125	2	health	foodImageDisplay	3	153	33	foodImage.5	FOODEEG_Images\0107.jpg	NY	Right	Yes	0.576175299938768	0	632337	252
1237.091796875	0.576175299938768	health	choicePhaseStart	3	153	33	foodImage.5	FOODEEG_Images\0107.jpg	NY	Right	Yes	0.576175299938768	0	633392	253
1237.66015625	0	health	response	3	153	33	foodImage.5	FOODEEG_Images\0107.jpg	NY	Right	Yes	0.576175299938768	0	633683	235
1238.69921875	1	health	trialStart	3	154	34	foodImage.15	FOODEEG_Images\0189.jpg	NY	Right	Yes	0.48473670007661	0	634215	251
1239.759765625	2	health	foodImageDisplay	3	154	34	foodImage.15	FOODEEG_Images\0189.jpg	NY	Right	Yes	0.48473670007661	0	634758	252
1241.828125	0.48473670007661	health	choicePhaseStart	3	154	34	foodImage.15	FOODEEG_Images\0189.jpg	NY	Right	Yes	0.48473670007661	0	635817	253
1242.306640625	0	health	response	3	154	34	foodImage.15	FOODEEG_Images\0189.jpg	NY	Right	Yes	0.48473670007661	0	636062	235
1243.349609375	1	taste	trialStart	3	155	35	foodImage.96	FOODEEG_Images\0904.jpg	NY	Left	No	1.87742800009437	0	636596	251
1244.390625	2	taste	foodImageDisplay	3	155	35	foodImage.96	FOODEEG_Images\0904.jpg	NY	Left	No	1.87742800009437	0	637129	252
1246.455078125	1.87742800009437	taste	choicePhaseStart	3	155	35	foodImage.96	FOODEEG_Images\0904.jpg	NY	Left	No	1.87742800009437	0	638186	253
1248.322265625	0	taste	response	3	155	35	foodImage.96	FOODEEG_Images\0904.jpg	NY	Left	No	1.87742800009437	0	639142	234
1249.3671875	1	health	trialStart	3	156	36	foodImage.102	FOODEEG_Images\0910.jpg	NY	Right	Yes	1.2303527998738	0	639677	251
1250.40625	2	health	foodImageDisplay	3	156	36	foodImage.102	FOODEEG_Images\0910.jpg	NY	Right	Yes	1.2303527998738	0	640209	252
1252.46875	1.2303527998738	health	choicePhaseStart	3	156	36	foodImage.102	FOODEEG_Images\0910.jpg	NY	Right	Yes	1.2303527998738	0	641265	253
1253.69140625	0	health	response	3	156	36	foodImage.102	FOODEEG_Images\0910.jpg	NY	Right	Yes	1.2303527998738	0	641891	235
1254.736328125	1	health	trialStart	3	157	37	foodImage.84	FOODEEG_Images\0830.jpg	YN	Right	No	0.938364499947056	0	642426	251
1255.794921875	2	health	foodImageDisplay	3	157	37	foodImage.84	FOODEEG_Images\0830.jpg	YN	Right	No	0.938364499947056	0	642968	252
1257.857421875	0.938364499947056	health	choicePhaseStart	3	157	37	foodImage.84	FOODEEG_Images\0830.jpg	YN	Right	No	0.938364499947056	0	644024	253
1258.787109375	0	health	response	3	157	37	foodImage.84	FOODEEG_Images\0830.jpg	YN	Right	No	0.938364499947056	0	644500	235
1259.828125	1	health	trialStart	3	158	38	foodImage.104	FOODEEG_Images\0912.jpg	NY	Right	Yes	0.746720700059086	0	645033	251
1260.8671875	2	health	foodImageDisplay	3	158	38	foodImage.104	FOODEEG_Images\0912.jpg	NY	Right	Yes	0.746720700059086	0	645565	252
1262.9296875	0.746720700059086	health	choicePhaseStart	3	158	38	foodImage.104	FOODEEG_Images\0912.jpg	NY	Right	Yes	0.746720700059086	0	646621	253
1263.666015625	0	health	response	3	158	38	foodImage.104	FOODEEG_Images\0912.jpg	NY	Right	Yes	0.746720700059086	0	646998	235
1264.70703125	1	taste	trialStart	3	159	39	foodImage.103	FOODEEG_Images\0911.jpg	NY	Left	No	0.721479899948463	0	647531	251
1265.75390625	2	taste	foodImageDisplay	3	159	39	foodImage.103	FOODEEG_Images\0911.jpg	NY	Left	No	0.721479899948463	0	648067	252
1267.818359375	0.721479899948463	taste	choicePhaseStart	3	159	39	foodImage.103	FOODEEG_Images\0911.jpg	NY	Left	No	0.721479899948463	0	649124	253
1268.529296875	0	taste	response	3	159	39	foodImage.103	FOODEEG_Images\0911.jpg	NY	Left	No	0.721479899948463	0	649488	234
1269.580078125	1	taste	trialStart	3	160	40	foodImage.10	FOODEEG_Images\0145.jpg	NY	Right	Yes	3.49976029992104	0	650026	251
1270.638671875	2	taste	foodImageDisplay	3	160	40	foodImage.10	FOODEEG_Images\0145.jpg	NY	Right	Yes	3.49976029992104	0	650568	252
1272.701171875	3.49976029992104	taste	choicePhaseStart	3	160	40	foodImage.10	FOODEEG_Images\0145.jpg	NY	Right	Yes	3.49976029992104	0	651624	253
1276.193359375	0	taste	response	3	160	40	foodImage.10	FOODEEG_Images\0145.jpg	NY	Right	Yes	3.49976029992104	0	653412	235
1277.236328125	1	decision	trialStart	3	161	41	foodImage.111	FOODEEG_Images\0919.jpg	NY	Left	No	0.878500200109556	0	653946	251
1278.27734375	2	decision	foodImageDisplay	3	161	41	foodImage.111	FOODEEG_Images\0919.jpg	NY	Left	No	0.878500200109556	0	654479	252
1280.33984375	0.878500200109556	decision	choicePhaseStart	3	161	41	foodImage.111	FOODEEG_Images\0919.jpg	NY	Left	No	0.878500200109556	0	655535	253
1281.208984375	0	decision	response	3	161	41	foodImage.111	FOODEEG_Images\0919.jpg	NY	Left	No	0.878500200109556	0	655980	234
1282.251953125	1	health	trialStart	3	162	42	foodImage.10	FOODEEG_Images\0145.jpg	NY	Right	Yes	0.743437299970537	0	656514	251
1283.30859375	2	health	foodImageDisplay	3	162	42	foodImage.10	FOODEEG_Images\0145.jpg	NY	Right	Yes	0.743437299970537	0	657055	252
1285.373046875	0.743437299970537	health	choicePhaseStart	3	162	42	foodImage.10	FOODEEG_Images\0145.jpg	NY	Right	Yes	0.743437299970537	0	658112	253
1286.10546875	0	health	response	3	162	42	foodImage.10	FOODEEG_Images\0145.jpg	NY	Right	Yes	0.743437299970537	0	658487	235
1287.150390625	1	taste	trialStart	3	163	43	foodImage.118	FOODEEG_Images\0926.jpg	YN	Right	No	0.760214899899438	0	659022	251
1288.193359375	2	taste	foodImageDisplay	3	163	43	foodImage.118	FOODEEG_Images\0926.jpg	YN	Right	No	0.760214899899438	0	659556	252
1290.2578125	0.760214899899438	taste	choicePhaseStart	3	163	43	foodImage.118	FOODEEG_Images\0926.jpg	YN	Right	No	0.760214899899438	0	660613	253
1291.009765625	0	taste	response	3	163	43	foodImage.118	FOODEEG_Images\0926.jpg	YN	Right	No	0.760214899899438	0	660998	235
1292.052734375	1	decision	trialStart	3	164	44	foodImage.28	FOODEEG_Images\0273.jpg	NY	Left	No	1.19355139997788	0	661532	251
1293.095703125	2	decision	foodImageDisplay	3	164	44	foodImage.28	FOODEEG_Images\0273.jpg	NY	Left	No	1.19355139997788	0	662066	252
1295.158203125	1.19355139997788	decision	choicePhaseStart	3	164	44	foodImage.28	FOODEEG_Images\0273.jpg	NY	Left	No	1.19355139997788	0	663122	253
1296.345703125	0	decision	response	3	164	44	foodImage.28	FOODEEG_Images\0273.jpg	NY	Left	No	1.19355139997788	0	663730	234
1297.388671875	1	taste	trialStart	3	165	45	foodImage.18	FOODEEG_Images\0202.jpg	YN	Left	Yes	0.786835900042206	0	664264	251
1298.47265625	2	taste	foodImageDisplay	3	165	45	foodImage.18	FOODEEG_Images\0202.jpg	YN	Left	Yes	0.786835900042206	0	664819	252
1300.53515625	0.786835900042206	taste	choicePhaseStart	3	165	45	foodImage.18	FOODEEG_Images\0202.jpg	YN	Left	Yes	0.786835900042206	0	665875	253
1301.3125	0	taste	response	3	165	45	foodImage.18	FOODEEG_Images\0202.jpg	YN	Left	Yes	0.786835900042206	0	666273	234
1302.35546875	1	decision	trialStart	3	166	46	foodImage.99	FOODEEG_Images\0907.jpg	NY	Left	No	1.40642130002379	0	666807	251
1303.39453125	2	decision	foodImageDisplay	3	166	46	foodImage.99	FOODEEG_Images\0907.jpg	NY	Left	No	1.40642130002379	0	667339	252
1305.458984375	1.40642130002379	decision	choicePhaseStart	3	166	46	foodImage.99	FOODEEG_Images\0907.jpg	NY	Left	No	1.40642130002379	0	668396	253
1306.857421875	0	decision	response	3	166	46	foodImage.99	FOODEEG_Images\0907.jpg	NY	Left	No	1.40642130002379	0	669112	234
1307.900390625	1	taste	trialStart	3	167	47	foodImage.119	FOODEEG_Images\0927.jpg	YN	Right	No	0.829731099773198	0	669646	251
1308.939453125	2	taste	foodImageDisplay	3	167	47	foodImage.119	FOODEEG_Images\0927.jpg	YN	Right	No	0.829731099773198	0	670178	252
1311.00390625	0.829731099773198	taste	choicePhaseStart	3	167	47	foodImage.119	FOODEEG_Images\0927.jpg	YN	Right	No	0.829731099773198	0	671235	253
1311.82421875	0	taste	response	3	167	47	foodImage.119	FOODEEG_Images\0927.jpg	YN	Right	No	0.829731099773198	0	671655	235
1312.8671875	1	health	trialStart	3	168	48	foodImage.72	FOODEEG_Images\0714.jpg	YN	Right	No	0.992003800114617	0	672189	251
1313.9296875	2	health	foodImageDisplay	3	168	48	foodImage.72	FOODEEG_Images\0714.jpg	YN	Right	No	0.992003800114617	0	672733	252
1315.994140625	0.992003800114617	health	choicePhaseStart	3	168	48	foodImage.72	FOODEEG_Images\0714.jpg	YN	Right	No	0.992003800114617	0	673790	253
1316.9765625	0	health	response	3	168	48	foodImage.72	FOODEEG_Images\0714.jpg	YN	Right	No	0.992003800114617	0	674293	235
1318.01953125	1	decision	trialStart	3	169	49	foodImage.87	FOODEEG_Images\0873.jpg	YN	Right	No	0.949528199853376	0	674827	251
1319.076171875	2	decision	foodImageDisplay	3	169	49	foodImage.87	FOODEEG_Images\0873.jpg	YN	Right	No	0.949528199853376	0	675368	252
1321.140625	0.949528199853376	decision	choicePhaseStart	3	169	49	foodImage.87	FOODEEG_Images\0873.jpg	YN	Right	No	0.949528199853376	0	676425	253
1322.080078125	0	decision	response	3	169	49	foodImage.87	FOODEEG_Images\0873.jpg	YN	Right	No	0.949528199853376	0	676906	235
1323.12890625	1	health	trialStart	3	170	50	foodImage.40	FOODEEG_Images\0373.jpg	NY	Left	No	1.98663099994883	0	677443	251
1324.169921875	2	health	foodImageDisplay	3	170	50	foodImage.40	FOODEEG_Images\0373.jpg	NY	Left	No	1.98663099994883	0	677976	252
1326.23828125	1.98663099994883	health	choicePhaseStart	3	170	50	foodImage.40	FOODEEG_Images\0373.jpg	NY	Left	No	1.98663099994883	0	679035	253
1328.216796875	0	health	response	3	170	50	foodImage.40	FOODEEG_Images\0373.jpg	NY	Left	No	1.98663099994883	0	680048	234
1329.263671875	1	taste	trialStart	3	171	51	foodImage.39	FOODEEG_Images\0367.jpg	NY	Right	Yes	3.81870940001681	0	680584	251
1330.30078125	2	taste	foodImageDisplay	3	171	51	foodImage.39	FOODEEG_Images\0367.jpg	NY	Right	Yes	3.81870940001681	0	681115	252
1332.36328125	3.81870940001681	taste	choicePhaseStart	3	171	51	foodImage.39	FOODEEG_Images\0367.jpg	NY	Right	Yes	3.81870940001681	0	682171	253
1336.17578125	0	taste	response	3	171	51	foodImage.39	FOODEEG_Images\0367.jpg	NY	Right	Yes	3.81870940001681	0	684123	235
1337.224609375	1	taste	trialStart	3	172	52	foodImage.83	FOODEEG_Images\0827.jpg	YN	Left	Yes	0.84737590001896	0	684660	251
1338.3046875	2	taste	foodImageDisplay	3	172	52	foodImage.83	FOODEEG_Images\0827.jpg	YN	Left	Yes	0.84737590001896	0	685213	252
1340.369140625	0.84737590001896	taste	choicePhaseStart	3	172	52	foodImage.83	FOODEEG_Images\0827.jpg	YN	Left	Yes	0.84737590001896	0	686270	253
1341.20703125	0	taste	response	3	172	52	foodImage.83	FOODEEG_Images\0827.jpg	YN	Left	Yes	0.84737590001896	0	686699	234
1342.248046875	1	decision	trialStart	3	173	53	foodImage.86	FOODEEG_Images\0844.jpg	YN	Left	Yes	1.14183379989117	0	687232	251
1343.302734375	2	decision	foodImageDisplay	3	173	53	foodImage.86	FOODEEG_Images\0844.jpg	YN	Left	Yes	1.14183379989117	0	687772	252
1345.3671875	1.14183379989117	decision	choicePhaseStart	3	173	53	foodImage.86	FOODEEG_Images\0844.jpg	YN	Left	Yes	1.14183379989117	0	688829	253
1346.50390625	0	decision	response	3	173	53	foodImage.86	FOODEEG_Images\0844.jpg	YN	Left	Yes	1.14183379989117	0	689411	234
1347.54296875	1	decision	trialStart	3	174	54	foodImage.13	FOODEEG_Images\0183.jpg	NY	Left	No	0.61582970013842	0	689943	251
1348.583984375	2	decision	foodImageDisplay	3	174	54	foodImage.13	FOODEEG_Images\0183.jpg	NY	Left	No	0.61582970013842	0	690476	252
1350.6484375	0.61582970013842	decision	choicePhaseStart	3	174	54	foodImage.13	FOODEEG_Images\0183.jpg	NY	Left	No	0.61582970013842	0	691533	253
1351.255859375	0	decision	response	3	174	54	foodImage.13	FOODEEG_Images\0183.jpg	NY	Left	No	0.61582970013842	0	691844	234
1352.30078125	1	health	trialStart	3	175	55	foodImage.1	FOODEEG_Images\0004.jpg	YN	Right	No	0.771913799922913	0	692379	251
1353.341796875	2	health	foodImageDisplay	3	175	55	foodImage.1	FOODEEG_Images\0004.jpg	YN	Right	No	0.771913799922913	0	692912	252
1355.41015625	0.771913799922913	health	choicePhaseStart	3	175	55	foodImage.1	FOODEEG_Images\0004.jpg	YN	Right	No	0.771913799922913	0	693971	253
1356.173828125	0	health	response	3	175	55	foodImage.1	FOODEEG_Images\0004.jpg	YN	Right	No	0.771913799922913	0	694362	235
1357.220703125	1	taste	trialStart	3	176	56	foodImage.45	FOODEEG_Images\0478.jpg	YN	Left	Yes	0.787799400044605	0	694898	251
1358.2734375	2	taste	foodImageDisplay	3	176	56	foodImage.45	FOODEEG_Images\0478.jpg	YN	Left	Yes	0.787799400044605	0	695437	252
1360.337890625	0.787799400044605	taste	choicePhaseStart	3	176	56	foodImage.45	FOODEEG_Images\0478.jpg	YN	Left	Yes	0.787799400044605	0	696494	253
1361.119140625	0	taste	response	3	176	56	foodImage.45	FOODEEG_Images\0478.jpg	YN	Left	Yes	0.787799400044605	0	696894	234
1362.162109375	1	taste	trialStart	3	177	57	foodImage.42	FOODEEG_Images\0438.jpg	NY	Left	No	1.24561250000261	0	697428	251
1363.25	2	taste	foodImageDisplay	3	177	57	foodImage.42	FOODEEG_Images\0438.jpg	NY	Left	No	1.24561250000261	0	697985	252
1365.314453125	1.24561250000261	taste	choicePhaseStart	3	177	57	foodImage.42	FOODEEG_Images\0438.jpg	NY	Left	No	1.24561250000261	0	699042	253
1366.55078125	0	taste	response	3	177	57	foodImage.42	FOODEEG_Images\0438.jpg	NY	Left	No	1.24561250000261	0	699675	234
1367.59375	1	decision	trialStart	3	178	58	foodImage.100	FOODEEG_Images\0908.jpg	YN	Left	Yes	0.71919049997814	0	700209	251
1368.6328125	2	decision	foodImageDisplay	3	178	58	foodImage.100	FOODEEG_Images\0908.jpg	YN	Left	Yes	0.71919049997814	0	700741	252
1370.697265625	0.71919049997814	decision	choicePhaseStart	3	178	58	foodImage.100	FOODEEG_Images\0908.jpg	YN	Left	Yes	0.71919049997814	0	701798	253
1371.40625	0	decision	response	3	178	58	foodImage.100	FOODEEG_Images\0908.jpg	YN	Left	Yes	0.71919049997814	0	702161	234
1372.451171875	1	decision	trialStart	3	179	59	foodImage.5	FOODEEG_Images\0107.jpg	NY	Right	Yes	1.57183889998123	0	702696	251
1373.505859375	2	decision	foodImageDisplay	3	179	59	foodImage.5	FOODEEG_Images\0107.jpg	NY	Right	Yes	1.57183889998123	0	703236	252
1375.568359375	1.57183889998123	decision	choicePhaseStart	3	179	59	foodImage.5	FOODEEG_Images\0107.jpg	NY	Right	Yes	1.57183889998123	0	704292	253
1377.134765625	0	decision	response	3	179	59	foodImage.5	FOODEEG_Images\0107.jpg	NY	Right	Yes	1.57183889998123	0	705094	235
1378.177734375	1	taste	trialStart	3	180	60	foodImage.77	FOODEEG_Images\0771.jpg	NY	Right	Yes	6.97376629989594	1	705628	251
1379.21875	2	taste	foodImageDisplay	3	180	60	foodImage.77	FOODEEG_Images\0771.jpg	NY	Right	Yes	6.97376629989594	1	706161	252
1381.28125	6.97376629989594	taste	choicePhaseStart	3	180	60	foodImage.77	FOODEEG_Images\0771.jpg	NY	Right	Yes	6.97376629989594	1	707217	253
1388.24609375	0	taste	response	3	180	60	foodImage.77	FOODEEG_Images\0771.jpg	NY	Right	Yes	6.97376629989594	1	710783	235
1390.2890625	103.88671875	n/a	blockEnd	n/a	n/a	n/a	n/a	n/a	n/a	n/a	n/a	n/a	n/a	711829	254
1494.17578125	2	n/a	blockStart	4	n/a	n/a	n/a	n/a	n/a	n/a	n/a	n/a	n/a	765019	250
1496.21484375	1	health	trialStart	4	181	1	foodImage.2	FOODEEG_Images\0028.jpg	NY	Right	Yes	0.67762769991532	0	766063	251
1497.26171875	2	health	foodImageDisplay	4	181	1	foodImage.2	FOODEEG_Images\0028.jpg	NY	Right	Yes	0.67762769991532	0	766599	252
1499.326171875	0.67762769991532	health	choicePhaseStart	4	181	1	foodImage.2	FOODEEG_Images\0028.jpg	NY	Right	Yes	0.67762769991532	0	767656	253
1499.994140625	0	health	response	4	181	1	foodImage.2	FOODEEG_Images\0028.jpg	NY	Right	Yes	0.67762769991532	0	767998	235
1501.04296875	1	health	trialStart	4	182	2	foodImage.107	FOODEEG_Images\0915.jpg	NY	Left	No	1.06631409982219	0	768535	251
1502.080078125	2	health	foodImageDisplay	4	182	2	foodImage.107	FOODEEG_Images\0915.jpg	NY	Left	No	1.06631409982219	0	769066	252
1504.1484375	1.06631409982219	health	choicePhaseStart	4	182	2	foodImage.107	FOODEEG_Images\0915.jpg	NY	Left	No	1.06631409982219	0	770125	253
1505.208984375	0	health	response	4	182	2	foodImage.107	FOODEEG_Images\0915.jpg	NY	Left	No	1.06631409982219	0	770668	234
1506.251953125	1	decision	trialStart	4	183	3	foodImage.71	FOODEEG_Images\0713.jpg	YN	Left	Yes	1.25892299995758	0	771202	251
1507.296875	2	decision	foodImageDisplay	4	183	3	foodImage.71	FOODEEG_Images\0713.jpg	YN	Left	Yes	1.25892299995758	0	771737	252
1509.365234375	1.25892299995758	decision	choicePhaseStart	4	183	3	foodImage.71	FOODEEG_Images\0713.jpg	YN	Left	Yes	1.25892299995758	0	772796	253
1510.6171875	0	decision	response	4	183	3	foodImage.71	FOODEEG_Images\0713.jpg	YN	Left	Yes	1.25892299995758	0	773437	234
1511.662109375	1	taste	trialStart	4	184	4	foodImage.104	FOODEEG_Images\0912.jpg	NY	Right	Yes	0.85552450013347	0	773972	251
1512.69921875	2	taste	foodImageDisplay	4	184	4	foodImage.104	FOODEEG_Images\0912.jpg	NY	Right	Yes	0.85552450013347	0	774503	252
1514.76171875	0.85552450013347	taste	choicePhaseStart	4	184	4	foodImage.104	FOODEEG_Images\0912.jpg	NY	Right	Yes	0.85552450013347	0	775559	253
1515.607421875	0	taste	response	4	184	4	foodImage.104	FOODEEG_Images\0912.jpg	NY	Right	Yes	0.85552450013347	0	775992	235
1516.65234375	1	taste	trialStart	4	185	5	foodImage.80	FOODEEG_Images\0796.jpg	NY	Right	Yes	0.659837400075048	0	776527	251
1517.7109375	2	taste	foodImageDisplay	4	185	5	foodImage.80	FOODEEG_Images\0796.jpg	NY	Right	Yes	0.659837400075048	0	777069	252
1519.7734375	0.659837400075048	taste	choicePhaseStart	4	185	5	foodImage.80	FOODEEG_Images\0796.jpg	NY	Right	Yes	0.659837400075048	0	778125	253
1520.423828125	0	taste	response	4	185	5	foodImage.80	FOODEEG_Images\0796.jpg	NY	Right	Yes	0.659837400075048	0	778458	235
1521.46875	1	decision	trialStart	4	186	6	foodImage.15	FOODEEG_Images\0189.jpg	YN	Right	No	1.45376029983163	0	778993	251
1522.5234375	2	decision	foodImageDisplay	4	186	6	foodImage.15	FOODEEG_Images\0189.jpg	YN	Right	No	1.45376029983163	0	779533	252
1524.587890625	1.45376029983163	decision	choicePhaseStart	4	186	6	foodImage.15	FOODEEG_Images\0189.jpg	YN	Right	No	1.45376029983163	0	780590	253
1526.033203125	0	decision	response	4	186	6	foodImage.15	FOODEEG_Images\0189.jpg	YN	Right	No	1.45376029983163	0	781330	235
1527.07421875	1	decision	trialStart	4	187	7	foodImage.36	FOODEEG_Images\0352.jpg	NY	Right	Yes	1.40114219998941	0	781863	251
1528.12890625	2	decision	foodImageDisplay	4	187	7	foodImage.36	FOODEEG_Images\0352.jpg	NY	Right	Yes	1.40114219998941	0	782403	252
1530.193359375	1.40114219998941	decision	choicePhaseStart	4	187	7	foodImage.36	FOODEEG_Images\0352.jpg	NY	Right	Yes	1.40114219998941	0	783460	253
1531.583984375	0	decision	response	4	187	7	foodImage.36	FOODEEG_Images\0352.jpg	NY	Right	Yes	1.40114219998941	0	784172	235
1532.626953125	1	health	trialStart	4	188	8	foodImage.106	FOODEEG_Images\0914.jpg	NY	Right	Yes	0.815078899962828	0	784706	251
1533.66796875	2	health	foodImageDisplay	4	188	8	foodImage.106	FOODEEG_Images\0914.jpg	NY	Right	Yes	0.815078899962828	0	785239	252
1535.73046875	0.815078899962828	health	choicePhaseStart	4	188	8	foodImage.106	FOODEEG_Images\0914.jpg	NY	Right	Yes	0.815078899962828	0	786295	253
1536.53515625	0	health	response	4	188	8	foodImage.106	FOODEEG_Images\0914.jpg	NY	Right	Yes	0.815078899962828	0	786707	235
1537.580078125	1	health	trialStart	4	189	9	foodImage.120	FOODEEG_Images\0928.jpg	YN	Right	No	0.831708600046113	0	787242	251
1538.6171875	2	health	foodImageDisplay	4	189	9	foodImage.120	FOODEEG_Images\0928.jpg	YN	Right	No	0.831708600046113	0	787773	252
1540.6796875	0.831708600046113	health	choicePhaseStart	4	189	9	foodImage.120	FOODEEG_Images\0928.jpg	YN	Right	No	0.831708600046113	0	788829	253
1541.50390625	0	health	response	4	189	9	foodImage.120	FOODEEG_Images\0928.jpg	YN	Right	No	0.831708600046113	0	789251	235
1542.55078125	1	taste	trialStart	4	190	10	foodImage.59	FOODEEG_Images\0607.jpg	NY	Right	Yes	1.04195280000567	0	789787	251
1543.599609375	2	taste	foodImageDisplay	4	190	10	foodImage.59	FOODEEG_Images\0607.jpg	NY	Right	Yes	1.04195280000567	0	790324	252
1545.662109375	1.04195280000567	taste	choicePhaseStart	4	190	10	foodImage.59	FOODEEG_Images\0607.jpg	NY	Right	Yes	1.04195280000567	0	791380	253
1546.6953125	0	taste	response	4	190	10	foodImage.59	FOODEEG_Images\0607.jpg	NY	Right	Yes	1.04195280000567	0	791909	235
1547.744140625	1	decision	trialStart	4	191	11	foodImage.2	FOODEEG_Images\0028.jpg	NY	Right	Yes	1.10248490003869	0	792446	251
1548.787109375	2	decision	foodImageDisplay	4	191	11	foodImage.2	FOODEEG_Images\0028.jpg	NY	Right	Yes	1.10248490003869	0	792980	252
1550.849609375	1.10248490003869	decision	choicePhaseStart	4	191	11	foodImage.2	FOODEEG_Images\0028.jpg	NY	Right	Yes	1.10248490003869	0	794036	253
1551.943359375	0	decision	response	4	191	11	foodImage.2	FOODEEG_Images\0028.jpg	NY	Right	Yes	1.10248490003869	0	794596	235
1552.984375	1	health	trialStart	4	192	12	foodImage.16	FOODEEG_Images\0196.jpg	YN	Left	Yes	1.55748660000972	0	795129	251
1554.04296875	2	health	foodImageDisplay	4	192	12	foodImage.16	FOODEEG_Images\0196.jpg	YN	Left	Yes	1.55748660000972	0	795671	252
1556.107421875	1.55748660000972	health	choicePhaseStart	4	192	12	foodImage.16	FOODEEG_Images\0196.jpg	YN	Left	Yes	1.55748660000972	0	796728	253
1557.654296875	0	health	response	4	192	12	foodImage.16	FOODEEG_Images\0196.jpg	YN	Left	Yes	1.55748660000972	0	797520	234
1558.697265625	1	health	trialStart	4	193	13	foodImage.51	FOODEEG_Images\0536.jpg	NY	Left	No	0.888465499971062	0	798054	251
