onset	duration	trial_type	event_type	block	trial_total	trial_in_block	food_image_code	food_image_path	button_position	resp_position	resp_choice	choice_rt	resp_too_slow	sample	trigger
379.271484375	2	n/a	blockStart	1	n/a	n/a	n/a	n/a	n/a	n/a	n/a	n/a	n/a	194188	250
381.30859375	1	taste	trialStart	1	1	1	foodImage.116	FOODEEG_Images\0924.jpg	YN	Right	No	1.418531699921	0	195231	251
382.353515625	2	taste	foodImageDisplay	1	1	1	foodImage.116	FOODEEG_Images\0924.jpg	YN	Right	No	1.418531699921	0	195766	252
384.416015625	1.418531699921	taste	choicePhaseStart	1	1	1	foodImage.116	FOODEEG_Images\0924.jpg	YN	Right	No	1.418531699921	0	196822	253
385.826171875	0	taste	response	1	1	1	foodImage.116	FOODEEG_Images\0924.jpg	YN	Right	No	1.418531699921	0	197544	235
386.9453125	1	taste	trialStart	1	2	2	foodImage.95	FOODEEG_Images\0903.jpg	YN	Right	No	1.36885520000942	0	198117	251
387.986328125	2	taste	foodImageDisplay	1	2	2	foodImage.95	FOODEEG_Images\0903.jpg	YN	Right	No	1.36885520000942	0	198650	252
390.048828125	1.36885520000942	taste	choicePhaseStart	1	2	2	foodImage.95	FOODEEG_Images\0903.jpg	YN	Right	No	1.36885520000942	0	199706	253
391.41015625	0	taste	response	1	2	2	foodImage.95	FOODEEG_Images\0903.jpg	YN	Right	No	1.36885520000942	0	200403	235
392.4609375	1	taste	trialStart	1	3	3	foodImage.16	FOODEEG_Images\0196.jpg	YN	Left	Yes	1.37051309994422	0	200941	251
393.517578125	2	taste	foodImageDisplay	1	3	3	foodImage.16	FOODEEG_Images\0196.jpg	YN	Left	Yes	1.37051309994422	0	201482	252
395.5859375	1.37051309994422	taste	choicePhaseStart	1	3	3	foodImage.16	FOODEEG_Images\0196.jpg	YN	Left	Yes	1.37051309994422	0	202541	253
396.9453125	0	taste	response	1	3	3	foodImage.16	FOODEEG_Images\0196.jpg	YN	Left	Yes	1.37051309994422	0	203237	234
397.998046875	1	health	trialStart	1	4	4	foodImage.15	FOODEEG_Images\0189.jpg	YN	Left	Yes	3.32755769998766	0	203776	251
399.068359375	2	health	foodImageDisplay	1	4	4	foodImage.15	FOODEEG_Images\0189.jpg	YN	Left	Yes	3.32755769998766	0	204324	252
401.130859375	3.32755769998766	health	choicePhaseStart	1	4	4	foodImage.15	FOODEEG_Images\0189.jpg	YN	Left	Yes	3.32755769998766	0	205380	253
404.44921875	0	health	response	1	4	4	foodImage.15	FOODEEG_Images\0189.jpg	YN	Left	Yes	3.32755769998766	0	207079	234
405.4921875	1	health	trialStart	1	5	5	foodImage.29	FOODEEG_Images\0278.jpg	YN	Left	Yes	0.885226899990812	0	207613	251
406.5390625	2	health	foodImageDisplay	1	5	5	foodImage.29	FOODEEG_Images\0278.jpg	YN	Left	Yes	0.885226899990812	0	208149	252
408.603515625	0.885226899990812	health	choicePhaseStart	1	5	5	foodImage.29	FOODEEG_Images\0278.jpg	YN	Left	Yes	0.885226899990812	0	209206	253
409.48046875	0	health	response	1	5	5	foodImage.29	FOODEEG_Images\0278.jpg	YN	Left	Yes	0.885226899990812	0	209655	234
410.533203125	1	taste	trialStart	1	6	6	foodImage.13	FOODEEG_Images\0183.jpg	NY	Right	Yes	1.08073990000412	0	210194	251
411.576171875	2	taste	foodImageDisplay	1	6	6	foodImage.13	FOODEEG_Images\0183.jpg	NY	Right	Yes	1.08073990000412	0	210728	252
413.638671875	1.08073990000412	taste	choicePhaseStart	1	6	6	foodImage.13	FOODEEG_Images\0183.jpg	NY	Right	Yes	1.08073990000412	0	211784	253
414.712890625	0	taste	response	1	6	6	foodImage.13	FOODEEG_Images\0183.jpg	NY	Right	Yes	1.08073990000412	0	212334	235
415.765625	1	decision	trialStart	1	7	7	foodImage.95	FOODEEG_Images\0903.jpg	YN	Right	No	1.37436290003825	0	212873	251
416.8046875	2	decision	foodImageDisplay	1	7	7	foodImage.95	FOODEEG_Images\0903.jpg	YN	Right	No	1.37436290003825	0	213405	252
418.8671875	1.37436290003825	decision	choicePhaseStart	1	7	7	foodImage.95	FOODEEG_Images\0903.jpg	YN	Right	No	1.37436290003825	0	214461	253
420.232421875	0	decision	response	1	7	7	foodImage.95	FOODEEG_Images\0903.jpg	YN	Right	No	1.37436290003825	0	215160	235
421.27734375	1	decision	trialStart	1	8	8	foodImage.77	FOODEEG_Images\0771.jpg	NY	Right	Yes	1.10884020000231	0	215695	251
422.333984375	2	decision	foodImageDisplay	1	8	8	foodImage.77	FOODEEG_Images\0771.jpg	NY	Right	Yes	1.10884020000231	0	216236	252
424.396484375	1.10884020000231	decision	choicePhaseStart	1	8	8	foodImage.77	FOODEEG_Images\0771.jpg	NY	Right	Yes	1.10884020000231	0	217292	253
425.498046875	0	decision	response	1	8	8	foodImage.77	FOODEEG_Images\0771.jpg	NY	Right	Yes	1.10884020000231	0	217856	235
426.54296875	1	taste	trialStart	1	9	9	foodImage.36	FOODEEG_Images\0352.jpg	YN	Right	No	1.48036759998649	0	218391	251
427.6015625	2	taste	foodImageDisplay	1	9	9	foodImage.36	FOODEEG_Images\0352.jpg	YN	Right	No	1.48036759998649	0	218933	252
429.6640625	1.48036759998649	taste	choicePhaseStart	1	9	9	foodImage.36	FOODEEG_Images\0352.jpg	YN	Right	No	1.48036759998649	0	219989	253
431.13671875	0	taste	response	1	9	9	foodImage.36	FOODEEG_Images\0352.jpg	YN	Right	No	1.48036759998649	0	220743	235
432.177734375	1	health	trialStart	1	10	10	foodImage.101	FOODEEG_Images\0909.jpg	YN	Right	No	1.46866440004669	0	221276	251
433.228515625	2	health	foodImageDisplay	1	10	10	foodImage.101	FOODEEG_Images\0909.jpg	YN	Right	No	1.46866440004669	0	221814	252
435.291015625	1.46866440004669	health	choicePhaseStart	1	10	10	foodImage.101	FOODEEG_Images\0909.jpg	YN	Right	No	1.46866440004669	0	222870	253
436.751953125	0	health	response	1	10	10	foodImage.101	FOODEEG_Images\0909.jpg	YN	Right	No	1.46866440004669	0	223618	235
437.796875	1	decision	trialStart	1	11	11	foodImage.53	FOODEEG_Images\0547.jpg	NY	Left	No	1.055749299936	0	224153	251
438.857421875	2	decision	foodImageDisplay	1	11	11	foodImage.53	FOODEEG_Images\0547.jpg	NY	Left	No	1.055749299936	0	224696	252
440.919921875	1.055749299936	decision	choicePhaseStart	1	11	11	foodImage.53	FOODEEG_Images\0547.jpg	NY	Left	No	1.055749299936	0	225752	253
441.96875	0	decision	response	1	11	11	foodImage.53	FOODEEG_Images\0547.jpg	NY	Left	No	1.055749299936	0	226289	234
443.009765625	1	decision	trialStart	1	12	12	foodImage.43	FOODEEG_Images\0445.jpg	YN	Left	Yes	1.22918060002849	0	226822	251
444.087890625	2	decision	foodImageDisplay	1	12	12	foodImage.43	FOODEEG_Images\0445.jpg	YN	Left	Yes	1.22918060002849	0	227374	252
446.150390625	1.22918060002849	decision	choicePhaseStart	1	12	12	foodImage.43	FOODEEG_Images\0445.jpg	YN	Left	Yes	1.22918060002849	0	228430	253
447.37109375	0	decision	response	1	12	12	foodImage.43	FOODEEG_Images\0445.jpg	YN	Left	Yes	1.22918060002849	0	229055	234
448.4140625	1	decision	trialStart	1	13	13	foodImage.83	FOODEEG_Images\0827.jpg	YN	Left	Yes	0.657697199960239	0	229589	251
449.470703125	2	decision	foodImageDisplay	1	13	13	foodImage.83	FOODEEG_Images\0827.jpg	YN	Left	Yes	0.657697199960239	0	230130	252
451.53515625	0.657697199960239	decision	choicePhaseStart	1	13	13	foodImage.83	FOODEEG_Images\0827.jpg	YN	Left	Yes	0.657697199960239	0	231187	253
452.18359375	0	decision	response	1	13	13	foodImage.83	FOODEEG_Images\0827.jpg	YN	Left	Yes	0.657697199960239	0	231519	234
453.234375	1	health	trialStart	1	14	14	foodImage.108	FOODEEG_Images\0916.jpg	YN	Right	No	2.07973270001821	0	232057	251
454.2734375	2	health	foodImageDisplay	1	14	14	foodImage.108	FOODEEG_Images\0916.jpg	YN	Right	No	2.07973270001821	0	232589	252
456.3359375	2.07973270001821	health	choicePhaseStart	1	14	14	foodImage.108	FOODEEG_Images\0916.jpg	YN	Right	No	2.07973270001821	0	233645	253
458.408203125	0	health	response	1	14	14	foodImage.108	FOODEEG_Images\0916.jpg	YN	Right	No	2.07973270001821	0	234706	235
459.451171875	1	decision	trialStart	1	15	15	foodImage.103	FOODEEG_Images\0911.jpg	NY	Left	No	1.75781159999315	0	235240	251
460.490234375	2	decision	foodImageDisplay	1	15	15	foodImage.103	FOODEEG_Images\0911.jpg	NY	Left	No	1.75781159999315	0	235772	252
462.5546875	1.75781159999315	decision	choicePhaseStart	1	15	15	foodImage.103	FOODEEG_Images\0911.jpg	NY	Left	No	1.75781159999315	0	236829	253
464.302734375	0	decision	response	1	15	15	foodImage.103	FOODEEG_Images\0911.jpg	NY	Left	No	1.75781159999315	0	237724	234
465.345703125	1	taste	trialStart	1	16	16	foodImage.118	FOODEEG_Images\0926.jpg	YN	Right	No	1.51974949997384	0	238258	251
466.400390625	2	taste	foodImageDisplay	1	16	16	foodImage.118	FOODEEG_Images\0926.jpg	YN	Right	No	1.51974949997384	0	238798	252
468.462890625	1.51974949997384	taste	choicePhaseStart	1	16	16	foodImage.118	FOODEEG_Images\0926.jpg	YN	Right	No	1.51974949997384	0	239854	253
469.974609375	0	taste	response	1	16	16	foodImage.118	FOODEEG_Images\0926.jpg	YN	Right	No	1.51974949997384	0	240628	235
471.015625	1	decision	trialStart	1	17	17	foodImage.113	FOODEEG_Images\0921.jpg	YN	Left	Yes	5.60921389993746	1	241161	251
472.0546875	2	decision	foodImageDisplay	1	17	17	foodImage.113	FOODEEG_Images\0921.jpg	YN	Left	Yes	5.60921389993746	1	241693	252
474.1171875	5.60921389993746	decision	choicePhaseStart	1	17	17	foodImage.113	FOODEEG_Images\0921.jpg	YN	Left	Yes	5.60921389993746	1	242749	253
479.71875	0	decision	response	1	17	17	foodImage.113	FOODEEG_Images\0921.jpg	YN	Left	Yes	5.60921389993746	1	245617	234
480.765625	1	health	trialStart	1	18	18	foodImage.104	FOODEEG_Images\0912.jpg	NY	Right	Yes	2.6735940000508	0	246153	251
481.8046875	2	health	foodImageDisplay	1	18	18	foodImage.104	FOODEEG_Images\0912.jpg	NY	Right	Yes	2.6735940000508	0	246685	252
483.8671875	2.6735940000508	health	choicePhaseStart	1	18	18	foodImage.104	FOODEEG_Images\0912.jpg	NY	Right	Yes	2.6735940000508	0	247741	253
486.53515625	0	health	response	1	18	18	foodImage.104	FOODEEG_Images\0912.jpg	NY	Right	Yes	2.6735940000508	0	249107	235
487.58203125	1	health	trialStart	1	19	19	foodImage.114	FOODEEG_Images\0922.jpg	YN	Right	No	1.12245380005334	0	249643	251
488.62109375	2	health	foodImageDisplay	1	19	19	foodImage.114	FOODEEG_Images\0922.jpg	YN	Right	No	1.12245380005334	0	250175	252
490.68359375	1.12245380005334	health	choicePhaseStart	1	19	19	foodImage.114	FOODEEG_Images\0922.jpg	YN	Right	No	1.12245380005334	0	251231	253
491.798828125	0	health	response	1	19	19	foodImage.114	FOODEEG_Images\0922.jpg	YN	Right	No	1.12245380005334	0	251802	235
492.83984375	1	taste	trialStart	1	20	20	foodImage.109	FOODEEG_Images\0917.jpg	NY	Right	Yes	2.03243679995649	0	252335	251
493.87890625	2	taste	foodImageDisplay	1	20	20	foodImage.109	FOODEEG_Images\0917.jpg	NY	Right	Yes	2.03243679995649	0	252867	252
495.94140625	2.03243679995649	taste	choicePhaseStart	1	20	20	foodImage.109	FOODEEG_Images\0917.jpg	NY	Right	Yes	2.03243679995649	0	253923	253
497.96484375	0	taste	response	1	20	20	foodImage.109	FOODEEG_Images\0917.jpg	NY	Right	Yes	2.03243679995649	0	254959	235
499.0078125	1	decision	trialStart	1	21	21	foodImage.27	FOODEEG_Images\0263.jpg	YN	Right	No	1.5666016000323	0	255493	251
500.05078125	2	decision	foodImageDisplay	1	21	21	foodImage.27	FOODEEG_Images\0263.jpg	YN	Right	No	1.5666016000323	0	256027	252
502.11328125	1.5666016000323	decision	choicePhaseStart	1	21	21	foodImage.27	FOODEEG_Images\0263.jpg	YN	Right	No	1.5666016000323	0	257083	253
503.669921875	0	decision	response	1	21	21	foodImage.27	FOODEEG_Images\0263.jpg	YN	Right	No	1.5666016000323	0	257880	235
504.712890625	1	taste	trialStart	1	22	22	foodImage.37	FOODEEG_Images\0359.jpg	YN	Left	Yes	1.30925199994817	0	258414	251
505.771484375	2	taste	foodImageDisplay	1	22	22	foodImage.37	FOODEEG_Images\0359.jpg	YN	Left	Yes	1.30925199994817	0	258956	252
507.83203125	1.30925199994817	taste	choicePhaseStart	1	22	22	foodImage.37	FOODEEG_Images\0359.jpg	YN	Left	Yes	1.30925199994817	0	260011	253
509.1328125	0	taste	response	1	22	22	foodImage.37	FOODEEG_Images\0359.jpg	YN	Left	Yes	1.30925199994817	0	260677	234
510.173828125	1	health	trialStart	1	23	23	foodImage.45	FOODEEG_Images\0478.jpg	YN	Left	Yes	0.97539959999267	0	261210	251
511.21875	2	health	foodImageDisplay	1	23	23	foodImage.45	FOODEEG_Images\0478.jpg	YN	Left	Yes	0.97539959999267	0	261745	252
513.287109375	0.97539959999267	health	choicePhaseStart	1	23	23	foodImage.45	FOODEEG_Images\0478.jpg	YN	Left	Yes	0.97539959999267	0	262804	253
514.251953125	0	health	response	1	23	23	foodImage.45	FOODEEG_Images\0478.jpg	YN	Left	Yes	0.97539959999267	0	263298	234
515.294921875	1	taste	trialStart	1	24	24	foodImage.68	FOODEEG_Images\0685.jpg	NY	Right	Yes	1.5207796000177	0	263832	251
516.375	2	taste	foodImageDisplay	1	24	24	foodImage.68	FOODEEG_Images\0685.jpg	NY	Right	Yes	1.5207796000177	0	264385	252
518.4375	1.5207796000177	taste	choicePhaseStart	1	24	24	foodImage.68	FOODEEG_Images\0685.jpg	NY	Right	Yes	1.5207796000177	0	265441	253
519.94921875	0	taste	response	1	24	24	foodImage.68	FOODEEG_Images\0685.jpg	NY	Right	Yes	1.5207796000177	0	266215	235
520.9921875	1	decision	trialStart	1	25	25	foodImage.79	FOODEEG_Images\0794.jpg	YN	Left	Yes	0.77837209997233	0	266749	251
522.037109375	2	decision	foodImageDisplay	1	25	25	foodImage.79	FOODEEG_Images\0794.jpg	YN	Left	Yes	0.77837209997233	0	267284	252
524.09765625	0.77837209997233	decision	choicePhaseStart	1	25	25	foodImage.79	FOODEEG_Images\0794.jpg	YN	Left	Yes	0.77837209997233	0	268339	253
524.869140625	0	decision	response	1	25	25	foodImage.79	FOODEEG_Images\0794.jpg	YN	Left	Yes	0.77837209997233	0	268734	234
525.912109375	1	health	trialStart	1	26	26	foodImage.105	FOODEEG_Images\0913.jpg	NY	Right	Yes	0.799053699942306	0	269268	251
526.951171875	2	health	foodImageDisplay	1	26	26	foodImage.105	FOODEEG_Images\0913.jpg	NY	Right	Yes	0.799053699942306	0	269800	252
529.013671875	0.799053699942306	health	choicePhaseStart	1	26	26	foodImage.105	FOODEEG_Images\0913.jpg	NY	Right	Yes	0.799053699942306	0	270856	253
529.8046875	0	health	response	1	26	26	foodImage.105	FOODEEG_Images\0913.jpg	NY	Right	Yes	0.799053699942306	0	271261	235
530.845703125	1	decision	trialStart	1	27	27	foodImage.26	FOODEEG_Images\0262.jpg	NY	Right	Yes	1.15281900006812	0	271794	251
531.91015625	2	decision	foodImageDisplay	1	27	27	foodImage.26	FOODEEG_Images\0262.jpg	NY	Right	Yes	1.15281900006812	0	272339	252
533.97265625	1.15281900006812	decision	choicePhaseStart	1	27	27	foodImage.26	FOODEEG_Images\0262.jpg	NY	Right	Yes	1.15281900006812	0	273395	253
535.1171875	0	decision	response	1	27	27	foodImage.26	FOODEEG_Images\0262.jpg	NY	Right	Yes	1.15281900006812	0	273981	235
536.1640625	1	decision	trialStart	1	28	28	foodImage.1	FOODEEG_Images\0004.jpg	NY	Left	No	1.26179649995174	0	274517	251
537.208984375	2	decision	foodImageDisplay	1	28	28	foodImage.1	FOODEEG_Images\0004.jpg	NY	Left	No	1.26179649995174	0	275052	252
539.2734375	1.26179649995174	decision	choicePhaseStart	1	28	28	foodImage.1	FOODEEG_Images\0004.jpg	NY	Left	No	1.26179649995174	0	276109	253
540.5234375	0	decision	response	1	28	28	foodImage.1	FOODEEG_Images\0004.jpg	NY	Left	No	1.26179649995174	0	276749	234
541.56640625	1	decision	trialStart	1	29	29	foodImage.109	FOODEEG_Images\0917.jpg	NY	Left	No	1.44215969997458	0	277283	251
542.603515625	2	decision	foodImageDisplay	1	29	29	foodImage.109	FOODEEG_Images\0917.jpg	NY	Left	No	1.44215969997458	0	277814	252
544.666015625	1.44215969997458	decision	choicePhaseStart	1	29	29	foodImage.109	FOODEEG_Images\0917.jpg	NY	Left	No	1.44215969997458	0	278870	253
546.099609375	0	decision	response	1	29	29	foodImage.109	FOODEEG_Images\0917.jpg	NY	Left	No	1.44215969997458	0	279604	234
547.142578125	1	taste	trialStart	1	30	30	foodImage.28	FOODEEG_Images\0273.jpg	YN	Left	Yes	1.49799699999858	0	280138	251
548.203125	2	taste	foodImageDisplay	1	30	30	foodImage.28	FOODEEG_Images\0273.jpg	YN	Left	Yes	1.49799699999858	0	280681	252
550.265625	1.49799699999858	taste	choicePhaseStart	1	30	30	foodImage.28	FOODEEG_Images\0273.jpg	YN	Left	Yes	1.49799699999858	0	281737	253
551.755859375	0	taste	response	1	30	30	foodImage.28	FOODEEG_Images\0273.jpg	YN	Left	Yes	1.49799699999858	0	282500	234
552.798828125	1	decision	trialStart	1	31	31	foodImage.71	FOODEEG_Images\0713.jpg	NY	Right	Yes	0.943586500012316	0	283034	251
553.861328125	2	decision	foodImageDisplay	1	31	31	foodImage.71	FOODEEG_Images\0713.jpg	NY	Right	Yes	0.943586500012316	0	283578	252
555.923828125	0.943586500012316	decision	choicePhaseStart	1	31	31	foodImage.71	FOODEEG_Images\0713.jpg	NY	Right	Yes	0.943586500012316	0	284634	253
556.859375	0	decision	response	1	31	31	foodImage.71	FOODEEG_Images\0713.jpg	NY	Right	Yes	0.943586500012316	0	285113	235
557.904296875	1	decision	trialStart	1	32	32	foodImage.120	FOODEEG_Images\0928.jpg	YN	Right	No	0.845233500003815	0	285648	251
558.943359375	2	decision	foodImageDisplay	1	32	32	foodImage.120	FOODEEG_Images\0928.jpg	YN	Right	No	0.845233500003815	0	286180	252
561.005859375	0.845233500003815	decision	choicePhaseStart	1	32	32	foodImage.120	FOODEEG_Images\0928.jpg	YN	Right	No	0.845233500003815	0	287236	253
561.84375	0	decision	response	1	32	32	foodImage.120	FOODEEG_Images\0928.jpg	YN	Right	No	0.845233500003815	0	287665	235
562.88671875	1	health	trialStart	1	33	33	foodImage.42	FOODEEG_Images\0438.jpg	YN	Left	Yes	0.615196000086144	0	288199	251
563.974609375	2	health	foodImageDisplay	1	33	33	foodImage.42	FOODEEG_Images\0438.jpg	YN	Left	Yes	0.615196000086144	0	288756	252
566.037109375	0.615196000086144	health	choicePhaseStart	1	33	33	foodImage.42	FOODEEG_Images\0438.jpg	YN	Left	Yes	0.615196000086144	0	289812	253
566.642578125	0	health	response	1	33	33	foodImage.42	FOODEEG_Images\0438.jpg	YN	Left	Yes	0.615196000086144	0	290122	234
567.685546875	1	taste	trialStart	1	34	34	foodImage.120	FOODEEG_Images\0928.jpg	NY	Left	No	1.71981289994437	0	290656	251
568.724609375	2	taste	foodImageDisplay	1	34	34	foodImage.120	FOODEEG_Images\0928.jpg	NY	Left	No	1.71981289994437	0	291188	252
570.787109375	1.71981289994437	taste	choicePhaseStart	1	34	34	foodImage.120	FOODEEG_Images\0928.jpg	NY	Left	No	1.71981289994437	0	292244	253
572.498046875	0	taste	response	1	34	34	foodImage.120	FOODEEG_Images\0928.jpg	NY	Left	No	1.71981289994437	0	293120	234
573.546875	1	decision	trialStart	1	35	35	foodImage.111	FOODEEG_Images\0919.jpg	YN	Right	No	1.05357999994885	0	293657	251
574.59765625	2	decision	foodImageDisplay	1	35	35	foodImage.111	FOODEEG_Images\0919.jpg	YN	Right	No	1.05357999994885	0	294195	252
576.662109375	1.05357999994885	decision	choicePhaseStart	1	35	35	foodImage.111	FOODEEG_Images\0919.jpg	YN	Right	No	1.05357999994885	0	295252	253
577.70703125	0	decision	response	1	35	35	foodImage.111	FOODEEG_Images\0919.jpg	YN	Right	No	1.05357999994885	0	295787	235
578.748046875	1	health	trialStart	1	36	36	foodImage.33	FOODEEG_Images\0329.jpg	YN	Left	Yes	0.92259950004518	0	296320	251
579.79296875	2	health	foodImageDisplay	1	36	36	foodImage.33	FOODEEG_Images\0329.jpg	YN	Left	Yes	0.92259950004518	0	296855	252
581.85546875	0.92259950004518	health	choicePhaseStart	1	36	36	foodImage.33	FOODEEG_Images\0329.jpg	YN	Left	Yes	0.92259950004518	0	297911	253
582.76953125	0	health	response	1	36	36	foodImage.33	FOODEEG_Images\0329.jpg	YN	Left	Yes	0.92259950004518	0	298379	234
583.8125	1	decision	trialStart	1	37	37	foodImage.102	FOODEEG_Images\0910.jpg	NY	Right	Yes	0.966813399922103	0	298913	251
584.853515625	2	decision	foodImageDisplay	1	37	37	foodImage.102	FOODEEG_Images\0910.jpg	NY	Right	Yes	0.966813399922103	0	299446	252
586.916015625	0.966813399922103	decision	choicePhaseStart	1	37	37	foodImage.102	FOODEEG_Images\0910.jpg	NY	Right	Yes	0.966813399922103	0	300502	253
587.875	0	decision	response	1	37	37	foodImage.102	FOODEEG_Images\0910.jpg	NY	Right	Yes	0.966813399922103	0	300993	235
588.916015625	1	health	trialStart	1	38	38	foodImage.19	FOODEEG_Images\0225.jpg	NY	Right	Yes	0.715956800035201	0	301526	251
589.9609375	2	health	foodImageDisplay	1	38	38	foodImage.19	FOODEEG_Images\0225.jpg	NY	Right	Yes	0.715956800035201	0	302061	252
592.0234375	0.715956800035201	health	choicePhaseStart	1	38	38	foodImage.19	FOODEEG_Images\0225.jpg	NY	Right	Yes	0.715956800035201	0	303117	253
592.73046875	0	health	response	1	38	38	foodImage.19	FOODEEG_Images\0225.jpg	NY	Right	Yes	0.715956800035201	0	303479	235
593.7734375	1	decision	trialStart	1	39	39	foodImage.72	FOODEEG_Images\0714.jpg	NY	Right	Yes	0.837842499953695	0	304013	251
594.81640625	2	decision	foodImageDisplay	1	39	39	foodImage.72	FOODEEG_Images\0714.jpg	NY	Right	Yes	0.837842499953695	0	304547	252
596.87890625	0.837842499953695	decision	choicePhaseStart	1	39	39	foodImage.72	FOODEEG_Images\0714.jpg	NY	Right	Yes	0.837842499953695	0	305603	253
597.705078125	0	decision	response	1	39	39	foodImage.72	FOODEEG_Images\0714.jpg	NY	Right	Yes	0.837842499953695	0	306026	235
598.74609375	1	taste	trialStart	1	40	40	foodImage.14	FOODEEG_Images\0188.jpg	NY	Right	Yes	1.12919880007394	0	306559	251
599.810546875	2	taste	foodImageDisplay	1	40	40	foodImage.14	FOODEEG_Images\0188.jpg	NY	Right	Yes	1.12919880007394	0	307104	252
601.873046875	1.12919880007394	taste	choicePhaseStart	1	40	40	foodImage.14	FOODEEG_Images\0188.jpg	NY	Right	Yes	1.12919880007394	0	308160	253
602.994140625	0	taste	response	1	40	40	foodImage.14	FOODEEG_Images\0188.jpg	NY	Right	Yes	1.12919880007394	0	308734	235
604.056640625	1	taste	trialStart	1	41	41	foodImage.63	FOODEEG_Images\0645.jpg	NY	Right	Yes	0.686852999962866	0	309278	251
605.107421875	2	taste	foodImageDisplay	1	41	41	foodImage.63	FOODEEG_Images\0645.jpg	NY	Right	Yes	0.686852999962866	0	309816	252
607.171875	0.686852999962866	taste	choicePhaseStart	1	41	41	foodImage.63	FOODEEG_Images\0645.jpg	NY	Right	Yes	0.686852999962866	0	310873	253
607.849609375	0	taste	response	1	41	41	foodImage.63	FOODEEG_Images\0645.jpg	NY	Right	Yes	0.686852999962866	0	311220	235
608.890625	1	decision	trialStart	1	42	42	foodImage.65	FOODEEG_Images\0658.jpg	YN	Left	Yes	1.89332829997875	0	311753	251
609.93359375	2	decision	foodImageDisplay	1	42	42	foodImage.65	FOODEEG_Images\0658.jpg	YN	Left	Yes	1.89332829997875	0	312287	252
611.99609375	1.89332829997875	decision	choicePhaseStart	1	42	42	foodImage.65	FOODEEG_Images\0658.jpg	YN	Left	Yes	1.89332829997875	0	313343	253
613.880859375	0	decision	response	1	42	42	foodImage.65	FOODEEG_Images\0658.jpg	YN	Left	Yes	1.89332829997875	0	314308	234
614.923828125	1	taste	trialStart	1	43	43	foodImage.12	FOODEEG_Images\0181.jpg	YN	Left	Yes	1.06123780005146	0	314842	251
615.966796875	2	taste	foodImageDisplay	1	43	43	foodImage.12	FOODEEG_Images\0181.jpg	YN	Left	Yes	1.06123780005146	0	315376	252
618.029296875	1.06123780005146	taste	choicePhaseStart	1	43	43	foodImage.12	FOODEEG_Images\0181.jpg	YN	Left	Yes	1.06123780005146	0	316432	253
619.080078125	0	taste	response	1	43	43	foodImage.12	FOODEEG_Images\0181.jpg	YN	Left	Yes	1.06123780005146	0	316970	234
620.123046875	1	decision	trialStart	1	44	44	foodImage.28	FOODEEG_Images\0273.jpg	NY	Right	Yes	2.92649069998879	0	317504	251
621.166015625	2	decision	foodImageDisplay	1	44	44	foodImage.28	FOODEEG_Images\0273.jpg	NY	Right	Yes	2.92649069998879	0	318038	252
623.228515625	2.92649069998879	decision	choicePhaseStart	1	44	44	foodImage.28	FOODEEG_Images\0273.jpg	NY	Right	Yes	2.92649069998879	0	319094	253
626.14453125	0	decision	response	1	44	44	foodImage.28	FOODEEG_Images\0273.jpg	NY	Right	Yes	2.92649069998879	0	320587	235
627.1875	1	decision	trialStart	1	45	45	foodImage.30	FOODEEG_Images\0282.jpg	NY	Right	Yes	0.810772700002417	0	321121	251
628.232421875	2	decision	foodImageDisplay	1	45	45	foodImage.30	FOODEEG_Images\0282.jpg	NY	Right	Yes	0.810772700002417	0	321656	252
630.294921875	0.810772700002417	decision	choicePhaseStart	1	45	45	foodImage.30	FOODEEG_Images\0282.jpg	NY	Right	Yes	0.810772700002417	0	322712	253
631.095703125	0	decision	response	1	45	45	foodImage.30	FOODEEG_Images\0282.jpg	NY	Right	Yes	0.810772700002417	0	323122	235
632.138671875	1	health	trialStart	1	46	46	foodImage.68	FOODEEG_Images\0685.jpg	NY	Left	No	1.11061289999634	0	323656	251
633.212890625	2	health	foodImageDisplay	1	46	46	foodImage.68	FOODEEG_Images\0685.jpg	NY	Left	No	1.11061289999634	0	324206	252
635.275390625	1.11061289999634	health	choicePhaseStart	1	46	46	foodImage.68	FOODEEG_Images\0685.jpg	NY	Left	No	1.11061289999634	0	325262	253
636.376953125	0	health	response	1	46	46	foodImage.68	FOODEEG_Images\0685.jpg	NY	Left	No	1.11061289999634	0	325826	234
637.41796875	1	decision	trialStart	1	47	47	foodImage.94	FOODEEG_Images\0902.jpg	YN	Right	No	1.71566129999701	0	326359	251
638.470703125	2	decision	foodImageDisplay	1	47	47	foodImage.94	FOODEEG_Images\0902.jpg	YN	Right	No	1.71566129999701	0	326898	252
640.533203125	1.71566129999701	decision	choicePhaseStart	1	47	47	foodImage.94	FOODEEG_Images\0902.jpg	YN	Right	No	1.71566129999701	0	327954	253
642.240234375	0	decision	response	1	47	47	foodImage.94	FOODEEG_Images\0902.jpg	YN	Right	No	1.71566129999701	0	328828	235
643.283203125	1	decision	trialStart	1	48	48	foodImage.44	FOODEEG_Images\0459.jpg	YN	Left	Yes	0.627002699999139	0	329362	251
644.3515625	2	decision	foodImageDisplay	1	48	48	foodImage.44	FOODEEG_Images\0459.jpg	YN	Left	Yes	0.627002699999139	0	329909	252
646.412109375	0.627002699999139	decision	choicePhaseStart	1	48	48	foodImage.44	FOODEEG_Images\0459.jpg	YN	Left	Yes	0.627002699999139	0	330964	253
647.03125	0	decision	response	1	48	48	foodImage.44	FOODEEG_Images\0459.jpg	YN	Left	Yes	0.627002699999139	0	331281	234
648.076171875	1	health	trialStart	1	49	49	foodImage.51	FOODEEG_Images\0536.jpg	YN	Left	Yes	2.44291740003973	0	331816	251
649.119140625	2	health	foodImageDisplay	1	49	49	foodImage.51	FOODEEG_Images\0536.jpg	YN	Left	Yes	2.44291740003973	0	332350	252
651.181640625	2.44291740003973	health	choicePhaseStart	1	49	49	foodImage.51	FOODEEG_Images\0536.jpg	YN	Left	Yes	2.44291740003973	0	333406	253
653.615234375	0	health	response	1	49	49	foodImage.51	FOODEEG_Images\0536.jpg	YN	Left	Yes	2.44291740003973	0	334652	234
654.658203125	1	decision	trialStart	1	50	50	foodImage.81	FOODEEG_Images\0797.jpg	YN	Left	Yes	0.701763099990785	0	335186	251
655.724609375	2	decision	foodImageDisplay	1	50	50	foodImage.81	FOODEEG_Images\0797.jpg	YN	Left	Yes	0.701763099990785	0	335732	252
657.787109375	0.701763099990785	decision	choicePhaseStart	1	50	50	foodImage.81	FOODEEG_Images\0797.jpg	YN	Left	Yes	0.701763099990785	0	336788	253
658.478515625	0	decision	response	1	50	50	foodImage.81	FOODEEG_Images\0797.jpg	YN	Left	Yes	0.701763099990785	0	337142	234
659.521484375	1	decision	trialStart	1	51	51	foodImage.61	FOODEEG_Images\0640.jpg	NY	Right	Yes	0.990022199926898	0	337676	251
660.564453125	2	decision	foodImageDisplay	1	51	51	foodImage.61	FOODEEG_Images\0640.jpg	NY	Right	Yes	0.990022199926898	0	338210	252
662.626953125	0.990022199926898	decision	choicePhaseStart	1	51	51	foodImage.61	FOODEEG_Images\0640.jpg	NY	Right	Yes	0.990022199926898	0	339266	253
663.607421875	0	decision	response	1	51	51	foodImage.61	FOODEEG_Images\0640.jpg	NY	Right	Yes	0.990022199926898	0	339768	235
664.650390625	1	taste	trialStart	1	52	52	foodImage.7	FOODEEG_Images\0116.jpg	YN	Left	Yes	0.942544599995017	0	340302	251
665.69140625	2	taste	foodImageDisplay	1	52	52	foodImage.7	FOODEEG_Images\0116.jpg	YN	Left	Yes	0.942544599995017	0	340835	252
667.75390625	0.942544599995017	taste	choicePhaseStart	1	52	52	foodImage.7	FOODEEG_Images\0116.jpg	YN	Left	Yes	0.942544599995017	0	341891	253
668.6875	0	taste	response	1	52	52	foodImage.7	FOODEEG_Images\0116.jpg	YN	Left	Yes	0.942544599995017	0	342369	234
669.73046875	1	decision	trialStart	1	53	53	foodImage.56	FOODEEG_Images\0586.jpg	YN	Left	Yes	1.81989730009809	0	342903	251
670.7734375	2	decision	foodImageDisplay	1	53	53	foodImage.56	FOODEEG_Images\0586.jpg	YN	Left	Yes	1.81989730009809	0	343437	252
672.8359375	1.81989730009809	decision	choicePhaseStart	1	53	53	foodImage.56	FOODEEG_Images\0586.jpg	YN	Left	Yes	1.81989730009809	0	344493	253
674.646484375	0	decision	response	1	53	53	foodImage.56	FOODEEG_Images\0586.jpg	YN	Left	Yes	1.81989730009809	0	345420	234
675.689453125	1	decision	trialStart	1	54	54	foodImage.64	FOODEEG_Images\0647.jpg	YN	Left	Yes	0.723899399978109	0	345954	251
676.75	2	decision	foodImageDisplay	1	54	54	foodImage.64	FOODEEG_Images\0647.jpg	YN	Left	Yes	0.723899399978109	0	346497	252
678.8125	0.723899399978109	decision	choicePhaseStart	1	54	54	foodImage.64	FOODEEG_Images\0647.jpg	YN	Left	Yes	0.723899399978109	0	347553	253
679.525390625	0	decision	response	1	54	54	foodImage.64	FOODEEG_Images\0647.jpg	YN	Left	Yes	0.723899399978109	0	347918	234
680.568359375	1	decision	trialStart	1	55	55	foodImage.22	FOODEEG_Images\0236.jpg	NY	Left	No	0.718142199912108	0	348452	251
681.611328125	2	decision	foodImageDisplay	1	55	55	foodImage.22	FOODEEG_Images\0236.jpg	NY	Left	No	0.718142199912108	0	348986	252
683.673828125	0.718142199912108	decision	choicePhaseStart	1	55	55	foodImage.22	FOODEEG_Images\0236.jpg	NY	Left	No	0.718142199912108	0	350042	253
684.3828125	0	decision	response	1	55	55	foodImage.22	FOODEEG_Images\0236.jpg	NY	Left	No	0.718142199912108	0	350405	234
685.42578125	1	decision	trialStart	1	56	56	foodImage.89	FOODEEG_Images\0881.jpg	YN	Left	Yes	0.904407200054266	0	350939	251
686.478515625	2	decision	foodImageDisplay	1	56	56	foodImage.89	FOODEEG_Images\0881.jpg	YN	Left	Yes	0.904407200054266	0	351478	252
688.54296875	0.904407200054266	decision	choicePhaseStart	1	56	56	foodImage.89	FOODEEG_Images\0881.jpg	YN	Left	Yes	0.904407200054266	0	352535	253
689.4375	0	decision	response	1	56	56	foodImage.89	FOODEEG_Images\0881.jpg	YN	Left	Yes	0.904407200054266	0	352993	234
690.48046875	1	health	trialStart	1	57	57	foodImage.97	FOODEEG_Images\0905.jpg	YN	Right	No	1.08176079997793	0	353527	251
691.51953125	2	health	foodImageDisplay	1	57	57	foodImage.97	FOODEEG_Images\0905.jpg	YN	Right	No	1.08176079997793	0	354059	252
693.58203125	1.08176079997793	health	choicePhaseStart	1	57	57	foodImage.97	FOODEEG_Images\0905.jpg	YN	Right	No	1.08176079997793	0	355115	253
694.654296875	0	health	response	1	57	57	foodImage.97	FOODEEG_Images\0905.jpg	YN	Right	No	1.08176079997793	0	355664	235
695.697265625	1	health	trialStart	1	58	58	foodImage.26	FOODEEG_Images\0262.jpg	NY	Right	Yes	3.17213720001746	0	356198	251
696.73828125	2	health	foodImageDisplay	1	58	58	foodImage.26	FOODEEG_Images\0262.jpg	NY	Right	Yes	3.17213720001746	0	356731	252
698.80078125	3.17213720001746	health	choicePhaseStart	1	58	58	foodImage.26	FOODEEG_Images\0262.jpg	NY	Right	Yes	3.17213720001746	0	357787	253
701.96484375	0	health	response	1	58	58	foodImage.26	FOODEEG_Images\0262.jpg	NY	Right	Yes	3.17213720001746	0	359407	235
703.0078125	1	decision	trialStart	1	59	59	foodImage.98	FOODEEG_Images\0906.jpg	NY	Right	Yes	0.78633249993436	0	359941	251
704.046875	2	decision	foodImageDisplay	1	59	59	foodImage.98	FOODEEG_Images\0906.jpg	NY	Right	Yes	0.78633249993436	0	360473	252
706.107421875	0.78633249993436	decision	choicePhaseStart	1	59	59	foodImage.98	FOODEEG_Images\0906.jpg	NY	Right	Yes	0.78633249993436	0	361528	253
706.884765625	0	decision	response	1	59	59	foodImage.98	FOODEEG_Images\0906.jpg	NY	Right	Yes	0.78633249993436	0	361926	235
707.927734375	1	decision	trialStart	1	60	60	foodImage.100	FOODEEG_Images\0908.jpg	NY	Left	No	1.92722119996324	0	362460	251
708.96875	2	decision	foodImageDisplay	1	60	60	foodImage.100	FOODEEG_Images\0908.jpg	NY	Left	No	1.92722119996324	0	362993	252
711.029296875	1.92722119996324	decision	choicePhaseStart	1	60	60	foodImage.100	FOODEEG_Images\0908.jpg	NY	Left	No	1.92722119996324	0	364048	253
712.94921875	0	decision	response	1	60	60	foodImage.100	FOODEEG_Images\0908.jpg	NY	Left	No	1.92722119996324	0	365031	234
714.990234375	8.111328125	n/a	blockEnd	n/a	n/a	n/a	n/a	n/a	n/a	n/a	n/a	n/a	n/a	366076	254
723.1015625	2	n/a	blockStart	2	n/a	n/a	n/a	n/a	n/a	n/a	n/a	n/a	n/a	370229	250
725.1328125	1	taste	trialStart	2	61	1	foodImage.74	FOODEEG_Images\0752.jpg	YN	Left	Yes	1.09997810004279	0	371269	251
726.19921875	2	taste	foodImageDisplay	2	61	1	foodImage.74	FOODEEG_Images\0752.jpg	YN	Left	Yes	1.09997810004279	0	371815	252
728.263671875	1.09997810004279	taste	choicePhaseStart	2	61	1	foodImage.74	FOODEEG_Images\0752.jpg	YN	Left	Yes	1.09997810004279	0	372872	253
729.357421875	0	taste	response	2	61	1	foodImage.74	FOODEEG_Images\0752.jpg	YN	Left	Yes	1.09997810004279	0	373432	234
730.3984375	1	health	trialStart	2	62	2	foodImage.69	FOODEEG_Images\0693.jpg	NY	Right	Yes	0.893399099935777	0	373965	251
731.44140625	2	health	foodImageDisplay	2	62	2	foodImage.69	FOODEEG_Images\0693.jpg	NY	Right	Yes	0.893399099935777	0	374499	252
733.50390625	0.893399099935777	health	choicePhaseStart	2	62	2	foodImage.69	FOODEEG_Images\0693.jpg	NY	Right	Yes	0.893399099935777	0	375555	253
734.388671875	0	health	response	2	62	2	foodImage.69	FOODEEG_Images\0693.jpg	NY	Right	Yes	0.893399099935777	0	376008	235
735.4296875	1	health	trialStart	2	63	3	foodImage.70	FOODEEG_Images\0705.jpg	NY	Left	No	2.98330369999167	0	376541	251
736.48828125	2	health	foodImageDisplay	2	63	3	foodImage.70	FOODEEG_Images\0705.jpg	NY	Left	No	2.98330369999167	0	377083	252
738.55078125	2.98330369999167	health	choicePhaseStart	2	63	3	foodImage.70	FOODEEG_Images\0705.jpg	NY	Left	No	2.98330369999167	0	378139	253
741.5234375	0	health	response	2	63	3	foodImage.70	FOODEEG_Images\0705.jpg	NY	Left	No	2.98330369999167	0	379661	234
742.564453125	1	decision	trialStart	2	64	4	foodImage.24	FOODEEG_Images\0250.jpg	YN	Left	Yes	0.727656400064006	0	380194	251
743.607421875	2	decision	foodImageDisplay	2	64	4	foodImage.24	FOODEEG_Images\0250.jpg	YN	Left	Yes	0.727656400064006	0	380728	252
745.669921875	0.727656400064006	decision	choicePhaseStart	2	64	4	foodImage.24	FOODEEG_Images\0250.jpg	YN	Left	Yes	0.727656400064006	0	381784	253
746.38671875	0	decision	response	2	64	4	foodImage.24	FOODEEG_Images\0250.jpg	YN	Left	Yes	0.727656400064006	0	382151	234
747.427734375	1	health	trialStart	2	65	5	foodImage.85	FOODEEG_Images\0841.jpg	NY	Left	No	2.12108740000986	0	382684	251
748.484375	2	health	foodImageDisplay	2	65	5	foodImage.85	FOODEEG_Images\0841.jpg	NY	Left	No	2.12108740000986	0	383225	252
750.546875	2.12108740000986	health	choicePhaseStart	2	65	5	foodImage.85	FOODEEG_Images\0841.jpg	NY	Left	No	2.12108740000986	0	384281	253
752.66015625	0	health	response	2	65	5	foodImage.85	FOODEEG_Images\0841.jpg	NY	Left	No	2.12108740000986	0	385363	234
753.703125	1	taste	trialStart	2	66	6	foodImage.70	FOODEEG_Images\0705.jpg	YN	Right	No	1.7604968000669	0	385897	251
754.7578125	2	taste	foodImageDisplay	2	66	6	foodImage.70	FOODEEG_Images\0705.jpg	YN	Right	No	1.7604968000669	0	386437	252
756.8203125	1.7604968000669	taste	choicePhaseStart	2	66	6	foodImage.70	FOODEEG_Images\0705.jpg	YN	Right	No	1.7604968000669	0	387493	253
758.572265625	0	taste	response	2	66	6	foodImage.70	FOODEEG_Images\0705.jpg	YN	Right	No	1.7604968000669	0	388390	235
759.615234375	1	health	trialStart	2	67	7	foodImage.89	FOODEEG_Images\0881.jpg	NY	Right	Yes	1.14387989998795	0	388924	251
760.669921875	2	health	foodImageDisplay	2	67	7	foodImage.89	FOODEEG_Images\0881.jpg	NY	Right	Yes	1.14387989998795	0	389464	252
762.732421875	1.14387989998795	health	choicePhaseStart	2	67	7	foodImage.89	FOODEEG_Images\0881.jpg	NY	Right	Yes	1.14387989998795	0	390520	253
763.8671875	0	health	response	2	67	7	foodImage.89	FOODEEG_Images\0881.jpg	NY	Right	Yes	1.14387989998795	0	391101	235
764.91015625	1	health	trialStart	2	68	8	foodImage.28	FOODEEG_Images\0273.jpg	YN	Left	Yes	0.94233960006386	0	391635	251
765.951171875	2	health	foodImageDisplay	2	68	8	foodImage.28	FOODEEG_Images\0273.jpg	YN	Left	Yes	0.94233960006386	0	392168	252
768.013671875	0.94233960006386	health	choicePhaseStart	2	68	8	foodImage.28	FOODEEG_Images\0273.jpg	YN	Left	Yes	0.94233960006386	0	393224	253
768.947265625	0	health	response	2	68	8	foodImage.28	FOODEEG_Images\0273.jpg	YN	Left	Yes	0.94233960006386	0	393702	234
769.990234375	1	taste	trialStart	2	69	9	foodImage.83	FOODEEG_Images\0827.jpg	YN	Left	Yes	1.28799139999319	0	394236	251
771.044921875	2	taste	foodImageDisplay	2	69	9	foodImage.83	FOODEEG_Images\0827.jpg	YN	Left	Yes	1.28799139999319	0	394776	252
773.107421875	1.28799139999319	taste	choicePhaseStart	2	69	9	foodImage.83	FOODEEG_Images\0827.jpg	YN	Left	Yes	1.28799139999319	0	395832	253
774.38671875	0	taste	response	2	69	9	foodImage.83	FOODEEG_Images\0827.jpg	YN	Left	Yes	1.28799139999319	0	396487	234
775.431640625	1	decision	trialStart	2	70	10	foodImage.5	FOODEEG_Images\0107.jpg	YN	Left	Yes	0.914471999974921	0	397022	251
776.48828125	2	decision	foodImageDisplay	2	70	10	foodImage.5	FOODEEG_Images\0107.jpg	YN	Left	Yes	0.914471999974921	0	397563	252
778.552734375	0.914471999974921	decision	choicePhaseStart	2	70	10	foodImage.5	FOODEEG_Images\0107.jpg	YN	Left	Yes	0.914471999974921	0	398620	253
779.458984375	0	decision	response	2	70	10	foodImage.5	FOODEEG_Images\0107.jpg	YN	Left	Yes	0.914471999974921	0	399084	234
780.5	1	decision	trialStart	2	71	11	foodImage.110	FOODEEG_Images\0918.jpg	YN	Right	No	0.888605599990115	0	399617	251
781.5390625	2	decision	foodImageDisplay	2	71	11	foodImage.110	FOODEEG_Images\0918.jpg	YN	Right	No	0.888605599990115	0	400149	252
783.603515625	0.888605599990115	decision	choicePhaseStart	2	71	11	foodImage.110	FOODEEG_Images\0918.jpg	YN	Right	No	0.888605599990115	0	401206	253
784.482421875	0	decision	response	2	71	11	foodImage.110	FOODEEG_Images\0918.jpg	YN	Right	No	0.888605599990115	0	401656	235
785.525390625	1	health	trialStart	2	72	12	foodImage.17	FOODEEG_Images\0199.jpg	NY	Right	Yes	0.941958900075406	0	402190	251
786.56640625	2	health	foodImageDisplay	2	72	12	foodImage.17	FOODEEG_Images\0199.jpg	NY	Right	Yes	0.941958900075406	0	402723	252
788.630859375	0.941958900075406	health	choicePhaseStart	2	72	12	foodImage.17	FOODEEG_Images\0199.jpg	NY	Right	Yes	0.941958900075406	0	403780	253
789.5625	0	health	response	2	72	12	foodImage.17	FOODEEG_Images\0199.jpg	NY	Right	Yes	0.941958900075406	0	404257	235
790.60546875	1	taste	trialStart	2	73	13	foodImage.61	FOODEEG_Images\0640.jpg	NY	Right	Yes	0.982374200015329	0	404791	251
791.646484375	2	taste	foodImageDisplay	2	73	13	foodImage.61	FOODEEG_Images\0640.jpg	NY	Right	Yes	0.982374200015329	0	405324	252
793.708984375	0.982374200015329	taste	choicePhaseStart	2	73	13	foodImage.61	FOODEEG_Images\0640.jpg	NY	Right	Yes	0.982374200015329	0	406380	253
794.681640625	0	taste	response	2	73	13	foodImage.61	FOODEEG_Images\0640.jpg	NY	Right	Yes	0.982374200015329	0	406878	235
795.724609375	1	decision	trialStart	2	74	14	foodImage.17	FOODEEG_Images\0199.jpg	YN	Left	Yes	1.90280490007717	0	407412	251
796.7734375	2	decision	foodImageDisplay	2	74	14	foodImage.17	FOODEEG_Images\0199.jpg	YN	Left	Yes	1.90280490007717	0	407949	252
798.8359375	1.90280490007717	decision	choicePhaseStart	2	74	14	foodImage.17	FOODEEG_Images\0199.jpg	YN	Left	Yes	1.90280490007717	0	409005	253
800.73046875	0	decision	response	2	74	14	foodImage.17	FOODEEG_Images\0199.jpg	YN	Left	Yes	1.90280490007717	0	409975	234
801.7734375	1	decision	trialStart	2	75	15	foodImage.107	FOODEEG_Images\0915.jpg	YN	Right	No	2.09714099997655	0	410509	251
802.810546875	2	decision	foodImageDisplay	2	75	15	foodImage.107	FOODEEG_Images\0915.jpg	YN	Right	No	2.09714099997655	0	411040	252
804.873046875	2.09714099997655	decision	choicePhaseStart	2	75	15	foodImage.107	FOODEEG_Images\0915.jpg	YN	Right	No	2.09714099997655	0	412096	253
806.9609375	0	decision	response	2	75	15	foodImage.107	FOODEEG_Images\0915.jpg	YN	Right	No	2.09714099997655	0	413165	235
808.00390625	1	decision	trialStart	2	76	16	foodImage.118	FOODEEG_Images\0926.jpg	YN	Right	No	2.06432440003846	0	413699	251
809.041015625	2	decision	foodImageDisplay	2	76	16	foodImage.118	FOODEEG_Images\0926.jpg	YN	Right	No	2.06432440003846	0	414230	252
811.11328125	2.06432440003846	decision	choicePhaseStart	2	76	16	foodImage.118	FOODEEG_Images\0926.jpg	YN	Right	No	2.06432440003846	0	415291	253
813.169921875	0	decision	response	2	76	16	foodImage.118	FOODEEG_Images\0926.jpg	YN	Right	No	2.06432440003846	0	416344	235
814.212890625	1	health	trialStart	2	77	17	foodImage.59	FOODEEG_Images\0607.jpg	NY	Right	Yes	2.31345060002059	0	416878	251
815.2578125	2	health	foodImageDisplay	2	77	17	foodImage.59	FOODEEG_Images\0607.jpg	NY	Right	Yes	2.31345060002059	0	417413	252
817.3203125	2.31345060002059	health	choicePhaseStart	2	77	17	foodImage.59	FOODEEG_Images\0607.jpg	NY	Right	Yes	2.31345060002059	0	418469	253
819.625	0	health	response	2	77	17	foodImage.59	FOODEEG_Images\0607.jpg	NY	Right	Yes	2.31345060002059	0	419649	235
820.66796875	1	taste	trialStart	2	78	18	foodImage.102	FOODEEG_Images\0910.jpg	YN	Right	No	1.95090739999432	0	420183	251
821.70703125	2	taste	foodImageDisplay	2	78	18	foodImage.102	FOODEEG_Images\0910.jpg	YN	Right	No	1.95090739999432	0	420715	252
823.76953125	1.95090739999432	taste	choicePhaseStart	2	78	18	foodImage.102	FOODEEG_Images\0910.jpg	YN	Right	No	1.95090739999432	0	421771	253
825.712890625	0	taste	response	2	78	18	foodImage.102	FOODEEG_Images\0910.jpg	YN	Right	No	1.95090739999432	0	422766	235
826.7578125	1	taste	trialStart	2	79	19	foodImage.69	FOODEEG_Images\0693.jpg	YN	Left	Yes	0.971996800042689	0	423301	251
827.798828125	2	taste	foodImageDisplay	2	79	19	foodImage.69	FOODEEG_Images\0693.jpg	YN	Left	Yes	0.971996800042689	0	423834	252
829.861328125	0.971996800042689	taste	choicePhaseStart	2	79	19	foodImage.69	FOODEEG_Images\0693.jpg	YN	Left	Yes	0.971996800042689	0	424890	253
830.82421875	0	taste	response	2	79	19	foodImage.69	FOODEEG_Images\0693.jpg	YN	Left	Yes	0.971996800042689	0	425383	234
831.865234375	1	decision	trialStart	2	80	20	foodImage.62	FOODEEG_Images\0644.jpg	NY	Right	Yes	1.05099020001944	0	425916	251
832.927734375	2	decision	foodImageDisplay	2	80	20	foodImage.62	FOODEEG_Images\0644.jpg	NY	Right	Yes	1.05099020001944	0	426460	252
834.990234375	1.05099020001944	decision	choicePhaseStart	2	80	20	foodImage.62	FOODEEG_Images\0644.jpg	NY	Right	Yes	1.05099020001944	0	427516	253
836.03125	0	decision	response	2	80	20	foodImage.62	FOODEEG_Images\0644.jpg	NY	Right	Yes	1.05099020001944	0	428049	235
837.07421875	1	health	trialStart	2	81	21	foodImage.116	FOODEEG_Images\0924.jpg	YN	Left	Yes	2.57576389994938	0	428583	251
838.130859375	2	health	foodImageDisplay	2	81	21	foodImage.116	FOODEEG_Images\0924.jpg	YN	Left	Yes	2.57576389994938	0	429124	252
840.193359375	2.57576389994938	health	choicePhaseStart	2	81	21	foodImage.116	FOODEEG_Images\0924.jpg	YN	Left	Yes	2.57576389994938	0	430180	253
842.759765625	0	health	response	2	81	21	foodImage.116	FOODEEG_Images\0924.jpg	YN	Left	Yes	2.57576389994938	0	431494	234
843.802734375	1	taste	trialStart	2	82	22	foodImage.89	FOODEEG_Images\0881.jpg	YN	Left	Yes	2.62415379995946	0	432028	251
844.859375	2	taste	foodImageDisplay	2	82	22	foodImage.89	FOODEEG_Images\0881.jpg	YN	Left	Yes	2.62415379995946	0	432569	252
846.919921875	2.62415379995946	taste	choicePhaseStart	2	82	22	foodImage.89	FOODEEG_Images\0881.jpg	YN	Left	Yes	2.62415379995946	0	433624	253
849.53515625	0	taste	response	2	82	22	foodImage.89	FOODEEG_Images\0881.jpg	YN	Left	Yes	2.62415379995946	0	434963	234
850.578125	1	health	trialStart	2	83	23	foodImage.25	FOODEEG_Images\0261.jpg	YN	Left	Yes	0.835605100030079	0	435497	251
851.62109375	2	health	foodImageDisplay	2	83	23	foodImage.25	FOODEEG_Images\0261.jpg	YN	Left	Yes	0.835605100030079	0	436031	252
853.68359375	0.835605100030079	health	choicePhaseStart	2	83	23	foodImage.25	FOODEEG_Images\0261.jpg	YN	Left	Yes	0.835605100030079	0	437087	253
854.51171875	0	health	response	2	83	23	foodImage.25	FOODEEG_Images\0261.jpg	YN	Left	Yes	0.835605100030079	0	437511	234
855.5546875	1	health	trialStart	2	84	24	foodImage.36	FOODEEG_Images\0352.jpg	NY	Left	No	1.46920650009997	0	438045	251
856.611328125	2	health	foodImageDisplay	2	84	24	foodImage.36	FOODEEG_Images\0352.jpg	NY	Left	No	1.46920650009997	0	438586	252
858.673828125	1.46920650009997	health	choicePhaseStart	2	84	24	foodImage.36	FOODEEG_Images\0352.jpg	NY	Left	No	1.46920650009997	0	439642	253
860.134765625	0	health	response	2	84	24	foodImage.36	FOODEEG_Images\0352.jpg	NY	Left	No	1.46920650009997	0	440390	234
861.177734375	1	health	trialStart	2	85	25	foodImage.107	FOODEEG_Images\0915.jpg	YN	Right	No	2.1836050999118	0	440924	251
862.21875	2	health	foodImageDisplay	2	85	25	foodImage.107	FOODEEG_Images\0915.jpg	YN	Right	No	2.1836050999118	0	441457	252
864.279296875	2.1836050999118	health	choicePhaseStart	2	85	25	foodImage.107	FOODEEG_Images\0915.jpg	YN	Right	No	2.1836050999118	0	442512	253
866.455078125	0	health	response	2	85	25	foodImage.107	FOODEEG_Images\0915.jpg	YN	Right	No	2.1836050999118	0	443626	235
867.501953125	1	decision	trialStart	2	86	26	foodImage.4	FOODEEG_Images\0065.jpg	NY	Left	No	1.29617069999222	0	444162	251
868.5859375	2	decision	foodImageDisplay	2	86	26	foodImage.4	FOODEEG_Images\0065.jpg	NY	Left	No	1.29617069999222	0	444717	252
870.6484375	1.29617069999222	decision	choicePhaseStart	2	86	26	foodImage.4	FOODEEG_Images\0065.jpg	NY	Left	No	1.29617069999222	0	445773	253
871.935546875	0	decision	response	2	86	26	foodImage.4	FOODEEG_Images\0065.jpg	NY	Left	No	1.29617069999222	0	446432	234
872.9765625	1	taste	trialStart	2	87	27	foodImage.85	FOODEEG_Images\0841.jpg	YN	Left	Yes	1.15228179993574	0	446965	251
874.033203125	2	taste	foodImageDisplay	2	87	27	foodImage.85	FOODEEG_Images\0841.jpg	YN	Left	Yes	1.15228179993574	0	447506	252
876.095703125	1.15228179993574	taste	choicePhaseStart	2	87	27	foodImage.85	FOODEEG_Images\0841.jpg	YN	Left	Yes	1.15228179993574	0	448562	253
877.23828125	0	taste	response	2	87	27	foodImage.85	FOODEEG_Images\0841.jpg	YN	Left	Yes	1.15228179993574	0	449147	234
878.28125	1	taste	trialStart	2	88	28	foodImage.60	FOODEEG_Images\0614.jpg	YN	Left	Yes	1.08771560003515	0	449681	251
879.337890625	2	taste	foodImageDisplay	2	88	28	foodImage.60	FOODEEG_Images\0614.jpg	YN	Left	Yes	1.08771560003515	0	450222	252
881.400390625	1.08771560003515	taste	choicePhaseStart	2	88	28	foodImage.60	FOODEEG_Images\0614.jpg	YN	Left	Yes	1.08771560003515	0	451278	253
882.478515625	0	taste	response	2	88	28	foodImage.60	FOODEEG_Images\0614.jpg	YN	Left	Yes	1.08771560003515	0	451830	234
883.521484375	1	decision	trialStart	2	89	29	foodImage.55	FOODEEG_Images\0567.jpg	YN	Left	Yes	1.17415970005095	0	452364	251
884.5859375	2	decision	foodImageDisplay	2	89	29	foodImage.55	FOODEEG_Images\0567.jpg	YN	Left	Yes	1.17415970005095	0	452909	252
886.6484375	1.17415970005095	decision	choicePhaseStart	2	89	29	foodImage.55	FOODEEG_Images\0567.jpg	YN	Left	Yes	1.17415970005095	0	453965	253
887.814453125	0	decision	response	2	89	29	foodImage.55	FOODEEG_Images\0567.jpg	YN	Left	Yes	1.17415970005095	0	454562	234
888.857421875	1	health	trialStart	2	90	30	foodImage.76	FOODEEG_Images\0766.jpg	YN	Left	Yes	1.00238320010249	0	455096	251
889.90234375	2	health	foodImageDisplay	2	90	30	foodImage.76	FOODEEG_Images\0766.jpg	YN	Left	Yes	1.00238320010249	0	455631	252
891.962890625	1.00238320010249	health	choicePhaseStart	2	90	30	foodImage.76	FOODEEG_Images\0766.jpg	YN	Left	Yes	1.00238320010249	0	456686	253
892.95703125	0	health	response	2	90	30	foodImage.76	FOODEEG_Images\0766.jpg	YN	Left	Yes	1.00238320010249	0	457195	234
894	1	health	trialStart	2	91	31	foodImage.32	FOODEEG_Images\0319.jpg	NY	Right	Yes	1.0520198000595	0	457729	251
895.044921875	2	health	foodImageDisplay	2	91	31	foodImage.32	FOODEEG_Images\0319.jpg	NY	Right	Yes	1.0520198000595	0	458264	252
897.107421875	1.0520198000595	health	choicePhaseStart	2	91	31	foodImage.32	FOODEEG_Images\0319.jpg	NY	Right	Yes	1.0520198000595	0	459320	253
898.150390625	0	health	response	2	91	31	foodImage.32	FOODEEG_Images\0319.jpg	NY	Right	Yes	1.0520198000595	0	459854	235
899.19140625	1	health	trialStart	2	92	32	foodImage.50	FOODEEG_Images\0529.jpg	YN	Left	Yes	0.874155300087295	0	460387	251
900.248046875	2	health	foodImageDisplay	2	92	32	foodImage.50	FOODEEG_Images\0529.jpg	YN	Left	Yes	0.874155300087295	0	460928	252
902.31640625	0.874155300087295	health	choicePhaseStart	2	92	32	foodImage.50	FOODEEG_Images\0529.jpg	YN	Left	Yes	0.874155300087295	0	461987	253
903.181640625	0	health	response	2	92	32	foodImage.50	FOODEEG_Images\0529.jpg	YN	Left	Yes	0.874155300087295	0	462430	234
904.224609375	1	taste	trialStart	2	93	33	foodImage.2	FOODEEG_Images\0028.jpg	NY	Right	Yes	1.2072227000026	0	462964	251
905.265625	2	taste	foodImageDisplay	2	93	33	foodImage.2	FOODEEG_Images\0028.jpg	NY	Right	Yes	1.2072227000026	0	463497	252
907.328125	1.2072227000026	taste	choicePhaseStart	2	93	33	foodImage.2	FOODEEG_Images\0028.jpg	NY	Right	Yes	1.2072227000026	0	464553	253
908.525390625	0	taste	response	2	93	33	foodImage.2	FOODEEG_Images\0028.jpg	NY	Right	Yes	1.2072227000026	0	465166	235
909.568359375	1	health	trialStart	2	94	34	foodImage.52	FOODEEG_Images\0539.jpg	YN	Left	Yes	0.95713820005767	0	465700	251
910.626953125	2	health	foodImageDisplay	2	94	34	foodImage.52	FOODEEG_Images\0539.jpg	YN	Left	Yes	0.95713820005767	0	466242	252
912.689453125	0.95713820005767	health	choicePhaseStart	2	94	34	foodImage.52	FOODEEG_Images\0539.jpg	YN	Left	Yes	0.95713820005767	0	467298	253
913.63671875	0	health	response	2	94	34	foodImage.52	FOODEEG_Images\0539.jpg	YN	Left	Yes	0.95713820005767	0	467783	234
914.6796875	1	taste	trialStart	2	95	35	foodImage.9	FOODEEG_Images\0138.jpg	NY	Right	Yes	1.29136990010738	0	468317	251
915.740234375	2	taste	foodImageDisplay	2	95	35	foodImage.9	FOODEEG_Images\0138.jpg	NY	Right	Yes	1.29136990010738	0	468860	252
917.802734375	1.29136990010738	taste	choicePhaseStart	2	95	35	foodImage.9	FOODEEG_Images\0138.jpg	NY	Right	Yes	1.29136990010738	0	469916	253
919.0859375	0	taste	response	2	95	35	foodImage.9	FOODEEG_Images\0138.jpg	NY	Right	Yes	1.29136990010738	0	470573	235
920.12890625	1	decision	trialStart	2	96	36	foodImage.112	FOODEEG_Images\0920.jpg	NY	Left	No	1.3515352999093	0	471107	251
921.16796875	2	decision	foodImageDisplay	2	96	36	foodImage.112	FOODEEG_Images\0920.jpg	NY	Left	No	1.3515352999093	0	471639	252
923.23046875	1.3515352999093	decision	choicePhaseStart	2	96	36	foodImage.112	FOODEEG_Images\0920.jpg	NY	Left	No	1.3515352999093	0	472695	253
924.572265625	0	decision	response	2	96	36	foodImage.112	FOODEEG_Images\0920.jpg	NY	Left	No	1.3515352999093	0	473382	234
925.615234375	1	taste	trialStart	2	97	37	foodImage.66	FOODEEG_Images\0676.jpg	NY	Right	Yes	0.908991899923421	0	473916	251
926.658203125	2	taste	foodImageDisplay	2	97	37	foodImage.66	FOODEEG_Images\0676.jpg	NY	Right	Yes	0.908991899923421	0	474450	252
928.720703125	0.908991899923421	taste	choicePhaseStart	2	97	37	foodImage.66	FOODEEG_Images\0676.jpg	NY	Right	Yes	0.908991899923421	0	475506	253
929.62109375	0	taste	response	2	97	37	foodImage.66	FOODEEG_Images\0676.jpg	NY	Right	Yes	0.908991899923421	0	475967	235
930.6640625	1	health	trialStart	2	98	38	foodImage.75	FOODEEG_Images\0763.jpg	NY	Right	Yes	0.787468799971975	0	476501	251
931.70703125	2	health	foodImageDisplay	2	98	38	foodImage.75	FOODEEG_Images\0763.jpg	NY	Right	Yes	0.787468799971975	0	477035	252
933.76953125	0.787468799971975	health	choicePhaseStart	2	98	38	foodImage.75	FOODEEG_Images\0763.jpg	NY	Right	Yes	0.787468799971975	0	478091	253
934.548828125	0	health	response	2	98	38	foodImage.75	FOODEEG_Images\0763.jpg	NY	Right	Yes	0.787468799971975	0	478490	235
935.58984375	1	decision	trialStart	2	99	39	foodImage.119	FOODEEG_Images\0927.jpg	NY	Left	No	1.36015949991997	0	479023	251
936.62890625	2	decision	foodImageDisplay	2	99	39	foodImage.119	FOODEEG_Images\0927.jpg	NY	Left	No	1.36015949991997	0	479555	252
938.69140625	1.36015949991997	decision	choicePhaseStart	2	99	39	foodImage.119	FOODEEG_Images\0927.jpg	NY	Left	No	1.36015949991997	0	480611	253
940.044921875	0	decision	response	2	99	39	foodImage.119	FOODEEG_Images\0927.jpg	NY	Left	No	1.36015949991997	0	481304	234
941.087890625	1	health	trialStart	2	100	40	foodImage.7	FOODEEG_Images\0116.jpg	YN	Right	No	1.23030979989562	0	481838	251
942.12890625	2	health	foodImageDisplay	2	100	40	foodImage.7	FOODEEG_Images\0116.jpg	YN	Right	No	1.23030979989562	0	482371	252
944.19140625	1.23030979989562	health	choicePhaseStart	2	100	40	foodImage.7	FOODEEG_Images\0116.jpg	YN	Right	No	1.23030979989562	0	483427	253
945.412109375	0	health	response	2	100	40	foodImage.7	FOODEEG_Images\0116.jpg	YN	Right	No	1.23030979989562	0	484052	235
946.453125	1	health	trialStart	2	101	41	foodImage.66	FOODEEG_Images\0676.jpg	NY	Left	No	1.00809550005943	0	484585	251
947.494140625	2	health	foodImageDisplay	2	101	41	foodImage.66	FOODEEG_Images\0676.jpg	NY	Left	No	1.00809550005943	0	485118	252
949.556640625	1.00809550005943	health	choicePhaseStart	2	101	41	foodImage.66	FOODEEG_Images\0676.jpg	NY	Left	No	1.00809550005943	0	486174	253
950.556640625	0	health	response	2	101	41	foodImage.66	FOODEEG_Images\0676.jpg	NY	Left	No	1.00809550005943	0	486686	234
951.59765625	1	health	trialStart	2	102	42	foodImage.12	FOODEEG_Images\0181.jpg	NY	Right	Yes	0.805436599999666	0	487219	251
952.640625	2	health	foodImageDisplay	2	102	42	foodImage.12	FOODEEG_Images\0181.jpg	NY	Right	Yes	0.805436599999666	0	487753	252
954.703125	0.805436599999666	health	choicePhaseStart	2	102	42	foodImage.12	FOODEEG_Images\0181.jpg	NY	Right	Yes	0.805436599999666	0	488809	253
955.5	0	health	response	2	102	42	foodImage.12	FOODEEG_Images\0181.jpg	NY	Right	Yes	0.805436599999666	0	489217	235
956.541015625	1	taste	trialStart	2	103	43	foodImage.72	FOODEEG_Images\0714.jpg	YN	Right	No	2.08800829993561	0	489750	251
957.58203125	2	taste	foodImageDisplay	2	103	43	foodImage.72	FOODEEG_Images\0714.jpg	YN	Right	No	2.08800829993561	0	490283	252
959.64453125	2.08800829993561	taste	choicePhaseStart	2	103	43	foodImage.72	FOODEEG_Images\0714.jpg	YN	Right	No	2.08800829993561	0	491339	253
961.72265625	0	taste	response	2	103	43	foodImage.72	FOODEEG_Images\0714.jpg	YN	Right	No	2.08800829993561	0	492403	235
962.765625	1	taste	trialStart	2	104	44	foodImage.110	FOODEEG_Images\0918.jpg	NY	Left	No	2.03350410005078	0	492937	251
963.8046875	2	taste	foodImageDisplay	2	104	44	foodImage.110	FOODEEG_Images\0918.jpg	NY	Left	No	2.03350410005078	0	493469	252
965.8671875	2.03350410005078	taste	choicePhaseStart	2	104	44	foodImage.110	FOODEEG_Images\0918.jpg	NY	Left	No	2.03350410005078	0	494525	253
967.890625	0	taste	response	2	104	44	foodImage.110	FOODEEG_Images\0918.jpg	NY	Left	No	2.03350410005078	0	495561	234
968.93359375	1	health	trialStart	2	105	45	foodImage.55	FOODEEG_Images\0567.jpg	YN	Left	Yes	1.52625900006387	0	496095	251
969.990234375	2	health	foodImageDisplay	2	105	45	foodImage.55	FOODEEG_Images\0567.jpg	YN	Left	Yes	1.52625900006387	0	496636	252
972.052734375	1.52625900006387	health	choicePhaseStart	2	105	45	foodImage.55	FOODEEG_Images\0567.jpg	YN	Left	Yes	1.52625900006387	0	497692	253
973.5703125	0	health	response	2	105	45	foodImage.55	FOODEEG_Images\0567.jpg	YN	Left	Yes	1.52625900006387	0	498469	234
974.611328125	1	decision	trialStart	2	106	46	foodImage.104	FOODEEG_Images\0912.jpg	YN	Right	No	2.54998519993387	0	499002	251
975.6484375	2	decision	foodImageDisplay	2	106	46	foodImage.104	FOODEEG_Images\0912.jpg	YN	Right	No	2.54998519993387	0	499533	252
977.7109375	2.54998519993387	decision	choicePhaseStart	2	106	46	foodImage.104	FOODEEG_Images\0912.jpg	YN	Right	No	2.54998519993387	0	500589	253
980.25	0	decision	response	2	106	46	foodImage.104	FOODEEG_Images\0912.jpg	YN	Right	No	2.54998519993387	0	501889	235
981.291015625	1	decision	trialStart	2	107	47	foodImage.47	FOODEEG_Images\0488.jpg	YN	Left	Yes	0.889061800087802	0	502422	251
982.33203125	2	decision	foodImageDisplay	2	107	47	foodImage.47	FOODEEG_Images\0488.jpg	YN	Left	Yes	0.889061800087802	0	502955	252
984.39453125	0.889061800087802	decision	choicePhaseStart	2	107	47	foodImage.47	FOODEEG_Images\0488.jpg	YN	Left	Yes	0.889061800087802	0	504011	253
985.275390625	0	decision	response	2	107	47	foodImage.47	FOODEEG_Images\0488.jpg	YN	Left	Yes	0.889061800087802	0	504462	234
986.318359375	1	taste	trialStart	2	108	48	foodImage.75	FOODEEG_Images\0763.jpg	YN	Left	Yes	1.11684559995774	0	504996	251
987.3828125	2	taste	foodImageDisplay	2	108	48	foodImage.75	FOODEEG_Images\0763.jpg	YN	Left	Yes	1.11684559995774	0	505541	252
989.4453125	1.11684559995774	taste	choicePhaseStart	2	108	48	foodImage.75	FOODEEG_Images\0763.jpg	YN	Left	Yes	1.11684559995774	0	506597	253
990.5546875	0	taste	response	2	108	48	foodImage.75	FOODEEG_Images\0763.jpg	YN	Left	Yes	1.11684559995774	0	507165	234
991.59765625	1	taste	trialStart	2	109	49	foodImage.4	FOODEEG_Images\0065.jpg	NY	Right	Yes	0.675294600077905	0	507699	251
992.65625	2	taste	foodImageDisplay	2	109	49	foodImage.4	FOODEEG_Images\0065.jpg	NY	Right	Yes	0.675294600077905	0	508241	252
994.71875	0.675294600077905	taste	choicePhaseStart	2	109	49	foodImage.4	FOODEEG_Images\0065.jpg	NY	Right	Yes	0.675294600077905	0	509297	253
995.38671875	0	taste	response	2	109	49	foodImage.4	FOODEEG_Images\0065.jpg	NY	Right	Yes	0.675294600077905	0	509639	235
996.4296875	1	decision	trialStart	2	110	50	foodImage.33	FOODEEG_Images\0329.jpg	NY	Right	Yes	0.96807079995051	0	510173	251
997.4765625	2	decision	foodImageDisplay	2	110	50	foodImage.33	FOODEEG_Images\0329.jpg	NY	Right	Yes	0.96807079995051	0	510709	252
999.5390625	0.96807079995051	decision	choicePhaseStart	2	110	50	foodImage.33	FOODEEG_Images\0329.jpg	NY	Right	Yes	0.96807079995051	0	511765	253
1000.498046875	0	decision	response	2	110	50	foodImage.33	FOODEEG_Images\0329.jpg	NY	Right	Yes	0.96807079995051	0	512256	235
1001.541015625	1	taste	trialStart	2	111	51	foodImage.91	FOODEEG_Images\0896.jpg	YN	Left	Yes	0.978487299988046	0	512790	251
1002.6015625	2	taste	foodImageDisplay	2	111	51	foodImage.91	FOODEEG_Images\0896.jpg	YN	Left	Yes	0.978487299988046	0	513333	252
1004.6640625	0.978487299988046	taste	choicePhaseStart	2	111	51	foodImage.91	FOODEEG_Images\0896.jpg	YN	Left	Yes	0.978487299988046	0	514389	253
1005.634765625	0	taste	response	2	111	51	foodImage.91	FOODEEG_Images\0896.jpg	YN	Left	Yes	0.978487299988046	0	514886	234
1006.677734375	1	health	trialStart	2	112	52	foodImage.119	FOODEEG_Images\0927.jpg	YN	Right	No	1.20585559995379	0	515420	251
1007.71875	2	health	foodImageDisplay	2	112	52	foodImage.119	FOODEEG_Images\0927.jpg	YN	Right	No	1.20585559995379	0	515953	252
1009.78125	1.20585559995379	health	choicePhaseStart	2	112	52	foodImage.119	FOODEEG_Images\0927.jpg	YN	Right	No	1.20585559995379	0	517009	253
1010.978515625	0	health	response	2	112	52	foodImage.119	FOODEEG_Images\0927.jpg	YN	Right	No	1.20585559995379	0	517622	235
1012.01953125	1	taste	trialStart	2	113	53	foodImage.8	FOODEEG_Images\0136.jpg	NY	Right	Yes	0.82603689993266	0	518155	251
1013.06640625	2	taste	foodImageDisplay	2	113	53	foodImage.8	FOODEEG_Images\0136.jpg	NY	Right	Yes	0.82603689993266	0	518691	252
1015.12890625	0.82603689993266	taste	choicePhaseStart	2	113	53	foodImage.8	FOODEEG_Images\0136.jpg	NY	Right	Yes	0.82603689993266	0	519747	253
1015.9453125	0	taste	response	2	113	53	foodImage.8	FOODEEG_Images\0136.jpg	NY	Right	Yes	0.82603689993266	0	520165	235
1016.986328125	1	health	trialStart	2	114	54	foodImage.82	FOODEEG_Images\0805.jpg	NY	Right	Yes	1.49761019996367	0	520698	251
1018.041015625	2	health	foodImageDisplay	2	114	54	foodImage.82	FOODEEG_Images\0805.jpg	NY	Right	Yes	1.49761019996367	0	521238	252
1020.103515625	1.49761019996367	health	choicePhaseStart	2	114	54	foodImage.82	FOODEEG_Images\0805.jpg	NY	Right	Yes	1.49761019996367	0	522294	253
1021.59375	0	health	response	2	114	54	foodImage.82	FOODEEG_Images\0805.jpg	NY	Right	Yes	1.49761019996367	0	523057	235
1022.63671875	1	health	trialStart	2	115	55	foodImage.49	FOODEEG_Images\0515.jpg	NY	Left	No	3.85359499999322	0	523591	251
1023.677734375	2	health	foodImageDisplay	2	115	55	foodImage.49	FOODEEG_Images\0515.jpg	NY	Left	No	3.85359499999322	0	524124	252
1025.740234375	3.85359499999322	health	choicePhaseStart	2	115	55	foodImage.49	FOODEEG_Images\0515.jpg	NY	Left	No	3.85359499999322	0	525180	253
1029.583984375	0	health	response	2	115	55	foodImage.49	FOODEEG_Images\0515.jpg	NY	Left	No	3.85359499999322	0	527148	234
1030.626953125	1	health	trialStart	2	116	56	foodImage.31	FOODEEG_Images\0294.jpg	YN	Right	No	1.800465599983	0	527682	251
1031.68359375	2	health	foodImageDisplay	2	116	56	foodImage.31	FOODEEG_Images\0294.jpg	YN	Right	No	1.800465599983	0	528223	252
1033.74609375	1.800465599983	health	choicePhaseStart	2	116	56	foodImage.31	FOODEEG_Images\0294.jpg	YN	Right	No	1.800465599983	0	529279	253
1035.537109375	0	health	response	2	116	56	foodImage.31	FOODEEG_Images\0294.jpg	YN	Right	No	1.800465599983	0	530196	235
1036.58203125	1	decision	trialStart	2	117	57	foodImage.87	FOODEEG_Images\0873.jpg	YN	Left	Yes	1.13728320004884	0	530731	251
1037.640625	2	decision	foodImageDisplay	2	117	57	foodImage.87	FOODEEG_Images\0873.jpg	YN	Left	Yes	1.13728320004884	0	531273	252
1039.705078125	1.13728320004884	decision	choicePhaseStart	2	117	57	foodImage.87	FOODEEG_Images\0873.jpg	YN	Left	Yes	1.13728320004884	0	532330	253
1040.83203125	0	decision	response	2	117	57	foodImage.87	FOODEEG_Images\0873.jpg	YN	Left	Yes	1.13728320004884	0	532907	234
1041.875	1	health	trialStart	2	118	58	foodImage.93	FOODEEG_Images\0901.jpg	YN	Left	Yes	1.12847729993518	0	533441	251
1042.9140625	2	health	foodImageDisplay	2	118	58	foodImage.93	FOODEEG_Images\0901.jpg	YN	Left	Yes	1.12847729993518	0	533973	252
1044.9765625	1.12847729993518	health	choicePhaseStart	2	118	58	foodImage.93	FOODEEG_Images\0901.jpg	YN	Left	Yes	1.12847729993518	0	535029	253
1046.095703125	0	health	response	2	118	58	foodImage.93	FOODEEG_Images\0901.jpg	YN	Left	Yes	1.12847729993518	0	535602	234
1047.138671875	1	taste	trialStart	2	119	59	foodImage.78	FOODEEG_Images\0787.jpg	NY	Right	Yes	2.10425739991479	0	536136	251
1048.185546875	2	taste	foodImageDisplay	2	119	59	foodImage.78	FOODEEG_Images\0787.jpg	NY	Right	Yes	2.10425739991479	0	536672	252
1050.248046875	2.10425739991479	taste	choicePhaseStart	2	119	59	foodImage.78	FOODEEG_Images\0787.jpg	NY	Right	Yes	2.10425739991479	0	537728	253
1052.34375	0	taste	response	2	119	59	foodImage.78	FOODEEG_Images\0787.jpg	NY	Right	Yes	2.10425739991479	0	538801	235
1053.388671875	1	taste	trialStart	2	120	60	foodImage.34	FOODEEG_Images\0339.jpg	NY	Right	Yes	0.803927100030705	0	539336	251
1054.4453125	2	taste	foodImageDisplay	2	120	60	foodImage.34	FOODEEG_Images\0339.jpg	NY	Right	Yes	0.803927100030705	0	539877	252
1056.5078125	0.803927100030705	taste	choicePhaseStart	2	120	60	foodImage.34	FOODEEG_Images\0339.jpg	NY	Right	Yes	0.803927100030705	0	540933	253
1057.302734375	0	taste	response	2	120	60	foodImage.34	FOODEEG_Images\0339.jpg	NY	Right	Yes	0.803927100030705	0	541340	235
1059.345703125	8.072265625	n/a	blockEnd	n/a	n/a	n/a	n/a	n/a	n/a	n/a	n/a	n/a	n/a	542386	254
1067.41796875	2	n/a	blockStart	3	n/a	n/a	n/a	n/a	n/a	n/a	n/a	n/a	n/a	546519	250
1069.44921875	1	health	trialStart	3	121	1	foodImage.78	FOODEEG_Images\0787.jpg	YN	Left	Yes	0.808185600093566	0	547559	251
1070.49609375	2	health	foodImageDisplay	3	121	1	foodImage.78	FOODEEG_Images\0787.jpg	YN	Left	Yes	0.808185600093566	0	548095	252
1072.560546875	0.808185600093566	health	choicePhaseStart	3	121	1	foodImage.78	FOODEEG_Images\0787.jpg	YN	Left	Yes	0.808185600093566	0	549152	253
1073.359375	0	health	response	3	121	1	foodImage.78	FOODEEG_Images\0787.jpg	YN	Left	Yes	0.808185600093566	0	549561	234
1074.412109375	1	health	trialStart	3	122	2	foodImage.54	FOODEEG_Images\0560.jpg	YN	Left	Yes	0.661318499944173	0	550100	251
1075.46875	2	health	foodImageDisplay	3	122	2	foodImage.54	FOODEEG_Images\0560.jpg	YN	Left	Yes	0.661318499944173	0	550641	252
1077.53125	0.661318499944173	health	choicePhaseStart	3	122	2	foodImage.54	FOODEEG_Images\0560.jpg	YN	Left	Yes	0.661318499944173	0	551697	253
1078.18359375	0	health	response	3	122	2	foodImage.54	FOODEEG_Images\0560.jpg	YN	Left	Yes	0.661318499944173	0	552031	234
1079.224609375	1	decision	trialStart	3	123	3	foodImage.97	FOODEEG_Images\0905.jpg	NY	Left	No	1.6428749000188	0	552564	251
1080.26171875	2	decision	foodImageDisplay	3	123	3	foodImage.97	FOODEEG_Images\0905.jpg	NY	Left	No	1.6428749000188	0	553095	252
1082.32421875	1.6428749000188	decision	choicePhaseStart	3	123	3	foodImage.97	FOODEEG_Images\0905.jpg	NY	Left	No	1.6428749000188	0	554151	253
1083.958984375	0	decision	response	3	123	3	foodImage.97	FOODEEG_Images\0905.jpg	NY	Left	No	1.6428749000188	0	554988	234
1085.001953125	1	taste	trialStart	3	124	4	foodImage.38	FOODEEG_Images\0365.jpg	NY	Right	Yes	1.43975989997853	0	555522	251
1086.041015625	2	taste	foodImageDisplay	3	124	4	foodImage.38	FOODEEG_Images\0365.jpg	NY	Right	Yes	1.43975989997853	0	556054	252
1088.103515625	1.43975989997853	taste	choicePhaseStart	3	124	4	foodImage.38	FOODEEG_Images\0365.jpg	NY	Right	Yes	1.43975989997853	0	557110	253
1089.53515625	0	taste	response	3	124	4	foodImage.38	FOODEEG_Images\0365.jpg	NY	Right	Yes	1.43975989997853	0	557843	235
1090.578125	1	health	trialStart	3	125	5	foodImage.41	FOODEEG_Images\0409.jpg	YN	Left	Yes	1.2630855999887	0	558377	251
1091.625	2	health	foodImageDisplay	3	125	5	foodImage.41	FOODEEG_Images\0409.jpg	YN	Left	Yes	1.2630855999887	0	558913	252
1093.6875	1.2630855999887	health	choicePhaseStart	3	125	5	foodImage.41	FOODEEG_Images\0409.jpg	YN	Left	Yes	1.2630855999887	0	559969	253
1094.94140625	0	health	response	3	125	5	foodImage.41	FOODEEG_Images\0409.jpg	YN	Left	Yes	1.2630855999887	0	560611	234
1095.984375	1	taste	trialStart	3	126	6	foodImage.1	FOODEEG_Images\0004.jpg	NY	Right	Yes	4.21418749995064	0	561145	251
1097.02734375	2	taste	foodImageDisplay	3	126	6	foodImage.1	FOODEEG_Images\0004.jpg	NY	Right	Yes	4.21418749995064	0	561679	252
1099.087890625	4.21418749995064	taste	choicePhaseStart	3	126	6	foodImage.1	FOODEEG_Images\0004.jpg	NY	Right	Yes	4.21418749995064	0	562734	253
1103.294921875	0	taste	response	3	126	6	foodImage.1	FOODEEG_Images\0004.jpg	NY	Right	Yes	4.21418749995064	0	564888	235
1104.337890625	1	health	trialStart	3	127	7	foodImage.20	FOODEEG_Images\0226.jpg	YN	Left	Yes	0.949610300012864	0	565422	251
1105.37890625	2	health	foodImageDisplay	3	127	7	foodImage.20	FOODEEG_Images\0226.jpg	YN	Left	Yes	0.949610300012864	0	565955	252
1107.44140625	0.949610300012864	health	choicePhaseStart	3	127	7	foodImage.20	FOODEEG_Images\0226.jpg	YN	Left	Yes	0.949610300012864	0	567011	253
1108.380859375	0	health	response	3	127	7	foodImage.20	FOODEEG_Images\0226.jpg	YN	Left	Yes	0.949610300012864	0	567492	234
1109.42578125	1	health	trialStart	3	128	8	foodImage.81	FOODEEG_Images\0797.jpg	NY	Right	Yes	0.690532899927348	0	568027	251
1110.48046875	2	health	foodImageDisplay	3	128	8	foodImage.81	FOODEEG_Images\0797.jpg	NY	Right	Yes	0.690532899927348	0	568567	252
1112.546875	0.690532899927348	health	choicePhaseStart	3	128	8	foodImage.81	FOODEEG_Images\0797.jpg	NY	Right	Yes	0.690532899927348	0	569625	253
1113.228515625	0	health	response	3	128	8	foodImage.81	FOODEEG_Images\0797.jpg	NY	Right	Yes	0.690532899927348	0	569974	235
1114.2734375	1	decision	trialStart	3	129	9	foodImage.35	FOODEEG_Images\0350.jpg	YN	Left	Yes	0.717933899955824	0	570509	251
1115.314453125	2	decision	foodImageDisplay	3	129	9	foodImage.35	FOODEEG_Images\0350.jpg	YN	Left	Yes	0.717933899955824	0	571042	252
1117.376953125	0.717933899955824	decision	choicePhaseStart	3	129	9	foodImage.35	FOODEEG_Images\0350.jpg	YN	Left	Yes	0.717933899955824	0	572098	253
1118.0859375	0	decision	response	3	129	9	foodImage.35	FOODEEG_Images\0350.jpg	YN	Left	Yes	0.717933899955824	0	572461	234
1119.125	1	decision	trialStart	3	130	10	foodImage.105	FOODEEG_Images\0913.jpg	YN	Left	Yes	1.16164090007078	0	572993	251
1120.173828125	2	decision	foodImageDisplay	3	130	10	foodImage.105	FOODEEG_Images\0913.jpg	YN	Left	Yes	1.16164090007078	0	573530	252
1122.236328125	1.16164090007078	decision	choicePhaseStart	3	130	10	foodImage.105	FOODEEG_Images\0913.jpg	YN	Left	Yes	1.16164090007078	0	574586	253
1123.388671875	0	decision	response	3	130	10	foodImage.105	FOODEEG_Images\0913.jpg	YN	Left	Yes	1.16164090007078	0	575176	234
1124.431640625	1	taste	trialStart	3	131	11	foodImage.119	FOODEEG_Images\0927.jpg	NY	Left	No	1.52089599997271	0	575710	251
1125.470703125	2	taste	foodImageDisplay	3	131	11	foodImage.119	FOODEEG_Images\0927.jpg	NY	Left	No	1.52089599997271	0	576242	252
1127.533203125	1.52089599997271	taste	choicePhaseStart	3	131	11	foodImage.119	FOODEEG_Images\0927.jpg	NY	Left	No	1.52089599997271	0	577298	253
1129.044921875	0	taste	response	3	131	11	foodImage.119	FOODEEG_Images\0927.jpg	NY	Left	No	1.52089599997271	0	578072	234
1130.087890625	1	taste	trialStart	3	132	12	foodImage.107	FOODEEG_Images\0915.jpg	YN	Left	Yes	1.1372696000617	0	578606	251
1131.126953125	2	taste	foodImageDisplay	3	132	12	foodImage.107	FOODEEG_Images\0915.jpg	YN	Left	Yes	1.1372696000617	0	579138	252
1133.189453125	1.1372696000617	taste	choicePhaseStart	3	132	12	foodImage.107	FOODEEG_Images\0915.jpg	YN	Left	Yes	1.1372696000617	0	580194	253
1134.31640625	0	taste	response	3	132	12	foodImage.107	FOODEEG_Images\0915.jpg	YN	Left	Yes	1.1372696000617	0	580771	234
1135.36328125	1	decision	trialStart	3	133	13	foodImage.52	FOODEEG_Images\0539.jpg	YN	Left	Yes	0.991500400006771	0	581307	251
1136.423828125	2	decision	foodImageDisplay	3	133	13	foodImage.52	FOODEEG_Images\0539.jpg	YN	Left	Yes	0.991500400006771	0	581850	252
1138.486328125	0.991500400006771	decision	choicePhaseStart	3	133	13	foodImage.52	FOODEEG_Images\0539.jpg	YN	Left	Yes	0.991500400006771	0	582906	253
1139.46875	0	decision	response	3	133	13	foodImage.52	FOODEEG_Images\0539.jpg	YN	Left	Yes	0.991500400006771	0	583409	234
1140.51171875	1	decision	trialStart	3	134	14	foodImage.116	FOODEEG_Images\0924.jpg	NY	Left	No	2.10570750001352	0	583943	251
1141.55078125	2	decision	foodImageDisplay	3	134	14	foodImage.116	FOODEEG_Images\0924.jpg	NY	Left	No	2.10570750001352	0	584475	252
1143.611328125	2.10570750001352	decision	choicePhaseStart	3	134	14	foodImage.116	FOODEEG_Images\0924.jpg	NY	Left	No	2.10570750001352	0	585530	253
1145.708984375	0	decision	response	3	134	14	foodImage.116	FOODEEG_Images\0924.jpg	NY	Left	No	2.10570750001352	0	586604	234
1146.751953125	1	health	trialStart	3	135	15	foodImage.11	FOODEEG_Images\0180.jpg	NY	Left	No	1.1089727000799	0	587138	251
1147.79296875	2	health	foodImageDisplay	3	135	15	foodImage.11	FOODEEG_Images\0180.jpg	NY	Left	No	1.1089727000799	0	587671	252
1149.85546875	1.1089727000799	health	choicePhaseStart	3	135	15	foodImage.11	FOODEEG_Images\0180.jpg	NY	Left	No	1.1089727000799	0	588727	253
1150.955078125	0	health	response	3	135	15	foodImage.11	FOODEEG_Images\0180.jpg	NY	Left	No	1.1089727000799	0	589290	234
1151.998046875	1	taste	trialStart	3	136	16	foodImage.82	FOODEEG_Images\0805.jpg	NY	Right	Yes	1.3234734000871	0	589824	251
1153.05078125	2	taste	foodImageDisplay	3	136	16	foodImage.82	FOODEEG_Images\0805.jpg	NY	Right	Yes	1.3234734000871	0	590363	252
1155.11328125	1.3234734000871	taste	choicePhaseStart	3	136	16	foodImage.82	FOODEEG_Images\0805.jpg	NY	Right	Yes	1.3234734000871	0	591419	253
1156.427734375	0	taste	response	3	136	16	foodImage.82	FOODEEG_Images\0805.jpg	NY	Right	Yes	1.3234734000871	0	592092	235
1157.470703125	1	decision	trialStart	3	137	17	foodImage.78	FOODEEG_Images\0787.jpg	NY	Right	Yes	0.739462099969387	0	592626	251
1158.515625	2	decision	foodImageDisplay	3	137	17	foodImage.78	FOODEEG_Images\0787.jpg	NY	Right	Yes	0.739462099969387	0	593161	252
1160.576171875	0.739462099969387	decision	choicePhaseStart	3	137	17	foodImage.78	FOODEEG_Images\0787.jpg	NY	Right	Yes	0.739462099969387	0	594216	253
1161.306640625	0	decision	response	3	137	17	foodImage.78	FOODEEG_Images\0787.jpg	NY	Right	Yes	0.739462099969387	0	594590	235
1162.353515625	1	decision	trialStart	3	138	18	foodImage.31	FOODEEG_Images\0294.jpg	YN	Right	No	1.65869249997195	0	595126	251
1163.39453125	2	decision	foodImageDisplay	3	138	18	foodImage.31	FOODEEG_Images\0294.jpg	YN	Right	No	1.65869249997195	0	595659	252
1165.45703125	1.65869249997195	decision	choicePhaseStart	3	138	18	foodImage.31	FOODEEG_Images\0294.jpg	YN	Right	No	1.65869249997195	0	596715	253
1167.107421875	0	decision	response	3	138	18	foodImage.31	FOODEEG_Images\0294.jpg	YN	Right	No	1.65869249997195	0	597560	235
1168.1484375	1	taste	trialStart	3	139	19	foodImage.39	FOODEEG_Images\0367.jpg	NY	Right	Yes	1.28939180006273	0	598093	251
1169.1875	2	taste	foodImageDisplay	3	139	19	foodImage.39	FOODEEG_Images\0367.jpg	NY	Right	Yes	1.28939180006273	0	598625	252
1171.25	1.28939180006273	taste	choicePhaseStart	3	139	19	foodImage.39	FOODEEG_Images\0367.jpg	NY	Right	Yes	1.28939180006273	0	599681	253
1172.53125	0	taste	response	3	139	19	foodImage.39	FOODEEG_Images\0367.jpg	NY	Right	Yes	1.28939180006273	0	600337	235
1173.57421875	1	decision	trialStart	3	140	20	foodImage.32	FOODEEG_Images\0319.jpg	NY	Right	Yes	0.799470399972051	0	600871	251
1174.615234375	2	decision	foodImageDisplay	3	140	20	foodImage.32	FOODEEG_Images\0319.jpg	NY	Right	Yes	0.799470399972051	0	601404	252
1176.67578125	0.799470399972051	decision	choicePhaseStart	3	140	20	foodImage.32	FOODEEG_Images\0319.jpg	NY	Right	Yes	0.799470399972051	0	602459	253
1177.466796875	0	decision	response	3	140	20	foodImage.32	FOODEEG_Images\0319.jpg	NY	Right	Yes	0.799470399972051	0	602864	235
1178.515625	1	taste	trialStart	3	141	21	foodImage.40	FOODEEG_Images\0373.jpg	YN	Left	Yes	0.988872300018556	0	603401	251
1179.560546875	2	taste	foodImageDisplay	3	141	21	foodImage.40	FOODEEG_Images\0373.jpg	YN	Left	Yes	0.988872300018556	0	603936	252
1181.623046875	0.988872300018556	taste	choicePhaseStart	3	141	21	foodImage.40	FOODEEG_Images\0373.jpg	YN	Left	Yes	0.988872300018556	0	604992	253
1182.603515625	0	taste	response	3	141	21	foodImage.40	FOODEEG_Images\0373.jpg	YN	Left	Yes	0.988872300018556	0	605494	234
1183.646484375	1	taste	trialStart	3	142	22	foodImage.87	FOODEEG_Images\0873.jpg	YN	Right	No	1.20424720004667	0	606028	251
1184.705078125	2	taste	foodImageDisplay	3	142	22	foodImage.87	FOODEEG_Images\0873.jpg	YN	Right	No	1.20424720004667	0	606570	252
1186.767578125	1.20424720004667	taste	choicePhaseStart	3	142	22	foodImage.87	FOODEEG_Images\0873.jpg	YN	Right	No	1.20424720004667	0	607626	253
1187.962890625	0	taste	response	3	142	22	foodImage.87	FOODEEG_Images\0873.jpg	YN	Right	No	1.20424720004667	0	608238	235
1189.0078125	1	health	trialStart	3	143	23	foodImage.47	FOODEEG_Images\0488.jpg	NY	Left	No	1.80260619998444	0	608773	251
1190.05078125	2	health	foodImageDisplay	3	143	23	foodImage.47	FOODEEG_Images\0488.jpg	NY	Left	No	1.80260619998444	0	609307	252
1192.11328125	1.80260619998444	health	choicePhaseStart	3	143	23	foodImage.47	FOODEEG_Images\0488.jpg	NY	Left	No	1.80260619998444	0	610363	253
1193.90625	0	health	response	3	143	23	foodImage.47	FOODEEG_Images\0488.jpg	NY	Left	No	1.80260619998444	0	611281	234
1194.94921875	1	health	trialStart	3	144	24	foodImage.61	FOODEEG_Images\0640.jpg	YN	Left	Yes	0.898813800071366	0	611815	251
1195.994140625	2	health	foodImageDisplay	3	144	24	foodImage.61	FOODEEG_Images\0640.jpg	YN	Left	Yes	0.898813800071366	0	612350	252
1198.056640625	0.898813800071366	health	choicePhaseStart	3	144	24	foodImage.61	FOODEEG_Images\0640.jpg	YN	Left	Yes	0.898813800071366	0	613406	253
1198.9453125	0	health	response	3	144	24	foodImage.61	FOODEEG_Images\0640.jpg	YN	Left	Yes	0.898813800071366	0	613861	234
1199.98828125	1	health	trialStart	3	145	25	foodImage.90	FOODEEG_Images\0890.jpg	NY	Right	Yes	2.40051770000719	0	614395	251
1201.044921875	2	health	foodImageDisplay	3	145	25	foodImage.90	FOODEEG_Images\0890.jpg	NY	Right	Yes	2.40051770000719	0	614936	252
1203.107421875	2.40051770000719	health	choicePhaseStart	3	145	25	foodImage.90	FOODEEG_Images\0890.jpg	NY	Right	Yes	2.40051770000719	0	615992	253
1205.498046875	0	health	response	3	145	25	foodImage.90	FOODEEG_Images\0890.jpg	NY	Right	Yes	2.40051770000719	0	617216	235
1206.541015625	1	decision	trialStart	3	146	26	foodImage.73	FOODEEG_Images\0717.jpg	NY	Right	Yes	1.07681719993707	0	617750	251
1207.599609375	2	decision	foodImageDisplay	3	146	26	foodImage.73	FOODEEG_Images\0717.jpg	NY	Right	Yes	1.07681719993707	0	618292	252
1209.662109375	1.07681719993707	decision	choicePhaseStart	3	146	26	foodImage.73	FOODEEG_Images\0717.jpg	NY	Right	Yes	1.07681719993707	0	619348	253
1210.728515625	0	decision	response	3	146	26	foodImage.73	FOODEEG_Images\0717.jpg	NY	Right	Yes	1.07681719993707	0	619894	235
1211.76953125	1	decision	trialStart	3	147	27	foodImage.8	FOODEEG_Images\0136.jpg	NY	Right	Yes	1.11004079994746	0	620427	251
1212.830078125	2	decision	foodImageDisplay	3	147	27	foodImage.8	FOODEEG_Images\0136.jpg	NY	Right	Yes	1.11004079994746	0	620970	252
1214.892578125	1.11004079994746	decision	choicePhaseStart	3	147	27	foodImage.8	FOODEEG_Images\0136.jpg	NY	Right	Yes	1.11004079994746	0	622026	253
1215.994140625	0	decision	response	3	147	27	foodImage.8	FOODEEG_Images\0136.jpg	NY	Right	Yes	1.11004079994746	0	622590	235
1217.037109375	1	health	trialStart	3	148	28	foodImage.30	FOODEEG_Images\0282.jpg	NY	Right	Yes	0.542360199964605	0	623124	251
1218.078125	2	health	foodImageDisplay	3	148	28	foodImage.30	FOODEEG_Images\0282.jpg	NY	Right	Yes	0.542360199964605	0	623657	252
1220.140625	0.542360199964605	health	choicePhaseStart	3	148	28	foodImage.30	FOODEEG_Images\0282.jpg	NY	Right	Yes	0.542360199964605	0	624713	253
1220.673828125	0	health	response	3	148	28	foodImage.30	FOODEEG_Images\0282.jpg	NY	Right	Yes	0.542360199964605	0	624986	235
1221.716796875	1	taste	trialStart	3	149	29	foodImage.56	FOODEEG_Images\0586.jpg	YN	Left	Yes	0.836782400030643	0	625520	251
1222.7578125	2	taste	foodImageDisplay	3	149	29	foodImage.56	FOODEEG_Images\0586.jpg	YN	Left	Yes	0.836782400030643	0	626053	252
1224.8203125	0.836782400030643	taste	choicePhaseStart	3	149	29	foodImage.56	FOODEEG_Images\0586.jpg	YN	Left	Yes	0.836782400030643	0	627109	253
1225.6484375	0	taste	response	3	149	29	foodImage.56	FOODEEG_Images\0586.jpg	YN	Left	Yes	0.836782400030643	0	627533	234
1226.69921875	1	health	trialStart	3	150	30	foodImage.95	FOODEEG_Images\0903.jpg	NY	Left	No	1.37670080002863	0	628071	251
1227.73828125	2	health	foodImageDisplay	3	150	30	foodImage.95	FOODEEG_Images\0903.jpg	NY	Left	No	1.37670080002863	0	628603	252
1229.80078125	1.37670080002863	health	choicePhaseStart	3	150	30	foodImage.95	FOODEEG_Images\0903.jpg	NY	Left	No	1.37670080002863	0	629659	253
1231.16796875	0	health	response	3	150	30	foodImage.95	FOODEEG_Images\0903.jpg	NY	Left	No	1.37670080002863	0	630359	234
1232.2109375	1	taste	trialStart	3	151	31	foodImage.54	FOODEEG_Images\0560.jpg	YN	Left	Yes	1.31920339993667	0	630893	251
1233.267578125	2	taste	foodImageDisplay	3	151	31	foodImage.54	FOODEEG_Images\0560.jpg	YN	Left	Yes	1.31920339993667	0	631434	252
1235.330078125	1.31920339993667	taste	choicePhaseStart	3	151	31	foodImage.54	FOODEEG_Images\0560.jpg	YN	Left	Yes	1.31920339993667	0	632490	253
1236.640625	0	taste	response	3	151	31	foodImage.54	FOODEEG_Images\0560.jpg	YN	Left	Yes	1.31920339993667	0	633161	234
1237.6796875	1	health	trialStart	3	152	32	foodImage.110	FOODEEG_Images\0918.jpg	NY	Left	No	1.94441050000023	0	633693	251
1238.72265625	2	health	foodImageDisplay	3	152	32	foodImage.110	FOODEEG_Images\0918.jpg	NY	Left	No	1.94441050000023	0	634227	252
1240.78515625	1.94441050000023	health	choicePhaseStart	3	152	32	foodImage.110	FOODEEG_Images\0918.jpg	NY	Left	No	1.94441050000023	0	635283	253
1242.720703125	0	health	response	3	152	32	foodImage.110	FOODEEG_Images\0918.jpg	NY	Left	No	1.94441050000023	0	636274	234
1243.763671875	1	decision	trialStart	3	153	33	foodImage.41	FOODEEG_Images\0409.jpg	YN	Left	Yes	1.22266760002822	0	636808	251
1244.810546875	2	decision	foodImageDisplay	3	153	33	foodImage.41	FOODEEG_Images\0409.jpg	YN	Left	Yes	1.22266760002822	0	637344	252
1246.875	1.22266760002822	decision	choicePhaseStart	3	153	33	foodImage.41	FOODEEG_Images\0409.jpg	YN	Left	Yes	1.22266760002822	0	638401	253
1248.087890625	0	decision	response	3	153	33	foodImage.41	FOODEEG_Images\0409.jpg	YN	Left	Yes	1.22266760002822	0	639022	234
1249.130859375	1	taste	trialStart	3	154	34	foodImage.67	FOODEEG_Images\0679.jpg	YN	Right	No	2.33947809995152	0	639556	251
1250.189453125	2	taste	foodImageDisplay	3	154	34	foodImage.67	FOODEEG_Images\0679.jpg	YN	Right	No	2.33947809995152	0	640098	252
1252.251953125	2.33947809995152	taste	choicePhaseStart	3	154	34	foodImage.67	FOODEEG_Images\0679.jpg	YN	Right	No	2.33947809995152	0	641154	253
1254.583984375	0	taste	response	3	154	34	foodImage.67	FOODEEG_Images\0679.jpg	YN	Right	No	2.33947809995152	0	642348	235
1255.626953125	1	taste	trialStart	3	155	35	foodImage.44	FOODEEG_Images\0459.jpg	YN	Left	Yes	1.00213699997403	0	642882	251
1256.671875	2	taste	foodImageDisplay	3	155	35	foodImage.44	FOODEEG_Images\0459.jpg	YN	Left	Yes	1.00213699997403	0	643417	252
1258.734375	1.00213699997403	taste	choicePhaseStart	3	155	35	foodImage.44	FOODEEG_Images\0459.jpg	YN	Left	Yes	1.00213699997403	0	644473	253
1259.7265625	0	taste	response	3	155	35	foodImage.44	FOODEEG_Images\0459.jpg	YN	Left	Yes	1.00213699997403	0	644981	234
1260.771484375	1	health	trialStart	3	156	36	foodImage.64	FOODEEG_Images\0647.jpg	YN	Left	Yes	0.830032299971208	0	645516	251
1261.828125	2	health	foodImageDisplay	3	156	36	foodImage.64	FOODEEG_Images\0647.jpg	YN	Left	Yes	0.830032299971208	0	646057	252
1263.890625	0.830032299971208	health	choicePhaseStart	3	156	36	foodImage.64	FOODEEG_Images\0647.jpg	YN	Left	Yes	0.830032299971208	0	647113	253
1264.7109375	0	health	response	3	156	36	foodImage.64	FOODEEG_Images\0647.jpg	YN	Left	Yes	0.830032299971208	0	647533	234
1265.759765625	1	taste	trialStart	3	157	37	foodImage.98	FOODEEG_Images\0906.jpg	YN	Left	Yes	1.11401440005284	0	648070	251
1266.798828125	2	taste	foodImageDisplay	3	157	37	foodImage.98	FOODEEG_Images\0906.jpg	YN	Left	Yes	1.11401440005284	0	648602	252
1268.861328125	1.11401440005284	taste	choicePhaseStart	3	157	37	foodImage.98	FOODEEG_Images\0906.jpg	YN	Left	Yes	1.11401440005284	0	649658	253
1269.966796875	0	taste	response	3	157	37	foodImage.98	FOODEEG_Images\0906.jpg	YN	Left	Yes	1.11401440005284	0	650224	234
1271.009765625	1	taste	trialStart	3	158	38	foodImage.96	FOODEEG_Images\0904.jpg	YN	Left	Yes	1.42448529996909	0	650758	251
1272.048828125	2	taste	foodImageDisplay	3	158	38	foodImage.96	FOODEEG_Images\0904.jpg	YN	Left	Yes	1.42448529996909	0	651290	252
1274.11328125	1.42448529996909	taste	choicePhaseStart	3	158	38	foodImage.96	FOODEEG_Images\0904.jpg	YN	Left	Yes	1.42448529996909	0	652347	253
1275.52734375	0	taste	response	3	158	38	foodImage.96	FOODEEG_Images\0904.jpg	YN	Left	Yes	1.42448529996909	0	653071	234
1276.57421875	1	health	trialStart	3	159	39	foodImage.115	FOODEEG_Images\0923.jpg	YN	Right	No	1.80578039993998	0	653607	251
1277.61328125	2	health	foodImageDisplay	3	159	39	foodImage.115	FOODEEG_Images\0923.jpg	YN	Right	No	1.80578039993998	0	654139	252
1279.673828125	1.80578039993998	health	choicePhaseStart	3	159	39	foodImage.115	FOODEEG_Images\0923.jpg	YN	Right	No	1.80578039993998	0	655194	253
1281.470703125	0	health	response	3	159	39	foodImage.115	FOODEEG_Images\0923.jpg	YN	Right	No	1.80578039993998	0	656114	235
1282.513671875	1	decision	trialStart	3	160	40	foodImage.88	FOODEEG_Images\0878.jpg	NY	Right	Yes	1.06784239993431	0	656648	251
1283.5703125	2	decision	foodImageDisplay	3	160	40	foodImage.88	FOODEEG_Images\0878.jpg	NY	Right	Yes	1.06784239993431	0	657189	252
1285.63671875	1.06784239993431	decision	choicePhaseStart	3	160	40	foodImage.88	FOODEEG_Images\0878.jpg	NY	Right	Yes	1.06784239993431	0	658247	253
1286.6953125	0	decision	response	3	160	40	foodImage.88	FOODEEG_Images\0878.jpg	NY	Right	Yes	1.06784239993431	0	658789	235
1287.744140625	1	taste	trialStart	3	161	41	foodImage.17	FOODEEG_Images\0199.jpg	YN	Left	Yes	0.941321999998763	0	659326	251
1288.8046875	2	taste	foodImageDisplay	3	161	41	foodImage.17	FOODEEG_Images\0199.jpg	YN	Left	Yes	0.941321999998763	0	659869	252
1290.8671875	0.941321999998763	taste	choicePhaseStart	3	161	41	foodImage.17	FOODEEG_Images\0199.jpg	YN	Left	Yes	0.941321999998763	0	660925	253
1291.798828125	0	taste	response	3	161	41	foodImage.17	FOODEEG_Images\0199.jpg	YN	Left	Yes	0.941321999998763	0	661402	234
1292.841796875	1	decision	trialStart	3	162	42	foodImage.86	FOODEEG_Images\0844.jpg	YN	Left	Yes	1.34426829998847	0	661936	251
1293.90625	2	decision	foodImageDisplay	3	162	42	foodImage.86	FOODEEG_Images\0844.jpg	YN	Left	Yes	1.34426829998847	0	662481	252
1295.966796875	1.34426829998847	decision	choicePhaseStart	3	162	42	foodImage.86	FOODEEG_Images\0844.jpg	YN	Left	Yes	1.34426829998847	0	663536	253
1297.302734375	0	decision	response	3	162	42	foodImage.86	FOODEEG_Images\0844.jpg	YN	Left	Yes	1.34426829998847	0	664220	234
1298.345703125	1	health	trialStart	3	163	43	foodImage.91	FOODEEG_Images\0896.jpg	NY	Right	Yes	1.5280801000772	0	664754	251
1299.400390625	2	health	foodImageDisplay	3	163	43	foodImage.91	FOODEEG_Images\0896.jpg	NY	Right	Yes	1.5280801000772	0	665294	252
1301.462890625	1.5280801000772	health	choicePhaseStart	3	163	43	foodImage.91	FOODEEG_Images\0896.jpg	NY	Right	Yes	1.5280801000772	0	666350	253
1302.982421875	0	health	response	3	163	43	foodImage.91	FOODEEG_Images\0896.jpg	NY	Right	Yes	1.5280801000772	0	667128	235
1304.025390625	1	decision	trialStart	3	164	44	foodImage.48	FOODEEG_Images\0494.jpg	YN	Right	No	1.31585630006157	0	667662	251
1305.076171875	2	decision	foodImageDisplay	3	164	44	foodImage.48	FOODEEG_Images\0494.jpg	YN	Right	No	1.31585630006157	0	668200	252
1307.138671875	1.31585630006157	decision	choicePhaseStart	3	164	44	foodImage.48	FOODEEG_Images\0494.jpg	YN	Right	No	1.31585630006157	0	669256	253
1308.4453125	0	decision	response	3	164	44	foodImage.48	FOODEEG_Images\0494.jpg	YN	Right	No	1.31585630006157	0	669925	235
1309.48828125	1	taste	trialStart	3	165	45	foodImage.58	FOODEEG_Images\0605.jpg	NY	Right	Yes	1.08006479998585	0	670459	251
1310.546875	2	taste	foodImageDisplay	3	165	45	foodImage.58	FOODEEG_Images\0605.jpg	NY	Right	Yes	1.08006479998585	0	671001	252
1312.61328125	1.08006479998585	taste	choicePhaseStart	3	165	45	foodImage.58	FOODEEG_Images\0605.jpg	NY	Right	Yes	1.08006479998585	0	672059	253
1313.685546875	0	taste	response	3	165	45	foodImage.58	FOODEEG_Images\0605.jpg	NY	Right	Yes	1.08006479998585	0	672608	235
1314.728515625	1	taste	trialStart	3	166	46	foodImage.77	FOODEEG_Images\0771.jpg	NY	Right	Yes	0.948571800021455	0	673142	251
1315.76953125	2	taste	foodImageDisplay	3	166	46	foodImage.77	FOODEEG_Images\0771.jpg	NY	Right	Yes	0.948571800021455	0	673675	252
1317.83203125	0.948571800021455	taste	choicePhaseStart	3	166	46	foodImage.77	FOODEEG_Images\0771.jpg	NY	Right	Yes	0.948571800021455	0	674731	253
1318.7734375	0	taste	response	3	166	46	foodImage.77	FOODEEG_Images\0771.jpg	NY	Right	Yes	0.948571800021455	0	675213	235
1319.814453125	1	health	trialStart	3	167	47	foodImage.86	FOODEEG_Images\0844.jpg	YN	Right	No	1.33414489997085	0	675746	251
1320.87109375	2	health	foodImageDisplay	3	167	47	foodImage.86	FOODEEG_Images\0844.jpg	YN	Right	No	1.33414489997085	0	676287	252
1322.935546875	1.33414489997085	health	choicePhaseStart	3	167	47	foodImage.86	FOODEEG_Images\0844.jpg	YN	Right	No	1.33414489997085	0	677344	253
1324.26171875	0	health	response	3	167	47	foodImage.86	FOODEEG_Images\0844.jpg	YN	Right	No	1.33414489997085	0	678023	235
1325.3046875	1	decision	trialStart	3	168	48	foodImage.93	FOODEEG_Images\0901.jpg	NY	Right	Yes	2.62632770009805	0	678557	251
1326.35546875	2	decision	foodImageDisplay	3	168	48	foodImage.93	FOODEEG_Images\0901.jpg	NY	Right	Yes	2.62632770009805	0	679095	252
1328.41796875	2.62632770009805	decision	choicePhaseStart	3	168	48	foodImage.93	FOODEEG_Images\0901.jpg	NY	Right	Yes	2.62632770009805	0	680151	253
1331.037109375	0	decision	response	3	168	48	foodImage.93	FOODEEG_Images\0901.jpg	NY	Right	Yes	2.62632770009805	0	681492	235
1332.080078125	1	decision	trialStart	3	169	49	foodImage.57	FOODEEG_Images\0587.jpg	YN	Left	Yes	0.787918400019407	0	682026	251
1333.138671875	2	decision	foodImageDisplay	3	169	49	foodImage.57	FOODEEG_Images\0587.jpg	YN	Left	Yes	0.787918400019407	0	682568	252
1335.201171875	0.787918400019407	decision	choicePhaseStart	3	169	49	foodImage.57	FOODEEG_Images\0587.jpg	YN	Left	Yes	0.787918400019407	0	683624	253
1335.98046875	0	decision	response	3	169	49	foodImage.57	FOODEEG_Images\0587.jpg	YN	Left	Yes	0.787918400019407	0	684023	234
1337.0234375	1	health	trialStart	3	170	50	foodImage.120	FOODEEG_Images\0928.jpg	YN	Left	Yes	1.92130389995873	0	684557	251
1338.0625	2	health	foodImageDisplay	3	170	50	foodImage.120	FOODEEG_Images\0928.jpg	YN	Left	Yes	1.92130389995873	0	685089	252
1340.125	1.92130389995873	health	choicePhaseStart	3	170	50	foodImage.120	FOODEEG_Images\0928.jpg	YN	Left	Yes	1.92130389995873	0	686145	253
1342.037109375	0	health	response	3	170	50	foodImage.120	FOODEEG_Images\0928.jpg	YN	Left	Yes	1.92130389995873	0	687124	234
1343.080078125	1	taste	trialStart	3	171	51	foodImage.112	FOODEEG_Images\0920.jpg	NY	Right	Yes	1.01955620001536	0	687658	251
1344.123046875	2	taste	foodImageDisplay	3	171	51	foodImage.112	FOODEEG_Images\0920.jpg	NY	Right	Yes	1.01955620001536	0	688192	252
1346.185546875	1.01955620001536	taste	choicePhaseStart	3	171	51	foodImage.112	FOODEEG_Images\0920.jpg	NY	Right	Yes	1.01955620001536	0	689248	253
1347.1953125	0	taste	response	3	171	51	foodImage.112	FOODEEG_Images\0920.jpg	NY	Right	Yes	1.01955620001536	0	689765	235
1348.23828125	1	health	trialStart	3	172	52	foodImage.96	FOODEEG_Images\0904.jpg	NY	Left	No	0.88044729991816	0	690299	251
1349.27734375	2	health	foodImageDisplay	3	172	52	foodImage.96	FOODEEG_Images\0904.jpg	NY	Left	No	0.88044729991816	0	690831	252
1351.33984375	0.88044729991816	health	choicePhaseStart	3	172	52	foodImage.96	FOODEEG_Images\0904.jpg	NY	Left	No	0.88044729991816	0	691887	253
1352.212890625	0	health	response	3	172	52	foodImage.96	FOODEEG_Images\0904.jpg	NY	Left	No	0.88044729991816	0	692334	234
1353.255859375	1	taste	trialStart	3	173	53	foodImage.100	FOODEEG_Images\0908.jpg	YN	Left	Yes	0.790530500002205	0	692868	251
1354.294921875	2	taste	foodImageDisplay	3	173	53	foodImage.100	FOODEEG_Images\0908.jpg	YN	Left	Yes	0.790530500002205	0	693400	252
1356.357421875	0.790530500002205	taste	choicePhaseStart	3	173	53	foodImage.100	FOODEEG_Images\0908.jpg	YN	Left	Yes	0.790530500002205	0	694456	253
1357.140625	0	taste	response	3	173	53	foodImage.100	FOODEEG_Images\0908.jpg	YN	Left	Yes	0.790530500002205	0	694857	234
1358.18359375	1	decision	trialStart	3	174	54	foodImage.9	FOODEEG_Images\0138.jpg	YN	Left	Yes	0.661719599971548	0	695391	251
1359.265625	2	decision	foodImageDisplay	3	174	54	foodImage.9	FOODEEG_Images\0138.jpg	YN	Left	Yes	0.661719599971548	0	695945	252
1361.328125	0.661719599971548	decision	choicePhaseStart	3	174	54	foodImage.9	FOODEEG_Images\0138.jpg	YN	Left	Yes	0.661719599971548	0	697001	253
1361.98046875	0	decision	response	3	174	54	foodImage.9	FOODEEG_Images\0138.jpg	YN	Left	Yes	0.661719599971548	0	697335	234
1363.0234375	1	taste	trialStart	3	175	55	foodImage.99	FOODEEG_Images\0907.jpg	NY	Right	Yes	1.70321519998834	0	697869	251
1364.0625	2	taste	foodImageDisplay	3	175	55	foodImage.99	FOODEEG_Images\0907.jpg	NY	Right	Yes	1.70321519998834	0	698401	252
1366.125	1.70321519998834	taste	choicePhaseStart	3	175	55	foodImage.99	FOODEEG_Images\0907.jpg	NY	Right	Yes	1.70321519998834	0	699457	253
1367.818359375	0	taste	response	3	175	55	foodImage.99	FOODEEG_Images\0907.jpg	NY	Right	Yes	1.70321519998834	0	700324	235
1368.86328125	1	decision	trialStart	3	176	56	foodImage.15	FOODEEG_Images\0189.jpg	YN	Left	Yes	2.01320699998178	0	700859	251
1369.921875	2	decision	foodImageDisplay	3	176	56	foodImage.15	FOODEEG_Images\0189.jpg	YN	Left	Yes	2.01320699998178	0	701401	252
1371.982421875	2.01320699998178	decision	choicePhaseStart	3	176	56	foodImage.15	FOODEEG_Images\0189.jpg	YN	Left	Yes	2.01320699998178	0	702456	253
1373.98828125	0	decision	response	3	176	56	foodImage.15	FOODEEG_Images\0189.jpg	YN	Left	Yes	2.01320699998178	0	703483	234
1375.029296875	1	decision	trialStart	3	177	57	foodImage.23	FOODEEG_Images\0244.jpg	YN	Left	Yes	0.774074600078166	0	704016	251
1376.0703125	2	decision	foodImageDisplay	3	177	57	foodImage.23	FOODEEG_Images\0244.jpg	YN	Left	Yes	0.774074600078166	0	704549	252
1378.1328125	0.774074600078166	decision	choicePhaseStart	3	177	57	foodImage.23	FOODEEG_Images\0244.jpg	YN	Left	Yes	0.774074600078166	0	705605	253
1378.8984375	0	decision	response	3	177	57	foodImage.23	FOODEEG_Images\0244.jpg	YN	Left	Yes	0.774074600078166	0	705997	234
1379.94140625	1	taste	trialStart	3	178	58	foodImage.103	FOODEEG_Images\0911.jpg	NY	Right	Yes	2.28827539994381	0	706531	251
1380.98046875	2	taste	foodImageDisplay	3	178	58	foodImage.103	FOODEEG_Images\0911.jpg	NY	Right	Yes	2.28827539994381	0	707063	252
1383.04296875	2.28827539994381	taste	choicePhaseStart	3	178	58	foodImage.103	FOODEEG_Images\0911.jpg	NY	Right	Yes	2.28827539994381	0	708119	253
1385.322265625	0	taste	response	3	178	58	foodImage.103	FOODEEG_Images\0911.jpg	NY	Right	Yes	2.28827539994381	0	709286	235
1386.365234375	1	health	trialStart	3	179	59	foodImage.23	FOODEEG_Images\0244.jpg	NY	Right	Yes	1.25357529998291	0	709820	251
1387.40625	2	health	foodImageDisplay	3	179	59	foodImage.23	FOODEEG_Images\0244.jpg	NY	Right	Yes	1.25357529998291	0	710353	252
1389.46875	1.25357529998291	health	choicePhaseStart	3	179	59	foodImage.23	FOODEEG_Images\0244.jpg	NY	Right	Yes	1.25357529998291	0	711409	253
1390.71484375	0	health	response	3	179	59	foodImage.23	FOODEEG_Images\0244.jpg	NY	Right	Yes	1.25357529998291	0	712047	235
1391.7578125	1	health	trialStart	3	180	60	foodImage.88	FOODEEG_Images\0878.jpg	YN	Right	No	1.35160779999569	0	712581	251
1392.8125	2	health	foodImageDisplay	3	180	60	foodImage.88	FOODEEG_Images\0878.jpg	YN	Right	No	1.35160779999569	0	713121	252
1394.875	1.35160779999569	health	choicePhaseStart	3	180	60	foodImage.88	FOODEEG_Images\0878.jpg	YN	Right	No	1.35160779999569	0	714177	253
1396.21875	0	health	response	3	180	60	foodImage.88	FOODEEG_Images\0878.jpg	YN	Right	No	1.35160779999569	0	714865	235
1398.265625	3.68359375	n/a	blockEnd	n/a	n/a	n/a	n/a	n/a	n/a	n/a	n/a	n/a	n/a	715913	254
1401.94921875	2	n/a	blockStart	4	n/a	n/a	n/a	n/a	n/a	n/a	n/a	n/a	n/a	717799	250
1403.982421875	1	decision	trialStart	4	181	1	foodImage.7	FOODEEG_Images\0116.jpg	YN	Left	Yes	0.906072599929757	0	718840	251
1405.025390625	2	decision	foodImageDisplay	4	181	1	foodImage.7	FOODEEG_Images\0116.jpg	YN	Left	Yes	0.906072599929757	0	719374	252
1407.08984375	0.906072599929757	decision	choicePhaseStart	4	181	1	foodImage.7	FOODEEG_Images\0116.jpg	YN	Left	Yes	0.906072599929757	0	720431	253
1407.986328125	0	decision	response	4	181	1	foodImage.7	FOODEEG_Images\0116.jpg	YN	Left	Yes	0.906072599929757	0	720890	234
1409.025390625	1	health	trialStart	4	182	2	foodImage.100	FOODEEG_Images\0908.jpg	NY	Right	Yes	0.995526599930599	0	721422	251
1410.064453125	2	health	foodImageDisplay	4	182	2	foodImage.100	FOODEEG_Images\0908.jpg	NY	Right	Yes	0.995526599930599	0	721954	252
1412.126953125	0.995526599930599	health	choicePhaseStart	4	182	2	foodImage.100	FOODEEG_Images\0908.jpg	NY	Right	Yes	0.995526599930599	0	723010	253
1413.11328125	0	health	response	4	182	2	foodImage.100	FOODEEG_Images\0908.jpg	NY	Right	Yes	0.995526599930599	0	723515	235
1414.15625	1	health	trialStart	4	183	3	foodImage.37	FOODEEG_Images\0359.jpg	YN	Left	Yes	0.901867999928072	0	724049	251
1415.197265625	2	health	foodImageDisplay	4	183	3	foodImage.37	FOODEEG_Images\0359.jpg	YN	Left	Yes	0.901867999928072	0	724582	252
1417.259765625	0.901867999928072	health	choicePhaseStart	4	183	3	foodImage.37	FOODEEG_Images\0359.jpg	YN	Left	Yes	0.901867999928072	0	725638	253
1418.154296875	0	health	response	4	183	3	foodImage.37	FOODEEG_Images\0359.jpg	YN	Left	Yes	0.901867999928072	0	726096	234
1419.197265625	1	decision	trialStart	4	184	4	foodImage.25	FOODEEG_Images\0261.jpg	NY	Right	Yes	1.10051999997813	0	726630	251
1420.23828125	2	decision	foodImageDisplay	4	184	4	foodImage.25	FOODEEG_Images\0261.jpg	NY	Right	Yes	1.10051999997813	0	727163	252
1422.30078125	1.10051999997813	decision	choicePhaseStart	4	184	4	foodImage.25	FOODEEG_Images\0261.jpg	NY	Right	Yes	1.10051999997813	0	728219	253
1423.392578125	0	decision	response	4	184	4	foodImage.25	FOODEEG_Images\0261.jpg	NY	Right	Yes	1.10051999997813	0	728778	235
1424.435546875	1	health	trialStart	4	185	5	foodImage.60	FOODEEG_Images\0614.jpg	NY	Right	Yes	3.06591859995387	0	729312	251
1425.498046875	2	health	foodImageDisplay	4	185	5	foodImage.60	FOODEEG_Images\0614.jpg	NY	Right	Yes	3.06591859995387	0	729856	252
1427.560546875	3.06591859995387	health	choicePhaseStart	4	185	5	foodImage.60	FOODEEG_Images\0614.jpg	NY	Right	Yes	3.06591859995387	0	730912	253
1430.6171875	0	health	response	4	185	5	foodImage.60	FOODEEG_Images\0614.jpg	NY	Right	Yes	3.06591859995387	0	732477	235
1431.66015625	1	health	trialStart	4	186	6	foodImage.103	FOODEEG_Images\0911.jpg	NY	Left	No	0.896424499922432	0	733011	251
1432.697265625	2	health	foodImageDisplay	4	186	6	foodImage.103	FOODEEG_Images\0911.jpg	NY	Left	No	0.896424499922432	0	733542	252
1434.759765625	0.896424499922432	health	choicePhaseStart	4	186	6	foodImage.103	FOODEEG_Images\0911.jpg	NY	Left	No	0.896424499922432	0	734598	253
1435.6484375	0	health	response	4	186	6	foodImage.103	FOODEEG_Images\0911.jpg	NY	Left	No	0.896424499922432	0	735053	234
1436.69140625	1	taste	trialStart	4	187	7	foodImage.35	FOODEEG_Images\0350.jpg	NY	Right	Yes	1.41749069991056	0	735587	251
1437.73046875	2	taste	foodImageDisplay	4	187	7	foodImage.35	FOODEEG_Images\0350.jpg	NY	Right	Yes	1.41749069991056	0	736119	252
1439.79296875	1.41749069991056	taste	choicePhaseStart	4	187	7	foodImage.35	FOODEEG_Images\0350.jpg	NY	Right	Yes	1.41749069991056	0	737175	253
1441.201171875	0	taste	response	4	187	7	foodImage.35	FOODEEG_Images\0350.jpg	NY	Right	Yes	1.41749069991056	0	737896	235
1442.244140625	1	health	trialStart	4	188	8	foodImage.83	FOODEEG_Images\0827.jpg	NY	Right	Yes	1.49201339995489	0	738430	251
1443.302734375	2	health	foodImageDisplay	4	188	8	foodImage.83	FOODEEG_Images\0827.jpg	NY	Right	Yes	1.49201339995489	0	738972	252
1445.365234375	1.49201339995489	health	choicePhaseStart	4	188	8	foodImage.83	FOODEEG_Images\0827.jpg	NY	Right	Yes	1.49201339995489	0	740028	253
1446.84765625	0	health	response	4	188	8	foodImage.83	FOODEEG_Images\0827.jpg	NY	Right	Yes	1.49201339995489	0	740787	235
1447.892578125	1	health	trialStart	4	189	9	foodImage.43	FOODEEG_Images\0445.jpg	NY	Right	Yes	1.21270650008228	0	741322	251
1448.94921875	2	health	foodImageDisplay	4	189	9	foodImage.43	FOODEEG_Images\0445.jpg	NY	Right	Yes	1.21270650008228	0	741863	252
1451.01171875	1.21270650008228	health	choicePhaseStart	4	189	9	foodImage.43	FOODEEG_Images\0445.jpg	NY	Right	Yes	1.21270650008228	0	742919	253
1452.216796875	0	health	response	4	189	9	foodImage.43	FOODEEG_Images\0445.jpg	NY	Right	Yes	1.21270650008228	0	743536	235
1453.259765625	1	health	trialStart	4	190	10	foodImage.73	FOODEEG_Images\0717.jpg	YN	Left	Yes	0.804335599998012	0	744070	251
1454.318359375	2	health	foodImageDisplay	4	190	10	foodImage.73	FOODEEG_Images\0717.jpg	YN	Left	Yes	0.804335599998012	0	744612	252
1456.380859375	0.804335599998012	health	choicePhaseStart	4	190	10	foodImage.73	FOODEEG_Images\0717.jpg	YN	Left	Yes	0.804335599998012	0	745668	253
1457.17578125	0	health	response	4	190	10	foodImage.73	FOODEEG_Images\0717.jpg	YN	Left	Yes	0.804335599998012	0	746075	234
1458.21875	1	decision	trialStart	4	191	11	foodImage.117	FOODEEG_Images\0925.jpg	YN	Right	No	1.11124590004329	0	746609	251
1459.259765625	2	decision	foodImageDisplay	4	191	11	foodImage.117	FOODEEG_Images\0925.jpg	YN	Right	No	1.11124590004329	0	747142	252
1461.322265625	1.11124590004329	decision	choicePhaseStart	4	191	11	foodImage.117	FOODEEG_Images\0925.jpg	YN	Right	No	1.11124590004329	0	748198	253
1462.423828125	0	decision	response	4	191	11	foodImage.117	FOODEEG_Images\0925.jpg	YN	Right	No	1.11124590004329	0	748762	235
1463.47265625	1	decision	trialStart	4	192	12	foodImage.6	FOODEEG_Images\0113.jpg	YN	Left	Yes	0.759299600031227	0	749299	251
1464.513671875	2	decision	foodImageDisplay	4	192	12	foodImage.6	FOODEEG_Images\0113.jpg	YN	Left	Yes	0.759299600031227	0	749832	252
1466.576171875	0.759299600031227	decision	choicePhaseStart	4	192	12	foodImage.6	FOODEEG_Images\0113.jpg	YN	Left	Yes	0.759299600031227	0	750888	253
1467.328125	0	decision	response	4	192	12	foodImage.6	FOODEEG_Images\0113.jpg	YN	Left	Yes	0.759299600031227	0	751273	234
1468.37109375	1	taste	trialStart	4	193	13	foodImage.117	FOODEEG_Images\0925.jpg	YN	Right	No	1.22544820001349	0	751807	251
