onset	duration	trial_type	event_type	block	trial_total	trial_in_block	food_image_code	food_image_path	button_position	resp_position	resp_choice	choice_rt	resp_too_slow	sample	trigger
340.951171875	2	n/a	blockStart	1	n/a	n/a	n/a	n/a	n/a	n/a	n/a	n/a	n/a	174568	250
342.98828125	1	health	trialStart	1	1	1	foodImage.49	FOODEEG_Images\0515.jpg	YN	Right	No	0.855558400042355	0	175611	251
344.03515625	2	health	foodImageDisplay	1	1	1	foodImage.49	FOODEEG_Images\0515.jpg	YN	Right	No	0.855558400042355	0	176147	252
346.099609375	0.855558400042355	health	choicePhaseStart	1	1	1	foodImage.49	FOODEEG_Images\0515.jpg	YN	Right	No	0.855558400042355	0	177204	253
346.947265625	0	health	response	1	1	1	foodImage.49	FOODEEG_Images\0515.jpg	YN	Right	No	0.855558400042355	0	177638	235
348.08984375	1	decision	trialStart	1	2	2	foodImage.25	FOODEEG_Images\0261.jpg	YN	Right	No	1.28606009995565	0	178223	251
349.1328125	2	decision	foodImageDisplay	1	2	2	foodImage.25	FOODEEG_Images\0261.jpg	YN	Right	No	1.28606009995565	0	178757	252
351.1953125	1.28606009995565	decision	choicePhaseStart	1	2	2	foodImage.25	FOODEEG_Images\0261.jpg	YN	Right	No	1.28606009995565	0	179813	253
352.474609375	0	decision	response	1	2	2	foodImage.25	FOODEEG_Images\0261.jpg	YN	Right	No	1.28606009995565	0	180468	235
353.525390625	1	taste	trialStart	1	3	3	foodImage.113	FOODEEG_Images\0921.jpg	NY	Left	No	1.10904250014573	0	181006	251
354.564453125	2	taste	foodImageDisplay	1	3	3	foodImage.113	FOODEEG_Images\0921.jpg	NY	Left	No	1.10904250014573	0	181538	252
356.626953125	1.10904250014573	taste	choicePhaseStart	1	3	3	foodImage.113	FOODEEG_Images\0921.jpg	NY	Left	No	1.10904250014573	0	182594	253
357.73046875	0	taste	response	1	3	3	foodImage.113	FOODEEG_Images\0921.jpg	NY	Left	No	1.10904250014573	0	183159	234
358.7734375	1	decision	trialStart	1	4	4	foodImage.107	FOODEEG_Images\0915.jpg	NY	Right	Yes	0.730192400049418	0	183693	251
359.810546875	2	decision	foodImageDisplay	1	4	4	foodImage.107	FOODEEG_Images\0915.jpg	NY	Right	Yes	0.730192400049418	0	184224	252
361.873046875	0.730192400049418	decision	choicePhaseStart	1	4	4	foodImage.107	FOODEEG_Images\0915.jpg	NY	Right	Yes	0.730192400049418	0	185280	253
362.59375	0	decision	response	1	4	4	foodImage.107	FOODEEG_Images\0915.jpg	NY	Right	Yes	0.730192400049418	0	185649	235
363.63671875	1	health	trialStart	1	5	5	foodImage.8	FOODEEG_Images\0136.jpg	NY	Left	No	0.759690700098872	0	186183	251
364.681640625	2	health	foodImageDisplay	1	5	5	foodImage.8	FOODEEG_Images\0136.jpg	NY	Left	No	0.759690700098872	0	186718	252
366.74609375	0.759690700098872	health	choicePhaseStart	1	5	5	foodImage.8	FOODEEG_Images\0136.jpg	NY	Left	No	0.759690700098872	0	187775	253
367.498046875	0	health	response	1	5	5	foodImage.8	FOODEEG_Images\0136.jpg	NY	Left	No	0.759690700098872	0	188160	234
368.548828125	1	taste	trialStart	1	6	6	foodImage.60	FOODEEG_Images\0614.jpg	NY	Right	Yes	0.692280900198966	0	188698	251
369.607421875	2	taste	foodImageDisplay	1	6	6	foodImage.60	FOODEEG_Images\0614.jpg	NY	Right	Yes	0.692280900198966	0	189240	252
371.669921875	0.692280900198966	taste	choicePhaseStart	1	6	6	foodImage.60	FOODEEG_Images\0614.jpg	NY	Right	Yes	0.692280900198966	0	190296	253
372.353515625	0	taste	response	1	6	6	foodImage.60	FOODEEG_Images\0614.jpg	NY	Right	Yes	0.692280900198966	0	190646	235
373.39453125	1	decision	trialStart	1	7	7	foodImage.40	FOODEEG_Images\0373.jpg	NY	Right	Yes	1.14943170035258	0	191179	251
374.435546875	2	decision	foodImageDisplay	1	7	7	foodImage.40	FOODEEG_Images\0373.jpg	NY	Right	Yes	1.14943170035258	0	191712	252
376.498046875	1.14943170035258	decision	choicePhaseStart	1	7	7	foodImage.40	FOODEEG_Images\0373.jpg	NY	Right	Yes	1.14943170035258	0	192768	253
377.642578125	0	decision	response	1	7	7	foodImage.40	FOODEEG_Images\0373.jpg	NY	Right	Yes	1.14943170035258	0	193354	235
378.68359375	1	decision	trialStart	1	8	8	foodImage.116	FOODEEG_Images\0924.jpg	YN	Left	Yes	0.698448900133371	0	193887	251
379.720703125	2	decision	foodImageDisplay	1	8	8	foodImage.116	FOODEEG_Images\0924.jpg	YN	Left	Yes	0.698448900133371	0	194418	252
381.783203125	0.698448900133371	decision	choicePhaseStart	1	8	8	foodImage.116	FOODEEG_Images\0924.jpg	YN	Left	Yes	0.698448900133371	0	195474	253
382.47265625	0	decision	response	1	8	8	foodImage.116	FOODEEG_Images\0924.jpg	YN	Left	Yes	0.698448900133371	0	195827	234
383.517578125	1	taste	trialStart	1	9	9	foodImage.38	FOODEEG_Images\0365.jpg	NY	Right	Yes	0.686651200056076	0	196362	251
384.556640625	2	taste	foodImageDisplay	1	9	9	foodImage.38	FOODEEG_Images\0365.jpg	NY	Right	Yes	0.686651200056076	0	196894	252
386.619140625	0.686651200056076	taste	choicePhaseStart	1	9	9	foodImage.38	FOODEEG_Images\0365.jpg	NY	Right	Yes	0.686651200056076	0	197950	253
387.296875	0	taste	response	1	9	9	foodImage.38	FOODEEG_Images\0365.jpg	NY	Right	Yes	0.686651200056076	0	198297	235
388.33984375	1	decision	trialStart	1	10	10	foodImage.101	FOODEEG_Images\0909.jpg	YN	Right	No	0.710074700415134	0	198831	251
389.37890625	2	decision	foodImageDisplay	1	10	10	foodImage.101	FOODEEG_Images\0909.jpg	YN	Right	No	0.710074700415134	0	199363	252
391.44140625	0.710074700415134	decision	choicePhaseStart	1	10	10	foodImage.101	FOODEEG_Images\0909.jpg	YN	Right	No	0.710074700415134	0	200419	253
392.14453125	0	decision	response	1	10	10	foodImage.101	FOODEEG_Images\0909.jpg	YN	Right	No	0.710074700415134	0	200779	235
393.1875	1	decision	trialStart	1	11	11	foodImage.46	FOODEEG_Images\0479.jpg	NY	Right	Yes	0.592896000016481	0	201313	251
394.248046875	2	decision	foodImageDisplay	1	11	11	foodImage.46	FOODEEG_Images\0479.jpg	NY	Right	Yes	0.592896000016481	0	201856	252
396.310546875	0.592896000016481	decision	choicePhaseStart	1	11	11	foodImage.46	FOODEEG_Images\0479.jpg	NY	Right	Yes	0.592896000016481	0	202912	253
396.896484375	0	decision	response	1	11	11	foodImage.46	FOODEEG_Images\0479.jpg	NY	Right	Yes	0.592896000016481	0	203212	235
397.935546875	1	decision	trialStart	1	12	12	foodImage.77	FOODEEG_Images\0771.jpg	NY	Right	Yes	0.765253700315952	0	203744	251
398.98046875	2	decision	foodImageDisplay	1	12	12	foodImage.77	FOODEEG_Images\0771.jpg	NY	Right	Yes	0.765253700315952	0	204279	252
401.04296875	0.765253700315952	decision	choicePhaseStart	1	12	12	foodImage.77	FOODEEG_Images\0771.jpg	NY	Right	Yes	0.765253700315952	0	205335	253
401.80078125	0	decision	response	1	12	12	foodImage.77	FOODEEG_Images\0771.jpg	NY	Right	Yes	0.765253700315952	0	205723	235
402.83984375	1	health	trialStart	1	13	13	foodImage.46	FOODEEG_Images\0479.jpg	YN	Left	Yes	0.761605199892074	0	206255	251
403.89453125	2	health	foodImageDisplay	1	13	13	foodImage.46	FOODEEG_Images\0479.jpg	YN	Left	Yes	0.761605199892074	0	206795	252
405.95703125	0.761605199892074	health	choicePhaseStart	1	13	13	foodImage.46	FOODEEG_Images\0479.jpg	YN	Left	Yes	0.761605199892074	0	207851	253
406.712890625	0	health	response	1	13	13	foodImage.46	FOODEEG_Images\0479.jpg	YN	Left	Yes	0.761605199892074	0	208238	234
407.75390625	1	decision	trialStart	1	14	14	foodImage.54	FOODEEG_Images\0560.jpg	NY	Right	Yes	0.764746200293303	0	208771	251
408.8125	2	decision	foodImageDisplay	1	14	14	foodImage.54	FOODEEG_Images\0560.jpg	NY	Right	Yes	0.764746200293303	0	209313	252
410.875	0.764746200293303	decision	choicePhaseStart	1	14	14	foodImage.54	FOODEEG_Images\0560.jpg	NY	Right	Yes	0.764746200293303	0	210369	253
411.6328125	0	decision	response	1	14	14	foodImage.54	FOODEEG_Images\0560.jpg	NY	Right	Yes	0.764746200293303	0	210757	235
412.673828125	1	decision	trialStart	1	15	15	foodImage.13	FOODEEG_Images\0183.jpg	NY	Right	Yes	0.557012800127268	0	211290	251
413.71484375	2	decision	foodImageDisplay	1	15	15	foodImage.13	FOODEEG_Images\0183.jpg	NY	Right	Yes	0.557012800127268	0	211823	252
415.77734375	0.557012800127268	decision	choicePhaseStart	1	15	15	foodImage.13	FOODEEG_Images\0183.jpg	NY	Right	Yes	0.557012800127268	0	212879	253
416.328125	0	decision	response	1	15	15	foodImage.13	FOODEEG_Images\0183.jpg	NY	Right	Yes	0.557012800127268	0	213161	235
417.369140625	1	decision	trialStart	1	16	16	foodImage.15	FOODEEG_Images\0189.jpg	NY	Right	Yes	0.674417200032622	0	213694	251
418.42578125	2	decision	foodImageDisplay	1	16	16	foodImage.15	FOODEEG_Images\0189.jpg	NY	Right	Yes	0.674417200032622	0	214235	252
420.48828125	0.674417200032622	decision	choicePhaseStart	1	16	16	foodImage.15	FOODEEG_Images\0189.jpg	NY	Right	Yes	0.674417200032622	0	215291	253
421.15234375	0	decision	response	1	16	16	foodImage.15	FOODEEG_Images\0189.jpg	NY	Right	Yes	0.674417200032622	0	215631	235
422.1953125	1	taste	trialStart	1	17	17	foodImage.55	FOODEEG_Images\0567.jpg	NY	Right	Yes	0.766323600430042	0	216165	251
423.25	2	taste	foodImageDisplay	1	17	17	foodImage.55	FOODEEG_Images\0567.jpg	NY	Right	Yes	0.766323600430042	0	216705	252
425.3125	0.766323600430042	taste	choicePhaseStart	1	17	17	foodImage.55	FOODEEG_Images\0567.jpg	NY	Right	Yes	0.766323600430042	0	217761	253
426.072265625	0	taste	response	1	17	17	foodImage.55	FOODEEG_Images\0567.jpg	NY	Right	Yes	0.766323600430042	0	218150	235
427.11328125	1	health	trialStart	1	18	18	foodImage.103	FOODEEG_Images\0911.jpg	YN	Right	No	0.815840899944305	0	218683	251
428.15234375	2	health	foodImageDisplay	1	18	18	foodImage.103	FOODEEG_Images\0911.jpg	YN	Right	No	0.815840899944305	0	219215	252
430.21484375	0.815840899944305	health	choicePhaseStart	1	18	18	foodImage.103	FOODEEG_Images\0911.jpg	YN	Right	No	0.815840899944305	0	220271	253
431.0234375	0	health	response	1	18	18	foodImage.103	FOODEEG_Images\0911.jpg	YN	Right	No	0.815840899944305	0	220685	235
432.064453125	1	decision	trialStart	1	19	19	foodImage.99	FOODEEG_Images\0907.jpg	YN	Left	Yes	0.657052299939096	0	221218	251
433.103515625	2	decision	foodImageDisplay	1	19	19	foodImage.99	FOODEEG_Images\0907.jpg	YN	Left	Yes	0.657052299939096	0	221750	252
435.166015625	0.657052299939096	decision	choicePhaseStart	1	19	19	foodImage.99	FOODEEG_Images\0907.jpg	YN	Left	Yes	0.657052299939096	0	222806	253
435.81640625	0	decision	response	1	19	19	foodImage.99	FOODEEG_Images\0907.jpg	YN	Left	Yes	0.657052299939096	0	223139	234
436.857421875	1	decision	trialStart	1	20	20	foodImage.60	FOODEEG_Images\0614.jpg	NY	Right	Yes	0.713402700144798	0	223672	251
437.919921875	2	decision	foodImageDisplay	1	20	20	foodImage.60	FOODEEG_Images\0614.jpg	NY	Right	Yes	0.713402700144798	0	224216	252
439.982421875	0.713402700144798	decision	choicePhaseStart	1	20	20	foodImage.60	FOODEEG_Images\0614.jpg	NY	Right	Yes	0.713402700144798	0	225272	253
440.6875	0	decision	response	1	20	20	foodImage.60	FOODEEG_Images\0614.jpg	NY	Right	Yes	0.713402700144798	0	225633	235
441.73046875	1	taste	trialStart	1	21	21	foodImage.88	FOODEEG_Images\0878.jpg	NY	Right	Yes	0.66080450033769	0	226167	251
442.787109375	2	taste	foodImageDisplay	1	21	21	foodImage.88	FOODEEG_Images\0878.jpg	NY	Right	Yes	0.66080450033769	0	226708	252
444.849609375	0.66080450033769	taste	choicePhaseStart	1	21	21	foodImage.88	FOODEEG_Images\0878.jpg	NY	Right	Yes	0.66080450033769	0	227764	253
445.501953125	0	taste	response	1	21	21	foodImage.88	FOODEEG_Images\0878.jpg	NY	Right	Yes	0.66080450033769	0	228098	235
446.54296875	1	health	trialStart	1	22	22	foodImage.64	FOODEEG_Images\0647.jpg	NY	Right	Yes	0.658163700252771	0	228631	251
447.603515625	2	health	foodImageDisplay	1	22	22	foodImage.64	FOODEEG_Images\0647.jpg	NY	Right	Yes	0.658163700252771	0	229174	252
449.66796875	0.658163700252771	health	choicePhaseStart	1	22	22	foodImage.64	FOODEEG_Images\0647.jpg	NY	Right	Yes	0.658163700252771	0	230231	253
450.318359375	0	health	response	1	22	22	foodImage.64	FOODEEG_Images\0647.jpg	NY	Right	Yes	0.658163700252771	0	230564	235
451.359375	1	decision	trialStart	1	23	23	foodImage.10	FOODEEG_Images\0145.jpg	NY	Right	Yes	0.669072800315917	0	231097	251
452.41796875	2	decision	foodImageDisplay	1	23	23	foodImage.10	FOODEEG_Images\0145.jpg	NY	Right	Yes	0.669072800315917	0	231639	252
454.482421875	0.669072800315917	decision	choicePhaseStart	1	23	23	foodImage.10	FOODEEG_Images\0145.jpg	NY	Right	Yes	0.669072800315917	0	232696	253
455.142578125	0	decision	response	1	23	23	foodImage.10	FOODEEG_Images\0145.jpg	NY	Right	Yes	0.669072800315917	0	233034	235
456.18359375	1	taste	trialStart	1	24	24	foodImage.97	FOODEEG_Images\0905.jpg	YN	Right	No	2.08297439990565	0	233567	251
457.22265625	2	taste	foodImageDisplay	1	24	24	foodImage.97	FOODEEG_Images\0905.jpg	YN	Right	No	2.08297439990565	0	234099	252
459.28515625	2.08297439990565	taste	choicePhaseStart	1	24	24	foodImage.97	FOODEEG_Images\0905.jpg	YN	Right	No	2.08297439990565	0	235155	253
461.357421875	0	taste	response	1	24	24	foodImage.97	FOODEEG_Images\0905.jpg	YN	Right	No	2.08297439990565	0	236216	235
462.3984375	1	taste	trialStart	1	25	25	foodImage.93	FOODEEG_Images\0901.jpg	NY	Left	No	0.794964199885726	0	236749	251
463.4375	2	taste	foodImageDisplay	1	25	25	foodImage.93	FOODEEG_Images\0901.jpg	NY	Left	No	0.794964199885726	0	237281	252
465.5	0.794964199885726	taste	choicePhaseStart	1	25	25	foodImage.93	FOODEEG_Images\0901.jpg	NY	Left	No	0.794964199885726	0	238337	253
466.28515625	0	taste	response	1	25	25	foodImage.93	FOODEEG_Images\0901.jpg	NY	Left	No	0.794964199885726	0	238739	234
467.326171875	1	health	trialStart	1	26	26	foodImage.38	FOODEEG_Images\0365.jpg	YN	Left	Yes	0.644455099944025	0	239272	251
468.36328125	2	health	foodImageDisplay	1	26	26	foodImage.38	FOODEEG_Images\0365.jpg	YN	Left	Yes	0.644455099944025	0	239803	252
470.42578125	0.644455099944025	health	choicePhaseStart	1	26	26	foodImage.38	FOODEEG_Images\0365.jpg	YN	Left	Yes	0.644455099944025	0	240859	253
471.0625	0	health	response	1	26	26	foodImage.38	FOODEEG_Images\0365.jpg	YN	Left	Yes	0.644455099944025	0	241185	234
472.1015625	1	taste	trialStart	1	27	27	foodImage.50	FOODEEG_Images\0529.jpg	NY	Left	No	0.680973999667913	0	241717	251
473.158203125	2	taste	foodImageDisplay	1	27	27	foodImage.50	FOODEEG_Images\0529.jpg	NY	Left	No	0.680973999667913	0	242258	252
475.220703125	0.680973999667913	taste	choicePhaseStart	1	27	27	foodImage.50	FOODEEG_Images\0529.jpg	NY	Left	No	0.680973999667913	0	243314	253
475.892578125	0	taste	response	1	27	27	foodImage.50	FOODEEG_Images\0529.jpg	NY	Left	No	0.680973999667913	0	243658	234
476.93359375	1	taste	trialStart	1	28	28	foodImage.116	FOODEEG_Images\0924.jpg	NY	Right	Yes	0.637029499746859	0	244191	251
477.97265625	2	taste	foodImageDisplay	1	28	28	foodImage.116	FOODEEG_Images\0924.jpg	NY	Right	Yes	0.637029499746859	0	244723	252
480.03515625	0.637029499746859	taste	choicePhaseStart	1	28	28	foodImage.116	FOODEEG_Images\0924.jpg	NY	Right	Yes	0.637029499746859	0	245779	253
480.662109375	0	taste	response	1	28	28	foodImage.116	FOODEEG_Images\0924.jpg	NY	Right	Yes	0.637029499746859	0	246100	235
481.703125	1	health	trialStart	1	29	29	foodImage.52	FOODEEG_Images\0539.jpg	NY	Right	Yes	0.902398699894547	0	246633	251
482.759765625	2	health	foodImageDisplay	1	29	29	foodImage.52	FOODEEG_Images\0539.jpg	NY	Right	Yes	0.902398699894547	0	247174	252
484.822265625	0.902398699894547	health	choicePhaseStart	1	29	29	foodImage.52	FOODEEG_Images\0539.jpg	NY	Right	Yes	0.902398699894547	0	248230	253
485.716796875	0	health	response	1	29	29	foodImage.52	FOODEEG_Images\0539.jpg	NY	Right	Yes	0.902398699894547	0	248688	235
486.759765625	1	taste	trialStart	1	30	30	foodImage.66	FOODEEG_Images\0676.jpg	NY	Right	Yes	0.637075699865818	0	249222	251
487.802734375	2	taste	foodImageDisplay	1	30	30	foodImage.66	FOODEEG_Images\0676.jpg	NY	Right	Yes	0.637075699865818	0	249756	252
489.865234375	0.637075699865818	taste	choicePhaseStart	1	30	30	foodImage.66	FOODEEG_Images\0676.jpg	NY	Right	Yes	0.637075699865818	0	250812	253
490.4921875	0	taste	response	1	30	30	foodImage.66	FOODEEG_Images\0676.jpg	NY	Right	Yes	0.637075699865818	0	251133	235
491.533203125	1	health	trialStart	1	31	31	foodImage.108	FOODEEG_Images\0916.jpg	YN	Right	No	1.24177449988201	0	251666	251
492.57421875	2	health	foodImageDisplay	1	31	31	foodImage.108	FOODEEG_Images\0916.jpg	YN	Right	No	1.24177449988201	0	252199	252
494.63671875	1.24177449988201	health	choicePhaseStart	1	31	31	foodImage.108	FOODEEG_Images\0916.jpg	YN	Right	No	1.24177449988201	0	253255	253
495.869140625	0	health	response	1	31	31	foodImage.108	FOODEEG_Images\0916.jpg	YN	Right	No	1.24177449988201	0	253886	235
496.91015625	1	decision	trialStart	1	32	32	foodImage.37	FOODEEG_Images\0359.jpg	YN	Left	Yes	0.960441899951547	0	254419	251
497.951171875	2	decision	foodImageDisplay	1	32	32	foodImage.37	FOODEEG_Images\0359.jpg	YN	Left	Yes	0.960441899951547	0	254952	252
500.013671875	0.960441899951547	decision	choicePhaseStart	1	32	32	foodImage.37	FOODEEG_Images\0359.jpg	YN	Left	Yes	0.960441899951547	0	256008	253
500.96484375	0	decision	response	1	32	32	foodImage.37	FOODEEG_Images\0359.jpg	YN	Left	Yes	0.960441899951547	0	256495	234
502.0078125	1	health	trialStart	1	33	33	foodImage.6	FOODEEG_Images\0113.jpg	YN	Right	No	0.558933599852026	0	257029	251
503.048828125	2	health	foodImageDisplay	1	33	33	foodImage.6	FOODEEG_Images\0113.jpg	YN	Right	No	0.558933599852026	0	257562	252
505.111328125	0.558933599852026	health	choicePhaseStart	1	33	33	foodImage.6	FOODEEG_Images\0113.jpg	YN	Right	No	0.558933599852026	0	258618	253
505.66015625	0	health	response	1	33	33	foodImage.6	FOODEEG_Images\0113.jpg	YN	Right	No	0.558933599852026	0	258899	235
506.701171875	1	decision	trialStart	1	34	34	foodImage.109	FOODEEG_Images\0917.jpg	NY	Right	Yes	0.615015599876642	0	259432	251
507.740234375	2	decision	foodImageDisplay	1	34	34	foodImage.109	FOODEEG_Images\0917.jpg	NY	Right	Yes	0.615015599876642	0	259964	252
509.8046875	0.615015599876642	decision	choicePhaseStart	1	34	34	foodImage.109	FOODEEG_Images\0917.jpg	NY	Right	Yes	0.615015599876642	0	261021	253
510.412109375	0	decision	response	1	34	34	foodImage.109	FOODEEG_Images\0917.jpg	NY	Right	Yes	0.615015599876642	0	261332	235
511.45703125	1	health	trialStart	1	35	35	foodImage.88	FOODEEG_Images\0878.jpg	YN	Right	No	0.729212100151926	0	261867	251
512.509765625	2	health	foodImageDisplay	1	35	35	foodImage.88	FOODEEG_Images\0878.jpg	YN	Right	No	0.729212100151926	0	262406	252
514.572265625	0.729212100151926	health	choicePhaseStart	1	35	35	foodImage.88	FOODEEG_Images\0878.jpg	YN	Right	No	0.729212100151926	0	263462	253
515.291015625	0	health	response	1	35	35	foodImage.88	FOODEEG_Images\0878.jpg	YN	Right	No	0.729212100151926	0	263830	235
516.33203125	1	taste	trialStart	1	36	36	foodImage.25	FOODEEG_Images\0261.jpg	NY	Left	No	0.848783400375396	0	264363	251
517.373046875	2	taste	foodImageDisplay	1	36	36	foodImage.25	FOODEEG_Images\0261.jpg	NY	Left	No	0.848783400375396	0	264896	252
519.435546875	0.848783400375396	taste	choicePhaseStart	1	36	36	foodImage.25	FOODEEG_Images\0261.jpg	NY	Left	No	0.848783400375396	0	265952	253
520.275390625	0	taste	response	1	36	36	foodImage.25	FOODEEG_Images\0261.jpg	NY	Left	No	0.848783400375396	0	266382	234
521.318359375	1	health	trialStart	1	37	37	foodImage.104	FOODEEG_Images\0912.jpg	YN	Right	No	0.480499600060284	0	266916	251
522.357421875	2	health	foodImageDisplay	1	37	37	foodImage.104	FOODEEG_Images\0912.jpg	YN	Right	No	0.480499600060284	0	267448	252
524.419921875	0.480499600060284	health	choicePhaseStart	1	37	37	foodImage.104	FOODEEG_Images\0912.jpg	YN	Right	No	0.480499600060284	0	268504	253
524.890625	0	health	response	1	37	37	foodImage.104	FOODEEG_Images\0912.jpg	YN	Right	No	0.480499600060284	0	268745	235
525.93359375	1	taste	trialStart	1	38	38	foodImage.47	FOODEEG_Images\0488.jpg	YN	Left	Yes	0.622082800138742	0	269279	251
526.974609375	2	taste	foodImageDisplay	1	38	38	foodImage.47	FOODEEG_Images\0488.jpg	YN	Left	Yes	0.622082800138742	0	269812	252
529.0390625	0.622082800138742	taste	choicePhaseStart	1	38	38	foodImage.47	FOODEEG_Images\0488.jpg	YN	Left	Yes	0.622082800138742	0	270869	253
529.65234375	0	taste	response	1	38	38	foodImage.47	FOODEEG_Images\0488.jpg	YN	Left	Yes	0.622082800138742	0	271183	234
530.697265625	1	health	trialStart	1	39	39	foodImage.67	FOODEEG_Images\0679.jpg	YN	Left	Yes	1.00248510017991	0	271718	251
531.755859375	2	health	foodImageDisplay	1	39	39	foodImage.67	FOODEEG_Images\0679.jpg	YN	Left	Yes	1.00248510017991	0	272260	252
533.818359375	1.00248510017991	health	choicePhaseStart	1	39	39	foodImage.67	FOODEEG_Images\0679.jpg	YN	Left	Yes	1.00248510017991	0	273316	253
534.810546875	0	health	response	1	39	39	foodImage.67	FOODEEG_Images\0679.jpg	YN	Left	Yes	1.00248510017991	0	273824	234
535.8515625	1	decision	trialStart	1	40	40	foodImage.97	FOODEEG_Images\0905.jpg	YN	Right	No	0.68360190000385	0	274357	251
536.888671875	2	decision	foodImageDisplay	1	40	40	foodImage.97	FOODEEG_Images\0905.jpg	YN	Right	No	0.68360190000385	0	274888	252
538.951171875	0.68360190000385	decision	choicePhaseStart	1	40	40	foodImage.97	FOODEEG_Images\0905.jpg	YN	Right	No	0.68360190000385	0	275944	253
539.626953125	0	decision	response	1	40	40	foodImage.97	FOODEEG_Images\0905.jpg	YN	Right	No	0.68360190000385	0	276290	235
540.66796875	1	decision	trialStart	1	41	41	foodImage.45	FOODEEG_Images\0478.jpg	YN	Left	Yes	0.7395856003277	0	276823	251
541.712890625	2	decision	foodImageDisplay	1	41	41	foodImage.45	FOODEEG_Images\0478.jpg	YN	Left	Yes	0.7395856003277	0	277358	252
543.775390625	0.7395856003277	decision	choicePhaseStart	1	41	41	foodImage.45	FOODEEG_Images\0478.jpg	YN	Left	Yes	0.7395856003277	0	278414	253
544.5078125	0	decision	response	1	41	41	foodImage.45	FOODEEG_Images\0478.jpg	YN	Left	Yes	0.7395856003277	0	278789	234
545.546875	1	health	trialStart	1	42	42	foodImage.22	FOODEEG_Images\0236.jpg	NY	Left	No	1.06581520009786	0	279321	251
546.5859375	2	health	foodImageDisplay	1	42	42	foodImage.22	FOODEEG_Images\0236.jpg	NY	Left	No	1.06581520009786	0	279853	252
548.6484375	1.06581520009786	health	choicePhaseStart	1	42	42	foodImage.22	FOODEEG_Images\0236.jpg	NY	Left	No	1.06581520009786	0	280909	253
549.70703125	0	health	response	1	42	42	foodImage.22	FOODEEG_Images\0236.jpg	NY	Left	No	1.06581520009786	0	281451	234
550.748046875	1	health	trialStart	1	43	43	foodImage.10	FOODEEG_Images\0145.jpg	NY	Left	No	0.617024400271475	0	281984	251
551.802734375	2	health	foodImageDisplay	1	43	43	foodImage.10	FOODEEG_Images\0145.jpg	NY	Left	No	0.617024400271475	0	282524	252
553.865234375	0.617024400271475	health	choicePhaseStart	1	43	43	foodImage.10	FOODEEG_Images\0145.jpg	NY	Left	No	0.617024400271475	0	283580	253
554.474609375	0	health	response	1	43	43	foodImage.10	FOODEEG_Images\0145.jpg	NY	Left	No	0.617024400271475	0	283892	234
555.515625	1	health	trialStart	1	44	44	foodImage.34	FOODEEG_Images\0339.jpg	NY	Left	No	0.505474200006574	0	284425	251
556.5703125	2	health	foodImageDisplay	1	44	44	foodImage.34	FOODEEG_Images\0339.jpg	NY	Left	No	0.505474200006574	0	284965	252
558.6328125	0.505474200006574	health	choicePhaseStart	1	44	44	foodImage.34	FOODEEG_Images\0339.jpg	NY	Left	No	0.505474200006574	0	286021	253
559.130859375	0	health	response	1	44	44	foodImage.34	FOODEEG_Images\0339.jpg	NY	Left	No	0.505474200006574	0	286276	234
560.173828125	1	decision	trialStart	1	45	45	foodImage.104	FOODEEG_Images\0912.jpg	NY	Left	No	1.05627290019765	0	286810	251
561.212890625	2	decision	foodImageDisplay	1	45	45	foodImage.104	FOODEEG_Images\0912.jpg	NY	Left	No	1.05627290019765	0	287342	252
563.275390625	1.05627290019765	decision	choicePhaseStart	1	45	45	foodImage.104	FOODEEG_Images\0912.jpg	NY	Left	No	1.05627290019765	0	288398	253
564.322265625	0	decision	response	1	45	45	foodImage.104	FOODEEG_Images\0912.jpg	NY	Left	No	1.05627290019765	0	288934	234
565.365234375	1	health	trialStart	1	46	46	foodImage.86	FOODEEG_Images\0844.jpg	NY	Left	No	1.39575899997726	0	289468	251
566.423828125	2	health	foodImageDisplay	1	46	46	foodImage.86	FOODEEG_Images\0844.jpg	NY	Left	No	1.39575899997726	0	290010	252
568.486328125	1.39575899997726	health	choicePhaseStart	1	46	46	foodImage.86	FOODEEG_Images\0844.jpg	NY	Left	No	1.39575899997726	0	291066	253
569.873046875	0	health	response	1	46	46	foodImage.86	FOODEEG_Images\0844.jpg	NY	Left	No	1.39575899997726	0	291776	234
570.9140625	1	decision	trialStart	1	47	47	foodImage.11	FOODEEG_Images\0180.jpg	NY	Right	Yes	0.677236299961805	0	292309	251
571.95703125	2	decision	foodImageDisplay	1	47	47	foodImage.11	FOODEEG_Images\0180.jpg	NY	Right	Yes	0.677236299961805	0	292843	252
574.021484375	0.677236299961805	decision	choicePhaseStart	1	47	47	foodImage.11	FOODEEG_Images\0180.jpg	NY	Right	Yes	0.677236299961805	0	293900	253
574.689453125	0	decision	response	1	47	47	foodImage.11	FOODEEG_Images\0180.jpg	NY	Right	Yes	0.677236299961805	0	294242	235
575.73046875	1	health	trialStart	1	48	48	foodImage.9	FOODEEG_Images\0138.jpg	NY	Left	No	0.696157900150865	0	294775	251
576.787109375	2	health	foodImageDisplay	1	48	48	foodImage.9	FOODEEG_Images\0138.jpg	NY	Left	No	0.696157900150865	0	295316	252
578.849609375	0.696157900150865	health	choicePhaseStart	1	48	48	foodImage.9	FOODEEG_Images\0138.jpg	NY	Left	No	0.696157900150865	0	296372	253
579.537109375	0	health	response	1	48	48	foodImage.9	FOODEEG_Images\0138.jpg	NY	Left	No	0.696157900150865	0	296724	234
580.578125	1	taste	trialStart	1	49	49	foodImage.94	FOODEEG_Images\0902.jpg	NY	Right	Yes	0.906955400016159	0	297257	251
581.6171875	2	taste	foodImageDisplay	1	49	49	foodImage.94	FOODEEG_Images\0902.jpg	NY	Right	Yes	0.906955400016159	0	297789	252
583.6796875	0.906955400016159	taste	choicePhaseStart	1	49	49	foodImage.94	FOODEEG_Images\0902.jpg	NY	Right	Yes	0.906955400016159	0	298845	253
584.578125	0	taste	response	1	49	49	foodImage.94	FOODEEG_Images\0902.jpg	NY	Right	Yes	0.906955400016159	0	299305	235
585.619140625	1	taste	trialStart	1	50	50	foodImage.77	FOODEEG_Images\0771.jpg	YN	Left	Yes	0.691959000192583	0	299838	251
586.6640625	2	taste	foodImageDisplay	1	50	50	foodImage.77	FOODEEG_Images\0771.jpg	YN	Left	Yes	0.691959000192583	0	300373	252
588.724609375	0.691959000192583	taste	choicePhaseStart	1	50	50	foodImage.77	FOODEEG_Images\0771.jpg	YN	Left	Yes	0.691959000192583	0	301428	253
589.408203125	0	taste	response	1	50	50	foodImage.77	FOODEEG_Images\0771.jpg	YN	Left	Yes	0.691959000192583	0	301778	234
590.451171875	1	taste	trialStart	1	51	51	foodImage.86	FOODEEG_Images\0844.jpg	YN	Left	Yes	0.628366900142282	0	302312	251
591.5078125	2	taste	foodImageDisplay	1	51	51	foodImage.86	FOODEEG_Images\0844.jpg	YN	Left	Yes	0.628366900142282	0	302853	252
593.5703125	0.628366900142282	taste	choicePhaseStart	1	51	51	foodImage.86	FOODEEG_Images\0844.jpg	YN	Left	Yes	0.628366900142282	0	303909	253
594.193359375	0	taste	response	1	51	51	foodImage.86	FOODEEG_Images\0844.jpg	YN	Left	Yes	0.628366900142282	0	304228	234
595.236328125	1	taste	trialStart	1	52	52	foodImage.35	FOODEEG_Images\0350.jpg	YN	Left	Yes	0.494623600039631	0	304762	251
596.27734375	2	taste	foodImageDisplay	1	52	52	foodImage.35	FOODEEG_Images\0350.jpg	YN	Left	Yes	0.494623600039631	0	305295	252
598.33984375	0.494623600039631	taste	choicePhaseStart	1	52	52	foodImage.35	FOODEEG_Images\0350.jpg	YN	Left	Yes	0.494623600039631	0	306351	253
598.82421875	0	taste	response	1	52	52	foodImage.35	FOODEEG_Images\0350.jpg	YN	Left	Yes	0.494623600039631	0	306599	234
599.865234375	1	health	trialStart	1	53	53	foodImage.82	FOODEEG_Images\0805.jpg	NY	Right	Yes	1.05152639979497	0	307132	251
600.919921875	2	health	foodImageDisplay	1	53	53	foodImage.82	FOODEEG_Images\0805.jpg	NY	Right	Yes	1.05152639979497	0	307672	252
602.982421875	1.05152639979497	health	choicePhaseStart	1	53	53	foodImage.82	FOODEEG_Images\0805.jpg	NY	Right	Yes	1.05152639979497	0	308728	253
604.025390625	0	health	response	1	53	53	foodImage.82	FOODEEG_Images\0805.jpg	NY	Right	Yes	1.05152639979497	0	309262	235
605.064453125	1	taste	trialStart	1	54	54	foodImage.81	FOODEEG_Images\0797.jpg	YN	Left	Yes	0.706299400422722	0	309794	251
606.12109375	2	taste	foodImageDisplay	1	54	54	foodImage.81	FOODEEG_Images\0797.jpg	YN	Left	Yes	0.706299400422722	0	310335	252
608.18359375	0.706299400422722	taste	choicePhaseStart	1	54	54	foodImage.81	FOODEEG_Images\0797.jpg	YN	Left	Yes	0.706299400422722	0	311391	253
608.880859375	0	taste	response	1	54	54	foodImage.81	FOODEEG_Images\0797.jpg	YN	Left	Yes	0.706299400422722	0	311748	234
609.919921875	1	taste	trialStart	1	55	55	foodImage.62	FOODEEG_Images\0644.jpg	YN	Right	No	0.580466700252146	0	312280	251
610.9765625	2	taste	foodImageDisplay	1	55	55	foodImage.62	FOODEEG_Images\0644.jpg	YN	Right	No	0.580466700252146	0	312821	252
613.037109375	0.580466700252146	taste	choicePhaseStart	1	55	55	foodImage.62	FOODEEG_Images\0644.jpg	YN	Right	No	0.580466700252146	0	313876	253
613.607421875	0	taste	response	1	55	55	foodImage.62	FOODEEG_Images\0644.jpg	YN	Right	No	0.580466700252146	0	314168	235
614.6484375	1	taste	trialStart	1	56	56	foodImage.43	FOODEEG_Images\0445.jpg	YN	Right	No	0.558177399914712	0	314701	251
615.70703125	2	taste	foodImageDisplay	1	56	56	foodImage.43	FOODEEG_Images\0445.jpg	YN	Right	No	0.558177399914712	0	315243	252
617.76953125	0.558177399914712	taste	choicePhaseStart	1	56	56	foodImage.43	FOODEEG_Images\0445.jpg	YN	Right	No	0.558177399914712	0	316299	253
618.3203125	0	taste	response	1	56	56	foodImage.43	FOODEEG_Images\0445.jpg	YN	Right	No	0.558177399914712	0	316581	235
619.36328125	1	decision	trialStart	1	57	57	foodImage.115	FOODEEG_Images\0923.jpg	NY	Right	Yes	0.671448700129986	0	317115	251
620.40234375	2	decision	foodImageDisplay	1	57	57	foodImage.115	FOODEEG_Images\0923.jpg	NY	Right	Yes	0.671448700129986	0	317647	252
622.46484375	0.671448700129986	decision	choicePhaseStart	1	57	57	foodImage.115	FOODEEG_Images\0923.jpg	NY	Right	Yes	0.671448700129986	0	318703	253
623.126953125	0	decision	response	1	57	57	foodImage.115	FOODEEG_Images\0923.jpg	NY	Right	Yes	0.671448700129986	0	319042	235
624.16796875	1	taste	trialStart	1	58	58	foodImage.48	FOODEEG_Images\0494.jpg	YN	Right	No	0.538723799865693	0	319575	251
625.216796875	2	taste	foodImageDisplay	1	58	58	foodImage.48	FOODEEG_Images\0494.jpg	YN	Right	No	0.538723799865693	0	320112	252
627.279296875	0.538723799865693	taste	choicePhaseStart	1	58	58	foodImage.48	FOODEEG_Images\0494.jpg	YN	Right	No	0.538723799865693	0	321168	253
627.80859375	0	taste	response	1	58	58	foodImage.48	FOODEEG_Images\0494.jpg	YN	Right	No	0.538723799865693	0	321439	235
628.8515625	1	taste	trialStart	1	59	59	foodImage.74	FOODEEG_Images\0752.jpg	NY	Right	Yes	0.588428399991244	0	321973	251
629.89453125	2	taste	foodImageDisplay	1	59	59	foodImage.74	FOODEEG_Images\0752.jpg	NY	Right	Yes	0.588428399991244	0	322507	252
631.962890625	0.588428399991244	taste	choicePhaseStart	1	59	59	foodImage.74	FOODEEG_Images\0752.jpg	NY	Right	Yes	0.588428399991244	0	323566	253
632.54296875	0	taste	response	1	59	59	foodImage.74	FOODEEG_Images\0752.jpg	NY	Right	Yes	0.588428399991244	0	323863	235
633.5859375	1	decision	trialStart	1	60	60	foodImage.5	FOODEEG_Images\0107.jpg	YN	Left	Yes	0.652349899988621	0	324397	251
634.642578125	2	decision	foodImageDisplay	1	60	60	foodImage.5	FOODEEG_Images\0107.jpg	YN	Left	Yes	0.652349899988621	0	324938	252
636.705078125	0.652349899988621	decision	choicePhaseStart	1	60	60	foodImage.5	FOODEEG_Images\0107.jpg	YN	Left	Yes	0.652349899988621	0	325994	253
637.3515625	0	decision	response	1	60	60	foodImage.5	FOODEEG_Images\0107.jpg	YN	Left	Yes	0.652349899988621	0	326325	234
639.390625	4.732421875	n/a	blockEnd	n/a	n/a	n/a	n/a	n/a	n/a	n/a	n/a	n/a	n/a	327369	254
644.123046875	2	n/a	blockStart	2	n/a	n/a	n/a	n/a	n/a	n/a	n/a	n/a	n/a	329792	250
646.154296875	1	health	trialStart	2	61	1	foodImage.62	FOODEEG_Images\0644.jpg	NY	Right	Yes	0.936152599751949	0	330832	251
647.212890625	2	health	foodImageDisplay	2	61	1	foodImage.62	FOODEEG_Images\0644.jpg	NY	Right	Yes	0.936152599751949	0	331374	252
649.275390625	0.936152599751949	health	choicePhaseStart	2	61	1	foodImage.62	FOODEEG_Images\0644.jpg	NY	Right	Yes	0.936152599751949	0	332430	253
650.20703125	0	health	response	2	61	1	foodImage.62	FOODEEG_Images\0644.jpg	NY	Right	Yes	0.936152599751949	0	332907	235
651.24609375	1	taste	trialStart	2	62	2	foodImage.12	FOODEEG_Images\0181.jpg	NY	Right	Yes	0.910779500380158	0	333439	251
652.2890625	2	taste	foodImageDisplay	2	62	2	foodImage.12	FOODEEG_Images\0181.jpg	NY	Right	Yes	0.910779500380158	0	333973	252
654.3515625	0.910779500380158	taste	choicePhaseStart	2	62	2	foodImage.12	FOODEEG_Images\0181.jpg	NY	Right	Yes	0.910779500380158	0	335029	253
655.25390625	0	taste	response	2	62	2	foodImage.12	FOODEEG_Images\0181.jpg	NY	Right	Yes	0.910779500380158	0	335491	235
656.294921875	1	decision	trialStart	2	63	3	foodImage.69	FOODEEG_Images\0693.jpg	NY	Right	Yes	0.639926600269973	0	336024	251
657.337890625	2	decision	foodImageDisplay	2	63	3	foodImage.69	FOODEEG_Images\0693.jpg	NY	Right	Yes	0.639926600269973	0	336558	252
659.400390625	0.639926600269973	decision	choicePhaseStart	2	63	3	foodImage.69	FOODEEG_Images\0693.jpg	NY	Right	Yes	0.639926600269973	0	337614	253
660.03125	0	decision	response	2	63	3	foodImage.69	FOODEEG_Images\0693.jpg	NY	Right	Yes	0.639926600269973	0	337937	235
661.07421875	1	health	trialStart	2	64	4	foodImage.78	FOODEEG_Images\0787.jpg	YN	Left	Yes	0.710857899859548	0	338471	251
662.126953125	2	health	foodImageDisplay	2	64	4	foodImage.78	FOODEEG_Images\0787.jpg	YN	Left	Yes	0.710857899859548	0	339010	252
664.193359375	0.710857899859548	health	choicePhaseStart	2	64	4	foodImage.78	FOODEEG_Images\0787.jpg	YN	Left	Yes	0.710857899859548	0	340068	253
664.89453125	0	health	response	2	64	4	foodImage.78	FOODEEG_Images\0787.jpg	YN	Left	Yes	0.710857899859548	0	340427	234
665.935546875	1	taste	trialStart	2	65	5	foodImage.34	FOODEEG_Images\0339.jpg	NY	Left	No	1.13360249996185	0	340960	251
666.994140625	2	taste	foodImageDisplay	2	65	5	foodImage.34	FOODEEG_Images\0339.jpg	NY	Left	No	1.13360249996185	0	341502	252
669.056640625	1.13360249996185	taste	choicePhaseStart	2	65	5	foodImage.34	FOODEEG_Images\0339.jpg	NY	Left	No	1.13360249996185	0	342558	253
670.181640625	0	taste	response	2	65	5	foodImage.34	FOODEEG_Images\0339.jpg	NY	Left	No	1.13360249996185	0	343134	234
671.224609375	1	health	trialStart	2	66	6	foodImage.84	FOODEEG_Images\0830.jpg	NY	Right	Yes	0.862549700308591	0	343668	251
672.28125	2	health	foodImageDisplay	2	66	6	foodImage.84	FOODEEG_Images\0830.jpg	NY	Right	Yes	0.862549700308591	0	344209	252
674.34375	0.862549700308591	health	choicePhaseStart	2	66	6	foodImage.84	FOODEEG_Images\0830.jpg	NY	Right	Yes	0.862549700308591	0	345265	253
675.197265625	0	health	response	2	66	6	foodImage.84	FOODEEG_Images\0830.jpg	NY	Right	Yes	0.862549700308591	0	345702	235
676.240234375	1	taste	trialStart	2	67	7	foodImage.21	FOODEEG_Images\0234.jpg	YN	Left	Yes	1.445120499935	0	346236	251
677.296875	2	taste	foodImageDisplay	2	67	7	foodImage.21	FOODEEG_Images\0234.jpg	YN	Left	Yes	1.445120499935	0	346777	252
679.359375	1.445120499935	taste	choicePhaseStart	2	67	7	foodImage.21	FOODEEG_Images\0234.jpg	YN	Left	Yes	1.445120499935	0	347833	253
680.796875	0	taste	response	2	67	7	foodImage.21	FOODEEG_Images\0234.jpg	YN	Left	Yes	1.445120499935	0	348569	234
681.837890625	1	decision	trialStart	2	68	8	foodImage.38	FOODEEG_Images\0365.jpg	YN	Left	Yes	0.999877799768001	0	349102	251
682.875	2	decision	foodImageDisplay	2	68	8	foodImage.38	FOODEEG_Images\0365.jpg	YN	Left	Yes	0.999877799768001	0	349633	252
684.943359375	0.999877799768001	decision	choicePhaseStart	2	68	8	foodImage.38	FOODEEG_Images\0365.jpg	YN	Left	Yes	0.999877799768001	0	350692	253
685.93359375	0	decision	response	2	68	8	foodImage.38	FOODEEG_Images\0365.jpg	YN	Left	Yes	0.999877799768001	0	351199	234
686.974609375	1	health	trialStart	2	69	9	foodImage.42	FOODEEG_Images\0438.jpg	YN	Left	Yes	0.70181900030002	0	351732	251
688.06640625	2	health	foodImageDisplay	2	69	9	foodImage.42	FOODEEG_Images\0438.jpg	YN	Left	Yes	0.70181900030002	0	352291	252
690.12890625	0.70181900030002	health	choicePhaseStart	2	69	9	foodImage.42	FOODEEG_Images\0438.jpg	YN	Left	Yes	0.70181900030002	0	353347	253
690.8203125	0	health	response	2	69	9	foodImage.42	FOODEEG_Images\0438.jpg	YN	Left	Yes	0.70181900030002	0	353701	234
691.86328125	1	health	trialStart	2	70	10	foodImage.120	FOODEEG_Images\0928.jpg	NY	Left	No	0.990324900019914	0	354235	251
692.904296875	2	health	foodImageDisplay	2	70	10	foodImage.120	FOODEEG_Images\0928.jpg	NY	Left	No	0.990324900019914	0	354768	252
694.966796875	0.990324900019914	health	choicePhaseStart	2	70	10	foodImage.120	FOODEEG_Images\0928.jpg	NY	Left	No	0.990324900019914	0	355824	253
695.94921875	0	health	response	2	70	10	foodImage.120	FOODEEG_Images\0928.jpg	NY	Left	No	0.990324900019914	0	356327	234
696.9921875	1	decision	trialStart	2	71	11	foodImage.100	FOODEEG_Images\0908.jpg	YN	Left	Yes	0.777905200142413	0	356861	251
698.03515625	2	decision	foodImageDisplay	2	71	11	foodImage.100	FOODEEG_Images\0908.jpg	YN	Left	Yes	0.777905200142413	0	357395	252
700.09765625	0.777905200142413	decision	choicePhaseStart	2	71	11	foodImage.100	FOODEEG_Images\0908.jpg	YN	Left	Yes	0.777905200142413	0	358451	253
700.869140625	0	decision	response	2	71	11	foodImage.100	FOODEEG_Images\0908.jpg	YN	Left	Yes	0.777905200142413	0	358846	234
701.91015625	1	decision	trialStart	2	72	12	foodImage.55	FOODEEG_Images\0567.jpg	YN	Left	Yes	0.705414100084454	0	359379	251
702.966796875	2	decision	foodImageDisplay	2	72	12	foodImage.55	FOODEEG_Images\0567.jpg	YN	Left	Yes	0.705414100084454	0	359920	252
705.029296875	0.705414100084454	decision	choicePhaseStart	2	72	12	foodImage.55	FOODEEG_Images\0567.jpg	YN	Left	Yes	0.705414100084454	0	360976	253
705.724609375	0	decision	response	2	72	12	foodImage.55	FOODEEG_Images\0567.jpg	YN	Left	Yes	0.705414100084454	0	361332	234
706.765625	1	taste	trialStart	2	73	13	foodImage.91	FOODEEG_Images\0896.jpg	YN	Left	Yes	0.599370500072837	0	361865	251
707.822265625	2	taste	foodImageDisplay	2	73	13	foodImage.91	FOODEEG_Images\0896.jpg	YN	Left	Yes	0.599370500072837	0	362406	252
709.884765625	0.599370500072837	taste	choicePhaseStart	2	73	13	foodImage.91	FOODEEG_Images\0896.jpg	YN	Left	Yes	0.599370500072837	0	363462	253
710.4765625	0	taste	response	2	73	13	foodImage.91	FOODEEG_Images\0896.jpg	YN	Left	Yes	0.599370500072837	0	363765	234
711.51953125	1	taste	trialStart	2	74	14	foodImage.69	FOODEEG_Images\0693.jpg	NY	Right	Yes	0.797113799955696	0	364299	251
712.560546875	2	taste	foodImageDisplay	2	74	14	foodImage.69	FOODEEG_Images\0693.jpg	NY	Right	Yes	0.797113799955696	0	364832	252
714.623046875	0.797113799955696	taste	choicePhaseStart	2	74	14	foodImage.69	FOODEEG_Images\0693.jpg	NY	Right	Yes	0.797113799955696	0	365888	253
715.412109375	0	taste	response	2	74	14	foodImage.69	FOODEEG_Images\0693.jpg	NY	Right	Yes	0.797113799955696	0	366292	235
716.453125	1	taste	trialStart	2	75	15	foodImage.82	FOODEEG_Images\0805.jpg	NY	Right	Yes	1.06561439996585	0	366825	251
717.509765625	2	taste	foodImageDisplay	2	75	15	foodImage.82	FOODEEG_Images\0805.jpg	NY	Right	Yes	1.06561439996585	0	367366	252
719.572265625	1.06561439996585	taste	choicePhaseStart	2	75	15	foodImage.82	FOODEEG_Images\0805.jpg	NY	Right	Yes	1.06561439996585	0	368422	253
720.626953125	0	taste	response	2	75	15	foodImage.82	FOODEEG_Images\0805.jpg	NY	Right	Yes	1.06561439996585	0	368962	235
721.671875	1	decision	trialStart	2	76	16	foodImage.72	FOODEEG_Images\0714.jpg	YN	Left	Yes	0.789508800022304	0	369497	251
722.712890625	2	decision	foodImageDisplay	2	76	16	foodImage.72	FOODEEG_Images\0714.jpg	YN	Left	Yes	0.789508800022304	0	370030	252
724.775390625	0.789508800022304	decision	choicePhaseStart	2	76	16	foodImage.72	FOODEEG_Images\0714.jpg	YN	Left	Yes	0.789508800022304	0	371086	253
725.556640625	0	decision	response	2	76	16	foodImage.72	FOODEEG_Images\0714.jpg	YN	Left	Yes	0.789508800022304	0	371486	234
726.59765625	1	health	trialStart	2	77	17	foodImage.35	FOODEEG_Images\0350.jpg	NY	Left	No	1.25776210008189	0	372019	251
727.63671875	2	health	foodImageDisplay	2	77	17	foodImage.35	FOODEEG_Images\0350.jpg	NY	Left	No	1.25776210008189	0	372551	252
729.697265625	1.25776210008189	health	choicePhaseStart	2	77	17	foodImage.35	FOODEEG_Images\0350.jpg	NY	Left	No	1.25776210008189	0	373606	253
730.947265625	0	health	response	2	77	17	foodImage.35	FOODEEG_Images\0350.jpg	NY	Left	No	1.25776210008189	0	374246	234
731.98828125	1	decision	trialStart	2	78	18	foodImage.103	FOODEEG_Images\0911.jpg	YN	Left	Yes	1.5799585999921	0	374779	251
733.025390625	2	decision	foodImageDisplay	2	78	18	foodImage.103	FOODEEG_Images\0911.jpg	YN	Left	Yes	1.5799585999921	0	375310	252
735.087890625	1.5799585999921	decision	choicePhaseStart	2	78	18	foodImage.103	FOODEEG_Images\0911.jpg	YN	Left	Yes	1.5799585999921	0	376366	253
736.66015625	0	decision	response	2	78	18	foodImage.103	FOODEEG_Images\0911.jpg	YN	Left	Yes	1.5799585999921	0	377171	234
737.703125	1	health	trialStart	2	79	19	foodImage.25	FOODEEG_Images\0261.jpg	YN	Left	Yes	0.683684699703008	0	377705	251
738.744140625	2	health	foodImageDisplay	2	79	19	foodImage.25	FOODEEG_Images\0261.jpg	YN	Left	Yes	0.683684699703008	0	378238	252
740.806640625	0.683684699703008	health	choicePhaseStart	2	79	19	foodImage.25	FOODEEG_Images\0261.jpg	YN	Left	Yes	0.683684699703008	0	379294	253
741.482421875	0	health	response	2	79	19	foodImage.25	FOODEEG_Images\0261.jpg	YN	Left	Yes	0.683684699703008	0	379640	234
742.5234375	1	decision	trialStart	2	80	20	foodImage.110	FOODEEG_Images\0918.jpg	YN	Left	Yes	0.739097200334072	0	380173	251
743.5625	2	decision	foodImageDisplay	2	80	20	foodImage.110	FOODEEG_Images\0918.jpg	YN	Left	Yes	0.739097200334072	0	380705	252
745.625	0.739097200334072	decision	choicePhaseStart	2	80	20	foodImage.110	FOODEEG_Images\0918.jpg	YN	Left	Yes	0.739097200334072	0	381761	253
746.35546875	0	decision	response	2	80	20	foodImage.110	FOODEEG_Images\0918.jpg	YN	Left	Yes	0.739097200334072	0	382135	234
747.3984375	1	health	trialStart	2	81	21	foodImage.7	FOODEEG_Images\0116.jpg	NY	Left	No	0.692758399993181	0	382669	251
748.44140625	2	health	foodImageDisplay	2	81	21	foodImage.7	FOODEEG_Images\0116.jpg	NY	Left	No	0.692758399993181	0	383203	252
750.50390625	0.692758399993181	health	choicePhaseStart	2	81	21	foodImage.7	FOODEEG_Images\0116.jpg	NY	Left	No	0.692758399993181	0	384259	253
751.1875	0	health	response	2	81	21	foodImage.7	FOODEEG_Images\0116.jpg	NY	Left	No	0.692758399993181	0	384609	234
752.2265625	1	taste	trialStart	2	82	22	foodImage.15	FOODEEG_Images\0189.jpg	YN	Left	Yes	1.11389420041814	0	385141	251
753.283203125	2	taste	foodImageDisplay	2	82	22	foodImage.15	FOODEEG_Images\0189.jpg	YN	Left	Yes	1.11389420041814	0	385682	252
755.345703125	1.11389420041814	taste	choicePhaseStart	2	82	22	foodImage.15	FOODEEG_Images\0189.jpg	YN	Left	Yes	1.11389420041814	0	386738	253
756.451171875	0	taste	response	2	82	22	foodImage.15	FOODEEG_Images\0189.jpg	YN	Left	Yes	1.11389420041814	0	387304	234
757.4921875	1	taste	trialStart	2	83	23	foodImage.26	FOODEEG_Images\0262.jpg	YN	Right	No	0.75916919996962	0	387837	251
758.533203125	2	taste	foodImageDisplay	2	83	23	foodImage.26	FOODEEG_Images\0262.jpg	YN	Right	No	0.75916919996962	0	388370	252
760.595703125	0.75916919996962	taste	choicePhaseStart	2	83	23	foodImage.26	FOODEEG_Images\0262.jpg	YN	Right	No	0.75916919996962	0	389426	253
761.345703125	0	taste	response	2	83	23	foodImage.26	FOODEEG_Images\0262.jpg	YN	Right	No	0.75916919996962	0	389810	235
762.38671875	1	taste	trialStart	2	84	24	foodImage.92	FOODEEG_Images\0900.jpg	YN	Right	No	0.843653699848801	0	390343	251
763.42578125	2	taste	foodImageDisplay	2	84	24	foodImage.92	FOODEEG_Images\0900.jpg	YN	Right	No	0.843653699848801	0	390875	252
765.48828125	0.843653699848801	taste	choicePhaseStart	2	84	24	foodImage.92	FOODEEG_Images\0900.jpg	YN	Right	No	0.843653699848801	0	391931	253
766.322265625	0	taste	response	2	84	24	foodImage.92	FOODEEG_Images\0900.jpg	YN	Right	No	0.843653699848801	0	392358	235
767.36328125	1	decision	trialStart	2	85	25	foodImage.4	FOODEEG_Images\0065.jpg	YN	Left	Yes	1.27966640004888	0	392891	251
768.419921875	2	decision	foodImageDisplay	2	85	25	foodImage.4	FOODEEG_Images\0065.jpg	YN	Left	Yes	1.27966640004888	0	393432	252
770.482421875	1.27966640004888	decision	choicePhaseStart	2	85	25	foodImage.4	FOODEEG_Images\0065.jpg	YN	Left	Yes	1.27966640004888	0	394488	253
771.75390625	0	decision	response	2	85	25	foodImage.4	FOODEEG_Images\0065.jpg	YN	Left	Yes	1.27966640004888	0	395139	234
772.794921875	1	taste	trialStart	2	86	26	foodImage.106	FOODEEG_Images\0914.jpg	YN	Left	Yes	0.559196399990469	0	395672	251
773.833984375	2	taste	foodImageDisplay	2	86	26	foodImage.106	FOODEEG_Images\0914.jpg	YN	Left	Yes	0.559196399990469	0	396204	252
775.8984375	0.559196399990469	taste	choicePhaseStart	2	86	26	foodImage.106	FOODEEG_Images\0914.jpg	YN	Left	Yes	0.559196399990469	0	397261	253
776.44921875	0	taste	response	2	86	26	foodImage.106	FOODEEG_Images\0914.jpg	YN	Left	Yes	0.559196399990469	0	397543	234
777.494140625	1	decision	trialStart	2	87	27	foodImage.81	FOODEEG_Images\0797.jpg	NY	Right	Yes	0.646436800248921	0	398078	251
778.548828125	2	decision	foodImageDisplay	2	87	27	foodImage.81	FOODEEG_Images\0797.jpg	NY	Right	Yes	0.646436800248921	0	398618	252
780.611328125	0.646436800248921	decision	choicePhaseStart	2	87	27	foodImage.81	FOODEEG_Images\0797.jpg	NY	Right	Yes	0.646436800248921	0	399674	253
781.25	0	decision	response	2	87	27	foodImage.81	FOODEEG_Images\0797.jpg	NY	Right	Yes	0.646436800248921	0	400001	235
782.291015625	1	health	trialStart	2	88	28	foodImage.97	FOODEEG_Images\0905.jpg	YN	Right	No	1.50636510038748	0	400534	251
783.328125	2	health	foodImageDisplay	2	88	28	foodImage.97	FOODEEG_Images\0905.jpg	YN	Right	No	1.50636510038748	0	401065	252
785.390625	1.50636510038748	health	choicePhaseStart	2	88	28	foodImage.97	FOODEEG_Images\0905.jpg	YN	Right	No	1.50636510038748	0	402121	253
786.888671875	0	health	response	2	88	28	foodImage.97	FOODEEG_Images\0905.jpg	YN	Right	No	1.50636510038748	0	402888	235
787.931640625	1	taste	trialStart	2	89	29	foodImage.63	FOODEEG_Images\0645.jpg	YN	Left	Yes	1.39010909991339	0	403422	251
788.974609375	2	taste	foodImageDisplay	2	89	29	foodImage.63	FOODEEG_Images\0645.jpg	YN	Left	Yes	1.39010909991339	0	403956	252
791.037109375	1.39010909991339	taste	choicePhaseStart	2	89	29	foodImage.63	FOODEEG_Images\0645.jpg	YN	Left	Yes	1.39010909991339	0	405012	253
792.416015625	0	taste	response	2	89	29	foodImage.63	FOODEEG_Images\0645.jpg	YN	Left	Yes	1.39010909991339	0	405718	234
793.458984375	1	health	trialStart	2	90	30	foodImage.47	FOODEEG_Images\0488.jpg	NY	Left	No	0.81672739982605	0	406252	251
794.498046875	2	health	foodImageDisplay	2	90	30	foodImage.47	FOODEEG_Images\0488.jpg	NY	Left	No	0.81672739982605	0	406784	252
796.560546875	0.81672739982605	health	choicePhaseStart	2	90	30	foodImage.47	FOODEEG_Images\0488.jpg	NY	Left	No	0.81672739982605	0	407840	253
797.369140625	0	health	response	2	90	30	foodImage.47	FOODEEG_Images\0488.jpg	NY	Left	No	0.81672739982605	0	408254	234
798.41015625	1	health	trialStart	2	91	31	foodImage.100	FOODEEG_Images\0908.jpg	NY	Left	No	0.658492300193757	0	408787	251
799.44921875	2	health	foodImageDisplay	2	91	31	foodImage.100	FOODEEG_Images\0908.jpg	NY	Left	No	0.658492300193757	0	409319	252
801.51171875	0.658492300193757	health	choicePhaseStart	2	91	31	foodImage.100	FOODEEG_Images\0908.jpg	NY	Left	No	0.658492300193757	0	410375	253
802.16015625	0	health	response	2	91	31	foodImage.100	FOODEEG_Images\0908.jpg	NY	Left	No	0.658492300193757	0	410707	234
803.203125	1	health	trialStart	2	92	32	foodImage.85	FOODEEG_Images\0841.jpg	NY	Left	No	0.670262800063938	0	411241	251
804.259765625	2	health	foodImageDisplay	2	92	32	foodImage.85	FOODEEG_Images\0841.jpg	NY	Left	No	0.670262800063938	0	411782	252
806.322265625	0.670262800063938	health	choicePhaseStart	2	92	32	foodImage.85	FOODEEG_Images\0841.jpg	NY	Left	No	0.670262800063938	0	412838	253
806.984375	0	health	response	2	92	32	foodImage.85	FOODEEG_Images\0841.jpg	NY	Left	No	0.670262800063938	0	413177	234
808.029296875	1	decision	trialStart	2	93	33	foodImage.48	FOODEEG_Images\0494.jpg	YN	Right	No	1.2053923998028	0	413712	251
809.0703125	2	decision	foodImageDisplay	2	93	33	foodImage.48	FOODEEG_Images\0494.jpg	YN	Right	No	1.2053923998028	0	414245	252
811.1328125	1.2053923998028	decision	choicePhaseStart	2	93	33	foodImage.48	FOODEEG_Images\0494.jpg	YN	Right	No	1.2053923998028	0	415301	253
812.328125	0	decision	response	2	93	33	foodImage.48	FOODEEG_Images\0494.jpg	YN	Right	No	1.2053923998028	0	415913	235
813.3671875	1	taste	trialStart	2	94	34	foodImage.104	FOODEEG_Images\0912.jpg	NY	Left	No	0.982527700252831	0	416445	251
814.404296875	2	taste	foodImageDisplay	2	94	34	foodImage.104	FOODEEG_Images\0912.jpg	NY	Left	No	0.982527700252831	0	416976	252
816.466796875	0.982527700252831	taste	choicePhaseStart	2	94	34	foodImage.104	FOODEEG_Images\0912.jpg	NY	Left	No	0.982527700252831	0	418032	253
817.439453125	0	taste	response	2	94	34	foodImage.104	FOODEEG_Images\0912.jpg	NY	Left	No	0.982527700252831	0	418530	234
818.48046875	1	taste	trialStart	2	95	35	foodImage.41	FOODEEG_Images\0409.jpg	YN	Left	Yes	0.748690000269562	0	419063	251
819.525390625	2	taste	foodImageDisplay	2	95	35	foodImage.41	FOODEEG_Images\0409.jpg	YN	Left	Yes	0.748690000269562	0	419598	252
821.587890625	0.748690000269562	taste	choicePhaseStart	2	95	35	foodImage.41	FOODEEG_Images\0409.jpg	YN	Left	Yes	0.748690000269562	0	420654	253
822.328125	0	taste	response	2	95	35	foodImage.41	FOODEEG_Images\0409.jpg	YN	Left	Yes	0.748690000269562	0	421033	234
823.37109375	1	decision	trialStart	2	96	36	foodImage.16	FOODEEG_Images\0196.jpg	YN	Right	No	0.699737400282174	0	421567	251
824.431640625	2	decision	foodImageDisplay	2	96	36	foodImage.16	FOODEEG_Images\0196.jpg	YN	Right	No	0.699737400282174	0	422110	252
826.494140625	0.699737400282174	decision	choicePhaseStart	2	96	36	foodImage.16	FOODEEG_Images\0196.jpg	YN	Right	No	0.699737400282174	0	423166	253
827.18359375	0	decision	response	2	96	36	foodImage.16	FOODEEG_Images\0196.jpg	YN	Right	No	0.699737400282174	0	423519	235
828.2265625	1	health	trialStart	2	97	37	foodImage.29	FOODEEG_Images\0278.jpg	NY	Right	Yes	0.749931499827653	0	424053	251
829.267578125	2	health	foodImageDisplay	2	97	37	foodImage.29	FOODEEG_Images\0278.jpg	NY	Right	Yes	0.749931499827653	0	424586	252
831.330078125	0.749931499827653	health	choicePhaseStart	2	97	37	foodImage.29	FOODEEG_Images\0278.jpg	NY	Right	Yes	0.749931499827653	0	425642	253
832.072265625	0	health	response	2	97	37	foodImage.29	FOODEEG_Images\0278.jpg	NY	Right	Yes	0.749931499827653	0	426022	235
833.11328125	1	health	trialStart	2	98	38	foodImage.69	FOODEEG_Images\0693.jpg	YN	Left	Yes	0.823077000211924	0	426555	251
834.154296875	2	health	foodImageDisplay	2	98	38	foodImage.69	FOODEEG_Images\0693.jpg	YN	Left	Yes	0.823077000211924	0	427088	252
836.216796875	0.823077000211924	health	choicePhaseStart	2	98	38	foodImage.69	FOODEEG_Images\0693.jpg	YN	Left	Yes	0.823077000211924	0	428144	253
837.03125	0	health	response	2	98	38	foodImage.69	FOODEEG_Images\0693.jpg	YN	Left	Yes	0.823077000211924	0	428561	234
838.07421875	1	taste	trialStart	2	99	39	foodImage.99	FOODEEG_Images\0907.jpg	NY	Right	Yes	0.562124399933964	0	429095	251
839.111328125	2	taste	foodImageDisplay	2	99	39	foodImage.99	FOODEEG_Images\0907.jpg	NY	Right	Yes	0.562124399933964	0	429626	252
841.173828125	0.562124399933964	taste	choicePhaseStart	2	99	39	foodImage.99	FOODEEG_Images\0907.jpg	NY	Right	Yes	0.562124399933964	0	430682	253
841.7265625	0	taste	response	2	99	39	foodImage.99	FOODEEG_Images\0907.jpg	NY	Right	Yes	0.562124399933964	0	430965	235
842.76953125	1	taste	trialStart	2	100	40	foodImage.68	FOODEEG_Images\0685.jpg	NY	Right	Yes	0.660259999800473	0	431499	251
843.873046875	2	taste	foodImageDisplay	2	100	40	foodImage.68	FOODEEG_Images\0685.jpg	NY	Right	Yes	0.660259999800473	0	432064	252
845.9375	0.660259999800473	taste	choicePhaseStart	2	100	40	foodImage.68	FOODEEG_Images\0685.jpg	NY	Right	Yes	0.660259999800473	0	433121	253
846.591796875	0	taste	response	2	100	40	foodImage.68	FOODEEG_Images\0685.jpg	NY	Right	Yes	0.660259999800473	0	433456	235
847.62890625	1	decision	trialStart	2	101	41	foodImage.75	FOODEEG_Images\0763.jpg	YN	Right	No	0.688705900218338	0	433987	251
848.671875	2	decision	foodImageDisplay	2	101	41	foodImage.75	FOODEEG_Images\0763.jpg	YN	Right	No	0.688705900218338	0	434521	252
850.734375	0.688705900218338	decision	choicePhaseStart	2	101	41	foodImage.75	FOODEEG_Images\0763.jpg	YN	Right	No	0.688705900218338	0	435577	253
851.4140625	0	decision	response	2	101	41	foodImage.75	FOODEEG_Images\0763.jpg	YN	Right	No	0.688705900218338	0	435925	235
852.455078125	1	taste	trialStart	2	102	42	foodImage.8	FOODEEG_Images\0136.jpg	NY	Right	Yes	0.668046100065112	0	436458	251
853.498046875	2	taste	foodImageDisplay	2	102	42	foodImage.8	FOODEEG_Images\0136.jpg	NY	Right	Yes	0.668046100065112	0	436992	252
855.5625	0.668046100065112	taste	choicePhaseStart	2	102	42	foodImage.8	FOODEEG_Images\0136.jpg	NY	Right	Yes	0.668046100065112	0	438049	253
856.22265625	0	taste	response	2	102	42	foodImage.8	FOODEEG_Images\0136.jpg	NY	Right	Yes	0.668046100065112	0	438387	235
857.265625	1	health	trialStart	2	103	43	foodImage.14	FOODEEG_Images\0188.jpg	NY	Left	No	1.1156994998455	0	438921	251
858.32421875	2	health	foodImageDisplay	2	103	43	foodImage.14	FOODEEG_Images\0188.jpg	NY	Left	No	1.1156994998455	0	439463	252
860.38671875	1.1156994998455	health	choicePhaseStart	2	103	43	foodImage.14	FOODEEG_Images\0188.jpg	NY	Left	No	1.1156994998455	0	440519	253
861.494140625	0	health	response	2	103	43	foodImage.14	FOODEEG_Images\0188.jpg	NY	Left	No	1.1156994998455	0	441086	234
862.537109375	1	taste	trialStart	2	104	44	foodImage.110	FOODEEG_Images\0918.jpg	NY	Left	No	1.34688640013337	0	441620	251
863.57421875	2	taste	foodImageDisplay	2	104	44	foodImage.110	FOODEEG_Images\0918.jpg	NY	Left	No	1.34688640013337	0	442151	252
865.63671875	1.34688640013337	taste	choicePhaseStart	2	104	44	foodImage.110	FOODEEG_Images\0918.jpg	NY	Left	No	1.34688640013337	0	443207	253
866.974609375	0	taste	response	2	104	44	foodImage.110	FOODEEG_Images\0918.jpg	NY	Left	No	1.34688640013337	0	443892	234
868.01953125	1	decision	trialStart	2	105	45	foodImage.65	FOODEEG_Images\0658.jpg	NY	Right	Yes	0.60116480011493	0	444427	251
869.0625	2	decision	foodImageDisplay	2	105	45	foodImage.65	FOODEEG_Images\0658.jpg	NY	Right	Yes	0.60116480011493	0	444961	252
871.125	0.60116480011493	decision	choicePhaseStart	2	105	45	foodImage.65	FOODEEG_Images\0658.jpg	NY	Right	Yes	0.60116480011493	0	446017	253
871.71875	0	decision	response	2	105	45	foodImage.65	FOODEEG_Images\0658.jpg	NY	Right	Yes	0.60116480011493	0	446321	235
872.76171875	1	health	trialStart	2	106	46	foodImage.19	FOODEEG_Images\0225.jpg	NY	Right	Yes	1.08160340040922	0	446855	251
873.8046875	2	health	foodImageDisplay	2	106	46	foodImage.19	FOODEEG_Images\0225.jpg	NY	Right	Yes	1.08160340040922	0	447389	252
875.8671875	1.08160340040922	health	choicePhaseStart	2	106	46	foodImage.19	FOODEEG_Images\0225.jpg	NY	Right	Yes	1.08160340040922	0	448445	253
876.94140625	0	health	response	2	106	46	foodImage.19	FOODEEG_Images\0225.jpg	NY	Right	Yes	1.08160340040922	0	448995	235
877.982421875	1	health	trialStart	2	107	47	foodImage.80	FOODEEG_Images\0796.jpg	YN	Left	Yes	0.650826599914581	0	449528	251
879.037109375	2	health	foodImageDisplay	2	107	47	foodImage.80	FOODEEG_Images\0796.jpg	YN	Left	Yes	0.650826599914581	0	450068	252
881.099609375	0.650826599914581	health	choicePhaseStart	2	107	47	foodImage.80	FOODEEG_Images\0796.jpg	YN	Left	Yes	0.650826599914581	0	451124	253
881.7421875	0	health	response	2	107	47	foodImage.80	FOODEEG_Images\0796.jpg	YN	Left	Yes	0.650826599914581	0	451453	234
882.783203125	1	decision	trialStart	2	108	48	foodImage.120	FOODEEG_Images\0928.jpg	YN	Right	No	0.674682599958032	0	451986	251
883.8203125	2	decision	foodImageDisplay	2	108	48	foodImage.120	FOODEEG_Images\0928.jpg	YN	Right	No	0.674682599958032	0	452517	252
885.8828125	0.674682599958032	decision	choicePhaseStart	2	108	48	foodImage.120	FOODEEG_Images\0928.jpg	YN	Right	No	0.674682599958032	0	453573	253
886.548828125	0	decision	response	2	108	48	foodImage.120	FOODEEG_Images\0928.jpg	YN	Right	No	0.674682599958032	0	453914	235
887.591796875	1	decision	trialStart	2	109	49	foodImage.108	FOODEEG_Images\0916.jpg	YN	Right	No	0.600246900226921	0	454448	251
888.630859375	2	decision	foodImageDisplay	2	109	49	foodImage.108	FOODEEG_Images\0916.jpg	YN	Right	No	0.600246900226921	0	454980	252
890.69140625	0.600246900226921	decision	choicePhaseStart	2	109	49	foodImage.108	FOODEEG_Images\0916.jpg	YN	Right	No	0.600246900226921	0	456035	253
891.28515625	0	decision	response	2	109	49	foodImage.108	FOODEEG_Images\0916.jpg	YN	Right	No	0.600246900226921	0	456339	235
892.326171875	1	taste	trialStart	2	110	50	foodImage.100	FOODEEG_Images\0908.jpg	YN	Left	Yes	1.08721509994939	0	456872	251
893.384765625	2	taste	foodImageDisplay	2	110	50	foodImage.100	FOODEEG_Images\0908.jpg	YN	Left	Yes	1.08721509994939	0	457414	252
895.4453125	1.08721509994939	taste	choicePhaseStart	2	110	50	foodImage.100	FOODEEG_Images\0908.jpg	YN	Left	Yes	1.08721509994939	0	458469	253
896.525390625	0	taste	response	2	110	50	foodImage.100	FOODEEG_Images\0908.jpg	YN	Left	Yes	1.08721509994939	0	459022	234
897.568359375	1	taste	trialStart	2	111	51	foodImage.30	FOODEEG_Images\0282.jpg	NY	Right	Yes	0.623533200006932	0	459556	251
898.609375	2	taste	foodImageDisplay	2	111	51	foodImage.30	FOODEEG_Images\0282.jpg	NY	Right	Yes	0.623533200006932	0	460089	252
900.669921875	0.623533200006932	taste	choicePhaseStart	2	111	51	foodImage.30	FOODEEG_Images\0282.jpg	NY	Right	Yes	0.623533200006932	0	461144	253
901.28515625	0	taste	response	2	111	51	foodImage.30	FOODEEG_Images\0282.jpg	NY	Right	Yes	0.623533200006932	0	461459	235
902.326171875	1	decision	trialStart	2	112	52	foodImage.3	FOODEEG_Images\0046.jpg	YN	Left	Yes	0.621994900051504	0	461992	251
903.369140625	2	decision	foodImageDisplay	2	112	52	foodImage.3	FOODEEG_Images\0046.jpg	YN	Left	Yes	0.621994900051504	0	462526	252
905.431640625	0.621994900051504	decision	choicePhaseStart	2	112	52	foodImage.3	FOODEEG_Images\0046.jpg	YN	Left	Yes	0.621994900051504	0	463582	253
906.044921875	0	decision	response	2	112	52	foodImage.3	FOODEEG_Images\0046.jpg	YN	Left	Yes	0.621994900051504	0	463896	234
907.087890625	1	decision	trialStart	2	113	53	foodImage.79	FOODEEG_Images\0794.jpg	YN	Right	No	0.954409400001168	0	464430	251
908.1328125	2	decision	foodImageDisplay	2	113	53	foodImage.79	FOODEEG_Images\0794.jpg	YN	Right	No	0.954409400001168	0	464965	252
910.1953125	0.954409400001168	decision	choicePhaseStart	2	113	53	foodImage.79	FOODEEG_Images\0794.jpg	YN	Right	No	0.954409400001168	0	466021	253
911.140625	0	decision	response	2	113	53	foodImage.79	FOODEEG_Images\0794.jpg	YN	Right	No	0.954409400001168	0	466505	235
912.18359375	1	taste	trialStart	2	114	54	foodImage.53	FOODEEG_Images\0547.jpg	NY	Right	Yes	0.704432200174779	0	467039	251
913.23828125	2	taste	foodImageDisplay	2	114	54	foodImage.53	FOODEEG_Images\0547.jpg	NY	Right	Yes	0.704432200174779	0	467579	252
915.30078125	0.704432200174779	taste	choicePhaseStart	2	114	54	foodImage.53	FOODEEG_Images\0547.jpg	NY	Right	Yes	0.704432200174779	0	468635	253
915.99609375	0	taste	response	2	114	54	foodImage.53	FOODEEG_Images\0547.jpg	NY	Right	Yes	0.704432200174779	0	468991	235
917.0390625	1	health	trialStart	2	115	55	foodImage.37	FOODEEG_Images\0359.jpg	YN	Left	Yes	0.594462899956852	0	469525	251
918.080078125	2	health	foodImageDisplay	2	115	55	foodImage.37	FOODEEG_Images\0359.jpg	YN	Left	Yes	0.594462899956852	0	470058	252
920.146484375	0.594462899956852	health	choicePhaseStart	2	115	55	foodImage.37	FOODEEG_Images\0359.jpg	YN	Left	Yes	0.594462899956852	0	471116	253
920.732421875	0	health	response	2	115	55	foodImage.37	FOODEEG_Images\0359.jpg	YN	Left	Yes	0.594462899956852	0	471416	234
921.775390625	1	health	trialStart	2	116	56	foodImage.95	FOODEEG_Images\0903.jpg	NY	Left	No	0.856216799933463	0	471950	251
922.814453125	2	health	foodImageDisplay	2	116	56	foodImage.95	FOODEEG_Images\0903.jpg	NY	Left	No	0.856216799933463	0	472482	252
924.876953125	0.856216799933463	health	choicePhaseStart	2	116	56	foodImage.95	FOODEEG_Images\0903.jpg	NY	Left	No	0.856216799933463	0	473538	253
925.72265625	0	health	response	2	116	56	foodImage.95	FOODEEG_Images\0903.jpg	NY	Left	No	0.856216799933463	0	473971	234
926.763671875	1	taste	trialStart	2	117	57	foodImage.75	FOODEEG_Images\0763.jpg	NY	Left	No	1.05561209982261	0	474504	251
927.806640625	2	taste	foodImageDisplay	2	117	57	foodImage.75	FOODEEG_Images\0763.jpg	NY	Left	No	1.05561209982261	0	475038	252
929.869140625	1.05561209982261	taste	choicePhaseStart	2	117	57	foodImage.75	FOODEEG_Images\0763.jpg	NY	Left	No	1.05561209982261	0	476094	253
930.916015625	0	taste	response	2	117	57	foodImage.75	FOODEEG_Images\0763.jpg	NY	Left	No	1.05561209982261	0	476630	234
931.9609375	1	health	trialStart	2	118	58	foodImage.57	FOODEEG_Images\0587.jpg	NY	Left	No	0.760292800143361	0	477165	251
933.00390625	2	health	foodImageDisplay	2	118	58	foodImage.57	FOODEEG_Images\0587.jpg	NY	Left	No	0.760292800143361	0	477699	252
935.06640625	0.760292800143361	health	choicePhaseStart	2	118	58	foodImage.57	FOODEEG_Images\0587.jpg	NY	Left	No	0.760292800143361	0	478755	253
935.8203125	0	health	response	2	118	58	foodImage.57	FOODEEG_Images\0587.jpg	NY	Left	No	0.760292800143361	0	479141	234
936.859375	1	health	trialStart	2	119	59	foodImage.4	FOODEEG_Images\0065.jpg	YN	Right	No	0.865596400108188	0	479673	251
937.916015625	2	health	foodImageDisplay	2	119	59	foodImage.4	FOODEEG_Images\0065.jpg	YN	Right	No	0.865596400108188	0	480214	252
939.978515625	0.865596400108188	health	choicePhaseStart	2	119	59	foodImage.4	FOODEEG_Images\0065.jpg	YN	Right	No	0.865596400108188	0	481270	253
940.8359375	0	health	response	2	119	59	foodImage.4	FOODEEG_Images\0065.jpg	YN	Right	No	0.865596400108188	0	481709	235
941.876953125	1	decision	trialStart	2	120	60	foodImage.21	FOODEEG_Images\0234.jpg	NY	Right	Yes	0.894305999856442	0	482242	251
942.935546875	2	decision	foodImageDisplay	2	120	60	foodImage.21	FOODEEG_Images\0234.jpg	NY	Right	Yes	0.894305999856442	0	482784	252
944.998046875	0.894305999856442	decision	choicePhaseStart	2	120	60	foodImage.21	FOODEEG_Images\0234.jpg	NY	Right	Yes	0.894305999856442	0	483840	253
945.8828125	0	decision	response	2	120	60	foodImage.21	FOODEEG_Images\0234.jpg	NY	Right	Yes	0.894305999856442	0	484293	235
947.92578125	22.447265625	n/a	blockEnd	n/a	n/a	n/a	n/a	n/a	n/a	n/a	n/a	n/a	n/a	485339	254
970.373046875	2	n/a	blockStart	3	n/a	n/a	n/a	n/a	n/a	n/a	n/a	n/a	n/a	496832	250
972.40625	1	health	trialStart	3	121	1	foodImage.90	FOODEEG_Images\0890.jpg	NY	Left	No	1.34903089981526	0	497873	251
973.470703125	2	health	foodImageDisplay	3	121	1	foodImage.90	FOODEEG_Images\0890.jpg	NY	Left	No	1.34903089981526	0	498418	252
975.533203125	1.34903089981526	health	choicePhaseStart	3	121	1	foodImage.90	FOODEEG_Images\0890.jpg	NY	Left	No	1.34903089981526	0	499474	253
976.873046875	0	health	response	3	121	1	foodImage.90	FOODEEG_Images\0890.jpg	NY	Left	No	1.34903089981526	0	500160	234
977.916015625	1	health	trialStart	3	122	2	foodImage.13	FOODEEG_Images\0183.jpg	YN	Right	No	1.326940999832	0	500694	251
978.95703125	2	health	foodImageDisplay	3	122	2	foodImage.13	FOODEEG_Images\0183.jpg	YN	Right	No	1.326940999832	0	501227	252
981.01953125	1.326940999832	health	choicePhaseStart	3	122	2	foodImage.13	FOODEEG_Images\0183.jpg	YN	Right	No	1.326940999832	0	502283	253
982.337890625	0	health	response	3	122	2	foodImage.13	FOODEEG_Images\0183.jpg	YN	Right	No	1.326940999832	0	502958	235
983.380859375	1	taste	trialStart	3	123	3	foodImage.36	FOODEEG_Images\0352.jpg	NY	Right	Yes	1.01527349976823	0	503492	251
984.443359375	2	taste	foodImageDisplay	3	123	3	foodImage.36	FOODEEG_Images\0352.jpg	NY	Right	Yes	1.01527349976823	0	504036	252
986.5078125	1.01527349976823	taste	choicePhaseStart	3	123	3	foodImage.36	FOODEEG_Images\0352.jpg	NY	Right	Yes	1.01527349976823	0	505093	253
987.513671875	0	taste	response	3	123	3	foodImage.36	FOODEEG_Images\0352.jpg	NY	Right	Yes	1.01527349976823	0	505608	235
988.556640625	1	decision	trialStart	3	124	4	foodImage.95	FOODEEG_Images\0903.jpg	YN	Right	No	1.08024440007284	0	506142	251
989.595703125	2	decision	foodImageDisplay	3	124	4	foodImage.95	FOODEEG_Images\0903.jpg	YN	Right	No	1.08024440007284	0	506674	252
991.658203125	1.08024440007284	decision	choicePhaseStart	3	124	4	foodImage.95	FOODEEG_Images\0903.jpg	YN	Right	No	1.08024440007284	0	507730	253
992.728515625	0	decision	response	3	124	4	foodImage.95	FOODEEG_Images\0903.jpg	YN	Right	No	1.08024440007284	0	508278	235
993.76953125	1	taste	trialStart	3	125	5	foodImage.18	FOODEEG_Images\0202.jpg	YN	Left	Yes	0.704662799835205	0	508811	251
994.826171875	2	taste	foodImageDisplay	3	125	5	foodImage.18	FOODEEG_Images\0202.jpg	YN	Left	Yes	0.704662799835205	0	509352	252
996.888671875	0.704662799835205	taste	choicePhaseStart	3	125	5	foodImage.18	FOODEEG_Images\0202.jpg	YN	Left	Yes	0.704662799835205	0	510408	253
997.5859375	0	taste	response	3	125	5	foodImage.18	FOODEEG_Images\0202.jpg	YN	Left	Yes	0.704662799835205	0	510765	234
998.626953125	1	decision	trialStart	3	126	6	foodImage.36	FOODEEG_Images\0352.jpg	YN	Left	Yes	0.670724700205028	0	511298	251
999.68359375	2	decision	foodImageDisplay	3	126	6	foodImage.36	FOODEEG_Images\0352.jpg	YN	Left	Yes	0.670724700205028	0	511839	252
1001.74609375	0.670724700205028	decision	choicePhaseStart	3	126	6	foodImage.36	FOODEEG_Images\0352.jpg	YN	Left	Yes	0.670724700205028	0	512895	253
1002.408203125	0	decision	response	3	126	6	foodImage.36	FOODEEG_Images\0352.jpg	YN	Left	Yes	0.670724700205028	0	513234	234
1003.453125	1	health	trialStart	3	127	7	foodImage.115	FOODEEG_Images\0923.jpg	NY	Left	No	8.91919009992853	1	513769	251
1004.509765625	2	health	foodImageDisplay	3	127	7	foodImage.115	FOODEEG_Images\0923.jpg	NY	Left	No	8.91919009992853	1	514310	252
1006.572265625	8.91919009992853	health	choicePhaseStart	3	127	7	foodImage.115	FOODEEG_Images\0923.jpg	NY	Left	No	8.91919009992853	1	515366	253
1015.48046875	0	health	response	3	127	7	foodImage.115	FOODEEG_Images\0923.jpg	NY	Left	No	8.91919009992853	1	519927	234
1016.5234375	1	health	trialStart	3	128	8	foodImage.39	FOODEEG_Images\0367.jpg	NY	Left	No	0.639388500247151	0	520461	251
1017.5625	2	health	foodImageDisplay	3	128	8	foodImage.39	FOODEEG_Images\0367.jpg	NY	Left	No	0.639388500247151	0	520993	252
1019.625	0.639388500247151	health	choicePhaseStart	3	128	8	foodImage.39	FOODEEG_Images\0367.jpg	NY	Left	No	0.639388500247151	0	522049	253
1020.255859375	0	health	response	3	128	8	foodImage.39	FOODEEG_Images\0367.jpg	NY	Left	No	0.639388500247151	0	522372	234
1021.298828125	1	taste	trialStart	3	129	9	foodImage.54	FOODEEG_Images\0560.jpg	NY	Right	Yes	0.618004099931568	0	522906	251
1022.357421875	2	taste	foodImageDisplay	3	129	9	foodImage.54	FOODEEG_Images\0560.jpg	NY	Right	Yes	0.618004099931568	0	523448	252
1024.419921875	0.618004099931568	taste	choicePhaseStart	3	129	9	foodImage.54	FOODEEG_Images\0560.jpg	NY	Right	Yes	0.618004099931568	0	524504	253
1025.03125	0	taste	response	3	129	9	foodImage.54	FOODEEG_Images\0560.jpg	NY	Right	Yes	0.618004099931568	0	524817	235
1026.080078125	1	decision	trialStart	3	130	10	foodImage.2	FOODEEG_Images\0028.jpg	NY	Right	Yes	0.621995999943465	0	525354	251
1027.123046875	2	decision	foodImageDisplay	3	130	10	foodImage.2	FOODEEG_Images\0028.jpg	NY	Right	Yes	0.621995999943465	0	525888	252
1029.185546875	0.621995999943465	decision	choicePhaseStart	3	130	10	foodImage.2	FOODEEG_Images\0028.jpg	NY	Right	Yes	0.621995999943465	0	526944	253
1029.798828125	0	decision	response	3	130	10	foodImage.2	FOODEEG_Images\0028.jpg	NY	Right	Yes	0.621995999943465	0	527258	235
1030.841796875	1	health	trialStart	3	131	11	foodImage.73	FOODEEG_Images\0717.jpg	YN	Right	No	0.864643999841064	0	527792	251
1031.896484375	2	health	foodImageDisplay	3	131	11	foodImage.73	FOODEEG_Images\0717.jpg	YN	Right	No	0.864643999841064	0	528332	252
1033.9609375	0.864643999841064	health	choicePhaseStart	3	131	11	foodImage.73	FOODEEG_Images\0717.jpg	YN	Right	No	0.864643999841064	0	529389	253
1034.81640625	0	health	response	3	131	11	foodImage.73	FOODEEG_Images\0717.jpg	YN	Right	No	0.864643999841064	0	529827	235
1035.857421875	1	taste	trialStart	3	132	12	foodImage.27	FOODEEG_Images\0263.jpg	YN	Left	Yes	0.54460379993543	0	530360	251
1036.8984375	2	taste	foodImageDisplay	3	132	12	foodImage.27	FOODEEG_Images\0263.jpg	YN	Left	Yes	0.54460379993543	0	530893	252
1038.9609375	0.54460379993543	taste	choicePhaseStart	3	132	12	foodImage.27	FOODEEG_Images\0263.jpg	YN	Left	Yes	0.54460379993543	0	531949	253
1039.49609375	0	taste	response	3	132	12	foodImage.27	FOODEEG_Images\0263.jpg	YN	Left	Yes	0.54460379993543	0	532223	234
1040.5390625	1	decision	trialStart	3	133	13	foodImage.33	FOODEEG_Images\0329.jpg	YN	Left	Yes	0.701542200054973	0	532757	251
1041.603515625	2	decision	foodImageDisplay	3	133	13	foodImage.33	FOODEEG_Images\0329.jpg	YN	Left	Yes	0.701542200054973	0	533302	252
1043.66796875	0.701542200054973	decision	choicePhaseStart	3	133	13	foodImage.33	FOODEEG_Images\0329.jpg	YN	Left	Yes	0.701542200054973	0	534359	253
1044.359375	0	decision	response	3	133	13	foodImage.33	FOODEEG_Images\0329.jpg	YN	Left	Yes	0.701542200054973	0	534713	234
1045.40234375	1	health	trialStart	3	134	14	foodImage.55	FOODEEG_Images\0567.jpg	NY	Right	Yes	0.764465899672359	0	535247	251
1046.458984375	2	health	foodImageDisplay	3	134	14	foodImage.55	FOODEEG_Images\0567.jpg	NY	Right	Yes	0.764465899672359	0	535788	252
1048.521484375	0.764465899672359	health	choicePhaseStart	3	134	14	foodImage.55	FOODEEG_Images\0567.jpg	NY	Right	Yes	0.764465899672359	0	536844	253
1049.279296875	0	health	response	3	134	14	foodImage.55	FOODEEG_Images\0567.jpg	NY	Right	Yes	0.764465899672359	0	537232	235
1050.322265625	1	decision	trialStart	3	135	15	foodImage.91	FOODEEG_Images\0896.jpg	YN	Left	Yes	0.710410299710929	0	537766	251
1051.396484375	2	decision	foodImageDisplay	3	135	15	foodImage.91	FOODEEG_Images\0896.jpg	YN	Left	Yes	0.710410299710929	0	538316	252
1053.458984375	0.710410299710929	decision	choicePhaseStart	3	135	15	foodImage.91	FOODEEG_Images\0896.jpg	YN	Left	Yes	0.710410299710929	0	539372	253
1054.158203125	0	decision	response	3	135	15	foodImage.91	FOODEEG_Images\0896.jpg	YN	Left	Yes	0.710410299710929	0	539730	234
1055.205078125	1	taste	trialStart	3	136	16	foodImage.65	FOODEEG_Images\0658.jpg	YN	Left	Yes	0.552099599968642	0	540266	251
1056.24609375	2	taste	foodImageDisplay	3	136	16	foodImage.65	FOODEEG_Images\0658.jpg	YN	Left	Yes	0.552099599968642	0	540799	252
1058.3125	0.552099599968642	taste	choicePhaseStart	3	136	16	foodImage.65	FOODEEG_Images\0658.jpg	YN	Left	Yes	0.552099599968642	0	541857	253
1058.853515625	0	taste	response	3	136	16	foodImage.65	FOODEEG_Images\0658.jpg	YN	Left	Yes	0.552099599968642	0	542134	234
1059.900390625	1	taste	trialStart	3	137	17	foodImage.115	FOODEEG_Images\0923.jpg	NY	Right	Yes	0.654344500042498	0	542670	251
1060.9375	2	taste	foodImageDisplay	3	137	17	foodImage.115	FOODEEG_Images\0923.jpg	NY	Right	Yes	0.654344500042498	0	543201	252
1063	0.654344500042498	taste	choicePhaseStart	3	137	17	foodImage.115	FOODEEG_Images\0923.jpg	NY	Right	Yes	0.654344500042498	0	544257	253
1063.646484375	0	taste	response	3	137	17	foodImage.115	FOODEEG_Images\0923.jpg	NY	Right	Yes	0.654344500042498	0	544588	235
1064.703125	1	health	trialStart	3	138	18	foodImage.45	FOODEEG_Images\0478.jpg	NY	Right	Yes	0.671073900070041	0	545129	251
1065.74609375	2	health	foodImageDisplay	3	138	18	foodImage.45	FOODEEG_Images\0478.jpg	NY	Right	Yes	0.671073900070041	0	545663	252
1067.80859375	0.671073900070041	health	choicePhaseStart	3	138	18	foodImage.45	FOODEEG_Images\0478.jpg	NY	Right	Yes	0.671073900070041	0	546719	253
1068.470703125	0	health	response	3	138	18	foodImage.45	FOODEEG_Images\0478.jpg	NY	Right	Yes	0.671073900070041	0	547058	235
1069.513671875	1	health	trialStart	3	139	19	foodImage.63	FOODEEG_Images\0645.jpg	YN	Right	No	1.08413709979504	0	547592	251
1070.5546875	2	health	foodImageDisplay	3	139	19	foodImage.63	FOODEEG_Images\0645.jpg	YN	Right	No	1.08413709979504	0	548125	252
1072.6171875	1.08413709979504	health	choicePhaseStart	3	139	19	foodImage.63	FOODEEG_Images\0645.jpg	YN	Right	No	1.08413709979504	0	549181	253
1073.6953125	0	health	response	3	139	19	foodImage.63	FOODEEG_Images\0645.jpg	YN	Right	No	1.08413709979504	0	549733	235
1074.740234375	1	decision	trialStart	3	140	20	foodImage.76	FOODEEG_Images\0766.jpg	YN	Right	No	0.807731300126761	0	550268	251
1075.787109375	2	decision	foodImageDisplay	3	140	20	foodImage.76	FOODEEG_Images\0766.jpg	YN	Right	No	0.807731300126761	0	550804	252
1077.849609375	0.807731300126761	decision	choicePhaseStart	3	140	20	foodImage.76	FOODEEG_Images\0766.jpg	YN	Right	No	0.807731300126761	0	551860	253
1078.646484375	0	decision	response	3	140	20	foodImage.76	FOODEEG_Images\0766.jpg	YN	Right	No	0.807731300126761	0	552268	235
1079.689453125	1	taste	trialStart	3	141	21	foodImage.39	FOODEEG_Images\0367.jpg	NY	Right	Yes	0.697731700260192	0	552802	251
1080.7265625	2	taste	foodImageDisplay	3	141	21	foodImage.39	FOODEEG_Images\0367.jpg	NY	Right	Yes	0.697731700260192	0	553333	252
1082.7890625	0.697731700260192	taste	choicePhaseStart	3	141	21	foodImage.39	FOODEEG_Images\0367.jpg	NY	Right	Yes	0.697731700260192	0	554389	253
1083.478515625	0	taste	response	3	141	21	foodImage.39	FOODEEG_Images\0367.jpg	NY	Right	Yes	0.697731700260192	0	554742	235
1084.521484375	1	health	trialStart	3	142	22	foodImage.106	FOODEEG_Images\0914.jpg	YN	Right	No	0.952289300039411	0	555276	251
1085.55859375	2	health	foodImageDisplay	3	142	22	foodImage.106	FOODEEG_Images\0914.jpg	YN	Right	No	0.952289300039411	0	555807	252
1087.62109375	0.952289300039411	health	choicePhaseStart	3	142	22	foodImage.106	FOODEEG_Images\0914.jpg	YN	Right	No	0.952289300039411	0	556863	253
1088.56640625	0	health	response	3	142	22	foodImage.106	FOODEEG_Images\0914.jpg	YN	Right	No	0.952289300039411	0	557347	235
1089.607421875	1	health	trialStart	3	143	23	foodImage.54	FOODEEG_Images\0560.jpg	NY	Right	Yes	0.736193499993533	0	557880	251
1090.6640625	2	health	foodImageDisplay	3	143	23	foodImage.54	FOODEEG_Images\0560.jpg	NY	Right	Yes	0.736193499993533	0	558421	252
1092.7265625	0.736193499993533	health	choicePhaseStart	3	143	23	foodImage.54	FOODEEG_Images\0560.jpg	NY	Right	Yes	0.736193499993533	0	559477	253
1093.453125	0	health	response	3	143	23	foodImage.54	FOODEEG_Images\0560.jpg	NY	Right	Yes	0.736193499993533	0	559849	235
1094.49609375	1	health	trialStart	3	144	24	foodImage.94	FOODEEG_Images\0902.jpg	YN	Left	Yes	1.08927670028061	0	560383	251
1095.533203125	2	health	foodImageDisplay	3	144	24	foodImage.94	FOODEEG_Images\0902.jpg	YN	Left	Yes	1.08927670028061	0	560914	252
1097.595703125	1.08927670028061	health	choicePhaseStart	3	144	24	foodImage.94	FOODEEG_Images\0902.jpg	YN	Left	Yes	1.08927670028061	0	561970	253
1098.677734375	0	health	response	3	144	24	foodImage.94	FOODEEG_Images\0902.jpg	YN	Left	Yes	1.08927670028061	0	562524	234
1099.720703125	1	health	trialStart	3	145	25	foodImage.89	FOODEEG_Images\0881.jpg	YN	Left	Yes	1.16566730011255	0	563058	251
1100.779296875	2	health	foodImageDisplay	3	145	25	foodImage.89	FOODEEG_Images\0881.jpg	YN	Left	Yes	1.16566730011255	0	563600	252
1102.841796875	1.16566730011255	health	choicePhaseStart	3	145	25	foodImage.89	FOODEEG_Images\0881.jpg	YN	Left	Yes	1.16566730011255	0	564656	253
1103.99609375	0	health	response	3	145	25	foodImage.89	FOODEEG_Images\0881.jpg	YN	Left	Yes	1.16566730011255	0	565247	234
1105.0390625	1	health	trialStart	3	146	26	foodImage.16	FOODEEG_Images\0196.jpg	YN	Left	Yes	0.550311199855059	0	565781	251
1106.095703125	2	health	foodImageDisplay	3	146	26	foodImage.16	FOODEEG_Images\0196.jpg	YN	Left	Yes	0.550311199855059	0	566322	252
1108.15625	0.550311199855059	health	choicePhaseStart	3	146	26	foodImage.16	FOODEEG_Images\0196.jpg	YN	Left	Yes	0.550311199855059	0	567377	253
1108.701171875	0	health	response	3	146	26	foodImage.16	FOODEEG_Images\0196.jpg	YN	Left	Yes	0.550311199855059	0	567656	234
1109.744140625	1	taste	trialStart	3	147	27	foodImage.20	FOODEEG_Images\0226.jpg	NY	Left	No	1.00505949975923	0	568190	251
1110.787109375	2	taste	foodImageDisplay	3	147	27	foodImage.20	FOODEEG_Images\0226.jpg	NY	Left	No	1.00505949975923	0	568724	252
1112.849609375	1.00505949975923	taste	choicePhaseStart	3	147	27	foodImage.20	FOODEEG_Images\0226.jpg	NY	Left	No	1.00505949975923	0	569780	253
1113.84375	0	taste	response	3	147	27	foodImage.20	FOODEEG_Images\0226.jpg	NY	Left	No	1.00505949975923	0	570289	234
1114.888671875	1	decision	trialStart	3	148	28	foodImage.18	FOODEEG_Images\0202.jpg	YN	Left	Yes	0.652809399645776	0	570824	251
1115.9453125	2	decision	foodImageDisplay	3	148	28	foodImage.18	FOODEEG_Images\0202.jpg	YN	Left	Yes	0.652809399645776	0	571365	252
1118.0078125	0.652809399645776	decision	choicePhaseStart	3	148	28	foodImage.18	FOODEEG_Images\0202.jpg	YN	Left	Yes	0.652809399645776	0	572421	253
1118.65234375	0	decision	response	3	148	28	foodImage.18	FOODEEG_Images\0202.jpg	YN	Left	Yes	0.652809399645776	0	572751	234
1119.693359375	1	taste	trialStart	3	149	29	foodImage.7	FOODEEG_Images\0116.jpg	NY	Right	Yes	0.641546200029552	0	573284	251
1120.734375	2	taste	foodImageDisplay	3	149	29	foodImage.7	FOODEEG_Images\0116.jpg	NY	Right	Yes	0.641546200029552	0	573817	252
1122.796875	0.641546200029552	taste	choicePhaseStart	3	149	29	foodImage.7	FOODEEG_Images\0116.jpg	NY	Right	Yes	0.641546200029552	0	574873	253
1123.427734375	0	taste	response	3	149	29	foodImage.7	FOODEEG_Images\0116.jpg	NY	Right	Yes	0.641546200029552	0	575196	235
1124.47265625	1	taste	trialStart	3	150	30	foodImage.13	FOODEEG_Images\0183.jpg	YN	Left	Yes	0.751835899893194	0	575731	251
1125.513671875	2	taste	foodImageDisplay	3	150	30	foodImage.13	FOODEEG_Images\0183.jpg	YN	Left	Yes	0.751835899893194	0	576264	252
1127.580078125	0.751835899893194	taste	choicePhaseStart	3	150	30	foodImage.13	FOODEEG_Images\0183.jpg	YN	Left	Yes	0.751835899893194	0	577322	253
1128.32421875	0	taste	response	3	150	30	foodImage.13	FOODEEG_Images\0183.jpg	YN	Left	Yes	0.751835899893194	0	577703	234
1129.365234375	1	decision	trialStart	3	151	31	foodImage.22	FOODEEG_Images\0236.jpg	NY	Right	Yes	0.679539899807423	0	578236	251
1130.40625	2	decision	foodImageDisplay	3	151	31	foodImage.22	FOODEEG_Images\0236.jpg	NY	Right	Yes	0.679539899807423	0	578769	252
1132.46875	0.679539899807423	decision	choicePhaseStart	3	151	31	foodImage.22	FOODEEG_Images\0236.jpg	NY	Right	Yes	0.679539899807423	0	579825	253
1133.140625	0	decision	response	3	151	31	foodImage.22	FOODEEG_Images\0236.jpg	NY	Right	Yes	0.679539899807423	0	580169	235
1134.18359375	1	health	trialStart	3	152	32	foodImage.91	FOODEEG_Images\0896.jpg	NY	Right	Yes	0.987254499923438	0	580703	251
1135.2421875	2	health	foodImageDisplay	3	152	32	foodImage.91	FOODEEG_Images\0896.jpg	NY	Right	Yes	0.987254499923438	0	581245	252
1137.3046875	0.987254499923438	health	choicePhaseStart	3	152	32	foodImage.91	FOODEEG_Images\0896.jpg	NY	Right	Yes	0.987254499923438	0	582301	253
1138.283203125	0	health	response	3	152	32	foodImage.91	FOODEEG_Images\0896.jpg	NY	Right	Yes	0.987254499923438	0	582802	235
1139.328125	1	taste	trialStart	3	153	33	foodImage.83	FOODEEG_Images\0827.jpg	YN	Left	Yes	0.972639400046319	0	583337	251
1140.384765625	2	taste	foodImageDisplay	3	153	33	foodImage.83	FOODEEG_Images\0827.jpg	YN	Left	Yes	0.972639400046319	0	583878	252
1142.447265625	0.972639400046319	taste	choicePhaseStart	3	153	33	foodImage.83	FOODEEG_Images\0827.jpg	YN	Left	Yes	0.972639400046319	0	584934	253
1143.412109375	0	taste	response	3	153	33	foodImage.83	FOODEEG_Images\0827.jpg	YN	Left	Yes	0.972639400046319	0	585428	234
1144.455078125	1	taste	trialStart	3	154	34	foodImage.37	FOODEEG_Images\0359.jpg	YN	Right	No	0.749273400288075	0	585962	251
1145.49609375	2	taste	foodImageDisplay	3	154	34	foodImage.37	FOODEEG_Images\0359.jpg	YN	Right	No	0.749273400288075	0	586495	252
1147.55859375	0.749273400288075	taste	choicePhaseStart	3	154	34	foodImage.37	FOODEEG_Images\0359.jpg	YN	Right	No	0.749273400288075	0	587551	253
1148.298828125	0	taste	response	3	154	34	foodImage.37	FOODEEG_Images\0359.jpg	YN	Right	No	0.749273400288075	0	587930	235
1149.34375	1	taste	trialStart	3	155	35	foodImage.6	FOODEEG_Images\0113.jpg	NY	Right	Yes	0.565897600259632	0	588465	251
1150.384765625	2	taste	foodImageDisplay	3	155	35	foodImage.6	FOODEEG_Images\0113.jpg	NY	Right	Yes	0.565897600259632	0	588998	252
1152.4453125	0.565897600259632	taste	choicePhaseStart	3	155	35	foodImage.6	FOODEEG_Images\0113.jpg	NY	Right	Yes	0.565897600259632	0	590053	253
1153.00390625	0	taste	response	3	155	35	foodImage.6	FOODEEG_Images\0113.jpg	NY	Right	Yes	0.565897600259632	0	590339	235
1154.044921875	1	taste	trialStart	3	156	36	foodImage.51	FOODEEG_Images\0536.jpg	NY	Right	Yes	0.589065199717879	0	590872	251
1155.087890625	2	taste	foodImageDisplay	3	156	36	foodImage.51	FOODEEG_Images\0536.jpg	NY	Right	Yes	0.589065199717879	0	591406	252
1157.150390625	0.589065199717879	taste	choicePhaseStart	3	156	36	foodImage.51	FOODEEG_Images\0536.jpg	NY	Right	Yes	0.589065199717879	0	592462	253
1157.73046875	0	taste	response	3	156	36	foodImage.51	FOODEEG_Images\0536.jpg	NY	Right	Yes	0.589065199717879	0	592759	235
1158.7734375	1	decision	trialStart	3	157	37	foodImage.32	FOODEEG_Images\0319.jpg	YN	Left	Yes	0.745509700383991	0	593293	251
1159.818359375	2	decision	foodImageDisplay	3	157	37	foodImage.32	FOODEEG_Images\0319.jpg	YN	Left	Yes	0.745509700383991	0	593828	252
1161.8828125	0.745509700383991	decision	choicePhaseStart	3	157	37	foodImage.32	FOODEEG_Images\0319.jpg	YN	Left	Yes	0.745509700383991	0	594885	253
1162.619140625	0	decision	response	3	157	37	foodImage.32	FOODEEG_Images\0319.jpg	YN	Left	Yes	0.745509700383991	0	595262	234
1163.666015625	1	health	trialStart	3	158	38	foodImage.5	FOODEEG_Images\0107.jpg	NY	Left	No	0.798187299631536	0	595798	251
1164.7265625	2	health	foodImageDisplay	3	158	38	foodImage.5	FOODEEG_Images\0107.jpg	NY	Left	No	0.798187299631536	0	596341	252
1166.7890625	0.798187299631536	health	choicePhaseStart	3	158	38	foodImage.5	FOODEEG_Images\0107.jpg	NY	Left	No	0.798187299631536	0	597397	253
1167.578125	0	health	response	3	158	38	foodImage.5	FOODEEG_Images\0107.jpg	NY	Left	No	0.798187299631536	0	597801	234
1168.62109375	1	taste	trialStart	3	159	39	foodImage.107	FOODEEG_Images\0915.jpg	NY	Left	No	1.69753240002319	0	598335	251
1169.66015625	2	taste	foodImageDisplay	3	159	39	foodImage.107	FOODEEG_Images\0915.jpg	NY	Left	No	1.69753240002319	0	598867	252
1171.72265625	1.69753240002319	taste	choicePhaseStart	3	159	39	foodImage.107	FOODEEG_Images\0915.jpg	NY	Left	No	1.69753240002319	0	599923	253
1173.41015625	0	taste	response	3	159	39	foodImage.107	FOODEEG_Images\0915.jpg	NY	Left	No	1.69753240002319	0	600787	234
1174.453125	1	health	trialStart	3	160	40	foodImage.65	FOODEEG_Images\0658.jpg	NY	Right	Yes	0.910909800324589	0	601321	251
1175.494140625	2	health	foodImageDisplay	3	160	40	foodImage.65	FOODEEG_Images\0658.jpg	NY	Right	Yes	0.910909800324589	0	601854	252
1177.556640625	0.910909800324589	health	choicePhaseStart	3	160	40	foodImage.65	FOODEEG_Images\0658.jpg	NY	Right	Yes	0.910909800324589	0	602910	253
1178.45703125	0	health	response	3	160	40	foodImage.65	FOODEEG_Images\0658.jpg	NY	Right	Yes	0.910909800324589	0	603371	235
1179.501953125	1	taste	trialStart	3	161	41	foodImage.95	FOODEEG_Images\0903.jpg	NY	Left	No	0.746120899915695	0	603906	251
1180.5390625	2	taste	foodImageDisplay	3	161	41	foodImage.95	FOODEEG_Images\0903.jpg	NY	Left	No	0.746120899915695	0	604437	252
1182.6015625	0.746120899915695	taste	choicePhaseStart	3	161	41	foodImage.95	FOODEEG_Images\0903.jpg	NY	Left	No	0.746120899915695	0	605493	253
1183.337890625	0	taste	response	3	161	41	foodImage.95	FOODEEG_Images\0903.jpg	NY	Left	No	0.746120899915695	0	605870	234
1184.3828125	1	taste	trialStart	3	162	42	foodImage.58	FOODEEG_Images\0605.jpg	YN	Left	Yes	1.11433780007064	0	606405	251
1185.44140625	2	taste	foodImageDisplay	3	162	42	foodImage.58	FOODEEG_Images\0605.jpg	YN	Left	Yes	1.11433780007064	0	606947	252
1187.50390625	1.11433780007064	taste	choicePhaseStart	3	162	42	foodImage.58	FOODEEG_Images\0605.jpg	YN	Left	Yes	1.11433780007064	0	608003	253
1188.609375	0	taste	response	3	162	42	foodImage.58	FOODEEG_Images\0605.jpg	YN	Left	Yes	1.11433780007064	0	608569	234
1189.650390625	1	taste	trialStart	3	163	43	foodImage.96	FOODEEG_Images\0904.jpg	NY	Right	Yes	0.69601870002225	0	609102	251
1190.689453125	2	taste	foodImageDisplay	3	163	43	foodImage.96	FOODEEG_Images\0904.jpg	NY	Right	Yes	0.69601870002225	0	609634	252
1192.751953125	0.69601870002225	taste	choicePhaseStart	3	163	43	foodImage.96	FOODEEG_Images\0904.jpg	NY	Right	Yes	0.69601870002225	0	610690	253
1193.44140625	0	taste	response	3	163	43	foodImage.96	FOODEEG_Images\0904.jpg	NY	Right	Yes	0.69601870002225	0	611043	235
1194.484375	1	health	trialStart	3	164	44	foodImage.53	FOODEEG_Images\0547.jpg	NY	Left	No	0.828775499947369	0	611577	251
1195.541015625	2	health	foodImageDisplay	3	164	44	foodImage.53	FOODEEG_Images\0547.jpg	NY	Left	No	0.828775499947369	0	612118	252
1197.603515625	0.828775499947369	health	choicePhaseStart	3	164	44	foodImage.53	FOODEEG_Images\0547.jpg	NY	Left	No	0.828775499947369	0	613174	253
1198.42578125	0	health	response	3	164	44	foodImage.53	FOODEEG_Images\0547.jpg	NY	Left	No	0.828775499947369	0	613595	234
1199.466796875	1	taste	trialStart	3	165	45	foodImage.9	FOODEEG_Images\0138.jpg	YN	Left	Yes	0.663914300035685	0	614128	251
1200.53125	2	taste	foodImageDisplay	3	165	45	foodImage.9	FOODEEG_Images\0138.jpg	YN	Left	Yes	0.663914300035685	0	614673	252
1202.595703125	0.663914300035685	taste	choicePhaseStart	3	165	45	foodImage.9	FOODEEG_Images\0138.jpg	YN	Left	Yes	0.663914300035685	0	615730	253
1203.248046875	0	taste	response	3	165	45	foodImage.9	FOODEEG_Images\0138.jpg	YN	Left	Yes	0.663914300035685	0	616064	234
1204.2890625	1	taste	trialStart	3	166	46	foodImage.103	FOODEEG_Images\0911.jpg	YN	Right	No	0.933838800061494	0	616597	251
1205.326171875	2	taste	foodImageDisplay	3	166	46	foodImage.103	FOODEEG_Images\0911.jpg	YN	Right	No	0.933838800061494	0	617128	252
1207.388671875	0.933838800061494	taste	choicePhaseStart	3	166	46	foodImage.103	FOODEEG_Images\0911.jpg	YN	Right	No	0.933838800061494	0	618184	253
1208.3125	0	taste	response	3	166	46	foodImage.103	FOODEEG_Images\0911.jpg	YN	Right	No	0.933838800061494	0	618657	235
1209.353515625	1	health	trialStart	3	167	47	foodImage.81	FOODEEG_Images\0797.jpg	NY	Right	Yes	0.66807600017637	0	619190	251
1210.408203125	2	health	foodImageDisplay	3	167	47	foodImage.81	FOODEEG_Images\0797.jpg	NY	Right	Yes	0.66807600017637	0	619730	252
1212.46875	0.66807600017637	health	choicePhaseStart	3	167	47	foodImage.81	FOODEEG_Images\0797.jpg	NY	Right	Yes	0.66807600017637	0	620785	253
1213.12890625	0	health	response	3	167	47	foodImage.81	FOODEEG_Images\0797.jpg	NY	Right	Yes	0.66807600017637	0	621123	235
1214.171875	1	health	trialStart	3	168	48	foodImage.99	FOODEEG_Images\0907.jpg	YN	Right	No	0.649103899952024	0	621657	251
1215.208984375	2	health	foodImageDisplay	3	168	48	foodImage.99	FOODEEG_Images\0907.jpg	YN	Right	No	0.649103899952024	0	622188	252
1217.271484375	0.649103899952024	health	choicePhaseStart	3	168	48	foodImage.99	FOODEEG_Images\0907.jpg	YN	Right	No	0.649103899952024	0	623244	253
1217.912109375	0	health	response	3	168	48	foodImage.99	FOODEEG_Images\0907.jpg	YN	Right	No	0.649103899952024	0	623572	235
1218.955078125	1	taste	trialStart	3	169	49	foodImage.32	FOODEEG_Images\0319.jpg	NY	Right	Yes	0.875944999977946	0	624106	251
1220	2	taste	foodImageDisplay	3	169	49	foodImage.32	FOODEEG_Images\0319.jpg	NY	Right	Yes	0.875944999977946	0	624641	252
1222.0625	0.875944999977946	taste	choicePhaseStart	3	169	49	foodImage.32	FOODEEG_Images\0319.jpg	NY	Right	Yes	0.875944999977946	0	625697	253
1222.927734375	0	taste	response	3	169	49	foodImage.32	FOODEEG_Images\0319.jpg	NY	Right	Yes	0.875944999977946	0	626140	235
1223.970703125	1	health	trialStart	3	170	50	foodImage.93	FOODEEG_Images\0901.jpg	NY	Left	No	0.976695199962705	0	626674	251
1225.009765625	2	health	foodImageDisplay	3	170	50	foodImage.93	FOODEEG_Images\0901.jpg	NY	Left	No	0.976695199962705	0	627206	252
1227.072265625	0.976695199962705	health	choicePhaseStart	3	170	50	foodImage.93	FOODEEG_Images\0901.jpg	NY	Left	No	0.976695199962705	0	628262	253
1228.041015625	0	health	response	3	170	50	foodImage.93	FOODEEG_Images\0901.jpg	NY	Left	No	0.976695199962705	0	628758	234
1229.08203125	1	health	trialStart	3	171	51	foodImage.102	FOODEEG_Images\0910.jpg	YN	Right	No	0.896150600165129	0	629291	251
1230.12109375	2	health	foodImageDisplay	3	171	51	foodImage.102	FOODEEG_Images\0910.jpg	YN	Right	No	0.896150600165129	0	629823	252
1232.18359375	0.896150600165129	health	choicePhaseStart	3	171	51	foodImage.102	FOODEEG_Images\0910.jpg	YN	Right	No	0.896150600165129	0	630879	253
1233.072265625	0	health	response	3	171	51	foodImage.102	FOODEEG_Images\0910.jpg	YN	Right	No	0.896150600165129	0	631334	235
1234.1171875	1	decision	trialStart	3	172	52	foodImage.67	FOODEEG_Images\0679.jpg	YN	Left	Yes	0.904472300317138	0	631869	251
1235.17578125	2	decision	foodImageDisplay	3	172	52	foodImage.67	FOODEEG_Images\0679.jpg	YN	Left	Yes	0.904472300317138	0	632411	252
1237.23828125	0.904472300317138	decision	choicePhaseStart	3	172	52	foodImage.67	FOODEEG_Images\0679.jpg	YN	Left	Yes	0.904472300317138	0	633467	253
1238.134765625	0	decision	response	3	172	52	foodImage.67	FOODEEG_Images\0679.jpg	YN	Left	Yes	0.904472300317138	0	633926	234
1239.1796875	1	decision	trialStart	3	173	53	foodImage.1	FOODEEG_Images\0004.jpg	YN	Left	Yes	0.619188900105655	0	634461	251
1240.22265625	2	decision	foodImageDisplay	3	173	53	foodImage.1	FOODEEG_Images\0004.jpg	YN	Left	Yes	0.619188900105655	0	634995	252
1242.28515625	0.619188900105655	decision	choicePhaseStart	3	173	53	foodImage.1	FOODEEG_Images\0004.jpg	YN	Left	Yes	0.619188900105655	0	636051	253
1242.89453125	0	decision	response	3	173	53	foodImage.1	FOODEEG_Images\0004.jpg	YN	Left	Yes	0.619188900105655	0	636363	234
1243.939453125	1	decision	trialStart	3	174	54	foodImage.83	FOODEEG_Images\0827.jpg	NY	Right	Yes	0.661256299819797	0	636898	251
1244.998046875	2	decision	foodImageDisplay	3	174	54	foodImage.83	FOODEEG_Images\0827.jpg	NY	Right	Yes	0.661256299819797	0	637440	252
1247.060546875	0.661256299819797	decision	choicePhaseStart	3	174	54	foodImage.83	FOODEEG_Images\0827.jpg	NY	Right	Yes	0.661256299819797	0	638496	253
1247.7109375	0	decision	response	3	174	54	foodImage.83	FOODEEG_Images\0827.jpg	NY	Right	Yes	0.661256299819797	0	638829	235
1248.7578125	1	health	trialStart	3	175	55	foodImage.56	FOODEEG_Images\0586.jpg	YN	Right	No	1.72122399974614	0	639365	251
1249.798828125	2	health	foodImageDisplay	3	175	55	foodImage.56	FOODEEG_Images\0586.jpg	YN	Right	No	1.72122399974614	0	639898	252
1251.861328125	1.72122399974614	health	choicePhaseStart	3	175	55	foodImage.56	FOODEEG_Images\0586.jpg	YN	Right	No	1.72122399974614	0	640954	253
1253.576171875	0	health	response	3	175	55	foodImage.56	FOODEEG_Images\0586.jpg	YN	Right	No	1.72122399974614	0	641832	235
1254.615234375	1	decision	trialStart	3	176	56	foodImage.17	FOODEEG_Images\0199.jpg	YN	Left	Yes	0.920094300061464	0	642364	251
1255.65625	2	decision	foodImageDisplay	3	176	56	foodImage.17	FOODEEG_Images\0199.jpg	YN	Left	Yes	0.920094300061464	0	642897	252
1257.71875	0.920094300061464	decision	choicePhaseStart	3	176	56	foodImage.17	FOODEEG_Images\0199.jpg	YN	Left	Yes	0.920094300061464	0	643953	253
1258.630859375	0	decision	response	3	176	56	foodImage.17	FOODEEG_Images\0199.jpg	YN	Left	Yes	0.920094300061464	0	644420	234
1259.671875	1	taste	trialStart	3	177	57	foodImage.61	FOODEEG_Images\0640.jpg	YN	Right	No	0.694004700053483	0	644953	251
1260.71484375	2	taste	foodImageDisplay	3	177	57	foodImage.61	FOODEEG_Images\0640.jpg	YN	Right	No	0.694004700053483	0	645487	252
1262.77734375	0.694004700053483	taste	choicePhaseStart	3	177	57	foodImage.61	FOODEEG_Images\0640.jpg	YN	Right	No	0.694004700053483	0	646543	253
1263.462890625	0	taste	response	3	177	57	foodImage.61	FOODEEG_Images\0640.jpg	YN	Right	No	0.694004700053483	0	646894	235
1264.505859375	1	taste	trialStart	3	178	58	foodImage.19	FOODEEG_Images\0225.jpg	YN	Left	Yes	1.18119979975745	0	647428	251
1265.546875	2	taste	foodImageDisplay	3	178	58	foodImage.19	FOODEEG_Images\0225.jpg	YN	Left	Yes	1.18119979975745	0	647961	252
1267.609375	1.18119979975745	taste	choicePhaseStart	3	178	58	foodImage.19	FOODEEG_Images\0225.jpg	YN	Left	Yes	1.18119979975745	0	649017	253
1268.783203125	0	taste	response	3	178	58	foodImage.19	FOODEEG_Images\0225.jpg	YN	Left	Yes	1.18119979975745	0	649618	234
1269.826171875	1	decision	trialStart	3	179	59	foodImage.64	FOODEEG_Images\0647.jpg	NY	Right	Yes	0.64623220032081	0	650152	251
1270.880859375	2	decision	foodImageDisplay	3	179	59	foodImage.64	FOODEEG_Images\0647.jpg	NY	Right	Yes	0.64623220032081	0	650692	252
1272.943359375	0.64623220032081	decision	choicePhaseStart	3	179	59	foodImage.64	FOODEEG_Images\0647.jpg	NY	Right	Yes	0.64623220032081	0	651748	253
1273.58203125	0	decision	response	3	179	59	foodImage.64	FOODEEG_Images\0647.jpg	NY	Right	Yes	0.64623220032081	0	652075	235
1274.625	1	decision	trialStart	3	180	60	foodImage.52	FOODEEG_Images\0539.jpg	YN	Left	Yes	0.564048899803311	0	652609	251
1275.68359375	2	decision	foodImageDisplay	3	180	60	foodImage.52	FOODEEG_Images\0539.jpg	YN	Left	Yes	0.564048899803311	0	653151	252
1277.74609375	0.564048899803311	decision	choicePhaseStart	3	180	60	foodImage.52	FOODEEG_Images\0539.jpg	YN	Left	Yes	0.564048899803311	0	654207	253
1278.302734375	0	decision	response	3	180	60	foodImage.52	FOODEEG_Images\0539.jpg	YN	Left	Yes	0.564048899803311	0	654492	234
1280.34765625	35.96875	n/a	blockEnd	n/a	n/a	n/a	n/a	n/a	n/a	n/a	n/a	n/a	n/a	655539	254
1316.31640625	2	n/a	blockStart	4	n/a	n/a	n/a	n/a	n/a	n/a	n/a	n/a	n/a	673955	250
1318.34765625	1	taste	trialStart	4	181	1	foodImage.57	FOODEEG_Images\0587.jpg	YN	Left	Yes	0.702139100059867	0	674995	251
1319.392578125	2	taste	foodImageDisplay	4	181	1	foodImage.57	FOODEEG_Images\0587.jpg	YN	Left	Yes	0.702139100059867	0	675530	252
1321.4609375	0.702139100059867	taste	choicePhaseStart	4	181	1	foodImage.57	FOODEEG_Images\0587.jpg	YN	Left	Yes	0.702139100059867	0	676589	253
1322.15625	0	taste	response	4	181	1	foodImage.57	FOODEEG_Images\0587.jpg	YN	Left	Yes	0.702139100059867	0	676945	234
1323.19921875	1	health	trialStart	4	182	2	foodImage.48	FOODEEG_Images\0494.jpg	YN	Right	No	0.597686800174415	0	677479	251
1324.240234375	2	health	foodImageDisplay	4	182	2	foodImage.48	FOODEEG_Images\0494.jpg	YN	Right	No	0.597686800174415	0	678012	252
1326.302734375	0.597686800174415	health	choicePhaseStart	4	182	2	foodImage.48	FOODEEG_Images\0494.jpg	YN	Right	No	0.597686800174415	0	679068	253
1326.892578125	0	health	response	4	182	2	foodImage.48	FOODEEG_Images\0494.jpg	YN	Right	No	0.597686800174415	0	679370	235
1327.93359375	1	decision	trialStart	4	183	3	foodImage.20	FOODEEG_Images\0226.jpg	YN	Right	No	1.05727769993246	0	679903	251
1328.97265625	2	decision	foodImageDisplay	4	183	3	foodImage.20	FOODEEG_Images\0226.jpg	YN	Right	No	1.05727769993246	0	680435	252
1331.03515625	1.05727769993246	decision	choicePhaseStart	4	183	3	foodImage.20	FOODEEG_Images\0226.jpg	YN	Right	No	1.05727769993246	0	681491	253
1332.083984375	0	decision	response	4	183	3	foodImage.20	FOODEEG_Images\0226.jpg	YN	Right	No	1.05727769993246	0	682028	235
1333.125	1	health	trialStart	4	184	4	foodImage.21	FOODEEG_Images\0234.jpg	NY	Right	Yes	0.680631299968809	0	682561	251
1334.19140625	2	health	foodImageDisplay	4	184	4	foodImage.21	FOODEEG_Images\0234.jpg	NY	Right	Yes	0.680631299968809	0	683107	252
1336.25390625	0.680631299968809	health	choicePhaseStart	4	184	4	foodImage.21	FOODEEG_Images\0234.jpg	NY	Right	Yes	0.680631299968809	0	684163	253
1336.923828125	0	health	response	4	184	4	foodImage.21	FOODEEG_Images\0234.jpg	NY	Right	Yes	0.680631299968809	0	684506	235
1337.966796875	1	decision	trialStart	4	185	5	foodImage.6	FOODEEG_Images\0113.jpg	NY	Right	Yes	0.64557999977842	0	685040	251
1339.009765625	2	decision	foodImageDisplay	4	185	5	foodImage.6	FOODEEG_Images\0113.jpg	NY	Right	Yes	0.64557999977842	0	685574	252
1341.072265625	0.64557999977842	decision	choicePhaseStart	4	185	5	foodImage.6	FOODEEG_Images\0113.jpg	NY	Right	Yes	0.64557999977842	0	686630	253
1341.70703125	0	decision	response	4	185	5	foodImage.6	FOODEEG_Images\0113.jpg	NY	Right	Yes	0.64557999977842	0	686955	235
1342.75	1	decision	trialStart	4	186	6	foodImage.66	FOODEEG_Images\0676.jpg	NY	Right	Yes	0.670316000003368	0	687489	251
1343.791015625	2	decision	foodImageDisplay	4	186	6	foodImage.66	FOODEEG_Images\0676.jpg	NY	Right	Yes	0.670316000003368	0	688022	252
1345.853515625	0.670316000003368	decision	choicePhaseStart	4	186	6	foodImage.66	FOODEEG_Images\0676.jpg	NY	Right	Yes	0.670316000003368	0	689078	253
1346.515625	0	decision	response	4	186	6	foodImage.66	FOODEEG_Images\0676.jpg	NY	Right	Yes	0.670316000003368	0	689417	235
1347.560546875	1	health	trialStart	4	187	7	foodImage.110	FOODEEG_Images\0918.jpg	NY	Left	No	0.853972800076008	0	689952	251
1348.599609375	2	health	foodImageDisplay	4	187	7	foodImage.110	FOODEEG_Images\0918.jpg	NY	Left	No	0.853972800076008	0	690484	252
1350.662109375	0.853972800076008	health	choicePhaseStart	4	187	7	foodImage.110	FOODEEG_Images\0918.jpg	NY	Left	No	0.853972800076008	0	691540	253
1351.5078125	0	health	response	4	187	7	foodImage.110	FOODEEG_Images\0918.jpg	NY	Left	No	0.853972800076008	0	691973	234
1352.55078125	1	decision	trialStart	4	188	8	foodImage.63	FOODEEG_Images\0645.jpg	NY	Right	Yes	1.38401649985462	0	692507	251
1353.61328125	2	decision	foodImageDisplay	4	188	8	foodImage.63	FOODEEG_Images\0645.jpg	NY	Right	Yes	1.38401649985462	0	693051	252
1355.67578125	1.38401649985462	decision	choicePhaseStart	4	188	8	foodImage.63	FOODEEG_Images\0645.jpg	NY	Right	Yes	1.38401649985462	0	694107	253
1357.05078125	0	decision	response	4	188	8	foodImage.63	FOODEEG_Images\0645.jpg	NY	Right	Yes	1.38401649985462	0	694811	235
1358.09375	1	health	trialStart	4	189	9	foodImage.15	FOODEEG_Images\0189.jpg	NY	Left	No	0.61064189998433	0	695345	251
1359.154296875	2	health	foodImageDisplay	4	189	9	foodImage.15	FOODEEG_Images\0189.jpg	NY	Left	No	0.61064189998433	0	695888	252
1361.216796875	0.61064189998433	health	choicePhaseStart	4	189	9	foodImage.15	FOODEEG_Images\0189.jpg	NY	Left	No	0.61064189998433	0	696944	253
1361.818359375	0	health	response	4	189	9	foodImage.15	FOODEEG_Images\0189.jpg	NY	Left	No	0.61064189998433	0	697252	234
1362.861328125	1	health	trialStart	4	190	10	foodImage.77	FOODEEG_Images\0771.jpg	YN	Left	Yes	0.842760199680924	0	697786	251
1363.904296875	2	health	foodImageDisplay	4	190	10	foodImage.77	FOODEEG_Images\0771.jpg	YN	Left	Yes	0.842760199680924	0	698320	252
1365.966796875	0.842760199680924	health	choicePhaseStart	4	190	10	foodImage.77	FOODEEG_Images\0771.jpg	YN	Left	Yes	0.842760199680924	0	699376	253
1366.802734375	0	health	response	4	190	10	foodImage.77	FOODEEG_Images\0771.jpg	YN	Left	Yes	0.842760199680924	0	699804	234
1367.845703125	1	taste	trialStart	4	191	11	foodImage.120	FOODEEG_Images\0928.jpg	YN	Right	No	1.20086740003899	0	700338	251
1368.8828125	2	taste	foodImageDisplay	4	191	11	foodImage.120	FOODEEG_Images\0928.jpg	YN	Right	No	1.20086740003899	0	700869	252
1370.9453125	1.20086740003899	taste	choicePhaseStart	4	191	11	foodImage.120	FOODEEG_Images\0928.jpg	YN	Right	No	1.20086740003899	0	701925	253
1372.138671875	0	taste	response	4	191	11	foodImage.120	FOODEEG_Images\0928.jpg	YN	Right	No	1.20086740003899	0	702536	235
1373.181640625	1	taste	trialStart	4	192	12	foodImage.59	FOODEEG_Images\0607.jpg	NY	Right	Yes	0.576764299999923	0	703070	251
1374.2265625	2	taste	foodImageDisplay	4	192	12	foodImage.59	FOODEEG_Images\0607.jpg	NY	Right	Yes	0.576764299999923	0	703605	252
1376.2890625	0.576764299999923	taste	choicePhaseStart	4	192	12	foodImage.59	FOODEEG_Images\0607.jpg	NY	Right	Yes	0.576764299999923	0	704661	253
1376.857421875	0	taste	response	4	192	12	foodImage.59	FOODEEG_Images\0607.jpg	NY	Right	Yes	0.576764299999923	0	704952	235
1377.90234375	1	decision	trialStart	4	193	13	foodImage.19	FOODEEG_Images\0225.jpg	NY	Right	Yes	0.780222100205719	0	705487	251
1378.9453125	2	decision	foodImageDisplay	4	193	13	foodImage.19	FOODEEG_Images\0225.jpg	NY	Right	Yes	0.780222100205719	0	706021	252
1381.0078125	0.780222100205719	decision	choicePhaseStart	4	193	13	foodImage.19	FOODEEG_Images\0225.jpg	NY	Right	Yes	0.780222100205719	0	707077	253
1381.77734375	0	decision	response	4	193	13	foodImage.19	FOODEEG_Images\0225.jpg	NY	Right	Yes	0.780222100205719	0	707471	235
1382.8203125	1	taste	trialStart	4	194	14	foodImage.85	FOODEEG_Images\0841.jpg	NY	Right	Yes	0.63003270002082	0	708005	251
1383.87890625	2	taste	foodImageDisplay	4	194	14	foodImage.85	FOODEEG_Images\0841.jpg	NY	Right	Yes	0.63003270002082	0	708547	252
