onset	duration	trial_type	event_type	block	trial_total	trial_in_block	food_image_code	food_image_path	button_position	resp_position	resp_choice	choice_rt	resp_too_slow	sample	trigger
233.16015625	2	n/a	blockStart	1	n/a	n/a	n/a	n/a	n/a	n/a	n/a	n/a	n/a	119379	250
235.19921875	1	taste	trialStart	1	1	1	foodImage.19	FOODEEG_Images\0225.jpg	YN	Right	No	1.4920258000493	0	120423	251
236.271484375	2	taste	foodImageDisplay	1	1	1	foodImage.19	FOODEEG_Images\0225.jpg	YN	Right	No	1.4920258000493	0	120972	252
238.3359375	1.4920258000493	taste	choicePhaseStart	1	1	1	foodImage.19	FOODEEG_Images\0225.jpg	YN	Right	No	1.4920258000493	0	122029	253
239.8203125	0	taste	response	1	1	1	foodImage.19	FOODEEG_Images\0225.jpg	YN	Right	No	1.4920258000493	0	122789	235
240.9375	1	taste	trialStart	1	2	2	foodImage.55	FOODEEG_Images\0567.jpg	YN	Left	Yes	0.847954299999401	0	123361	251
241.99609375	2	taste	foodImageDisplay	1	2	2	foodImage.55	FOODEEG_Images\0567.jpg	YN	Left	Yes	0.847954299999401	0	123903	252
244.06640625	0.847954299999401	taste	choicePhaseStart	1	2	2	foodImage.55	FOODEEG_Images\0567.jpg	YN	Left	Yes	0.847954299999401	0	124963	253
244.908203125	0	taste	response	1	2	2	foodImage.55	FOODEEG_Images\0567.jpg	YN	Left	Yes	0.847954299999401	0	125394	234
245.958984375	1	taste	trialStart	1	3	3	foodImage.33	FOODEEG_Images\0329.jpg	NY	Right	Yes	1.18804399995133	0	125932	251
247.001953125	2	taste	foodImageDisplay	1	3	3	foodImage.33	FOODEEG_Images\0329.jpg	NY	Right	Yes	1.18804399995133	0	126466	252
249.0703125	1.18804399995133	taste	choicePhaseStart	1	3	3	foodImage.33	FOODEEG_Images\0329.jpg	NY	Right	Yes	1.18804399995133	0	127525	253
250.25	0	taste	response	1	3	3	foodImage.33	FOODEEG_Images\0329.jpg	NY	Right	Yes	1.18804399995133	0	128129	235
251.29296875	1	health	trialStart	1	4	4	foodImage.83	FOODEEG_Images\0827.jpg	YN	Left	Yes	0.834610599908046	0	128663	251
252.3671875	2	health	foodImageDisplay	1	4	4	foodImage.83	FOODEEG_Images\0827.jpg	YN	Left	Yes	0.834610599908046	0	129213	252
254.431640625	0.834610599908046	health	choicePhaseStart	1	4	4	foodImage.83	FOODEEG_Images\0827.jpg	YN	Left	Yes	0.834610599908046	0	130270	253
255.259765625	0	health	response	1	4	4	foodImage.83	FOODEEG_Images\0827.jpg	YN	Left	Yes	0.834610599908046	0	130694	234
256.3359375	1	decision	trialStart	1	5	5	foodImage.34	FOODEEG_Images\0339.jpg	YN	Right	No	0.919460100005381	0	131245	251
257.396484375	2	decision	foodImageDisplay	1	5	5	foodImage.34	FOODEEG_Images\0339.jpg	YN	Right	No	0.919460100005381	0	131788	252
259.4609375	0.919460100005381	decision	choicePhaseStart	1	5	5	foodImage.34	FOODEEG_Images\0339.jpg	YN	Right	No	0.919460100005381	0	132845	253
260.37109375	0	decision	response	1	5	5	foodImage.34	FOODEEG_Images\0339.jpg	YN	Right	No	0.919460100005381	0	133311	235
261.421875	1	decision	trialStart	1	6	6	foodImage.69	FOODEEG_Images\0693.jpg	YN	Left	Yes	0.704643500037491	0	133849	251
262.46484375	2	decision	foodImageDisplay	1	6	6	foodImage.69	FOODEEG_Images\0693.jpg	YN	Left	Yes	0.704643500037491	0	134383	252
264.529296875	0.704643500037491	decision	choicePhaseStart	1	6	6	foodImage.69	FOODEEG_Images\0693.jpg	YN	Left	Yes	0.704643500037491	0	135440	253
265.2265625	0	decision	response	1	6	6	foodImage.69	FOODEEG_Images\0693.jpg	YN	Left	Yes	0.704643500037491	0	135797	234
266.26953125	1	health	trialStart	1	7	7	foodImage.12	FOODEEG_Images\0181.jpg	YN	Left	Yes	0.984659199952148	0	136331	251
267.3125	2	health	foodImageDisplay	1	7	7	foodImage.12	FOODEEG_Images\0181.jpg	YN	Left	Yes	0.984659199952148	0	136865	252
269.37890625	0.984659199952148	health	choicePhaseStart	1	7	7	foodImage.12	FOODEEG_Images\0181.jpg	YN	Left	Yes	0.984659199952148	0	137923	253
270.353515625	0	health	response	1	7	7	foodImage.12	FOODEEG_Images\0181.jpg	YN	Left	Yes	0.984659199952148	0	138422	234
271.396484375	1	taste	trialStart	1	8	8	foodImage.11	FOODEEG_Images\0180.jpg	YN	Left	Yes	0.882871399982832	0	138956	251
272.447265625	2	taste	foodImageDisplay	1	8	8	foodImage.11	FOODEEG_Images\0180.jpg	YN	Left	Yes	0.882871399982832	0	139494	252
274.51171875	0.882871399982832	taste	choicePhaseStart	1	8	8	foodImage.11	FOODEEG_Images\0180.jpg	YN	Left	Yes	0.882871399982832	0	140551	253
275.38671875	0	taste	response	1	8	8	foodImage.11	FOODEEG_Images\0180.jpg	YN	Left	Yes	0.882871399982832	0	140999	234
276.431640625	1	decision	trialStart	1	9	9	foodImage.30	FOODEEG_Images\0282.jpg	NY	Right	Yes	0.961278600036167	0	141534	251
277.47265625	2	decision	foodImageDisplay	1	9	9	foodImage.30	FOODEEG_Images\0282.jpg	NY	Right	Yes	0.961278600036167	0	142067	252
279.537109375	0.961278600036167	decision	choicePhaseStart	1	9	9	foodImage.30	FOODEEG_Images\0282.jpg	NY	Right	Yes	0.961278600036167	0	143124	253
280.490234375	0	decision	response	1	9	9	foodImage.30	FOODEEG_Images\0282.jpg	NY	Right	Yes	0.961278600036167	0	143612	235
281.53125	1	decision	trialStart	1	10	10	foodImage.49	FOODEEG_Images\0515.jpg	YN	Left	Yes	0.65268559998367	0	144145	251
282.57421875	2	decision	foodImageDisplay	1	10	10	foodImage.49	FOODEEG_Images\0515.jpg	YN	Left	Yes	0.65268559998367	0	144679	252
284.63671875	0.65268559998367	decision	choicePhaseStart	1	10	10	foodImage.49	FOODEEG_Images\0515.jpg	YN	Left	Yes	0.65268559998367	0	145735	253
285.28125	0	decision	response	1	10	10	foodImage.49	FOODEEG_Images\0515.jpg	YN	Left	Yes	0.65268559998367	0	146065	234
286.322265625	1	taste	trialStart	1	11	11	foodImage.13	FOODEEG_Images\0183.jpg	NY	Left	No	1.42920730006881	0	146598	251
287.365234375	2	taste	foodImageDisplay	1	11	11	foodImage.13	FOODEEG_Images\0183.jpg	NY	Left	No	1.42920730006881	0	147132	252
289.427734375	1.42920730006881	taste	choicePhaseStart	1	11	11	foodImage.13	FOODEEG_Images\0183.jpg	NY	Left	No	1.42920730006881	0	148188	253
290.849609375	0	taste	response	1	11	11	foodImage.13	FOODEEG_Images\0183.jpg	NY	Left	No	1.42920730006881	0	148916	234
291.890625	1	taste	trialStart	1	12	12	foodImage.71	FOODEEG_Images\0713.jpg	NY	Right	Yes	0.923608500044793	0	149449	251
292.935546875	2	taste	foodImageDisplay	1	12	12	foodImage.71	FOODEEG_Images\0713.jpg	NY	Right	Yes	0.923608500044793	0	149984	252
294.998046875	0.923608500044793	taste	choicePhaseStart	1	12	12	foodImage.71	FOODEEG_Images\0713.jpg	NY	Right	Yes	0.923608500044793	0	151040	253
295.9140625	0	taste	response	1	12	12	foodImage.71	FOODEEG_Images\0713.jpg	NY	Right	Yes	0.923608500044793	0	151509	235
296.95703125	1	health	trialStart	1	13	13	foodImage.5	FOODEEG_Images\0107.jpg	NY	Left	No	0.785168700036593	0	152043	251
298.015625	2	health	foodImageDisplay	1	13	13	foodImage.5	FOODEEG_Images\0107.jpg	NY	Left	No	0.785168700036593	0	152585	252
300.080078125	0.785168700036593	health	choicePhaseStart	1	13	13	foodImage.5	FOODEEG_Images\0107.jpg	NY	Left	No	0.785168700036593	0	153642	253
300.85546875	0	health	response	1	13	13	foodImage.5	FOODEEG_Images\0107.jpg	NY	Left	No	0.785168700036593	0	154039	234
301.8984375	1	health	trialStart	1	14	14	foodImage.44	FOODEEG_Images\0459.jpg	NY	Right	Yes	0.760559500078671	0	154573	251
302.943359375	2	health	foodImageDisplay	1	14	14	foodImage.44	FOODEEG_Images\0459.jpg	NY	Right	Yes	0.760559500078671	0	155108	252
305.009765625	0.760559500078671	health	choicePhaseStart	1	14	14	foodImage.44	FOODEEG_Images\0459.jpg	NY	Right	Yes	0.760559500078671	0	156166	253
305.759765625	0	health	response	1	14	14	foodImage.44	FOODEEG_Images\0459.jpg	NY	Right	Yes	0.760559500078671	0	156550	235
306.80078125	1	decision	trialStart	1	15	15	foodImage.41	FOODEEG_Images\0409.jpg	NY	Right	Yes	0.832326899981126	0	157083	251
307.849609375	2	decision	foodImageDisplay	1	15	15	foodImage.41	FOODEEG_Images\0409.jpg	NY	Right	Yes	0.832326899981126	0	157620	252
309.912109375	0.832326899981126	decision	choicePhaseStart	1	15	15	foodImage.41	FOODEEG_Images\0409.jpg	NY	Right	Yes	0.832326899981126	0	158676	253
310.736328125	0	decision	response	1	15	15	foodImage.41	FOODEEG_Images\0409.jpg	NY	Right	Yes	0.832326899981126	0	159098	235
311.775390625	1	taste	trialStart	1	16	16	foodImage.62	FOODEEG_Images\0644.jpg	YN	Left	Yes	1.34674309997354	0	159630	251
312.83203125	2	taste	foodImageDisplay	1	16	16	foodImage.62	FOODEEG_Images\0644.jpg	YN	Left	Yes	1.34674309997354	0	160171	252
314.89453125	1.34674309997354	taste	choicePhaseStart	1	16	16	foodImage.62	FOODEEG_Images\0644.jpg	YN	Left	Yes	1.34674309997354	0	161227	253
316.232421875	0	taste	response	1	16	16	foodImage.62	FOODEEG_Images\0644.jpg	YN	Left	Yes	1.34674309997354	0	161912	234
317.275390625	1	decision	trialStart	1	17	17	foodImage.90	FOODEEG_Images\0890.jpg	NY	Left	No	0.837709499988705	0	162446	251
318.333984375	2	decision	foodImageDisplay	1	17	17	foodImage.90	FOODEEG_Images\0890.jpg	NY	Left	No	0.837709499988705	0	162988	252
320.396484375	0.837709499988705	decision	choicePhaseStart	1	17	17	foodImage.90	FOODEEG_Images\0890.jpg	NY	Left	No	0.837709499988705	0	164044	253
321.22265625	0	decision	response	1	17	17	foodImage.90	FOODEEG_Images\0890.jpg	NY	Left	No	0.837709499988705	0	164467	234
322.267578125	1	taste	trialStart	1	18	18	foodImage.45	FOODEEG_Images\0478.jpg	NY	Left	No	1.04734260006808	0	165002	251
323.33203125	2	taste	foodImageDisplay	1	18	18	foodImage.45	FOODEEG_Images\0478.jpg	NY	Left	No	1.04734260006808	0	165547	252
325.39453125	1.04734260006808	taste	choicePhaseStart	1	18	18	foodImage.45	FOODEEG_Images\0478.jpg	NY	Left	No	1.04734260006808	0	166603	253
326.431640625	0	taste	response	1	18	18	foodImage.45	FOODEEG_Images\0478.jpg	NY	Left	No	1.04734260006808	0	167134	234
327.47265625	1	decision	trialStart	1	19	19	foodImage.46	FOODEEG_Images\0479.jpg	YN	Left	Yes	0.768518700031564	0	167667	251
328.53125	2	decision	foodImageDisplay	1	19	19	foodImage.46	FOODEEG_Images\0479.jpg	YN	Left	Yes	0.768518700031564	0	168209	252
330.59375	0.768518700031564	decision	choicePhaseStart	1	19	19	foodImage.46	FOODEEG_Images\0479.jpg	YN	Left	Yes	0.768518700031564	0	169265	253
331.3515625	0	decision	response	1	19	19	foodImage.46	FOODEEG_Images\0479.jpg	YN	Left	Yes	0.768518700031564	0	169653	234
332.39453125	1	taste	trialStart	1	20	20	foodImage.30	FOODEEG_Images\0282.jpg	NY	Right	Yes	0.995631300029345	0	170187	251
333.4375	2	taste	foodImageDisplay	1	20	20	foodImage.30	FOODEEG_Images\0282.jpg	NY	Right	Yes	0.995631300029345	0	170721	252
335.5	0.995631300029345	taste	choicePhaseStart	1	20	20	foodImage.30	FOODEEG_Images\0282.jpg	NY	Right	Yes	0.995631300029345	0	171777	253
336.48828125	0	taste	response	1	20	20	foodImage.30	FOODEEG_Images\0282.jpg	NY	Right	Yes	0.995631300029345	0	172283	235
337.52734375	1	health	trialStart	1	21	21	foodImage.120	FOODEEG_Images\0928.jpg	NY	Left	No	1.16699950001203	0	172815	251
338.568359375	2	health	foodImageDisplay	1	21	21	foodImage.120	FOODEEG_Images\0928.jpg	NY	Left	No	1.16699950001203	0	173348	252
340.6328125	1.16699950001203	health	choicePhaseStart	1	21	21	foodImage.120	FOODEEG_Images\0928.jpg	NY	Left	No	1.16699950001203	0	174405	253
341.791015625	0	health	response	1	21	21	foodImage.120	FOODEEG_Images\0928.jpg	NY	Left	No	1.16699950001203	0	174998	234
342.8359375	1	health	trialStart	1	22	22	foodImage.103	FOODEEG_Images\0911.jpg	YN	Right	No	0.952224900014699	0	175533	251
343.873046875	2	health	foodImageDisplay	1	22	22	foodImage.103	FOODEEG_Images\0911.jpg	YN	Right	No	0.952224900014699	0	176064	252
345.935546875	0.952224900014699	health	choicePhaseStart	1	22	22	foodImage.103	FOODEEG_Images\0911.jpg	YN	Right	No	0.952224900014699	0	177120	253
346.87890625	0	health	response	1	22	22	foodImage.103	FOODEEG_Images\0911.jpg	YN	Right	No	0.952224900014699	0	177603	235
347.919921875	1	decision	trialStart	1	23	23	foodImage.44	FOODEEG_Images\0459.jpg	YN	Left	Yes	0.924324600026011	0	178136	251
348.96484375	2	decision	foodImageDisplay	1	23	23	foodImage.44	FOODEEG_Images\0459.jpg	YN	Left	Yes	0.924324600026011	0	178671	252
351.02734375	0.924324600026011	decision	choicePhaseStart	1	23	23	foodImage.44	FOODEEG_Images\0459.jpg	YN	Left	Yes	0.924324600026011	0	179727	253
351.943359375	0	decision	response	1	23	23	foodImage.44	FOODEEG_Images\0459.jpg	YN	Left	Yes	0.924324600026011	0	180196	234
352.984375	1	health	trialStart	1	24	24	foodImage.92	FOODEEG_Images\0900.jpg	YN	Right	No	0.891786199994385	0	180729	251
354.037109375	2	health	foodImageDisplay	1	24	24	foodImage.92	FOODEEG_Images\0900.jpg	YN	Right	No	0.891786199994385	0	181268	252
356.099609375	0.891786199994385	health	choicePhaseStart	1	24	24	foodImage.92	FOODEEG_Images\0900.jpg	YN	Right	No	0.891786199994385	0	182324	253
356.982421875	0	health	response	1	24	24	foodImage.92	FOODEEG_Images\0900.jpg	YN	Right	No	0.891786199994385	0	182776	235
358.0234375	1	decision	trialStart	1	25	25	foodImage.93	FOODEEG_Images\0901.jpg	NY	Left	No	0.84405919990968	0	183309	251
359.068359375	2	decision	foodImageDisplay	1	25	25	foodImage.93	FOODEEG_Images\0901.jpg	NY	Left	No	0.84405919990968	0	183844	252
361.130859375	0.84405919990968	decision	choicePhaseStart	1	25	25	foodImage.93	FOODEEG_Images\0901.jpg	NY	Left	No	0.84405919990968	0	184900	253
361.966796875	0	decision	response	1	25	25	foodImage.93	FOODEEG_Images\0901.jpg	NY	Left	No	0.84405919990968	0	185328	234
363.0078125	1	taste	trialStart	1	26	26	foodImage.120	FOODEEG_Images\0928.jpg	NY	Left	No	0.930724199977703	0	185861	251
364.046875	2	taste	foodImageDisplay	1	26	26	foodImage.120	FOODEEG_Images\0928.jpg	NY	Left	No	0.930724199977703	0	186393	252
366.109375	0.930724199977703	taste	choicePhaseStart	1	26	26	foodImage.120	FOODEEG_Images\0928.jpg	NY	Left	No	0.930724199977703	0	187449	253
367.029296875	0	taste	response	1	26	26	foodImage.120	FOODEEG_Images\0928.jpg	NY	Left	No	0.930724199977703	0	187920	234
368.0703125	1	taste	trialStart	1	27	27	foodImage.111	FOODEEG_Images\0919.jpg	NY	Left	No	0.683298800024204	0	188453	251
369.109375	2	taste	foodImageDisplay	1	27	27	foodImage.111	FOODEEG_Images\0919.jpg	NY	Left	No	0.683298800024204	0	188985	252
371.171875	0.683298800024204	taste	choicePhaseStart	1	27	27	foodImage.111	FOODEEG_Images\0919.jpg	NY	Left	No	0.683298800024204	0	190041	253
371.845703125	0	taste	response	1	27	27	foodImage.111	FOODEEG_Images\0919.jpg	NY	Left	No	0.683298800024204	0	190386	234
372.88671875	1	health	trialStart	1	28	28	foodImage.99	FOODEEG_Images\0907.jpg	YN	Right	No	0.875479599926621	0	190919	251
373.92578125	2	health	foodImageDisplay	1	28	28	foodImage.99	FOODEEG_Images\0907.jpg	YN	Right	No	0.875479599926621	0	191451	252
375.98828125	0.875479599926621	health	choicePhaseStart	1	28	28	foodImage.99	FOODEEG_Images\0907.jpg	YN	Right	No	0.875479599926621	0	192507	253
376.853515625	0	health	response	1	28	28	foodImage.99	FOODEEG_Images\0907.jpg	YN	Right	No	0.875479599926621	0	192950	235
377.89453125	1	decision	trialStart	1	29	29	foodImage.48	FOODEEG_Images\0494.jpg	NY	Left	No	0.822565800044686	0	193483	251
378.9375	2	decision	foodImageDisplay	1	29	29	foodImage.48	FOODEEG_Images\0494.jpg	NY	Left	No	0.822565800044686	0	194017	252
381	0.822565800044686	decision	choicePhaseStart	1	29	29	foodImage.48	FOODEEG_Images\0494.jpg	NY	Left	No	0.822565800044686	0	195073	253
381.814453125	0	decision	response	1	29	29	foodImage.48	FOODEEG_Images\0494.jpg	NY	Left	No	0.822565800044686	0	195490	234
382.85546875	1	taste	trialStart	1	30	30	foodImage.22	FOODEEG_Images\0236.jpg	YN	Left	Yes	0.766511699999683	0	196023	251
383.8984375	2	taste	foodImageDisplay	1	30	30	foodImage.22	FOODEEG_Images\0236.jpg	YN	Left	Yes	0.766511699999683	0	196557	252
385.9609375	0.766511699999683	taste	choicePhaseStart	1	30	30	foodImage.22	FOODEEG_Images\0236.jpg	YN	Left	Yes	0.766511699999683	0	197613	253
386.716796875	0	taste	response	1	30	30	foodImage.22	FOODEEG_Images\0236.jpg	YN	Left	Yes	0.766511699999683	0	198000	234
387.76171875	1	taste	trialStart	1	31	31	foodImage.34	FOODEEG_Images\0339.jpg	YN	Right	No	0.751791000016965	0	198535	251
388.81640625	2	taste	foodImageDisplay	1	31	31	foodImage.34	FOODEEG_Images\0339.jpg	YN	Right	No	0.751791000016965	0	199075	252
390.87890625	0.751791000016965	taste	choicePhaseStart	1	31	31	foodImage.34	FOODEEG_Images\0339.jpg	YN	Right	No	0.751791000016965	0	200131	253
391.62109375	0	taste	response	1	31	31	foodImage.34	FOODEEG_Images\0339.jpg	YN	Right	No	0.751791000016965	0	200511	235
392.6640625	1	decision	trialStart	1	32	32	foodImage.91	FOODEEG_Images\0896.jpg	NY	Right	Yes	1.0915594000835	0	201045	251
393.72265625	2	decision	foodImageDisplay	1	32	32	foodImage.91	FOODEEG_Images\0896.jpg	NY	Right	Yes	1.0915594000835	0	201587	252
395.78515625	1.0915594000835	decision	choicePhaseStart	1	32	32	foodImage.91	FOODEEG_Images\0896.jpg	NY	Right	Yes	1.0915594000835	0	202643	253
396.869140625	0	decision	response	1	32	32	foodImage.91	FOODEEG_Images\0896.jpg	NY	Right	Yes	1.0915594000835	0	203198	235
397.91015625	1	taste	trialStart	1	33	33	foodImage.47	FOODEEG_Images\0488.jpg	NY	Right	Yes	0.729628099943511	0	203731	251
398.95703125	2	taste	foodImageDisplay	1	33	33	foodImage.47	FOODEEG_Images\0488.jpg	NY	Right	Yes	0.729628099943511	0	204267	252
401.01953125	0.729628099943511	taste	choicePhaseStart	1	33	33	foodImage.47	FOODEEG_Images\0488.jpg	NY	Right	Yes	0.729628099943511	0	205323	253
401.740234375	0	taste	response	1	33	33	foodImage.47	FOODEEG_Images\0488.jpg	NY	Right	Yes	0.729628099943511	0	205692	235
402.783203125	1	health	trialStart	1	34	34	foodImage.42	FOODEEG_Images\0438.jpg	YN	Left	Yes	0.593410699977539	0	206226	251
403.875	2	health	foodImageDisplay	1	34	34	foodImage.42	FOODEEG_Images\0438.jpg	YN	Left	Yes	0.593410699977539	0	206785	252
405.939453125	0.593410699977539	health	choicePhaseStart	1	34	34	foodImage.42	FOODEEG_Images\0438.jpg	YN	Left	Yes	0.593410699977539	0	207842	253
406.525390625	0	health	response	1	34	34	foodImage.42	FOODEEG_Images\0438.jpg	YN	Left	Yes	0.593410699977539	0	208142	234
407.56640625	1	taste	trialStart	1	35	35	foodImage.86	FOODEEG_Images\0844.jpg	NY	Right	Yes	2.48424129991326	0	208675	251
408.626953125	2	taste	foodImageDisplay	1	35	35	foodImage.86	FOODEEG_Images\0844.jpg	NY	Right	Yes	2.48424129991326	0	209218	252
410.689453125	2.48424129991326	taste	choicePhaseStart	1	35	35	foodImage.86	FOODEEG_Images\0844.jpg	NY	Right	Yes	2.48424129991326	0	210274	253
413.1640625	0	taste	response	1	35	35	foodImage.86	FOODEEG_Images\0844.jpg	NY	Right	Yes	2.48424129991326	0	211541	235
414.20703125	1	health	trialStart	1	36	36	foodImage.84	FOODEEG_Images\0830.jpg	YN	Left	Yes	0.800401099957526	0	212075	251
415.26171875	2	health	foodImageDisplay	1	36	36	foodImage.84	FOODEEG_Images\0830.jpg	YN	Left	Yes	0.800401099957526	0	212615	252
417.32421875	0.800401099957526	health	choicePhaseStart	1	36	36	foodImage.84	FOODEEG_Images\0830.jpg	YN	Left	Yes	0.800401099957526	0	213671	253
418.115234375	0	health	response	1	36	36	foodImage.84	FOODEEG_Images\0830.jpg	YN	Left	Yes	0.800401099957526	0	214076	234
419.158203125	1	taste	trialStart	1	37	37	foodImage.74	FOODEEG_Images\0752.jpg	NY	Right	Yes	0.794453599955887	0	214610	251
420.220703125	2	taste	foodImageDisplay	1	37	37	foodImage.74	FOODEEG_Images\0752.jpg	NY	Right	Yes	0.794453599955887	0	215154	252
422.283203125	0.794453599955887	taste	choicePhaseStart	1	37	37	foodImage.74	FOODEEG_Images\0752.jpg	NY	Right	Yes	0.794453599955887	0	216210	253
423.068359375	0	taste	response	1	37	37	foodImage.74	FOODEEG_Images\0752.jpg	NY	Right	Yes	0.794453599955887	0	216612	235
424.111328125	1	health	trialStart	1	38	38	foodImage.59	FOODEEG_Images\0607.jpg	YN	Right	No	0.901521300082095	0	217146	251
425.16015625	2	health	foodImageDisplay	1	38	38	foodImage.59	FOODEEG_Images\0607.jpg	YN	Right	No	0.901521300082095	0	217683	252
427.22265625	0.901521300082095	health	choicePhaseStart	1	38	38	foodImage.59	FOODEEG_Images\0607.jpg	YN	Right	No	0.901521300082095	0	218739	253
428.115234375	0	health	response	1	38	38	foodImage.59	FOODEEG_Images\0607.jpg	YN	Right	No	0.901521300082095	0	219196	235
429.158203125	1	decision	trialStart	1	39	39	foodImage.95	FOODEEG_Images\0903.jpg	NY	Left	No	0.821230900008231	0	219730	251
430.201171875	2	decision	foodImageDisplay	1	39	39	foodImage.95	FOODEEG_Images\0903.jpg	NY	Left	No	0.821230900008231	0	220264	252
432.263671875	0.821230900008231	decision	choicePhaseStart	1	39	39	foodImage.95	FOODEEG_Images\0903.jpg	NY	Left	No	0.821230900008231	0	221320	253
433.076171875	0	decision	response	1	39	39	foodImage.95	FOODEEG_Images\0903.jpg	NY	Left	No	0.821230900008231	0	221736	234
434.115234375	1	decision	trialStart	1	40	40	foodImage.63	FOODEEG_Images\0645.jpg	YN	Left	Yes	1.45424780005123	0	222268	251
435.158203125	2	decision	foodImageDisplay	1	40	40	foodImage.63	FOODEEG_Images\0645.jpg	YN	Left	Yes	1.45424780005123	0	222802	252
437.220703125	1.45424780005123	decision	choicePhaseStart	1	40	40	foodImage.63	FOODEEG_Images\0645.jpg	YN	Left	Yes	1.45424780005123	0	223858	253
438.66796875	0	decision	response	1	40	40	foodImage.63	FOODEEG_Images\0645.jpg	YN	Left	Yes	1.45424780005123	0	224599	234
439.7109375	1	taste	trialStart	1	41	41	foodImage.26	FOODEEG_Images\0262.jpg	YN	Left	Yes	0.763597099925391	0	225133	251
440.75390625	2	taste	foodImageDisplay	1	41	41	foodImage.26	FOODEEG_Images\0262.jpg	YN	Left	Yes	0.763597099925391	0	225667	252
442.81640625	0.763597099925391	taste	choicePhaseStart	1	41	41	foodImage.26	FOODEEG_Images\0262.jpg	YN	Left	Yes	0.763597099925391	0	226723	253
443.5703125	0	taste	response	1	41	41	foodImage.26	FOODEEG_Images\0262.jpg	YN	Left	Yes	0.763597099925391	0	227109	234
444.611328125	1	decision	trialStart	1	42	42	foodImage.14	FOODEEG_Images\0188.jpg	NY	Right	Yes	0.859652200015262	0	227642	251
445.671875	2	decision	foodImageDisplay	1	42	42	foodImage.14	FOODEEG_Images\0188.jpg	NY	Right	Yes	0.859652200015262	0	228185	252
447.734375	0.859652200015262	decision	choicePhaseStart	1	42	42	foodImage.14	FOODEEG_Images\0188.jpg	NY	Right	Yes	0.859652200015262	0	229241	253
448.587890625	0	decision	response	1	42	42	foodImage.14	FOODEEG_Images\0188.jpg	NY	Right	Yes	0.859652200015262	0	229678	235
449.62890625	1	health	trialStart	1	43	43	foodImage.81	FOODEEG_Images\0797.jpg	YN	Left	Yes	0.864719700068235	0	230211	251
450.685546875	2	health	foodImageDisplay	1	43	43	foodImage.81	FOODEEG_Images\0797.jpg	YN	Left	Yes	0.864719700068235	0	230752	252
452.748046875	0.864719700068235	health	choicePhaseStart	1	43	43	foodImage.81	FOODEEG_Images\0797.jpg	YN	Left	Yes	0.864719700068235	0	231808	253
453.603515625	0	health	response	1	43	43	foodImage.81	FOODEEG_Images\0797.jpg	YN	Left	Yes	0.864719700068235	0	232246	234
454.642578125	1	decision	trialStart	1	44	44	foodImage.31	FOODEEG_Images\0294.jpg	NY	Right	Yes	1.06268199998885	0	232778	251
455.685546875	2	decision	foodImageDisplay	1	44	44	foodImage.31	FOODEEG_Images\0294.jpg	NY	Right	Yes	1.06268199998885	0	233312	252
457.748046875	1.06268199998885	decision	choicePhaseStart	1	44	44	foodImage.31	FOODEEG_Images\0294.jpg	NY	Right	Yes	1.06268199998885	0	234368	253
458.802734375	0	decision	response	1	44	44	foodImage.31	FOODEEG_Images\0294.jpg	NY	Right	Yes	1.06268199998885	0	234908	235
459.84765625	1	health	trialStart	1	45	45	foodImage.9	FOODEEG_Images\0138.jpg	YN	Right	No	1.02397530002054	0	235443	251
460.908203125	2	health	foodImageDisplay	1	45	45	foodImage.9	FOODEEG_Images\0138.jpg	YN	Right	No	1.02397530002054	0	235986	252
462.970703125	1.02397530002054	health	choicePhaseStart	1	45	45	foodImage.9	FOODEEG_Images\0138.jpg	YN	Right	No	1.02397530002054	0	237042	253
463.986328125	0	health	response	1	45	45	foodImage.9	FOODEEG_Images\0138.jpg	YN	Right	No	1.02397530002054	0	237562	235
465.033203125	1	taste	trialStart	1	46	46	foodImage.14	FOODEEG_Images\0188.jpg	NY	Right	Yes	1.42733860004228	0	238098	251
466.08984375	2	taste	foodImageDisplay	1	46	46	foodImage.14	FOODEEG_Images\0188.jpg	NY	Right	Yes	1.42733860004228	0	238639	252
468.15234375	1.42733860004228	taste	choicePhaseStart	1	46	46	foodImage.14	FOODEEG_Images\0188.jpg	NY	Right	Yes	1.42733860004228	0	239695	253
469.5703125	0	taste	response	1	46	46	foodImage.14	FOODEEG_Images\0188.jpg	NY	Right	Yes	1.42733860004228	0	240421	235
470.61328125	1	health	trialStart	1	47	47	foodImage.47	FOODEEG_Images\0488.jpg	NY	Left	No	1.0527265999699	0	240955	251
471.65625	2	health	foodImageDisplay	1	47	47	foodImage.47	FOODEEG_Images\0488.jpg	NY	Left	No	1.0527265999699	0	241489	252
473.71875	1.0527265999699	health	choicePhaseStart	1	47	47	foodImage.47	FOODEEG_Images\0488.jpg	NY	Left	No	1.0527265999699	0	242545	253
474.76171875	0	health	response	1	47	47	foodImage.47	FOODEEG_Images\0488.jpg	NY	Left	No	1.0527265999699	0	243079	234
475.802734375	1	health	trialStart	1	48	48	foodImage.3	FOODEEG_Images\0046.jpg	NY	Right	Yes	0.758011400001124	0	243612	251
476.84765625	2	health	foodImageDisplay	1	48	48	foodImage.3	FOODEEG_Images\0046.jpg	NY	Right	Yes	0.758011400001124	0	244147	252
478.91015625	0.758011400001124	health	choicePhaseStart	1	48	48	foodImage.3	FOODEEG_Images\0046.jpg	NY	Right	Yes	0.758011400001124	0	245203	253
479.658203125	0	health	response	1	48	48	foodImage.3	FOODEEG_Images\0046.jpg	NY	Right	Yes	0.758011400001124	0	245586	235
480.701171875	1	health	trialStart	1	49	49	foodImage.26	FOODEEG_Images\0262.jpg	YN	Left	Yes	1.18868559994735	0	246120	251
481.744140625	2	health	foodImageDisplay	1	49	49	foodImage.26	FOODEEG_Images\0262.jpg	YN	Left	Yes	1.18868559994735	0	246654	252
483.806640625	1.18868559994735	health	choicePhaseStart	1	49	49	foodImage.26	FOODEEG_Images\0262.jpg	YN	Left	Yes	1.18868559994735	0	247710	253
484.986328125	0	health	response	1	49	49	foodImage.26	FOODEEG_Images\0262.jpg	YN	Left	Yes	1.18868559994735	0	248314	234
486.02734375	1	decision	trialStart	1	50	50	foodImage.115	FOODEEG_Images\0923.jpg	NY	Left	No	0.985702499980107	0	248847	251
487.06640625	2	decision	foodImageDisplay	1	50	50	foodImage.115	FOODEEG_Images\0923.jpg	NY	Left	No	0.985702499980107	0	249379	252
489.126953125	0.985702499980107	decision	choicePhaseStart	1	50	50	foodImage.115	FOODEEG_Images\0923.jpg	NY	Left	No	0.985702499980107	0	250434	253
490.10546875	0	decision	response	1	50	50	foodImage.115	FOODEEG_Images\0923.jpg	NY	Left	No	0.985702499980107	0	250935	234
491.146484375	1	decision	trialStart	1	51	51	foodImage.27	FOODEEG_Images\0263.jpg	NY	Right	Yes	1.35890899994411	0	251468	251
492.189453125	2	decision	foodImageDisplay	1	51	51	foodImage.27	FOODEEG_Images\0263.jpg	NY	Right	Yes	1.35890899994411	0	252002	252
494.251953125	1.35890899994411	decision	choicePhaseStart	1	51	51	foodImage.27	FOODEEG_Images\0263.jpg	NY	Right	Yes	1.35890899994411	0	253058	253
495.6015625	0	decision	response	1	51	51	foodImage.27	FOODEEG_Images\0263.jpg	NY	Right	Yes	1.35890899994411	0	253749	235
496.64453125	1	decision	trialStart	1	52	52	foodImage.87	FOODEEG_Images\0873.jpg	NY	Right	Yes	1.97900880000088	0	254283	251
497.703125	2	decision	foodImageDisplay	1	52	52	foodImage.87	FOODEEG_Images\0873.jpg	NY	Right	Yes	1.97900880000088	0	254825	252
499.767578125	1.97900880000088	decision	choicePhaseStart	1	52	52	foodImage.87	FOODEEG_Images\0873.jpg	NY	Right	Yes	1.97900880000088	0	255882	253
501.736328125	0	decision	response	1	52	52	foodImage.87	FOODEEG_Images\0873.jpg	NY	Right	Yes	1.97900880000088	0	256890	235
502.77734375	1	health	trialStart	1	53	53	foodImage.100	FOODEEG_Images\0908.jpg	YN	Right	No	1.83548929996323	0	257423	251
503.814453125	2	health	foodImageDisplay	1	53	53	foodImage.100	FOODEEG_Images\0908.jpg	YN	Right	No	1.83548929996323	0	257954	252
505.876953125	1.83548929996323	health	choicePhaseStart	1	53	53	foodImage.100	FOODEEG_Images\0908.jpg	YN	Right	No	1.83548929996323	0	259010	253
507.705078125	0	health	response	1	53	53	foodImage.100	FOODEEG_Images\0908.jpg	YN	Right	No	1.83548929996323	0	259946	235
508.748046875	1	decision	trialStart	1	54	54	foodImage.84	FOODEEG_Images\0830.jpg	YN	Left	Yes	1.39973539998755	0	260480	251
509.802734375	2	decision	foodImageDisplay	1	54	54	foodImage.84	FOODEEG_Images\0830.jpg	YN	Left	Yes	1.39973539998755	0	261020	252
511.865234375	1.39973539998755	decision	choicePhaseStart	1	54	54	foodImage.84	FOODEEG_Images\0830.jpg	YN	Left	Yes	1.39973539998755	0	262076	253
513.255859375	0	decision	response	1	54	54	foodImage.84	FOODEEG_Images\0830.jpg	YN	Left	Yes	1.39973539998755	0	262788	234
514.298828125	1	health	trialStart	1	55	55	foodImage.67	FOODEEG_Images\0679.jpg	NY	Left	No	0.800054799998179	0	263322	251
515.35546875	2	health	foodImageDisplay	1	55	55	foodImage.67	FOODEEG_Images\0679.jpg	NY	Left	No	0.800054799998179	0	263863	252
517.41796875	0.800054799998179	health	choicePhaseStart	1	55	55	foodImage.67	FOODEEG_Images\0679.jpg	NY	Left	No	0.800054799998179	0	264919	253
518.208984375	0	health	response	1	55	55	foodImage.67	FOODEEG_Images\0679.jpg	NY	Left	No	0.800054799998179	0	265324	234
519.25	1	taste	trialStart	1	56	56	foodImage.51	FOODEEG_Images\0536.jpg	NY	Left	No	0.938275499967858	0	265857	251
520.296875	2	taste	foodImageDisplay	1	56	56	foodImage.51	FOODEEG_Images\0536.jpg	NY	Left	No	0.938275499967858	0	266393	252
522.359375	0.938275499967858	taste	choicePhaseStart	1	56	56	foodImage.51	FOODEEG_Images\0536.jpg	NY	Left	No	0.938275499967858	0	267449	253
523.2890625	0	taste	response	1	56	56	foodImage.51	FOODEEG_Images\0536.jpg	NY	Left	No	0.938275499967858	0	267925	234
524.341796875	1	taste	trialStart	1	57	57	foodImage.77	FOODEEG_Images\0771.jpg	NY	Right	Yes	0.839933700044639	0	268464	251
525.38671875	2	taste	foodImageDisplay	1	57	57	foodImage.77	FOODEEG_Images\0771.jpg	NY	Right	Yes	0.839933700044639	0	268999	252
527.44921875	0.839933700044639	taste	choicePhaseStart	1	57	57	foodImage.77	FOODEEG_Images\0771.jpg	NY	Right	Yes	0.839933700044639	0	270055	253
528.279296875	0	taste	response	1	57	57	foodImage.77	FOODEEG_Images\0771.jpg	NY	Right	Yes	0.839933700044639	0	270480	235
529.32421875	1	health	trialStart	1	58	58	foodImage.76	FOODEEG_Images\0766.jpg	YN	Left	Yes	0.820910200010985	0	271015	251
530.3671875	2	health	foodImageDisplay	1	58	58	foodImage.76	FOODEEG_Images\0766.jpg	YN	Left	Yes	0.820910200010985	0	271549	252
532.427734375	0.820910200010985	health	choicePhaseStart	1	58	58	foodImage.76	FOODEEG_Images\0766.jpg	YN	Left	Yes	0.820910200010985	0	272604	253
533.240234375	0	health	response	1	58	58	foodImage.76	FOODEEG_Images\0766.jpg	YN	Left	Yes	0.820910200010985	0	273020	234
534.28125	1	health	trialStart	1	59	59	foodImage.79	FOODEEG_Images\0794.jpg	YN	Left	Yes	0.812480599968694	0	273553	251
535.326171875	2	health	foodImageDisplay	1	59	59	foodImage.79	FOODEEG_Images\0794.jpg	YN	Left	Yes	0.812480599968694	0	274088	252
537.388671875	0.812480599968694	health	choicePhaseStart	1	59	59	foodImage.79	FOODEEG_Images\0794.jpg	YN	Left	Yes	0.812480599968694	0	275144	253
538.19140625	0	health	response	1	59	59	foodImage.79	FOODEEG_Images\0794.jpg	YN	Left	Yes	0.812480599968694	0	275555	234
539.232421875	1	health	trialStart	1	60	60	foodImage.51	FOODEEG_Images\0536.jpg	NY	Left	No	0.938451600028202	0	276088	251
540.27734375	2	health	foodImageDisplay	1	60	60	foodImage.51	FOODEEG_Images\0536.jpg	NY	Left	No	0.938451600028202	0	276623	252
542.341796875	0.938451600028202	health	choicePhaseStart	1	60	60	foodImage.51	FOODEEG_Images\0536.jpg	NY	Left	No	0.938451600028202	0	277680	253
543.271484375	0	health	response	1	60	60	foodImage.51	FOODEEG_Images\0536.jpg	NY	Left	No	0.938451600028202	0	278156	234
545.310546875	14.70703125	n/a	blockEnd	n/a	n/a	n/a	n/a	n/a	n/a	n/a	n/a	n/a	n/a	279200	254
560.017578125	2	n/a	blockStart	2	n/a	n/a	n/a	n/a	n/a	n/a	n/a	n/a	n/a	286730	250
562.0546875	1	decision	trialStart	2	61	1	foodImage.101	FOODEEG_Images\0909.jpg	YN	Right	No	0.906838599941693	0	287773	251
563.091796875	2	decision	foodImageDisplay	2	61	1	foodImage.101	FOODEEG_Images\0909.jpg	YN	Right	No	0.906838599941693	0	288304	252
565.15625	0.906838599941693	decision	choicePhaseStart	2	61	1	foodImage.101	FOODEEG_Images\0909.jpg	YN	Right	No	0.906838599941693	0	289361	253
566.0546875	0	decision	response	2	61	1	foodImage.101	FOODEEG_Images\0909.jpg	YN	Right	No	0.906838599941693	0	289821	235
567.095703125	1	taste	trialStart	2	62	2	foodImage.27	FOODEEG_Images\0263.jpg	NY	Right	Yes	0.886976500041783	0	290354	251
568.13671875	2	taste	foodImageDisplay	2	62	2	foodImage.27	FOODEEG_Images\0263.jpg	NY	Right	Yes	0.886976500041783	0	290887	252
570.19921875	0.886976500041783	taste	choicePhaseStart	2	62	2	foodImage.27	FOODEEG_Images\0263.jpg	NY	Right	Yes	0.886976500041783	0	291943	253
571.078125	0	taste	response	2	62	2	foodImage.27	FOODEEG_Images\0263.jpg	NY	Right	Yes	0.886976500041783	0	292393	235
572.119140625	1	decision	trialStart	2	63	3	foodImage.56	FOODEEG_Images\0586.jpg	NY	Right	Yes	2.3663932000054	0	292926	251
573.162109375	2	decision	foodImageDisplay	2	63	3	foodImage.56	FOODEEG_Images\0586.jpg	NY	Right	Yes	2.3663932000054	0	293460	252
575.224609375	2.3663932000054	decision	choicePhaseStart	2	63	3	foodImage.56	FOODEEG_Images\0586.jpg	NY	Right	Yes	2.3663932000054	0	294516	253
577.58203125	0	decision	response	2	63	3	foodImage.56	FOODEEG_Images\0586.jpg	NY	Right	Yes	2.3663932000054	0	295723	235
578.623046875	1	taste	trialStart	2	64	4	foodImage.20	FOODEEG_Images\0226.jpg	NY	Left	No	1.66433900000993	0	296256	251
579.6640625	2	taste	foodImageDisplay	2	64	4	foodImage.20	FOODEEG_Images\0226.jpg	NY	Left	No	1.66433900000993	0	296789	252
581.7265625	1.66433900000993	taste	choicePhaseStart	2	64	4	foodImage.20	FOODEEG_Images\0226.jpg	NY	Left	No	1.66433900000993	0	297845	253
583.380859375	0	taste	response	2	64	4	foodImage.20	FOODEEG_Images\0226.jpg	NY	Left	No	1.66433900000993	0	298692	234
584.4296875	1	decision	trialStart	2	65	5	foodImage.43	FOODEEG_Images\0445.jpg	YN	Left	Yes	0.919234700035304	0	299229	251
585.48828125	2	decision	foodImageDisplay	2	65	5	foodImage.43	FOODEEG_Images\0445.jpg	YN	Left	Yes	0.919234700035304	0	299771	252
587.55078125	0.919234700035304	decision	choicePhaseStart	2	65	5	foodImage.43	FOODEEG_Images\0445.jpg	YN	Left	Yes	0.919234700035304	0	300827	253
588.4609375	0	decision	response	2	65	5	foodImage.43	FOODEEG_Images\0445.jpg	YN	Left	Yes	0.919234700035304	0	301293	234
589.50390625	1	decision	trialStart	2	66	6	foodImage.51	FOODEEG_Images\0536.jpg	YN	Right	No	0.971209599985741	0	301827	251
590.548828125	2	decision	foodImageDisplay	2	66	6	foodImage.51	FOODEEG_Images\0536.jpg	YN	Right	No	0.971209599985741	0	302362	252
592.611328125	0.971209599985741	decision	choicePhaseStart	2	66	6	foodImage.51	FOODEEG_Images\0536.jpg	YN	Right	No	0.971209599985741	0	303418	253
593.572265625	0	decision	response	2	66	6	foodImage.51	FOODEEG_Images\0536.jpg	YN	Right	No	0.971209599985741	0	303910	235
594.615234375	1	health	trialStart	2	67	7	foodImage.102	FOODEEG_Images\0910.jpg	YN	Right	No	0.827031600056216	0	304444	251
595.654296875	2	health	foodImageDisplay	2	67	7	foodImage.102	FOODEEG_Images\0910.jpg	YN	Right	No	0.827031600056216	0	304976	252
597.716796875	0.827031600056216	health	choicePhaseStart	2	67	7	foodImage.102	FOODEEG_Images\0910.jpg	YN	Right	No	0.827031600056216	0	306032	253
598.533203125	0	health	response	2	67	7	foodImage.102	FOODEEG_Images\0910.jpg	YN	Right	No	0.827031600056216	0	306450	235
599.576171875	1	decision	trialStart	2	68	8	foodImage.17	FOODEEG_Images\0199.jpg	NY	Right	Yes	0.740807699970901	0	306984	251
600.619140625	2	decision	foodImageDisplay	2	68	8	foodImage.17	FOODEEG_Images\0199.jpg	NY	Right	Yes	0.740807699970901	0	307518	252
602.681640625	0.740807699970901	decision	choicePhaseStart	2	68	8	foodImage.17	FOODEEG_Images\0199.jpg	NY	Right	Yes	0.740807699970901	0	308574	253
603.412109375	0	decision	response	2	68	8	foodImage.17	FOODEEG_Images\0199.jpg	NY	Right	Yes	0.740807699970901	0	308948	235
604.455078125	1	taste	trialStart	2	69	9	foodImage.109	FOODEEG_Images\0917.jpg	YN	Right	No	1.70052940002643	0	309482	251
605.4921875	2	taste	foodImageDisplay	2	69	9	foodImage.109	FOODEEG_Images\0917.jpg	YN	Right	No	1.70052940002643	0	310013	252
607.560546875	1.70052940002643	taste	choicePhaseStart	2	69	9	foodImage.109	FOODEEG_Images\0917.jpg	YN	Right	No	1.70052940002643	0	311072	253
609.251953125	0	taste	response	2	69	9	foodImage.109	FOODEEG_Images\0917.jpg	YN	Right	No	1.70052940002643	0	311938	235
610.294921875	1	health	trialStart	2	70	10	foodImage.57	FOODEEG_Images\0587.jpg	YN	Left	Yes	0.689384699915536	0	312472	251
611.33984375	2	health	foodImageDisplay	2	70	10	foodImage.57	FOODEEG_Images\0587.jpg	YN	Left	Yes	0.689384699915536	0	313007	252
613.404296875	0.689384699915536	health	choicePhaseStart	2	70	10	foodImage.57	FOODEEG_Images\0587.jpg	YN	Left	Yes	0.689384699915536	0	314064	253
614.083984375	0	health	response	2	70	10	foodImage.57	FOODEEG_Images\0587.jpg	YN	Left	Yes	0.689384699915536	0	314412	234
615.126953125	1	health	trialStart	2	71	11	foodImage.69	FOODEEG_Images\0693.jpg	NY	Right	Yes	1.57301970000844	0	314946	251
616.169921875	2	health	foodImageDisplay	2	71	11	foodImage.69	FOODEEG_Images\0693.jpg	NY	Right	Yes	1.57301970000844	0	315480	252
618.232421875	1.57301970000844	health	choicePhaseStart	2	71	11	foodImage.69	FOODEEG_Images\0693.jpg	NY	Right	Yes	1.57301970000844	0	316536	253
619.796875	0	health	response	2	71	11	foodImage.69	FOODEEG_Images\0693.jpg	NY	Right	Yes	1.57301970000844	0	317337	235
620.837890625	1	health	trialStart	2	72	12	foodImage.29	FOODEEG_Images\0278.jpg	YN	Left	Yes	0.764982900000177	0	317870	251
621.8828125	2	health	foodImageDisplay	2	72	12	foodImage.29	FOODEEG_Images\0278.jpg	YN	Left	Yes	0.764982900000177	0	318405	252
623.9453125	0.764982900000177	health	choicePhaseStart	2	72	12	foodImage.29	FOODEEG_Images\0278.jpg	YN	Left	Yes	0.764982900000177	0	319461	253
624.69921875	0	health	response	2	72	12	foodImage.29	FOODEEG_Images\0278.jpg	YN	Left	Yes	0.764982900000177	0	319847	234
625.7421875	1	decision	trialStart	2	73	13	foodImage.100	FOODEEG_Images\0908.jpg	YN	Right	No	1.03387630009092	0	320381	251
626.779296875	2	decision	foodImageDisplay	2	73	13	foodImage.100	FOODEEG_Images\0908.jpg	YN	Right	No	1.03387630009092	0	320912	252
628.841796875	1.03387630009092	decision	choicePhaseStart	2	73	13	foodImage.100	FOODEEG_Images\0908.jpg	YN	Right	No	1.03387630009092	0	321968	253
629.8671875	0	decision	response	2	73	13	foodImage.100	FOODEEG_Images\0908.jpg	YN	Right	No	1.03387630009092	0	322493	235
630.912109375	1	taste	trialStart	2	74	14	foodImage.2	FOODEEG_Images\0028.jpg	YN	Left	Yes	1.69090759998653	0	323028	251
631.95703125	2	taste	foodImageDisplay	2	74	14	foodImage.2	FOODEEG_Images\0028.jpg	YN	Left	Yes	1.69090759998653	0	323563	252
634.017578125	1.69090759998653	taste	choicePhaseStart	2	74	14	foodImage.2	FOODEEG_Images\0028.jpg	YN	Left	Yes	1.69090759998653	0	324618	253
635.69921875	0	taste	response	2	74	14	foodImage.2	FOODEEG_Images\0028.jpg	YN	Left	Yes	1.69090759998653	0	325479	234
636.7421875	1	health	trialStart	2	75	15	foodImage.43	FOODEEG_Images\0445.jpg	NY	Right	Yes	1.37050269998144	0	326013	251
637.8046875	2	health	foodImageDisplay	2	75	15	foodImage.43	FOODEEG_Images\0445.jpg	NY	Right	Yes	1.37050269998144	0	326557	252
639.8671875	1.37050269998144	health	choicePhaseStart	2	75	15	foodImage.43	FOODEEG_Images\0445.jpg	NY	Right	Yes	1.37050269998144	0	327613	253
641.2265625	0	health	response	2	75	15	foodImage.43	FOODEEG_Images\0445.jpg	NY	Right	Yes	1.37050269998144	0	328309	235
642.26953125	1	health	trialStart	2	76	16	foodImage.40	FOODEEG_Images\0373.jpg	YN	Left	Yes	0.717007700004615	0	328843	251
643.330078125	2	health	foodImageDisplay	2	76	16	foodImage.40	FOODEEG_Images\0373.jpg	YN	Left	Yes	0.717007700004615	0	329386	252
645.392578125	0.717007700004615	health	choicePhaseStart	2	76	16	foodImage.40	FOODEEG_Images\0373.jpg	YN	Left	Yes	0.717007700004615	0	330442	253
646.099609375	0	health	response	2	76	16	foodImage.40	FOODEEG_Images\0373.jpg	YN	Left	Yes	0.717007700004615	0	330804	234
647.142578125	1	health	trialStart	2	77	17	foodImage.110	FOODEEG_Images\0918.jpg	NY	Left	No	0.942643100046553	0	331338	251
648.181640625	2	health	foodImageDisplay	2	77	17	foodImage.110	FOODEEG_Images\0918.jpg	NY	Left	No	0.942643100046553	0	331870	252
650.244140625	0.942643100046553	health	choicePhaseStart	2	77	17	foodImage.110	FOODEEG_Images\0918.jpg	NY	Left	No	0.942643100046553	0	332926	253
651.1796875	0	health	response	2	77	17	foodImage.110	FOODEEG_Images\0918.jpg	NY	Left	No	0.942643100046553	0	333405	234
652.22265625	1	health	trialStart	2	78	18	foodImage.104	FOODEEG_Images\0912.jpg	NY	Left	No	1.0266809000168	0	333939	251
653.265625	2	health	foodImageDisplay	2	78	18	foodImage.104	FOODEEG_Images\0912.jpg	NY	Left	No	1.0266809000168	0	334473	252
655.328125	1.0266809000168	health	choicePhaseStart	2	78	18	foodImage.104	FOODEEG_Images\0912.jpg	NY	Left	No	1.0266809000168	0	335529	253
656.345703125	0	health	response	2	78	18	foodImage.104	FOODEEG_Images\0912.jpg	NY	Left	No	1.0266809000168	0	336050	234
657.388671875	1	decision	trialStart	2	79	19	foodImage.110	FOODEEG_Images\0918.jpg	YN	Right	No	1.25052120001055	0	336584	251
658.42578125	2	decision	foodImageDisplay	2	79	19	foodImage.110	FOODEEG_Images\0918.jpg	YN	Right	No	1.25052120001055	0	337115	252
660.48828125	1.25052120001055	decision	choicePhaseStart	2	79	19	foodImage.110	FOODEEG_Images\0918.jpg	YN	Right	No	1.25052120001055	0	338171	253
661.73046875	0	decision	response	2	79	19	foodImage.110	FOODEEG_Images\0918.jpg	YN	Right	No	1.25052120001055	0	338807	235
662.779296875	1	decision	trialStart	2	80	20	foodImage.107	FOODEEG_Images\0915.jpg	YN	Right	No	0.881636600010097	0	339344	251
663.818359375	2	decision	foodImageDisplay	2	80	20	foodImage.107	FOODEEG_Images\0915.jpg	YN	Right	No	0.881636600010097	0	339876	252
665.880859375	0.881636600010097	decision	choicePhaseStart	2	80	20	foodImage.107	FOODEEG_Images\0915.jpg	YN	Right	No	0.881636600010097	0	340932	253
666.75390625	0	decision	response	2	80	20	foodImage.107	FOODEEG_Images\0915.jpg	YN	Right	No	0.881636600010097	0	341379	235
667.796875	1	decision	trialStart	2	81	21	foodImage.4	FOODEEG_Images\0065.jpg	NY	Right	Yes	2.56219230010174	0	341913	251
668.857421875	2	decision	foodImageDisplay	2	81	21	foodImage.4	FOODEEG_Images\0065.jpg	NY	Right	Yes	2.56219230010174	0	342456	252
670.919921875	2.56219230010174	decision	choicePhaseStart	2	81	21	foodImage.4	FOODEEG_Images\0065.jpg	NY	Right	Yes	2.56219230010174	0	343512	253
673.474609375	0	decision	response	2	81	21	foodImage.4	FOODEEG_Images\0065.jpg	NY	Right	Yes	2.56219230010174	0	344820	235
674.515625	1	health	trialStart	2	82	22	foodImage.68	FOODEEG_Images\0685.jpg	NY	Left	No	1.65499870001804	0	345353	251
675.59375	2	health	foodImageDisplay	2	82	22	foodImage.68	FOODEEG_Images\0685.jpg	NY	Left	No	1.65499870001804	0	345905	252
677.66015625	1.65499870001804	health	choicePhaseStart	2	82	22	foodImage.68	FOODEEG_Images\0685.jpg	NY	Left	No	1.65499870001804	0	346963	253
679.306640625	0	health	response	2	82	22	foodImage.68	FOODEEG_Images\0685.jpg	NY	Left	No	1.65499870001804	0	347806	234
680.349609375	1	taste	trialStart	2	83	23	foodImage.103	FOODEEG_Images\0911.jpg	NY	Left	No	0.836360800080001	0	348340	251
681.3984375	2	taste	foodImageDisplay	2	83	23	foodImage.103	FOODEEG_Images\0911.jpg	NY	Left	No	0.836360800080001	0	348877	252
683.4609375	0.836360800080001	taste	choicePhaseStart	2	83	23	foodImage.103	FOODEEG_Images\0911.jpg	NY	Left	No	0.836360800080001	0	349933	253
684.2890625	0	taste	response	2	83	23	foodImage.103	FOODEEG_Images\0911.jpg	NY	Left	No	0.836360800080001	0	350357	234
685.33203125	1	taste	trialStart	2	84	24	foodImage.65	FOODEEG_Images\0658.jpg	NY	Right	Yes	1.50589220004622	0	350891	251
686.376953125	2	taste	foodImageDisplay	2	84	24	foodImage.65	FOODEEG_Images\0658.jpg	NY	Right	Yes	1.50589220004622	0	351426	252
688.439453125	1.50589220004622	taste	choicePhaseStart	2	84	24	foodImage.65	FOODEEG_Images\0658.jpg	NY	Right	Yes	1.50589220004622	0	352482	253
689.9375	0	taste	response	2	84	24	foodImage.65	FOODEEG_Images\0658.jpg	NY	Right	Yes	1.50589220004622	0	353249	235
690.98046875	1	health	trialStart	2	85	25	foodImage.88	FOODEEG_Images\0878.jpg	YN	Right	No	1.68564929999411	0	353783	251
692.03515625	2	health	foodImageDisplay	2	85	25	foodImage.88	FOODEEG_Images\0878.jpg	YN	Right	No	1.68564929999411	0	354323	252
694.1015625	1.68564929999411	health	choicePhaseStart	2	85	25	foodImage.88	FOODEEG_Images\0878.jpg	YN	Right	No	1.68564929999411	0	355381	253
695.77734375	0	health	response	2	85	25	foodImage.88	FOODEEG_Images\0878.jpg	YN	Right	No	1.68564929999411	0	356239	235
696.8203125	1	taste	trialStart	2	86	26	foodImage.96	FOODEEG_Images\0904.jpg	YN	Left	Yes	0.951708799926564	0	356773	251
697.859375	2	taste	foodImageDisplay	2	86	26	foodImage.96	FOODEEG_Images\0904.jpg	YN	Left	Yes	0.951708799926564	0	357305	252
699.921875	0.951708799926564	taste	choicePhaseStart	2	86	26	foodImage.96	FOODEEG_Images\0904.jpg	YN	Left	Yes	0.951708799926564	0	358361	253
700.865234375	0	taste	response	2	86	26	foodImage.96	FOODEEG_Images\0904.jpg	YN	Left	Yes	0.951708799926564	0	358844	234
701.91015625	1	health	trialStart	2	87	27	foodImage.15	FOODEEG_Images\0189.jpg	NY	Left	No	0.887249700026587	0	359379	251
702.970703125	2	health	foodImageDisplay	2	87	27	foodImage.15	FOODEEG_Images\0189.jpg	NY	Left	No	0.887249700026587	0	359922	252
705.03515625	0.887249700026587	health	choicePhaseStart	2	87	27	foodImage.15	FOODEEG_Images\0189.jpg	NY	Left	No	0.887249700026587	0	360979	253
705.912109375	0	health	response	2	87	27	foodImage.15	FOODEEG_Images\0189.jpg	NY	Left	No	0.887249700026587	0	361428	234
706.95703125	1	decision	trialStart	2	88	28	foodImage.33	FOODEEG_Images\0329.jpg	YN	Left	Yes	0.816828700015321	0	361963	251
708	2	decision	foodImageDisplay	2	88	28	foodImage.33	FOODEEG_Images\0329.jpg	YN	Left	Yes	0.816828700015321	0	362497	252
710.0625	0.816828700015321	decision	choicePhaseStart	2	88	28	foodImage.33	FOODEEG_Images\0329.jpg	YN	Left	Yes	0.816828700015321	0	363553	253
710.87109375	0	decision	response	2	88	28	foodImage.33	FOODEEG_Images\0329.jpg	YN	Left	Yes	0.816828700015321	0	363967	234
711.916015625	1	health	trialStart	2	89	29	foodImage.118	FOODEEG_Images\0926.jpg	NY	Left	No	1.13332710007671	0	364502	251
712.97265625	2	health	foodImageDisplay	2	89	29	foodImage.118	FOODEEG_Images\0926.jpg	NY	Left	No	1.13332710007671	0	365043	252
715.03515625	1.13332710007671	health	choicePhaseStart	2	89	29	foodImage.118	FOODEEG_Images\0926.jpg	NY	Left	No	1.13332710007671	0	366099	253
716.16015625	0	health	response	2	89	29	foodImage.118	FOODEEG_Images\0926.jpg	NY	Left	No	1.13332710007671	0	366675	234
717.203125	1	health	trialStart	2	90	30	foodImage.53	FOODEEG_Images\0547.jpg	YN	Right	No	2.56492069992237	0	367209	251
718.263671875	2	health	foodImageDisplay	2	90	30	foodImage.53	FOODEEG_Images\0547.jpg	YN	Right	No	2.56492069992237	0	367752	252
720.32421875	2.56492069992237	health	choicePhaseStart	2	90	30	foodImage.53	FOODEEG_Images\0547.jpg	YN	Right	No	2.56492069992237	0	368807	253
722.880859375	0	health	response	2	90	30	foodImage.53	FOODEEG_Images\0547.jpg	YN	Right	No	2.56492069992237	0	370116	235
723.923828125	1	taste	trialStart	2	91	31	foodImage.83	FOODEEG_Images\0827.jpg	YN	Left	Yes	2.21463509998284	0	370650	251
724.978515625	2	taste	foodImageDisplay	2	91	31	foodImage.83	FOODEEG_Images\0827.jpg	YN	Left	Yes	2.21463509998284	0	371190	252
727.041015625	2.21463509998284	taste	choicePhaseStart	2	91	31	foodImage.83	FOODEEG_Images\0827.jpg	YN	Left	Yes	2.21463509998284	0	372246	253
729.248046875	0	taste	response	2	91	31	foodImage.83	FOODEEG_Images\0827.jpg	YN	Left	Yes	2.21463509998284	0	373376	234
730.291015625	1	decision	trialStart	2	92	32	foodImage.47	FOODEEG_Images\0488.jpg	YN	Left	Yes	0.994383900077082	0	373910	251
731.333984375	2	decision	foodImageDisplay	2	92	32	foodImage.47	FOODEEG_Images\0488.jpg	YN	Left	Yes	0.994383900077082	0	374444	252
733.3984375	0.994383900077082	decision	choicePhaseStart	2	92	32	foodImage.47	FOODEEG_Images\0488.jpg	YN	Left	Yes	0.994383900077082	0	375501	253
734.3828125	0	decision	response	2	92	32	foodImage.47	FOODEEG_Images\0488.jpg	YN	Left	Yes	0.994383900077082	0	376005	234
735.42578125	1	health	trialStart	2	93	33	foodImage.117	FOODEEG_Images\0925.jpg	NY	Left	No	2.01296919991728	0	376539	251
736.474609375	2	health	foodImageDisplay	2	93	33	foodImage.117	FOODEEG_Images\0925.jpg	NY	Left	No	2.01296919991728	0	377076	252
738.5390625	2.01296919991728	health	choicePhaseStart	2	93	33	foodImage.117	FOODEEG_Images\0925.jpg	NY	Left	No	2.01296919991728	0	378133	253
740.54296875	0	health	response	2	93	33	foodImage.117	FOODEEG_Images\0925.jpg	NY	Left	No	2.01296919991728	0	379159	234
741.583984375	1	taste	trialStart	2	94	34	foodImage.6	FOODEEG_Images\0113.jpg	YN	Left	Yes	1.10075800004415	0	379692	251
742.626953125	2	taste	foodImageDisplay	2	94	34	foodImage.6	FOODEEG_Images\0113.jpg	YN	Left	Yes	1.10075800004415	0	380226	252
744.689453125	1.10075800004415	taste	choicePhaseStart	2	94	34	foodImage.6	FOODEEG_Images\0113.jpg	YN	Left	Yes	1.10075800004415	0	381282	253
745.783203125	0	taste	response	2	94	34	foodImage.6	FOODEEG_Images\0113.jpg	YN	Left	Yes	1.10075800004415	0	381842	234
746.826171875	1	decision	trialStart	2	95	35	foodImage.83	FOODEEG_Images\0827.jpg	YN	Left	Yes	0.889972900040448	0	382376	251
747.88671875	2	decision	foodImageDisplay	2	95	35	foodImage.83	FOODEEG_Images\0827.jpg	YN	Left	Yes	0.889972900040448	0	382919	252
749.94921875	0.889972900040448	decision	choicePhaseStart	2	95	35	foodImage.83	FOODEEG_Images\0827.jpg	YN	Left	Yes	0.889972900040448	0	383975	253
750.830078125	0	decision	response	2	95	35	foodImage.83	FOODEEG_Images\0827.jpg	YN	Left	Yes	0.889972900040448	0	384426	234
751.873046875	1	health	trialStart	2	96	36	foodImage.8	FOODEEG_Images\0136.jpg	YN	Right	No	0.899187900009565	0	384960	251
752.91796875	2	health	foodImageDisplay	2	96	36	foodImage.8	FOODEEG_Images\0136.jpg	YN	Right	No	0.899187900009565	0	385495	252
754.98046875	0.899187900009565	health	choicePhaseStart	2	96	36	foodImage.8	FOODEEG_Images\0136.jpg	YN	Right	No	0.899187900009565	0	386551	253
755.87109375	0	health	response	2	96	36	foodImage.8	FOODEEG_Images\0136.jpg	YN	Right	No	0.899187900009565	0	387007	235
756.9140625	1	taste	trialStart	2	97	37	foodImage.3	FOODEEG_Images\0046.jpg	NY	Right	Yes	0.929710099939257	0	387541	251
757.955078125	2	taste	foodImageDisplay	2	97	37	foodImage.3	FOODEEG_Images\0046.jpg	NY	Right	Yes	0.929710099939257	0	388074	252
760.021484375	0.929710099939257	taste	choicePhaseStart	2	97	37	foodImage.3	FOODEEG_Images\0046.jpg	NY	Right	Yes	0.929710099939257	0	389132	253
760.943359375	0	taste	response	2	97	37	foodImage.3	FOODEEG_Images\0046.jpg	NY	Right	Yes	0.929710099939257	0	389604	235
761.984375	1	health	trialStart	2	98	38	foodImage.30	FOODEEG_Images\0282.jpg	NY	Right	Yes	2.04714839998633	0	390137	251
763.025390625	2	health	foodImageDisplay	2	98	38	foodImage.30	FOODEEG_Images\0282.jpg	NY	Right	Yes	2.04714839998633	0	390670	252
765.087890625	2.04714839998633	health	choicePhaseStart	2	98	38	foodImage.30	FOODEEG_Images\0282.jpg	NY	Right	Yes	2.04714839998633	0	391726	253
767.126953125	0	health	response	2	98	38	foodImage.30	FOODEEG_Images\0282.jpg	NY	Right	Yes	2.04714839998633	0	392770	235
768.169921875	1	taste	trialStart	2	99	39	foodImage.58	FOODEEG_Images\0605.jpg	NY	Right	Yes	1.46809059998486	0	393304	251
769.251953125	2	taste	foodImageDisplay	2	99	39	foodImage.58	FOODEEG_Images\0605.jpg	NY	Right	Yes	1.46809059998486	0	393858	252
771.314453125	1.46809059998486	taste	choicePhaseStart	2	99	39	foodImage.58	FOODEEG_Images\0605.jpg	NY	Right	Yes	1.46809059998486	0	394914	253
772.7734375	0	taste	response	2	99	39	foodImage.58	FOODEEG_Images\0605.jpg	NY	Right	Yes	1.46809059998486	0	395661	235
773.81640625	1	health	trialStart	2	100	40	foodImage.86	FOODEEG_Images\0844.jpg	YN	Right	No	1.77650409995113	0	396195	251
774.873046875	2	health	foodImageDisplay	2	100	40	foodImage.86	FOODEEG_Images\0844.jpg	YN	Right	No	1.77650409995113	0	396736	252
776.935546875	1.77650409995113	health	choicePhaseStart	2	100	40	foodImage.86	FOODEEG_Images\0844.jpg	YN	Right	No	1.77650409995113	0	397792	253
778.701171875	0	health	response	2	100	40	foodImage.86	FOODEEG_Images\0844.jpg	YN	Right	No	1.77650409995113	0	398696	235
779.751953125	1	decision	trialStart	2	101	41	foodImage.106	FOODEEG_Images\0914.jpg	YN	Left	Yes	1.29457930009812	0	399234	251
780.794921875	2	decision	foodImageDisplay	2	101	41	foodImage.106	FOODEEG_Images\0914.jpg	YN	Left	Yes	1.29457930009812	0	399768	252
782.85546875	1.29457930009812	decision	choicePhaseStart	2	101	41	foodImage.106	FOODEEG_Images\0914.jpg	YN	Left	Yes	1.29457930009812	0	400823	253
784.140625	0	decision	response	2	101	41	foodImage.106	FOODEEG_Images\0914.jpg	YN	Left	Yes	1.29457930009812	0	401481	234
785.185546875	1	health	trialStart	2	102	42	foodImage.39	FOODEEG_Images\0367.jpg	NY	Left	No	1.19603730004746	0	402016	251
786.224609375	2	health	foodImageDisplay	2	102	42	foodImage.39	FOODEEG_Images\0367.jpg	NY	Left	No	1.19603730004746	0	402548	252
788.287109375	1.19603730004746	health	choicePhaseStart	2	102	42	foodImage.39	FOODEEG_Images\0367.jpg	NY	Left	No	1.19603730004746	0	403604	253
789.4765625	0	health	response	2	102	42	foodImage.39	FOODEEG_Images\0367.jpg	NY	Left	No	1.19603730004746	0	404213	234
790.51953125	1	taste	trialStart	2	103	43	foodImage.102	FOODEEG_Images\0910.jpg	NY	Left	No	0.873371299938299	0	404747	251
791.55859375	2	taste	foodImageDisplay	2	103	43	foodImage.102	FOODEEG_Images\0910.jpg	NY	Left	No	0.873371299938299	0	405279	252
793.62109375	0.873371299938299	taste	choicePhaseStart	2	103	43	foodImage.102	FOODEEG_Images\0910.jpg	NY	Left	No	0.873371299938299	0	406335	253
794.484375	0	taste	response	2	103	43	foodImage.102	FOODEEG_Images\0910.jpg	NY	Left	No	0.873371299938299	0	406777	234
795.52734375	1	decision	trialStart	2	104	44	foodImage.55	FOODEEG_Images\0567.jpg	NY	Left	No	0.803262799978256	0	407311	251
796.587890625	2	decision	foodImageDisplay	2	104	44	foodImage.55	FOODEEG_Images\0567.jpg	NY	Left	No	0.803262799978256	0	407854	252
798.650390625	0.803262799978256	decision	choicePhaseStart	2	104	44	foodImage.55	FOODEEG_Images\0567.jpg	NY	Left	No	0.803262799978256	0	408910	253
799.4453125	0	decision	response	2	104	44	foodImage.55	FOODEEG_Images\0567.jpg	NY	Left	No	0.803262799978256	0	409317	234
800.490234375	1	health	trialStart	2	105	45	foodImage.52	FOODEEG_Images\0539.jpg	NY	Right	Yes	0.736413499922492	0	409852	251
801.548828125	2	health	foodImageDisplay	2	105	45	foodImage.52	FOODEEG_Images\0539.jpg	NY	Right	Yes	0.736413499922492	0	410394	252
803.61328125	0.736413499922492	health	choicePhaseStart	2	105	45	foodImage.52	FOODEEG_Images\0539.jpg	NY	Right	Yes	0.736413499922492	0	411451	253
804.33984375	0	health	response	2	105	45	foodImage.52	FOODEEG_Images\0539.jpg	NY	Right	Yes	0.736413499922492	0	411823	235
805.384765625	1	health	trialStart	2	106	46	foodImage.50	FOODEEG_Images\0529.jpg	NY	Right	Yes	0.923585899989121	0	412358	251
806.443359375	2	health	foodImageDisplay	2	106	46	foodImage.50	FOODEEG_Images\0529.jpg	NY	Right	Yes	0.923585899989121	0	412900	252
808.505859375	0.923585899989121	health	choicePhaseStart	2	106	46	foodImage.50	FOODEEG_Images\0529.jpg	NY	Right	Yes	0.923585899989121	0	413956	253
809.419921875	0	health	response	2	106	46	foodImage.50	FOODEEG_Images\0529.jpg	NY	Right	Yes	0.923585899989121	0	414424	235
810.46484375	1	taste	trialStart	2	107	47	foodImage.57	FOODEEG_Images\0587.jpg	NY	Right	Yes	1.20577599992976	0	414959	251
811.505859375	2	taste	foodImageDisplay	2	107	47	foodImage.57	FOODEEG_Images\0587.jpg	NY	Right	Yes	1.20577599992976	0	415492	252
813.568359375	1.20577599992976	taste	choicePhaseStart	2	107	47	foodImage.57	FOODEEG_Images\0587.jpg	NY	Right	Yes	1.20577599992976	0	416548	253
814.763671875	0	taste	response	2	107	47	foodImage.57	FOODEEG_Images\0587.jpg	NY	Right	Yes	1.20577599992976	0	417160	235
815.80859375	1	decision	trialStart	2	108	48	foodImage.42	FOODEEG_Images\0438.jpg	YN	Left	Yes	1.26460279989988	0	417695	251
816.89453125	2	decision	foodImageDisplay	2	108	48	foodImage.42	FOODEEG_Images\0438.jpg	YN	Left	Yes	1.26460279989988	0	418251	252
818.95703125	1.26460279989988	decision	choicePhaseStart	2	108	48	foodImage.42	FOODEEG_Images\0438.jpg	YN	Left	Yes	1.26460279989988	0	419307	253
820.212890625	0	decision	response	2	108	48	foodImage.42	FOODEEG_Images\0438.jpg	YN	Left	Yes	1.26460279989988	0	419950	234
821.255859375	1	decision	trialStart	2	109	49	foodImage.35	FOODEEG_Images\0350.jpg	YN	Left	Yes	0.758120899903588	0	420484	251
822.294921875	2	decision	foodImageDisplay	2	109	49	foodImage.35	FOODEEG_Images\0350.jpg	YN	Left	Yes	0.758120899903588	0	421016	252
824.357421875	0.758120899903588	decision	choicePhaseStart	2	109	49	foodImage.35	FOODEEG_Images\0350.jpg	YN	Left	Yes	0.758120899903588	0	422072	253
825.107421875	0	decision	response	2	109	49	foodImage.35	FOODEEG_Images\0350.jpg	YN	Left	Yes	0.758120899903588	0	422456	234
826.150390625	1	taste	trialStart	2	110	50	foodImage.7	FOODEEG_Images\0116.jpg	NY	Left	No	0.928625899949111	0	422990	251
827.189453125	2	taste	foodImageDisplay	2	110	50	foodImage.7	FOODEEG_Images\0116.jpg	NY	Left	No	0.928625899949111	0	423522	252
829.251953125	0.928625899949111	taste	choicePhaseStart	2	110	50	foodImage.7	FOODEEG_Images\0116.jpg	NY	Left	No	0.928625899949111	0	424578	253
830.171875	0	taste	response	2	110	50	foodImage.7	FOODEEG_Images\0116.jpg	NY	Left	No	0.928625899949111	0	425049	234
831.21875	1	health	trialStart	2	111	51	foodImage.18	FOODEEG_Images\0202.jpg	NY	Right	Yes	1.23275980004109	0	425585	251
832.275390625	2	health	foodImageDisplay	2	111	51	foodImage.18	FOODEEG_Images\0202.jpg	NY	Right	Yes	1.23275980004109	0	426126	252
834.337890625	1.23275980004109	health	choicePhaseStart	2	111	51	foodImage.18	FOODEEG_Images\0202.jpg	NY	Right	Yes	1.23275980004109	0	427182	253
835.5625	0	health	response	2	111	51	foodImage.18	FOODEEG_Images\0202.jpg	NY	Right	Yes	1.23275980004109	0	427809	235
836.607421875	1	health	trialStart	2	112	52	foodImage.62	FOODEEG_Images\0644.jpg	NY	Right	Yes	1.08428920002189	0	428344	251
837.6640625	2	health	foodImageDisplay	2	112	52	foodImage.62	FOODEEG_Images\0644.jpg	NY	Right	Yes	1.08428920002189	0	428885	252
839.7265625	1.08428920002189	health	choicePhaseStart	2	112	52	foodImage.62	FOODEEG_Images\0644.jpg	NY	Right	Yes	1.08428920002189	0	429941	253
840.802734375	0	health	response	2	112	52	foodImage.62	FOODEEG_Images\0644.jpg	NY	Right	Yes	1.08428920002189	0	430492	235
841.84765625	1	taste	trialStart	2	113	53	foodImage.106	FOODEEG_Images\0914.jpg	NY	Right	Yes	0.783141299965791	0	431027	251
842.88671875	2	taste	foodImageDisplay	2	113	53	foodImage.106	FOODEEG_Images\0914.jpg	NY	Right	Yes	0.783141299965791	0	431559	252
844.94921875	0.783141299965791	taste	choicePhaseStart	2	113	53	foodImage.106	FOODEEG_Images\0914.jpg	NY	Right	Yes	0.783141299965791	0	432615	253
845.72265625	0	taste	response	2	113	53	foodImage.106	FOODEEG_Images\0914.jpg	NY	Right	Yes	0.783141299965791	0	433011	235
846.765625	1	taste	trialStart	2	114	54	foodImage.64	FOODEEG_Images\0647.jpg	NY	Right	Yes	0.72537400003057	0	433545	251
847.82421875	2	taste	foodImageDisplay	2	114	54	foodImage.64	FOODEEG_Images\0647.jpg	NY	Right	Yes	0.72537400003057	0	434087	252
849.88671875	0.72537400003057	taste	choicePhaseStart	2	114	54	foodImage.64	FOODEEG_Images\0647.jpg	NY	Right	Yes	0.72537400003057	0	435143	253
850.603515625	0	taste	response	2	114	54	foodImage.64	FOODEEG_Images\0647.jpg	NY	Right	Yes	0.72537400003057	0	435510	235
851.646484375	1	health	trialStart	2	115	55	foodImage.90	FOODEEG_Images\0890.jpg	YN	Right	No	1.10311579995323	0	436044	251
852.703125	2	health	foodImageDisplay	2	115	55	foodImage.90	FOODEEG_Images\0890.jpg	YN	Right	No	1.10311579995323	0	436585	252
854.765625	1.10311579995323	health	choicePhaseStart	2	115	55	foodImage.90	FOODEEG_Images\0890.jpg	YN	Right	No	1.10311579995323	0	437641	253
855.859375	0	health	response	2	115	55	foodImage.90	FOODEEG_Images\0890.jpg	YN	Right	No	1.10311579995323	0	438201	235
856.900390625	1	taste	trialStart	2	116	56	foodImage.40	FOODEEG_Images\0373.jpg	NY	Right	Yes	0.96789039997384	0	438734	251
857.94140625	2	taste	foodImageDisplay	2	116	56	foodImage.40	FOODEEG_Images\0373.jpg	NY	Right	Yes	0.96789039997384	0	439267	252
860.00390625	0.96789039997384	taste	choicePhaseStart	2	116	56	foodImage.40	FOODEEG_Images\0373.jpg	NY	Right	Yes	0.96789039997384	0	440323	253
860.962890625	0	taste	response	2	116	56	foodImage.40	FOODEEG_Images\0373.jpg	NY	Right	Yes	0.96789039997384	0	440814	235
862.005859375	1	decision	trialStart	2	117	57	foodImage.2	FOODEEG_Images\0028.jpg	NY	Right	Yes	0.910124100046232	0	441348	251
863.046875	2	decision	foodImageDisplay	2	117	57	foodImage.2	FOODEEG_Images\0028.jpg	NY	Right	Yes	0.910124100046232	0	441881	252
865.109375	0.910124100046232	decision	choicePhaseStart	2	117	57	foodImage.2	FOODEEG_Images\0028.jpg	NY	Right	Yes	0.910124100046232	0	442937	253
866.009765625	0	decision	response	2	117	57	foodImage.2	FOODEEG_Images\0028.jpg	NY	Right	Yes	0.910124100046232	0	443398	235
867.052734375	1	health	trialStart	2	118	58	foodImage.46	FOODEEG_Images\0479.jpg	YN	Left	Yes	1.2472795000067	0	443932	251
868.109375	2	health	foodImageDisplay	2	118	58	foodImage.46	FOODEEG_Images\0479.jpg	YN	Left	Yes	1.2472795000067	0	444473	252
870.171875	1.2472795000067	health	choicePhaseStart	2	118	58	foodImage.46	FOODEEG_Images\0479.jpg	YN	Left	Yes	1.2472795000067	0	445529	253
871.41015625	0	health	response	2	118	58	foodImage.46	FOODEEG_Images\0479.jpg	YN	Left	Yes	1.2472795000067	0	446163	234
872.453125	1	decision	trialStart	2	119	59	foodImage.117	FOODEEG_Images\0925.jpg	NY	Left	No	0.775272400001995	0	446697	251
873.4921875	2	decision	foodImageDisplay	2	119	59	foodImage.117	FOODEEG_Images\0925.jpg	NY	Left	No	0.775272400001995	0	447229	252
875.5546875	0.775272400001995	decision	choicePhaseStart	2	119	59	foodImage.117	FOODEEG_Images\0925.jpg	NY	Left	No	0.775272400001995	0	448285	253
876.322265625	0	decision	response	2	119	59	foodImage.117	FOODEEG_Images\0925.jpg	NY	Left	No	0.775272400001995	0	448678	234
877.36328125	1	taste	trialStart	2	120	60	foodImage.101	FOODEEG_Images\0909.jpg	YN	Right	No	0.78660710004624	0	449211	251
878.400390625	2	taste	foodImageDisplay	2	120	60	foodImage.101	FOODEEG_Images\0909.jpg	YN	Right	No	0.78660710004624	0	449742	252
880.462890625	0.78660710004624	taste	choicePhaseStart	2	120	60	foodImage.101	FOODEEG_Images\0909.jpg	YN	Right	No	0.78660710004624	0	450798	253
881.2421875	0	taste	response	2	120	60	foodImage.101	FOODEEG_Images\0909.jpg	YN	Right	No	0.78660710004624	0	451197	235
883.28125	14.6484375	n/a	blockEnd	n/a	n/a	n/a	n/a	n/a	n/a	n/a	n/a	n/a	n/a	452241	254
897.9296875	2	n/a	blockStart	3	n/a	n/a	n/a	n/a	n/a	n/a	n/a	n/a	n/a	459741	250
899.962890625	1	taste	trialStart	3	121	1	foodImage.67	FOODEEG_Images\0679.jpg	NY	Left	No	1.49375409993809	0	460782	251
901.021484375	2	taste	foodImageDisplay	3	121	1	foodImage.67	FOODEEG_Images\0679.jpg	NY	Left	No	1.49375409993809	0	461324	252
903.0859375	1.49375409993809	taste	choicePhaseStart	3	121	1	foodImage.67	FOODEEG_Images\0679.jpg	NY	Left	No	1.49375409993809	0	462381	253
904.576171875	0	taste	response	3	121	1	foodImage.67	FOODEEG_Images\0679.jpg	NY	Left	No	1.49375409993809	0	463144	234
905.619140625	1	taste	trialStart	3	122	2	foodImage.113	FOODEEG_Images\0921.jpg	NY	Left	No	0.662502399994992	0	463678	251
906.66015625	2	taste	foodImageDisplay	3	122	2	foodImage.113	FOODEEG_Images\0921.jpg	NY	Left	No	0.662502399994992	0	464211	252
908.72265625	0.662502399994992	taste	choicePhaseStart	3	122	2	foodImage.113	FOODEEG_Images\0921.jpg	NY	Left	No	0.662502399994992	0	465267	253
909.376953125	0	taste	response	3	122	2	foodImage.113	FOODEEG_Images\0921.jpg	NY	Left	No	0.662502399994992	0	465602	234
910.41796875	1	health	trialStart	3	123	3	foodImage.33	FOODEEG_Images\0329.jpg	YN	Left	Yes	0.824755200068466	0	466135	251
911.458984375	2	health	foodImageDisplay	3	123	3	foodImage.33	FOODEEG_Images\0329.jpg	YN	Left	Yes	0.824755200068466	0	466668	252
913.521484375	0.824755200068466	health	choicePhaseStart	3	123	3	foodImage.33	FOODEEG_Images\0329.jpg	YN	Left	Yes	0.824755200068466	0	467724	253
914.3359375	0	health	response	3	123	3	foodImage.33	FOODEEG_Images\0329.jpg	YN	Left	Yes	0.824755200068466	0	468141	234
915.37890625	1	decision	trialStart	3	124	4	foodImage.23	FOODEEG_Images\0244.jpg	NY	Left	No	1.19092640001327	0	468675	251
916.419921875	2	decision	foodImageDisplay	3	124	4	foodImage.23	FOODEEG_Images\0244.jpg	NY	Left	No	1.19092640001327	0	469208	252
918.482421875	1.19092640001327	decision	choicePhaseStart	3	124	4	foodImage.23	FOODEEG_Images\0244.jpg	NY	Left	No	1.19092640001327	0	470264	253
919.6640625	0	decision	response	3	124	4	foodImage.23	FOODEEG_Images\0244.jpg	NY	Left	No	1.19092640001327	0	470869	234
920.70703125	1	decision	trialStart	3	125	5	foodImage.76	FOODEEG_Images\0766.jpg	NY	Right	Yes	0.818906700005755	0	471403	251
921.75	2	decision	foodImageDisplay	3	125	5	foodImage.76	FOODEEG_Images\0766.jpg	NY	Right	Yes	0.818906700005755	0	471937	252
923.814453125	0.818906700005755	decision	choicePhaseStart	3	125	5	foodImage.76	FOODEEG_Images\0766.jpg	NY	Right	Yes	0.818906700005755	0	472994	253
924.623046875	0	decision	response	3	125	5	foodImage.76	FOODEEG_Images\0766.jpg	NY	Right	Yes	0.818906700005755	0	473408	235
925.666015625	1	health	trialStart	3	126	6	foodImage.56	FOODEEG_Images\0586.jpg	YN	Left	Yes	1.13341780006886	0	473942	251
926.708984375	2	health	foodImageDisplay	3	126	6	foodImage.56	FOODEEG_Images\0586.jpg	YN	Left	Yes	1.13341780006886	0	474476	252
928.771484375	1.13341780006886	health	choicePhaseStart	3	126	6	foodImage.56	FOODEEG_Images\0586.jpg	YN	Left	Yes	1.13341780006886	0	475532	253
929.896484375	0	health	response	3	126	6	foodImage.56	FOODEEG_Images\0586.jpg	YN	Left	Yes	1.13341780006886	0	476108	234
930.939453125	1	taste	trialStart	3	127	7	foodImage.36	FOODEEG_Images\0352.jpg	NY	Right	Yes	1.16517040005419	0	476642	251
931.998046875	2	taste	foodImageDisplay	3	127	7	foodImage.36	FOODEEG_Images\0352.jpg	NY	Right	Yes	1.16517040005419	0	477184	252
934.060546875	1.16517040005419	taste	choicePhaseStart	3	127	7	foodImage.36	FOODEEG_Images\0352.jpg	NY	Right	Yes	1.16517040005419	0	478240	253
935.21484375	0	taste	response	3	127	7	foodImage.36	FOODEEG_Images\0352.jpg	NY	Right	Yes	1.16517040005419	0	478831	235
936.2578125	1	taste	trialStart	3	128	8	foodImage.23	FOODEEG_Images\0244.jpg	YN	Right	No	1.08113910001703	0	479365	251
937.296875	2	taste	foodImageDisplay	3	128	8	foodImage.23	FOODEEG_Images\0244.jpg	YN	Right	No	1.08113910001703	0	479897	252
939.359375	1.08113910001703	taste	choicePhaseStart	3	128	8	foodImage.23	FOODEEG_Images\0244.jpg	YN	Right	No	1.08113910001703	0	480953	253
940.431640625	0	taste	response	3	128	8	foodImage.23	FOODEEG_Images\0244.jpg	YN	Right	No	1.08113910001703	0	481502	235
941.474609375	1	decision	trialStart	3	129	9	foodImage.119	FOODEEG_Images\0927.jpg	NY	Left	No	0.849111399962567	0	482036	251
942.51171875	2	decision	foodImageDisplay	3	129	9	foodImage.119	FOODEEG_Images\0927.jpg	NY	Left	No	0.849111399962567	0	482567	252
944.57421875	0.849111399962567	decision	choicePhaseStart	3	129	9	foodImage.119	FOODEEG_Images\0927.jpg	NY	Left	No	0.849111399962567	0	483623	253
945.4140625	0	decision	response	3	129	9	foodImage.119	FOODEEG_Images\0927.jpg	NY	Left	No	0.849111399962567	0	484053	234
946.458984375	1	taste	trialStart	3	130	10	foodImage.68	FOODEEG_Images\0685.jpg	NY	Right	Yes	2.06674939999357	0	484588	251
947.53515625	2	taste	foodImageDisplay	3	130	10	foodImage.68	FOODEEG_Images\0685.jpg	NY	Right	Yes	2.06674939999357	0	485139	252
949.59765625	2.06674939999357	taste	choicePhaseStart	3	130	10	foodImage.68	FOODEEG_Images\0685.jpg	NY	Right	Yes	2.06674939999357	0	486195	253
951.654296875	0	taste	response	3	130	10	foodImage.68	FOODEEG_Images\0685.jpg	NY	Right	Yes	2.06674939999357	0	487248	235
952.697265625	1	decision	trialStart	3	131	11	foodImage.15	FOODEEG_Images\0189.jpg	NY	Right	Yes	0.869232600089163	0	487782	251
953.779296875	2	decision	foodImageDisplay	3	131	11	foodImage.15	FOODEEG_Images\0189.jpg	NY	Right	Yes	0.869232600089163	0	488336	252
955.841796875	0.869232600089163	decision	choicePhaseStart	3	131	11	foodImage.15	FOODEEG_Images\0189.jpg	NY	Right	Yes	0.869232600089163	0	489392	253
956.703125	0	decision	response	3	131	11	foodImage.15	FOODEEG_Images\0189.jpg	NY	Right	Yes	0.869232600089163	0	489833	235
957.74609375	1	decision	trialStart	3	132	12	foodImage.104	FOODEEG_Images\0912.jpg	NY	Left	No	1.04748209996615	0	490367	251
958.78515625	2	decision	foodImageDisplay	3	132	12	foodImage.104	FOODEEG_Images\0912.jpg	NY	Left	No	1.04748209996615	0	490899	252
960.84765625	1.04748209996615	decision	choicePhaseStart	3	132	12	foodImage.104	FOODEEG_Images\0912.jpg	NY	Left	No	1.04748209996615	0	491955	253
961.88671875	0	decision	response	3	132	12	foodImage.104	FOODEEG_Images\0912.jpg	NY	Left	No	1.04748209996615	0	492487	234
962.9296875	1	health	trialStart	3	133	13	foodImage.25	FOODEEG_Images\0261.jpg	NY	Right	Yes	0.725180399953388	0	493021	251
963.970703125	2	health	foodImageDisplay	3	133	13	foodImage.25	FOODEEG_Images\0261.jpg	NY	Right	Yes	0.725180399953388	0	493554	252
966.033203125	0.725180399953388	health	choicePhaseStart	3	133	13	foodImage.25	FOODEEG_Images\0261.jpg	NY	Right	Yes	0.725180399953388	0	494610	253
966.75	0	health	response	3	133	13	foodImage.25	FOODEEG_Images\0261.jpg	NY	Right	Yes	0.725180399953388	0	494977	235
967.79296875	1	decision	trialStart	3	134	14	foodImage.40	FOODEEG_Images\0373.jpg	NY	Right	Yes	1.01405120000709	0	495511	251
968.833984375	2	decision	foodImageDisplay	3	134	14	foodImage.40	FOODEEG_Images\0373.jpg	NY	Right	Yes	1.01405120000709	0	496044	252
970.896484375	1.01405120000709	decision	choicePhaseStart	3	134	14	foodImage.40	FOODEEG_Images\0373.jpg	NY	Right	Yes	1.01405120000709	0	497100	253
971.90234375	0	decision	response	3	134	14	foodImage.40	FOODEEG_Images\0373.jpg	NY	Right	Yes	1.01405120000709	0	497615	235
972.9453125	1	decision	trialStart	3	135	15	foodImage.72	FOODEEG_Images\0714.jpg	YN	Left	Yes	1.17187299998477	0	498149	251
973.990234375	2	decision	foodImageDisplay	3	135	15	foodImage.72	FOODEEG_Images\0714.jpg	YN	Left	Yes	1.17187299998477	0	498684	252
976.052734375	1.17187299998477	decision	choicePhaseStart	3	135	15	foodImage.72	FOODEEG_Images\0714.jpg	YN	Left	Yes	1.17187299998477	0	499740	253
977.21484375	0	decision	response	3	135	15	foodImage.72	FOODEEG_Images\0714.jpg	YN	Left	Yes	1.17187299998477	0	500335	234
978.2578125	1	decision	trialStart	3	136	16	foodImage.96	FOODEEG_Images\0904.jpg	NY	Left	No	0.846253699972294	0	500869	251
979.296875	2	decision	foodImageDisplay	3	136	16	foodImage.96	FOODEEG_Images\0904.jpg	NY	Left	No	0.846253699972294	0	501401	252
981.359375	0.846253699972294	decision	choicePhaseStart	3	136	16	foodImage.96	FOODEEG_Images\0904.jpg	NY	Left	No	0.846253699972294	0	502457	253
982.197265625	0	decision	response	3	136	16	foodImage.96	FOODEEG_Images\0904.jpg	NY	Left	No	0.846253699972294	0	502886	234
983.240234375	1	taste	trialStart	3	137	17	foodImage.72	FOODEEG_Images\0714.jpg	YN	Left	Yes	0.669290699996054	0	503420	251
984.283203125	2	taste	foodImageDisplay	3	137	17	foodImage.72	FOODEEG_Images\0714.jpg	YN	Left	Yes	0.669290699996054	0	503954	252
986.345703125	0.669290699996054	taste	choicePhaseStart	3	137	17	foodImage.72	FOODEEG_Images\0714.jpg	YN	Left	Yes	0.669290699996054	0	505010	253
987.005859375	0	taste	response	3	137	17	foodImage.72	FOODEEG_Images\0714.jpg	YN	Left	Yes	0.669290699996054	0	505348	234
988.048828125	1	decision	trialStart	3	138	18	foodImage.114	FOODEEG_Images\0922.jpg	NY	Left	No	1.30528890003916	0	505882	251
989.087890625	2	decision	foodImageDisplay	3	138	18	foodImage.114	FOODEEG_Images\0922.jpg	NY	Left	No	1.30528890003916	0	506414	252
991.150390625	1.30528890003916	decision	choicePhaseStart	3	138	18	foodImage.114	FOODEEG_Images\0922.jpg	NY	Left	No	1.30528890003916	0	507470	253
992.4453125	0	decision	response	3	138	18	foodImage.114	FOODEEG_Images\0922.jpg	NY	Left	No	1.30528890003916	0	508133	234
993.48828125	1	health	trialStart	3	139	19	foodImage.106	FOODEEG_Images\0914.jpg	NY	Left	No	2.46394469996449	0	508667	251
994.525390625	2	health	foodImageDisplay	3	139	19	foodImage.106	FOODEEG_Images\0914.jpg	NY	Left	No	2.46394469996449	0	509198	252
996.58984375	2.46394469996449	health	choicePhaseStart	3	139	19	foodImage.106	FOODEEG_Images\0914.jpg	NY	Left	No	2.46394469996449	0	510255	253
999.044921875	0	health	response	3	139	19	foodImage.106	FOODEEG_Images\0914.jpg	NY	Left	No	2.46394469996449	0	511512	234
1000.08984375	1	taste	trialStart	3	140	20	foodImage.93	FOODEEG_Images\0901.jpg	NY	Left	No	1.3351440000115	0	512047	251
1001.12890625	2	taste	foodImageDisplay	3	140	20	foodImage.93	FOODEEG_Images\0901.jpg	NY	Left	No	1.3351440000115	0	512579	252
1003.19140625	1.3351440000115	taste	choicePhaseStart	3	140	20	foodImage.93	FOODEEG_Images\0901.jpg	NY	Left	No	1.3351440000115	0	513635	253
1004.517578125	0	taste	response	3	140	20	foodImage.93	FOODEEG_Images\0901.jpg	NY	Left	No	1.3351440000115	0	514314	234
1005.560546875	1	health	trialStart	3	141	21	foodImage.95	FOODEEG_Images\0903.jpg	YN	Right	No	0.717419199994765	0	514848	251
1006.599609375	2	health	foodImageDisplay	3	141	21	foodImage.95	FOODEEG_Images\0903.jpg	YN	Right	No	0.717419199994765	0	515380	252
1008.6640625	0.717419199994765	health	choicePhaseStart	3	141	21	foodImage.95	FOODEEG_Images\0903.jpg	YN	Right	No	0.717419199994765	0	516437	253
1009.373046875	0	health	response	3	141	21	foodImage.95	FOODEEG_Images\0903.jpg	YN	Right	No	0.717419199994765	0	516800	235
1010.41796875	1	decision	trialStart	3	142	22	foodImage.53	FOODEEG_Images\0547.jpg	YN	Right	No	0.53028990002349	0	517335	251
1011.4765625	2	decision	foodImageDisplay	3	142	22	foodImage.53	FOODEEG_Images\0547.jpg	YN	Right	No	0.53028990002349	0	517877	252
1013.5390625	0.53028990002349	decision	choicePhaseStart	3	142	22	foodImage.53	FOODEEG_Images\0547.jpg	YN	Right	No	0.53028990002349	0	518933	253
1014.060546875	0	decision	response	3	142	22	foodImage.53	FOODEEG_Images\0547.jpg	YN	Right	No	0.53028990002349	0	519200	235
1015.10546875	1	decision	trialStart	3	143	23	foodImage.12	FOODEEG_Images\0181.jpg	NY	Right	Yes	1.49132430006284	0	519735	251
1016.154296875	2	decision	foodImageDisplay	3	143	23	foodImage.12	FOODEEG_Images\0181.jpg	NY	Right	Yes	1.49132430006284	0	520272	252
1018.216796875	1.49132430006284	decision	choicePhaseStart	3	143	23	foodImage.12	FOODEEG_Images\0181.jpg	NY	Right	Yes	1.49132430006284	0	521328	253
1019.701171875	0	decision	response	3	143	23	foodImage.12	FOODEEG_Images\0181.jpg	NY	Right	Yes	1.49132430006284	0	522088	235
1020.7421875	1	health	trialStart	3	144	24	foodImage.114	FOODEEG_Images\0922.jpg	NY	Left	No	0.531596999964677	0	522621	251
1021.787109375	2	health	foodImageDisplay	3	144	24	foodImage.114	FOODEEG_Images\0922.jpg	NY	Left	No	0.531596999964677	0	523156	252
1023.849609375	0.531596999964677	health	choicePhaseStart	3	144	24	foodImage.114	FOODEEG_Images\0922.jpg	NY	Left	No	0.531596999964677	0	524212	253
1024.37109375	0	health	response	3	144	24	foodImage.114	FOODEEG_Images\0922.jpg	NY	Left	No	0.531596999964677	0	524479	234
1025.41796875	1	taste	trialStart	3	145	25	foodImage.61	FOODEEG_Images\0640.jpg	YN	Left	Yes	0.457142999977805	0	525015	251
1026.4609375	2	taste	foodImageDisplay	3	145	25	foodImage.61	FOODEEG_Images\0640.jpg	YN	Left	Yes	0.457142999977805	0	525549	252
1028.5234375	0.457142999977805	taste	choicePhaseStart	3	145	25	foodImage.61	FOODEEG_Images\0640.jpg	YN	Left	Yes	0.457142999977805	0	526605	253
1028.97265625	0	taste	response	3	145	25	foodImage.61	FOODEEG_Images\0640.jpg	YN	Left	Yes	0.457142999977805	0	526835	234
1030.015625	1	decision	trialStart	3	146	26	foodImage.3	FOODEEG_Images\0046.jpg	YN	Right	No	0.436371500021778	0	527369	251
1031.05859375	2	decision	foodImageDisplay	3	146	26	foodImage.3	FOODEEG_Images\0046.jpg	YN	Right	No	0.436371500021778	0	527903	252
1033.12109375	0.436371500021778	decision	choicePhaseStart	3	146	26	foodImage.3	FOODEEG_Images\0046.jpg	YN	Right	No	0.436371500021778	0	528959	253
1033.546875	0	decision	response	3	146	26	foodImage.3	FOODEEG_Images\0046.jpg	YN	Right	No	0.436371500021778	0	529177	235
1034.591796875	1	health	trialStart	3	147	27	foodImage.77	FOODEEG_Images\0771.jpg	YN	Left	Yes	0.92687940003816	0	529712	251
1035.63671875	2	health	foodImageDisplay	3	147	27	foodImage.77	FOODEEG_Images\0771.jpg	YN	Left	Yes	0.92687940003816	0	530247	252
1037.69921875	0.92687940003816	health	choicePhaseStart	3	147	27	foodImage.77	FOODEEG_Images\0771.jpg	YN	Left	Yes	0.92687940003816	0	531303	253
1038.619140625	0	health	response	3	147	27	foodImage.77	FOODEEG_Images\0771.jpg	YN	Left	Yes	0.92687940003816	0	531774	234
1039.666015625	1	decision	trialStart	3	148	28	foodImage.11	FOODEEG_Images\0180.jpg	NY	Right	Yes	0.48838130000513	0	532310	251
1040.708984375	2	decision	foodImageDisplay	3	148	28	foodImage.11	FOODEEG_Images\0180.jpg	NY	Right	Yes	0.48838130000513	0	532844	252
1042.771484375	0.48838130000513	decision	choicePhaseStart	3	148	28	foodImage.11	FOODEEG_Images\0180.jpg	NY	Right	Yes	0.48838130000513	0	533900	253
1043.251953125	0	decision	response	3	148	28	foodImage.11	FOODEEG_Images\0180.jpg	NY	Right	Yes	0.48838130000513	0	534146	235
1044.29296875	1	taste	trialStart	3	149	29	foodImage.4	FOODEEG_Images\0065.jpg	YN	Left	Yes	0.965656699961983	0	534679	251
1045.3515625	2	taste	foodImageDisplay	3	149	29	foodImage.4	FOODEEG_Images\0065.jpg	YN	Left	Yes	0.965656699961983	0	535221	252
1047.4140625	0.965656699961983	taste	choicePhaseStart	3	149	29	foodImage.4	FOODEEG_Images\0065.jpg	YN	Left	Yes	0.965656699961983	0	536277	253
1048.37109375	0	taste	response	3	149	29	foodImage.4	FOODEEG_Images\0065.jpg	YN	Left	Yes	0.965656699961983	0	536767	234
1049.41796875	1	decision	trialStart	3	150	30	foodImage.85	FOODEEG_Images\0841.jpg	NY	Right	Yes	1.47157580009662	0	537303	251
1050.4765625	2	decision	foodImageDisplay	3	150	30	foodImage.85	FOODEEG_Images\0841.jpg	NY	Right	Yes	1.47157580009662	0	537845	252
1052.5390625	1.47157580009662	decision	choicePhaseStart	3	150	30	foodImage.85	FOODEEG_Images\0841.jpg	NY	Right	Yes	1.47157580009662	0	538901	253
1054.001953125	0	decision	response	3	150	30	foodImage.85	FOODEEG_Images\0841.jpg	NY	Right	Yes	1.47157580009662	0	539650	235
1055.046875	1	taste	trialStart	3	151	31	foodImage.56	FOODEEG_Images\0586.jpg	NY	Right	Yes	0.452000500052236	0	540185	251
1056.109375	2	taste	foodImageDisplay	3	151	31	foodImage.56	FOODEEG_Images\0586.jpg	NY	Right	Yes	0.452000500052236	0	540729	252
1058.173828125	0.452000500052236	taste	choicePhaseStart	3	151	31	foodImage.56	FOODEEG_Images\0586.jpg	NY	Right	Yes	0.452000500052236	0	541786	253
1058.619140625	0	taste	response	3	151	31	foodImage.56	FOODEEG_Images\0586.jpg	NY	Right	Yes	0.452000500052236	0	542014	235
1059.6640625	1	taste	trialStart	3	152	32	foodImage.16	FOODEEG_Images\0196.jpg	NY	Right	Yes	0.589890600065701	0	542549	251
1060.734375	2	taste	foodImageDisplay	3	152	32	foodImage.16	FOODEEG_Images\0196.jpg	NY	Right	Yes	0.589890600065701	0	543097	252
1062.798828125	0.589890600065701	taste	choicePhaseStart	3	152	32	foodImage.16	FOODEEG_Images\0196.jpg	NY	Right	Yes	0.589890600065701	0	544154	253
1063.37890625	0	taste	response	3	152	32	foodImage.16	FOODEEG_Images\0196.jpg	NY	Right	Yes	0.589890600065701	0	544451	235
1064.4296875	1	health	trialStart	3	153	33	foodImage.19	FOODEEG_Images\0225.jpg	YN	Right	No	0.604198599932715	0	544989	251
1065.47265625	2	health	foodImageDisplay	3	153	33	foodImage.19	FOODEEG_Images\0225.jpg	YN	Right	No	0.604198599932715	0	545523	252
1067.53515625	0.604198599932715	health	choicePhaseStart	3	153	33	foodImage.19	FOODEEG_Images\0225.jpg	YN	Right	No	0.604198599932715	0	546579	253
1068.130859375	0	health	response	3	153	33	foodImage.19	FOODEEG_Images\0225.jpg	YN	Right	No	0.604198599932715	0	546884	235
1069.173828125	1	health	trialStart	3	154	34	foodImage.116	FOODEEG_Images\0924.jpg	YN	Right	No	0.500575100071728	0	547418	251
1070.216796875	2	health	foodImageDisplay	3	154	34	foodImage.116	FOODEEG_Images\0924.jpg	YN	Right	No	0.500575100071728	0	547952	252
1072.279296875	0.500575100071728	health	choicePhaseStart	3	154	34	foodImage.116	FOODEEG_Images\0924.jpg	YN	Right	No	0.500575100071728	0	549008	253
1072.76953125	0	health	response	3	154	34	foodImage.116	FOODEEG_Images\0924.jpg	YN	Right	No	0.500575100071728	0	549259	235
1073.8125	1	health	trialStart	3	155	35	foodImage.16	FOODEEG_Images\0196.jpg	NY	Right	Yes	0.595783600001596	0	549793	251
1074.873046875	2	health	foodImageDisplay	3	155	35	foodImage.16	FOODEEG_Images\0196.jpg	NY	Right	Yes	0.595783600001596	0	550336	252
1076.935546875	0.595783600001596	health	choicePhaseStart	3	155	35	foodImage.16	FOODEEG_Images\0196.jpg	NY	Right	Yes	0.595783600001596	0	551392	253
1077.521484375	0	health	response	3	155	35	foodImage.16	FOODEEG_Images\0196.jpg	NY	Right	Yes	0.595783600001596	0	551692	235
1078.564453125	1	decision	trialStart	3	156	36	foodImage.108	FOODEEG_Images\0916.jpg	NY	Left	No	0.70228510000743	0	552226	251
1079.60546875	2	decision	foodImageDisplay	3	156	36	foodImage.108	FOODEEG_Images\0916.jpg	NY	Left	No	0.70228510000743	0	552759	252
1081.66796875	0.70228510000743	decision	choicePhaseStart	3	156	36	foodImage.108	FOODEEG_Images\0916.jpg	NY	Left	No	0.70228510000743	0	553815	253
1082.361328125	0	decision	response	3	156	36	foodImage.108	FOODEEG_Images\0916.jpg	NY	Left	No	0.70228510000743	0	554170	234
1083.404296875	1	taste	trialStart	3	157	37	foodImage.110	FOODEEG_Images\0918.jpg	YN	Right	No	0.498544199974276	0	554704	251
1084.443359375	2	taste	foodImageDisplay	3	157	37	foodImage.110	FOODEEG_Images\0918.jpg	YN	Right	No	0.498544199974276	0	555236	252
1086.505859375	0.498544199974276	taste	choicePhaseStart	3	157	37	foodImage.110	FOODEEG_Images\0918.jpg	YN	Right	No	0.498544199974276	0	556292	253
1086.994140625	0	taste	response	3	157	37	foodImage.110	FOODEEG_Images\0918.jpg	YN	Right	No	0.498544199974276	0	556542	235
1088.037109375	1	taste	trialStart	3	158	38	foodImage.39	FOODEEG_Images\0367.jpg	NY	Right	Yes	0.792524100048468	0	557076	251
1089.07421875	2	taste	foodImageDisplay	3	158	38	foodImage.39	FOODEEG_Images\0367.jpg	NY	Right	Yes	0.792524100048468	0	557607	252
1091.13671875	0.792524100048468	taste	choicePhaseStart	3	158	38	foodImage.39	FOODEEG_Images\0367.jpg	NY	Right	Yes	0.792524100048468	0	558663	253
1091.921875	0	taste	response	3	158	38	foodImage.39	FOODEEG_Images\0367.jpg	NY	Right	Yes	0.792524100048468	0	559065	235
1092.962890625	1	taste	trialStart	3	159	39	foodImage.50	FOODEEG_Images\0529.jpg	YN	Right	No	0.92566710000392	0	559598	251
1094.021484375	2	taste	foodImageDisplay	3	159	39	foodImage.50	FOODEEG_Images\0529.jpg	YN	Right	No	0.92566710000392	0	560140	252
1096.083984375	0.92566710000392	taste	choicePhaseStart	3	159	39	foodImage.50	FOODEEG_Images\0529.jpg	YN	Right	No	0.92566710000392	0	561196	253
1097.001953125	0	taste	response	3	159	39	foodImage.50	FOODEEG_Images\0529.jpg	YN	Right	No	0.92566710000392	0	561666	235
1098.044921875	1	health	trialStart	3	160	40	foodImage.2	FOODEEG_Images\0028.jpg	YN	Right	No	0.956085600075312	0	562200	251
1099.087890625	2	health	foodImageDisplay	3	160	40	foodImage.2	FOODEEG_Images\0028.jpg	YN	Right	No	0.956085600075312	0	562734	252
1101.150390625	0.956085600075312	health	choicePhaseStart	3	160	40	foodImage.2	FOODEEG_Images\0028.jpg	YN	Right	No	0.956085600075312	0	563790	253
1102.09765625	0	health	response	3	160	40	foodImage.2	FOODEEG_Images\0028.jpg	YN	Right	No	0.956085600075312	0	564275	235
1103.140625	1	health	trialStart	3	161	41	foodImage.71	FOODEEG_Images\0713.jpg	YN	Right	No	1.07561599998735	0	564809	251
1104.18359375	2	health	foodImageDisplay	3	161	41	foodImage.71	FOODEEG_Images\0713.jpg	YN	Right	No	1.07561599998735	0	565343	252
1106.24609375	1.07561599998735	health	choicePhaseStart	3	161	41	foodImage.71	FOODEEG_Images\0713.jpg	YN	Right	No	1.07561599998735	0	566399	253
1107.3125	0	health	response	3	161	41	foodImage.71	FOODEEG_Images\0713.jpg	YN	Right	No	1.07561599998735	0	566945	235
1108.35546875	1	decision	trialStart	3	162	42	foodImage.57	FOODEEG_Images\0587.jpg	NY	Right	Yes	0.86629230005201	0	567479	251
1109.3984375	2	decision	foodImageDisplay	3	162	42	foodImage.57	FOODEEG_Images\0587.jpg	NY	Right	Yes	0.86629230005201	0	568013	252
1111.462890625	0.86629230005201	decision	choicePhaseStart	3	162	42	foodImage.57	FOODEEG_Images\0587.jpg	NY	Right	Yes	0.86629230005201	0	569070	253
1112.3203125	0	decision	response	3	162	42	foodImage.57	FOODEEG_Images\0587.jpg	NY	Right	Yes	0.86629230005201	0	569509	235
1113.36328125	1	decision	trialStart	3	163	43	foodImage.102	FOODEEG_Images\0910.jpg	NY	Left	No	0.462934300070629	0	570043	251
1114.40234375	2	decision	foodImageDisplay	3	163	43	foodImage.102	FOODEEG_Images\0910.jpg	NY	Left	No	0.462934300070629	0	570575	252
1116.466796875	0.462934300070629	decision	choicePhaseStart	3	163	43	foodImage.102	FOODEEG_Images\0910.jpg	NY	Left	No	0.462934300070629	0	571632	253
1116.919921875	0	decision	response	3	163	43	foodImage.102	FOODEEG_Images\0910.jpg	NY	Left	No	0.462934300070629	0	571864	234
1117.96484375	1	health	trialStart	3	164	44	foodImage.75	FOODEEG_Images\0763.jpg	NY	Right	Yes	0.497567599988542	0	572399	251
1119.009765625	2	health	foodImageDisplay	3	164	44	foodImage.75	FOODEEG_Images\0763.jpg	NY	Right	Yes	0.497567599988542	0	572934	252
1121.0703125	0.497567599988542	health	choicePhaseStart	3	164	44	foodImage.75	FOODEEG_Images\0763.jpg	NY	Right	Yes	0.497567599988542	0	573989	253
1121.560546875	0	health	response	3	164	44	foodImage.75	FOODEEG_Images\0763.jpg	NY	Right	Yes	0.497567599988542	0	574240	235
1122.603515625	1	health	trialStart	3	165	45	foodImage.60	FOODEEG_Images\0614.jpg	YN	Left	Yes	0.752044799970463	0	574774	251
1123.666015625	2	health	foodImageDisplay	3	165	45	foodImage.60	FOODEEG_Images\0614.jpg	YN	Left	Yes	0.752044799970463	0	575318	252
1125.728515625	0.752044799970463	health	choicePhaseStart	3	165	45	foodImage.60	FOODEEG_Images\0614.jpg	YN	Left	Yes	0.752044799970463	0	576374	253
1126.47265625	0	health	response	3	165	45	foodImage.60	FOODEEG_Images\0614.jpg	YN	Left	Yes	0.752044799970463	0	576755	234
1127.515625	1	decision	trialStart	3	166	46	foodImage.52	FOODEEG_Images\0539.jpg	YN	Left	Yes	0.693263199995272	0	577289	251
1128.572265625	2	decision	foodImageDisplay	3	166	46	foodImage.52	FOODEEG_Images\0539.jpg	YN	Left	Yes	0.693263199995272	0	577830	252
1130.634765625	0.693263199995272	decision	choicePhaseStart	3	166	46	foodImage.52	FOODEEG_Images\0539.jpg	YN	Left	Yes	0.693263199995272	0	578886	253
1131.3203125	0	decision	response	3	166	46	foodImage.52	FOODEEG_Images\0539.jpg	YN	Left	Yes	0.693263199995272	0	579237	234
1132.36328125	1	taste	trialStart	3	167	47	foodImage.107	FOODEEG_Images\0915.jpg	YN	Right	No	0.47287439997308	0	579771	251
1133.400390625	2	taste	foodImageDisplay	3	167	47	foodImage.107	FOODEEG_Images\0915.jpg	YN	Right	No	0.47287439997308	0	580302	252
1135.462890625	0.47287439997308	taste	choicePhaseStart	3	167	47	foodImage.107	FOODEEG_Images\0915.jpg	YN	Right	No	0.47287439997308	0	581358	253
1135.927734375	0	taste	response	3	167	47	foodImage.107	FOODEEG_Images\0915.jpg	YN	Right	No	0.47287439997308	0	581596	235
1136.970703125	1	taste	trialStart	3	168	48	foodImage.97	FOODEEG_Images\0905.jpg	YN	Right	No	0.429926100070588	0	582130	251
1138.009765625	2	taste	foodImageDisplay	3	168	48	foodImage.97	FOODEEG_Images\0905.jpg	YN	Right	No	0.429926100070588	0	582662	252
1140.07421875	0.429926100070588	taste	choicePhaseStart	3	168	48	foodImage.97	FOODEEG_Images\0905.jpg	YN	Right	No	0.429926100070588	0	583719	253
1140.494140625	0	taste	response	3	168	48	foodImage.97	FOODEEG_Images\0905.jpg	YN	Right	No	0.429926100070588	0	583934	235
1141.537109375	1	decision	trialStart	3	169	49	foodImage.74	FOODEEG_Images\0752.jpg	YN	Left	Yes	0.408744300017133	0	584468	251
1142.583984375	2	decision	foodImageDisplay	3	169	49	foodImage.74	FOODEEG_Images\0752.jpg	YN	Left	Yes	0.408744300017133	0	585004	252
1144.646484375	0.408744300017133	decision	choicePhaseStart	3	169	49	foodImage.74	FOODEEG_Images\0752.jpg	YN	Left	Yes	0.408744300017133	0	586060	253
1145.046875	0	decision	response	3	169	49	foodImage.74	FOODEEG_Images\0752.jpg	YN	Left	Yes	0.408744300017133	0	586265	234
1146.08984375	1	health	trialStart	3	170	50	foodImage.107	FOODEEG_Images\0915.jpg	YN	Right	No	0.366195400012657	0	586799	251
1147.12890625	2	health	foodImageDisplay	3	170	50	foodImage.107	FOODEEG_Images\0915.jpg	YN	Right	No	0.366195400012657	0	587331	252
1149.19140625	0.366195400012657	health	choicePhaseStart	3	170	50	foodImage.107	FOODEEG_Images\0915.jpg	YN	Right	No	0.366195400012657	0	588387	253
1149.55078125	0	health	response	3	170	50	foodImage.107	FOODEEG_Images\0915.jpg	YN	Right	No	0.366195400012657	0	588571	235
1150.59375	1	decision	trialStart	3	171	51	foodImage.18	FOODEEG_Images\0202.jpg	YN	Left	Yes	0.58984769997187	0	589105	251
1151.65234375	2	decision	foodImageDisplay	3	171	51	foodImage.18	FOODEEG_Images\0202.jpg	YN	Left	Yes	0.58984769997187	0	589647	252
1153.712890625	0.58984769997187	decision	choicePhaseStart	3	171	51	foodImage.18	FOODEEG_Images\0202.jpg	YN	Left	Yes	0.58984769997187	0	590702	253
1154.294921875	0	decision	response	3	171	51	foodImage.18	FOODEEG_Images\0202.jpg	YN	Left	Yes	0.58984769997187	0	591000	234
1155.337890625	1	taste	trialStart	3	172	52	foodImage.112	FOODEEG_Images\0920.jpg	YN	Right	No	0.485507799894549	0	591534	251
1156.37890625	2	taste	foodImageDisplay	3	172	52	foodImage.112	FOODEEG_Images\0920.jpg	YN	Right	No	0.485507799894549	0	592067	252
1158.44140625	0.485507799894549	taste	choicePhaseStart	3	172	52	foodImage.112	FOODEEG_Images\0920.jpg	YN	Right	No	0.485507799894549	0	593123	253
1158.91796875	0	taste	response	3	172	52	foodImage.112	FOODEEG_Images\0920.jpg	YN	Right	No	0.485507799894549	0	593367	235
1159.962890625	1	decision	trialStart	3	173	53	foodImage.105	FOODEEG_Images\0913.jpg	YN	Right	No	0.600111500010826	0	593902	251
1161	2	decision	foodImageDisplay	3	173	53	foodImage.105	FOODEEG_Images\0913.jpg	YN	Right	No	0.600111500010826	0	594433	252
1163.064453125	0.600111500010826	decision	choicePhaseStart	3	173	53	foodImage.105	FOODEEG_Images\0913.jpg	YN	Right	No	0.600111500010826	0	595490	253
1163.654296875	0	decision	response	3	173	53	foodImage.105	FOODEEG_Images\0913.jpg	YN	Right	No	0.600111500010826	0	595792	235
1164.697265625	1	decision	trialStart	3	174	54	foodImage.82	FOODEEG_Images\0805.jpg	YN	Right	No	0.526546700042672	0	596326	251
1165.751953125	2	decision	foodImageDisplay	3	174	54	foodImage.82	FOODEEG_Images\0805.jpg	YN	Right	No	0.526546700042672	0	596866	252
1167.814453125	0.526546700042672	decision	choicePhaseStart	3	174	54	foodImage.82	FOODEEG_Images\0805.jpg	YN	Right	No	0.526546700042672	0	597922	253
1168.333984375	0	decision	response	3	174	54	foodImage.82	FOODEEG_Images\0805.jpg	YN	Right	No	0.526546700042672	0	598188	235
1169.376953125	1	health	trialStart	3	175	55	foodImage.63	FOODEEG_Images\0645.jpg	YN	Left	Yes	0.40453780000098	0	598722	251
1170.419921875	2	health	foodImageDisplay	3	175	55	foodImage.63	FOODEEG_Images\0645.jpg	YN	Left	Yes	0.40453780000098	0	599256	252
1172.482421875	0.40453780000098	health	choicePhaseStart	3	175	55	foodImage.63	FOODEEG_Images\0645.jpg	YN	Left	Yes	0.40453780000098	0	600312	253
1172.876953125	0	health	response	3	175	55	foodImage.63	FOODEEG_Images\0645.jpg	YN	Left	Yes	0.40453780000098	0	600514	234
1173.919921875	1	taste	trialStart	3	176	56	foodImage.73	FOODEEG_Images\0717.jpg	YN	Left	Yes	0.788893299992196	0	601048	251
1174.98046875	2	taste	foodImageDisplay	3	176	56	foodImage.73	FOODEEG_Images\0717.jpg	YN	Left	Yes	0.788893299992196	0	601591	252
1177.04296875	0.788893299992196	taste	choicePhaseStart	3	176	56	foodImage.73	FOODEEG_Images\0717.jpg	YN	Left	Yes	0.788893299992196	0	602647	253
1177.822265625	0	taste	response	3	176	56	foodImage.73	FOODEEG_Images\0717.jpg	YN	Left	Yes	0.788893299992196	0	603046	234
1178.865234375	1	decision	trialStart	3	177	57	foodImage.60	FOODEEG_Images\0614.jpg	YN	Left	Yes	0.396862099994905	0	603580	251
1179.923828125	2	decision	foodImageDisplay	3	177	57	foodImage.60	FOODEEG_Images\0614.jpg	YN	Left	Yes	0.396862099994905	0	604122	252
1181.986328125	0.396862099994905	decision	choicePhaseStart	3	177	57	foodImage.60	FOODEEG_Images\0614.jpg	YN	Left	Yes	0.396862099994905	0	605178	253
1182.373046875	0	decision	response	3	177	57	foodImage.60	FOODEEG_Images\0614.jpg	YN	Left	Yes	0.396862099994905	0	605376	234
1183.41796875	1	taste	trialStart	3	178	58	foodImage.48	FOODEEG_Images\0494.jpg	YN	Left	Yes	1.03541450004559	0	605911	251
1184.458984375	2	taste	foodImageDisplay	3	178	58	foodImage.48	FOODEEG_Images\0494.jpg	YN	Left	Yes	1.03541450004559	0	606444	252
1186.521484375	1.03541450004559	taste	choicePhaseStart	3	178	58	foodImage.48	FOODEEG_Images\0494.jpg	YN	Left	Yes	1.03541450004559	0	607500	253
1187.548828125	0	taste	response	3	178	58	foodImage.48	FOODEEG_Images\0494.jpg	YN	Left	Yes	1.03541450004559	0	608026	234
1188.59375	1	health	trialStart	3	179	59	foodImage.27	FOODEEG_Images\0263.jpg	NY	Right	Yes	0.495223800069652	0	608561	251
1189.634765625	2	health	foodImageDisplay	3	179	59	foodImage.27	FOODEEG_Images\0263.jpg	NY	Right	Yes	0.495223800069652	0	609094	252
1191.6953125	0.495223800069652	health	choicePhaseStart	3	179	59	foodImage.27	FOODEEG_Images\0263.jpg	NY	Right	Yes	0.495223800069652	0	610149	253
1192.181640625	0	health	response	3	179	59	foodImage.27	FOODEEG_Images\0263.jpg	NY	Right	Yes	0.495223800069652	0	610398	235
1193.22265625	1	health	trialStart	3	180	60	foodImage.101	FOODEEG_Images\0909.jpg	NY	Left	No	0.404117000056431	0	610931	251
1194.259765625	2	health	foodImageDisplay	3	180	60	foodImage.101	FOODEEG_Images\0909.jpg	NY	Left	No	0.404117000056431	0	611462	252
1196.322265625	0.404117000056431	health	choicePhaseStart	3	180	60	foodImage.101	FOODEEG_Images\0909.jpg	NY	Left	No	0.404117000056431	0	612518	253
1196.716796875	0	health	response	3	180	60	foodImage.101	FOODEEG_Images\0909.jpg	NY	Left	No	0.404117000056431	0	612720	234
1198.76171875	18.74609375	n/a	blockEnd	n/a	n/a	n/a	n/a	n/a	n/a	n/a	n/a	n/a	n/a	613767	254
1217.5078125	2	n/a	blockStart	4	n/a	n/a	n/a	n/a	n/a	n/a	n/a	n/a	n/a	623365	250
1219.541015625	1	taste	trialStart	4	181	1	foodImage.17	FOODEEG_Images\0199.jpg	NY	Right	Yes	0.486848499975167	0	624406	251
1220.583984375	2	taste	foodImageDisplay	4	181	1	foodImage.17	FOODEEG_Images\0199.jpg	NY	Right	Yes	0.486848499975167	0	624940	252
1222.646484375	0.486848499975167	taste	choicePhaseStart	4	181	1	foodImage.17	FOODEEG_Images\0199.jpg	NY	Right	Yes	0.486848499975167	0	625996	253
1223.125	0	taste	response	4	181	1	foodImage.17	FOODEEG_Images\0199.jpg	NY	Right	Yes	0.486848499975167	0	626241	235
1224.16796875	1	decision	trialStart	4	182	2	foodImage.62	FOODEEG_Images\0644.jpg	YN	Right	No	1.02950059995055	0	626775	251
1225.2265625	2	decision	foodImageDisplay	4	182	2	foodImage.62	FOODEEG_Images\0644.jpg	YN	Right	No	1.02950059995055	0	627317	252
1227.287109375	1.02950059995055	decision	choicePhaseStart	4	182	2	foodImage.62	FOODEEG_Images\0644.jpg	YN	Right	No	1.02950059995055	0	628372	253
1228.30859375	0	decision	response	4	182	2	foodImage.62	FOODEEG_Images\0644.jpg	YN	Right	No	1.02950059995055	0	628895	235
1229.353515625	1	health	trialStart	4	183	3	foodImage.78	FOODEEG_Images\0787.jpg	NY	Right	Yes	0.646163400029764	0	629430	251
1230.416015625	2	health	foodImageDisplay	4	183	3	foodImage.78	FOODEEG_Images\0787.jpg	NY	Right	Yes	0.646163400029764	0	629974	252
1232.478515625	0.646163400029764	health	choicePhaseStart	4	183	3	foodImage.78	FOODEEG_Images\0787.jpg	NY	Right	Yes	0.646163400029764	0	631030	253
1233.115234375	0	health	response	4	183	3	foodImage.78	FOODEEG_Images\0787.jpg	NY	Right	Yes	0.646163400029764	0	631356	235
1234.158203125	1	decision	trialStart	4	184	4	foodImage.111	FOODEEG_Images\0919.jpg	NY	Left	No	0.441286999965087	0	631890	251
1235.197265625	2	decision	foodImageDisplay	4	184	4	foodImage.111	FOODEEG_Images\0919.jpg	NY	Left	No	0.441286999965087	0	632422	252
1237.259765625	0.441286999965087	decision	choicePhaseStart	4	184	4	foodImage.111	FOODEEG_Images\0919.jpg	NY	Left	No	0.441286999965087	0	633478	253
1237.69140625	0	decision	response	4	184	4	foodImage.111	FOODEEG_Images\0919.jpg	NY	Left	No	0.441286999965087	0	633699	234
1238.734375	1	decision	trialStart	4	185	5	foodImage.21	FOODEEG_Images\0234.jpg	NY	Right	Yes	0.699603100074455	0	634233	251
1239.79296875	2	decision	foodImageDisplay	4	185	5	foodImage.21	FOODEEG_Images\0234.jpg	NY	Right	Yes	0.699603100074455	0	634775	252
1241.857421875	0.699603100074455	decision	choicePhaseStart	4	185	5	foodImage.21	FOODEEG_Images\0234.jpg	NY	Right	Yes	0.699603100074455	0	635832	253
1242.546875	0	decision	response	4	185	5	foodImage.21	FOODEEG_Images\0234.jpg	NY	Right	Yes	0.699603100074455	0	636185	235
1243.591796875	1	taste	trialStart	4	186	6	foodImage.87	FOODEEG_Images\0873.jpg	YN	Right	No	0.942202300066128	0	636720	251
1244.6484375	2	taste	foodImageDisplay	4	186	6	foodImage.87	FOODEEG_Images\0873.jpg	YN	Right	No	0.942202300066128	0	637261	252
1246.7109375	0.942202300066128	taste	choicePhaseStart	4	186	6	foodImage.87	FOODEEG_Images\0873.jpg	YN	Right	No	0.942202300066128	0	638317	253
1247.642578125	0	taste	response	4	186	6	foodImage.87	FOODEEG_Images\0873.jpg	YN	Right	No	0.942202300066128	0	638794	235
1248.6875	1	decision	trialStart	4	187	7	foodImage.50	FOODEEG_Images\0529.jpg	YN	Left	Yes	0.709353500045836	0	639329	251
1249.7421875	2	decision	foodImageDisplay	4	187	7	foodImage.50	FOODEEG_Images\0529.jpg	YN	Left	Yes	0.709353500045836	0	639869	252
1251.806640625	0.709353500045836	decision	choicePhaseStart	4	187	7	foodImage.50	FOODEEG_Images\0529.jpg	YN	Left	Yes	0.709353500045836	0	640926	253
1252.5078125	0	decision	response	4	187	7	foodImage.50	FOODEEG_Images\0529.jpg	YN	Left	Yes	0.709353500045836	0	641285	234
1253.55078125	1	taste	trialStart	4	188	8	foodImage.98	FOODEEG_Images\0906.jpg	YN	Right	No	0.597610900062136	0	641819	251
1254.591796875	2	taste	foodImageDisplay	4	188	8	foodImage.98	FOODEEG_Images\0906.jpg	YN	Right	No	0.597610900062136	0	642352	252
1256.654296875	0.597610900062136	taste	choicePhaseStart	4	188	8	foodImage.98	FOODEEG_Images\0906.jpg	YN	Right	No	0.597610900062136	0	643408	253
1257.2421875	0	taste	response	4	188	8	foodImage.98	FOODEEG_Images\0906.jpg	YN	Right	No	0.597610900062136	0	643709	235
1258.287109375	1	decision	trialStart	4	189	9	foodImage.7	FOODEEG_Images\0116.jpg	YN	Left	Yes	0.72579689999111	0	644244	251
1259.326171875	2	decision	foodImageDisplay	4	189	9	foodImage.7	FOODEEG_Images\0116.jpg	YN	Left	Yes	0.72579689999111	0	644776	252
1261.388671875	0.72579689999111	decision	choicePhaseStart	4	189	9	foodImage.7	FOODEEG_Images\0116.jpg	YN	Left	Yes	0.72579689999111	0	645832	253
1262.107421875	0	decision	response	4	189	9	foodImage.7	FOODEEG_Images\0116.jpg	YN	Left	Yes	0.72579689999111	0	646200	234
1263.150390625	1	taste	trialStart	4	190	10	foodImage.9	FOODEEG_Images\0138.jpg	NY	Right	Yes	0.853207799955271	0	646734	251
1264.20703125	2	taste	foodImageDisplay	4	190	10	foodImage.9	FOODEEG_Images\0138.jpg	NY	Right	Yes	0.853207799955271	0	647275	252
1266.26953125	0.853207799955271	taste	choicePhaseStart	4	190	10	foodImage.9	FOODEEG_Images\0138.jpg	NY	Right	Yes	0.853207799955271	0	648331	253
1267.115234375	0	taste	response	4	190	10	foodImage.9	FOODEEG_Images\0138.jpg	NY	Right	Yes	0.853207799955271	0	648764	235
1268.162109375	1	decision	trialStart	4	191	11	foodImage.29	FOODEEG_Images\0278.jpg	YN	Right	No	1.2652294000145	0	649300	251
1269.203125	2	decision	foodImageDisplay	4	191	11	foodImage.29	FOODEEG_Images\0278.jpg	YN	Right	No	1.2652294000145	0	649833	252
1271.265625	1.2652294000145	decision	choicePhaseStart	4	191	11	foodImage.29	FOODEEG_Images\0278.jpg	YN	Right	No	1.2652294000145	0	650889	253
1272.521484375	0	decision	response	4	191	11	foodImage.29	FOODEEG_Images\0278.jpg	YN	Right	No	1.2652294000145	0	651532	235
1273.5703125	1	taste	trialStart	4	192	12	foodImage.92	FOODEEG_Images\0900.jpg	NY	Left	No	0.442329499986954	0	652069	251
1274.625	2	taste	foodImageDisplay	4	192	12	foodImage.92	FOODEEG_Images\0900.jpg	NY	Left	No	0.442329499986954	0	652609	252
1276.6875	0.442329499986954	taste	choicePhaseStart	4	192	12	foodImage.92	FOODEEG_Images\0900.jpg	NY	Left	No	0.442329499986954	0	653665	253
1277.12109375	0	taste	response	4	192	12	foodImage.92	FOODEEG_Images\0900.jpg	NY	Left	No	0.442329499986954	0	653887	234
1278.16796875	1	decision	trialStart	4	193	13	foodImage.77	FOODEEG_Images\0771.jpg	NY	Right	Yes	0.418016299954616	0	654423	251
1279.2109375	2	decision	foodImageDisplay	4	193	13	foodImage.77	FOODEEG_Images\0771.jpg	NY	Right	Yes	0.418016299954616	0	654957	252
1281.2734375	0.418016299954616	decision	choicePhaseStart	4	193	13	foodImage.77	FOODEEG_Images\0771.jpg	NY	Right	Yes	0.418016299954616	0	656013	253
1281.681640625	0	decision	response	4	193	13	foodImage.77	FOODEEG_Images\0771.jpg	NY	Right	Yes	0.418016299954616	0	656222	235
1282.7265625	1	decision	trialStart	4	194	14	foodImage.37	FOODEEG_Images\0359.jpg	NY	Left	No	0.450451700016856	0	656757	251
1283.76953125	2	decision	foodImageDisplay	4	194	14	foodImage.37	FOODEEG_Images\0359.jpg	NY	Left	No	0.450451700016856	0	657291	252
