onset	duration	trial_type	event_type	block	trial_total	trial_in_block	food_image_code	food_image_path	button_position	resp_position	resp_choice	choice_rt	resp_too_slow	sample	trigger
282.109375	2	n/a	blockStart	1	n/a	n/a	n/a	n/a	n/a	n/a	n/a	n/a	n/a	144441	250
284.14453125	1	taste	trialStart	1	1	1	foodImage.108	FOODEEG_Images\0916.jpg	NY	Left	No	0.946720900014043	0	145483	251
285.189453125	2	taste	foodImageDisplay	1	1	1	foodImage.108	FOODEEG_Images\0916.jpg	NY	Left	No	0.946720900014043	0	146018	252
287.2578125	0.946720900014043	taste	choicePhaseStart	1	1	1	foodImage.108	FOODEEG_Images\0916.jpg	NY	Left	No	0.946720900014043	0	147077	253
288.197265625	0	taste	response	1	1	1	foodImage.108	FOODEEG_Images\0916.jpg	NY	Left	No	0.946720900014043	0	147558	234
289.2890625	1	health	trialStart	1	2	2	foodImage.60	FOODEEG_Images\0614.jpg	NY	Right	Yes	0.847088899929076	0	148117	251
290.34765625	2	health	foodImageDisplay	1	2	2	foodImage.60	FOODEEG_Images\0614.jpg	NY	Right	Yes	0.847088899929076	0	148659	252
292.41015625	0.847088899929076	health	choicePhaseStart	1	2	2	foodImage.60	FOODEEG_Images\0614.jpg	NY	Right	Yes	0.847088899929076	0	149715	253
293.251953125	0	health	response	1	2	2	foodImage.60	FOODEEG_Images\0614.jpg	NY	Right	Yes	0.847088899929076	0	150146	235
294.310546875	1	decision	trialStart	1	3	3	foodImage.80	FOODEEG_Images\0796.jpg	YN	Right	No	0.582366100046784	0	150688	251
295.3671875	2	decision	foodImageDisplay	1	3	3	foodImage.80	FOODEEG_Images\0796.jpg	YN	Right	No	0.582366100046784	0	151229	252
297.4296875	0.582366100046784	decision	choicePhaseStart	1	3	3	foodImage.80	FOODEEG_Images\0796.jpg	YN	Right	No	0.582366100046784	0	152285	253
298.00390625	0	decision	response	1	3	3	foodImage.80	FOODEEG_Images\0796.jpg	YN	Right	No	0.582366100046784	0	152579	235
299.046875	1	health	trialStart	1	4	4	foodImage.110	FOODEEG_Images\0918.jpg	NY	Left	No	1.06730410002638	0	153113	251
300.08984375	2	health	foodImageDisplay	1	4	4	foodImage.110	FOODEEG_Images\0918.jpg	NY	Left	No	1.06730410002638	0	153647	252
302.154296875	1.06730410002638	health	choicePhaseStart	1	4	4	foodImage.110	FOODEEG_Images\0918.jpg	NY	Left	No	1.06730410002638	0	154704	253
303.212890625	0	health	response	1	4	4	foodImage.110	FOODEEG_Images\0918.jpg	NY	Left	No	1.06730410002638	0	155246	234
304.255859375	1	taste	trialStart	1	5	5	foodImage.11	FOODEEG_Images\0180.jpg	NY	Right	Yes	0.974384799948893	0	155780	251
305.30078125	2	taste	foodImageDisplay	1	5	5	foodImage.11	FOODEEG_Images\0180.jpg	NY	Right	Yes	0.974384799948893	0	156315	252
307.3671875	0.974384799948893	taste	choicePhaseStart	1	5	5	foodImage.11	FOODEEG_Images\0180.jpg	NY	Right	Yes	0.974384799948893	0	157373	253
308.33203125	0	taste	response	1	5	5	foodImage.11	FOODEEG_Images\0180.jpg	NY	Right	Yes	0.974384799948893	0	157867	235
309.3828125	1	decision	trialStart	1	6	6	foodImage.102	FOODEEG_Images\0910.jpg	NY	Left	No	1.01204699999653	0	158405	251
310.421875	2	decision	foodImageDisplay	1	6	6	foodImage.102	FOODEEG_Images\0910.jpg	NY	Left	No	1.01204699999653	0	158937	252
312.486328125	1.01204699999653	decision	choicePhaseStart	1	6	6	foodImage.102	FOODEEG_Images\0910.jpg	NY	Left	No	1.01204699999653	0	159994	253
313.4921875	0	decision	response	1	6	6	foodImage.102	FOODEEG_Images\0910.jpg	NY	Left	No	1.01204699999653	0	160509	234
314.537109375	1	taste	trialStart	1	7	7	foodImage.105	FOODEEG_Images\0913.jpg	YN	Right	No	1.63673169992398	0	161044	251
315.576171875	2	taste	foodImageDisplay	1	7	7	foodImage.105	FOODEEG_Images\0913.jpg	YN	Right	No	1.63673169992398	0	161576	252
317.638671875	1.63673169992398	taste	choicePhaseStart	1	7	7	foodImage.105	FOODEEG_Images\0913.jpg	YN	Right	No	1.63673169992398	0	162632	253
319.267578125	0	taste	response	1	7	7	foodImage.105	FOODEEG_Images\0913.jpg	YN	Right	No	1.63673169992398	0	163466	235
320.310546875	1	taste	trialStart	1	8	8	foodImage.37	FOODEEG_Images\0359.jpg	NY	Right	Yes	0.771941400016658	0	164000	251
321.3515625	2	taste	foodImageDisplay	1	8	8	foodImage.37	FOODEEG_Images\0359.jpg	NY	Right	Yes	0.771941400016658	0	164533	252
323.4140625	0.771941400016658	taste	choicePhaseStart	1	8	8	foodImage.37	FOODEEG_Images\0359.jpg	NY	Right	Yes	0.771941400016658	0	165589	253
324.1796875	0	taste	response	1	8	8	foodImage.37	FOODEEG_Images\0359.jpg	NY	Right	Yes	0.771941400016658	0	165981	235
325.220703125	1	health	trialStart	1	9	9	foodImage.26	FOODEEG_Images\0262.jpg	YN	Left	Yes	0.651524899993092	0	166514	251
326.26171875	2	health	foodImageDisplay	1	9	9	foodImage.26	FOODEEG_Images\0262.jpg	YN	Left	Yes	0.651524899993092	0	167047	252
328.328125	0.651524899993092	health	choicePhaseStart	1	9	9	foodImage.26	FOODEEG_Images\0262.jpg	YN	Left	Yes	0.651524899993092	0	168105	253
328.970703125	0	health	response	1	9	9	foodImage.26	FOODEEG_Images\0262.jpg	YN	Left	Yes	0.651524899993092	0	168434	234
330.013671875	1	health	trialStart	1	10	10	foodImage.7	FOODEEG_Images\0116.jpg	NY	Right	Yes	0.924093900015578	0	168968	251
331.056640625	2	health	foodImageDisplay	1	10	10	foodImage.7	FOODEEG_Images\0116.jpg	NY	Right	Yes	0.924093900015578	0	169502	252
333.119140625	0.924093900015578	health	choicePhaseStart	1	10	10	foodImage.7	FOODEEG_Images\0116.jpg	NY	Right	Yes	0.924093900015578	0	170558	253
334.03515625	0	health	response	1	10	10	foodImage.7	FOODEEG_Images\0116.jpg	NY	Right	Yes	0.924093900015578	0	171027	235
335.080078125	1	taste	trialStart	1	11	11	foodImage.29	FOODEEG_Images\0278.jpg	YN	Right	No	1.42466399993282	0	171562	251
336.12109375	2	taste	foodImageDisplay	1	11	11	foodImage.29	FOODEEG_Images\0278.jpg	YN	Right	No	1.42466399993282	0	172095	252
338.193359375	1.42466399993282	taste	choicePhaseStart	1	11	11	foodImage.29	FOODEEG_Images\0278.jpg	YN	Right	No	1.42466399993282	0	173156	253
339.609375	0	taste	response	1	11	11	foodImage.29	FOODEEG_Images\0278.jpg	YN	Right	No	1.42466399993282	0	173881	235
340.65234375	1	taste	trialStart	1	12	12	foodImage.14	FOODEEG_Images\0188.jpg	NY	Right	Yes	1.12520610005595	0	174415	251
341.708984375	2	taste	foodImageDisplay	1	12	12	foodImage.14	FOODEEG_Images\0188.jpg	NY	Right	Yes	1.12520610005595	0	174956	252
343.7734375	1.12520610005595	taste	choicePhaseStart	1	12	12	foodImage.14	FOODEEG_Images\0188.jpg	NY	Right	Yes	1.12520610005595	0	176013	253
344.890625	0	taste	response	1	12	12	foodImage.14	FOODEEG_Images\0188.jpg	NY	Right	Yes	1.12520610005595	0	176585	235
345.9296875	1	health	trialStart	1	13	13	foodImage.47	FOODEEG_Images\0488.jpg	YN	Right	No	1.19726289995015	0	177117	251
346.970703125	2	health	foodImageDisplay	1	13	13	foodImage.47	FOODEEG_Images\0488.jpg	YN	Right	No	1.19726289995015	0	177650	252
349.03515625	1.19726289995015	health	choicePhaseStart	1	13	13	foodImage.47	FOODEEG_Images\0488.jpg	YN	Right	No	1.19726289995015	0	178707	253
350.2265625	0	health	response	1	13	13	foodImage.47	FOODEEG_Images\0488.jpg	YN	Right	No	1.19726289995015	0	179317	235
351.265625	1	taste	trialStart	1	14	14	foodImage.117	FOODEEG_Images\0925.jpg	NY	Left	No	0.880462200031616	0	179849	251
352.302734375	2	taste	foodImageDisplay	1	14	14	foodImage.117	FOODEEG_Images\0925.jpg	NY	Left	No	0.880462200031616	0	180380	252
354.3671875	0.880462200031616	taste	choicePhaseStart	1	14	14	foodImage.117	FOODEEG_Images\0925.jpg	NY	Left	No	0.880462200031616	0	181437	253
355.2421875	0	taste	response	1	14	14	foodImage.117	FOODEEG_Images\0925.jpg	NY	Left	No	0.880462200031616	0	181885	234
356.283203125	1	health	trialStart	1	15	15	foodImage.1	FOODEEG_Images\0004.jpg	YN	Right	No	1.02050109999254	0	182418	251
357.326171875	2	health	foodImageDisplay	1	15	15	foodImage.1	FOODEEG_Images\0004.jpg	YN	Right	No	1.02050109999254	0	182952	252
359.388671875	1.02050109999254	health	choicePhaseStart	1	15	15	foodImage.1	FOODEEG_Images\0004.jpg	YN	Right	No	1.02050109999254	0	184008	253
360.40234375	0	health	response	1	15	15	foodImage.1	FOODEEG_Images\0004.jpg	YN	Right	No	1.02050109999254	0	184527	235
361.4453125	1	decision	trialStart	1	16	16	foodImage.117	FOODEEG_Images\0925.jpg	YN	Right	No	0.990661500021815	0	185061	251
362.484375	2	decision	foodImageDisplay	1	16	16	foodImage.117	FOODEEG_Images\0925.jpg	YN	Right	No	0.990661500021815	0	185593	252
364.548828125	0.990661500021815	decision	choicePhaseStart	1	16	16	foodImage.117	FOODEEG_Images\0925.jpg	YN	Right	No	0.990661500021815	0	186650	253
365.529296875	0	decision	response	1	16	16	foodImage.117	FOODEEG_Images\0925.jpg	YN	Right	No	0.990661500021815	0	187152	235
366.572265625	1	decision	trialStart	1	17	17	foodImage.91	FOODEEG_Images\0896.jpg	NY	Right	Yes	1.36625339998864	0	187686	251
367.626953125	2	decision	foodImageDisplay	1	17	17	foodImage.91	FOODEEG_Images\0896.jpg	NY	Right	Yes	1.36625339998864	0	188226	252
369.69140625	1.36625339998864	decision	choicePhaseStart	1	17	17	foodImage.91	FOODEEG_Images\0896.jpg	NY	Right	Yes	1.36625339998864	0	189283	253
371.048828125	0	decision	response	1	17	17	foodImage.91	FOODEEG_Images\0896.jpg	NY	Right	Yes	1.36625339998864	0	189978	235
372.091796875	1	health	trialStart	1	18	18	foodImage.94	FOODEEG_Images\0902.jpg	NY	Left	No	1.16912019997835	0	190512	251
373.130859375	2	health	foodImageDisplay	1	18	18	foodImage.94	FOODEEG_Images\0902.jpg	NY	Left	No	1.16912019997835	0	191044	252
375.193359375	1.16912019997835	health	choicePhaseStart	1	18	18	foodImage.94	FOODEEG_Images\0902.jpg	NY	Left	No	1.16912019997835	0	192100	253
376.353515625	0	health	response	1	18	18	foodImage.94	FOODEEG_Images\0902.jpg	NY	Left	No	1.16912019997835	0	192694	234
377.392578125	1	taste	trialStart	1	19	19	foodImage.95	FOODEEG_Images\0903.jpg	YN	Right	No	1.00897500000428	0	193226	251
378.43359375	2	taste	foodImageDisplay	1	19	19	foodImage.95	FOODEEG_Images\0903.jpg	YN	Right	No	1.00897500000428	0	193759	252
380.49609375	1.00897500000428	taste	choicePhaseStart	1	19	19	foodImage.95	FOODEEG_Images\0903.jpg	YN	Right	No	1.00897500000428	0	194815	253
381.49609375	0	taste	response	1	19	19	foodImage.95	FOODEEG_Images\0903.jpg	YN	Right	No	1.00897500000428	0	195327	235
382.5390625	1	taste	trialStart	1	20	20	foodImage.43	FOODEEG_Images\0445.jpg	NY	Left	No	1.3078361999942	0	195861	251
383.59765625	2	taste	foodImageDisplay	1	20	20	foodImage.43	FOODEEG_Images\0445.jpg	NY	Left	No	1.3078361999942	0	196403	252
385.662109375	1.3078361999942	taste	choicePhaseStart	1	20	20	foodImage.43	FOODEEG_Images\0445.jpg	NY	Left	No	1.3078361999942	0	197460	253
386.9609375	0	taste	response	1	20	20	foodImage.43	FOODEEG_Images\0445.jpg	NY	Left	No	1.3078361999942	0	198125	234
388.0078125	1	taste	trialStart	1	21	21	foodImage.78	FOODEEG_Images\0787.jpg	NY	Right	Yes	1.05853019992355	0	198661	251
389.052734375	2	taste	foodImageDisplay	1	21	21	foodImage.78	FOODEEG_Images\0787.jpg	NY	Right	Yes	1.05853019992355	0	199196	252
391.119140625	1.05853019992355	taste	choicePhaseStart	1	21	21	foodImage.78	FOODEEG_Images\0787.jpg	NY	Right	Yes	1.05853019992355	0	200254	253
392.16796875	0	taste	response	1	21	21	foodImage.78	FOODEEG_Images\0787.jpg	NY	Right	Yes	1.05853019992355	0	200791	235
393.2109375	1	taste	trialStart	1	22	22	foodImage.65	FOODEEG_Images\0658.jpg	NY	Right	Yes	0.833437100052834	0	201325	251
394.251953125	2	taste	foodImageDisplay	1	22	22	foodImage.65	FOODEEG_Images\0658.jpg	NY	Right	Yes	0.833437100052834	0	201858	252
396.3203125	0.833437100052834	taste	choicePhaseStart	1	22	22	foodImage.65	FOODEEG_Images\0658.jpg	NY	Right	Yes	0.833437100052834	0	202917	253
397.14453125	0	taste	response	1	22	22	foodImage.65	FOODEEG_Images\0658.jpg	NY	Right	Yes	0.833437100052834	0	203339	235
398.185546875	1	taste	trialStart	1	23	23	foodImage.62	FOODEEG_Images\0644.jpg	YN	Right	No	1.06669480004348	0	203872	251
399.24609375	2	taste	foodImageDisplay	1	23	23	foodImage.62	FOODEEG_Images\0644.jpg	YN	Right	No	1.06669480004348	0	204415	252
401.310546875	1.06669480004348	taste	choicePhaseStart	1	23	23	foodImage.62	FOODEEG_Images\0644.jpg	YN	Right	No	1.06669480004348	0	205472	253
402.3671875	0	taste	response	1	23	23	foodImage.62	FOODEEG_Images\0644.jpg	YN	Right	No	1.06669480004348	0	206013	235
403.408203125	1	taste	trialStart	1	24	24	foodImage.102	FOODEEG_Images\0910.jpg	NY	Left	No	0.947986599989235	0	206546	251
404.4453125	2	taste	foodImageDisplay	1	24	24	foodImage.102	FOODEEG_Images\0910.jpg	NY	Left	No	0.947986599989235	0	207077	252
406.509765625	0.947986599989235	taste	choicePhaseStart	1	24	24	foodImage.102	FOODEEG_Images\0910.jpg	NY	Left	No	0.947986599989235	0	208134	253
407.447265625	0	taste	response	1	24	24	foodImage.102	FOODEEG_Images\0910.jpg	NY	Left	No	0.947986599989235	0	208614	234
408.490234375	1	health	trialStart	1	25	25	foodImage.106	FOODEEG_Images\0914.jpg	YN	Right	No	1.38186389999464	0	209148	251
409.53125	2	health	foodImageDisplay	1	25	25	foodImage.106	FOODEEG_Images\0914.jpg	YN	Right	No	1.38186389999464	0	209681	252
411.595703125	1.38186389999464	health	choicePhaseStart	1	25	25	foodImage.106	FOODEEG_Images\0914.jpg	YN	Right	No	1.38186389999464	0	210738	253
412.966796875	0	health	response	1	25	25	foodImage.106	FOODEEG_Images\0914.jpg	YN	Right	No	1.38186389999464	0	211440	235
414.009765625	1	decision	trialStart	1	26	26	foodImage.2	FOODEEG_Images\0028.jpg	NY	Right	Yes	1.30847799999174	0	211974	251
415.05078125	2	decision	foodImageDisplay	1	26	26	foodImage.2	FOODEEG_Images\0028.jpg	NY	Right	Yes	1.30847799999174	0	212507	252
417.115234375	1.30847799999174	decision	choicePhaseStart	1	26	26	foodImage.2	FOODEEG_Images\0028.jpg	NY	Right	Yes	1.30847799999174	0	213564	253
418.416015625	0	decision	response	1	26	26	foodImage.2	FOODEEG_Images\0028.jpg	NY	Right	Yes	1.30847799999174	0	214230	235
419.45703125	1	taste	trialStart	1	27	27	foodImage.76	FOODEEG_Images\0766.jpg	YN	Left	Yes	0.762747399974614	0	214763	251
420.501953125	2	taste	foodImageDisplay	1	27	27	foodImage.76	FOODEEG_Images\0766.jpg	YN	Left	Yes	0.762747399974614	0	215298	252
422.56640625	0.762747399974614	taste	choicePhaseStart	1	27	27	foodImage.76	FOODEEG_Images\0766.jpg	YN	Left	Yes	0.762747399974614	0	216355	253
423.318359375	0	taste	response	1	27	27	foodImage.76	FOODEEG_Images\0766.jpg	YN	Left	Yes	0.762747399974614	0	216740	234
424.361328125	1	taste	trialStart	1	28	28	foodImage.8	FOODEEG_Images\0136.jpg	YN	Left	Yes	0.724253299995326	0	217274	251
425.404296875	2	taste	foodImageDisplay	1	28	28	foodImage.8	FOODEEG_Images\0136.jpg	YN	Left	Yes	0.724253299995326	0	217808	252
427.466796875	0.724253299995326	taste	choicePhaseStart	1	28	28	foodImage.8	FOODEEG_Images\0136.jpg	YN	Left	Yes	0.724253299995326	0	218864	253
428.18359375	0	taste	response	1	28	28	foodImage.8	FOODEEG_Images\0136.jpg	YN	Left	Yes	0.724253299995326	0	219231	234
429.22265625	1	taste	trialStart	1	29	29	foodImage.72	FOODEEG_Images\0714.jpg	NY	Left	No	1.13430929998867	0	219763	251
430.265625	2	taste	foodImageDisplay	1	29	29	foodImage.72	FOODEEG_Images\0714.jpg	NY	Left	No	1.13430929998867	0	220297	252
432.330078125	1.13430929998867	taste	choicePhaseStart	1	29	29	foodImage.72	FOODEEG_Images\0714.jpg	NY	Left	No	1.13430929998867	0	221354	253
433.455078125	0	taste	response	1	29	29	foodImage.72	FOODEEG_Images\0714.jpg	NY	Left	No	1.13430929998867	0	221930	234
434.49609375	1	decision	trialStart	1	30	30	foodImage.83	FOODEEG_Images\0827.jpg	NY	Left	No	1.33193670003675	0	222463	251
435.556640625	2	decision	foodImageDisplay	1	30	30	foodImage.83	FOODEEG_Images\0827.jpg	NY	Left	No	1.33193670003675	0	223006	252
437.619140625	1.33193670003675	decision	choicePhaseStart	1	30	30	foodImage.83	FOODEEG_Images\0827.jpg	NY	Left	No	1.33193670003675	0	224062	253
438.943359375	0	decision	response	1	30	30	foodImage.83	FOODEEG_Images\0827.jpg	NY	Left	No	1.33193670003675	0	224740	234
439.984375	1	decision	trialStart	1	31	31	foodImage.39	FOODEEG_Images\0367.jpg	YN	Left	Yes	1.08986059995368	0	225273	251
441.0390625	2	decision	foodImageDisplay	1	31	31	foodImage.39	FOODEEG_Images\0367.jpg	YN	Left	Yes	1.08986059995368	0	225813	252
443.1015625	1.08986059995368	decision	choicePhaseStart	1	31	31	foodImage.39	FOODEEG_Images\0367.jpg	YN	Left	Yes	1.08986059995368	0	226869	253
444.181640625	0	decision	response	1	31	31	foodImage.39	FOODEEG_Images\0367.jpg	YN	Left	Yes	1.08986059995368	0	227422	234
445.224609375	1	health	trialStart	1	32	32	foodImage.16	FOODEEG_Images\0196.jpg	NY	Right	Yes	0.711168200010434	0	227956	251
446.28125	2	health	foodImageDisplay	1	32	32	foodImage.16	FOODEEG_Images\0196.jpg	NY	Right	Yes	0.711168200010434	0	228497	252
448.34375	0.711168200010434	health	choicePhaseStart	1	32	32	foodImage.16	FOODEEG_Images\0196.jpg	NY	Right	Yes	0.711168200010434	0	229553	253
449.046875	0	health	response	1	32	32	foodImage.16	FOODEEG_Images\0196.jpg	NY	Right	Yes	0.711168200010434	0	229913	235
450.087890625	1	health	trialStart	1	33	33	foodImage.19	FOODEEG_Images\0225.jpg	NY	Right	Yes	1.00927080004476	0	230446	251
451.1328125	2	health	foodImageDisplay	1	33	33	foodImage.19	FOODEEG_Images\0225.jpg	NY	Right	Yes	1.00927080004476	0	230981	252
453.1953125	1.00927080004476	health	choicePhaseStart	1	33	33	foodImage.19	FOODEEG_Images\0225.jpg	NY	Right	Yes	1.00927080004476	0	232037	253
454.197265625	0	health	response	1	33	33	foodImage.19	FOODEEG_Images\0225.jpg	NY	Right	Yes	1.00927080004476	0	232550	235
455.240234375	1	decision	trialStart	1	34	34	foodImage.103	FOODEEG_Images\0911.jpg	YN	Left	Yes	2.32080630003475	0	233084	251
456.27734375	2	decision	foodImageDisplay	1	34	34	foodImage.103	FOODEEG_Images\0911.jpg	YN	Left	Yes	2.32080630003475	0	233615	252
458.341796875	2.32080630003475	decision	choicePhaseStart	1	34	34	foodImage.103	FOODEEG_Images\0911.jpg	YN	Left	Yes	2.32080630003475	0	234672	253
460.654296875	0	decision	response	1	34	34	foodImage.103	FOODEEG_Images\0911.jpg	YN	Left	Yes	2.32080630003475	0	235856	234
461.7109375	1	taste	trialStart	1	35	35	foodImage.55	FOODEEG_Images\0567.jpg	NY	Left	No	1.07633890002035	0	236397	251
462.76953125	2	taste	foodImageDisplay	1	35	35	foodImage.55	FOODEEG_Images\0567.jpg	NY	Left	No	1.07633890002035	0	236939	252
464.833984375	1.07633890002035	taste	choicePhaseStart	1	35	35	foodImage.55	FOODEEG_Images\0567.jpg	NY	Left	No	1.07633890002035	0	237996	253
465.900390625	0	taste	response	1	35	35	foodImage.55	FOODEEG_Images\0567.jpg	NY	Left	No	1.07633890002035	0	238542	234
466.94140625	1	taste	trialStart	1	36	36	foodImage.48	FOODEEG_Images\0494.jpg	NY	Right	Yes	0.881640400039032	0	239075	251
467.98046875	2	taste	foodImageDisplay	1	36	36	foodImage.48	FOODEEG_Images\0494.jpg	NY	Right	Yes	0.881640400039032	0	239607	252
470.044921875	0.881640400039032	taste	choicePhaseStart	1	36	36	foodImage.48	FOODEEG_Images\0494.jpg	NY	Right	Yes	0.881640400039032	0	240664	253
470.91796875	0	taste	response	1	36	36	foodImage.48	FOODEEG_Images\0494.jpg	NY	Right	Yes	0.881640400039032	0	241111	235
471.96875	1	decision	trialStart	1	37	37	foodImage.61	FOODEEG_Images\0640.jpg	NY	Right	Yes	2.55767000000924	0	241649	251
473.009765625	2	decision	foodImageDisplay	1	37	37	foodImage.61	FOODEEG_Images\0640.jpg	NY	Right	Yes	2.55767000000924	0	242182	252
475.072265625	2.55767000000924	decision	choicePhaseStart	1	37	37	foodImage.61	FOODEEG_Images\0640.jpg	NY	Right	Yes	2.55767000000924	0	243238	253
477.62109375	0	decision	response	1	37	37	foodImage.61	FOODEEG_Images\0640.jpg	NY	Right	Yes	2.55767000000924	0	244543	235
478.662109375	1	health	trialStart	1	38	38	foodImage.18	FOODEEG_Images\0202.jpg	NY	Right	Yes	1.1773291999707	0	245076	251
479.71875	2	health	foodImageDisplay	1	38	38	foodImage.18	FOODEEG_Images\0202.jpg	NY	Right	Yes	1.1773291999707	0	245617	252
481.78125	1.1773291999707	health	choicePhaseStart	1	38	38	foodImage.18	FOODEEG_Images\0202.jpg	NY	Right	Yes	1.1773291999707	0	246673	253
482.94921875	0	health	response	1	38	38	foodImage.18	FOODEEG_Images\0202.jpg	NY	Right	Yes	1.1773291999707	0	247271	235
483.9921875	1	health	trialStart	1	39	39	foodImage.112	FOODEEG_Images\0920.jpg	NY	Right	Yes	2.03720809996594	0	247805	251
485.033203125	2	health	foodImageDisplay	1	39	39	foodImage.112	FOODEEG_Images\0920.jpg	NY	Right	Yes	2.03720809996594	0	248338	252
487.095703125	2.03720809996594	health	choicePhaseStart	1	39	39	foodImage.112	FOODEEG_Images\0920.jpg	NY	Right	Yes	2.03720809996594	0	249394	253
489.125	0	health	response	1	39	39	foodImage.112	FOODEEG_Images\0920.jpg	NY	Right	Yes	2.03720809996594	0	250433	235
490.166015625	1	taste	trialStart	1	40	40	foodImage.69	FOODEEG_Images\0693.jpg	NY	Left	No	1.04863940004725	0	250966	251
491.208984375	2	taste	foodImageDisplay	1	40	40	foodImage.69	FOODEEG_Images\0693.jpg	NY	Left	No	1.04863940004725	0	251500	252
493.27734375	1.04863940004725	taste	choicePhaseStart	1	40	40	foodImage.69	FOODEEG_Images\0693.jpg	NY	Left	No	1.04863940004725	0	252559	253
494.31640625	0	taste	response	1	40	40	foodImage.69	FOODEEG_Images\0693.jpg	NY	Left	No	1.04863940004725	0	253091	234
495.359375	1	decision	trialStart	1	41	41	foodImage.28	FOODEEG_Images\0273.jpg	YN	Right	No	1.91507950006053	0	253625	251
496.40234375	2	decision	foodImageDisplay	1	41	41	foodImage.28	FOODEEG_Images\0273.jpg	YN	Right	No	1.91507950006053	0	254159	252
498.466796875	1.91507950006053	decision	choicePhaseStart	1	41	41	foodImage.28	FOODEEG_Images\0273.jpg	YN	Right	No	1.91507950006053	0	255216	253
500.37109375	0	decision	response	1	41	41	foodImage.28	FOODEEG_Images\0273.jpg	YN	Right	No	1.91507950006053	0	256191	235
501.4140625	1	decision	trialStart	1	42	42	foodImage.23	FOODEEG_Images\0244.jpg	YN	Left	Yes	1.71036500006448	0	256725	251
502.455078125	2	decision	foodImageDisplay	1	42	42	foodImage.23	FOODEEG_Images\0244.jpg	YN	Left	Yes	1.71036500006448	0	257258	252
504.51953125	1.71036500006448	decision	choicePhaseStart	1	42	42	foodImage.23	FOODEEG_Images\0244.jpg	YN	Left	Yes	1.71036500006448	0	258315	253
506.21875	0	decision	response	1	42	42	foodImage.23	FOODEEG_Images\0244.jpg	YN	Left	Yes	1.71036500006448	0	259185	234
507.26171875	1	decision	trialStart	1	43	43	foodImage.10	FOODEEG_Images\0145.jpg	NY	Right	Yes	0.901475899969228	0	259719	251
508.3203125	2	decision	foodImageDisplay	1	43	43	foodImage.10	FOODEEG_Images\0145.jpg	NY	Right	Yes	0.901475899969228	0	260261	252
510.3828125	0.901475899969228	decision	choicePhaseStart	1	43	43	foodImage.10	FOODEEG_Images\0145.jpg	NY	Right	Yes	0.901475899969228	0	261317	253
511.275390625	0	decision	response	1	43	43	foodImage.10	FOODEEG_Images\0145.jpg	NY	Right	Yes	0.901475899969228	0	261774	235
512.32421875	1	decision	trialStart	1	44	44	foodImage.13	FOODEEG_Images\0183.jpg	YN	Left	Yes	1.05384369997773	0	262311	251
513.365234375	2	decision	foodImageDisplay	1	44	44	foodImage.13	FOODEEG_Images\0183.jpg	YN	Left	Yes	1.05384369997773	0	262844	252
515.427734375	1.05384369997773	decision	choicePhaseStart	1	44	44	foodImage.13	FOODEEG_Images\0183.jpg	YN	Left	Yes	1.05384369997773	0	263900	253
516.474609375	0	decision	response	1	44	44	foodImage.13	FOODEEG_Images\0183.jpg	YN	Left	Yes	1.05384369997773	0	264436	234
517.515625	1	taste	trialStart	1	45	45	foodImage.68	FOODEEG_Images\0685.jpg	YN	Left	Yes	0.870305299991742	0	264969	251
518.591796875	2	taste	foodImageDisplay	1	45	45	foodImage.68	FOODEEG_Images\0685.jpg	YN	Left	Yes	0.870305299991742	0	265520	252
520.654296875	0.870305299991742	taste	choicePhaseStart	1	45	45	foodImage.68	FOODEEG_Images\0685.jpg	YN	Left	Yes	0.870305299991742	0	266576	253
521.515625	0	taste	response	1	45	45	foodImage.68	FOODEEG_Images\0685.jpg	YN	Left	Yes	0.870305299991742	0	267017	234
522.556640625	1	taste	trialStart	1	46	46	foodImage.1	FOODEEG_Images\0004.jpg	NY	Right	Yes	0.998552899924107	0	267550	251
523.599609375	2	taste	foodImageDisplay	1	46	46	foodImage.1	FOODEEG_Images\0004.jpg	NY	Right	Yes	0.998552899924107	0	268084	252
525.662109375	0.998552899924107	taste	choicePhaseStart	1	46	46	foodImage.1	FOODEEG_Images\0004.jpg	NY	Right	Yes	0.998552899924107	0	269140	253
526.650390625	0	taste	response	1	46	46	foodImage.1	FOODEEG_Images\0004.jpg	NY	Right	Yes	0.998552899924107	0	269646	235
527.69140625	1	decision	trialStart	1	47	47	foodImage.95	FOODEEG_Images\0903.jpg	YN	Right	No	1.36265860009007	0	270179	251
528.73046875	2	decision	foodImageDisplay	1	47	47	foodImage.95	FOODEEG_Images\0903.jpg	YN	Right	No	1.36265860009007	0	270711	252
530.79296875	1.36265860009007	decision	choicePhaseStart	1	47	47	foodImage.95	FOODEEG_Images\0903.jpg	YN	Right	No	1.36265860009007	0	271767	253
532.146484375	0	decision	response	1	47	47	foodImage.95	FOODEEG_Images\0903.jpg	YN	Right	No	1.36265860009007	0	272460	235
533.189453125	1	taste	trialStart	1	48	48	foodImage.82	FOODEEG_Images\0805.jpg	NY	Left	No	1.08325310004875	0	272994	251
534.2421875	2	taste	foodImageDisplay	1	48	48	foodImage.82	FOODEEG_Images\0805.jpg	NY	Left	No	1.08325310004875	0	273533	252
536.3046875	1.08325310004875	taste	choicePhaseStart	1	48	48	foodImage.82	FOODEEG_Images\0805.jpg	NY	Left	No	1.08325310004875	0	274589	253
537.37890625	0	taste	response	1	48	48	foodImage.82	FOODEEG_Images\0805.jpg	NY	Left	No	1.08325310004875	0	275139	234
538.421875	1	decision	trialStart	1	49	49	foodImage.21	FOODEEG_Images\0234.jpg	NY	Right	Yes	0.80366559990216	0	275673	251
539.48046875	2	decision	foodImageDisplay	1	49	49	foodImage.21	FOODEEG_Images\0234.jpg	NY	Right	Yes	0.80366559990216	0	276215	252
541.544921875	0.80366559990216	decision	choicePhaseStart	1	49	49	foodImage.21	FOODEEG_Images\0234.jpg	NY	Right	Yes	0.80366559990216	0	277272	253
542.337890625	0	decision	response	1	49	49	foodImage.21	FOODEEG_Images\0234.jpg	NY	Right	Yes	0.80366559990216	0	277678	235
543.380859375	1	health	trialStart	1	50	50	foodImage.91	FOODEEG_Images\0896.jpg	YN	Right	No	2.38895239995327	0	278212	251
544.439453125	2	health	foodImageDisplay	1	50	50	foodImage.91	FOODEEG_Images\0896.jpg	YN	Right	No	2.38895239995327	0	278754	252
546.501953125	2.38895239995327	health	choicePhaseStart	1	50	50	foodImage.91	FOODEEG_Images\0896.jpg	YN	Right	No	2.38895239995327	0	279810	253
548.8828125	0	health	response	1	50	50	foodImage.91	FOODEEG_Images\0896.jpg	YN	Right	No	2.38895239995327	0	281029	235
549.923828125	1	decision	trialStart	1	51	51	foodImage.98	FOODEEG_Images\0906.jpg	YN	Right	No	1.72235029994044	0	281562	251
550.9609375	2	decision	foodImageDisplay	1	51	51	foodImage.98	FOODEEG_Images\0906.jpg	YN	Right	No	1.72235029994044	0	282093	252
553.025390625	1.72235029994044	decision	choicePhaseStart	1	51	51	foodImage.98	FOODEEG_Images\0906.jpg	YN	Right	No	1.72235029994044	0	283150	253
554.73828125	0	decision	response	1	51	51	foodImage.98	FOODEEG_Images\0906.jpg	YN	Right	No	1.72235029994044	0	284027	235
555.779296875	1	health	trialStart	1	52	52	foodImage.11	FOODEEG_Images\0180.jpg	NY	Right	Yes	2.35638969996944	0	284560	251
556.822265625	2	health	foodImageDisplay	1	52	52	foodImage.11	FOODEEG_Images\0180.jpg	NY	Right	Yes	2.35638969996944	0	285094	252
558.88671875	2.35638969996944	health	choicePhaseStart	1	52	52	foodImage.11	FOODEEG_Images\0180.jpg	NY	Right	Yes	2.35638969996944	0	286151	253
561.234375	0	health	response	1	52	52	foodImage.11	FOODEEG_Images\0180.jpg	NY	Right	Yes	2.35638969996944	0	287353	235
562.27734375	1	decision	trialStart	1	53	53	foodImage.118	FOODEEG_Images\0926.jpg	YN	Right	No	0.983518799999729	0	287887	251
563.31640625	2	decision	foodImageDisplay	1	53	53	foodImage.118	FOODEEG_Images\0926.jpg	YN	Right	No	0.983518799999729	0	288419	252
565.37890625	0.983518799999729	decision	choicePhaseStart	1	53	53	foodImage.118	FOODEEG_Images\0926.jpg	YN	Right	No	0.983518799999729	0	289475	253
566.353515625	0	decision	response	1	53	53	foodImage.118	FOODEEG_Images\0926.jpg	YN	Right	No	0.983518799999729	0	289974	235
567.396484375	1	health	trialStart	1	54	54	foodImage.87	FOODEEG_Images\0873.jpg	YN	Left	Yes	1.51489720004611	0	290508	251
568.455078125	2	health	foodImageDisplay	1	54	54	foodImage.87	FOODEEG_Images\0873.jpg	YN	Left	Yes	1.51489720004611	0	291050	252
570.51953125	1.51489720004611	health	choicePhaseStart	1	54	54	foodImage.87	FOODEEG_Images\0873.jpg	YN	Left	Yes	1.51489720004611	0	292107	253
572.025390625	0	health	response	1	54	54	foodImage.87	FOODEEG_Images\0873.jpg	YN	Left	Yes	1.51489720004611	0	292878	234
573.06640625	1	health	trialStart	1	55	55	foodImage.69	FOODEEG_Images\0693.jpg	YN	Left	Yes	2.60216570005286	0	293411	251
574.109375	2	health	foodImageDisplay	1	55	55	foodImage.69	FOODEEG_Images\0693.jpg	YN	Left	Yes	2.60216570005286	0	293945	252
576.171875	2.60216570005286	health	choicePhaseStart	1	55	55	foodImage.69	FOODEEG_Images\0693.jpg	YN	Left	Yes	2.60216570005286	0	295001	253
578.76953125	0	health	response	1	55	55	foodImage.69	FOODEEG_Images\0693.jpg	YN	Left	Yes	2.60216570005286	0	296331	234
579.810546875	1	health	trialStart	1	56	56	foodImage.111	FOODEEG_Images\0919.jpg	YN	Right	No	0.922346799983643	0	296864	251
580.84765625	2	health	foodImageDisplay	1	56	56	foodImage.111	FOODEEG_Images\0919.jpg	YN	Right	No	0.922346799983643	0	297395	252
582.912109375	0.922346799983643	health	choicePhaseStart	1	56	56	foodImage.111	FOODEEG_Images\0919.jpg	YN	Right	No	0.922346799983643	0	298452	253
583.82421875	0	health	response	1	56	56	foodImage.111	FOODEEG_Images\0919.jpg	YN	Right	No	0.922346799983643	0	298919	235
584.8671875	1	taste	trialStart	1	57	57	foodImage.116	FOODEEG_Images\0924.jpg	YN	Right	No	1.91290360002313	0	299453	251
585.90625	2	taste	foodImageDisplay	1	57	57	foodImage.116	FOODEEG_Images\0924.jpg	YN	Right	No	1.91290360002313	0	299985	252
587.96875	1.91290360002313	taste	choicePhaseStart	1	57	57	foodImage.116	FOODEEG_Images\0924.jpg	YN	Right	No	1.91290360002313	0	301041	253
589.873046875	0	taste	response	1	57	57	foodImage.116	FOODEEG_Images\0924.jpg	YN	Right	No	1.91290360002313	0	302016	235
590.9140625	1	decision	trialStart	1	58	58	foodImage.35	FOODEEG_Images\0350.jpg	NY	Right	Yes	1.10517009999603	0	302549	251
591.953125	2	decision	foodImageDisplay	1	58	58	foodImage.35	FOODEEG_Images\0350.jpg	NY	Right	Yes	1.10517009999603	0	303081	252
594.015625	1.10517009999603	decision	choicePhaseStart	1	58	58	foodImage.35	FOODEEG_Images\0350.jpg	NY	Right	Yes	1.10517009999603	0	304137	253
595.11328125	0	decision	response	1	58	58	foodImage.35	FOODEEG_Images\0350.jpg	NY	Right	Yes	1.10517009999603	0	304699	235
596.154296875	1	health	trialStart	1	59	59	foodImage.36	FOODEEG_Images\0352.jpg	NY	Right	Yes	2.79718509991653	0	305232	251
597.212890625	2	health	foodImageDisplay	1	59	59	foodImage.36	FOODEEG_Images\0352.jpg	NY	Right	Yes	2.79718509991653	0	305774	252
599.275390625	2.79718509991653	health	choicePhaseStart	1	59	59	foodImage.36	FOODEEG_Images\0352.jpg	NY	Right	Yes	2.79718509991653	0	306830	253
602.064453125	0	health	response	1	59	59	foodImage.36	FOODEEG_Images\0352.jpg	NY	Right	Yes	2.79718509991653	0	308258	235
603.10546875	1	health	trialStart	1	60	60	foodImage.81	FOODEEG_Images\0797.jpg	YN	Left	Yes	1.05276450002566	0	308791	251
604.166015625	2	health	foodImageDisplay	1	60	60	foodImage.81	FOODEEG_Images\0797.jpg	YN	Left	Yes	1.05276450002566	0	309334	252
606.228515625	1.05276450002566	health	choicePhaseStart	1	60	60	foodImage.81	FOODEEG_Images\0797.jpg	YN	Left	Yes	1.05276450002566	0	310390	253
607.271484375	0	health	response	1	60	60	foodImage.81	FOODEEG_Images\0797.jpg	YN	Left	Yes	1.05276450002566	0	310924	234
609.314453125	24.326171875	n/a	blockEnd	n/a	n/a	n/a	n/a	n/a	n/a	n/a	n/a	n/a	n/a	311970	254
633.640625	2	n/a	blockStart	2	n/a	n/a	n/a	n/a	n/a	n/a	n/a	n/a	n/a	324425	250
635.673828125	1	health	trialStart	2	61	1	foodImage.76	FOODEEG_Images\0766.jpg	YN	Left	Yes	0.888130799983628	0	325466	251
636.71875	2	health	foodImageDisplay	2	61	1	foodImage.76	FOODEEG_Images\0766.jpg	YN	Left	Yes	0.888130799983628	0	326001	252
638.783203125	0.888130799983628	health	choicePhaseStart	2	61	1	foodImage.76	FOODEEG_Images\0766.jpg	YN	Left	Yes	0.888130799983628	0	327058	253
639.662109375	0	health	response	2	61	1	foodImage.76	FOODEEG_Images\0766.jpg	YN	Left	Yes	0.888130799983628	0	327508	234
640.703125	1	decision	trialStart	2	62	2	foodImage.53	FOODEEG_Images\0547.jpg	YN	Left	Yes	0.741683000000194	0	328041	251
641.76171875	2	decision	foodImageDisplay	2	62	2	foodImage.53	FOODEEG_Images\0547.jpg	YN	Left	Yes	0.741683000000194	0	328583	252
643.826171875	0.741683000000194	decision	choicePhaseStart	2	62	2	foodImage.53	FOODEEG_Images\0547.jpg	YN	Left	Yes	0.741683000000194	0	329640	253
644.55859375	0	decision	response	2	62	2	foodImage.53	FOODEEG_Images\0547.jpg	YN	Left	Yes	0.741683000000194	0	330015	234
645.6015625	1	taste	trialStart	2	63	3	foodImage.60	FOODEEG_Images\0614.jpg	NY	Right	Yes	1.09448410000186	0	330549	251
646.658203125	2	taste	foodImageDisplay	2	63	3	foodImage.60	FOODEEG_Images\0614.jpg	NY	Right	Yes	1.09448410000186	0	331090	252
648.720703125	1.09448410000186	taste	choicePhaseStart	2	63	3	foodImage.60	FOODEEG_Images\0614.jpg	NY	Right	Yes	1.09448410000186	0	332146	253
649.806640625	0	taste	response	2	63	3	foodImage.60	FOODEEG_Images\0614.jpg	NY	Right	Yes	1.09448410000186	0	332702	235
650.8515625	1	taste	trialStart	2	64	4	foodImage.67	FOODEEG_Images\0679.jpg	YN	Right	No	0.853081699926406	0	333237	251
651.921875	2	taste	foodImageDisplay	2	64	4	foodImage.67	FOODEEG_Images\0679.jpg	YN	Right	No	0.853081699926406	0	333785	252
653.984375	0.853081699926406	taste	choicePhaseStart	2	64	4	foodImage.67	FOODEEG_Images\0679.jpg	YN	Right	No	0.853081699926406	0	334841	253
654.830078125	0	taste	response	2	64	4	foodImage.67	FOODEEG_Images\0679.jpg	YN	Right	No	0.853081699926406	0	335274	235
655.873046875	1	decision	trialStart	2	65	5	foodImage.68	FOODEEG_Images\0685.jpg	YN	Left	Yes	1.04401390010025	0	335808	251
656.951171875	2	decision	foodImageDisplay	2	65	5	foodImage.68	FOODEEG_Images\0685.jpg	YN	Left	Yes	1.04401390010025	0	336360	252
659.01953125	1.04401390010025	decision	choicePhaseStart	2	65	5	foodImage.68	FOODEEG_Images\0685.jpg	YN	Left	Yes	1.04401390010025	0	337419	253
660.0546875	0	decision	response	2	65	5	foodImage.68	FOODEEG_Images\0685.jpg	YN	Left	Yes	1.04401390010025	0	337949	234
661.095703125	1	health	trialStart	2	66	6	foodImage.93	FOODEEG_Images\0901.jpg	YN	Right	No	2.18490330001805	0	338482	251
662.134765625	2	health	foodImageDisplay	2	66	6	foodImage.93	FOODEEG_Images\0901.jpg	YN	Right	No	2.18490330001805	0	339014	252
664.19921875	2.18490330001805	health	choicePhaseStart	2	66	6	foodImage.93	FOODEEG_Images\0901.jpg	YN	Right	No	2.18490330001805	0	340071	253
666.373046875	0	health	response	2	66	6	foodImage.93	FOODEEG_Images\0901.jpg	YN	Right	No	2.18490330001805	0	341184	235
667.416015625	1	taste	trialStart	2	67	7	foodImage.27	FOODEEG_Images\0263.jpg	NY	Right	Yes	0.806241699960083	0	341718	251
668.45703125	2	taste	foodImageDisplay	2	67	7	foodImage.27	FOODEEG_Images\0263.jpg	NY	Right	Yes	0.806241699960083	0	342251	252
670.521484375	0.806241699960083	taste	choicePhaseStart	2	67	7	foodImage.27	FOODEEG_Images\0263.jpg	NY	Right	Yes	0.806241699960083	0	343308	253
671.318359375	0	taste	response	2	67	7	foodImage.27	FOODEEG_Images\0263.jpg	NY	Right	Yes	0.806241699960083	0	343716	235
672.359375	1	taste	trialStart	2	68	8	foodImage.23	FOODEEG_Images\0244.jpg	NY	Right	Yes	0.893695299979299	0	344249	251
673.400390625	2	taste	foodImageDisplay	2	68	8	foodImage.23	FOODEEG_Images\0244.jpg	NY	Right	Yes	0.893695299979299	0	344782	252
675.46484375	0.893695299979299	taste	choicePhaseStart	2	68	8	foodImage.23	FOODEEG_Images\0244.jpg	NY	Right	Yes	0.893695299979299	0	345839	253
676.349609375	0	taste	response	2	68	8	foodImage.23	FOODEEG_Images\0244.jpg	NY	Right	Yes	0.893695299979299	0	346292	235
677.390625	1	taste	trialStart	2	69	9	foodImage.83	FOODEEG_Images\0827.jpg	YN	Left	Yes	1.70113679999486	0	346825	251
678.451171875	2	taste	foodImageDisplay	2	69	9	foodImage.83	FOODEEG_Images\0827.jpg	YN	Left	Yes	1.70113679999486	0	347368	252
680.513671875	1.70113679999486	taste	choicePhaseStart	2	69	9	foodImage.83	FOODEEG_Images\0827.jpg	YN	Left	Yes	1.70113679999486	0	348424	253
682.205078125	0	taste	response	2	69	9	foodImage.83	FOODEEG_Images\0827.jpg	YN	Left	Yes	1.70113679999486	0	349290	234
683.248046875	1	decision	trialStart	2	70	10	foodImage.101	FOODEEG_Images\0909.jpg	NY	Left	No	1.47204429993872	0	349824	251
684.29296875	2	decision	foodImageDisplay	2	70	10	foodImage.101	FOODEEG_Images\0909.jpg	NY	Left	No	1.47204429993872	0	350359	252
686.357421875	1.47204429993872	decision	choicePhaseStart	2	70	10	foodImage.101	FOODEEG_Images\0909.jpg	NY	Left	No	1.47204429993872	0	351416	253
687.8203125	0	decision	response	2	70	10	foodImage.101	FOODEEG_Images\0909.jpg	NY	Left	No	1.47204429993872	0	352165	234
688.869140625	1	health	trialStart	2	71	11	foodImage.65	FOODEEG_Images\0658.jpg	NY	Left	No	1.5095192999579	0	352702	251
689.91015625	2	health	foodImageDisplay	2	71	11	foodImage.65	FOODEEG_Images\0658.jpg	NY	Left	No	1.5095192999579	0	353235	252
691.974609375	1.5095192999579	health	choicePhaseStart	2	71	11	foodImage.65	FOODEEG_Images\0658.jpg	NY	Left	No	1.5095192999579	0	354292	253
693.4765625	0	health	response	2	71	11	foodImage.65	FOODEEG_Images\0658.jpg	NY	Left	No	1.5095192999579	0	355061	234
694.51953125	1	taste	trialStart	2	72	12	foodImage.104	FOODEEG_Images\0912.jpg	YN	Left	Yes	1.03050649992656	0	355595	251
695.55859375	2	taste	foodImageDisplay	2	72	12	foodImage.104	FOODEEG_Images\0912.jpg	YN	Left	Yes	1.03050649992656	0	356127	252
697.623046875	1.03050649992656	taste	choicePhaseStart	2	72	12	foodImage.104	FOODEEG_Images\0912.jpg	YN	Left	Yes	1.03050649992656	0	357184	253
698.64453125	0	taste	response	2	72	12	foodImage.104	FOODEEG_Images\0912.jpg	YN	Left	Yes	1.03050649992656	0	357707	234
699.685546875	1	decision	trialStart	2	73	13	foodImage.114	FOODEEG_Images\0922.jpg	YN	Right	No	2.20390419999603	0	358240	251
700.72265625	2	decision	foodImageDisplay	2	73	13	foodImage.114	FOODEEG_Images\0922.jpg	YN	Right	No	2.20390419999603	0	358771	252
702.78515625	2.20390419999603	decision	choicePhaseStart	2	73	13	foodImage.114	FOODEEG_Images\0922.jpg	YN	Right	No	2.20390419999603	0	359827	253
704.98046875	0	decision	response	2	73	13	foodImage.114	FOODEEG_Images\0922.jpg	YN	Right	No	2.20390419999603	0	360951	235
706.021484375	1	decision	trialStart	2	74	14	foodImage.79	FOODEEG_Images\0794.jpg	YN	Right	No	2.49860170006286	0	361484	251
707.06640625	2	decision	foodImageDisplay	2	74	14	foodImage.79	FOODEEG_Images\0794.jpg	YN	Right	No	2.49860170006286	0	362019	252
709.130859375	2.49860170006286	decision	choicePhaseStart	2	74	14	foodImage.79	FOODEEG_Images\0794.jpg	YN	Right	No	2.49860170006286	0	363076	253
711.619140625	0	decision	response	2	74	14	foodImage.79	FOODEEG_Images\0794.jpg	YN	Right	No	2.49860170006286	0	364350	235
712.662109375	1	decision	trialStart	2	75	15	foodImage.70	FOODEEG_Images\0705.jpg	NY	Right	Yes	0.868175299954601	0	364884	251
713.71875	2	decision	foodImageDisplay	2	75	15	foodImage.70	FOODEEG_Images\0705.jpg	NY	Right	Yes	0.868175299954601	0	365425	252
715.78125	0.868175299954601	decision	choicePhaseStart	2	75	15	foodImage.70	FOODEEG_Images\0705.jpg	NY	Right	Yes	0.868175299954601	0	366481	253
716.642578125	0	decision	response	2	75	15	foodImage.70	FOODEEG_Images\0705.jpg	NY	Right	Yes	0.868175299954601	0	366922	235
717.685546875	1	taste	trialStart	2	76	16	foodImage.90	FOODEEG_Images\0890.jpg	NY	Right	Yes	0.858659899909981	0	367456	251
718.744140625	2	taste	foodImageDisplay	2	76	16	foodImage.90	FOODEEG_Images\0890.jpg	NY	Right	Yes	0.858659899909981	0	367998	252
720.806640625	0.858659899909981	taste	choicePhaseStart	2	76	16	foodImage.90	FOODEEG_Images\0890.jpg	NY	Right	Yes	0.858659899909981	0	369054	253
721.658203125	0	taste	response	2	76	16	foodImage.90	FOODEEG_Images\0890.jpg	NY	Right	Yes	0.858659899909981	0	369490	235
722.703125	1	taste	trialStart	2	77	17	foodImage.70	FOODEEG_Images\0705.jpg	NY	Right	Yes	1.43679220008198	0	370025	251
723.76171875	2	taste	foodImageDisplay	2	77	17	foodImage.70	FOODEEG_Images\0705.jpg	NY	Right	Yes	1.43679220008198	0	370567	252
725.82421875	1.43679220008198	taste	choicePhaseStart	2	77	17	foodImage.70	FOODEEG_Images\0705.jpg	NY	Right	Yes	1.43679220008198	0	371623	253
727.251953125	0	taste	response	2	77	17	foodImage.70	FOODEEG_Images\0705.jpg	NY	Right	Yes	1.43679220008198	0	372354	235
728.29296875	1	decision	trialStart	2	78	18	foodImage.34	FOODEEG_Images\0339.jpg	YN	Left	Yes	1.05077159998473	0	372887	251
729.353515625	2	decision	foodImageDisplay	2	78	18	foodImage.34	FOODEEG_Images\0339.jpg	YN	Left	Yes	1.05077159998473	0	373430	252
731.416015625	1.05077159998473	decision	choicePhaseStart	2	78	18	foodImage.34	FOODEEG_Images\0339.jpg	YN	Left	Yes	1.05077159998473	0	374486	253
732.458984375	0	decision	response	2	78	18	foodImage.34	FOODEEG_Images\0339.jpg	YN	Left	Yes	1.05077159998473	0	375020	234
733.501953125	1	taste	trialStart	2	79	19	foodImage.18	FOODEEG_Images\0202.jpg	YN	Left	Yes	1.05142350005917	0	375554	251
734.560546875	2	taste	foodImageDisplay	2	79	19	foodImage.18	FOODEEG_Images\0202.jpg	YN	Left	Yes	1.05142350005917	0	376096	252
736.625	1.05142350005917	taste	choicePhaseStart	2	79	19	foodImage.18	FOODEEG_Images\0202.jpg	YN	Left	Yes	1.05142350005917	0	377153	253
737.666015625	0	taste	response	2	79	19	foodImage.18	FOODEEG_Images\0202.jpg	YN	Left	Yes	1.05142350005917	0	377686	234
738.712890625	1	taste	trialStart	2	80	20	foodImage.13	FOODEEG_Images\0183.jpg	NY	Right	Yes	1.10189819999505	0	378222	251
739.765625	2	taste	foodImageDisplay	2	80	20	foodImage.13	FOODEEG_Images\0183.jpg	NY	Right	Yes	1.10189819999505	0	378761	252
741.830078125	1.10189819999505	taste	choicePhaseStart	2	80	20	foodImage.13	FOODEEG_Images\0183.jpg	NY	Right	Yes	1.10189819999505	0	379818	253
742.921875	0	taste	response	2	80	20	foodImage.13	FOODEEG_Images\0183.jpg	NY	Right	Yes	1.10189819999505	0	380377	235
743.962890625	1	decision	trialStart	2	81	21	foodImage.94	FOODEEG_Images\0902.jpg	NY	Left	No	1.25921319995541	0	380910	251
745	2	decision	foodImageDisplay	2	81	21	foodImage.94	FOODEEG_Images\0902.jpg	NY	Left	No	1.25921319995541	0	381441	252
747.064453125	1.25921319995541	decision	choicePhaseStart	2	81	21	foodImage.94	FOODEEG_Images\0902.jpg	NY	Left	No	1.25921319995541	0	382498	253
748.314453125	0	decision	response	2	81	21	foodImage.94	FOODEEG_Images\0902.jpg	NY	Left	No	1.25921319995541	0	383138	234
749.357421875	1	health	trialStart	2	82	22	foodImage.30	FOODEEG_Images\0282.jpg	YN	Left	Yes	0.946444700006396	0	383672	251
750.3984375	2	health	foodImageDisplay	2	82	22	foodImage.30	FOODEEG_Images\0282.jpg	YN	Left	Yes	0.946444700006396	0	384205	252
752.4609375	0.946444700006396	health	choicePhaseStart	2	82	22	foodImage.30	FOODEEG_Images\0282.jpg	YN	Left	Yes	0.946444700006396	0	385261	253
753.40234375	0	health	response	2	82	22	foodImage.30	FOODEEG_Images\0282.jpg	YN	Left	Yes	0.946444700006396	0	385743	234
754.4453125	1	decision	trialStart	2	83	23	foodImage.63	FOODEEG_Images\0645.jpg	NY	Right	Yes	1.02962539996952	0	386277	251
755.486328125	2	decision	foodImageDisplay	2	83	23	foodImage.63	FOODEEG_Images\0645.jpg	NY	Right	Yes	1.02962539996952	0	386810	252
757.548828125	1.02962539996952	decision	choicePhaseStart	2	83	23	foodImage.63	FOODEEG_Images\0645.jpg	NY	Right	Yes	1.02962539996952	0	387866	253
758.5703125	0	decision	response	2	83	23	foodImage.63	FOODEEG_Images\0645.jpg	NY	Right	Yes	1.02962539996952	0	388389	235
759.611328125	1	decision	trialStart	2	84	24	foodImage.105	FOODEEG_Images\0913.jpg	NY	Left	No	1.71162890002597	0	388922	251
760.650390625	2	decision	foodImageDisplay	2	84	24	foodImage.105	FOODEEG_Images\0913.jpg	NY	Left	No	1.71162890002597	0	389454	252
762.712890625	1.71162890002597	decision	choicePhaseStart	2	84	24	foodImage.105	FOODEEG_Images\0913.jpg	NY	Left	No	1.71162890002597	0	390510	253
764.41796875	0	decision	response	2	84	24	foodImage.105	FOODEEG_Images\0913.jpg	NY	Left	No	1.71162890002597	0	391383	234
765.4609375	1	health	trialStart	2	85	25	foodImage.17	FOODEEG_Images\0199.jpg	NY	Right	Yes	0.736589299980551	0	391917	251
766.5078125	2	health	foodImageDisplay	2	85	25	foodImage.17	FOODEEG_Images\0199.jpg	NY	Right	Yes	0.736589299980551	0	392453	252
768.5703125	0.736589299980551	health	choicePhaseStart	2	85	25	foodImage.17	FOODEEG_Images\0199.jpg	NY	Right	Yes	0.736589299980551	0	393509	253
769.296875	0	health	response	2	85	25	foodImage.17	FOODEEG_Images\0199.jpg	NY	Right	Yes	0.736589299980551	0	393881	235
770.33984375	1	taste	trialStart	2	86	26	foodImage.5	FOODEEG_Images\0107.jpg	NY	Right	Yes	0.635529199964367	0	394415	251
771.3984375	2	taste	foodImageDisplay	2	86	26	foodImage.5	FOODEEG_Images\0107.jpg	NY	Right	Yes	0.635529199964367	0	394957	252
773.462890625	0.635529199964367	taste	choicePhaseStart	2	86	26	foodImage.5	FOODEEG_Images\0107.jpg	NY	Right	Yes	0.635529199964367	0	396014	253
774.08984375	0	taste	response	2	86	26	foodImage.5	FOODEEG_Images\0107.jpg	NY	Right	Yes	0.635529199964367	0	396335	235
775.1328125	1	decision	trialStart	2	87	27	foodImage.1	FOODEEG_Images\0004.jpg	NY	Right	Yes	1.50199819996487	0	396869	251
776.173828125	2	decision	foodImageDisplay	2	87	27	foodImage.1	FOODEEG_Images\0004.jpg	NY	Right	Yes	1.50199819996487	0	397402	252
778.236328125	1.50199819996487	decision	choicePhaseStart	2	87	27	foodImage.1	FOODEEG_Images\0004.jpg	NY	Right	Yes	1.50199819996487	0	398458	253
779.728515625	0	decision	response	2	87	27	foodImage.1	FOODEEG_Images\0004.jpg	NY	Right	Yes	1.50199819996487	0	399222	235
780.775390625	1	decision	trialStart	2	88	28	foodImage.11	FOODEEG_Images\0180.jpg	NY	Right	Yes	1.45743039995432	0	399758	251
781.81640625	2	decision	foodImageDisplay	2	88	28	foodImage.11	FOODEEG_Images\0180.jpg	NY	Right	Yes	1.45743039995432	0	400291	252
783.880859375	1.45743039995432	decision	choicePhaseStart	2	88	28	foodImage.11	FOODEEG_Images\0180.jpg	NY	Right	Yes	1.45743039995432	0	401348	253
785.328125	0	decision	response	2	88	28	foodImage.11	FOODEEG_Images\0180.jpg	NY	Right	Yes	1.45743039995432	0	402089	235
786.37109375	1	health	trialStart	2	89	29	foodImage.55	FOODEEG_Images\0567.jpg	YN	Left	Yes	2.66095619997941	0	402623	251
787.4296875	2	health	foodImageDisplay	2	89	29	foodImage.55	FOODEEG_Images\0567.jpg	YN	Left	Yes	2.66095619997941	0	403165	252
789.494140625	2.66095619997941	health	choicePhaseStart	2	89	29	foodImage.55	FOODEEG_Images\0567.jpg	YN	Left	Yes	2.66095619997941	0	404222	253
792.14453125	0	health	response	2	89	29	foodImage.55	FOODEEG_Images\0567.jpg	YN	Left	Yes	2.66095619997941	0	405579	234
793.185546875	1	health	trialStart	2	90	30	foodImage.51	FOODEEG_Images\0536.jpg	YN	Right	No	1.2202456999803	0	406112	251
794.23046875	2	health	foodImageDisplay	2	90	30	foodImage.51	FOODEEG_Images\0536.jpg	YN	Right	No	1.2202456999803	0	406647	252
796.29296875	1.2202456999803	health	choicePhaseStart	2	90	30	foodImage.51	FOODEEG_Images\0536.jpg	YN	Right	No	1.2202456999803	0	407703	253
797.50390625	0	health	response	2	90	30	foodImage.51	FOODEEG_Images\0536.jpg	YN	Right	No	1.2202456999803	0	408323	235
798.546875	1	decision	trialStart	2	91	31	foodImage.3	FOODEEG_Images\0046.jpg	NY	Right	Yes	2.14342290000059	0	408857	251
799.591796875	2	decision	foodImageDisplay	2	91	31	foodImage.3	FOODEEG_Images\0046.jpg	NY	Right	Yes	2.14342290000059	0	409392	252
801.654296875	2.14342290000059	decision	choicePhaseStart	2	91	31	foodImage.3	FOODEEG_Images\0046.jpg	NY	Right	Yes	2.14342290000059	0	410448	253
803.791015625	0	decision	response	2	91	31	foodImage.3	FOODEEG_Images\0046.jpg	NY	Right	Yes	2.14342290000059	0	411542	235
804.84375	1	decision	trialStart	2	92	32	foodImage.74	FOODEEG_Images\0752.jpg	YN	Left	Yes	1.37666810001247	0	412081	251
805.888671875	2	decision	foodImageDisplay	2	92	32	foodImage.74	FOODEEG_Images\0752.jpg	YN	Left	Yes	1.37666810001247	0	412616	252
807.951171875	1.37666810001247	decision	choicePhaseStart	2	92	32	foodImage.74	FOODEEG_Images\0752.jpg	YN	Left	Yes	1.37666810001247	0	413672	253
809.3203125	0	decision	response	2	92	32	foodImage.74	FOODEEG_Images\0752.jpg	YN	Left	Yes	1.37666810001247	0	414373	234
810.361328125	1	taste	trialStart	2	93	33	foodImage.51	FOODEEG_Images\0536.jpg	NY	Right	Yes	1.14375429996289	0	414906	251
811.41796875	2	taste	foodImageDisplay	2	93	33	foodImage.51	FOODEEG_Images\0536.jpg	NY	Right	Yes	1.14375429996289	0	415447	252
813.48046875	1.14375429996289	taste	choicePhaseStart	2	93	33	foodImage.51	FOODEEG_Images\0536.jpg	NY	Right	Yes	1.14375429996289	0	416503	253
814.615234375	0	taste	response	2	93	33	foodImage.51	FOODEEG_Images\0536.jpg	NY	Right	Yes	1.14375429996289	0	417084	235
815.658203125	1	taste	trialStart	2	94	34	foodImage.30	FOODEEG_Images\0282.jpg	NY	Right	Yes	1.72573380009271	0	417618	251
816.69921875	2	taste	foodImageDisplay	2	94	34	foodImage.30	FOODEEG_Images\0282.jpg	NY	Right	Yes	1.72573380009271	0	418151	252
818.763671875	1.72573380009271	taste	choicePhaseStart	2	94	34	foodImage.30	FOODEEG_Images\0282.jpg	NY	Right	Yes	1.72573380009271	0	419208	253
820.478515625	0	taste	response	2	94	34	foodImage.30	FOODEEG_Images\0282.jpg	NY	Right	Yes	1.72573380009271	0	420086	235
821.521484375	1	taste	trialStart	2	95	35	foodImage.77	FOODEEG_Images\0771.jpg	YN	Left	Yes	0.864337399951182	0	420620	251
822.56640625	2	taste	foodImageDisplay	2	95	35	foodImage.77	FOODEEG_Images\0771.jpg	YN	Left	Yes	0.864337399951182	0	421155	252
824.62890625	0.864337399951182	taste	choicePhaseStart	2	95	35	foodImage.77	FOODEEG_Images\0771.jpg	YN	Left	Yes	0.864337399951182	0	422211	253
825.486328125	0	taste	response	2	95	35	foodImage.77	FOODEEG_Images\0771.jpg	YN	Left	Yes	0.864337399951182	0	422650	234
826.529296875	1	decision	trialStart	2	96	36	foodImage.110	FOODEEG_Images\0918.jpg	NY	Left	No	1.43016510002781	0	423184	251
827.56640625	2	decision	foodImageDisplay	2	96	36	foodImage.110	FOODEEG_Images\0918.jpg	NY	Left	No	1.43016510002781	0	423715	252
829.630859375	1.43016510002781	decision	choicePhaseStart	2	96	36	foodImage.110	FOODEEG_Images\0918.jpg	NY	Left	No	1.43016510002781	0	424772	253
831.0546875	0	decision	response	2	96	36	foodImage.110	FOODEEG_Images\0918.jpg	NY	Left	No	1.43016510002781	0	425501	234
832.103515625	1	taste	trialStart	2	97	37	foodImage.16	FOODEEG_Images\0196.jpg	YN	Left	Yes	1.71678310004063	0	426038	251
833.16015625	2	taste	foodImageDisplay	2	97	37	foodImage.16	FOODEEG_Images\0196.jpg	YN	Left	Yes	1.71678310004063	0	426579	252
835.2265625	1.71678310004063	taste	choicePhaseStart	2	97	37	foodImage.16	FOODEEG_Images\0196.jpg	YN	Left	Yes	1.71678310004063	0	427637	253
836.93359375	0	taste	response	2	97	37	foodImage.16	FOODEEG_Images\0196.jpg	YN	Left	Yes	1.71678310004063	0	428511	234
837.9765625	1	health	trialStart	2	98	38	foodImage.39	FOODEEG_Images\0367.jpg	NY	Right	Yes	1.47070239996538	0	429045	251
839.015625	2	health	foodImageDisplay	2	98	38	foodImage.39	FOODEEG_Images\0367.jpg	NY	Right	Yes	1.47070239996538	0	429577	252
841.08203125	1.47070239996538	health	choicePhaseStart	2	98	38	foodImage.39	FOODEEG_Images\0367.jpg	NY	Right	Yes	1.47070239996538	0	430635	253
842.54296875	0	health	response	2	98	38	foodImage.39	FOODEEG_Images\0367.jpg	NY	Right	Yes	1.47070239996538	0	431383	235
843.5859375	1	decision	trialStart	2	99	39	foodImage.47	FOODEEG_Images\0488.jpg	YN	Left	Yes	0.829983800067566	0	431917	251
844.626953125	2	decision	foodImageDisplay	2	99	39	foodImage.47	FOODEEG_Images\0488.jpg	YN	Left	Yes	0.829983800067566	0	432450	252
846.689453125	0.829983800067566	decision	choicePhaseStart	2	99	39	foodImage.47	FOODEEG_Images\0488.jpg	YN	Left	Yes	0.829983800067566	0	433506	253
847.509765625	0	decision	response	2	99	39	foodImage.47	FOODEEG_Images\0488.jpg	YN	Left	Yes	0.829983800067566	0	433926	234
848.552734375	1	health	trialStart	2	100	40	foodImage.28	FOODEEG_Images\0273.jpg	NY	Right	Yes	0.931240199948661	0	434460	251
849.59765625	2	health	foodImageDisplay	2	100	40	foodImage.28	FOODEEG_Images\0273.jpg	NY	Right	Yes	0.931240199948661	0	434995	252
851.66015625	0.931240199948661	health	choicePhaseStart	2	100	40	foodImage.28	FOODEEG_Images\0273.jpg	NY	Right	Yes	0.931240199948661	0	436051	253
852.58203125	0	health	response	2	100	40	foodImage.28	FOODEEG_Images\0273.jpg	NY	Right	Yes	0.931240199948661	0	436523	235
853.625	1	health	trialStart	2	101	41	foodImage.31	FOODEEG_Images\0294.jpg	NY	Left	No	1.42255819996353	0	437057	251
854.666015625	2	health	foodImageDisplay	2	101	41	foodImage.31	FOODEEG_Images\0294.jpg	NY	Left	No	1.42255819996353	0	437590	252
856.728515625	1.42255819996353	health	choicePhaseStart	2	101	41	foodImage.31	FOODEEG_Images\0294.jpg	NY	Left	No	1.42255819996353	0	438646	253
858.142578125	0	health	response	2	101	41	foodImage.31	FOODEEG_Images\0294.jpg	NY	Left	No	1.42255819996353	0	439370	234
859.18359375	1	decision	trialStart	2	102	42	foodImage.9	FOODEEG_Images\0138.jpg	NY	Right	Yes	0.852894200012088	0	439903	251
860.2421875	2	decision	foodImageDisplay	2	102	42	foodImage.9	FOODEEG_Images\0138.jpg	NY	Right	Yes	0.852894200012088	0	440445	252
862.310546875	0.852894200012088	decision	choicePhaseStart	2	102	42	foodImage.9	FOODEEG_Images\0138.jpg	NY	Right	Yes	0.852894200012088	0	441504	253
863.158203125	0	decision	response	2	102	42	foodImage.9	FOODEEG_Images\0138.jpg	NY	Right	Yes	0.852894200012088	0	441938	235
864.203125	1	decision	trialStart	2	103	43	foodImage.26	FOODEEG_Images\0262.jpg	NY	Right	Yes	1.1111817000201	0	442473	251
865.24609375	2	decision	foodImageDisplay	2	103	43	foodImage.26	FOODEEG_Images\0262.jpg	NY	Right	Yes	1.1111817000201	0	443007	252
867.310546875	1.1111817000201	decision	choicePhaseStart	2	103	43	foodImage.26	FOODEEG_Images\0262.jpg	NY	Right	Yes	1.1111817000201	0	444064	253
868.4140625	0	decision	response	2	103	43	foodImage.26	FOODEEG_Images\0262.jpg	NY	Right	Yes	1.1111817000201	0	444629	235
869.455078125	1	health	trialStart	2	104	44	foodImage.115	FOODEEG_Images\0923.jpg	YN	Right	No	1.56074720004108	0	445162	251
870.49609375	2	health	foodImageDisplay	2	104	44	foodImage.115	FOODEEG_Images\0923.jpg	YN	Right	No	1.56074720004108	0	445695	252
872.55859375	1.56074720004108	health	choicePhaseStart	2	104	44	foodImage.115	FOODEEG_Images\0923.jpg	YN	Right	No	1.56074720004108	0	446751	253
874.109375	0	health	response	2	104	44	foodImage.115	FOODEEG_Images\0923.jpg	YN	Right	No	1.56074720004108	0	447545	235
875.15234375	1	decision	trialStart	2	105	45	foodImage.14	FOODEEG_Images\0188.jpg	YN	Left	Yes	2.65691550006159	0	448079	251
876.208984375	2	decision	foodImageDisplay	2	105	45	foodImage.14	FOODEEG_Images\0188.jpg	YN	Left	Yes	2.65691550006159	0	448620	252
878.27734375	2.65691550006159	decision	choicePhaseStart	2	105	45	foodImage.14	FOODEEG_Images\0188.jpg	YN	Left	Yes	2.65691550006159	0	449679	253
880.92578125	0	decision	response	2	105	45	foodImage.14	FOODEEG_Images\0188.jpg	YN	Left	Yes	2.65691550006159	0	451035	234
881.966796875	1	taste	trialStart	2	106	46	foodImage.99	FOODEEG_Images\0907.jpg	NY	Left	No	1.08983459998854	0	451568	251
883.00390625	2	taste	foodImageDisplay	2	106	46	foodImage.99	FOODEEG_Images\0907.jpg	NY	Left	No	1.08983459998854	0	452099	252
885.068359375	1.08983459998854	taste	choicePhaseStart	2	106	46	foodImage.99	FOODEEG_Images\0907.jpg	NY	Left	No	1.08983459998854	0	453156	253
886.1484375	0	taste	response	2	106	46	foodImage.99	FOODEEG_Images\0907.jpg	NY	Left	No	1.08983459998854	0	453709	234
887.189453125	1	health	trialStart	2	107	47	foodImage.6	FOODEEG_Images\0113.jpg	NY	Left	No	0.846709000063129	0	454242	251
888.23046875	2	health	foodImageDisplay	2	107	47	foodImage.6	FOODEEG_Images\0113.jpg	NY	Left	No	0.846709000063129	0	454775	252
890.294921875	0.846709000063129	health	choicePhaseStart	2	107	47	foodImage.6	FOODEEG_Images\0113.jpg	NY	Left	No	0.846709000063129	0	455832	253
891.1328125	0	health	response	2	107	47	foodImage.6	FOODEEG_Images\0113.jpg	NY	Left	No	0.846709000063129	0	456261	234
892.17578125	1	taste	trialStart	2	108	48	foodImage.115	FOODEEG_Images\0923.jpg	YN	Right	No	1.12026070000138	0	456795	251
893.212890625	2	taste	foodImageDisplay	2	108	48	foodImage.115	FOODEEG_Images\0923.jpg	YN	Right	No	1.12026070000138	0	457326	252
895.27734375	1.12026070000138	taste	choicePhaseStart	2	108	48	foodImage.115	FOODEEG_Images\0923.jpg	YN	Right	No	1.12026070000138	0	458383	253
896.388671875	0	taste	response	2	108	48	foodImage.115	FOODEEG_Images\0923.jpg	YN	Right	No	1.12026070000138	0	458952	235
897.4296875	1	taste	trialStart	2	109	49	foodImage.31	FOODEEG_Images\0294.jpg	YN	Right	No	1.1465470000403	0	459485	251
898.47265625	2	taste	foodImageDisplay	2	109	49	foodImage.31	FOODEEG_Images\0294.jpg	YN	Right	No	1.1465470000403	0	460019	252
900.53515625	1.1465470000403	taste	choicePhaseStart	2	109	49	foodImage.31	FOODEEG_Images\0294.jpg	YN	Right	No	1.1465470000403	0	461075	253
901.67578125	0	taste	response	2	109	49	foodImage.31	FOODEEG_Images\0294.jpg	YN	Right	No	1.1465470000403	0	461659	235
902.71875	1	taste	trialStart	2	110	50	foodImage.119	FOODEEG_Images\0927.jpg	YN	Right	No	0.900998399942182	0	462193	251
903.7578125	2	taste	foodImageDisplay	2	110	50	foodImage.119	FOODEEG_Images\0927.jpg	YN	Right	No	0.900998399942182	0	462725	252
905.82421875	0.900998399942182	taste	choicePhaseStart	2	110	50	foodImage.119	FOODEEG_Images\0927.jpg	YN	Right	No	0.900998399942182	0	463783	253
906.716796875	0	taste	response	2	110	50	foodImage.119	FOODEEG_Images\0927.jpg	YN	Right	No	0.900998399942182	0	464240	235
907.759765625	1	decision	trialStart	2	111	51	foodImage.96	FOODEEG_Images\0904.jpg	YN	Right	No	1.00765819998924	0	464774	251
908.796875	2	decision	foodImageDisplay	2	111	51	foodImage.96	FOODEEG_Images\0904.jpg	YN	Right	No	1.00765819998924	0	465305	252
910.861328125	1.00765819998924	decision	choicePhaseStart	2	111	51	foodImage.96	FOODEEG_Images\0904.jpg	YN	Right	No	1.00765819998924	0	466362	253
911.859375	0	decision	response	2	111	51	foodImage.96	FOODEEG_Images\0904.jpg	YN	Right	No	1.00765819998924	0	466873	235
912.908203125	1	decision	trialStart	2	112	52	foodImage.41	FOODEEG_Images\0409.jpg	YN	Left	Yes	2.22130109998398	0	467410	251
913.953125	2	decision	foodImageDisplay	2	112	52	foodImage.41	FOODEEG_Images\0409.jpg	YN	Left	Yes	2.22130109998398	0	467945	252
916.015625	2.22130109998398	decision	choicePhaseStart	2	112	52	foodImage.41	FOODEEG_Images\0409.jpg	YN	Left	Yes	2.22130109998398	0	469001	253
918.2265625	0	decision	response	2	112	52	foodImage.41	FOODEEG_Images\0409.jpg	YN	Left	Yes	2.22130109998398	0	470133	234
919.26953125	1	taste	trialStart	2	113	53	foodImage.26	FOODEEG_Images\0262.jpg	YN	Left	Yes	1.80697980010882	0	470667	251
920.310546875	2	taste	foodImageDisplay	2	113	53	foodImage.26	FOODEEG_Images\0262.jpg	YN	Left	Yes	1.80697980010882	0	471200	252
922.373046875	1.80697980010882	taste	choicePhaseStart	2	113	53	foodImage.26	FOODEEG_Images\0262.jpg	YN	Left	Yes	1.80697980010882	0	472256	253
924.171875	0	taste	response	2	113	53	foodImage.26	FOODEEG_Images\0262.jpg	YN	Left	Yes	1.80697980010882	0	473177	234
925.21484375	1	decision	trialStart	2	114	54	foodImage.36	FOODEEG_Images\0352.jpg	NY	Right	Yes	1.0624881000258	0	473711	251
926.294921875	2	decision	foodImageDisplay	2	114	54	foodImage.36	FOODEEG_Images\0352.jpg	NY	Right	Yes	1.0624881000258	0	474264	252
928.357421875	1.0624881000258	decision	choicePhaseStart	2	114	54	foodImage.36	FOODEEG_Images\0352.jpg	NY	Right	Yes	1.0624881000258	0	475320	253
929.41015625	0	decision	response	2	114	54	foodImage.36	FOODEEG_Images\0352.jpg	NY	Right	Yes	1.0624881000258	0	475859	235
930.453125	1	taste	trialStart	2	115	55	foodImage.63	FOODEEG_Images\0645.jpg	NY	Right	Yes	0.906853700056672	0	476393	251
931.50390625	2	taste	foodImageDisplay	2	115	55	foodImage.63	FOODEEG_Images\0645.jpg	NY	Right	Yes	0.906853700056672	0	476931	252
933.568359375	0.906853700056672	taste	choicePhaseStart	2	115	55	foodImage.63	FOODEEG_Images\0645.jpg	NY	Right	Yes	0.906853700056672	0	477988	253
934.466796875	0	taste	response	2	115	55	foodImage.63	FOODEEG_Images\0645.jpg	NY	Right	Yes	0.906853700056672	0	478448	235
935.513671875	1	taste	trialStart	2	116	56	foodImage.106	FOODEEG_Images\0914.jpg	YN	Left	Yes	0.957013700040989	0	478984	251
936.552734375	2	taste	foodImageDisplay	2	116	56	foodImage.106	FOODEEG_Images\0914.jpg	YN	Left	Yes	0.957013700040989	0	479516	252
938.615234375	0.957013700040989	taste	choicePhaseStart	2	116	56	foodImage.106	FOODEEG_Images\0914.jpg	YN	Left	Yes	0.957013700040989	0	480572	253
939.5625	0	taste	response	2	116	56	foodImage.106	FOODEEG_Images\0914.jpg	YN	Left	Yes	0.957013700040989	0	481057	234
940.60546875	1	health	trialStart	2	117	57	foodImage.59	FOODEEG_Images\0607.jpg	NY	Left	No	2.01227349997498	0	481591	251
941.65234375	2	health	foodImageDisplay	2	117	57	foodImage.59	FOODEEG_Images\0607.jpg	NY	Left	No	2.01227349997498	0	482127	252
943.716796875	2.01227349997498	health	choicePhaseStart	2	117	57	foodImage.59	FOODEEG_Images\0607.jpg	NY	Left	No	2.01227349997498	0	483184	253
945.72265625	0	health	response	2	117	57	foodImage.59	FOODEEG_Images\0607.jpg	NY	Left	No	2.01227349997498	0	484211	234
946.765625	1	health	trialStart	2	118	58	foodImage.41	FOODEEG_Images\0409.jpg	NY	Right	Yes	1.34410960006062	0	484745	251
947.8125	2	health	foodImageDisplay	2	118	58	foodImage.41	FOODEEG_Images\0409.jpg	NY	Right	Yes	1.34410960006062	0	485281	252
949.875	1.34410960006062	health	choicePhaseStart	2	118	58	foodImage.41	FOODEEG_Images\0409.jpg	NY	Right	Yes	1.34410960006062	0	486337	253
951.2109375	0	health	response	2	118	58	foodImage.41	FOODEEG_Images\0409.jpg	NY	Right	Yes	1.34410960006062	0	487021	235
952.25	1	taste	trialStart	2	119	59	foodImage.120	FOODEEG_Images\0928.jpg	NY	Right	Yes	3.92243279994	0	487553	251
953.287109375	2	taste	foodImageDisplay	2	119	59	foodImage.120	FOODEEG_Images\0928.jpg	NY	Right	Yes	3.92243279994	0	488084	252
955.353515625	3.92243279994	taste	choicePhaseStart	2	119	59	foodImage.120	FOODEEG_Images\0928.jpg	NY	Right	Yes	3.92243279994	0	489142	253
959.265625	0	taste	response	2	119	59	foodImage.120	FOODEEG_Images\0928.jpg	NY	Right	Yes	3.92243279994	0	491145	235
960.30859375	1	decision	trialStart	2	120	60	foodImage.27	FOODEEG_Images\0263.jpg	NY	Right	Yes	0.842580400058068	0	491679	251
961.369140625	2	decision	foodImageDisplay	2	120	60	foodImage.27	FOODEEG_Images\0263.jpg	NY	Right	Yes	0.842580400058068	0	492222	252
963.431640625	0.842580400058068	decision	choicePhaseStart	2	120	60	foodImage.27	FOODEEG_Images\0263.jpg	NY	Right	Yes	0.842580400058068	0	493278	253
964.265625	0	decision	response	2	120	60	foodImage.27	FOODEEG_Images\0263.jpg	NY	Right	Yes	0.842580400058068	0	493705	235
966.306640625	35.599609375	n/a	blockEnd	n/a	n/a	n/a	n/a	n/a	n/a	n/a	n/a	n/a	n/a	494750	254
1001.90625	2	n/a	blockStart	3	n/a	n/a	n/a	n/a	n/a	n/a	n/a	n/a	n/a	512977	250
1003.939453125	1	taste	trialStart	3	121	1	foodImage.54	FOODEEG_Images\0560.jpg	NY	Right	Yes	0.8021035999991	0	514018	251
1004.998046875	2	taste	foodImageDisplay	3	121	1	foodImage.54	FOODEEG_Images\0560.jpg	NY	Right	Yes	0.8021035999991	0	514560	252
1007.0625	0.8021035999991	taste	choicePhaseStart	3	121	1	foodImage.54	FOODEEG_Images\0560.jpg	NY	Right	Yes	0.8021035999991	0	515617	253
1007.85546875	0	taste	response	3	121	1	foodImage.54	FOODEEG_Images\0560.jpg	NY	Right	Yes	0.8021035999991	0	516023	235
1008.900390625	1	taste	trialStart	3	122	2	foodImage.91	FOODEEG_Images\0896.jpg	YN	Left	Yes	1.97767119994387	0	516558	251
1009.958984375	2	taste	foodImageDisplay	3	122	2	foodImage.91	FOODEEG_Images\0896.jpg	YN	Left	Yes	1.97767119994387	0	517100	252
1012.0234375	1.97767119994387	taste	choicePhaseStart	3	122	2	foodImage.91	FOODEEG_Images\0896.jpg	YN	Left	Yes	1.97767119994387	0	518157	253
1013.9921875	0	taste	response	3	122	2	foodImage.91	FOODEEG_Images\0896.jpg	YN	Left	Yes	1.97767119994387	0	519165	234
1015.033203125	1	decision	trialStart	3	123	3	foodImage.67	FOODEEG_Images\0679.jpg	NY	Left	No	0.945116599905305	0	519698	251
1016.091796875	2	decision	foodImageDisplay	3	123	3	foodImage.67	FOODEEG_Images\0679.jpg	NY	Left	No	0.945116599905305	0	520240	252
1018.16015625	0.945116599905305	decision	choicePhaseStart	3	123	3	foodImage.67	FOODEEG_Images\0679.jpg	NY	Left	No	0.945116599905305	0	521299	253
1019.095703125	0	decision	response	3	123	3	foodImage.67	FOODEEG_Images\0679.jpg	NY	Left	No	0.945116599905305	0	521778	234
1020.138671875	1	decision	trialStart	3	124	4	foodImage.76	FOODEEG_Images\0766.jpg	NY	Right	Yes	0.890434200060554	0	522312	251
1021.181640625	2	decision	foodImageDisplay	3	124	4	foodImage.76	FOODEEG_Images\0766.jpg	NY	Right	Yes	0.890434200060554	0	522846	252
1023.24609375	0.890434200060554	decision	choicePhaseStart	3	124	4	foodImage.76	FOODEEG_Images\0766.jpg	NY	Right	Yes	0.890434200060554	0	523903	253
1024.126953125	0	decision	response	3	124	4	foodImage.76	FOODEEG_Images\0766.jpg	NY	Right	Yes	0.890434200060554	0	524354	235
1025.169921875	1	taste	trialStart	3	125	5	foodImage.73	FOODEEG_Images\0717.jpg	YN	Left	Yes	0.866516599897295	0	524888	251
1026.228515625	2	taste	foodImageDisplay	3	125	5	foodImage.73	FOODEEG_Images\0717.jpg	YN	Left	Yes	0.866516599897295	0	525430	252
1028.29296875	0.866516599897295	taste	choicePhaseStart	3	125	5	foodImage.73	FOODEEG_Images\0717.jpg	YN	Left	Yes	0.866516599897295	0	526487	253
1029.150390625	0	taste	response	3	125	5	foodImage.73	FOODEEG_Images\0717.jpg	YN	Left	Yes	0.866516599897295	0	526926	234
1030.193359375	1	decision	trialStart	3	126	6	foodImage.32	FOODEEG_Images\0319.jpg	YN	Left	Yes	0.844458499923348	0	527460	251
1031.236328125	2	decision	foodImageDisplay	3	126	6	foodImage.32	FOODEEG_Images\0319.jpg	YN	Left	Yes	0.844458499923348	0	527994	252
1033.30078125	0.844458499923348	decision	choicePhaseStart	3	126	6	foodImage.32	FOODEEG_Images\0319.jpg	YN	Left	Yes	0.844458499923348	0	529051	253
1034.134765625	0	decision	response	3	126	6	foodImage.32	FOODEEG_Images\0319.jpg	YN	Left	Yes	0.844458499923348	0	529478	234
1035.18359375	1	health	trialStart	3	127	7	foodImage.5	FOODEEG_Images\0107.jpg	NY	Left	No	1.48798229999375	0	530015	251
1036.2421875	2	health	foodImageDisplay	3	127	7	foodImage.5	FOODEEG_Images\0107.jpg	NY	Left	No	1.48798229999375	0	530557	252
1038.30859375	1.48798229999375	health	choicePhaseStart	3	127	7	foodImage.5	FOODEEG_Images\0107.jpg	NY	Left	No	1.48798229999375	0	531615	253
1039.791015625	0	health	response	3	127	7	foodImage.5	FOODEEG_Images\0107.jpg	NY	Left	No	1.48798229999375	0	532374	234
1040.833984375	1	health	trialStart	3	128	8	foodImage.40	FOODEEG_Images\0373.jpg	NY	Left	No	1.05432340002153	0	532908	251
1041.875	2	health	foodImageDisplay	3	128	8	foodImage.40	FOODEEG_Images\0373.jpg	NY	Left	No	1.05432340002153	0	533441	252
1043.9375	1.05432340002153	health	choicePhaseStart	3	128	8	foodImage.40	FOODEEG_Images\0373.jpg	NY	Left	No	1.05432340002153	0	534497	253
1044.982421875	0	health	response	3	128	8	foodImage.40	FOODEEG_Images\0373.jpg	NY	Left	No	1.05432340002153	0	535032	234
1046.0234375	1	decision	trialStart	3	129	9	foodImage.97	FOODEEG_Images\0905.jpg	NY	Left	No	0.839687800034881	0	535565	251
1047.0625	2	decision	foodImageDisplay	3	129	9	foodImage.97	FOODEEG_Images\0905.jpg	NY	Left	No	0.839687800034881	0	536097	252
1049.125	0.839687800034881	decision	choicePhaseStart	3	129	9	foodImage.97	FOODEEG_Images\0905.jpg	NY	Left	No	0.839687800034881	0	537153	253
1049.958984375	0	decision	response	3	129	9	foodImage.97	FOODEEG_Images\0905.jpg	NY	Left	No	0.839687800034881	0	537580	234
1051.00390625	1	decision	trialStart	3	130	10	foodImage.40	FOODEEG_Images\0373.jpg	NY	Right	Yes	0.97418900008779	0	538115	251
1052.044921875	2	decision	foodImageDisplay	3	130	10	foodImage.40	FOODEEG_Images\0373.jpg	NY	Right	Yes	0.97418900008779	0	538648	252
1054.109375	0.97418900008779	decision	choicePhaseStart	3	130	10	foodImage.40	FOODEEG_Images\0373.jpg	NY	Right	Yes	0.97418900008779	0	539705	253
1055.078125	0	decision	response	3	130	10	foodImage.40	FOODEEG_Images\0373.jpg	NY	Right	Yes	0.97418900008779	0	540201	235
1056.123046875	1	health	trialStart	3	131	11	foodImage.102	FOODEEG_Images\0910.jpg	NY	Left	No	1.60566220001783	0	540736	251
1057.16015625	2	health	foodImageDisplay	3	131	11	foodImage.102	FOODEEG_Images\0910.jpg	NY	Left	No	1.60566220001783	0	541267	252
1059.224609375	1.60566220001783	health	choicePhaseStart	3	131	11	foodImage.102	FOODEEG_Images\0910.jpg	NY	Left	No	1.60566220001783	0	542324	253
1060.822265625	0	health	response	3	131	11	foodImage.102	FOODEEG_Images\0910.jpg	NY	Left	No	1.60566220001783	0	543142	234
1061.861328125	1	health	trialStart	3	132	12	foodImage.96	FOODEEG_Images\0904.jpg	NY	Left	No	0.891549200052395	0	543674	251
1062.900390625	2	health	foodImageDisplay	3	132	12	foodImage.96	FOODEEG_Images\0904.jpg	NY	Left	No	0.891549200052395	0	544206	252
1064.962890625	0.891549200052395	health	choicePhaseStart	3	132	12	foodImage.96	FOODEEG_Images\0904.jpg	NY	Left	No	0.891549200052395	0	545262	253
1065.845703125	0	health	response	3	132	12	foodImage.96	FOODEEG_Images\0904.jpg	NY	Left	No	0.891549200052395	0	545714	234
1066.888671875	1	decision	trialStart	3	133	13	foodImage.15	FOODEEG_Images\0189.jpg	NY	Left	No	2.63238050008658	0	546248	251
1067.9453125	2	decision	foodImageDisplay	3	133	13	foodImage.15	FOODEEG_Images\0189.jpg	NY	Left	No	2.63238050008658	0	546789	252
1070.009765625	2.63238050008658	decision	choicePhaseStart	3	133	13	foodImage.15	FOODEEG_Images\0189.jpg	NY	Left	No	2.63238050008658	0	547846	253
1072.63671875	0	decision	response	3	133	13	foodImage.15	FOODEEG_Images\0189.jpg	NY	Left	No	2.63238050008658	0	549191	234
1073.681640625	1	taste	trialStart	3	134	14	foodImage.33	FOODEEG_Images\0329.jpg	NY	Right	Yes	0.685760200023651	0	549726	251
1074.72265625	2	taste	foodImageDisplay	3	134	14	foodImage.33	FOODEEG_Images\0329.jpg	NY	Right	Yes	0.685760200023651	0	550259	252
1076.78515625	0.685760200023651	taste	choicePhaseStart	3	134	14	foodImage.33	FOODEEG_Images\0329.jpg	NY	Right	Yes	0.685760200023651	0	551315	253
1077.4609375	0	taste	response	3	134	14	foodImage.33	FOODEEG_Images\0329.jpg	NY	Right	Yes	0.685760200023651	0	551661	235
1078.50390625	1	health	trialStart	3	135	15	foodImage.3	FOODEEG_Images\0046.jpg	YN	Right	No	0.900385500048287	0	552195	251
1079.546875	2	health	foodImageDisplay	3	135	15	foodImage.3	FOODEEG_Images\0046.jpg	YN	Right	No	0.900385500048287	0	552729	252
1081.609375	0.900385500048287	health	choicePhaseStart	3	135	15	foodImage.3	FOODEEG_Images\0046.jpg	YN	Right	No	0.900385500048287	0	553785	253
1082.5	0	health	response	3	135	15	foodImage.3	FOODEEG_Images\0046.jpg	YN	Right	No	0.900385500048287	0	554241	235
1083.54296875	1	decision	trialStart	3	136	16	foodImage.22	FOODEEG_Images\0236.jpg	YN	Left	Yes	0.89018450002186	0	554775	251
1084.59375	2	decision	foodImageDisplay	3	136	16	foodImage.22	FOODEEG_Images\0236.jpg	YN	Left	Yes	0.89018450002186	0	555313	252
1086.66015625	0.89018450002186	decision	choicePhaseStart	3	136	16	foodImage.22	FOODEEG_Images\0236.jpg	YN	Left	Yes	0.89018450002186	0	556371	253
1087.541015625	0	decision	response	3	136	16	foodImage.22	FOODEEG_Images\0236.jpg	YN	Left	Yes	0.89018450002186	0	556822	234
1088.583984375	1	decision	trialStart	3	137	17	foodImage.57	FOODEEG_Images\0587.jpg	YN	Left	Yes	2.08019929996226	0	557356	251
1089.646484375	2	decision	foodImageDisplay	3	137	17	foodImage.57	FOODEEG_Images\0587.jpg	YN	Left	Yes	2.08019929996226	0	557900	252
1091.708984375	2.08019929996226	decision	choicePhaseStart	3	137	17	foodImage.57	FOODEEG_Images\0587.jpg	YN	Left	Yes	2.08019929996226	0	558956	253
1093.78125	0	decision	response	3	137	17	foodImage.57	FOODEEG_Images\0587.jpg	YN	Left	Yes	2.08019929996226	0	560017	234
1094.82421875	1	health	trialStart	3	138	18	foodImage.95	FOODEEG_Images\0903.jpg	YN	Right	No	1.49554110004101	0	560551	251
1095.861328125	2	health	foodImageDisplay	3	138	18	foodImage.95	FOODEEG_Images\0903.jpg	YN	Right	No	1.49554110004101	0	561082	252
1097.92578125	1.49554110004101	health	choicePhaseStart	3	138	18	foodImage.95	FOODEEG_Images\0903.jpg	YN	Right	No	1.49554110004101	0	562139	253
1099.412109375	0	health	response	3	138	18	foodImage.95	FOODEEG_Images\0903.jpg	YN	Right	No	1.49554110004101	0	562900	235
1100.45703125	1	taste	trialStart	3	139	19	foodImage.21	FOODEEG_Images\0234.jpg	NY	Right	Yes	1.75188470003195	0	563435	251
1101.515625	2	taste	foodImageDisplay	3	139	19	foodImage.21	FOODEEG_Images\0234.jpg	NY	Right	Yes	1.75188470003195	0	563977	252
1103.578125	1.75188470003195	taste	choicePhaseStart	3	139	19	foodImage.21	FOODEEG_Images\0234.jpg	NY	Right	Yes	1.75188470003195	0	565033	253
1105.32421875	0	taste	response	3	139	19	foodImage.21	FOODEEG_Images\0234.jpg	NY	Right	Yes	1.75188470003195	0	565927	235
1106.3671875	1	taste	trialStart	3	140	20	foodImage.81	FOODEEG_Images\0797.jpg	YN	Right	No	0.732619500020519	0	566461	251
1107.423828125	2	taste	foodImageDisplay	3	140	20	foodImage.81	FOODEEG_Images\0797.jpg	YN	Right	No	0.732619500020519	0	567002	252
1109.48828125	0.732619500020519	taste	choicePhaseStart	3	140	20	foodImage.81	FOODEEG_Images\0797.jpg	YN	Right	No	0.732619500020519	0	568059	253
1110.212890625	0	taste	response	3	140	20	foodImage.81	FOODEEG_Images\0797.jpg	YN	Right	No	0.732619500020519	0	568430	235
1111.25390625	1	decision	trialStart	3	141	21	foodImage.19	FOODEEG_Images\0225.jpg	NY	Left	No	1.63669409998693	0	568963	251
1112.296875	2	decision	foodImageDisplay	3	141	21	foodImage.19	FOODEEG_Images\0225.jpg	NY	Left	No	1.63669409998693	0	569497	252
1114.361328125	1.63669409998693	decision	choicePhaseStart	3	141	21	foodImage.19	FOODEEG_Images\0225.jpg	NY	Left	No	1.63669409998693	0	570554	253
1115.98828125	0	decision	response	3	141	21	foodImage.19	FOODEEG_Images\0225.jpg	NY	Left	No	1.63669409998693	0	571387	234
1117.03125	1	health	trialStart	3	142	22	foodImage.64	FOODEEG_Images\0647.jpg	NY	Right	Yes	0.802441200008616	0	571921	251
1118.08984375	2	health	foodImageDisplay	3	142	22	foodImage.64	FOODEEG_Images\0647.jpg	NY	Right	Yes	0.802441200008616	0	572463	252
1120.15234375	0.802441200008616	health	choicePhaseStart	3	142	22	foodImage.64	FOODEEG_Images\0647.jpg	NY	Right	Yes	0.802441200008616	0	573519	253
1120.947265625	0	health	response	3	142	22	foodImage.64	FOODEEG_Images\0647.jpg	NY	Right	Yes	0.802441200008616	0	573926	235
1121.98828125	1	taste	trialStart	3	143	23	foodImage.49	FOODEEG_Images\0515.jpg	NY	Right	Yes	1.00352110003587	0	574459	251
1123.029296875	2	taste	foodImageDisplay	3	143	23	foodImage.49	FOODEEG_Images\0515.jpg	NY	Right	Yes	1.00352110003587	0	574992	252
1125.09375	1.00352110003587	taste	choicePhaseStart	3	143	23	foodImage.49	FOODEEG_Images\0515.jpg	NY	Right	Yes	1.00352110003587	0	576049	253
1126.091796875	0	taste	response	3	143	23	foodImage.49	FOODEEG_Images\0515.jpg	NY	Right	Yes	1.00352110003587	0	576560	235
1127.134765625	1	taste	trialStart	3	144	24	foodImage.96	FOODEEG_Images\0904.jpg	NY	Right	Yes	3.49057539994828	0	577094	251
1128.171875	2	taste	foodImageDisplay	3	144	24	foodImage.96	FOODEEG_Images\0904.jpg	NY	Right	Yes	3.49057539994828	0	577625	252
1130.234375	3.49057539994828	taste	choicePhaseStart	3	144	24	foodImage.96	FOODEEG_Images\0904.jpg	NY	Right	Yes	3.49057539994828	0	578681	253
1133.71484375	0	taste	response	3	144	24	foodImage.96	FOODEEG_Images\0904.jpg	NY	Right	Yes	3.49057539994828	0	580463	235
1134.759765625	1	decision	trialStart	3	145	25	foodImage.48	FOODEEG_Images\0494.jpg	YN	Left	Yes	1.03514289995655	0	580998	251
1135.80078125	2	decision	foodImageDisplay	3	145	25	foodImage.48	FOODEEG_Images\0494.jpg	YN	Left	Yes	1.03514289995655	0	581531	252
1137.865234375	1.03514289995655	decision	choicePhaseStart	3	145	25	foodImage.48	FOODEEG_Images\0494.jpg	YN	Left	Yes	1.03514289995655	0	582588	253
1138.890625	0	decision	response	3	145	25	foodImage.48	FOODEEG_Images\0494.jpg	YN	Left	Yes	1.03514289995655	0	583113	234
1139.93359375	1	decision	trialStart	3	146	26	foodImage.72	FOODEEG_Images\0714.jpg	NY	Left	No	0.954758899984881	0	583647	251
1140.998046875	2	decision	foodImageDisplay	3	146	26	foodImage.72	FOODEEG_Images\0714.jpg	NY	Left	No	0.954758899984881	0	584192	252
1143.064453125	0.954758899984881	decision	choicePhaseStart	3	146	26	foodImage.72	FOODEEG_Images\0714.jpg	NY	Left	No	0.954758899984881	0	585250	253
1144.009765625	0	decision	response	3	146	26	foodImage.72	FOODEEG_Images\0714.jpg	NY	Left	No	0.954758899984881	0	585734	234
1145.052734375	1	health	trialStart	3	147	27	foodImage.104	FOODEEG_Images\0912.jpg	YN	Right	No	1.96256560005713	0	586268	251
1146.091796875	2	health	foodImageDisplay	3	147	27	foodImage.104	FOODEEG_Images\0912.jpg	YN	Right	No	1.96256560005713	0	586800	252
1148.162109375	1.96256560005713	health	choicePhaseStart	3	147	27	foodImage.104	FOODEEG_Images\0912.jpg	YN	Right	No	1.96256560005713	0	587860	253
1150.115234375	0	health	response	3	147	27	foodImage.104	FOODEEG_Images\0912.jpg	YN	Right	No	1.96256560005713	0	588860	235
1151.15625	1	taste	trialStart	3	148	28	foodImage.2	FOODEEG_Images\0028.jpg	NY	Right	Yes	1.77993179997429	0	589393	251
1152.197265625	2	taste	foodImageDisplay	3	148	28	foodImage.2	FOODEEG_Images\0028.jpg	NY	Right	Yes	1.77993179997429	0	589926	252
1154.263671875	1.77993179997429	taste	choicePhaseStart	3	148	28	foodImage.2	FOODEEG_Images\0028.jpg	NY	Right	Yes	1.77993179997429	0	590984	253
1156.033203125	0	taste	response	3	148	28	foodImage.2	FOODEEG_Images\0028.jpg	NY	Right	Yes	1.77993179997429	0	591890	235
1157.078125	1	taste	trialStart	3	149	29	foodImage.103	FOODEEG_Images\0911.jpg	NY	Left	No	1.79232799995225	0	592425	251
1158.115234375	2	taste	foodImageDisplay	3	149	29	foodImage.103	FOODEEG_Images\0911.jpg	NY	Left	No	1.79232799995225	0	592956	252
1160.1796875	1.79232799995225	taste	choicePhaseStart	3	149	29	foodImage.103	FOODEEG_Images\0911.jpg	NY	Left	No	1.79232799995225	0	594013	253
1161.962890625	0	taste	response	3	149	29	foodImage.103	FOODEEG_Images\0911.jpg	NY	Left	No	1.79232799995225	0	594926	234
1163.0078125	1	decision	trialStart	3	150	30	foodImage.37	FOODEEG_Images\0359.jpg	YN	Left	Yes	1.52221880003344	0	595461	251
1164.048828125	2	decision	foodImageDisplay	3	150	30	foodImage.37	FOODEEG_Images\0359.jpg	YN	Left	Yes	1.52221880003344	0	595994	252
1166.11328125	1.52221880003344	decision	choicePhaseStart	3	150	30	foodImage.37	FOODEEG_Images\0359.jpg	YN	Left	Yes	1.52221880003344	0	597051	253
1167.625	0	decision	response	3	150	30	foodImage.37	FOODEEG_Images\0359.jpg	YN	Left	Yes	1.52221880003344	0	597825	234
1168.66796875	1	decision	trialStart	3	151	31	foodImage.33	FOODEEG_Images\0329.jpg	NY	Right	Yes	0.918720899964683	0	598359	251
1169.70703125	2	decision	foodImageDisplay	3	151	31	foodImage.33	FOODEEG_Images\0329.jpg	NY	Right	Yes	0.918720899964683	0	598891	252
1171.771484375	0.918720899964683	decision	choicePhaseStart	3	151	31	foodImage.33	FOODEEG_Images\0329.jpg	NY	Right	Yes	0.918720899964683	0	599948	253
1172.681640625	0	decision	response	3	151	31	foodImage.33	FOODEEG_Images\0329.jpg	NY	Right	Yes	0.918720899964683	0	600414	235
1173.72265625	1	decision	trialStart	3	152	32	foodImage.42	FOODEEG_Images\0438.jpg	YN	Right	No	1.34150069998577	0	600947	251
1174.810546875	2	decision	foodImageDisplay	3	152	32	foodImage.42	FOODEEG_Images\0438.jpg	YN	Right	No	1.34150069998577	0	601504	252
1176.875	1.34150069998577	decision	choicePhaseStart	3	152	32	foodImage.42	FOODEEG_Images\0438.jpg	YN	Right	No	1.34150069998577	0	602561	253
1178.208984375	0	decision	response	3	152	32	foodImage.42	FOODEEG_Images\0438.jpg	YN	Right	No	1.34150069998577	0	603244	235
1179.251953125	1	decision	trialStart	3	153	33	foodImage.59	FOODEEG_Images\0607.jpg	YN	Right	No	2.64841180003714	0	603778	251
1180.306640625	2	decision	foodImageDisplay	3	153	33	foodImage.59	FOODEEG_Images\0607.jpg	YN	Right	No	2.64841180003714	0	604318	252
1182.369140625	2.64841180003714	decision	choicePhaseStart	3	153	33	foodImage.59	FOODEEG_Images\0607.jpg	YN	Right	No	2.64841180003714	0	605374	253
1185.009765625	0	decision	response	3	153	33	foodImage.59	FOODEEG_Images\0607.jpg	YN	Right	No	2.64841180003714	0	606726	235
1186.05078125	1	decision	trialStart	3	154	34	foodImage.112	FOODEEG_Images\0920.jpg	YN	Right	No	0.816684699966572	0	607259	251
1187.08984375	2	decision	foodImageDisplay	3	154	34	foodImage.112	FOODEEG_Images\0920.jpg	YN	Right	No	0.816684699966572	0	607791	252
1189.154296875	0.816684699966572	decision	choicePhaseStart	3	154	34	foodImage.112	FOODEEG_Images\0920.jpg	YN	Right	No	0.816684699966572	0	608848	253
1189.9609375	0	decision	response	3	154	34	foodImage.112	FOODEEG_Images\0920.jpg	YN	Right	No	0.816684699966572	0	609261	235
1191.00390625	1	health	trialStart	3	155	35	foodImage.118	FOODEEG_Images\0926.jpg	YN	Right	No	1.71272509999108	0	609795	251
1192.04296875	2	health	foodImageDisplay	3	155	35	foodImage.118	FOODEEG_Images\0926.jpg	YN	Right	No	1.71272509999108	0	610327	252
1194.10546875	1.71272509999108	health	choicePhaseStart	3	155	35	foodImage.118	FOODEEG_Images\0926.jpg	YN	Right	No	1.71272509999108	0	611383	253
1195.80859375	0	health	response	3	155	35	foodImage.118	FOODEEG_Images\0926.jpg	YN	Right	No	1.71272509999108	0	612255	235
1196.8515625	1	decision	trialStart	3	156	36	foodImage.38	FOODEEG_Images\0365.jpg	YN	Left	Yes	1.39361759996973	0	612789	251
1197.888671875	2	decision	foodImageDisplay	3	156	36	foodImage.38	FOODEEG_Images\0365.jpg	YN	Left	Yes	1.39361759996973	0	613320	252
1199.951171875	1.39361759996973	decision	choicePhaseStart	3	156	36	foodImage.38	FOODEEG_Images\0365.jpg	YN	Left	Yes	1.39361759996973	0	614376	253
1201.3359375	0	decision	response	3	156	36	foodImage.38	FOODEEG_Images\0365.jpg	YN	Left	Yes	1.39361759996973	0	615085	234
1202.37890625	1	decision	trialStart	3	157	37	foodImage.104	FOODEEG_Images\0912.jpg	YN	Left	Yes	1.25725469994359	0	615619	251
1203.41796875	2	decision	foodImageDisplay	3	157	37	foodImage.104	FOODEEG_Images\0912.jpg	YN	Left	Yes	1.25725469994359	0	616151	252
1205.48046875	1.25725469994359	decision	choicePhaseStart	3	157	37	foodImage.104	FOODEEG_Images\0912.jpg	YN	Left	Yes	1.25725469994359	0	617207	253
1206.728515625	0	decision	response	3	157	37	foodImage.104	FOODEEG_Images\0912.jpg	YN	Left	Yes	1.25725469994359	0	617846	234
1207.771484375	1	decision	trialStart	3	158	38	foodImage.82	FOODEEG_Images\0805.jpg	NY	Left	No	0.845236500026658	0	618380	251
1208.828125	2	decision	foodImageDisplay	3	158	38	foodImage.82	FOODEEG_Images\0805.jpg	NY	Left	No	0.845236500026658	0	618921	252
1210.892578125	0.845236500026658	decision	choicePhaseStart	3	158	38	foodImage.82	FOODEEG_Images\0805.jpg	NY	Left	No	0.845236500026658	0	619978	253
1211.728515625	0	decision	response	3	158	38	foodImage.82	FOODEEG_Images\0805.jpg	NY	Left	No	0.845236500026658	0	620406	234
1212.771484375	1	taste	trialStart	3	159	39	foodImage.113	FOODEEG_Images\0921.jpg	YN	Right	No	1.12807410000823	0	620940	251
1213.80859375	2	taste	foodImageDisplay	3	159	39	foodImage.113	FOODEEG_Images\0921.jpg	YN	Right	No	1.12807410000823	0	621471	252
1215.873046875	1.12807410000823	taste	choicePhaseStart	3	159	39	foodImage.113	FOODEEG_Images\0921.jpg	YN	Right	No	1.12807410000823	0	622528	253
1216.9921875	0	taste	response	3	159	39	foodImage.113	FOODEEG_Images\0921.jpg	YN	Right	No	1.12807410000823	0	623101	235
1218.037109375	1	taste	trialStart	3	160	40	foodImage.97	FOODEEG_Images\0905.jpg	YN	Right	No	1.2205259000184	0	623636	251
1219.076171875	2	taste	foodImageDisplay	3	160	40	foodImage.97	FOODEEG_Images\0905.jpg	YN	Right	No	1.2205259000184	0	624168	252
1221.140625	1.2205259000184	taste	choicePhaseStart	3	160	40	foodImage.97	FOODEEG_Images\0905.jpg	YN	Right	No	1.2205259000184	0	625225	253
1222.3515625	0	taste	response	3	160	40	foodImage.97	FOODEEG_Images\0905.jpg	YN	Right	No	1.2205259000184	0	625845	235
1223.39453125	1	health	trialStart	3	161	41	foodImage.9	FOODEEG_Images\0138.jpg	YN	Right	No	1.16285620001145	0	626379	251
1224.453125	2	health	foodImageDisplay	3	161	41	foodImage.9	FOODEEG_Images\0138.jpg	YN	Right	No	1.16285620001145	0	626921	252
1226.517578125	1.16285620001145	health	choicePhaseStart	3	161	41	foodImage.9	FOODEEG_Images\0138.jpg	YN	Right	No	1.16285620001145	0	627978	253
1227.671875	0	health	response	3	161	41	foodImage.9	FOODEEG_Images\0138.jpg	YN	Right	No	1.16285620001145	0	628569	235
1228.71484375	1	taste	trialStart	3	162	42	foodImage.94	FOODEEG_Images\0902.jpg	NY	Left	No	1.86140330007765	0	629103	251
1229.75390625	2	taste	foodImageDisplay	3	162	42	foodImage.94	FOODEEG_Images\0902.jpg	NY	Left	No	1.86140330007765	0	629635	252
1231.81640625	1.86140330007765	taste	choicePhaseStart	3	162	42	foodImage.94	FOODEEG_Images\0902.jpg	NY	Left	No	1.86140330007765	0	630691	253
1233.669921875	0	taste	response	3	162	42	foodImage.94	FOODEEG_Images\0902.jpg	NY	Left	No	1.86140330007765	0	631640	234
1234.71484375	1	taste	trialStart	3	163	43	foodImage.111	FOODEEG_Images\0919.jpg	YN	Right	No	1.0648733000271	0	632175	251
1235.751953125	2	taste	foodImageDisplay	3	163	43	foodImage.111	FOODEEG_Images\0919.jpg	YN	Right	No	1.0648733000271	0	632706	252
1237.814453125	1.0648733000271	taste	choicePhaseStart	3	163	43	foodImage.111	FOODEEG_Images\0919.jpg	YN	Right	No	1.0648733000271	0	633762	253
1238.87109375	0	taste	response	3	163	43	foodImage.111	FOODEEG_Images\0919.jpg	YN	Right	No	1.0648733000271	0	634303	235
1239.91796875	1	taste	trialStart	3	164	44	foodImage.28	FOODEEG_Images\0273.jpg	YN	Right	No	2.32432759995572	0	634839	251
1240.9609375	2	taste	foodImageDisplay	3	164	44	foodImage.28	FOODEEG_Images\0273.jpg	YN	Right	No	2.32432759995572	0	635373	252
1243.025390625	2.32432759995572	taste	choicePhaseStart	3	164	44	foodImage.28	FOODEEG_Images\0273.jpg	YN	Right	No	2.32432759995572	0	636430	253
1245.341796875	0	taste	response	3	164	44	foodImage.28	FOODEEG_Images\0273.jpg	YN	Right	No	2.32432759995572	0	637616	235
1246.384765625	1	health	trialStart	3	165	45	foodImage.72	FOODEEG_Images\0714.jpg	NY	Right	Yes	1.66117229999509	0	638150	251
1247.427734375	2	health	foodImageDisplay	3	165	45	foodImage.72	FOODEEG_Images\0714.jpg	NY	Right	Yes	1.66117229999509	0	638684	252
1249.49609375	1.66117229999509	health	choicePhaseStart	3	165	45	foodImage.72	FOODEEG_Images\0714.jpg	NY	Right	Yes	1.66117229999509	0	639743	253
1251.150390625	0	health	response	3	165	45	foodImage.72	FOODEEG_Images\0714.jpg	NY	Right	Yes	1.66117229999509	0	640590	235
1252.19140625	1	health	trialStart	3	166	46	foodImage.80	FOODEEG_Images\0796.jpg	YN	Left	Yes	1.12789869995322	0	641123	251
1253.25	2	health	foodImageDisplay	3	166	46	foodImage.80	FOODEEG_Images\0796.jpg	YN	Left	Yes	1.12789869995322	0	641665	252
1255.3125	1.12789869995322	health	choicePhaseStart	3	166	46	foodImage.80	FOODEEG_Images\0796.jpg	YN	Left	Yes	1.12789869995322	0	642721	253
1256.4296875	0	health	response	3	166	46	foodImage.80	FOODEEG_Images\0796.jpg	YN	Left	Yes	1.12789869995322	0	643293	234
1257.47265625	1	decision	trialStart	3	167	47	foodImage.75	FOODEEG_Images\0763.jpg	YN	Left	Yes	1.56182750000153	0	643827	251
1258.517578125	2	decision	foodImageDisplay	3	167	47	foodImage.75	FOODEEG_Images\0763.jpg	YN	Left	Yes	1.56182750000153	0	644362	252
1260.58203125	1.56182750000153	decision	choicePhaseStart	3	167	47	foodImage.75	FOODEEG_Images\0763.jpg	YN	Left	Yes	1.56182750000153	0	645419	253
1262.134765625	0	decision	response	3	167	47	foodImage.75	FOODEEG_Images\0763.jpg	YN	Left	Yes	1.56182750000153	0	646214	234
1263.1796875	1	decision	trialStart	3	168	48	foodImage.8	FOODEEG_Images\0136.jpg	NY	Right	Yes	1.866733700037	0	646749	251
1264.22265625	2	decision	foodImageDisplay	3	168	48	foodImage.8	FOODEEG_Images\0136.jpg	NY	Right	Yes	1.866733700037	0	647283	252
1266.291015625	1.866733700037	decision	choicePhaseStart	3	168	48	foodImage.8	FOODEEG_Images\0136.jpg	NY	Right	Yes	1.866733700037	0	648342	253
1268.150390625	0	decision	response	3	168	48	foodImage.8	FOODEEG_Images\0136.jpg	NY	Right	Yes	1.866733700037	0	649294	235
1269.19140625	1	health	trialStart	3	169	49	foodImage.70	FOODEEG_Images\0705.jpg	NY	Left	No	1.70379990001675	0	649827	251
1270.248046875	2	health	foodImageDisplay	3	169	49	foodImage.70	FOODEEG_Images\0705.jpg	NY	Left	No	1.70379990001675	0	650368	252
1272.310546875	1.70379990001675	health	choicePhaseStart	3	169	49	foodImage.70	FOODEEG_Images\0705.jpg	NY	Left	No	1.70379990001675	0	651424	253
1274.005859375	0	health	response	3	169	49	foodImage.70	FOODEEG_Images\0705.jpg	NY	Left	No	1.70379990001675	0	652292	234
1275.048828125	1	taste	trialStart	3	170	50	foodImage.42	FOODEEG_Images\0438.jpg	NY	Left	No	0.818563600070775	0	652826	251
1276.13671875	2	taste	foodImageDisplay	3	170	50	foodImage.42	FOODEEG_Images\0438.jpg	NY	Left	No	0.818563600070775	0	653383	252
1278.203125	0.818563600070775	taste	choicePhaseStart	3	170	50	foodImage.42	FOODEEG_Images\0438.jpg	NY	Left	No	0.818563600070775	0	654441	253
1279.013671875	0	taste	response	3	170	50	foodImage.42	FOODEEG_Images\0438.jpg	NY	Left	No	0.818563600070775	0	654856	234
1280.056640625	1	health	trialStart	3	171	51	foodImage.100	FOODEEG_Images\0908.jpg	YN	Left	Yes	2.13854359998368	0	655390	251
1281.1015625	2	health	foodImageDisplay	3	171	51	foodImage.100	FOODEEG_Images\0908.jpg	YN	Left	Yes	2.13854359998368	0	655925	252
1283.1640625	2.13854359998368	health	choicePhaseStart	3	171	51	foodImage.100	FOODEEG_Images\0908.jpg	YN	Left	Yes	2.13854359998368	0	656981	253
1285.29296875	0	health	response	3	171	51	foodImage.100	FOODEEG_Images\0908.jpg	YN	Left	Yes	2.13854359998368	0	658071	234
1286.3359375	1	taste	trialStart	3	172	52	foodImage.19	FOODEEG_Images\0225.jpg	YN	Right	No	3.54170529998373	0	658605	251
1287.376953125	2	taste	foodImageDisplay	3	172	52	foodImage.19	FOODEEG_Images\0225.jpg	YN	Right	No	3.54170529998373	0	659138	252
1289.44140625	3.54170529998373	taste	choicePhaseStart	3	172	52	foodImage.19	FOODEEG_Images\0225.jpg	YN	Right	No	3.54170529998373	0	660195	253
1292.97265625	0	taste	response	3	172	52	foodImage.19	FOODEEG_Images\0225.jpg	YN	Right	No	3.54170529998373	0	662003	235
1294.015625	1	decision	trialStart	3	173	53	foodImage.55	FOODEEG_Images\0567.jpg	NY	Left	No	0.914030399988405	0	662537	251
1295.076171875	2	decision	foodImageDisplay	3	173	53	foodImage.55	FOODEEG_Images\0567.jpg	NY	Left	No	0.914030399988405	0	663080	252
1297.140625	0.914030399988405	decision	choicePhaseStart	3	173	53	foodImage.55	FOODEEG_Images\0567.jpg	NY	Left	No	0.914030399988405	0	664137	253
1298.044921875	0	decision	response	3	173	53	foodImage.55	FOODEEG_Images\0567.jpg	NY	Left	No	0.914030399988405	0	664600	234
1299.0859375	1	decision	trialStart	3	174	54	foodImage.62	FOODEEG_Images\0644.jpg	YN	Right	No	1.02761129999999	0	665133	251
1300.146484375	2	decision	foodImageDisplay	3	174	54	foodImage.62	FOODEEG_Images\0644.jpg	YN	Right	No	1.02761129999999	0	665676	252
1302.208984375	1.02761129999999	decision	choicePhaseStart	3	174	54	foodImage.62	FOODEEG_Images\0644.jpg	YN	Right	No	1.02761129999999	0	666732	253
1303.228515625	0	decision	response	3	174	54	foodImage.62	FOODEEG_Images\0644.jpg	YN	Right	No	1.02761129999999	0	667254	235
1304.26953125	1	decision	trialStart	3	175	55	foodImage.115	FOODEEG_Images\0923.jpg	YN	Right	No	0.721322300028987	0	667787	251
1305.30859375	2	decision	foodImageDisplay	3	175	55	foodImage.115	FOODEEG_Images\0923.jpg	YN	Right	No	0.721322300028987	0	668319	252
1307.37109375	0.721322300028987	decision	choicePhaseStart	3	175	55	foodImage.115	FOODEEG_Images\0923.jpg	YN	Right	No	0.721322300028987	0	669375	253
1308.083984375	0	decision	response	3	175	55	foodImage.115	FOODEEG_Images\0923.jpg	YN	Right	No	0.721322300028987	0	669740	235
1309.126953125	1	decision	trialStart	3	176	56	foodImage.64	FOODEEG_Images\0647.jpg	NY	Right	Yes	1.62862460000906	0	670274	251
1310.18359375	2	decision	foodImageDisplay	3	176	56	foodImage.64	FOODEEG_Images\0647.jpg	NY	Right	Yes	1.62862460000906	0	670815	252
1312.248046875	1.62862460000906	decision	choicePhaseStart	3	176	56	foodImage.64	FOODEEG_Images\0647.jpg	NY	Right	Yes	1.62862460000906	0	671872	253
1313.8671875	0	decision	response	3	176	56	foodImage.64	FOODEEG_Images\0647.jpg	NY	Right	Yes	1.62862460000906	0	672701	235
1314.912109375	1	taste	trialStart	3	177	57	foodImage.71	FOODEEG_Images\0713.jpg	NY	Right	Yes	0.849375799996778	0	673236	251
1315.97265625	2	taste	foodImageDisplay	3	177	57	foodImage.71	FOODEEG_Images\0713.jpg	NY	Right	Yes	0.849375799996778	0	673779	252
1318.037109375	0.849375799996778	taste	choicePhaseStart	3	177	57	foodImage.71	FOODEEG_Images\0713.jpg	NY	Right	Yes	0.849375799996778	0	674836	253
1318.875	0	taste	response	3	177	57	foodImage.71	FOODEEG_Images\0713.jpg	NY	Right	Yes	0.849375799996778	0	675265	235
1319.91796875	1	health	trialStart	3	178	58	foodImage.74	FOODEEG_Images\0752.jpg	YN	Left	Yes	1.05120879993774	0	675799	251
1320.962890625	2	health	foodImageDisplay	3	178	58	foodImage.74	FOODEEG_Images\0752.jpg	YN	Left	Yes	1.05120879993774	0	676334	252
1323.025390625	1.05120879993774	health	choicePhaseStart	3	178	58	foodImage.74	FOODEEG_Images\0752.jpg	YN	Left	Yes	1.05120879993774	0	677390	253
1324.068359375	0	health	response	3	178	58	foodImage.74	FOODEEG_Images\0752.jpg	YN	Left	Yes	1.05120879993774	0	677924	234
1325.111328125	1	decision	trialStart	3	179	59	foodImage.100	FOODEEG_Images\0908.jpg	NY	Right	Yes	1.6416479999898	0	678458	251
1326.1484375	2	decision	foodImageDisplay	3	179	59	foodImage.100	FOODEEG_Images\0908.jpg	NY	Right	Yes	1.6416479999898	0	678989	252
1328.2109375	1.6416479999898	decision	choicePhaseStart	3	179	59	foodImage.100	FOODEEG_Images\0908.jpg	NY	Right	Yes	1.6416479999898	0	680045	253
1329.84375	0	decision	response	3	179	59	foodImage.100	FOODEEG_Images\0908.jpg	NY	Right	Yes	1.6416479999898	0	680881	235
1330.88671875	1	health	trialStart	3	180	60	foodImage.54	FOODEEG_Images\0560.jpg	YN	Left	Yes	2.34786270000041	0	681415	251
1331.9453125	2	health	foodImageDisplay	3	180	60	foodImage.54	FOODEEG_Images\0560.jpg	YN	Left	Yes	2.34786270000041	0	681957	252
1334.013671875	2.34786270000041	health	choicePhaseStart	3	180	60	foodImage.54	FOODEEG_Images\0560.jpg	YN	Left	Yes	2.34786270000041	0	683016	253
1336.35546875	0	health	response	3	180	60	foodImage.54	FOODEEG_Images\0560.jpg	YN	Left	Yes	2.34786270000041	0	684215	234
1338.3984375	45.00390625	n/a	blockEnd	n/a	n/a	n/a	n/a	n/a	n/a	n/a	n/a	n/a	n/a	685261	254
1383.40234375	2	n/a	blockStart	4	n/a	n/a	n/a	n/a	n/a	n/a	n/a	n/a	n/a	708303	250
1385.43359375	1	decision	trialStart	4	181	1	foodImage.107	FOODEEG_Images\0915.jpg	NY	Left	No	1.4891820999328	0	709343	251
1386.47265625	2	decision	foodImageDisplay	4	181	1	foodImage.107	FOODEEG_Images\0915.jpg	NY	Left	No	1.4891820999328	0	709875	252
1388.537109375	1.4891820999328	decision	choicePhaseStart	4	181	1	foodImage.107	FOODEEG_Images\0915.jpg	NY	Left	No	1.4891820999328	0	710932	253
1390.015625	0	decision	response	4	181	1	foodImage.107	FOODEEG_Images\0915.jpg	NY	Left	No	1.4891820999328	0	711689	234
1391.05859375	1	decision	trialStart	4	182	2	foodImage.31	FOODEEG_Images\0294.jpg	NY	Left	No	1.1274565999629	0	712223	251
1392.099609375	2	decision	foodImageDisplay	4	182	2	foodImage.31	FOODEEG_Images\0294.jpg	NY	Left	No	1.1274565999629	0	712756	252
1394.162109375	1.1274565999629	decision	choicePhaseStart	4	182	2	foodImage.31	FOODEEG_Images\0294.jpg	NY	Left	No	1.1274565999629	0	713812	253
1395.28125	0	decision	response	4	182	2	foodImage.31	FOODEEG_Images\0294.jpg	NY	Left	No	1.1274565999629	0	714385	234
1396.32421875	1	decision	trialStart	4	183	3	foodImage.30	FOODEEG_Images\0282.jpg	NY	Right	Yes	0.763812499935739	0	714919	251
1397.365234375	2	decision	foodImageDisplay	4	183	3	foodImage.30	FOODEEG_Images\0282.jpg	NY	Right	Yes	0.763812499935739	0	715452	252
1399.4296875	0.763812499935739	decision	choicePhaseStart	4	183	3	foodImage.30	FOODEEG_Images\0282.jpg	NY	Right	Yes	0.763812499935739	0	716509	253
1400.18359375	0	decision	response	4	183	3	foodImage.30	FOODEEG_Images\0282.jpg	NY	Right	Yes	0.763812499935739	0	716895	235
1401.2265625	1	taste	trialStart	4	184	4	foodImage.7	FOODEEG_Images\0116.jpg	NY	Right	Yes	1.10149629996158	0	717429	251
1402.267578125	2	taste	foodImageDisplay	4	184	4	foodImage.7	FOODEEG_Images\0116.jpg	NY	Right	Yes	1.10149629996158	0	717962	252
1404.33203125	1.10149629996158	taste	choicePhaseStart	4	184	4	foodImage.7	FOODEEG_Images\0116.jpg	NY	Right	Yes	1.10149629996158	0	719019	253
1405.423828125	0	taste	response	4	184	4	foodImage.7	FOODEEG_Images\0116.jpg	NY	Right	Yes	1.10149629996158	0	719578	235
1406.466796875	1	decision	trialStart	4	185	5	foodImage.24	FOODEEG_Images\0250.jpg	YN	Left	Yes	0.90847149991896	0	720112	251
1407.5078125	2	decision	foodImageDisplay	4	185	5	foodImage.24	FOODEEG_Images\0250.jpg	YN	Left	Yes	0.90847149991896	0	720645	252
1409.572265625	0.90847149991896	decision	choicePhaseStart	4	185	5	foodImage.24	FOODEEG_Images\0250.jpg	YN	Left	Yes	0.90847149991896	0	721702	253
1410.47265625	0	decision	response	4	185	5	foodImage.24	FOODEEG_Images\0250.jpg	YN	Left	Yes	0.90847149991896	0	722163	234
1411.515625	1	health	trialStart	4	186	6	foodImage.8	FOODEEG_Images\0136.jpg	NY	Right	Yes	1.44504350004718	0	722697	251
1412.556640625	2	health	foodImageDisplay	4	186	6	foodImage.8	FOODEEG_Images\0136.jpg	NY	Right	Yes	1.44504350004718	0	723230	252
1414.62109375	1.44504350004718	health	choicePhaseStart	4	186	6	foodImage.8	FOODEEG_Images\0136.jpg	NY	Right	Yes	1.44504350004718	0	724287	253
1416.056640625	0	health	response	4	186	6	foodImage.8	FOODEEG_Images\0136.jpg	NY	Right	Yes	1.44504350004718	0	725022	235
1417.099609375	1	health	trialStart	4	187	7	foodImage.53	FOODEEG_Images\0547.jpg	YN	Right	No	1.72213349991944	0	725556	251
1418.16015625	2	health	foodImageDisplay	4	187	7	foodImage.53	FOODEEG_Images\0547.jpg	YN	Right	No	1.72213349991944	0	726099	252
1420.22265625	1.72213349991944	health	choicePhaseStart	4	187	7	foodImage.53	FOODEEG_Images\0547.jpg	YN	Right	No	1.72213349991944	0	727155	253
1421.935546875	0	health	response	4	187	7	foodImage.53	FOODEEG_Images\0547.jpg	YN	Right	No	1.72213349991944	0	728032	235
1422.978515625	1	taste	trialStart	4	188	8	foodImage.93	FOODEEG_Images\0901.jpg	NY	Left	No	1.74469019996468	0	728566	251
1424.015625	2	taste	foodImageDisplay	4	188	8	foodImage.93	FOODEEG_Images\0901.jpg	NY	Left	No	1.74469019996468	0	729097	252
1426.080078125	1.74469019996468	taste	choicePhaseStart	4	188	8	foodImage.93	FOODEEG_Images\0901.jpg	NY	Left	No	1.74469019996468	0	730154	253
1427.81640625	0	taste	response	4	188	8	foodImage.93	FOODEEG_Images\0901.jpg	NY	Left	No	1.74469019996468	0	731043	234
1428.857421875	1	decision	trialStart	4	189	9	foodImage.20	FOODEEG_Images\0226.jpg	NY	Left	No	1.56423770007677	0	731576	251
1429.900390625	2	decision	foodImageDisplay	4	189	9	foodImage.20	FOODEEG_Images\0226.jpg	NY	Left	No	1.56423770007677	0	732110	252
1431.96484375	1.56423770007677	decision	choicePhaseStart	4	189	9	foodImage.20	FOODEEG_Images\0226.jpg	NY	Left	No	1.56423770007677	0	733167	253
1433.51953125	0	decision	response	4	189	9	foodImage.20	FOODEEG_Images\0226.jpg	NY	Left	No	1.56423770007677	0	733963	234
1434.5625	1	decision	trialStart	4	190	10	foodImage.113	FOODEEG_Images\0921.jpg	YN	Right	No	1.07921490003355	0	734497	251
1435.6015625	2	decision	foodImageDisplay	4	190	10	foodImage.113	FOODEEG_Images\0921.jpg	YN	Right	No	1.07921490003355	0	735029	252
1437.6640625	1.07921490003355	decision	choicePhaseStart	4	190	10	foodImage.113	FOODEEG_Images\0921.jpg	YN	Right	No	1.07921490003355	0	736085	253
1438.734375	0	decision	response	4	190	10	foodImage.113	FOODEEG_Images\0921.jpg	YN	Right	No	1.07921490003355	0	736633	235
1439.77734375	1	health	trialStart	4	191	11	foodImage.117	FOODEEG_Images\0925.jpg	NY	Left	No	3.71276929997839	0	737167	251
1440.81640625	2	health	foodImageDisplay	4	191	11	foodImage.117	FOODEEG_Images\0925.jpg	NY	Left	No	3.71276929997839	0	737699	252
1442.88671875	3.71276929997839	health	choicePhaseStart	4	191	11	foodImage.117	FOODEEG_Images\0925.jpg	NY	Left	No	3.71276929997839	0	738759	253
1446.58984375	0	health	response	4	191	11	foodImage.117	FOODEEG_Images\0925.jpg	NY	Left	No	3.71276929997839	0	740655	234
1447.6328125	1	health	trialStart	4	192	12	foodImage.34	FOODEEG_Images\0339.jpg	NY	Left	No	0.995917099993676	0	741189	251
1448.693359375	2	health	foodImageDisplay	4	192	12	foodImage.34	FOODEEG_Images\0339.jpg	NY	Left	No	0.995917099993676	0	741732	252
1450.755859375	0.995917099993676	health	choicePhaseStart	4	192	12	foodImage.34	FOODEEG_Images\0339.jpg	NY	Left	No	0.995917099993676	0	742788	253
1451.7421875	0	health	response	4	192	12	foodImage.34	FOODEEG_Images\0339.jpg	NY	Left	No	0.995917099993676	0	743293	234
1452.78515625	1	taste	trialStart	4	193	13	foodImage.12	FOODEEG_Images\0181.jpg	NY	Right	Yes	0.7339939000085	0	743827	251
1453.826171875	2	taste	foodImageDisplay	4	193	13	foodImage.12	FOODEEG_Images\0181.jpg	NY	Right	Yes	0.7339939000085	0	744360	252
