onset	duration	trial_type	event_type	block	trial_total	trial_in_block	food_image_code	food_image_path	button_position	resp_position	resp_choice	choice_rt	resp_too_slow	sample	trigger
357.755859375	2	n/a	blockStart	1	n/a	n/a	n/a	n/a	n/a	n/a	n/a	n/a	n/a	183172	250
359.791015625	1	health	trialStart	1	1	1	foodImage.92	FOODEEG_Images\0900.jpg	NY	Left	No	0.938656399957836	0	184214	251
360.833984375	2	health	foodImageDisplay	1	1	1	foodImage.92	FOODEEG_Images\0900.jpg	NY	Left	No	0.938656399957836	0	184748	252
362.900390625	0.938656399957836	health	choicePhaseStart	1	1	1	foodImage.92	FOODEEG_Images\0900.jpg	NY	Left	No	0.938656399957836	0	185806	253
363.833984375	0	health	response	1	1	1	foodImage.92	FOODEEG_Images\0900.jpg	NY	Left	No	0.938656399957836	0	186284	234
364.927734375	1	health	trialStart	1	2	2	foodImage.94	FOODEEG_Images\0902.jpg	NY	Right	Yes	0.724727200111374	0	186844	251
365.966796875	2	health	foodImageDisplay	1	2	2	foodImage.94	FOODEEG_Images\0902.jpg	NY	Right	Yes	0.724727200111374	0	187376	252
368.029296875	0.724727200111374	health	choicePhaseStart	1	2	2	foodImage.94	FOODEEG_Images\0902.jpg	NY	Right	Yes	0.724727200111374	0	188432	253
368.74609375	0	health	response	1	2	2	foodImage.94	FOODEEG_Images\0902.jpg	NY	Right	Yes	0.724727200111374	0	188799	235
369.802734375	1	decision	trialStart	1	3	3	foodImage.86	FOODEEG_Images\0844.jpg	YN	Left	Yes	0.698415500111878	0	189340	251
370.888671875	2	decision	foodImageDisplay	1	3	3	foodImage.86	FOODEEG_Images\0844.jpg	YN	Left	Yes	0.698415500111878	0	189896	252
372.955078125	0.698415500111878	decision	choicePhaseStart	1	3	3	foodImage.86	FOODEEG_Images\0844.jpg	YN	Left	Yes	0.698415500111878	0	190954	253
373.6484375	0	decision	response	1	3	3	foodImage.86	FOODEEG_Images\0844.jpg	YN	Left	Yes	0.698415500111878	0	191309	234
374.69140625	1	health	trialStart	1	4	4	foodImage.116	FOODEEG_Images\0924.jpg	NY	Right	Yes	1.44127589999698	0	191843	251
375.734375	2	health	foodImageDisplay	1	4	4	foodImage.116	FOODEEG_Images\0924.jpg	NY	Right	Yes	1.44127589999698	0	192377	252
377.796875	1.44127589999698	health	choicePhaseStart	1	4	4	foodImage.116	FOODEEG_Images\0924.jpg	NY	Right	Yes	1.44127589999698	0	193433	253
379.232421875	0	health	response	1	4	4	foodImage.116	FOODEEG_Images\0924.jpg	NY	Right	Yes	1.44127589999698	0	194168	235
380.27734375	1	taste	trialStart	1	5	5	foodImage.6	FOODEEG_Images\0113.jpg	YN	Left	Yes	0.85661630006507	0	194703	251
381.330078125	2	taste	foodImageDisplay	1	5	5	foodImage.6	FOODEEG_Images\0113.jpg	YN	Left	Yes	0.85661630006507	0	195242	252
383.396484375	0.85661630006507	taste	choicePhaseStart	1	5	5	foodImage.6	FOODEEG_Images\0113.jpg	YN	Left	Yes	0.85661630006507	0	196300	253
384.248046875	0	taste	response	1	5	5	foodImage.6	FOODEEG_Images\0113.jpg	YN	Left	Yes	0.85661630006507	0	196736	234
385.30078125	1	health	trialStart	1	6	6	foodImage.61	FOODEEG_Images\0640.jpg	YN	Left	Yes	0.671528799924999	0	197275	251
386.345703125	2	health	foodImageDisplay	1	6	6	foodImage.61	FOODEEG_Images\0640.jpg	YN	Left	Yes	0.671528799924999	0	197810	252
388.41015625	0.671528799924999	health	choicePhaseStart	1	6	6	foodImage.61	FOODEEG_Images\0640.jpg	YN	Left	Yes	0.671528799924999	0	198867	253
389.072265625	0	health	response	1	6	6	foodImage.61	FOODEEG_Images\0640.jpg	YN	Left	Yes	0.671528799924999	0	199206	234
390.119140625	1	taste	trialStart	1	7	7	foodImage.102	FOODEEG_Images\0910.jpg	NY	Right	Yes	0.939248099923134	0	199742	251
391.158203125	2	taste	foodImageDisplay	1	7	7	foodImage.102	FOODEEG_Images\0910.jpg	NY	Right	Yes	0.939248099923134	0	200274	252
393.22265625	0.939248099923134	taste	choicePhaseStart	1	7	7	foodImage.102	FOODEEG_Images\0910.jpg	NY	Right	Yes	0.939248099923134	0	201331	253
394.15234375	0	taste	response	1	7	7	foodImage.102	FOODEEG_Images\0910.jpg	NY	Right	Yes	0.939248099923134	0	201807	235
395.1953125	1	health	trialStart	1	8	8	foodImage.83	FOODEEG_Images\0827.jpg	NY	Right	Yes	0.51315990020521	0	202341	251
396.25390625	2	health	foodImageDisplay	1	8	8	foodImage.83	FOODEEG_Images\0827.jpg	NY	Right	Yes	0.51315990020521	0	202883	252
398.31640625	0.51315990020521	health	choicePhaseStart	1	8	8	foodImage.83	FOODEEG_Images\0827.jpg	NY	Right	Yes	0.51315990020521	0	203939	253
398.82421875	0	health	response	1	8	8	foodImage.83	FOODEEG_Images\0827.jpg	NY	Right	Yes	0.51315990020521	0	204199	235
399.865234375	1	taste	trialStart	1	9	9	foodImage.7	FOODEEG_Images\0116.jpg	NY	Right	Yes	0.853674000129104	0	204732	251
400.908203125	2	taste	foodImageDisplay	1	9	9	foodImage.7	FOODEEG_Images\0116.jpg	NY	Right	Yes	0.853674000129104	0	205266	252
402.970703125	0.853674000129104	taste	choicePhaseStart	1	9	9	foodImage.7	FOODEEG_Images\0116.jpg	NY	Right	Yes	0.853674000129104	0	206322	253
403.81640625	0	taste	response	1	9	9	foodImage.7	FOODEEG_Images\0116.jpg	NY	Right	Yes	0.853674000129104	0	206755	235
404.857421875	1	health	trialStart	1	10	10	foodImage.45	FOODEEG_Images\0478.jpg	NY	Right	Yes	0.552669600117952	0	207288	251
405.90234375	2	health	foodImageDisplay	1	10	10	foodImage.45	FOODEEG_Images\0478.jpg	NY	Right	Yes	0.552669600117952	0	207823	252
407.96484375	0.552669600117952	health	choicePhaseStart	1	10	10	foodImage.45	FOODEEG_Images\0478.jpg	NY	Right	Yes	0.552669600117952	0	208879	253
408.51171875	0	health	response	1	10	10	foodImage.45	FOODEEG_Images\0478.jpg	NY	Right	Yes	0.552669600117952	0	209159	235
409.5546875	1	health	trialStart	1	11	11	foodImage.107	FOODEEG_Images\0915.jpg	NY	Right	Yes	0.779377599945292	0	209693	251
410.59765625	2	health	foodImageDisplay	1	11	11	foodImage.107	FOODEEG_Images\0915.jpg	NY	Right	Yes	0.779377599945292	0	210227	252
412.66015625	0.779377599945292	health	choicePhaseStart	1	11	11	foodImage.107	FOODEEG_Images\0915.jpg	NY	Right	Yes	0.779377599945292	0	211283	253
413.431640625	0	health	response	1	11	11	foodImage.107	FOODEEG_Images\0915.jpg	NY	Right	Yes	0.779377599945292	0	211678	235
414.47265625	1	health	trialStart	1	12	12	foodImage.72	FOODEEG_Images\0714.jpg	YN	Left	Yes	0.765575399855152	0	212211	251
415.5234375	2	health	foodImageDisplay	1	12	12	foodImage.72	FOODEEG_Images\0714.jpg	YN	Left	Yes	0.765575399855152	0	212749	252
417.587890625	0.765575399855152	health	choicePhaseStart	1	12	12	foodImage.72	FOODEEG_Images\0714.jpg	YN	Left	Yes	0.765575399855152	0	213806	253
418.34375	0	health	response	1	12	12	foodImage.72	FOODEEG_Images\0714.jpg	YN	Left	Yes	0.765575399855152	0	214193	234
419.38671875	1	decision	trialStart	1	13	13	foodImage.66	FOODEEG_Images\0676.jpg	YN	Left	Yes	1.03561579994857	0	214727	251
420.4296875	2	decision	foodImageDisplay	1	13	13	foodImage.66	FOODEEG_Images\0676.jpg	YN	Left	Yes	1.03561579994857	0	215261	252
422.494140625	1.03561579994857	decision	choicePhaseStart	1	13	13	foodImage.66	FOODEEG_Images\0676.jpg	YN	Left	Yes	1.03561579994857	0	216318	253
423.52734375	0	decision	response	1	13	13	foodImage.66	FOODEEG_Images\0676.jpg	YN	Left	Yes	1.03561579994857	0	216847	234
424.568359375	1	taste	trialStart	1	14	14	foodImage.59	FOODEEG_Images\0607.jpg	YN	Left	Yes	0.524895099923015	0	217380	251
425.6171875	2	taste	foodImageDisplay	1	14	14	foodImage.59	FOODEEG_Images\0607.jpg	YN	Left	Yes	0.524895099923015	0	217917	252
427.681640625	0.524895099923015	taste	choicePhaseStart	1	14	14	foodImage.59	FOODEEG_Images\0607.jpg	YN	Left	Yes	0.524895099923015	0	218974	253
428.19921875	0	taste	response	1	14	14	foodImage.59	FOODEEG_Images\0607.jpg	YN	Left	Yes	0.524895099923015	0	219239	234
429.2421875	1	health	trialStart	1	15	15	foodImage.103	FOODEEG_Images\0911.jpg	YN	Right	No	0.759172900114208	0	219773	251
430.28125	2	health	foodImageDisplay	1	15	15	foodImage.103	FOODEEG_Images\0911.jpg	YN	Right	No	0.759172900114208	0	220305	252
432.34375	0.759172900114208	health	choicePhaseStart	1	15	15	foodImage.103	FOODEEG_Images\0911.jpg	YN	Right	No	0.759172900114208	0	221361	253
433.09375	0	health	response	1	15	15	foodImage.103	FOODEEG_Images\0911.jpg	YN	Right	No	0.759172900114208	0	221745	235
434.13671875	1	taste	trialStart	1	16	16	foodImage.39	FOODEEG_Images\0367.jpg	NY	Right	Yes	0.840724699897692	0	222279	251
435.17578125	2	taste	foodImageDisplay	1	16	16	foodImage.39	FOODEEG_Images\0367.jpg	NY	Right	Yes	0.840724699897692	0	222811	252
437.23828125	0.840724699897692	taste	choicePhaseStart	1	16	16	foodImage.39	FOODEEG_Images\0367.jpg	NY	Right	Yes	0.840724699897692	0	223867	253
438.0703125	0	taste	response	1	16	16	foodImage.39	FOODEEG_Images\0367.jpg	NY	Right	Yes	0.840724699897692	0	224293	235
439.11328125	1	decision	trialStart	1	17	17	foodImage.108	FOODEEG_Images\0916.jpg	NY	Left	No	1.06259280000813	0	224827	251
440.15234375	2	decision	foodImageDisplay	1	17	17	foodImage.108	FOODEEG_Images\0916.jpg	NY	Left	No	1.06259280000813	0	225359	252
442.216796875	1.06259280000813	decision	choicePhaseStart	1	17	17	foodImage.108	FOODEEG_Images\0916.jpg	NY	Left	No	1.06259280000813	0	226416	253
443.26953125	0	decision	response	1	17	17	foodImage.108	FOODEEG_Images\0916.jpg	NY	Left	No	1.06259280000813	0	226955	234
444.3125	1	health	trialStart	1	18	18	foodImage.113	FOODEEG_Images\0921.jpg	YN	Left	Yes	0.728642900008708	0	227489	251
445.3515625	2	health	foodImageDisplay	1	18	18	foodImage.113	FOODEEG_Images\0921.jpg	YN	Left	Yes	0.728642900008708	0	228021	252
447.4140625	0.728642900008708	health	choicePhaseStart	1	18	18	foodImage.113	FOODEEG_Images\0921.jpg	YN	Left	Yes	0.728642900008708	0	229077	253
448.1328125	0	health	response	1	18	18	foodImage.113	FOODEEG_Images\0921.jpg	YN	Left	Yes	0.728642900008708	0	229445	234
449.1796875	1	taste	trialStart	1	19	19	foodImage.86	FOODEEG_Images\0844.jpg	NY	Right	Yes	0.63991740019992	0	229981	251
450.240234375	2	taste	foodImageDisplay	1	19	19	foodImage.86	FOODEEG_Images\0844.jpg	NY	Right	Yes	0.63991740019992	0	230524	252
452.302734375	0.63991740019992	taste	choicePhaseStart	1	19	19	foodImage.86	FOODEEG_Images\0844.jpg	NY	Right	Yes	0.63991740019992	0	231580	253
452.93359375	0	taste	response	1	19	19	foodImage.86	FOODEEG_Images\0844.jpg	NY	Right	Yes	0.63991740019992	0	231903	235
453.9765625	1	decision	trialStart	1	20	20	foodImage.77	FOODEEG_Images\0771.jpg	NY	Right	Yes	0.523381999926642	0	232437	251
455.021484375	2	decision	foodImageDisplay	1	20	20	foodImage.77	FOODEEG_Images\0771.jpg	NY	Right	Yes	0.523381999926642	0	232972	252
457.083984375	0.523381999926642	decision	choicePhaseStart	1	20	20	foodImage.77	FOODEEG_Images\0771.jpg	NY	Right	Yes	0.523381999926642	0	234028	253
457.59765625	0	decision	response	1	20	20	foodImage.77	FOODEEG_Images\0771.jpg	NY	Right	Yes	0.523381999926642	0	234291	235
458.642578125	1	health	trialStart	1	21	21	foodImage.117	FOODEEG_Images\0925.jpg	NY	Right	Yes	0.6505442999769	0	234826	251
459.68359375	2	health	foodImageDisplay	1	21	21	foodImage.117	FOODEEG_Images\0925.jpg	NY	Right	Yes	0.6505442999769	0	235359	252
461.748046875	0.6505442999769	health	choicePhaseStart	1	21	21	foodImage.117	FOODEEG_Images\0925.jpg	NY	Right	Yes	0.6505442999769	0	236416	253
462.388671875	0	health	response	1	21	21	foodImage.117	FOODEEG_Images\0925.jpg	NY	Right	Yes	0.6505442999769	0	236744	235
463.431640625	1	health	trialStart	1	22	22	foodImage.28	FOODEEG_Images\0273.jpg	YN	Left	Yes	0.56551540014334	0	237278	251
464.47265625	2	health	foodImageDisplay	1	22	22	foodImage.28	FOODEEG_Images\0273.jpg	YN	Left	Yes	0.56551540014334	0	237811	252
466.53515625	0.56551540014334	health	choicePhaseStart	1	22	22	foodImage.28	FOODEEG_Images\0273.jpg	YN	Left	Yes	0.56551540014334	0	238867	253
467.09375	0	health	response	1	22	22	foodImage.28	FOODEEG_Images\0273.jpg	YN	Left	Yes	0.56551540014334	0	239153	234
468.134765625	1	decision	trialStart	1	23	23	foodImage.63	FOODEEG_Images\0645.jpg	YN	Left	Yes	0.510530499974266	0	239686	251
469.177734375	2	decision	foodImageDisplay	1	23	23	foodImage.63	FOODEEG_Images\0645.jpg	YN	Left	Yes	0.510530499974266	0	240220	252
471.240234375	0.510530499974266	decision	choicePhaseStart	1	23	23	foodImage.63	FOODEEG_Images\0645.jpg	YN	Left	Yes	0.510530499974266	0	241276	253
471.740234375	0	decision	response	1	23	23	foodImage.63	FOODEEG_Images\0645.jpg	YN	Left	Yes	0.510530499974266	0	241532	234
472.79296875	1	decision	trialStart	1	24	24	foodImage.35	FOODEEG_Images\0350.jpg	NY	Right	Yes	0.630316300084814	0	242071	251
473.83203125	2	decision	foodImageDisplay	1	24	24	foodImage.35	FOODEEG_Images\0350.jpg	NY	Right	Yes	0.630316300084814	0	242603	252
475.89453125	0.630316300084814	decision	choicePhaseStart	1	24	24	foodImage.35	FOODEEG_Images\0350.jpg	NY	Right	Yes	0.630316300084814	0	243659	253
476.517578125	0	decision	response	1	24	24	foodImage.35	FOODEEG_Images\0350.jpg	NY	Right	Yes	0.630316300084814	0	243978	235
477.56640625	1	decision	trialStart	1	25	25	foodImage.58	FOODEEG_Images\0605.jpg	YN	Right	No	0.496571300085634	0	244515	251
478.623046875	2	decision	foodImageDisplay	1	25	25	foodImage.58	FOODEEG_Images\0605.jpg	YN	Right	No	0.496571300085634	0	245056	252
480.685546875	0.496571300085634	decision	choicePhaseStart	1	25	25	foodImage.58	FOODEEG_Images\0605.jpg	YN	Right	No	0.496571300085634	0	246112	253
481.171875	0	decision	response	1	25	25	foodImage.58	FOODEEG_Images\0605.jpg	YN	Right	No	0.496571300085634	0	246361	235
482.21484375	1	taste	trialStart	1	26	26	foodImage.36	FOODEEG_Images\0352.jpg	YN	Left	Yes	0.703438800061122	0	246895	251
483.271484375	2	taste	foodImageDisplay	1	26	26	foodImage.36	FOODEEG_Images\0352.jpg	YN	Left	Yes	0.703438800061122	0	247436	252
485.333984375	0.703438800061122	taste	choicePhaseStart	1	26	26	foodImage.36	FOODEEG_Images\0352.jpg	YN	Left	Yes	0.703438800061122	0	248492	253
486.029296875	0	taste	response	1	26	26	foodImage.36	FOODEEG_Images\0352.jpg	YN	Left	Yes	0.703438800061122	0	248848	234
487.07421875	1	health	trialStart	1	27	27	foodImage.34	FOODEEG_Images\0339.jpg	YN	Right	No	1.06348849995993	0	249383	251
488.12890625	2	health	foodImageDisplay	1	27	27	foodImage.34	FOODEEG_Images\0339.jpg	YN	Right	No	1.06348849995993	0	249923	252
490.1953125	1.06348849995993	health	choicePhaseStart	1	27	27	foodImage.34	FOODEEG_Images\0339.jpg	YN	Right	No	1.06348849995993	0	250981	253
491.251953125	0	health	response	1	27	27	foodImage.34	FOODEEG_Images\0339.jpg	YN	Right	No	1.06348849995993	0	251522	235
492.294921875	1	taste	trialStart	1	28	28	foodImage.54	FOODEEG_Images\0560.jpg	YN	Left	Yes	0.570249299984425	0	252056	251
493.349609375	2	taste	foodImageDisplay	1	28	28	foodImage.54	FOODEEG_Images\0560.jpg	YN	Left	Yes	0.570249299984425	0	252596	252
495.412109375	0.570249299984425	taste	choicePhaseStart	1	28	28	foodImage.54	FOODEEG_Images\0560.jpg	YN	Left	Yes	0.570249299984425	0	253652	253
495.97265625	0	taste	response	1	28	28	foodImage.54	FOODEEG_Images\0560.jpg	YN	Left	Yes	0.570249299984425	0	253939	234
497.015625	1	health	trialStart	1	29	29	foodImage.110	FOODEEG_Images\0918.jpg	YN	Right	No	0.876120900036767	0	254473	251
498.0546875	2	health	foodImageDisplay	1	29	29	foodImage.110	FOODEEG_Images\0918.jpg	YN	Right	No	0.876120900036767	0	255005	252
500.119140625	0.876120900036767	health	choicePhaseStart	1	29	29	foodImage.110	FOODEEG_Images\0918.jpg	YN	Right	No	0.876120900036767	0	256062	253
500.98828125	0	health	response	1	29	29	foodImage.110	FOODEEG_Images\0918.jpg	YN	Right	No	0.876120900036767	0	256507	235
502.03125	1	decision	trialStart	1	30	30	foodImage.105	FOODEEG_Images\0913.jpg	NY	Right	Yes	0.726654500002041	0	257041	251
503.0703125	2	decision	foodImageDisplay	1	30	30	foodImage.105	FOODEEG_Images\0913.jpg	NY	Right	Yes	0.726654500002041	0	257573	252
505.134765625	0.726654500002041	decision	choicePhaseStart	1	30	30	foodImage.105	FOODEEG_Images\0913.jpg	NY	Right	Yes	0.726654500002041	0	258630	253
505.8515625	0	decision	response	1	30	30	foodImage.105	FOODEEG_Images\0913.jpg	NY	Right	Yes	0.726654500002041	0	258997	235
506.896484375	1	taste	trialStart	1	31	31	foodImage.101	FOODEEG_Images\0909.jpg	NY	Left	No	0.878266700077802	0	259532	251
507.935546875	2	taste	foodImageDisplay	1	31	31	foodImage.101	FOODEEG_Images\0909.jpg	NY	Left	No	0.878266700077802	0	260064	252
509.998046875	0.878266700077802	taste	choicePhaseStart	1	31	31	foodImage.101	FOODEEG_Images\0909.jpg	NY	Left	No	0.878266700077802	0	261120	253
510.8671875	0	taste	response	1	31	31	foodImage.101	FOODEEG_Images\0909.jpg	NY	Left	No	0.878266700077802	0	261565	234
511.91015625	1	decision	trialStart	1	32	32	foodImage.118	FOODEEG_Images\0926.jpg	NY	Left	No	0.951434599934146	0	262099	251
512.94921875	2	decision	foodImageDisplay	1	32	32	foodImage.118	FOODEEG_Images\0926.jpg	NY	Left	No	0.951434599934146	0	262631	252
515.013671875	0.951434599934146	decision	choicePhaseStart	1	32	32	foodImage.118	FOODEEG_Images\0926.jpg	NY	Left	No	0.951434599934146	0	263688	253
515.955078125	0	decision	response	1	32	32	foodImage.118	FOODEEG_Images\0926.jpg	NY	Left	No	0.951434599934146	0	264170	234
516.998046875	1	decision	trialStart	1	33	33	foodImage.95	FOODEEG_Images\0903.jpg	YN	Right	No	1.02415419998579	0	264704	251
518.037109375	2	decision	foodImageDisplay	1	33	33	foodImage.95	FOODEEG_Images\0903.jpg	YN	Right	No	1.02415419998579	0	265236	252
520.099609375	1.02415419998579	decision	choicePhaseStart	1	33	33	foodImage.95	FOODEEG_Images\0903.jpg	YN	Right	No	1.02415419998579	0	266292	253
521.115234375	0	decision	response	1	33	33	foodImage.95	FOODEEG_Images\0903.jpg	YN	Right	No	1.02415419998579	0	266812	235
522.158203125	1	decision	trialStart	1	34	34	foodImage.103	FOODEEG_Images\0911.jpg	YN	Right	No	0.631553499959409	0	267346	251
523.205078125	2	decision	foodImageDisplay	1	34	34	foodImage.103	FOODEEG_Images\0911.jpg	YN	Right	No	0.631553499959409	0	267882	252
525.26953125	0.631553499959409	decision	choicePhaseStart	1	34	34	foodImage.103	FOODEEG_Images\0911.jpg	YN	Right	No	0.631553499959409	0	268939	253
525.892578125	0	decision	response	1	34	34	foodImage.103	FOODEEG_Images\0911.jpg	YN	Right	No	0.631553499959409	0	269258	235
526.935546875	1	health	trialStart	1	35	35	foodImage.70	FOODEEG_Images\0705.jpg	NY	Right	Yes	0.553876999998465	0	269792	251
528.0078125	2	health	foodImageDisplay	1	35	35	foodImage.70	FOODEEG_Images\0705.jpg	NY	Right	Yes	0.553876999998465	0	270341	252
530.0703125	0.553876999998465	health	choicePhaseStart	1	35	35	foodImage.70	FOODEEG_Images\0705.jpg	NY	Right	Yes	0.553876999998465	0	271397	253
530.619140625	0	health	response	1	35	35	foodImage.70	FOODEEG_Images\0705.jpg	NY	Right	Yes	0.553876999998465	0	271678	235
531.66015625	1	taste	trialStart	1	36	36	foodImage.31	FOODEEG_Images\0294.jpg	NY	Right	Yes	0.850440700072795	0	272211	251
532.703125	2	taste	foodImageDisplay	1	36	36	foodImage.31	FOODEEG_Images\0294.jpg	NY	Right	Yes	0.850440700072795	0	272745	252
534.765625	0.850440700072795	taste	choicePhaseStart	1	36	36	foodImage.31	FOODEEG_Images\0294.jpg	NY	Right	Yes	0.850440700072795	0	273801	253
535.611328125	0	taste	response	1	36	36	foodImage.31	FOODEEG_Images\0294.jpg	NY	Right	Yes	0.850440700072795	0	274234	235
536.650390625	1	health	trialStart	1	37	37	foodImage.17	FOODEEG_Images\0199.jpg	YN	Left	Yes	0.527365199988708	0	274766	251
537.693359375	2	health	foodImageDisplay	1	37	37	foodImage.17	FOODEEG_Images\0199.jpg	YN	Left	Yes	0.527365199988708	0	275300	252
539.755859375	0.527365199988708	health	choicePhaseStart	1	37	37	foodImage.17	FOODEEG_Images\0199.jpg	YN	Left	Yes	0.527365199988708	0	276356	253
540.2734375	0	health	response	1	37	37	foodImage.17	FOODEEG_Images\0199.jpg	YN	Left	Yes	0.527365199988708	0	276621	234
541.318359375	1	taste	trialStart	1	38	38	foodImage.3	FOODEEG_Images\0046.jpg	NY	Right	Yes	0.923821599921212	0	277156	251
542.361328125	2	taste	foodImageDisplay	1	38	38	foodImage.3	FOODEEG_Images\0046.jpg	NY	Right	Yes	0.923821599921212	0	277690	252
544.423828125	0.923821599921212	taste	choicePhaseStart	1	38	38	foodImage.3	FOODEEG_Images\0046.jpg	NY	Right	Yes	0.923821599921212	0	278746	253
545.337890625	0	taste	response	1	38	38	foodImage.3	FOODEEG_Images\0046.jpg	NY	Right	Yes	0.923821599921212	0	279214	235
546.3828125	1	taste	trialStart	1	39	39	foodImage.35	FOODEEG_Images\0350.jpg	NY	Right	Yes	0.6132244002074	0	279749	251
547.421875	2	taste	foodImageDisplay	1	39	39	foodImage.35	FOODEEG_Images\0350.jpg	NY	Right	Yes	0.6132244002074	0	280281	252
549.486328125	0.6132244002074	taste	choicePhaseStart	1	39	39	foodImage.35	FOODEEG_Images\0350.jpg	NY	Right	Yes	0.6132244002074	0	281338	253
550.08984375	0	taste	response	1	39	39	foodImage.35	FOODEEG_Images\0350.jpg	NY	Right	Yes	0.6132244002074	0	281647	235
551.1328125	1	decision	trialStart	1	40	40	foodImage.15	FOODEEG_Images\0189.jpg	NY	Right	Yes	0.722234099870548	0	282181	251
552.193359375	2	decision	foodImageDisplay	1	40	40	foodImage.15	FOODEEG_Images\0189.jpg	NY	Right	Yes	0.722234099870548	0	282724	252
554.255859375	0.722234099870548	decision	choicePhaseStart	1	40	40	foodImage.15	FOODEEG_Images\0189.jpg	NY	Right	Yes	0.722234099870548	0	283780	253
554.96875	0	decision	response	1	40	40	foodImage.15	FOODEEG_Images\0189.jpg	NY	Right	Yes	0.722234099870548	0	284145	235
556.015625	1	taste	trialStart	1	41	41	foodImage.107	FOODEEG_Images\0915.jpg	NY	Left	No	1.59045410016552	0	284681	251
557.052734375	2	taste	foodImageDisplay	1	41	41	foodImage.107	FOODEEG_Images\0915.jpg	NY	Left	No	1.59045410016552	0	285212	252
559.115234375	1.59045410016552	taste	choicePhaseStart	1	41	41	foodImage.107	FOODEEG_Images\0915.jpg	NY	Left	No	1.59045410016552	0	286268	253
560.697265625	0	taste	response	1	41	41	foodImage.107	FOODEEG_Images\0915.jpg	NY	Left	No	1.59045410016552	0	287078	234
561.74609375	1	decision	trialStart	1	42	42	foodImage.54	FOODEEG_Images\0560.jpg	NY	Right	Yes	0.536879299907014	0	287615	251
562.802734375	2	decision	foodImageDisplay	1	42	42	foodImage.54	FOODEEG_Images\0560.jpg	NY	Right	Yes	0.536879299907014	0	288156	252
564.8671875	0.536879299907014	decision	choicePhaseStart	1	42	42	foodImage.54	FOODEEG_Images\0560.jpg	NY	Right	Yes	0.536879299907014	0	289213	253
565.392578125	0	decision	response	1	42	42	foodImage.54	FOODEEG_Images\0560.jpg	NY	Right	Yes	0.536879299907014	0	289482	235
566.4375	1	health	trialStart	1	43	43	foodImage.22	FOODEEG_Images\0236.jpg	YN	Left	Yes	0.636391799896955	0	290017	251
567.49609375	2	health	foodImageDisplay	1	43	43	foodImage.22	FOODEEG_Images\0236.jpg	YN	Left	Yes	0.636391799896955	0	290559	252
569.55859375	0.636391799896955	health	choicePhaseStart	1	43	43	foodImage.22	FOODEEG_Images\0236.jpg	YN	Left	Yes	0.636391799896955	0	291615	253
570.185546875	0	health	response	1	43	43	foodImage.22	FOODEEG_Images\0236.jpg	YN	Left	Yes	0.636391799896955	0	291936	234
571.228515625	1	decision	trialStart	1	44	44	foodImage.36	FOODEEG_Images\0352.jpg	NY	Right	Yes	0.573727700160816	0	292470	251
572.28515625	2	decision	foodImageDisplay	1	44	44	foodImage.36	FOODEEG_Images\0352.jpg	NY	Right	Yes	0.573727700160816	0	293011	252
574.34765625	0.573727700160816	decision	choicePhaseStart	1	44	44	foodImage.36	FOODEEG_Images\0352.jpg	NY	Right	Yes	0.573727700160816	0	294067	253
574.912109375	0	decision	response	1	44	44	foodImage.36	FOODEEG_Images\0352.jpg	NY	Right	Yes	0.573727700160816	0	294356	235
575.953125	1	decision	trialStart	1	45	45	foodImage.32	FOODEEG_Images\0319.jpg	NY	Right	Yes	0.532139899907634	0	294889	251
576.998046875	2	decision	foodImageDisplay	1	45	45	foodImage.32	FOODEEG_Images\0319.jpg	NY	Right	Yes	0.532139899907634	0	295424	252
579.060546875	0.532139899907634	decision	choicePhaseStart	1	45	45	foodImage.32	FOODEEG_Images\0319.jpg	NY	Right	Yes	0.532139899907634	0	296480	253
579.583984375	0	decision	response	1	45	45	foodImage.32	FOODEEG_Images\0319.jpg	NY	Right	Yes	0.532139899907634	0	296748	235
580.626953125	1	taste	trialStart	1	46	46	foodImage.26	FOODEEG_Images\0262.jpg	NY	Right	Yes	0.548621000023559	0	297282	251
581.669921875	2	taste	foodImageDisplay	1	46	46	foodImage.26	FOODEEG_Images\0262.jpg	NY	Right	Yes	0.548621000023559	0	297816	252
583.734375	0.548621000023559	taste	choicePhaseStart	1	46	46	foodImage.26	FOODEEG_Images\0262.jpg	NY	Right	Yes	0.548621000023559	0	298873	253
584.2734375	0	taste	response	1	46	46	foodImage.26	FOODEEG_Images\0262.jpg	NY	Right	Yes	0.548621000023559	0	299149	235
585.31640625	1	decision	trialStart	1	47	47	foodImage.88	FOODEEG_Images\0878.jpg	YN	Left	Yes	1.05898389988579	0	299683	251
586.390625	2	decision	foodImageDisplay	1	47	47	foodImage.88	FOODEEG_Images\0878.jpg	YN	Left	Yes	1.05898389988579	0	300233	252
588.453125	1.05898389988579	decision	choicePhaseStart	1	47	47	foodImage.88	FOODEEG_Images\0878.jpg	YN	Left	Yes	1.05898389988579	0	301289	253
589.50390625	0	decision	response	1	47	47	foodImage.88	FOODEEG_Images\0878.jpg	YN	Left	Yes	1.05898389988579	0	301827	234
590.55078125	1	health	trialStart	1	48	48	foodImage.112	FOODEEG_Images\0920.jpg	NY	Right	Yes	1.18167489999905	0	302363	251
591.58984375	2	health	foodImageDisplay	1	48	48	foodImage.112	FOODEEG_Images\0920.jpg	NY	Right	Yes	1.18167489999905	0	302895	252
593.65234375	1.18167489999905	health	choicePhaseStart	1	48	48	foodImage.112	FOODEEG_Images\0920.jpg	NY	Right	Yes	1.18167489999905	0	303951	253
594.82421875	0	health	response	1	48	48	foodImage.112	FOODEEG_Images\0920.jpg	NY	Right	Yes	1.18167489999905	0	304551	235
595.86328125	1	decision	trialStart	1	49	49	foodImage.70	FOODEEG_Images\0705.jpg	NY	Right	Yes	0.570704800076783	0	305083	251
596.919921875	2	decision	foodImageDisplay	1	49	49	foodImage.70	FOODEEG_Images\0705.jpg	NY	Right	Yes	0.570704800076783	0	305624	252
598.982421875	0.570704800076783	decision	choicePhaseStart	1	49	49	foodImage.70	FOODEEG_Images\0705.jpg	NY	Right	Yes	0.570704800076783	0	306680	253
599.544921875	0	decision	response	1	49	49	foodImage.70	FOODEEG_Images\0705.jpg	NY	Right	Yes	0.570704800076783	0	306968	235
600.5859375	1	decision	trialStart	1	50	50	foodImage.7	FOODEEG_Images\0116.jpg	YN	Left	Yes	0.605947599979118	0	307501	251
601.62890625	2	decision	foodImageDisplay	1	50	50	foodImage.7	FOODEEG_Images\0116.jpg	YN	Left	Yes	0.605947599979118	0	308035	252
603.69140625	0.605947599979118	decision	choicePhaseStart	1	50	50	foodImage.7	FOODEEG_Images\0116.jpg	YN	Left	Yes	0.605947599979118	0	309091	253
604.287109375	0	decision	response	1	50	50	foodImage.7	FOODEEG_Images\0116.jpg	YN	Left	Yes	0.605947599979118	0	309396	234
605.33203125	1	health	trialStart	1	51	51	foodImage.16	FOODEEG_Images\0196.jpg	NY	Right	Yes	0.44595230021514	0	309931	251
606.388671875	2	health	foodImageDisplay	1	51	51	foodImage.16	FOODEEG_Images\0196.jpg	NY	Right	Yes	0.44595230021514	0	310472	252
608.451171875	0.44595230021514	health	choicePhaseStart	1	51	51	foodImage.16	FOODEEG_Images\0196.jpg	NY	Right	Yes	0.44595230021514	0	311528	253
608.88671875	0	health	response	1	51	51	foodImage.16	FOODEEG_Images\0196.jpg	NY	Right	Yes	0.44595230021514	0	311751	235
609.9296875	1	health	trialStart	1	52	52	foodImage.115	FOODEEG_Images\0923.jpg	YN	Left	Yes	1.3873908999376	0	312285	251
610.966796875	2	health	foodImageDisplay	1	52	52	foodImage.115	FOODEEG_Images\0923.jpg	YN	Left	Yes	1.3873908999376	0	312816	252
613.029296875	1.3873908999376	health	choicePhaseStart	1	52	52	foodImage.115	FOODEEG_Images\0923.jpg	YN	Left	Yes	1.3873908999376	0	313872	253
614.408203125	0	health	response	1	52	52	foodImage.115	FOODEEG_Images\0923.jpg	YN	Left	Yes	1.3873908999376	0	314578	234
615.451171875	1	taste	trialStart	1	53	53	foodImage.28	FOODEEG_Images\0273.jpg	YN	Left	Yes	0.778919199947268	0	315112	251
616.494140625	2	taste	foodImageDisplay	1	53	53	foodImage.28	FOODEEG_Images\0273.jpg	YN	Left	Yes	0.778919199947268	0	315646	252
618.55859375	0.778919199947268	taste	choicePhaseStart	1	53	53	foodImage.28	FOODEEG_Images\0273.jpg	YN	Left	Yes	0.778919199947268	0	316703	253
619.328125	0	taste	response	1	53	53	foodImage.28	FOODEEG_Images\0273.jpg	YN	Left	Yes	0.778919199947268	0	317097	234
620.37109375	1	health	trialStart	1	54	54	foodImage.93	FOODEEG_Images\0901.jpg	YN	Left	Yes	0.608354000141844	0	317631	251
621.408203125	2	health	foodImageDisplay	1	54	54	foodImage.93	FOODEEG_Images\0901.jpg	YN	Left	Yes	0.608354000141844	0	318162	252
623.47265625	0.608354000141844	health	choicePhaseStart	1	54	54	foodImage.93	FOODEEG_Images\0901.jpg	YN	Left	Yes	0.608354000141844	0	319219	253
624.0703125	0	health	response	1	54	54	foodImage.93	FOODEEG_Images\0901.jpg	YN	Left	Yes	0.608354000141844	0	319525	234
625.11328125	1	decision	trialStart	1	55	55	foodImage.22	FOODEEG_Images\0236.jpg	NY	Right	Yes	0.662793300114572	0	320059	251
626.15234375	2	decision	foodImageDisplay	1	55	55	foodImage.22	FOODEEG_Images\0236.jpg	NY	Right	Yes	0.662793300114572	0	320591	252
628.21484375	0.662793300114572	decision	choicePhaseStart	1	55	55	foodImage.22	FOODEEG_Images\0236.jpg	NY	Right	Yes	0.662793300114572	0	321647	253
628.87109375	0	decision	response	1	55	55	foodImage.22	FOODEEG_Images\0236.jpg	NY	Right	Yes	0.662793300114572	0	321983	235
629.9140625	1	taste	trialStart	1	56	56	foodImage.98	FOODEEG_Images\0906.jpg	NY	Left	No	0.829397699795663	0	322517	251
630.955078125	2	taste	foodImageDisplay	1	56	56	foodImage.98	FOODEEG_Images\0906.jpg	NY	Left	No	0.829397699795663	0	323050	252
633.017578125	0.829397699795663	taste	choicePhaseStart	1	56	56	foodImage.98	FOODEEG_Images\0906.jpg	NY	Left	No	0.829397699795663	0	324106	253
633.837890625	0	taste	response	1	56	56	foodImage.98	FOODEEG_Images\0906.jpg	NY	Left	No	0.829397699795663	0	324526	234
634.8828125	1	decision	trialStart	1	57	57	foodImage.23	FOODEEG_Images\0244.jpg	NY	Left	No	0.797468900214881	0	325061	251
635.921875	2	decision	foodImageDisplay	1	57	57	foodImage.23	FOODEEG_Images\0244.jpg	NY	Left	No	0.797468900214881	0	325593	252
637.986328125	0.797468900214881	decision	choicePhaseStart	1	57	57	foodImage.23	FOODEEG_Images\0244.jpg	NY	Left	No	0.797468900214881	0	326650	253
638.775390625	0	decision	response	1	57	57	foodImage.23	FOODEEG_Images\0244.jpg	NY	Left	No	0.797468900214881	0	327054	234
639.81640625	1	taste	trialStart	1	58	58	foodImage.8	FOODEEG_Images\0136.jpg	YN	Left	Yes	0.762353400001302	0	327587	251
640.861328125	2	taste	foodImageDisplay	1	58	58	foodImage.8	FOODEEG_Images\0136.jpg	YN	Left	Yes	0.762353400001302	0	328122	252
642.92578125	0.762353400001302	taste	choicePhaseStart	1	58	58	foodImage.8	FOODEEG_Images\0136.jpg	YN	Left	Yes	0.762353400001302	0	329179	253
643.677734375	0	taste	response	1	58	58	foodImage.8	FOODEEG_Images\0136.jpg	YN	Left	Yes	0.762353400001302	0	329564	234
644.720703125	1	decision	trialStart	1	59	59	foodImage.81	FOODEEG_Images\0797.jpg	YN	Left	Yes	0.683485300047323	0	330098	251
645.78125	2	decision	foodImageDisplay	1	59	59	foodImage.81	FOODEEG_Images\0797.jpg	YN	Left	Yes	0.683485300047323	0	330641	252
647.84375	0.683485300047323	decision	choicePhaseStart	1	59	59	foodImage.81	FOODEEG_Images\0797.jpg	YN	Left	Yes	0.683485300047323	0	331697	253
648.517578125	0	decision	response	1	59	59	foodImage.81	FOODEEG_Images\0797.jpg	YN	Left	Yes	0.683485300047323	0	332042	234
649.560546875	1	taste	trialStart	1	60	60	foodImage.83	FOODEEG_Images\0827.jpg	YN	Left	Yes	0.557247099932283	0	332576	251
650.6171875	2	taste	foodImageDisplay	1	60	60	foodImage.83	FOODEEG_Images\0827.jpg	YN	Left	Yes	0.557247099932283	0	333117	252
652.681640625	0.557247099932283	taste	choicePhaseStart	1	60	60	foodImage.83	FOODEEG_Images\0827.jpg	YN	Left	Yes	0.557247099932283	0	334174	253
653.23046875	0	taste	response	1	60	60	foodImage.83	FOODEEG_Images\0827.jpg	YN	Left	Yes	0.557247099932283	0	334455	234
655.271484375	18.154296875	n/a	blockEnd	n/a	n/a	n/a	n/a	n/a	n/a	n/a	n/a	n/a	n/a	335500	254
673.42578125	2	n/a	blockStart	2	n/a	n/a	n/a	n/a	n/a	n/a	n/a	n/a	n/a	344795	250
675.45703125	1	decision	trialStart	2	61	1	foodImage.100	FOODEEG_Images\0908.jpg	NY	Right	Yes	0.543912200024351	0	345835	251
676.494140625	2	decision	foodImageDisplay	2	61	1	foodImage.100	FOODEEG_Images\0908.jpg	NY	Right	Yes	0.543912200024351	0	346366	252
678.556640625	0.543912200024351	decision	choicePhaseStart	2	61	1	foodImage.100	FOODEEG_Images\0908.jpg	NY	Right	Yes	0.543912200024351	0	347422	253
679.09375	0	decision	response	2	61	1	foodImage.100	FOODEEG_Images\0908.jpg	NY	Right	Yes	0.543912200024351	0	347697	235
680.13671875	1	health	trialStart	2	62	2	foodImage.11	FOODEEG_Images\0180.jpg	YN	Left	Yes	0.623187099816278	0	348231	251
681.19140625	2	health	foodImageDisplay	2	62	2	foodImage.11	FOODEEG_Images\0180.jpg	YN	Left	Yes	0.623187099816278	0	348771	252
683.255859375	0.623187099816278	health	choicePhaseStart	2	62	2	foodImage.11	FOODEEG_Images\0180.jpg	YN	Left	Yes	0.623187099816278	0	349828	253
683.869140625	0	health	response	2	62	2	foodImage.11	FOODEEG_Images\0180.jpg	YN	Left	Yes	0.623187099816278	0	350142	234
684.912109375	1	taste	trialStart	2	63	3	foodImage.10	FOODEEG_Images\0145.jpg	YN	Left	Yes	0.498419000068679	0	350676	251
685.99609375	2	taste	foodImageDisplay	2	63	3	foodImage.10	FOODEEG_Images\0145.jpg	YN	Left	Yes	0.498419000068679	0	351231	252
688.05859375	0.498419000068679	taste	choicePhaseStart	2	63	3	foodImage.10	FOODEEG_Images\0145.jpg	YN	Left	Yes	0.498419000068679	0	352287	253
688.548828125	0	taste	response	2	63	3	foodImage.10	FOODEEG_Images\0145.jpg	YN	Left	Yes	0.498419000068679	0	352538	234
689.587890625	1	health	trialStart	2	64	4	foodImage.74	FOODEEG_Images\0752.jpg	YN	Left	Yes	0.53249999997206	0	353070	251
690.6328125	2	health	foodImageDisplay	2	64	4	foodImage.74	FOODEEG_Images\0752.jpg	YN	Left	Yes	0.53249999997206	0	353605	252
692.697265625	0.53249999997206	health	choicePhaseStart	2	64	4	foodImage.74	FOODEEG_Images\0752.jpg	YN	Left	Yes	0.53249999997206	0	354662	253
693.220703125	0	health	response	2	64	4	foodImage.74	FOODEEG_Images\0752.jpg	YN	Left	Yes	0.53249999997206	0	354930	234
694.263671875	1	decision	trialStart	2	65	5	foodImage.50	FOODEEG_Images\0529.jpg	YN	Left	Yes	0.509824600070715	0	355464	251
695.3203125	2	decision	foodImageDisplay	2	65	5	foodImage.50	FOODEEG_Images\0529.jpg	YN	Left	Yes	0.509824600070715	0	356005	252
697.384765625	0.509824600070715	decision	choicePhaseStart	2	65	5	foodImage.50	FOODEEG_Images\0529.jpg	YN	Left	Yes	0.509824600070715	0	357062	253
697.884765625	0	decision	response	2	65	5	foodImage.50	FOODEEG_Images\0529.jpg	YN	Left	Yes	0.509824600070715	0	357318	234
698.9296875	1	health	trialStart	2	66	6	foodImage.77	FOODEEG_Images\0771.jpg	YN	Left	Yes	0.543308800086379	0	357853	251
699.9765625	2	health	foodImageDisplay	2	66	6	foodImage.77	FOODEEG_Images\0771.jpg	YN	Left	Yes	0.543308800086379	0	358389	252
702.044921875	0.543308800086379	health	choicePhaseStart	2	66	6	foodImage.77	FOODEEG_Images\0771.jpg	YN	Left	Yes	0.543308800086379	0	359448	253
702.580078125	0	health	response	2	66	6	foodImage.77	FOODEEG_Images\0771.jpg	YN	Left	Yes	0.543308800086379	0	359722	234
703.619140625	1	taste	trialStart	2	67	7	foodImage.120	FOODEEG_Images\0928.jpg	NY	Left	No	0.711741399951279	0	360254	251
704.65625	2	taste	foodImageDisplay	2	67	7	foodImage.120	FOODEEG_Images\0928.jpg	NY	Left	No	0.711741399951279	0	360785	252
706.724609375	0.711741399951279	taste	choicePhaseStart	2	67	7	foodImage.120	FOODEEG_Images\0928.jpg	NY	Left	No	0.711741399951279	0	361844	253
707.427734375	0	taste	response	2	67	7	foodImage.120	FOODEEG_Images\0928.jpg	NY	Left	No	0.711741399951279	0	362204	234
708.470703125	1	decision	trialStart	2	68	8	foodImage.74	FOODEEG_Images\0752.jpg	YN	Left	Yes	0.538459599949419	0	362738	251
709.515625	2	decision	foodImageDisplay	2	68	8	foodImage.74	FOODEEG_Images\0752.jpg	YN	Left	Yes	0.538459599949419	0	363273	252
711.578125	0.538459599949419	decision	choicePhaseStart	2	68	8	foodImage.74	FOODEEG_Images\0752.jpg	YN	Left	Yes	0.538459599949419	0	364329	253
712.107421875	0	decision	response	2	68	8	foodImage.74	FOODEEG_Images\0752.jpg	YN	Left	Yes	0.538459599949419	0	364600	234
713.150390625	1	taste	trialStart	2	69	9	foodImage.16	FOODEEG_Images\0196.jpg	NY	Right	Yes	0.563124400097877	0	365134	251
714.208984375	2	taste	foodImageDisplay	2	69	9	foodImage.16	FOODEEG_Images\0196.jpg	NY	Right	Yes	0.563124400097877	0	365676	252
716.2734375	0.563124400097877	taste	choicePhaseStart	2	69	9	foodImage.16	FOODEEG_Images\0196.jpg	NY	Right	Yes	0.563124400097877	0	366733	253
716.826171875	0	taste	response	2	69	9	foodImage.16	FOODEEG_Images\0196.jpg	NY	Right	Yes	0.563124400097877	0	367016	235
717.873046875	1	health	trialStart	2	70	10	foodImage.21	FOODEEG_Images\0234.jpg	YN	Left	Yes	0.641072700032964	0	367552	251
718.9296875	2	health	foodImageDisplay	2	70	10	foodImage.21	FOODEEG_Images\0234.jpg	YN	Left	Yes	0.641072700032964	0	368093	252
720.99609375	0.641072700032964	health	choicePhaseStart	2	70	10	foodImage.21	FOODEEG_Images\0234.jpg	YN	Left	Yes	0.641072700032964	0	369151	253
721.626953125	0	health	response	2	70	10	foodImage.21	FOODEEG_Images\0234.jpg	YN	Left	Yes	0.641072700032964	0	369474	234
722.66796875	1	decision	trialStart	2	71	11	foodImage.62	FOODEEG_Images\0644.jpg	YN	Left	Yes	0.544937200145796	0	370007	251
723.724609375	2	decision	foodImageDisplay	2	71	11	foodImage.62	FOODEEG_Images\0644.jpg	YN	Left	Yes	0.544937200145796	0	370548	252
725.787109375	0.544937200145796	decision	choicePhaseStart	2	71	11	foodImage.62	FOODEEG_Images\0644.jpg	YN	Left	Yes	0.544937200145796	0	371604	253
726.322265625	0	decision	response	2	71	11	foodImage.62	FOODEEG_Images\0644.jpg	YN	Left	Yes	0.544937200145796	0	371878	234
727.365234375	1	taste	trialStart	2	72	12	foodImage.71	FOODEEG_Images\0713.jpg	YN	Left	Yes	0.483487700112164	0	372412	251
728.41015625	2	taste	foodImageDisplay	2	72	12	foodImage.71	FOODEEG_Images\0713.jpg	YN	Left	Yes	0.483487700112164	0	372947	252
730.47265625	0.483487700112164	taste	choicePhaseStart	2	72	12	foodImage.71	FOODEEG_Images\0713.jpg	YN	Left	Yes	0.483487700112164	0	374003	253
730.947265625	0	taste	response	2	72	12	foodImage.71	FOODEEG_Images\0713.jpg	YN	Left	Yes	0.483487700112164	0	374246	234
731.990234375	1	health	trialStart	2	73	13	foodImage.27	FOODEEG_Images\0263.jpg	NY	Right	Yes	0.503076700028032	0	374780	251
733.03125	2	health	foodImageDisplay	2	73	13	foodImage.27	FOODEEG_Images\0263.jpg	NY	Right	Yes	0.503076700028032	0	375313	252
735.09375	0.503076700028032	health	choicePhaseStart	2	73	13	foodImage.27	FOODEEG_Images\0263.jpg	NY	Right	Yes	0.503076700028032	0	376369	253
735.5859375	0	health	response	2	73	13	foodImage.27	FOODEEG_Images\0263.jpg	NY	Right	Yes	0.503076700028032	0	376621	235
736.630859375	1	taste	trialStart	2	74	14	foodImage.111	FOODEEG_Images\0919.jpg	YN	Right	No	0.775030600139871	0	377156	251
737.669921875	2	taste	foodImageDisplay	2	74	14	foodImage.111	FOODEEG_Images\0919.jpg	YN	Right	No	0.775030600139871	0	377688	252
739.732421875	0.775030600139871	taste	choicePhaseStart	2	74	14	foodImage.111	FOODEEG_Images\0919.jpg	YN	Right	No	0.775030600139871	0	378744	253
740.498046875	0	taste	response	2	74	14	foodImage.111	FOODEEG_Images\0919.jpg	YN	Right	No	0.775030600139871	0	379136	235
741.541015625	1	taste	trialStart	2	75	15	foodImage.91	FOODEEG_Images\0896.jpg	YN	Left	Yes	0.522231800016016	0	379670	251
742.599609375	2	taste	foodImageDisplay	2	75	15	foodImage.91	FOODEEG_Images\0896.jpg	YN	Left	Yes	0.522231800016016	0	380212	252
744.666015625	0.522231800016016	taste	choicePhaseStart	2	75	15	foodImage.91	FOODEEG_Images\0896.jpg	YN	Left	Yes	0.522231800016016	0	381270	253
745.177734375	0	taste	response	2	75	15	foodImage.91	FOODEEG_Images\0896.jpg	YN	Left	Yes	0.522231800016016	0	381532	234
746.22265625	1	health	trialStart	2	76	16	foodImage.96	FOODEEG_Images\0904.jpg	NY	Right	Yes	1.0552161000669	0	382067	251
747.26171875	2	health	foodImageDisplay	2	76	16	foodImage.96	FOODEEG_Images\0904.jpg	NY	Right	Yes	1.0552161000669	0	382599	252
749.32421875	1.0552161000669	health	choicePhaseStart	2	76	16	foodImage.96	FOODEEG_Images\0904.jpg	NY	Right	Yes	1.0552161000669	0	383655	253
750.37109375	0	health	response	2	76	16	foodImage.96	FOODEEG_Images\0904.jpg	NY	Right	Yes	1.0552161000669	0	384191	235
751.4140625	1	health	trialStart	2	77	17	foodImage.40	FOODEEG_Images\0373.jpg	NY	Left	No	0.633558299858123	0	384725	251
752.455078125	2	health	foodImageDisplay	2	77	17	foodImage.40	FOODEEG_Images\0373.jpg	NY	Left	No	0.633558299858123	0	385258	252
754.521484375	0.633558299858123	health	choicePhaseStart	2	77	17	foodImage.40	FOODEEG_Images\0373.jpg	NY	Left	No	0.633558299858123	0	386316	253
755.146484375	0	health	response	2	77	17	foodImage.40	FOODEEG_Images\0373.jpg	NY	Left	No	0.633558299858123	0	386636	234
756.189453125	1	health	trialStart	2	78	18	foodImage.114	FOODEEG_Images\0922.jpg	YN	Right	No	1.40082619991153	0	387170	251
757.2265625	2	health	foodImageDisplay	2	78	18	foodImage.114	FOODEEG_Images\0922.jpg	YN	Right	No	1.40082619991153	0	387701	252
759.291015625	1.40082619991153	health	choicePhaseStart	2	78	18	foodImage.114	FOODEEG_Images\0922.jpg	YN	Right	No	1.40082619991153	0	388758	253
760.681640625	0	health	response	2	78	18	foodImage.114	FOODEEG_Images\0922.jpg	YN	Right	No	1.40082619991153	0	389470	235
761.724609375	1	taste	trialStart	2	79	19	foodImage.57	FOODEEG_Images\0587.jpg	NY	Right	Yes	0.777406299952418	0	390004	251
762.76953125	2	taste	foodImageDisplay	2	79	19	foodImage.57	FOODEEG_Images\0587.jpg	NY	Right	Yes	0.777406299952418	0	390539	252
764.833984375	0.777406299952418	taste	choicePhaseStart	2	79	19	foodImage.57	FOODEEG_Images\0587.jpg	NY	Right	Yes	0.777406299952418	0	391596	253
765.6015625	0	taste	response	2	79	19	foodImage.57	FOODEEG_Images\0587.jpg	NY	Right	Yes	0.777406299952418	0	391989	235
766.64453125	1	decision	trialStart	2	80	20	foodImage.78	FOODEEG_Images\0787.jpg	YN	Left	Yes	0.602343700127676	0	392523	251
767.6875	2	decision	foodImageDisplay	2	80	20	foodImage.78	FOODEEG_Images\0787.jpg	YN	Left	Yes	0.602343700127676	0	393057	252
769.751953125	0.602343700127676	decision	choicePhaseStart	2	80	20	foodImage.78	FOODEEG_Images\0787.jpg	YN	Left	Yes	0.602343700127676	0	394114	253
770.345703125	0	decision	response	2	80	20	foodImage.78	FOODEEG_Images\0787.jpg	YN	Left	Yes	0.602343700127676	0	394418	234
771.388671875	1	taste	trialStart	2	81	21	foodImage.13	FOODEEG_Images\0183.jpg	YN	Left	Yes	0.820578400045633	0	394952	251
772.431640625	2	taste	foodImageDisplay	2	81	21	foodImage.13	FOODEEG_Images\0183.jpg	YN	Left	Yes	0.820578400045633	0	395486	252
774.494140625	0.820578400045633	taste	choicePhaseStart	2	81	21	foodImage.13	FOODEEG_Images\0183.jpg	YN	Left	Yes	0.820578400045633	0	396542	253
775.3046875	0	taste	response	2	81	21	foodImage.13	FOODEEG_Images\0183.jpg	YN	Left	Yes	0.820578400045633	0	396957	234
776.34765625	1	health	trialStart	2	82	22	foodImage.35	FOODEEG_Images\0350.jpg	YN	Left	Yes	1.08989109983668	0	397491	251
777.384765625	2	health	foodImageDisplay	2	82	22	foodImage.35	FOODEEG_Images\0350.jpg	YN	Left	Yes	1.08989109983668	0	398022	252
779.44921875	1.08989109983668	health	choicePhaseStart	2	82	22	foodImage.35	FOODEEG_Images\0350.jpg	YN	Left	Yes	1.08989109983668	0	399079	253
780.529296875	0	health	response	2	82	22	foodImage.35	FOODEEG_Images\0350.jpg	YN	Left	Yes	1.08989109983668	0	399632	234
781.5703125	1	taste	trialStart	2	83	23	foodImage.41	FOODEEG_Images\0409.jpg	NY	Right	Yes	0.692585000069812	0	400165	251
782.62109375	2	taste	foodImageDisplay	2	83	23	foodImage.41	FOODEEG_Images\0409.jpg	NY	Right	Yes	0.692585000069812	0	400703	252
784.685546875	0.692585000069812	taste	choicePhaseStart	2	83	23	foodImage.41	FOODEEG_Images\0409.jpg	NY	Right	Yes	0.692585000069812	0	401760	253
785.369140625	0	taste	response	2	83	23	foodImage.41	FOODEEG_Images\0409.jpg	NY	Right	Yes	0.692585000069812	0	402110	235
786.41015625	1	decision	trialStart	2	84	24	foodImage.25	FOODEEG_Images\0261.jpg	YN	Left	Yes	0.592714499915019	0	402643	251
787.451171875	2	decision	foodImageDisplay	2	84	24	foodImage.25	FOODEEG_Images\0261.jpg	YN	Left	Yes	0.592714499915019	0	403176	252
789.513671875	0.592714499915019	decision	choicePhaseStart	2	84	24	foodImage.25	FOODEEG_Images\0261.jpg	YN	Left	Yes	0.592714499915019	0	404232	253
790.09765625	0	decision	response	2	84	24	foodImage.25	FOODEEG_Images\0261.jpg	YN	Left	Yes	0.592714499915019	0	404531	234
791.140625	1	taste	trialStart	2	85	25	foodImage.93	FOODEEG_Images\0901.jpg	YN	Left	Yes	0.769980899989605	0	405065	251
792.177734375	2	taste	foodImageDisplay	2	85	25	foodImage.93	FOODEEG_Images\0901.jpg	YN	Left	Yes	0.769980899989605	0	405596	252
794.240234375	0.769980899989605	taste	choicePhaseStart	2	85	25	foodImage.93	FOODEEG_Images\0901.jpg	YN	Left	Yes	0.769980899989605	0	406652	253
795	0	taste	response	2	85	25	foodImage.93	FOODEEG_Images\0901.jpg	YN	Left	Yes	0.769980899989605	0	407041	234
796.04296875	1	health	trialStart	2	86	26	foodImage.7	FOODEEG_Images\0116.jpg	YN	Right	No	0.521547800162807	0	407575	251
797.083984375	2	health	foodImageDisplay	2	86	26	foodImage.7	FOODEEG_Images\0116.jpg	YN	Right	No	0.521547800162807	0	408108	252
799.15234375	0.521547800162807	health	choicePhaseStart	2	86	26	foodImage.7	FOODEEG_Images\0116.jpg	YN	Right	No	0.521547800162807	0	409167	253
799.6640625	0	health	response	2	86	26	foodImage.7	FOODEEG_Images\0116.jpg	YN	Right	No	0.521547800162807	0	409429	235
800.708984375	1	taste	trialStart	2	87	27	foodImage.22	FOODEEG_Images\0236.jpg	NY	Right	Yes	0.603533499874175	0	409964	251
801.75	2	taste	foodImageDisplay	2	87	27	foodImage.22	FOODEEG_Images\0236.jpg	NY	Right	Yes	0.603533499874175	0	410497	252
803.8125	0.603533499874175	taste	choicePhaseStart	2	87	27	foodImage.22	FOODEEG_Images\0236.jpg	NY	Right	Yes	0.603533499874175	0	411553	253
804.408203125	0	taste	response	2	87	27	foodImage.22	FOODEEG_Images\0236.jpg	NY	Right	Yes	0.603533499874175	0	411858	235
805.447265625	1	health	trialStart	2	88	28	foodImage.86	FOODEEG_Images\0844.jpg	YN	Right	No	0.553565499838442	0	412390	251
806.50390625	2	health	foodImageDisplay	2	88	28	foodImage.86	FOODEEG_Images\0844.jpg	YN	Right	No	0.553565499838442	0	412931	252
808.568359375	0.553565499838442	health	choicePhaseStart	2	88	28	foodImage.86	FOODEEG_Images\0844.jpg	YN	Right	No	0.553565499838442	0	413988	253
809.111328125	0	health	response	2	88	28	foodImage.86	FOODEEG_Images\0844.jpg	YN	Right	No	0.553565499838442	0	414266	235
810.154296875	1	taste	trialStart	2	89	29	foodImage.34	FOODEEG_Images\0339.jpg	NY	Right	Yes	0.615662200143561	0	414800	251
811.21484375	2	taste	foodImageDisplay	2	89	29	foodImage.34	FOODEEG_Images\0339.jpg	NY	Right	Yes	0.615662200143561	0	415343	252
813.28125	0.615662200143561	taste	choicePhaseStart	2	89	29	foodImage.34	FOODEEG_Images\0339.jpg	NY	Right	Yes	0.615662200143561	0	416401	253
813.88671875	0	taste	response	2	89	29	foodImage.34	FOODEEG_Images\0339.jpg	NY	Right	Yes	0.615662200143561	0	416711	235
814.9296875	1	decision	trialStart	2	90	30	foodImage.110	FOODEEG_Images\0918.jpg	NY	Left	No	0.745068399934098	0	417245	251
815.96875	2	decision	foodImageDisplay	2	90	30	foodImage.110	FOODEEG_Images\0918.jpg	NY	Left	No	0.745068399934098	0	417777	252
818.03125	0.745068399934098	decision	choicePhaseStart	2	90	30	foodImage.110	FOODEEG_Images\0918.jpg	NY	Left	No	0.745068399934098	0	418833	253
818.767578125	0	decision	response	2	90	30	foodImage.110	FOODEEG_Images\0918.jpg	NY	Left	No	0.745068399934098	0	419210	234
819.80859375	1	decision	trialStart	2	91	31	foodImage.38	FOODEEG_Images\0365.jpg	YN	Left	Yes	0.616737700067461	0	419743	251
820.849609375	2	decision	foodImageDisplay	2	91	31	foodImage.38	FOODEEG_Images\0365.jpg	YN	Left	Yes	0.616737700067461	0	420276	252
822.912109375	0.616737700067461	decision	choicePhaseStart	2	91	31	foodImage.38	FOODEEG_Images\0365.jpg	YN	Left	Yes	0.616737700067461	0	421332	253
823.51953125	0	decision	response	2	91	31	foodImage.38	FOODEEG_Images\0365.jpg	YN	Left	Yes	0.616737700067461	0	421643	234
824.55859375	1	health	trialStart	2	92	32	foodImage.59	FOODEEG_Images\0607.jpg	YN	Right	No	0.491253799991682	0	422175	251
825.60546875	2	health	foodImageDisplay	2	92	32	foodImage.59	FOODEEG_Images\0607.jpg	YN	Right	No	0.491253799991682	0	422711	252
827.669921875	0.491253799991682	health	choicePhaseStart	2	92	32	foodImage.59	FOODEEG_Images\0607.jpg	YN	Right	No	0.491253799991682	0	423768	253
828.150390625	0	health	response	2	92	32	foodImage.59	FOODEEG_Images\0607.jpg	YN	Right	No	0.491253799991682	0	424014	235
829.193359375	1	taste	trialStart	2	93	33	foodImage.56	FOODEEG_Images\0586.jpg	NY	Right	Yes	0.645992399891838	0	424548	251
830.244140625	2	taste	foodImageDisplay	2	93	33	foodImage.56	FOODEEG_Images\0586.jpg	NY	Right	Yes	0.645992399891838	0	425086	252
832.306640625	0.645992399891838	taste	choicePhaseStart	2	93	33	foodImage.56	FOODEEG_Images\0586.jpg	NY	Right	Yes	0.645992399891838	0	426142	253
832.943359375	0	taste	response	2	93	33	foodImage.56	FOODEEG_Images\0586.jpg	NY	Right	Yes	0.645992399891838	0	426468	235
833.986328125	1	health	trialStart	2	94	34	foodImage.8	FOODEEG_Images\0136.jpg	NY	Left	No	0.53536990005523	0	427002	251
835.033203125	2	health	foodImageDisplay	2	94	34	foodImage.8	FOODEEG_Images\0136.jpg	NY	Left	No	0.53536990005523	0	427538	252
837.095703125	0.53536990005523	health	choicePhaseStart	2	94	34	foodImage.8	FOODEEG_Images\0136.jpg	NY	Left	No	0.53536990005523	0	428594	253
837.623046875	0	health	response	2	94	34	foodImage.8	FOODEEG_Images\0136.jpg	NY	Left	No	0.53536990005523	0	428864	234
838.6640625	1	decision	trialStart	2	95	35	foodImage.92	FOODEEG_Images\0900.jpg	NY	Left	No	0.634813699871302	0	429397	251
839.701171875	2	decision	foodImageDisplay	2	95	35	foodImage.92	FOODEEG_Images\0900.jpg	NY	Left	No	0.634813699871302	0	429928	252
841.765625	0.634813699871302	decision	choicePhaseStart	2	95	35	foodImage.92	FOODEEG_Images\0900.jpg	NY	Left	No	0.634813699871302	0	430985	253
842.390625	0	decision	response	2	95	35	foodImage.92	FOODEEG_Images\0900.jpg	NY	Left	No	0.634813699871302	0	431305	234
843.43359375	1	decision	trialStart	2	96	36	foodImage.31	FOODEEG_Images\0294.jpg	YN	Left	Yes	0.781765500083566	0	431839	251
844.4765625	2	decision	foodImageDisplay	2	96	36	foodImage.31	FOODEEG_Images\0294.jpg	YN	Left	Yes	0.781765500083566	0	432373	252
846.5390625	0.781765500083566	decision	choicePhaseStart	2	96	36	foodImage.31	FOODEEG_Images\0294.jpg	YN	Left	Yes	0.781765500083566	0	433429	253
847.310546875	0	decision	response	2	96	36	foodImage.31	FOODEEG_Images\0294.jpg	YN	Left	Yes	0.781765500083566	0	433824	234
848.353515625	1	health	trialStart	2	97	37	foodImage.97	FOODEEG_Images\0905.jpg	YN	Right	No	0.759972100146115	0	434358	251
849.392578125	2	health	foodImageDisplay	2	97	37	foodImage.97	FOODEEG_Images\0905.jpg	YN	Right	No	0.759972100146115	0	434890	252
851.455078125	0.759972100146115	health	choicePhaseStart	2	97	37	foodImage.97	FOODEEG_Images\0905.jpg	YN	Right	No	0.759972100146115	0	435946	253
852.20703125	0	health	response	2	97	37	foodImage.97	FOODEEG_Images\0905.jpg	YN	Right	No	0.759972100146115	0	436331	235
853.25	1	decision	trialStart	2	98	38	foodImage.116	FOODEEG_Images\0924.jpg	YN	Right	No	0.784002400003374	0	436865	251
854.2890625	2	decision	foodImageDisplay	2	98	38	foodImage.116	FOODEEG_Images\0924.jpg	YN	Right	No	0.784002400003374	0	437397	252
856.3515625	0.784002400003374	decision	choicePhaseStart	2	98	38	foodImage.116	FOODEEG_Images\0924.jpg	YN	Right	No	0.784002400003374	0	438453	253
857.126953125	0	decision	response	2	98	38	foodImage.116	FOODEEG_Images\0924.jpg	YN	Right	No	0.784002400003374	0	438850	235
858.16796875	1	decision	trialStart	2	99	39	foodImage.59	FOODEEG_Images\0607.jpg	YN	Left	Yes	1.31839790008962	0	439383	251
859.216796875	2	decision	foodImageDisplay	2	99	39	foodImage.59	FOODEEG_Images\0607.jpg	YN	Left	Yes	1.31839790008962	0	439920	252
861.28125	1.31839790008962	decision	choicePhaseStart	2	99	39	foodImage.59	FOODEEG_Images\0607.jpg	YN	Left	Yes	1.31839790008962	0	440977	253
862.58984375	0	decision	response	2	99	39	foodImage.59	FOODEEG_Images\0607.jpg	YN	Left	Yes	1.31839790008962	0	441647	234
863.630859375	1	decision	trialStart	2	100	40	foodImage.30	FOODEEG_Images\0282.jpg	NY	Right	Yes	0.513647000072524	0	442180	251
864.671875	2	decision	foodImageDisplay	2	100	40	foodImage.30	FOODEEG_Images\0282.jpg	NY	Right	Yes	0.513647000072524	0	442713	252
866.734375	0.513647000072524	decision	choicePhaseStart	2	100	40	foodImage.30	FOODEEG_Images\0282.jpg	NY	Right	Yes	0.513647000072524	0	443769	253
867.23828125	0	decision	response	2	100	40	foodImage.30	FOODEEG_Images\0282.jpg	NY	Right	Yes	0.513647000072524	0	444027	235
868.28125	1	decision	trialStart	2	101	41	foodImage.109	FOODEEG_Images\0917.jpg	NY	Left	No	1.00824750005268	0	444561	251
869.318359375	2	decision	foodImageDisplay	2	101	41	foodImage.109	FOODEEG_Images\0917.jpg	NY	Left	No	1.00824750005268	0	445092	252
871.380859375	1.00824750005268	decision	choicePhaseStart	2	101	41	foodImage.109	FOODEEG_Images\0917.jpg	NY	Left	No	1.00824750005268	0	446148	253
872.380859375	0	decision	response	2	101	41	foodImage.109	FOODEEG_Images\0917.jpg	NY	Left	No	1.00824750005268	0	446660	234
873.42578125	1	decision	trialStart	2	102	42	foodImage.72	FOODEEG_Images\0714.jpg	NY	Right	Yes	0.546577000059187	0	447195	251
874.46875	2	decision	foodImageDisplay	2	102	42	foodImage.72	FOODEEG_Images\0714.jpg	NY	Right	Yes	0.546577000059187	0	447729	252
876.53125	0.546577000059187	decision	choicePhaseStart	2	102	42	foodImage.72	FOODEEG_Images\0714.jpg	NY	Right	Yes	0.546577000059187	0	448785	253
877.0703125	0	decision	response	2	102	42	foodImage.72	FOODEEG_Images\0714.jpg	NY	Right	Yes	0.546577000059187	0	449061	235
878.115234375	1	health	trialStart	2	103	43	foodImage.2	FOODEEG_Images\0028.jpg	YN	Right	No	0.743316400097683	0	449596	251
879.16796875	2	health	foodImageDisplay	2	103	43	foodImage.2	FOODEEG_Images\0028.jpg	YN	Right	No	0.743316400097683	0	450135	252
881.23046875	0.743316400097683	health	choicePhaseStart	2	103	43	foodImage.2	FOODEEG_Images\0028.jpg	YN	Right	No	0.743316400097683	0	451191	253
881.96484375	0	health	response	2	103	43	foodImage.2	FOODEEG_Images\0028.jpg	YN	Right	No	0.743316400097683	0	451567	235
883.009765625	1	health	trialStart	2	104	44	foodImage.90	FOODEEG_Images\0890.jpg	NY	Right	Yes	0.645252500195056	0	452102	251
884.06640625	2	health	foodImageDisplay	2	104	44	foodImage.90	FOODEEG_Images\0890.jpg	NY	Right	Yes	0.645252500195056	0	452643	252
886.12890625	0.645252500195056	health	choicePhaseStart	2	104	44	foodImage.90	FOODEEG_Images\0890.jpg	NY	Right	Yes	0.645252500195056	0	453699	253
886.765625	0	health	response	2	104	44	foodImage.90	FOODEEG_Images\0890.jpg	NY	Right	Yes	0.645252500195056	0	454025	235
887.8046875	1	taste	trialStart	2	105	45	foodImage.64	FOODEEG_Images\0647.jpg	NY	Right	Yes	0.609873799839988	0	454557	251
888.861328125	2	taste	foodImageDisplay	2	105	45	foodImage.64	FOODEEG_Images\0647.jpg	NY	Right	Yes	0.609873799839988	0	455098	252
890.923828125	0.609873799839988	taste	choicePhaseStart	2	105	45	foodImage.64	FOODEEG_Images\0647.jpg	NY	Right	Yes	0.609873799839988	0	456154	253
891.525390625	0	taste	response	2	105	45	foodImage.64	FOODEEG_Images\0647.jpg	NY	Right	Yes	0.609873799839988	0	456462	235
892.56640625	1	taste	trialStart	2	106	46	foodImage.70	FOODEEG_Images\0705.jpg	NY	Right	Yes	0.655837500002235	0	456995	251
893.623046875	2	taste	foodImageDisplay	2	106	46	foodImage.70	FOODEEG_Images\0705.jpg	NY	Right	Yes	0.655837500002235	0	457536	252
895.685546875	0.655837500002235	taste	choicePhaseStart	2	106	46	foodImage.70	FOODEEG_Images\0705.jpg	NY	Right	Yes	0.655837500002235	0	458592	253
896.33203125	0	taste	response	2	106	46	foodImage.70	FOODEEG_Images\0705.jpg	NY	Right	Yes	0.655837500002235	0	458923	235
897.375	1	taste	trialStart	2	107	47	foodImage.29	FOODEEG_Images\0278.jpg	NY	Right	Yes	0.550308700185269	0	459457	251
898.416015625	2	taste	foodImageDisplay	2	107	47	foodImage.29	FOODEEG_Images\0278.jpg	NY	Right	Yes	0.550308700185269	0	459990	252
900.478515625	0.550308700185269	taste	choicePhaseStart	2	107	47	foodImage.29	FOODEEG_Images\0278.jpg	NY	Right	Yes	0.550308700185269	0	461046	253
901.01953125	0	taste	response	2	107	47	foodImage.29	FOODEEG_Images\0278.jpg	NY	Right	Yes	0.550308700185269	0	461323	235
902.064453125	1	taste	trialStart	2	108	48	foodImage.21	FOODEEG_Images\0234.jpg	YN	Left	Yes	0.654693899909034	0	461858	251
903.12109375	2	taste	foodImageDisplay	2	108	48	foodImage.21	FOODEEG_Images\0234.jpg	YN	Left	Yes	0.654693899909034	0	462399	252
905.18359375	0.654693899909034	taste	choicePhaseStart	2	108	48	foodImage.21	FOODEEG_Images\0234.jpg	YN	Left	Yes	0.654693899909034	0	463455	253
905.828125	0	taste	response	2	108	48	foodImage.21	FOODEEG_Images\0234.jpg	YN	Left	Yes	0.654693899909034	0	463785	234
906.87109375	1	taste	trialStart	2	109	49	foodImage.20	FOODEEG_Images\0226.jpg	NY	Right	Yes	0.590443699853495	0	464319	251
907.912109375	2	taste	foodImageDisplay	2	109	49	foodImage.20	FOODEEG_Images\0226.jpg	NY	Right	Yes	0.590443699853495	0	464852	252
909.974609375	0.590443699853495	taste	choicePhaseStart	2	109	49	foodImage.20	FOODEEG_Images\0226.jpg	NY	Right	Yes	0.590443699853495	0	465908	253
910.5546875	0	taste	response	2	109	49	foodImage.20	FOODEEG_Images\0226.jpg	NY	Right	Yes	0.590443699853495	0	466205	235
911.6015625	1	taste	trialStart	2	110	50	foodImage.18	FOODEEG_Images\0202.jpg	NY	Right	Yes	0.68010939983651	0	466741	251
912.662109375	2	taste	foodImageDisplay	2	110	50	foodImage.18	FOODEEG_Images\0202.jpg	NY	Right	Yes	0.68010939983651	0	467284	252
914.724609375	0.68010939983651	taste	choicePhaseStart	2	110	50	foodImage.18	FOODEEG_Images\0202.jpg	NY	Right	Yes	0.68010939983651	0	468340	253
915.39453125	0	taste	response	2	110	50	foodImage.18	FOODEEG_Images\0202.jpg	NY	Right	Yes	0.68010939983651	0	468683	235
916.44140625	1	health	trialStart	2	111	51	foodImage.25	FOODEEG_Images\0261.jpg	YN	Left	Yes	0.512419000035152	0	469219	251
917.482421875	2	health	foodImageDisplay	2	111	51	foodImage.25	FOODEEG_Images\0261.jpg	YN	Left	Yes	0.512419000035152	0	469752	252
919.544921875	0.512419000035152	health	choicePhaseStart	2	111	51	foodImage.25	FOODEEG_Images\0261.jpg	YN	Left	Yes	0.512419000035152	0	470808	253
920.05078125	0	health	response	2	111	51	foodImage.25	FOODEEG_Images\0261.jpg	YN	Left	Yes	0.512419000035152	0	471067	234
921.091796875	1	taste	trialStart	2	112	52	foodImage.49	FOODEEG_Images\0515.jpg	YN	Left	Yes	1.1555782998912	0	471600	251
922.134765625	2	taste	foodImageDisplay	2	112	52	foodImage.49	FOODEEG_Images\0515.jpg	YN	Left	Yes	1.1555782998912	0	472134	252
924.201171875	1.1555782998912	taste	choicePhaseStart	2	112	52	foodImage.49	FOODEEG_Images\0515.jpg	YN	Left	Yes	1.1555782998912	0	473192	253
925.34765625	0	taste	response	2	112	52	foodImage.49	FOODEEG_Images\0515.jpg	YN	Left	Yes	1.1555782998912	0	473779	234
926.390625	1	taste	trialStart	2	113	53	foodImage.52	FOODEEG_Images\0539.jpg	YN	Left	Yes	0.557596999919042	0	474313	251
927.447265625	2	taste	foodImageDisplay	2	113	53	foodImage.52	FOODEEG_Images\0539.jpg	YN	Left	Yes	0.557596999919042	0	474854	252
929.509765625	0.557596999919042	taste	choicePhaseStart	2	113	53	foodImage.52	FOODEEG_Images\0539.jpg	YN	Left	Yes	0.557596999919042	0	475910	253
930.05859375	0	taste	response	2	113	53	foodImage.52	FOODEEG_Images\0539.jpg	YN	Left	Yes	0.557596999919042	0	476191	234
931.099609375	1	decision	trialStart	2	114	54	foodImage.57	FOODEEG_Images\0587.jpg	NY	Right	Yes	0.535833099856973	0	476724	251
932.142578125	2	decision	foodImageDisplay	2	114	54	foodImage.57	FOODEEG_Images\0587.jpg	NY	Right	Yes	0.535833099856973	0	477258	252
934.205078125	0.535833099856973	decision	choicePhaseStart	2	114	54	foodImage.57	FOODEEG_Images\0587.jpg	NY	Right	Yes	0.535833099856973	0	478314	253
934.73046875	0	decision	response	2	114	54	foodImage.57	FOODEEG_Images\0587.jpg	NY	Right	Yes	0.535833099856973	0	478583	235
935.775390625	1	health	trialStart	2	115	55	foodImage.5	FOODEEG_Images\0107.jpg	NY	Left	No	0.543970600003377	0	479118	251
936.8359375	2	health	foodImageDisplay	2	115	55	foodImage.5	FOODEEG_Images\0107.jpg	NY	Left	No	0.543970600003377	0	479661	252
938.900390625	0.543970600003377	health	choicePhaseStart	2	115	55	foodImage.5	FOODEEG_Images\0107.jpg	NY	Left	No	0.543970600003377	0	480718	253
939.43359375	0	health	response	2	115	55	foodImage.5	FOODEEG_Images\0107.jpg	NY	Left	No	0.543970600003377	0	480991	234
940.478515625	1	health	trialStart	2	116	56	foodImage.1	FOODEEG_Images\0004.jpg	YN	Right	No	0.915689899818972	0	481526	251
941.521484375	2	health	foodImageDisplay	2	116	56	foodImage.1	FOODEEG_Images\0004.jpg	YN	Right	No	0.915689899818972	0	482060	252
943.583984375	0.915689899818972	health	choicePhaseStart	2	116	56	foodImage.1	FOODEEG_Images\0004.jpg	YN	Right	No	0.915689899818972	0	483116	253
944.490234375	0	health	response	2	116	56	foodImage.1	FOODEEG_Images\0004.jpg	YN	Right	No	0.915689899818972	0	483580	235
945.537109375	1	decision	trialStart	2	117	57	foodImage.33	FOODEEG_Images\0329.jpg	NY	Right	Yes	0.519965300103649	0	484116	251
946.580078125	2	decision	foodImageDisplay	2	117	57	foodImage.33	FOODEEG_Images\0329.jpg	NY	Right	Yes	0.519965300103649	0	484650	252
948.64453125	0.519965300103649	decision	choicePhaseStart	2	117	57	foodImage.33	FOODEEG_Images\0329.jpg	NY	Right	Yes	0.519965300103649	0	485707	253
949.154296875	0	decision	response	2	117	57	foodImage.33	FOODEEG_Images\0329.jpg	NY	Right	Yes	0.519965300103649	0	485968	235
950.197265625	1	health	trialStart	2	118	58	foodImage.118	FOODEEG_Images\0926.jpg	NY	Left	No	1.23451710003428	0	486502	251
951.234375	2	health	foodImageDisplay	2	118	58	foodImage.118	FOODEEG_Images\0926.jpg	NY	Left	No	1.23451710003428	0	487033	252
953.296875	1.23451710003428	health	choicePhaseStart	2	118	58	foodImage.118	FOODEEG_Images\0926.jpg	NY	Left	No	1.23451710003428	0	488089	253
954.521484375	0	health	response	2	118	58	foodImage.118	FOODEEG_Images\0926.jpg	NY	Left	No	1.23451710003428	0	488716	234
955.564453125	1	health	trialStart	2	119	59	foodImage.67	FOODEEG_Images\0679.jpg	YN	Right	No	0.64546460006386	0	489250	251
956.623046875	2	health	foodImageDisplay	2	119	59	foodImage.67	FOODEEG_Images\0679.jpg	YN	Right	No	0.64546460006386	0	489792	252
958.685546875	0.64546460006386	health	choicePhaseStart	2	119	59	foodImage.67	FOODEEG_Images\0679.jpg	YN	Right	No	0.64546460006386	0	490848	253
959.322265625	0	health	response	2	119	59	foodImage.67	FOODEEG_Images\0679.jpg	YN	Right	No	0.64546460006386	0	491174	235
960.361328125	1	taste	trialStart	2	120	60	foodImage.119	FOODEEG_Images\0927.jpg	NY	Left	No	0.837539599975571	0	491706	251
961.400390625	2	taste	foodImageDisplay	2	120	60	foodImage.119	FOODEEG_Images\0927.jpg	NY	Left	No	0.837539599975571	0	492238	252
963.462890625	0.837539599975571	taste	choicePhaseStart	2	120	60	foodImage.119	FOODEEG_Images\0927.jpg	NY	Left	No	0.837539599975571	0	493294	253
964.2890625	0	taste	response	2	120	60	foodImage.119	FOODEEG_Images\0927.jpg	NY	Left	No	0.837539599975571	0	493717	234
966.33203125	24.435546875	n/a	blockEnd	n/a	n/a	n/a	n/a	n/a	n/a	n/a	n/a	n/a	n/a	494763	254
990.767578125	2	n/a	blockStart	3	n/a	n/a	n/a	n/a	n/a	n/a	n/a	n/a	n/a	507274	250
992.80859375	1	health	trialStart	3	121	1	foodImage.43	FOODEEG_Images\0445.jpg	NY	Right	Yes	0.531069000018761	0	508319	251
993.869140625	2	health	foodImageDisplay	3	121	1	foodImage.43	FOODEEG_Images\0445.jpg	NY	Right	Yes	0.531069000018761	0	508862	252
995.935546875	0.531069000018761	health	choicePhaseStart	3	121	1	foodImage.43	FOODEEG_Images\0445.jpg	NY	Right	Yes	0.531069000018761	0	509920	253
996.45703125	0	health	response	3	121	1	foodImage.43	FOODEEG_Images\0445.jpg	NY	Right	Yes	0.531069000018761	0	510187	235
997.5	1	decision	trialStart	3	122	2	foodImage.60	FOODEEG_Images\0614.jpg	NY	Right	Yes	0.493244400015101	0	510721	251
998.55859375	2	decision	foodImageDisplay	3	122	2	foodImage.60	FOODEEG_Images\0614.jpg	NY	Right	Yes	0.493244400015101	0	511263	252
1000.62109375	0.493244400015101	decision	choicePhaseStart	3	122	2	foodImage.60	FOODEEG_Images\0614.jpg	NY	Right	Yes	0.493244400015101	0	512319	253
1001.103515625	0	decision	response	3	122	2	foodImage.60	FOODEEG_Images\0614.jpg	NY	Right	Yes	0.493244400015101	0	512566	235
1002.1484375	1	decision	trialStart	3	123	3	foodImage.64	FOODEEG_Images\0647.jpg	YN	Left	Yes	0.592484599910676	0	513101	251
1003.208984375	2	decision	foodImageDisplay	3	123	3	foodImage.64	FOODEEG_Images\0647.jpg	YN	Left	Yes	0.592484599910676	0	513644	252
1005.2734375	0.592484599910676	decision	choicePhaseStart	3	123	3	foodImage.64	FOODEEG_Images\0647.jpg	YN	Left	Yes	0.592484599910676	0	514701	253
1005.85546875	0	decision	response	3	123	3	foodImage.64	FOODEEG_Images\0647.jpg	YN	Left	Yes	0.592484599910676	0	514999	234
1006.900390625	1	taste	trialStart	3	124	4	foodImage.11	FOODEEG_Images\0180.jpg	NY	Right	Yes	0.614839300047606	0	515534	251
1007.943359375	2	taste	foodImageDisplay	3	124	4	foodImage.11	FOODEEG_Images\0180.jpg	NY	Right	Yes	0.614839300047606	0	516068	252
1010.009765625	0.614839300047606	taste	choicePhaseStart	3	124	4	foodImage.11	FOODEEG_Images\0180.jpg	NY	Right	Yes	0.614839300047606	0	517126	253
1010.615234375	0	taste	response	3	124	4	foodImage.11	FOODEEG_Images\0180.jpg	NY	Right	Yes	0.614839300047606	0	517436	235
1011.65625	1	decision	trialStart	3	125	5	foodImage.120	FOODEEG_Images\0928.jpg	YN	Right	No	0.663271999917924	0	517969	251
1012.6953125	2	decision	foodImageDisplay	3	125	5	foodImage.120	FOODEEG_Images\0928.jpg	YN	Right	No	0.663271999917924	0	518501	252
1014.76171875	0.663271999917924	decision	choicePhaseStart	3	125	5	foodImage.120	FOODEEG_Images\0928.jpg	YN	Right	No	0.663271999917924	0	519559	253
1015.416015625	0	decision	response	3	125	5	foodImage.120	FOODEEG_Images\0928.jpg	YN	Right	No	0.663271999917924	0	519894	235
1016.458984375	1	health	trialStart	3	126	6	foodImage.101	FOODEEG_Images\0909.jpg	NY	Left	No	1.1361519000493	0	520428	251
1017.498046875	2	health	foodImageDisplay	3	126	6	foodImage.101	FOODEEG_Images\0909.jpg	NY	Left	No	1.1361519000493	0	520960	252
1019.560546875	1.1361519000493	health	choicePhaseStart	3	126	6	foodImage.101	FOODEEG_Images\0909.jpg	NY	Left	No	1.1361519000493	0	522016	253
1020.6875	0	health	response	3	126	6	foodImage.101	FOODEEG_Images\0909.jpg	NY	Left	No	1.1361519000493	0	522593	234
1021.73046875	1	health	trialStart	3	127	7	foodImage.19	FOODEEG_Images\0225.jpg	NY	Right	Yes	0.461584000149742	0	523127	251
1022.771484375	2	health	foodImageDisplay	3	127	7	foodImage.19	FOODEEG_Images\0225.jpg	NY	Right	Yes	0.461584000149742	0	523660	252
1024.833984375	0.461584000149742	health	choicePhaseStart	3	127	7	foodImage.19	FOODEEG_Images\0225.jpg	NY	Right	Yes	0.461584000149742	0	524716	253
1025.287109375	0	health	response	3	127	7	foodImage.19	FOODEEG_Images\0225.jpg	NY	Right	Yes	0.461584000149742	0	524948	235
1026.330078125	1	health	trialStart	3	128	8	foodImage.62	FOODEEG_Images\0644.jpg	NY	Right	Yes	0.511150199919939	0	525482	251
1027.390625	2	health	foodImageDisplay	3	128	8	foodImage.62	FOODEEG_Images\0644.jpg	NY	Right	Yes	0.511150199919939	0	526025	252
1029.45703125	0.511150199919939	health	choicePhaseStart	3	128	8	foodImage.62	FOODEEG_Images\0644.jpg	NY	Right	Yes	0.511150199919939	0	527083	253
1029.958984375	0	health	response	3	128	8	foodImage.62	FOODEEG_Images\0644.jpg	NY	Right	Yes	0.511150199919939	0	527340	235
1031	1	taste	trialStart	3	129	9	foodImage.72	FOODEEG_Images\0714.jpg	YN	Left	Yes	0.558957900153473	0	527873	251
1032.04296875	2	taste	foodImageDisplay	3	129	9	foodImage.72	FOODEEG_Images\0714.jpg	YN	Left	Yes	0.558957900153473	0	528407	252
1034.10546875	0.558957900153473	taste	choicePhaseStart	3	129	9	foodImage.72	FOODEEG_Images\0714.jpg	YN	Left	Yes	0.558957900153473	0	529463	253
1034.654296875	0	taste	response	3	129	9	foodImage.72	FOODEEG_Images\0714.jpg	YN	Left	Yes	0.558957900153473	0	529744	234
1035.701171875	1	taste	trialStart	3	130	10	foodImage.12	FOODEEG_Images\0181.jpg	YN	Left	Yes	0.499206699896604	0	530280	251
1036.7421875	2	taste	foodImageDisplay	3	130	10	foodImage.12	FOODEEG_Images\0181.jpg	YN	Left	Yes	0.499206699896604	0	530813	252
1038.8046875	0.499206699896604	taste	choicePhaseStart	3	130	10	foodImage.12	FOODEEG_Images\0181.jpg	YN	Left	Yes	0.499206699896604	0	531869	253
1039.294921875	0	taste	response	3	130	10	foodImage.12	FOODEEG_Images\0181.jpg	YN	Left	Yes	0.499206699896604	0	532120	234
1040.337890625	1	taste	trialStart	3	131	11	foodImage.117	FOODEEG_Images\0925.jpg	YN	Right	No	1.21498980000615	0	532654	251
1041.376953125	2	taste	foodImageDisplay	3	131	11	foodImage.117	FOODEEG_Images\0925.jpg	YN	Right	No	1.21498980000615	0	533186	252
1043.44140625	1.21498980000615	taste	choicePhaseStart	3	131	11	foodImage.117	FOODEEG_Images\0925.jpg	YN	Right	No	1.21498980000615	0	534243	253
1044.646484375	0	taste	response	3	131	11	foodImage.117	FOODEEG_Images\0925.jpg	YN	Right	No	1.21498980000615	0	534860	235
1045.689453125	1	health	trialStart	3	132	12	foodImage.80	FOODEEG_Images\0796.jpg	NY	Right	Yes	0.509968200000003	0	535394	251
1046.755859375	2	health	foodImageDisplay	3	132	12	foodImage.80	FOODEEG_Images\0796.jpg	NY	Right	Yes	0.509968200000003	0	535940	252
1048.818359375	0.509968200000003	health	choicePhaseStart	3	132	12	foodImage.80	FOODEEG_Images\0796.jpg	NY	Right	Yes	0.509968200000003	0	536996	253
1049.318359375	0	health	response	3	132	12	foodImage.80	FOODEEG_Images\0796.jpg	NY	Right	Yes	0.509968200000003	0	537252	235
1050.361328125	1	health	trialStart	3	133	13	foodImage.82	FOODEEG_Images\0805.jpg	NY	Right	Yes	0.4915984000545	0	537786	251
1051.419921875	2	health	foodImageDisplay	3	133	13	foodImage.82	FOODEEG_Images\0805.jpg	NY	Right	Yes	0.4915984000545	0	538328	252
1053.484375	0.4915984000545	health	choicePhaseStart	3	133	13	foodImage.82	FOODEEG_Images\0805.jpg	NY	Right	Yes	0.4915984000545	0	539385	253
1053.966796875	0	health	response	3	133	13	foodImage.82	FOODEEG_Images\0805.jpg	NY	Right	Yes	0.4915984000545	0	539632	235
1055.0078125	1	decision	trialStart	3	134	14	foodImage.11	FOODEEG_Images\0180.jpg	NY	Right	Yes	0.761381699936464	0	540165	251
1056.05078125	2	decision	foodImageDisplay	3	134	14	foodImage.11	FOODEEG_Images\0180.jpg	NY	Right	Yes	0.761381699936464	0	540699	252
1058.115234375	0.761381699936464	decision	choicePhaseStart	3	134	14	foodImage.11	FOODEEG_Images\0180.jpg	NY	Right	Yes	0.761381699936464	0	541756	253
1058.869140625	0	decision	response	3	134	14	foodImage.11	FOODEEG_Images\0180.jpg	NY	Right	Yes	0.761381699936464	0	542142	235
1059.91015625	1	health	trialStart	3	135	15	foodImage.3	FOODEEG_Images\0046.jpg	NY	Left	No	0.536686400184408	0	542675	251
1060.951171875	2	health	foodImageDisplay	3	135	15	foodImage.3	FOODEEG_Images\0046.jpg	NY	Left	No	0.536686400184408	0	543208	252
1063.013671875	0.536686400184408	health	choicePhaseStart	3	135	15	foodImage.3	FOODEEG_Images\0046.jpg	NY	Left	No	0.536686400184408	0	544264	253
1063.541015625	0	health	response	3	135	15	foodImage.3	FOODEEG_Images\0046.jpg	NY	Left	No	0.536686400184408	0	544534	234
1064.5859375	1	health	trialStart	3	136	16	foodImage.44	FOODEEG_Images\0459.jpg	NY	Right	Yes	0.56720279995352	0	545069	251
1065.6328125	2	health	foodImageDisplay	3	136	16	foodImage.44	FOODEEG_Images\0459.jpg	NY	Right	Yes	0.56720279995352	0	545605	252
1067.6953125	0.56720279995352	health	choicePhaseStart	3	136	16	foodImage.44	FOODEEG_Images\0459.jpg	NY	Right	Yes	0.56720279995352	0	546661	253
1068.25390625	0	health	response	3	136	16	foodImage.44	FOODEEG_Images\0459.jpg	NY	Right	Yes	0.56720279995352	0	546947	235
1069.30078125	1	taste	trialStart	3	137	17	foodImage.76	FOODEEG_Images\0766.jpg	NY	Right	Yes	0.494152299826965	0	547483	251
1070.345703125	2	taste	foodImageDisplay	3	137	17	foodImage.76	FOODEEG_Images\0766.jpg	NY	Right	Yes	0.494152299826965	0	548018	252
1072.408203125	0.494152299826965	taste	choicePhaseStart	3	137	17	foodImage.76	FOODEEG_Images\0766.jpg	NY	Right	Yes	0.494152299826965	0	549074	253
1072.892578125	0	taste	response	3	137	17	foodImage.76	FOODEEG_Images\0766.jpg	NY	Right	Yes	0.494152299826965	0	549322	235
1073.935546875	1	taste	trialStart	3	138	18	foodImage.69	FOODEEG_Images\0693.jpg	NY	Right	Yes	0.519665600033477	0	549856	251
1074.978515625	2	taste	foodImageDisplay	3	138	18	foodImage.69	FOODEEG_Images\0693.jpg	NY	Right	Yes	0.519665600033477	0	550390	252
1077.0390625	0.519665600033477	taste	choicePhaseStart	3	138	18	foodImage.69	FOODEEG_Images\0693.jpg	NY	Right	Yes	0.519665600033477	0	551445	253
1077.548828125	0	taste	response	3	138	18	foodImage.69	FOODEEG_Images\0693.jpg	NY	Right	Yes	0.519665600033477	0	551706	235
1078.591796875	1	taste	trialStart	3	139	19	foodImage.78	FOODEEG_Images\0787.jpg	YN	Left	Yes	0.592714400030673	0	552240	251
1079.63671875	2	taste	foodImageDisplay	3	139	19	foodImage.78	FOODEEG_Images\0787.jpg	YN	Left	Yes	0.592714400030673	0	552775	252
1081.701171875	0.592714400030673	taste	choicePhaseStart	3	139	19	foodImage.78	FOODEEG_Images\0787.jpg	YN	Left	Yes	0.592714400030673	0	553832	253
1082.28515625	0	taste	response	3	139	19	foodImage.78	FOODEEG_Images\0787.jpg	YN	Left	Yes	0.592714400030673	0	554131	234
1083.330078125	1	health	trialStart	3	140	20	foodImage.39	FOODEEG_Images\0367.jpg	YN	Right	No	0.599161100108176	0	554666	251
1084.3671875	2	health	foodImageDisplay	3	140	20	foodImage.39	FOODEEG_Images\0367.jpg	YN	Right	No	0.599161100108176	0	555197	252
1086.431640625	0.599161100108176	health	choicePhaseStart	3	140	20	foodImage.39	FOODEEG_Images\0367.jpg	YN	Right	No	0.599161100108176	0	556254	253
1087.021484375	0	health	response	3	140	20	foodImage.39	FOODEEG_Images\0367.jpg	YN	Right	No	0.599161100108176	0	556556	235
1088.064453125	1	taste	trialStart	3	141	21	foodImage.75	FOODEEG_Images\0763.jpg	NY	Right	Yes	0.502883199835196	0	557090	251
1089.11328125	2	taste	foodImageDisplay	3	141	21	foodImage.75	FOODEEG_Images\0763.jpg	NY	Right	Yes	0.502883199835196	0	557627	252
1091.17578125	0.502883199835196	taste	choicePhaseStart	3	141	21	foodImage.75	FOODEEG_Images\0763.jpg	NY	Right	Yes	0.502883199835196	0	558683	253
1091.66796875	0	taste	response	3	141	21	foodImage.75	FOODEEG_Images\0763.jpg	NY	Right	Yes	0.502883199835196	0	558935	235
1092.71875	1	decision	trialStart	3	142	22	foodImage.46	FOODEEG_Images\0479.jpg	YN	Left	Yes	0.512376699829474	0	559473	251
1093.779296875	2	decision	foodImageDisplay	3	142	22	foodImage.46	FOODEEG_Images\0479.jpg	YN	Left	Yes	0.512376699829474	0	560016	252
1095.841796875	0.512376699829474	decision	choicePhaseStart	3	142	22	foodImage.46	FOODEEG_Images\0479.jpg	YN	Left	Yes	0.512376699829474	0	561072	253
1096.34765625	0	decision	response	3	142	22	foodImage.46	FOODEEG_Images\0479.jpg	YN	Left	Yes	0.512376699829474	0	561331	234
1097.3984375	1	taste	trialStart	3	143	23	foodImage.38	FOODEEG_Images\0365.jpg	NY	Right	Yes	0.515326800057665	0	561869	251
1098.435546875	2	taste	foodImageDisplay	3	143	23	foodImage.38	FOODEEG_Images\0365.jpg	NY	Right	Yes	0.515326800057665	0	562400	252
1100.498046875	0.515326800057665	taste	choicePhaseStart	3	143	23	foodImage.38	FOODEEG_Images\0365.jpg	NY	Right	Yes	0.515326800057665	0	563456	253
1101.00390625	0	taste	response	3	143	23	foodImage.38	FOODEEG_Images\0365.jpg	NY	Right	Yes	0.515326800057665	0	563715	235
1102.048828125	1	health	trialStart	3	144	24	foodImage.68	FOODEEG_Images\0685.jpg	YN	Left	Yes	1.52918049995787	0	564250	251
1103.126953125	2	health	foodImageDisplay	3	144	24	foodImage.68	FOODEEG_Images\0685.jpg	YN	Left	Yes	1.52918049995787	0	564802	252
1105.189453125	1.52918049995787	health	choicePhaseStart	3	144	24	foodImage.68	FOODEEG_Images\0685.jpg	YN	Left	Yes	1.52918049995787	0	565858	253
1106.708984375	0	health	response	3	144	24	foodImage.68	FOODEEG_Images\0685.jpg	YN	Left	Yes	1.52918049995787	0	566636	234
1107.751953125	1	decision	trialStart	3	145	25	foodImage.113	FOODEEG_Images\0921.jpg	NY	Right	Yes	1.01587089989334	0	567170	251
1108.791015625	2	decision	foodImageDisplay	3	145	25	foodImage.113	FOODEEG_Images\0921.jpg	NY	Right	Yes	1.01587089989334	0	567702	252
1110.853515625	1.01587089989334	decision	choicePhaseStart	3	145	25	foodImage.113	FOODEEG_Images\0921.jpg	NY	Right	Yes	1.01587089989334	0	568758	253
1111.859375	0	decision	response	3	145	25	foodImage.113	FOODEEG_Images\0921.jpg	NY	Right	Yes	1.01587089989334	0	569273	235
1112.904296875	1	health	trialStart	3	146	26	foodImage.89	FOODEEG_Images\0881.jpg	NY	Right	Yes	0.563413999974728	0	569808	251
1113.962890625	2	health	foodImageDisplay	3	146	26	foodImage.89	FOODEEG_Images\0881.jpg	NY	Right	Yes	0.563413999974728	0	570350	252
1116.025390625	0.563413999974728	health	choicePhaseStart	3	146	26	foodImage.89	FOODEEG_Images\0881.jpg	NY	Right	Yes	0.563413999974728	0	571406	253
1116.580078125	0	health	response	3	146	26	foodImage.89	FOODEEG_Images\0881.jpg	NY	Right	Yes	0.563413999974728	0	571690	235
1117.623046875	1	health	trialStart	3	147	27	foodImage.47	FOODEEG_Images\0488.jpg	NY	Left	No	0.571116000181064	0	572224	251
1118.666015625	2	health	foodImageDisplay	3	147	27	foodImage.47	FOODEEG_Images\0488.jpg	NY	Left	No	0.571116000181064	0	572758	252
1120.73046875	0.571116000181064	health	choicePhaseStart	3	147	27	foodImage.47	FOODEEG_Images\0488.jpg	NY	Left	No	0.571116000181064	0	573815	253
1121.291015625	0	health	response	3	147	27	foodImage.47	FOODEEG_Images\0488.jpg	NY	Left	No	0.571116000181064	0	574102	234
1122.333984375	1	decision	trialStart	3	148	28	foodImage.82	FOODEEG_Images\0805.jpg	NY	Right	Yes	0.836844600038603	0	574636	251
1123.38671875	2	decision	foodImageDisplay	3	148	28	foodImage.82	FOODEEG_Images\0805.jpg	NY	Right	Yes	0.836844600038603	0	575175	252
1125.447265625	0.836844600038603	decision	choicePhaseStart	3	148	28	foodImage.82	FOODEEG_Images\0805.jpg	NY	Right	Yes	0.836844600038603	0	576230	253
1126.275390625	0	decision	response	3	148	28	foodImage.82	FOODEEG_Images\0805.jpg	NY	Right	Yes	0.836844600038603	0	576654	235
1127.318359375	1	decision	trialStart	3	149	29	foodImage.87	FOODEEG_Images\0873.jpg	YN	Left	Yes	0.58374989987351	0	577188	251
1128.375	2	decision	foodImageDisplay	3	149	29	foodImage.87	FOODEEG_Images\0873.jpg	YN	Left	Yes	0.58374989987351	0	577729	252
1130.4375	0.58374989987351	decision	choicePhaseStart	3	149	29	foodImage.87	FOODEEG_Images\0873.jpg	YN	Left	Yes	0.58374989987351	0	578785	253
1131.01171875	0	decision	response	3	149	29	foodImage.87	FOODEEG_Images\0873.jpg	YN	Left	Yes	0.58374989987351	0	579079	234
1132.0546875	1	decision	trialStart	3	150	30	foodImage.12	FOODEEG_Images\0181.jpg	YN	Left	Yes	0.580294499872252	0	579613	251
1133.095703125	2	decision	foodImageDisplay	3	150	30	foodImage.12	FOODEEG_Images\0181.jpg	YN	Left	Yes	0.580294499872252	0	580146	252
1135.16015625	0.580294499872252	decision	choicePhaseStart	3	150	30	foodImage.12	FOODEEG_Images\0181.jpg	YN	Left	Yes	0.580294499872252	0	581203	253
1135.73046875	0	decision	response	3	150	30	foodImage.12	FOODEEG_Images\0181.jpg	YN	Left	Yes	0.580294499872252	0	581495	234
1136.7734375	1	decision	trialStart	3	151	31	foodImage.44	FOODEEG_Images\0459.jpg	NY	Right	Yes	0.512565999990329	0	582029	251
1137.8203125	2	decision	foodImageDisplay	3	151	31	foodImage.44	FOODEEG_Images\0459.jpg	NY	Right	Yes	0.512565999990329	0	582565	252
1139.8828125	0.512565999990329	decision	choicePhaseStart	3	151	31	foodImage.44	FOODEEG_Images\0459.jpg	NY	Right	Yes	0.512565999990329	0	583621	253
1140.38671875	0	decision	response	3	151	31	foodImage.44	FOODEEG_Images\0459.jpg	NY	Right	Yes	0.512565999990329	0	583879	235
1141.431640625	1	taste	trialStart	3	152	32	foodImage.114	FOODEEG_Images\0922.jpg	NY	Left	No	0.887030799873173	0	584414	251
1142.46875	2	taste	foodImageDisplay	3	152	32	foodImage.114	FOODEEG_Images\0922.jpg	NY	Left	No	0.887030799873173	0	584945	252
1144.529296875	0.887030799873173	taste	choicePhaseStart	3	152	32	foodImage.114	FOODEEG_Images\0922.jpg	NY	Left	No	0.887030799873173	0	586000	253
1145.41015625	0	taste	response	3	152	32	foodImage.114	FOODEEG_Images\0922.jpg	NY	Left	No	0.887030799873173	0	586451	234
1146.453125	1	decision	trialStart	3	153	33	foodImage.16	FOODEEG_Images\0196.jpg	NY	Right	Yes	0.584334000013769	0	586985	251
1147.509765625	2	decision	foodImageDisplay	3	153	33	foodImage.16	FOODEEG_Images\0196.jpg	NY	Right	Yes	0.584334000013769	0	587526	252
1149.572265625	0.584334000013769	decision	choicePhaseStart	3	153	33	foodImage.16	FOODEEG_Images\0196.jpg	NY	Right	Yes	0.584334000013769	0	588582	253
1150.146484375	0	decision	response	3	153	33	foodImage.16	FOODEEG_Images\0196.jpg	NY	Right	Yes	0.584334000013769	0	588876	235
1151.189453125	1	health	trialStart	3	154	34	foodImage.12	FOODEEG_Images\0181.jpg	NY	Right	Yes	0.587012900039554	0	589410	251
1152.232421875	2	health	foodImageDisplay	3	154	34	foodImage.12	FOODEEG_Images\0181.jpg	NY	Right	Yes	0.587012900039554	0	589944	252
1154.294921875	0.587012900039554	health	choicePhaseStart	3	154	34	foodImage.12	FOODEEG_Images\0181.jpg	NY	Right	Yes	0.587012900039554	0	591000	253
1154.875	0	health	response	3	154	34	foodImage.12	FOODEEG_Images\0181.jpg	NY	Right	Yes	0.587012900039554	0	591297	235
1155.91796875	1	taste	trialStart	3	155	35	foodImage.79	FOODEEG_Images\0794.jpg	NY	Right	Yes	0.441874099895358	0	591831	251
1156.962890625	2	taste	foodImageDisplay	3	155	35	foodImage.79	FOODEEG_Images\0794.jpg	NY	Right	Yes	0.441874099895358	0	592366	252
1159.03125	0.441874099895358	taste	choicePhaseStart	3	155	35	foodImage.79	FOODEEG_Images\0794.jpg	NY	Right	Yes	0.441874099895358	0	593425	253
1159.466796875	0	taste	response	3	155	35	foodImage.79	FOODEEG_Images\0794.jpg	NY	Right	Yes	0.441874099895358	0	593648	235
1160.5078125	1	health	trialStart	3	156	36	foodImage.20	FOODEEG_Images\0226.jpg	YN	Left	Yes	0.496845999965444	0	594181	251
1161.546875	2	health	foodImageDisplay	3	156	36	foodImage.20	FOODEEG_Images\0226.jpg	YN	Left	Yes	0.496845999965444	0	594713	252
1163.611328125	0.496845999965444	health	choicePhaseStart	3	156	36	foodImage.20	FOODEEG_Images\0226.jpg	YN	Left	Yes	0.496845999965444	0	595770	253
1164.09765625	0	health	response	3	156	36	foodImage.20	FOODEEG_Images\0226.jpg	YN	Left	Yes	0.496845999965444	0	596019	234
1165.140625	1	health	trialStart	3	157	37	foodImage.50	FOODEEG_Images\0529.jpg	YN	Left	Yes	0.530789900105447	0	596553	251
1166.19921875	2	health	foodImageDisplay	3	157	37	foodImage.50	FOODEEG_Images\0529.jpg	YN	Left	Yes	0.530789900105447	0	597095	252
1168.263671875	0.530789900105447	health	choicePhaseStart	3	157	37	foodImage.50	FOODEEG_Images\0529.jpg	YN	Left	Yes	0.530789900105447	0	598152	253
1168.78515625	0	health	response	3	157	37	foodImage.50	FOODEEG_Images\0529.jpg	YN	Left	Yes	0.530789900105447	0	598419	234
1169.830078125	1	health	trialStart	3	158	38	foodImage.32	FOODEEG_Images\0319.jpg	YN	Left	Yes	0.786919900216162	0	598954	251
1170.873046875	2	health	foodImageDisplay	3	158	38	foodImage.32	FOODEEG_Images\0319.jpg	YN	Left	Yes	0.786919900216162	0	599488	252
1172.935546875	0.786919900216162	health	choicePhaseStart	3	158	38	foodImage.32	FOODEEG_Images\0319.jpg	YN	Left	Yes	0.786919900216162	0	600544	253
1173.712890625	0	health	response	3	158	38	foodImage.32	FOODEEG_Images\0319.jpg	YN	Left	Yes	0.786919900216162	0	600942	234
1174.7578125	1	decision	trialStart	3	159	39	foodImage.79	FOODEEG_Images\0794.jpg	YN	Left	Yes	0.672517800005153	0	601477	251
1175.802734375	2	decision	foodImageDisplay	3	159	39	foodImage.79	FOODEEG_Images\0794.jpg	YN	Left	Yes	0.672517800005153	0	602012	252
1177.8671875	0.672517800005153	decision	choicePhaseStart	3	159	39	foodImage.79	FOODEEG_Images\0794.jpg	YN	Left	Yes	0.672517800005153	0	603069	253
1178.529296875	0	decision	response	3	159	39	foodImage.79	FOODEEG_Images\0794.jpg	YN	Left	Yes	0.672517800005153	0	603408	234
1179.568359375	1	taste	trialStart	3	160	40	foodImage.85	FOODEEG_Images\0841.jpg	NY	Right	Yes	0.61016959999688	0	603940	251
1180.625	2	taste	foodImageDisplay	3	160	40	foodImage.85	FOODEEG_Images\0841.jpg	NY	Right	Yes	0.61016959999688	0	604481	252
1182.689453125	0.61016959999688	taste	choicePhaseStart	3	160	40	foodImage.85	FOODEEG_Images\0841.jpg	NY	Right	Yes	0.61016959999688	0	605538	253
1183.2890625	0	taste	response	3	160	40	foodImage.85	FOODEEG_Images\0841.jpg	NY	Right	Yes	0.61016959999688	0	605845	235
1184.333984375	1	decision	trialStart	3	161	41	foodImage.99	FOODEEG_Images\0907.jpg	YN	Right	No	0.607749399961904	0	606380	251
1185.37109375	2	decision	foodImageDisplay	3	161	41	foodImage.99	FOODEEG_Images\0907.jpg	YN	Right	No	0.607749399961904	0	606911	252
1187.435546875	0.607749399961904	decision	choicePhaseStart	3	161	41	foodImage.99	FOODEEG_Images\0907.jpg	YN	Right	No	0.607749399961904	0	607968	253
1188.033203125	0	decision	response	3	161	41	foodImage.99	FOODEEG_Images\0907.jpg	YN	Right	No	0.607749399961904	0	608274	235
1189.076171875	1	decision	trialStart	3	162	42	foodImage.112	FOODEEG_Images\0920.jpg	YN	Right	No	0.607816000003368	0	608808	251
1190.1171875	2	decision	foodImageDisplay	3	162	42	foodImage.112	FOODEEG_Images\0920.jpg	YN	Right	No	0.607816000003368	0	609341	252
1192.185546875	0.607816000003368	decision	choicePhaseStart	3	162	42	foodImage.112	FOODEEG_Images\0920.jpg	YN	Right	No	0.607816000003368	0	610400	253
1192.78515625	0	decision	response	3	162	42	foodImage.112	FOODEEG_Images\0920.jpg	YN	Right	No	0.607816000003368	0	610707	235
1193.828125	1	decision	trialStart	3	163	43	foodImage.56	FOODEEG_Images\0586.jpg	NY	Right	Yes	0.555350800044835	0	611241	251
1194.87109375	2	decision	foodImageDisplay	3	163	43	foodImage.56	FOODEEG_Images\0586.jpg	NY	Right	Yes	0.555350800044835	0	611775	252
1196.935546875	0.555350800044835	decision	choicePhaseStart	3	163	43	foodImage.56	FOODEEG_Images\0586.jpg	NY	Right	Yes	0.555350800044835	0	612832	253
1197.48046875	0	decision	response	3	163	43	foodImage.56	FOODEEG_Images\0586.jpg	NY	Right	Yes	0.555350800044835	0	613111	235
1198.525390625	1	taste	trialStart	3	164	44	foodImage.51	FOODEEG_Images\0536.jpg	YN	Left	Yes	0.85686989990063	0	613646	251
1199.5703125	2	taste	foodImageDisplay	3	164	44	foodImage.51	FOODEEG_Images\0536.jpg	YN	Left	Yes	0.85686989990063	0	614181	252
1201.6328125	0.85686989990063	taste	choicePhaseStart	3	164	44	foodImage.51	FOODEEG_Images\0536.jpg	YN	Left	Yes	0.85686989990063	0	615237	253
1202.48046875	0	taste	response	3	164	44	foodImage.51	FOODEEG_Images\0536.jpg	YN	Left	Yes	0.85686989990063	0	615671	234
1203.5234375	1	health	trialStart	3	165	45	foodImage.111	FOODEEG_Images\0919.jpg	NY	Left	No	1.00749940006062	0	616205	251
1204.5625	2	health	foodImageDisplay	3	165	45	foodImage.111	FOODEEG_Images\0919.jpg	NY	Left	No	1.00749940006062	0	616737	252
1206.625	1.00749940006062	health	choicePhaseStart	3	165	45	foodImage.111	FOODEEG_Images\0919.jpg	NY	Left	No	1.00749940006062	0	617793	253
1207.623046875	0	health	response	3	165	45	foodImage.111	FOODEEG_Images\0919.jpg	NY	Left	No	1.00749940006062	0	618304	234
1208.666015625	1	taste	trialStart	3	166	46	foodImage.15	FOODEEG_Images\0189.jpg	YN	Left	Yes	0.728397199884057	0	618838	251
1209.72265625	2	taste	foodImageDisplay	3	166	46	foodImage.15	FOODEEG_Images\0189.jpg	YN	Left	Yes	0.728397199884057	0	619379	252
1211.78515625	0.728397199884057	taste	choicePhaseStart	3	166	46	foodImage.15	FOODEEG_Images\0189.jpg	YN	Left	Yes	0.728397199884057	0	620435	253
1212.50390625	0	taste	response	3	166	46	foodImage.15	FOODEEG_Images\0189.jpg	YN	Left	Yes	0.728397199884057	0	620803	234
1213.552734375	1	taste	trialStart	3	167	47	foodImage.88	FOODEEG_Images\0878.jpg	NY	Right	Yes	0.768358499975875	0	621340	251
1214.611328125	2	taste	foodImageDisplay	3	167	47	foodImage.88	FOODEEG_Images\0878.jpg	NY	Right	Yes	0.768358499975875	0	621882	252
1216.673828125	0.768358499975875	taste	choicePhaseStart	3	167	47	foodImage.88	FOODEEG_Images\0878.jpg	NY	Right	Yes	0.768358499975875	0	622938	253
1217.431640625	0	taste	response	3	167	47	foodImage.88	FOODEEG_Images\0878.jpg	NY	Right	Yes	0.768358499975875	0	623326	235
1218.474609375	1	decision	trialStart	3	168	48	foodImage.13	FOODEEG_Images\0183.jpg	NY	Right	Yes	0.556609799852595	0	623860	251
1219.517578125	2	decision	foodImageDisplay	3	168	48	foodImage.13	FOODEEG_Images\0183.jpg	NY	Right	Yes	0.556609799852595	0	624394	252
1221.580078125	0.556609799852595	decision	choicePhaseStart	3	168	48	foodImage.13	FOODEEG_Images\0183.jpg	NY	Right	Yes	0.556609799852595	0	625450	253
1222.126953125	0	decision	response	3	168	48	foodImage.13	FOODEEG_Images\0183.jpg	NY	Right	Yes	0.556609799852595	0	625730	235
1223.171875	1	decision	trialStart	3	169	49	foodImage.89	FOODEEG_Images\0881.jpg	NY	Right	Yes	0.580627800198272	0	626265	251
1224.23046875	2	decision	foodImageDisplay	3	169	49	foodImage.89	FOODEEG_Images\0881.jpg	NY	Right	Yes	0.580627800198272	0	626807	252
1226.29296875	0.580627800198272	decision	choicePhaseStart	3	169	49	foodImage.89	FOODEEG_Images\0881.jpg	NY	Right	Yes	0.580627800198272	0	627863	253
1226.86328125	0	decision	response	3	169	49	foodImage.89	FOODEEG_Images\0881.jpg	NY	Right	Yes	0.580627800198272	0	628155	235
1227.904296875	1	taste	trialStart	3	170	50	foodImage.47	FOODEEG_Images\0488.jpg	NY	Right	Yes	0.553259399952367	0	628688	251
1228.953125	2	taste	foodImageDisplay	3	170	50	foodImage.47	FOODEEG_Images\0488.jpg	NY	Right	Yes	0.553259399952367	0	629225	252
1231.021484375	0.553259399952367	taste	choicePhaseStart	3	170	50	foodImage.47	FOODEEG_Images\0488.jpg	NY	Right	Yes	0.553259399952367	0	630284	253
1231.56640625	0	taste	response	3	170	50	foodImage.47	FOODEEG_Images\0488.jpg	NY	Right	Yes	0.553259399952367	0	630563	235
1232.609375	1	taste	trialStart	3	171	51	foodImage.94	FOODEEG_Images\0902.jpg	YN	Left	Yes	1.21754700015299	0	631097	251
1233.646484375	2	taste	foodImageDisplay	3	171	51	foodImage.94	FOODEEG_Images\0902.jpg	YN	Left	Yes	1.21754700015299	0	631628	252
1235.7109375	1.21754700015299	taste	choicePhaseStart	3	171	51	foodImage.94	FOODEEG_Images\0902.jpg	YN	Left	Yes	1.21754700015299	0	632685	253
1236.91796875	0	taste	response	3	171	51	foodImage.94	FOODEEG_Images\0902.jpg	YN	Left	Yes	1.21754700015299	0	633303	234
1237.958984375	1	health	trialStart	3	172	52	foodImage.79	FOODEEG_Images\0794.jpg	NY	Right	Yes	0.599515900015831	0	633836	251
1239.001953125	2	health	foodImageDisplay	3	172	52	foodImage.79	FOODEEG_Images\0794.jpg	NY	Right	Yes	0.599515900015831	0	634370	252
1241.064453125	0.599515900015831	health	choicePhaseStart	3	172	52	foodImage.79	FOODEEG_Images\0794.jpg	NY	Right	Yes	0.599515900015831	0	635426	253
1241.654296875	0	health	response	3	172	52	foodImage.79	FOODEEG_Images\0794.jpg	NY	Right	Yes	0.599515900015831	0	635728	235
1242.69921875	1	taste	trialStart	3	173	53	foodImage.95	FOODEEG_Images\0903.jpg	YN	Right	No	0.743608300108463	0	636263	251
1243.736328125	2	taste	foodImageDisplay	3	173	53	foodImage.95	FOODEEG_Images\0903.jpg	YN	Right	No	0.743608300108463	0	636794	252
1245.80078125	0.743608300108463	taste	choicePhaseStart	3	173	53	foodImage.95	FOODEEG_Images\0903.jpg	YN	Right	No	0.743608300108463	0	637851	253
1246.53515625	0	taste	response	3	173	53	foodImage.95	FOODEEG_Images\0903.jpg	YN	Right	No	0.743608300108463	0	638227	235
1247.578125	1	taste	trialStart	3	174	54	foodImage.33	FOODEEG_Images\0329.jpg	NY	Right	Yes	0.60349790006876	0	638761	251
1248.62109375	2	taste	foodImageDisplay	3	174	54	foodImage.33	FOODEEG_Images\0329.jpg	NY	Right	Yes	0.60349790006876	0	639295	252
1250.685546875	0.60349790006876	taste	choicePhaseStart	3	174	54	foodImage.33	FOODEEG_Images\0329.jpg	NY	Right	Yes	0.60349790006876	0	640352	253
1251.279296875	0	taste	response	3	174	54	foodImage.33	FOODEEG_Images\0329.jpg	NY	Right	Yes	0.60349790006876	0	640656	235
1252.322265625	1	decision	trialStart	3	175	55	foodImage.29	FOODEEG_Images\0278.jpg	NY	Right	Yes	0.554576000198722	0	641190	251
1253.365234375	2	decision	foodImageDisplay	3	175	55	foodImage.29	FOODEEG_Images\0278.jpg	NY	Right	Yes	0.554576000198722	0	641724	252
1255.4296875	0.554576000198722	decision	choicePhaseStart	3	175	55	foodImage.29	FOODEEG_Images\0278.jpg	NY	Right	Yes	0.554576000198722	0	642781	253
1255.974609375	0	decision	response	3	175	55	foodImage.29	FOODEEG_Images\0278.jpg	NY	Right	Yes	0.554576000198722	0	643060	235
1257.015625	1	health	trialStart	3	176	56	foodImage.38	FOODEEG_Images\0365.jpg	NY	Right	Yes	0.532781899906695	0	643593	251
1258.052734375	2	health	foodImageDisplay	3	176	56	foodImage.38	FOODEEG_Images\0365.jpg	NY	Right	Yes	0.532781899906695	0	644124	252
1260.115234375	0.532781899906695	health	choicePhaseStart	3	176	56	foodImage.38	FOODEEG_Images\0365.jpg	NY	Right	Yes	0.532781899906695	0	645180	253
1260.638671875	0	health	response	3	176	56	foodImage.38	FOODEEG_Images\0365.jpg	NY	Right	Yes	0.532781899906695	0	645448	235
1261.681640625	1	decision	trialStart	3	177	57	foodImage.97	FOODEEG_Images\0905.jpg	NY	Left	No	0.60100040002726	0	645982	251
1262.720703125	2	decision	foodImageDisplay	3	177	57	foodImage.97	FOODEEG_Images\0905.jpg	NY	Left	No	0.60100040002726	0	646514	252
1264.783203125	0.60100040002726	decision	choicePhaseStart	3	177	57	foodImage.97	FOODEEG_Images\0905.jpg	NY	Left	No	0.60100040002726	0	647570	253
1265.375	0	decision	response	3	177	57	foodImage.97	FOODEEG_Images\0905.jpg	NY	Left	No	0.60100040002726	0	647873	234
1266.41796875	1	taste	trialStart	3	178	58	foodImage.115	FOODEEG_Images\0923.jpg	YN	Right	No	0.734509200090542	0	648407	251
1267.45703125	2	taste	foodImageDisplay	3	178	58	foodImage.115	FOODEEG_Images\0923.jpg	YN	Right	No	0.734509200090542	0	648939	252
1269.51953125	0.734509200090542	taste	choicePhaseStart	3	178	58	foodImage.115	FOODEEG_Images\0923.jpg	YN	Right	No	0.734509200090542	0	649995	253
1270.24609375	0	taste	response	3	178	58	foodImage.115	FOODEEG_Images\0923.jpg	YN	Right	No	0.734509200090542	0	650367	235
1271.287109375	1	decision	trialStart	3	179	59	foodImage.91	FOODEEG_Images\0896.jpg	YN	Left	Yes	0.664224999956787	0	650900	251
1272.34375	2	decision	foodImageDisplay	3	179	59	foodImage.91	FOODEEG_Images\0896.jpg	YN	Left	Yes	0.664224999956787	0	651441	252
1274.40625	0.664224999956787	decision	choicePhaseStart	3	179	59	foodImage.91	FOODEEG_Images\0896.jpg	YN	Left	Yes	0.664224999956787	0	652497	253
1275.060546875	0	decision	response	3	179	59	foodImage.91	FOODEEG_Images\0896.jpg	YN	Left	Yes	0.664224999956787	0	652832	234
1276.111328125	1	decision	trialStart	3	180	60	foodImage.14	FOODEEG_Images\0188.jpg	NY	Right	Yes	0.598923000041395	0	653370	251
1277.166015625	2	decision	foodImageDisplay	3	180	60	foodImage.14	FOODEEG_Images\0188.jpg	NY	Right	Yes	0.598923000041395	0	653910	252
1279.232421875	0.598923000041395	decision	choicePhaseStart	3	180	60	foodImage.14	FOODEEG_Images\0188.jpg	NY	Right	Yes	0.598923000041395	0	654968	253
1279.822265625	0	decision	response	3	180	60	foodImage.14	FOODEEG_Images\0188.jpg	NY	Right	Yes	0.598923000041395	0	655270	235
1281.86328125	13.166015625	n/a	blockEnd	n/a	n/a	n/a	n/a	n/a	n/a	n/a	n/a	n/a	n/a	656315	254
1295.029296875	2	n/a	blockStart	4	n/a	n/a	n/a	n/a	n/a	n/a	n/a	n/a	n/a	663056	250
1297.0625	1	taste	trialStart	4	181	1	foodImage.77	FOODEEG_Images\0771.jpg	NY	Right	Yes	0.546417300123721	0	664097	251
1298.107421875	2	taste	foodImageDisplay	4	181	1	foodImage.77	FOODEEG_Images\0771.jpg	NY	Right	Yes	0.546417300123721	0	664632	252
1300.171875	0.546417300123721	taste	choicePhaseStart	4	181	1	foodImage.77	FOODEEG_Images\0771.jpg	NY	Right	Yes	0.546417300123721	0	665689	253
1300.708984375	0	taste	response	4	181	1	foodImage.77	FOODEEG_Images\0771.jpg	NY	Right	Yes	0.546417300123721	0	665964	235
1301.751953125	1	decision	trialStart	4	182	2	foodImage.61	FOODEEG_Images\0640.jpg	NY	Right	Yes	0.554688300006092	0	666498	251
1302.794921875	2	decision	foodImageDisplay	4	182	2	foodImage.61	FOODEEG_Images\0640.jpg	NY	Right	Yes	0.554688300006092	0	667032	252
1304.859375	0.554688300006092	decision	choicePhaseStart	4	182	2	foodImage.61	FOODEEG_Images\0640.jpg	NY	Right	Yes	0.554688300006092	0	668089	253
1305.404296875	0	decision	response	4	182	2	foodImage.61	FOODEEG_Images\0640.jpg	NY	Right	Yes	0.554688300006092	0	668368	235
1306.447265625	1	taste	trialStart	4	183	3	foodImage.74	FOODEEG_Images\0752.jpg	YN	Left	Yes	0.561722900019959	0	668902	251
1307.4921875	2	taste	foodImageDisplay	4	183	3	foodImage.74	FOODEEG_Images\0752.jpg	YN	Left	Yes	0.561722900019959	0	669437	252
1309.556640625	0.561722900019959	taste	choicePhaseStart	4	183	3	foodImage.74	FOODEEG_Images\0752.jpg	YN	Left	Yes	0.561722900019959	0	670494	253
1310.107421875	0	taste	response	4	183	3	foodImage.74	FOODEEG_Images\0752.jpg	YN	Left	Yes	0.561722900019959	0	670776	234
1311.15234375	1	decision	trialStart	4	184	4	foodImage.101	FOODEEG_Images\0909.jpg	YN	Right	No	0.686838400084525	0	671311	251
1312.19140625	2	decision	foodImageDisplay	4	184	4	foodImage.101	FOODEEG_Images\0909.jpg	YN	Right	No	0.686838400084525	0	671843	252
1314.25390625	0.686838400084525	decision	choicePhaseStart	4	184	4	foodImage.101	FOODEEG_Images\0909.jpg	YN	Right	No	0.686838400084525	0	672899	253
1314.931640625	0	decision	response	4	184	4	foodImage.101	FOODEEG_Images\0909.jpg	YN	Right	No	0.686838400084525	0	673246	235
1315.982421875	1	health	trialStart	4	185	5	foodImage.13	FOODEEG_Images\0183.jpg	NY	Left	No	1.11188660003245	0	673784	251
1317.025390625	2	health	foodImageDisplay	4	185	5	foodImage.13	FOODEEG_Images\0183.jpg	NY	Left	No	1.11188660003245	0	674318	252
1319.087890625	1.11188660003245	health	choicePhaseStart	4	185	5	foodImage.13	FOODEEG_Images\0183.jpg	NY	Left	No	1.11188660003245	0	675374	253
1320.189453125	0	health	response	4	185	5	foodImage.13	FOODEEG_Images\0183.jpg	NY	Left	No	1.11188660003245	0	675938	234
1321.232421875	1	decision	trialStart	4	186	6	foodImage.9	FOODEEG_Images\0138.jpg	NY	Right	Yes	0.714876900194213	0	676472	251
1322.291015625	2	decision	foodImageDisplay	4	186	6	foodImage.9	FOODEEG_Images\0138.jpg	NY	Right	Yes	0.714876900194213	0	677014	252
1324.361328125	0.714876900194213	decision	choicePhaseStart	4	186	6	foodImage.9	FOODEEG_Images\0138.jpg	NY	Right	Yes	0.714876900194213	0	678074	253
1325.068359375	0	decision	response	4	186	6	foodImage.9	FOODEEG_Images\0138.jpg	NY	Right	Yes	0.714876900194213	0	678436	235
1326.111328125	1	taste	trialStart	4	187	7	foodImage.63	FOODEEG_Images\0645.jpg	YN	Right	No	0.669006499927491	0	678970	251
1327.15234375	2	taste	foodImageDisplay	4	187	7	foodImage.63	FOODEEG_Images\0645.jpg	YN	Right	No	0.669006499927491	0	679503	252
1329.21484375	0.669006499927491	taste	choicePhaseStart	4	187	7	foodImage.63	FOODEEG_Images\0645.jpg	YN	Right	No	0.669006499927491	0	680559	253
1329.875	0	taste	response	4	187	7	foodImage.63	FOODEEG_Images\0645.jpg	YN	Right	No	0.669006499927491	0	680897	235
1330.91796875	1	health	trialStart	4	188	8	foodImage.9	FOODEEG_Images\0138.jpg	NY	Right	Yes	0.631107999943197	0	681431	251
1331.978515625	2	health	foodImageDisplay	4	188	8	foodImage.9	FOODEEG_Images\0138.jpg	NY	Right	Yes	0.631107999943197	0	681974	252
1334.044921875	0.631107999943197	health	choicePhaseStart	4	188	8	foodImage.9	FOODEEG_Images\0138.jpg	NY	Right	Yes	0.631107999943197	0	683032	253
1334.666015625	0	health	response	4	188	8	foodImage.9	FOODEEG_Images\0138.jpg	NY	Right	Yes	0.631107999943197	0	683350	235
1335.7109375	1	decision	trialStart	4	189	9	foodImage.51	FOODEEG_Images\0536.jpg	NY	Right	Yes	1.01106250006706	0	683885	251
1336.75390625	2	decision	foodImageDisplay	4	189	9	foodImage.51	FOODEEG_Images\0536.jpg	NY	Right	Yes	1.01106250006706	0	684419	252
1338.818359375	1.01106250006706	decision	choicePhaseStart	4	189	9	foodImage.51	FOODEEG_Images\0536.jpg	NY	Right	Yes	1.01106250006706	0	685476	253
1339.818359375	0	decision	response	4	189	9	foodImage.51	FOODEEG_Images\0536.jpg	NY	Right	Yes	1.01106250006706	0	685988	235
1340.86328125	1	taste	trialStart	4	190	10	foodImage.66	FOODEEG_Images\0676.jpg	YN	Left	Yes	0.772209000075236	0	686523	251
1341.904296875	2	taste	foodImageDisplay	4	190	10	foodImage.66	FOODEEG_Images\0676.jpg	YN	Left	Yes	0.772209000075236	0	687056	252
1343.96875	0.772209000075236	taste	choicePhaseStart	4	190	10	foodImage.66	FOODEEG_Images\0676.jpg	YN	Left	Yes	0.772209000075236	0	688113	253
1344.73046875	0	taste	response	4	190	10	foodImage.66	FOODEEG_Images\0676.jpg	YN	Left	Yes	0.772209000075236	0	688503	234
1345.775390625	1	taste	trialStart	4	191	11	foodImage.48	FOODEEG_Images\0494.jpg	NY	Right	Yes	0.682792000006884	0	689038	251
1346.818359375	2	taste	foodImageDisplay	4	191	11	foodImage.48	FOODEEG_Images\0494.jpg	NY	Right	Yes	0.682792000006884	0	689572	252
1348.880859375	0.682792000006884	taste	choicePhaseStart	4	191	11	foodImage.48	FOODEEG_Images\0494.jpg	NY	Right	Yes	0.682792000006884	0	690628	253
1349.5546875	0	taste	response	4	191	11	foodImage.48	FOODEEG_Images\0494.jpg	NY	Right	Yes	0.682792000006884	0	690973	235
1350.59375	1	taste	trialStart	4	192	12	foodImage.97	FOODEEG_Images\0905.jpg	NY	Left	No	0.916501099942252	0	691505	251
1351.6328125	2	taste	foodImageDisplay	4	192	12	foodImage.97	FOODEEG_Images\0905.jpg	NY	Left	No	0.916501099942252	0	692037	252
1353.6953125	0.916501099942252	taste	choicePhaseStart	4	192	12	foodImage.97	FOODEEG_Images\0905.jpg	NY	Left	No	0.916501099942252	0	693093	253
1354.6015625	0	taste	response	4	192	12	foodImage.97	FOODEEG_Images\0905.jpg	NY	Left	No	0.916501099942252	0	693557	234
1355.642578125	1	taste	trialStart	4	193	13	foodImage.112	FOODEEG_Images\0920.jpg	YN	Left	Yes	2.09967519994825	0	694090	251
1356.681640625	2	taste	foodImageDisplay	4	193	13	foodImage.112	FOODEEG_Images\0920.jpg	YN	Left	Yes	2.09967519994825	0	694622	252
1358.744140625	2.09967519994825	taste	choicePhaseStart	4	193	13	foodImage.112	FOODEEG_Images\0920.jpg	YN	Left	Yes	2.09967519994825	0	695678	253
