onset	duration	trial_type	event_type	block	trial_total	trial_in_block	food_image_code	food_image_path	button_position	resp_position	resp_choice	choice_rt	resp_too_slow	sample	trigger
263.20703125	2	n/a	blockStart	1	n/a	n/a	n/a	n/a	n/a	n/a	n/a	n/a	n/a	134763	250
265.244140625	1	decision	trialStart	1	1	1	foodImage.47	FOODEEG_Images\0488.jpg	YN	Left	Yes	0.791701299999659	0	135806	251
266.29296875	2	decision	foodImageDisplay	1	1	1	foodImage.47	FOODEEG_Images\0488.jpg	YN	Left	Yes	0.791701299999659	0	136343	252
268.357421875	0.791701299999659	decision	choicePhaseStart	1	1	1	foodImage.47	FOODEEG_Images\0488.jpg	YN	Left	Yes	0.791701299999659	0	137400	253
269.142578125	0	decision	response	1	1	1	foodImage.47	FOODEEG_Images\0488.jpg	YN	Left	Yes	0.791701299999659	0	137802	234
270.228515625	1	health	trialStart	1	2	2	foodImage.98	FOODEEG_Images\0906.jpg	YN	Left	Yes	1.11031169999933	0	138358	251
271.279296875	2	health	foodImageDisplay	1	2	2	foodImage.98	FOODEEG_Images\0906.jpg	YN	Left	Yes	1.11031169999933	0	138896	252
273.3515625	1.11031169999933	health	choicePhaseStart	1	2	2	foodImage.98	FOODEEG_Images\0906.jpg	YN	Left	Yes	1.11031169999933	0	139957	253
274.453125	0	health	response	1	2	2	foodImage.98	FOODEEG_Images\0906.jpg	YN	Left	Yes	1.11031169999933	0	140521	234
275.50390625	1	decision	trialStart	1	3	3	foodImage.38	FOODEEG_Images\0365.jpg	YN	Left	Yes	0.788303799999994	0	141059	251
276.544921875	2	decision	foodImageDisplay	1	3	3	foodImage.38	FOODEEG_Images\0365.jpg	YN	Left	Yes	0.788303799999994	0	141592	252
278.609375	0.788303799999994	decision	choicePhaseStart	1	3	3	foodImage.38	FOODEEG_Images\0365.jpg	YN	Left	Yes	0.788303799999994	0	142649	253
279.388671875	0	decision	response	1	3	3	foodImage.38	FOODEEG_Images\0365.jpg	YN	Left	Yes	0.788303799999994	0	143048	234
280.4296875	1	decision	trialStart	1	4	4	foodImage.55	FOODEEG_Images\0567.jpg	YN	Left	Yes	1.12482310000087	0	143581	251
281.48828125	2	decision	foodImageDisplay	1	4	4	foodImage.55	FOODEEG_Images\0567.jpg	YN	Left	Yes	1.12482310000087	0	144123	252
283.552734375	1.12482310000087	decision	choicePhaseStart	1	4	4	foodImage.55	FOODEEG_Images\0567.jpg	YN	Left	Yes	1.12482310000087	0	145180	253
284.669921875	0	decision	response	1	4	4	foodImage.55	FOODEEG_Images\0567.jpg	YN	Left	Yes	1.12482310000087	0	145752	234
285.712890625	1	health	trialStart	1	5	5	foodImage.85	FOODEEG_Images\0841.jpg	YN	Left	Yes	1.25736469999993	0	146286	251
286.77734375	2	health	foodImageDisplay	1	5	5	foodImage.85	FOODEEG_Images\0841.jpg	YN	Left	Yes	1.25736469999993	0	146831	252
288.84375	1.25736469999993	health	choicePhaseStart	1	5	5	foodImage.85	FOODEEG_Images\0841.jpg	YN	Left	Yes	1.25736469999993	0	147889	253
290.09375	0	health	response	1	5	5	foodImage.85	FOODEEG_Images\0841.jpg	YN	Left	Yes	1.25736469999993	0	148529	234
291.14453125	1	taste	trialStart	1	6	6	foodImage.81	FOODEEG_Images\0797.jpg	NY	Left	No	0.870962800000598	0	149067	251
292.203125	2	taste	foodImageDisplay	1	6	6	foodImage.81	FOODEEG_Images\0797.jpg	NY	Left	No	0.870962800000598	0	149609	252
294.26953125	0.870962800000598	taste	choicePhaseStart	1	6	6	foodImage.81	FOODEEG_Images\0797.jpg	NY	Left	No	0.870962800000598	0	150667	253
295.1328125	0	taste	response	1	6	6	foodImage.81	FOODEEG_Images\0797.jpg	NY	Left	No	0.870962800000598	0	151109	234
296.173828125	1	decision	trialStart	1	7	7	foodImage.12	FOODEEG_Images\0181.jpg	YN	Right	No	0.674818700000287	0	151642	251
297.21875	2	decision	foodImageDisplay	1	7	7	foodImage.12	FOODEEG_Images\0181.jpg	YN	Right	No	0.674818700000287	0	152177	252
299.283203125	0.674818700000287	decision	choicePhaseStart	1	7	7	foodImage.12	FOODEEG_Images\0181.jpg	YN	Right	No	0.674818700000287	0	153234	253
299.94921875	0	decision	response	1	7	7	foodImage.12	FOODEEG_Images\0181.jpg	YN	Right	No	0.674818700000287	0	153575	235
300.990234375	1	taste	trialStart	1	8	8	foodImage.113	FOODEEG_Images\0921.jpg	YN	Right	No	0.751259399999981	0	154108	251
302.03125	2	taste	foodImageDisplay	1	8	8	foodImage.113	FOODEEG_Images\0921.jpg	YN	Right	No	0.751259399999981	0	154641	252
304.099609375	0.751259399999981	taste	choicePhaseStart	1	8	8	foodImage.113	FOODEEG_Images\0921.jpg	YN	Right	No	0.751259399999981	0	155700	253
304.84375	0	taste	response	1	8	8	foodImage.113	FOODEEG_Images\0921.jpg	YN	Right	No	0.751259399999981	0	156081	235
305.890625	1	health	trialStart	1	9	9	foodImage.63	FOODEEG_Images\0645.jpg	YN	Left	Yes	0.427983399999903	0	156617	251
306.935546875	2	health	foodImageDisplay	1	9	9	foodImage.63	FOODEEG_Images\0645.jpg	YN	Left	Yes	0.427983399999903	0	157152	252
309	0.427983399999903	health	choicePhaseStart	1	9	9	foodImage.63	FOODEEG_Images\0645.jpg	YN	Left	Yes	0.427983399999903	0	158209	253
309.419921875	0	health	response	1	9	9	foodImage.63	FOODEEG_Images\0645.jpg	YN	Left	Yes	0.427983399999903	0	158424	234
310.4609375	1	health	trialStart	1	10	10	foodImage.2	FOODEEG_Images\0028.jpg	YN	Right	No	1.89058080000086	0	158957	251
311.505859375	2	health	foodImageDisplay	1	10	10	foodImage.2	FOODEEG_Images\0028.jpg	YN	Right	No	1.89058080000086	0	159492	252
313.5703125	1.89058080000086	health	choicePhaseStart	1	10	10	foodImage.2	FOODEEG_Images\0028.jpg	YN	Right	No	1.89058080000086	0	160549	253
315.451171875	0	health	response	1	10	10	foodImage.2	FOODEEG_Images\0028.jpg	YN	Right	No	1.89058080000086	0	161512	235
316.4921875	1	taste	trialStart	1	11	11	foodImage.57	FOODEEG_Images\0587.jpg	NY	Left	No	1.28102229999968	0	162045	251
317.537109375	2	taste	foodImageDisplay	1	11	11	foodImage.57	FOODEEG_Images\0587.jpg	NY	Left	No	1.28102229999968	0	162580	252
319.6015625	1.28102229999968	taste	choicePhaseStart	1	11	11	foodImage.57	FOODEEG_Images\0587.jpg	NY	Left	No	1.28102229999968	0	163637	253
320.875	0	taste	response	1	11	11	foodImage.57	FOODEEG_Images\0587.jpg	NY	Left	No	1.28102229999968	0	164289	234
321.916015625	1	taste	trialStart	1	12	12	foodImage.35	FOODEEG_Images\0350.jpg	YN	Left	Yes	0.599168600000667	0	164822	251
322.95703125	2	taste	foodImageDisplay	1	12	12	foodImage.35	FOODEEG_Images\0350.jpg	YN	Left	Yes	0.599168600000667	0	165355	252
325.021484375	0.599168600000667	taste	choicePhaseStart	1	12	12	foodImage.35	FOODEEG_Images\0350.jpg	YN	Left	Yes	0.599168600000667	0	166412	253
325.611328125	0	taste	response	1	12	12	foodImage.35	FOODEEG_Images\0350.jpg	YN	Left	Yes	0.599168600000667	0	166714	234
326.654296875	1	health	trialStart	1	13	13	foodImage.89	FOODEEG_Images\0881.jpg	NY	Right	Yes	0.593419299999368	0	167248	251
327.712890625	2	health	foodImageDisplay	1	13	13	foodImage.89	FOODEEG_Images\0881.jpg	NY	Right	Yes	0.593419299999368	0	167790	252
329.77734375	0.593419299999368	health	choicePhaseStart	1	13	13	foodImage.89	FOODEEG_Images\0881.jpg	NY	Right	Yes	0.593419299999368	0	168847	253
330.36328125	0	health	response	1	13	13	foodImage.89	FOODEEG_Images\0881.jpg	NY	Right	Yes	0.593419299999368	0	169147	235
331.404296875	1	decision	trialStart	1	14	14	foodImage.100	FOODEEG_Images\0908.jpg	NY	Left	No	0.73423400000047	0	169680	251
332.443359375	2	decision	foodImageDisplay	1	14	14	foodImage.100	FOODEEG_Images\0908.jpg	NY	Left	No	0.73423400000047	0	170212	252
334.513671875	0.73423400000047	decision	choicePhaseStart	1	14	14	foodImage.100	FOODEEG_Images\0908.jpg	NY	Left	No	0.73423400000047	0	171272	253
335.2421875	0	decision	response	1	14	14	foodImage.100	FOODEEG_Images\0908.jpg	NY	Left	No	0.73423400000047	0	171645	234
336.283203125	1	taste	trialStart	1	15	15	foodImage.48	FOODEEG_Images\0494.jpg	YN	Left	Yes	1.64784950000012	0	172178	251
337.328125	2	taste	foodImageDisplay	1	15	15	foodImage.48	FOODEEG_Images\0494.jpg	YN	Left	Yes	1.64784950000012	0	172713	252
339.392578125	1.64784950000012	taste	choicePhaseStart	1	15	15	foodImage.48	FOODEEG_Images\0494.jpg	YN	Left	Yes	1.64784950000012	0	173770	253
341.03515625	0	taste	response	1	15	15	foodImage.48	FOODEEG_Images\0494.jpg	YN	Left	Yes	1.64784950000012	0	174611	234
342.078125	1	health	trialStart	1	16	16	foodImage.104	FOODEEG_Images\0912.jpg	YN	Left	Yes	0.874252499999784	0	175145	251
343.12109375	2	health	foodImageDisplay	1	16	16	foodImage.104	FOODEEG_Images\0912.jpg	YN	Left	Yes	0.874252499999784	0	175679	252
345.185546875	0.874252499999784	health	choicePhaseStart	1	16	16	foodImage.104	FOODEEG_Images\0912.jpg	YN	Left	Yes	0.874252499999784	0	176736	253
346.05078125	0	health	response	1	16	16	foodImage.104	FOODEEG_Images\0912.jpg	YN	Left	Yes	0.874252499999784	0	177179	234
347.08984375	1	decision	trialStart	1	17	17	foodImage.85	FOODEEG_Images\0841.jpg	YN	Right	No	0.552541799999744	0	177711	251
348.146484375	2	decision	foodImageDisplay	1	17	17	foodImage.85	FOODEEG_Images\0841.jpg	YN	Right	No	0.552541799999744	0	178252	252
350.2109375	0.552541799999744	decision	choicePhaseStart	1	17	17	foodImage.85	FOODEEG_Images\0841.jpg	YN	Right	No	0.552541799999744	0	179309	253
350.755859375	0	decision	response	1	17	17	foodImage.85	FOODEEG_Images\0841.jpg	YN	Right	No	0.552541799999744	0	179588	235
351.798828125	1	taste	trialStart	1	18	18	foodImage.65	FOODEEG_Images\0658.jpg	YN	Left	Yes	0.487296199999946	0	180122	251
352.84375	2	taste	foodImageDisplay	1	18	18	foodImage.65	FOODEEG_Images\0658.jpg	YN	Left	Yes	0.487296199999946	0	180657	252
354.908203125	0.487296199999946	taste	choicePhaseStart	1	18	18	foodImage.65	FOODEEG_Images\0658.jpg	YN	Left	Yes	0.487296199999946	0	181714	253
355.38671875	0	taste	response	1	18	18	foodImage.65	FOODEEG_Images\0658.jpg	YN	Left	Yes	0.487296199999946	0	181959	234
356.427734375	1	decision	trialStart	1	19	19	foodImage.68	FOODEEG_Images\0685.jpg	YN	Left	Yes	0.826455699999315	0	182492	251
357.505859375	2	decision	foodImageDisplay	1	19	19	foodImage.68	FOODEEG_Images\0685.jpg	YN	Left	Yes	0.826455699999315	0	183044	252
359.5703125	0.826455699999315	decision	choicePhaseStart	1	19	19	foodImage.68	FOODEEG_Images\0685.jpg	YN	Left	Yes	0.826455699999315	0	184101	253
360.38671875	0	decision	response	1	19	19	foodImage.68	FOODEEG_Images\0685.jpg	YN	Left	Yes	0.826455699999315	0	184519	234
361.4296875	1	decision	trialStart	1	20	20	foodImage.65	FOODEEG_Images\0658.jpg	NY	Right	Yes	0.661993700000494	0	185053	251
362.470703125	2	decision	foodImageDisplay	1	20	20	foodImage.65	FOODEEG_Images\0658.jpg	NY	Right	Yes	0.661993700000494	0	185586	252
364.5390625	0.661993700000494	decision	choicePhaseStart	1	20	20	foodImage.65	FOODEEG_Images\0658.jpg	NY	Right	Yes	0.661993700000494	0	186645	253
365.193359375	0	decision	response	1	20	20	foodImage.65	FOODEEG_Images\0658.jpg	NY	Right	Yes	0.661993700000494	0	186980	235
366.234375	1	health	trialStart	1	21	21	foodImage.113	FOODEEG_Images\0921.jpg	YN	Right	No	0.642865300000267	0	187513	251
367.271484375	2	health	foodImageDisplay	1	21	21	foodImage.113	FOODEEG_Images\0921.jpg	YN	Right	No	0.642865300000267	0	188044	252
369.3359375	0.642865300000267	health	choicePhaseStart	1	21	21	foodImage.113	FOODEEG_Images\0921.jpg	YN	Right	No	0.642865300000267	0	189101	253
369.96875	0	health	response	1	21	21	foodImage.113	FOODEEG_Images\0921.jpg	YN	Right	No	0.642865300000267	0	189425	235
371.009765625	1	taste	trialStart	1	22	22	foodImage.33	FOODEEG_Images\0329.jpg	NY	Right	Yes	0.571480800000245	0	189958	251
372.05078125	2	taste	foodImageDisplay	1	22	22	foodImage.33	FOODEEG_Images\0329.jpg	NY	Right	Yes	0.571480800000245	0	190491	252
374.119140625	0.571480800000245	taste	choicePhaseStart	1	22	22	foodImage.33	FOODEEG_Images\0329.jpg	NY	Right	Yes	0.571480800000245	0	191550	253
374.681640625	0	taste	response	1	22	22	foodImage.33	FOODEEG_Images\0329.jpg	NY	Right	Yes	0.571480800000245	0	191838	235
375.72265625	1	decision	trialStart	1	23	23	foodImage.60	FOODEEG_Images\0614.jpg	YN	Left	Yes	0.605679000000237	0	192371	251
376.78125	2	decision	foodImageDisplay	1	23	23	foodImage.60	FOODEEG_Images\0614.jpg	YN	Left	Yes	0.605679000000237	0	192913	252
378.845703125	0.605679000000237	decision	choicePhaseStart	1	23	23	foodImage.60	FOODEEG_Images\0614.jpg	YN	Left	Yes	0.605679000000237	0	193970	253
379.44140625	0	decision	response	1	23	23	foodImage.60	FOODEEG_Images\0614.jpg	YN	Left	Yes	0.605679000000237	0	194275	234
380.482421875	1	health	trialStart	1	24	24	foodImage.9	FOODEEG_Images\0138.jpg	YN	Right	No	0.626650899999731	0	194808	251
381.5390625	2	health	foodImageDisplay	1	24	24	foodImage.9	FOODEEG_Images\0138.jpg	YN	Right	No	0.626650899999731	0	195349	252
383.607421875	0.626650899999731	health	choicePhaseStart	1	24	24	foodImage.9	FOODEEG_Images\0138.jpg	YN	Right	No	0.626650899999731	0	196408	253
384.224609375	0	health	response	1	24	24	foodImage.9	FOODEEG_Images\0138.jpg	YN	Right	No	0.626650899999731	0	196724	235
385.27734375	1	health	trialStart	1	25	25	foodImage.4	FOODEEG_Images\0065.jpg	NY	Left	No	1.12529230000018	0	197263	251
386.337890625	2	health	foodImageDisplay	1	25	25	foodImage.4	FOODEEG_Images\0065.jpg	NY	Left	No	1.12529230000018	0	197806	252
388.404296875	1.12529230000018	health	choicePhaseStart	1	25	25	foodImage.4	FOODEEG_Images\0065.jpg	NY	Left	No	1.12529230000018	0	198864	253
389.51953125	0	health	response	1	25	25	foodImage.4	FOODEEG_Images\0065.jpg	NY	Left	No	1.12529230000018	0	199435	234
390.564453125	1	taste	trialStart	1	26	26	foodImage.29	FOODEEG_Images\0278.jpg	YN	Left	Yes	0.889135399999759	0	199970	251
391.609375	2	taste	foodImageDisplay	1	26	26	foodImage.29	FOODEEG_Images\0278.jpg	YN	Left	Yes	0.889135399999759	0	200505	252
393.673828125	0.889135399999759	taste	choicePhaseStart	1	26	26	foodImage.29	FOODEEG_Images\0278.jpg	YN	Left	Yes	0.889135399999759	0	201562	253
394.552734375	0	taste	response	1	26	26	foodImage.29	FOODEEG_Images\0278.jpg	YN	Left	Yes	0.889135399999759	0	202012	234
395.59375	1	taste	trialStart	1	27	27	foodImage.40	FOODEEG_Images\0373.jpg	NY	Right	Yes	0.622260999999526	0	202545	251
396.634765625	2	taste	foodImageDisplay	1	27	27	foodImage.40	FOODEEG_Images\0373.jpg	NY	Right	Yes	0.622260999999526	0	203078	252
398.69921875	0.622260999999526	taste	choicePhaseStart	1	27	27	foodImage.40	FOODEEG_Images\0373.jpg	NY	Right	Yes	0.622260999999526	0	204135	253
399.3125	0	taste	response	1	27	27	foodImage.40	FOODEEG_Images\0373.jpg	NY	Right	Yes	0.622260999999526	0	204449	235
400.353515625	1	health	trialStart	1	28	28	foodImage.79	FOODEEG_Images\0794.jpg	NY	Left	No	1.2188529999994	0	204982	251
401.3984375	2	health	foodImageDisplay	1	28	28	foodImage.79	FOODEEG_Images\0794.jpg	NY	Left	No	1.2188529999994	0	205517	252
403.462890625	1.2188529999994	health	choicePhaseStart	1	28	28	foodImage.79	FOODEEG_Images\0794.jpg	NY	Left	No	1.2188529999994	0	206574	253
404.671875	0	health	response	1	28	28	foodImage.79	FOODEEG_Images\0794.jpg	NY	Left	No	1.2188529999994	0	207193	234
405.712890625	1	taste	trialStart	1	29	29	foodImage.1	FOODEEG_Images\0004.jpg	YN	Left	Yes	1.10824899999989	0	207726	251
406.7578125	2	taste	foodImageDisplay	1	29	29	foodImage.1	FOODEEG_Images\0004.jpg	YN	Left	Yes	1.10824899999989	0	208261	252
408.8203125	1.10824899999989	taste	choicePhaseStart	1	29	29	foodImage.1	FOODEEG_Images\0004.jpg	YN	Left	Yes	1.10824899999989	0	209317	253
409.919921875	0	taste	response	1	29	29	foodImage.1	FOODEEG_Images\0004.jpg	YN	Left	Yes	1.10824899999989	0	209880	234
410.9609375	1	taste	trialStart	1	30	30	foodImage.54	FOODEEG_Images\0560.jpg	YN	Left	Yes	0.604828100000304	0	210413	251
412.021484375	2	taste	foodImageDisplay	1	30	30	foodImage.54	FOODEEG_Images\0560.jpg	YN	Left	Yes	0.604828100000304	0	210956	252
414.0859375	0.604828100000304	taste	choicePhaseStart	1	30	30	foodImage.54	FOODEEG_Images\0560.jpg	YN	Left	Yes	0.604828100000304	0	212013	253
414.6796875	0	taste	response	1	30	30	foodImage.54	FOODEEG_Images\0560.jpg	YN	Left	Yes	0.604828100000304	0	212317	234
415.720703125	1	decision	trialStart	1	31	31	foodImage.6	FOODEEG_Images\0113.jpg	YN	Left	Yes	0.871742000000268	0	212850	251
416.765625	2	decision	foodImageDisplay	1	31	31	foodImage.6	FOODEEG_Images\0113.jpg	YN	Left	Yes	0.871742000000268	0	213385	252
418.830078125	0.871742000000268	decision	choicePhaseStart	1	31	31	foodImage.6	FOODEEG_Images\0113.jpg	YN	Left	Yes	0.871742000000268	0	214442	253
419.6953125	0	decision	response	1	31	31	foodImage.6	FOODEEG_Images\0113.jpg	YN	Left	Yes	0.871742000000268	0	214885	234
420.736328125	1	taste	trialStart	1	32	32	foodImage.26	FOODEEG_Images\0262.jpg	NY	Right	Yes	0.768449799999871	0	215418	251
421.80078125	2	taste	foodImageDisplay	1	32	32	foodImage.26	FOODEEG_Images\0262.jpg	NY	Right	Yes	0.768449799999871	0	215963	252
423.865234375	0.768449799999871	taste	choicePhaseStart	1	32	32	foodImage.26	FOODEEG_Images\0262.jpg	NY	Right	Yes	0.768449799999871	0	217020	253
424.623046875	0	taste	response	1	32	32	foodImage.26	FOODEEG_Images\0262.jpg	NY	Right	Yes	0.768449799999871	0	217408	235
425.6640625	1	health	trialStart	1	33	33	foodImage.106	FOODEEG_Images\0914.jpg	NY	Right	Yes	1.2635994000002	0	217941	251
426.705078125	2	health	foodImageDisplay	1	33	33	foodImage.106	FOODEEG_Images\0914.jpg	NY	Right	Yes	1.2635994000002	0	218474	252
428.76953125	1.2635994000002	health	choicePhaseStart	1	33	33	foodImage.106	FOODEEG_Images\0914.jpg	NY	Right	Yes	1.2635994000002	0	219531	253
430.0234375	0	health	response	1	33	33	foodImage.106	FOODEEG_Images\0914.jpg	NY	Right	Yes	1.2635994000002	0	220173	235
431.064453125	1	health	trialStart	1	34	34	foodImage.65	FOODEEG_Images\0658.jpg	YN	Left	Yes	0.606420699999944	0	220706	251
432.10546875	2	health	foodImageDisplay	1	34	34	foodImage.65	FOODEEG_Images\0658.jpg	YN	Left	Yes	0.606420699999944	0	221239	252
434.169921875	0.606420699999944	health	choicePhaseStart	1	34	34	foodImage.65	FOODEEG_Images\0658.jpg	YN	Left	Yes	0.606420699999944	0	222296	253
434.767578125	0	health	response	1	34	34	foodImage.65	FOODEEG_Images\0658.jpg	YN	Left	Yes	0.606420699999944	0	222602	234
435.806640625	1	decision	trialStart	1	35	35	foodImage.9	FOODEEG_Images\0138.jpg	YN	Left	Yes	0.648471499999687	0	223134	251
436.865234375	2	decision	foodImageDisplay	1	35	35	foodImage.9	FOODEEG_Images\0138.jpg	YN	Left	Yes	0.648471499999687	0	223676	252
438.927734375	0.648471499999687	decision	choicePhaseStart	1	35	35	foodImage.9	FOODEEG_Images\0138.jpg	YN	Left	Yes	0.648471499999687	0	224732	253
439.56640625	0	decision	response	1	35	35	foodImage.9	FOODEEG_Images\0138.jpg	YN	Left	Yes	0.648471499999687	0	225059	234
440.607421875	1	decision	trialStart	1	36	36	foodImage.59	FOODEEG_Images\0607.jpg	YN	Left	Yes	0.663172100000338	0	225592	251
441.65625	2	decision	foodImageDisplay	1	36	36	foodImage.59	FOODEEG_Images\0607.jpg	YN	Left	Yes	0.663172100000338	0	226129	252
443.71875	0.663172100000338	decision	choicePhaseStart	1	36	36	foodImage.59	FOODEEG_Images\0607.jpg	YN	Left	Yes	0.663172100000338	0	227185	253
444.375	0	decision	response	1	36	36	foodImage.59	FOODEEG_Images\0607.jpg	YN	Left	Yes	0.663172100000338	0	227521	234
445.416015625	1	health	trialStart	1	37	37	foodImage.15	FOODEEG_Images\0189.jpg	YN	Left	Yes	0.985901499999272	0	228054	251
446.474609375	2	health	foodImageDisplay	1	37	37	foodImage.15	FOODEEG_Images\0189.jpg	YN	Left	Yes	0.985901499999272	0	228596	252
448.54296875	0.985901499999272	health	choicePhaseStart	1	37	37	foodImage.15	FOODEEG_Images\0189.jpg	YN	Left	Yes	0.985901499999272	0	229655	253
449.517578125	0	health	response	1	37	37	foodImage.15	FOODEEG_Images\0189.jpg	YN	Left	Yes	0.985901499999272	0	230154	234
450.556640625	1	health	trialStart	1	38	38	foodImage.28	FOODEEG_Images\0273.jpg	NY	Right	Yes	1.11163529999976	0	230686	251
451.6015625	2	health	foodImageDisplay	1	38	38	foodImage.28	FOODEEG_Images\0273.jpg	NY	Right	Yes	1.11163529999976	0	231221	252
453.671875	1.11163529999976	health	choicePhaseStart	1	38	38	foodImage.28	FOODEEG_Images\0273.jpg	NY	Right	Yes	1.11163529999976	0	232281	253
454.7734375	0	health	response	1	38	38	foodImage.28	FOODEEG_Images\0273.jpg	NY	Right	Yes	1.11163529999976	0	232845	235
455.818359375	1	health	trialStart	1	39	39	foodImage.35	FOODEEG_Images\0350.jpg	YN	Left	Yes	0.651051100000586	0	233380	251
456.857421875	2	health	foodImageDisplay	1	39	39	foodImage.35	FOODEEG_Images\0350.jpg	YN	Left	Yes	0.651051100000586	0	233912	252
458.921875	0.651051100000586	health	choicePhaseStart	1	39	39	foodImage.35	FOODEEG_Images\0350.jpg	YN	Left	Yes	0.651051100000586	0	234969	253
459.56640625	0	health	response	1	39	39	foodImage.35	FOODEEG_Images\0350.jpg	YN	Left	Yes	0.651051100000586	0	235299	234
460.607421875	1	health	trialStart	1	40	40	foodImage.41	FOODEEG_Images\0409.jpg	YN	Left	Yes	0.814830799999982	0	235832	251
461.65625	2	health	foodImageDisplay	1	40	40	foodImage.41	FOODEEG_Images\0409.jpg	YN	Left	Yes	0.814830799999982	0	236369	252
463.720703125	0.814830799999982	health	choicePhaseStart	1	40	40	foodImage.41	FOODEEG_Images\0409.jpg	YN	Left	Yes	0.814830799999982	0	237426	253
464.525390625	0	health	response	1	40	40	foodImage.41	FOODEEG_Images\0409.jpg	YN	Left	Yes	0.814830799999982	0	237838	234
465.56640625	1	health	trialStart	1	41	41	foodImage.58	FOODEEG_Images\0605.jpg	YN	Left	Yes	0.509660500000791	0	238371	251
466.6328125	2	health	foodImageDisplay	1	41	41	foodImage.58	FOODEEG_Images\0605.jpg	YN	Left	Yes	0.509660500000791	0	238917	252
468.6953125	0.509660500000791	health	choicePhaseStart	1	41	41	foodImage.58	FOODEEG_Images\0605.jpg	YN	Left	Yes	0.509660500000791	0	239973	253
469.197265625	0	health	response	1	41	41	foodImage.58	FOODEEG_Images\0605.jpg	YN	Left	Yes	0.509660500000791	0	240230	234
470.240234375	1	decision	trialStart	1	42	42	foodImage.70	FOODEEG_Images\0705.jpg	YN	Left	Yes	0.683711100000437	0	240764	251
471.298828125	2	decision	foodImageDisplay	1	42	42	foodImage.70	FOODEEG_Images\0705.jpg	YN	Left	Yes	0.683711100000437	0	241306	252
473.36328125	0.683711100000437	decision	choicePhaseStart	1	42	42	foodImage.70	FOODEEG_Images\0705.jpg	YN	Left	Yes	0.683711100000437	0	242363	253
474.037109375	0	decision	response	1	42	42	foodImage.70	FOODEEG_Images\0705.jpg	YN	Left	Yes	0.683711100000437	0	242708	234
475.080078125	1	health	trialStart	1	43	43	foodImage.67	FOODEEG_Images\0679.jpg	YN	Left	Yes	0.56356390000019	0	243242	251
476.138671875	2	health	foodImageDisplay	1	43	43	foodImage.67	FOODEEG_Images\0679.jpg	YN	Left	Yes	0.56356390000019	0	243784	252
478.203125	0.56356390000019	health	choicePhaseStart	1	43	43	foodImage.67	FOODEEG_Images\0679.jpg	YN	Left	Yes	0.56356390000019	0	244841	253
478.7578125	0	health	response	1	43	43	foodImage.67	FOODEEG_Images\0679.jpg	YN	Left	Yes	0.56356390000019	0	245125	234
479.80078125	1	health	trialStart	1	44	44	foodImage.22	FOODEEG_Images\0236.jpg	NY	Right	Yes	0.832467100000031	0	245659	251
480.845703125	2	health	foodImageDisplay	1	44	44	foodImage.22	FOODEEG_Images\0236.jpg	NY	Right	Yes	0.832467100000031	0	246194	252
482.91015625	0.832467100000031	health	choicePhaseStart	1	44	44	foodImage.22	FOODEEG_Images\0236.jpg	NY	Right	Yes	0.832467100000031	0	247251	253
483.732421875	0	health	response	1	44	44	foodImage.22	FOODEEG_Images\0236.jpg	NY	Right	Yes	0.832467100000031	0	247672	235
484.7734375	1	health	trialStart	1	45	45	foodImage.47	FOODEEG_Images\0488.jpg	YN	Left	Yes	0.595227000000705	0	248205	251
485.814453125	2	health	foodImageDisplay	1	45	45	foodImage.47	FOODEEG_Images\0488.jpg	YN	Left	Yes	0.595227000000705	0	248738	252
487.8828125	0.595227000000705	health	choicePhaseStart	1	45	45	foodImage.47	FOODEEG_Images\0488.jpg	YN	Left	Yes	0.595227000000705	0	249797	253
488.46875	0	health	response	1	45	45	foodImage.47	FOODEEG_Images\0488.jpg	YN	Left	Yes	0.595227000000705	0	250097	234
489.5078125	1	decision	trialStart	1	46	46	foodImage.44	FOODEEG_Images\0459.jpg	YN	Left	Yes	0.884698199999548	0	250629	251
490.5546875	2	decision	foodImageDisplay	1	46	46	foodImage.44	FOODEEG_Images\0459.jpg	YN	Left	Yes	0.884698199999548	0	251165	252
492.6171875	0.884698199999548	decision	choicePhaseStart	1	46	46	foodImage.44	FOODEEG_Images\0459.jpg	YN	Left	Yes	0.884698199999548	0	252221	253
493.4921875	0	decision	response	1	46	46	foodImage.44	FOODEEG_Images\0459.jpg	YN	Left	Yes	0.884698199999548	0	252669	234
494.537109375	1	decision	trialStart	1	47	47	foodImage.8	FOODEEG_Images\0136.jpg	NY	Left	No	1.55489870000019	0	253204	251
495.580078125	2	decision	foodImageDisplay	1	47	47	foodImage.8	FOODEEG_Images\0136.jpg	NY	Left	No	1.55489870000019	0	253738	252
497.642578125	1.55489870000019	decision	choicePhaseStart	1	47	47	foodImage.8	FOODEEG_Images\0136.jpg	NY	Left	No	1.55489870000019	0	254794	253
499.1875	0	decision	response	1	47	47	foodImage.8	FOODEEG_Images\0136.jpg	NY	Left	No	1.55489870000019	0	255585	234
500.23046875	1	health	trialStart	1	48	48	foodImage.80	FOODEEG_Images\0796.jpg	NY	Right	Yes	0.582384399999683	0	256119	251
501.2890625	2	health	foodImageDisplay	1	48	48	foodImage.80	FOODEEG_Images\0796.jpg	NY	Right	Yes	0.582384399999683	0	256661	252
503.357421875	0.582384399999683	health	choicePhaseStart	1	48	48	foodImage.80	FOODEEG_Images\0796.jpg	NY	Right	Yes	0.582384399999683	0	257720	253
503.931640625	0	health	response	1	48	48	foodImage.80	FOODEEG_Images\0796.jpg	NY	Right	Yes	0.582384399999683	0	258014	235
504.97265625	1	decision	trialStart	1	49	49	foodImage.117	FOODEEG_Images\0925.jpg	NY	Left	No	0.764027799999894	0	258547	251
506.009765625	2	decision	foodImageDisplay	1	49	49	foodImage.117	FOODEEG_Images\0925.jpg	NY	Left	No	0.764027799999894	0	259078	252
508.07421875	0.764027799999894	decision	choicePhaseStart	1	49	49	foodImage.117	FOODEEG_Images\0925.jpg	NY	Left	No	0.764027799999894	0	260135	253
508.828125	0	decision	response	1	49	49	foodImage.117	FOODEEG_Images\0925.jpg	NY	Left	No	0.764027799999894	0	260521	234
509.87109375	1	decision	trialStart	1	50	50	foodImage.116	FOODEEG_Images\0924.jpg	YN	Right	No	1.22363649999988	0	261055	251
510.912109375	2	decision	foodImageDisplay	1	50	50	foodImage.116	FOODEEG_Images\0924.jpg	YN	Right	No	1.22363649999988	0	261588	252
512.974609375	1.22363649999988	decision	choicePhaseStart	1	50	50	foodImage.116	FOODEEG_Images\0924.jpg	YN	Right	No	1.22363649999988	0	262644	253
514.1875	0	decision	response	1	50	50	foodImage.116	FOODEEG_Images\0924.jpg	YN	Right	No	1.22363649999988	0	263265	235
515.228515625	1	decision	trialStart	1	51	51	foodImage.51	FOODEEG_Images\0536.jpg	YN	Left	Yes	1.04918520000047	0	263798	251
516.275390625	2	decision	foodImageDisplay	1	51	51	foodImage.51	FOODEEG_Images\0536.jpg	YN	Left	Yes	1.04918520000047	0	264334	252
518.33984375	1.04918520000047	decision	choicePhaseStart	1	51	51	foodImage.51	FOODEEG_Images\0536.jpg	YN	Left	Yes	1.04918520000047	0	265391	253
519.37890625	0	decision	response	1	51	51	foodImage.51	FOODEEG_Images\0536.jpg	YN	Left	Yes	1.04918520000047	0	265923	234
520.419921875	1	taste	trialStart	1	52	52	foodImage.38	FOODEEG_Images\0365.jpg	NY	Right	Yes	0.960330400000203	0	266456	251
521.45703125	2	taste	foodImageDisplay	1	52	52	foodImage.38	FOODEEG_Images\0365.jpg	NY	Right	Yes	0.960330400000203	0	266987	252
523.521484375	0.960330400000203	taste	choicePhaseStart	1	52	52	foodImage.38	FOODEEG_Images\0365.jpg	NY	Right	Yes	0.960330400000203	0	268044	253
524.474609375	0	taste	response	1	52	52	foodImage.38	FOODEEG_Images\0365.jpg	NY	Right	Yes	0.960330400000203	0	268532	235
525.517578125	1	health	trialStart	1	53	53	foodImage.109	FOODEEG_Images\0917.jpg	NY	Left	No	0.803668600000492	0	269066	251
526.55859375	2	health	foodImageDisplay	1	53	53	foodImage.109	FOODEEG_Images\0917.jpg	NY	Left	No	0.803668600000492	0	269599	252
528.623046875	0.803668600000492	health	choicePhaseStart	1	53	53	foodImage.109	FOODEEG_Images\0917.jpg	NY	Left	No	0.803668600000492	0	270656	253
529.419921875	0	health	response	1	53	53	foodImage.109	FOODEEG_Images\0917.jpg	NY	Left	No	0.803668600000492	0	271064	234
530.4609375	1	taste	trialStart	1	54	54	foodImage.56	FOODEEG_Images\0586.jpg	NY	Left	No	1.07145309999942	0	271597	251
531.517578125	2	taste	foodImageDisplay	1	54	54	foodImage.56	FOODEEG_Images\0586.jpg	NY	Left	No	1.07145309999942	0	272138	252
533.580078125	1.07145309999942	taste	choicePhaseStart	1	54	54	foodImage.56	FOODEEG_Images\0586.jpg	NY	Left	No	1.07145309999942	0	273194	253
534.642578125	0	taste	response	1	54	54	foodImage.56	FOODEEG_Images\0586.jpg	NY	Left	No	1.07145309999942	0	273738	234
535.693359375	1	health	trialStart	1	55	55	foodImage.46	FOODEEG_Images\0479.jpg	NY	Left	No	1.36388410000018	0	274276	251
536.755859375	2	health	foodImageDisplay	1	55	55	foodImage.46	FOODEEG_Images\0479.jpg	NY	Left	No	1.36388410000018	0	274820	252
538.82421875	1.36388410000018	health	choicePhaseStart	1	55	55	foodImage.46	FOODEEG_Images\0479.jpg	NY	Left	No	1.36388410000018	0	275879	253
540.177734375	0	health	response	1	55	55	foodImage.46	FOODEEG_Images\0479.jpg	NY	Left	No	1.36388410000018	0	276572	234
541.220703125	1	health	trialStart	1	56	56	foodImage.3	FOODEEG_Images\0046.jpg	YN	Left	Yes	0.640450700000656	0	277106	251
542.265625	2	health	foodImageDisplay	1	56	56	foodImage.3	FOODEEG_Images\0046.jpg	YN	Left	Yes	0.640450700000656	0	277641	252
544.330078125	0.640450700000656	health	choicePhaseStart	1	56	56	foodImage.3	FOODEEG_Images\0046.jpg	YN	Left	Yes	0.640450700000656	0	278698	253
544.962890625	0	health	response	1	56	56	foodImage.3	FOODEEG_Images\0046.jpg	YN	Left	Yes	0.640450700000656	0	279022	234
546.00390625	1	decision	trialStart	1	57	57	foodImage.104	FOODEEG_Images\0912.jpg	YN	Left	Yes	0.92202240000006	0	279555	251
547.041015625	2	decision	foodImageDisplay	1	57	57	foodImage.104	FOODEEG_Images\0912.jpg	YN	Left	Yes	0.92202240000006	0	280086	252
549.10546875	0.92202240000006	decision	choicePhaseStart	1	57	57	foodImage.104	FOODEEG_Images\0912.jpg	YN	Left	Yes	0.92202240000006	0	281143	253
550.017578125	0	decision	response	1	57	57	foodImage.104	FOODEEG_Images\0912.jpg	YN	Left	Yes	0.92202240000006	0	281610	234
551.060546875	1	taste	trialStart	1	58	58	foodImage.21	FOODEEG_Images\0234.jpg	NY	Right	Yes	0.974384699999973	0	282144	251
552.119140625	2	taste	foodImageDisplay	1	58	58	foodImage.21	FOODEEG_Images\0234.jpg	NY	Right	Yes	0.974384699999973	0	282686	252
554.181640625	0.974384699999973	taste	choicePhaseStart	1	58	58	foodImage.21	FOODEEG_Images\0234.jpg	NY	Right	Yes	0.974384699999973	0	283742	253
555.146484375	0	taste	response	1	58	58	foodImage.21	FOODEEG_Images\0234.jpg	NY	Right	Yes	0.974384699999973	0	284236	235
556.189453125	1	health	trialStart	1	59	59	foodImage.19	FOODEEG_Images\0225.jpg	NY	Right	Yes	0.586248700000397	0	284770	251
557.234375	2	health	foodImageDisplay	1	59	59	foodImage.19	FOODEEG_Images\0225.jpg	NY	Right	Yes	0.586248700000397	0	285305	252
559.296875	0.586248700000397	health	choicePhaseStart	1	59	59	foodImage.19	FOODEEG_Images\0225.jpg	NY	Right	Yes	0.586248700000397	0	286361	253
559.873046875	0	health	response	1	59	59	foodImage.19	FOODEEG_Images\0225.jpg	NY	Right	Yes	0.586248700000397	0	286656	235
560.9140625	1	decision	trialStart	1	60	60	foodImage.87	FOODEEG_Images\0873.jpg	YN	Left	Yes	0.95866500000011	0	287189	251
561.974609375	2	decision	foodImageDisplay	1	60	60	foodImage.87	FOODEEG_Images\0873.jpg	YN	Left	Yes	0.95866500000011	0	287732	252
564.037109375	0.95866500000011	decision	choicePhaseStart	1	60	60	foodImage.87	FOODEEG_Images\0873.jpg	YN	Left	Yes	0.95866500000011	0	288788	253
564.986328125	0	decision	response	1	60	60	foodImage.87	FOODEEG_Images\0873.jpg	YN	Left	Yes	0.95866500000011	0	289274	234
567.02734375	9.396484375	n/a	blockEnd	n/a	n/a	n/a	n/a	n/a	n/a	n/a	n/a	n/a	n/a	290319	254
576.423828125	2	n/a	blockStart	2	n/a	n/a	n/a	n/a	n/a	n/a	n/a	n/a	n/a	295130	250
578.462890625	1	health	trialStart	2	61	1	foodImage.61	FOODEEG_Images\0640.jpg	NY	Right	Yes	1.06001709999964	0	296174	251
579.509765625	2	health	foodImageDisplay	2	61	1	foodImage.61	FOODEEG_Images\0640.jpg	NY	Right	Yes	1.06001709999964	0	296710	252
581.572265625	1.06001709999964	health	choicePhaseStart	2	61	1	foodImage.61	FOODEEG_Images\0640.jpg	NY	Right	Yes	1.06001709999964	0	297766	253
582.625	0	health	response	2	61	1	foodImage.61	FOODEEG_Images\0640.jpg	NY	Right	Yes	1.06001709999964	0	298305	235
583.666015625	1	taste	trialStart	2	62	2	foodImage.17	FOODEEG_Images\0199.jpg	YN	Left	Yes	0.757894600000327	0	298838	251
584.708984375	2	taste	foodImageDisplay	2	62	2	foodImage.17	FOODEEG_Images\0199.jpg	YN	Left	Yes	0.757894600000327	0	299372	252
586.771484375	0.757894600000327	taste	choicePhaseStart	2	62	2	foodImage.17	FOODEEG_Images\0199.jpg	YN	Left	Yes	0.757894600000327	0	300428	253
587.521484375	0	taste	response	2	62	2	foodImage.17	FOODEEG_Images\0199.jpg	YN	Left	Yes	0.757894600000327	0	300812	234
588.564453125	1	decision	trialStart	2	63	3	foodImage.108	FOODEEG_Images\0916.jpg	YN	Right	No	0.821709100000589	0	301346	251
589.60546875	2	decision	foodImageDisplay	2	63	3	foodImage.108	FOODEEG_Images\0916.jpg	YN	Right	No	0.821709100000589	0	301879	252
591.66796875	0.821709100000589	decision	choicePhaseStart	2	63	3	foodImage.108	FOODEEG_Images\0916.jpg	YN	Right	No	0.821709100000589	0	302935	253
592.48046875	0	decision	response	2	63	3	foodImage.108	FOODEEG_Images\0916.jpg	YN	Right	No	0.821709100000589	0	303351	235
593.521484375	1	health	trialStart	2	64	4	foodImage.45	FOODEEG_Images\0478.jpg	YN	Left	Yes	0.83263099999931	0	303884	251
594.5703125	2	health	foodImageDisplay	2	64	4	foodImage.45	FOODEEG_Images\0478.jpg	YN	Left	Yes	0.83263099999931	0	304421	252
596.6328125	0.83263099999931	health	choicePhaseStart	2	64	4	foodImage.45	FOODEEG_Images\0478.jpg	YN	Left	Yes	0.83263099999931	0	305477	253
597.45703125	0	health	response	2	64	4	foodImage.45	FOODEEG_Images\0478.jpg	YN	Left	Yes	0.83263099999931	0	305899	234
598.5	1	health	trialStart	2	65	5	foodImage.44	FOODEEG_Images\0459.jpg	NY	Right	Yes	0.85717620000014	0	306433	251
599.544921875	2	health	foodImageDisplay	2	65	5	foodImage.44	FOODEEG_Images\0459.jpg	NY	Right	Yes	0.85717620000014	0	306968	252
601.609375	0.85717620000014	health	choicePhaseStart	2	65	5	foodImage.44	FOODEEG_Images\0459.jpg	NY	Right	Yes	0.85717620000014	0	308025	253
602.45703125	0	health	response	2	65	5	foodImage.44	FOODEEG_Images\0459.jpg	NY	Right	Yes	0.85717620000014	0	308459	235
603.501953125	1	taste	trialStart	2	66	6	foodImage.22	FOODEEG_Images\0236.jpg	YN	Left	Yes	0.818108999999822	0	308994	251
604.54296875	2	taste	foodImageDisplay	2	66	6	foodImage.22	FOODEEG_Images\0236.jpg	YN	Left	Yes	0.818108999999822	0	309527	252
606.607421875	0.818108999999822	taste	choicePhaseStart	2	66	6	foodImage.22	FOODEEG_Images\0236.jpg	YN	Left	Yes	0.818108999999822	0	310584	253
607.416015625	0	taste	response	2	66	6	foodImage.22	FOODEEG_Images\0236.jpg	YN	Left	Yes	0.818108999999822	0	310998	234
608.462890625	1	taste	trialStart	2	67	7	foodImage.66	FOODEEG_Images\0676.jpg	YN	Left	Yes	0.795279400000254	0	311534	251
609.505859375	2	taste	foodImageDisplay	2	67	7	foodImage.66	FOODEEG_Images\0676.jpg	YN	Left	Yes	0.795279400000254	0	312068	252
611.57421875	0.795279400000254	taste	choicePhaseStart	2	67	7	foodImage.66	FOODEEG_Images\0676.jpg	YN	Left	Yes	0.795279400000254	0	313127	253
612.359375	0	taste	response	2	67	7	foodImage.66	FOODEEG_Images\0676.jpg	YN	Left	Yes	0.795279400000254	0	313529	234
613.400390625	1	taste	trialStart	2	68	8	foodImage.117	FOODEEG_Images\0925.jpg	NY	Left	No	1.42603489999965	0	314062	251
614.439453125	2	taste	foodImageDisplay	2	68	8	foodImage.117	FOODEEG_Images\0925.jpg	NY	Left	No	1.42603489999965	0	314594	252
616.50390625	1.42603489999965	taste	choicePhaseStart	2	68	8	foodImage.117	FOODEEG_Images\0925.jpg	NY	Left	No	1.42603489999965	0	315651	253
617.919921875	0	taste	response	2	68	8	foodImage.117	FOODEEG_Images\0925.jpg	NY	Left	No	1.42603489999965	0	316376	234
618.9609375	1	health	trialStart	2	69	9	foodImage.13	FOODEEG_Images\0183.jpg	YN	Left	Yes	1.50956070000029	0	316909	251
620.00390625	2	health	foodImageDisplay	2	69	9	foodImage.13	FOODEEG_Images\0183.jpg	YN	Left	Yes	1.50956070000029	0	317443	252
622.06640625	1.50956070000029	health	choicePhaseStart	2	69	9	foodImage.13	FOODEEG_Images\0183.jpg	YN	Left	Yes	1.50956070000029	0	318499	253
623.568359375	0	health	response	2	69	9	foodImage.13	FOODEEG_Images\0183.jpg	YN	Left	Yes	1.50956070000029	0	319268	234
624.615234375	1	decision	trialStart	2	70	10	foodImage.33	FOODEEG_Images\0329.jpg	NY	Right	Yes	0.740180800000417	0	319804	251
625.658203125	2	decision	foodImageDisplay	2	70	10	foodImage.33	FOODEEG_Images\0329.jpg	NY	Right	Yes	0.740180800000417	0	320338	252
627.724609375	0.740180800000417	decision	choicePhaseStart	2	70	10	foodImage.33	FOODEEG_Images\0329.jpg	NY	Right	Yes	0.740180800000417	0	321396	253
628.455078125	0	decision	response	2	70	10	foodImage.33	FOODEEG_Images\0329.jpg	NY	Right	Yes	0.740180800000417	0	321770	235
629.498046875	1	health	trialStart	2	71	11	foodImage.118	FOODEEG_Images\0926.jpg	YN	Left	Yes	0.702473299999838	0	322304	251
630.5390625	2	health	foodImageDisplay	2	71	11	foodImage.118	FOODEEG_Images\0926.jpg	YN	Left	Yes	0.702473299999838	0	322837	252
632.6015625	0.702473299999838	health	choicePhaseStart	2	71	11	foodImage.118	FOODEEG_Images\0926.jpg	YN	Left	Yes	0.702473299999838	0	323893	253
633.294921875	0	health	response	2	71	11	foodImage.118	FOODEEG_Images\0926.jpg	YN	Left	Yes	0.702473299999838	0	324248	234
634.337890625	1	decision	trialStart	2	72	12	foodImage.66	FOODEEG_Images\0676.jpg	YN	Left	Yes	0.845795199999884	0	324782	251
635.37890625	2	decision	foodImageDisplay	2	72	12	foodImage.66	FOODEEG_Images\0676.jpg	YN	Left	Yes	0.845795199999884	0	325315	252
637.443359375	0.845795199999884	decision	choicePhaseStart	2	72	12	foodImage.66	FOODEEG_Images\0676.jpg	YN	Left	Yes	0.845795199999884	0	326372	253
638.279296875	0	decision	response	2	72	12	foodImage.66	FOODEEG_Images\0676.jpg	YN	Left	Yes	0.845795199999884	0	326800	234
639.3203125	1	decision	trialStart	2	73	13	foodImage.30	FOODEEG_Images\0282.jpg	NY	Left	No	0.628515900000821	0	327333	251
640.37109375	2	decision	foodImageDisplay	2	73	13	foodImage.30	FOODEEG_Images\0282.jpg	NY	Left	No	0.628515900000821	0	327871	252
642.435546875	0.628515900000821	decision	choicePhaseStart	2	73	13	foodImage.30	FOODEEG_Images\0282.jpg	NY	Left	No	0.628515900000821	0	328928	253
643.0546875	0	decision	response	2	73	13	foodImage.30	FOODEEG_Images\0282.jpg	NY	Left	No	0.628515900000821	0	329245	234
644.095703125	1	taste	trialStart	2	74	14	foodImage.114	FOODEEG_Images\0922.jpg	YN	Left	Yes	0.577571599999828	0	329778	251
645.134765625	2	taste	foodImageDisplay	2	74	14	foodImage.114	FOODEEG_Images\0922.jpg	YN	Left	Yes	0.577571599999828	0	330310	252
647.19921875	0.577571599999828	taste	choicePhaseStart	2	74	14	foodImage.114	FOODEEG_Images\0922.jpg	YN	Left	Yes	0.577571599999828	0	331367	253
647.765625	0	taste	response	2	74	14	foodImage.114	FOODEEG_Images\0922.jpg	YN	Left	Yes	0.577571599999828	0	331657	234
648.806640625	1	health	trialStart	2	75	15	foodImage.32	FOODEEG_Images\0319.jpg	NY	Right	Yes	0.893996899999365	0	332190	251
649.8515625	2	health	foodImageDisplay	2	75	15	foodImage.32	FOODEEG_Images\0319.jpg	NY	Right	Yes	0.893996899999365	0	332725	252
651.9140625	0.893996899999365	health	choicePhaseStart	2	75	15	foodImage.32	FOODEEG_Images\0319.jpg	NY	Right	Yes	0.893996899999365	0	333781	253
652.798828125	0	health	response	2	75	15	foodImage.32	FOODEEG_Images\0319.jpg	NY	Right	Yes	0.893996899999365	0	334234	235
653.83984375	1	health	trialStart	2	76	16	foodImage.37	FOODEEG_Images\0359.jpg	NY	Right	Yes	0.715026300000318	0	334767	251
654.884765625	2	health	foodImageDisplay	2	76	16	foodImage.37	FOODEEG_Images\0359.jpg	NY	Right	Yes	0.715026300000318	0	335302	252
656.94921875	0.715026300000318	health	choicePhaseStart	2	76	16	foodImage.37	FOODEEG_Images\0359.jpg	NY	Right	Yes	0.715026300000318	0	336359	253
657.654296875	0	health	response	2	76	16	foodImage.37	FOODEEG_Images\0359.jpg	NY	Right	Yes	0.715026300000318	0	336720	235
658.6953125	1	taste	trialStart	2	77	17	foodImage.41	FOODEEG_Images\0409.jpg	YN	Left	Yes	0.872887399999854	0	337253	251
659.740234375	2	taste	foodImageDisplay	2	77	17	foodImage.41	FOODEEG_Images\0409.jpg	YN	Left	Yes	0.872887399999854	0	337788	252
661.806640625	0.872887399999854	taste	choicePhaseStart	2	77	17	foodImage.41	FOODEEG_Images\0409.jpg	YN	Left	Yes	0.872887399999854	0	338846	253
662.669921875	0	taste	response	2	77	17	foodImage.41	FOODEEG_Images\0409.jpg	YN	Left	Yes	0.872887399999854	0	339288	234
663.712890625	1	taste	trialStart	2	78	18	foodImage.73	FOODEEG_Images\0717.jpg	YN	Left	Yes	0.710632400000577	0	339822	251
664.76953125	2	taste	foodImageDisplay	2	78	18	foodImage.73	FOODEEG_Images\0717.jpg	YN	Left	Yes	0.710632400000577	0	340363	252
666.833984375	0.710632400000577	taste	choicePhaseStart	2	78	18	foodImage.73	FOODEEG_Images\0717.jpg	YN	Left	Yes	0.710632400000577	0	341420	253
667.533203125	0	taste	response	2	78	18	foodImage.73	FOODEEG_Images\0717.jpg	YN	Left	Yes	0.710632400000577	0	341778	234
668.5859375	1	taste	trialStart	2	79	19	foodImage.16	FOODEEG_Images\0196.jpg	NY	Right	Yes	0.759915900000124	0	342317	251
669.671875	2	taste	foodImageDisplay	2	79	19	foodImage.16	FOODEEG_Images\0196.jpg	NY	Right	Yes	0.759915900000124	0	342873	252
671.736328125	0.759915900000124	taste	choicePhaseStart	2	79	19	foodImage.16	FOODEEG_Images\0196.jpg	NY	Right	Yes	0.759915900000124	0	343930	253
672.486328125	0	taste	response	2	79	19	foodImage.16	FOODEEG_Images\0196.jpg	NY	Right	Yes	0.759915900000124	0	344314	235
673.52734375	1	health	trialStart	2	80	20	foodImage.119	FOODEEG_Images\0927.jpg	NY	Left	No	1.14704389999952	0	344847	251
674.564453125	2	health	foodImageDisplay	2	80	20	foodImage.119	FOODEEG_Images\0927.jpg	NY	Left	No	1.14704389999952	0	345378	252
676.626953125	1.14704389999952	health	choicePhaseStart	2	80	20	foodImage.119	FOODEEG_Images\0927.jpg	NY	Left	No	1.14704389999952	0	346434	253
677.765625	0	health	response	2	80	20	foodImage.119	FOODEEG_Images\0927.jpg	NY	Left	No	1.14704389999952	0	347017	234
678.8046875	1	decision	trialStart	2	81	21	foodImage.39	FOODEEG_Images\0367.jpg	NY	Left	No	1.38370849999956	0	347549	251
679.84765625	2	decision	foodImageDisplay	2	81	21	foodImage.39	FOODEEG_Images\0367.jpg	NY	Left	No	1.38370849999956	0	348083	252
681.91015625	1.38370849999956	decision	choicePhaseStart	2	81	21	foodImage.39	FOODEEG_Images\0367.jpg	NY	Left	No	1.38370849999956	0	349139	253
683.28515625	0	decision	response	2	81	21	foodImage.39	FOODEEG_Images\0367.jpg	NY	Left	No	1.38370849999956	0	349843	234
684.326171875	1	taste	trialStart	2	82	22	foodImage.86	FOODEEG_Images\0844.jpg	YN	Right	No	0.805865199999971	0	350376	251
685.384765625	2	taste	foodImageDisplay	2	82	22	foodImage.86	FOODEEG_Images\0844.jpg	YN	Right	No	0.805865199999971	0	350918	252
687.44921875	0.805865199999971	taste	choicePhaseStart	2	82	22	foodImage.86	FOODEEG_Images\0844.jpg	YN	Right	No	0.805865199999971	0	351975	253
688.244140625	0	taste	response	2	82	22	foodImage.86	FOODEEG_Images\0844.jpg	YN	Right	No	0.805865199999971	0	352382	235
689.287109375	1	health	trialStart	2	83	23	foodImage.96	FOODEEG_Images\0904.jpg	NY	Left	No	0.687685099999726	0	352916	251
690.326171875	2	health	foodImageDisplay	2	83	23	foodImage.96	FOODEEG_Images\0904.jpg	NY	Left	No	0.687685099999726	0	353448	252
692.390625	0.687685099999726	health	choicePhaseStart	2	83	23	foodImage.96	FOODEEG_Images\0904.jpg	NY	Left	No	0.687685099999726	0	354505	253
693.068359375	0	health	response	2	83	23	foodImage.96	FOODEEG_Images\0904.jpg	NY	Left	No	0.687685099999726	0	354852	234
694.111328125	1	taste	trialStart	2	84	24	foodImage.12	FOODEEG_Images\0181.jpg	YN	Right	No	0.605438699999468	0	355386	251
695.154296875	2	taste	foodImageDisplay	2	84	24	foodImage.12	FOODEEG_Images\0181.jpg	YN	Right	No	0.605438699999468	0	355920	252
697.216796875	0.605438699999468	taste	choicePhaseStart	2	84	24	foodImage.12	FOODEEG_Images\0181.jpg	YN	Right	No	0.605438699999468	0	356976	253
697.8125	0	taste	response	2	84	24	foodImage.12	FOODEEG_Images\0181.jpg	YN	Right	No	0.605438699999468	0	357281	235
698.8515625	1	taste	trialStart	2	85	25	foodImage.93	FOODEEG_Images\0901.jpg	NY	Right	Yes	0.801757899999757	0	357813	251
699.892578125	2	taste	foodImageDisplay	2	85	25	foodImage.93	FOODEEG_Images\0901.jpg	NY	Right	Yes	0.801757899999757	0	358346	252
701.955078125	0.801757899999757	taste	choicePhaseStart	2	85	25	foodImage.93	FOODEEG_Images\0901.jpg	NY	Right	Yes	0.801757899999757	0	359402	253
702.748046875	0	taste	response	2	85	25	foodImage.93	FOODEEG_Images\0901.jpg	NY	Right	Yes	0.801757899999757	0	359808	235
703.7890625	1	decision	trialStart	2	86	26	foodImage.18	FOODEEG_Images\0202.jpg	YN	Right	No	1.69439539999985	0	360341	251
704.84765625	2	decision	foodImageDisplay	2	86	26	foodImage.18	FOODEEG_Images\0202.jpg	YN	Right	No	1.69439539999985	0	360883	252
706.91015625	1.69439539999985	decision	choicePhaseStart	2	86	26	foodImage.18	FOODEEG_Images\0202.jpg	YN	Right	No	1.69439539999985	0	361939	253
708.595703125	0	decision	response	2	86	26	foodImage.18	FOODEEG_Images\0202.jpg	YN	Right	No	1.69439539999985	0	362802	235
709.63671875	1	decision	trialStart	2	87	27	foodImage.91	FOODEEG_Images\0896.jpg	NY	Right	Yes	1.35337250000066	0	363335	251
710.697265625	2	decision	foodImageDisplay	2	87	27	foodImage.91	FOODEEG_Images\0896.jpg	NY	Right	Yes	1.35337250000066	0	363878	252
712.76171875	1.35337250000066	decision	choicePhaseStart	2	87	27	foodImage.91	FOODEEG_Images\0896.jpg	NY	Right	Yes	1.35337250000066	0	364935	253
714.107421875	0	decision	response	2	87	27	foodImage.91	FOODEEG_Images\0896.jpg	NY	Right	Yes	1.35337250000066	0	365624	235
715.150390625	1	taste	trialStart	2	88	28	foodImage.36	FOODEEG_Images\0352.jpg	NY	Right	Yes	0.733705199999349	0	366158	251
716.208984375	2	taste	foodImageDisplay	2	88	28	foodImage.36	FOODEEG_Images\0352.jpg	NY	Right	Yes	0.733705199999349	0	366700	252
718.271484375	0.733705199999349	taste	choicePhaseStart	2	88	28	foodImage.36	FOODEEG_Images\0352.jpg	NY	Right	Yes	0.733705199999349	0	367756	253
718.99609375	0	taste	response	2	88	28	foodImage.36	FOODEEG_Images\0352.jpg	NY	Right	Yes	0.733705199999349	0	368127	235
720.037109375	1	decision	trialStart	2	89	29	foodImage.110	FOODEEG_Images\0918.jpg	YN	Left	Yes	0.696810299999925	0	368660	251
721.076171875	2	decision	foodImageDisplay	2	89	29	foodImage.110	FOODEEG_Images\0918.jpg	YN	Left	Yes	0.696810299999925	0	369192	252
723.140625	0.696810299999925	decision	choicePhaseStart	2	89	29	foodImage.110	FOODEEG_Images\0918.jpg	YN	Left	Yes	0.696810299999925	0	370249	253
723.828125	0	decision	response	2	89	29	foodImage.110	FOODEEG_Images\0918.jpg	YN	Left	Yes	0.696810299999925	0	370601	234
724.8671875	1	decision	trialStart	2	90	30	foodImage.115	FOODEEG_Images\0923.jpg	YN	Left	Yes	0.615068099999917	0	371133	251
725.91015625	2	decision	foodImageDisplay	2	90	30	foodImage.115	FOODEEG_Images\0923.jpg	YN	Left	Yes	0.615068099999917	0	371667	252
727.974609375	0.615068099999917	decision	choicePhaseStart	2	90	30	foodImage.115	FOODEEG_Images\0923.jpg	YN	Left	Yes	0.615068099999917	0	372724	253
728.580078125	0	decision	response	2	90	30	foodImage.115	FOODEEG_Images\0923.jpg	YN	Left	Yes	0.615068099999917	0	373034	234
729.619140625	1	health	trialStart	2	91	31	foodImage.54	FOODEEG_Images\0560.jpg	YN	Left	Yes	0.606907700000193	0	373566	251
730.673828125	2	health	foodImageDisplay	2	91	31	foodImage.54	FOODEEG_Images\0560.jpg	YN	Left	Yes	0.606907700000193	0	374106	252
732.73828125	0.606907700000193	health	choicePhaseStart	2	91	31	foodImage.54	FOODEEG_Images\0560.jpg	YN	Left	Yes	0.606907700000193	0	375163	253
733.33984375	0	health	response	2	91	31	foodImage.54	FOODEEG_Images\0560.jpg	YN	Left	Yes	0.606907700000193	0	375471	234
734.38671875	1	health	trialStart	2	92	32	foodImage.56	FOODEEG_Images\0586.jpg	YN	Left	Yes	0.594675499999539	0	376007	251
735.44921875	2	health	foodImageDisplay	2	92	32	foodImage.56	FOODEEG_Images\0586.jpg	YN	Left	Yes	0.594675499999539	0	376551	252
737.513671875	0.594675499999539	health	choicePhaseStart	2	92	32	foodImage.56	FOODEEG_Images\0586.jpg	YN	Left	Yes	0.594675499999539	0	377608	253
738.099609375	0	health	response	2	92	32	foodImage.56	FOODEEG_Images\0586.jpg	YN	Left	Yes	0.594675499999539	0	377908	234
739.138671875	1	health	trialStart	2	93	33	foodImage.16	FOODEEG_Images\0196.jpg	NY	Left	No	0.447058099999595	0	378440	251
740.197265625	2	health	foodImageDisplay	2	93	33	foodImage.16	FOODEEG_Images\0196.jpg	NY	Left	No	0.447058099999595	0	378982	252
742.26171875	0.447058099999595	health	choicePhaseStart	2	93	33	foodImage.16	FOODEEG_Images\0196.jpg	NY	Left	No	0.447058099999595	0	380039	253
742.69921875	0	health	response	2	93	33	foodImage.16	FOODEEG_Images\0196.jpg	NY	Left	No	0.447058099999595	0	380263	234
743.7421875	1	health	trialStart	2	94	34	foodImage.68	FOODEEG_Images\0685.jpg	NY	Right	Yes	1.0467378000003	0	380797	251
744.8203125	2	health	foodImageDisplay	2	94	34	foodImage.68	FOODEEG_Images\0685.jpg	NY	Right	Yes	1.0467378000003	0	381349	252
746.884765625	1.0467378000003	health	choicePhaseStart	2	94	34	foodImage.68	FOODEEG_Images\0685.jpg	NY	Right	Yes	1.0467378000003	0	382406	253
747.921875	0	health	response	2	94	34	foodImage.68	FOODEEG_Images\0685.jpg	NY	Right	Yes	1.0467378000003	0	382937	235
748.962890625	1	health	trialStart	2	95	35	foodImage.116	FOODEEG_Images\0924.jpg	NY	Left	No	0.602373900000202	0	383470	251
750.001953125	2	health	foodImageDisplay	2	95	35	foodImage.116	FOODEEG_Images\0924.jpg	NY	Left	No	0.602373900000202	0	384002	252
752.064453125	0.602373900000202	health	choicePhaseStart	2	95	35	foodImage.116	FOODEEG_Images\0924.jpg	NY	Left	No	0.602373900000202	0	385058	253
752.658203125	0	health	response	2	95	35	foodImage.116	FOODEEG_Images\0924.jpg	NY	Left	No	0.602373900000202	0	385362	234
753.69921875	1	taste	trialStart	2	96	36	foodImage.44	FOODEEG_Images\0459.jpg	NY	Right	Yes	0.972866299999623	0	385895	251
754.7421875	2	taste	foodImageDisplay	2	96	36	foodImage.44	FOODEEG_Images\0459.jpg	NY	Right	Yes	0.972866299999623	0	386429	252
756.806640625	0.972866299999623	taste	choicePhaseStart	2	96	36	foodImage.44	FOODEEG_Images\0459.jpg	NY	Right	Yes	0.972866299999623	0	387486	253
757.76953125	0	taste	response	2	96	36	foodImage.44	FOODEEG_Images\0459.jpg	NY	Right	Yes	0.972866299999623	0	387979	235
758.810546875	1	health	trialStart	2	97	37	foodImage.93	FOODEEG_Images\0901.jpg	NY	Right	Yes	0.738035999999738	0	388512	251
759.849609375	2	health	foodImageDisplay	2	97	37	foodImage.93	FOODEEG_Images\0901.jpg	NY	Right	Yes	0.738035999999738	0	389044	252
761.9140625	0.738035999999738	health	choicePhaseStart	2	97	37	foodImage.93	FOODEEG_Images\0901.jpg	NY	Right	Yes	0.738035999999738	0	390101	253
762.642578125	0	health	response	2	97	37	foodImage.93	FOODEEG_Images\0901.jpg	NY	Right	Yes	0.738035999999738	0	390474	235
763.6875	1	decision	trialStart	2	98	38	foodImage.109	FOODEEG_Images\0917.jpg	YN	Right	No	0.821908500000063	0	391009	251
764.7421875	2	decision	foodImageDisplay	2	98	38	foodImage.109	FOODEEG_Images\0917.jpg	YN	Right	No	0.821908500000063	0	391549	252
766.8046875	0.821908500000063	decision	choicePhaseStart	2	98	38	foodImage.109	FOODEEG_Images\0917.jpg	YN	Right	No	0.821908500000063	0	392605	253
767.6171875	0	decision	response	2	98	38	foodImage.109	FOODEEG_Images\0917.jpg	YN	Right	No	0.821908500000063	0	393021	235
768.658203125	1	taste	trialStart	2	99	39	foodImage.24	FOODEEG_Images\0250.jpg	YN	Left	Yes	0.679507699999704	0	393554	251
769.703125	2	taste	foodImageDisplay	2	99	39	foodImage.24	FOODEEG_Images\0250.jpg	YN	Left	Yes	0.679507699999704	0	394089	252
771.771484375	0.679507699999704	taste	choicePhaseStart	2	99	39	foodImage.24	FOODEEG_Images\0250.jpg	YN	Left	Yes	0.679507699999704	0	395148	253
772.44140625	0	taste	response	2	99	39	foodImage.24	FOODEEG_Images\0250.jpg	YN	Left	Yes	0.679507699999704	0	395491	234
773.482421875	1	taste	trialStart	2	100	40	foodImage.31	FOODEEG_Images\0294.jpg	YN	Left	Yes	1.83058299999993	0	396024	251
774.525390625	2	taste	foodImageDisplay	2	100	40	foodImage.31	FOODEEG_Images\0294.jpg	YN	Left	Yes	1.83058299999993	0	396558	252
776.587890625	1.83058299999993	taste	choicePhaseStart	2	100	40	foodImage.31	FOODEEG_Images\0294.jpg	YN	Left	Yes	1.83058299999993	0	397614	253
778.41015625	0	taste	response	2	100	40	foodImage.31	FOODEEG_Images\0294.jpg	YN	Left	Yes	1.83058299999993	0	398547	234
779.451171875	1	decision	trialStart	2	101	41	foodImage.58	FOODEEG_Images\0605.jpg	YN	Right	No	0.719722400000137	0	399080	251
780.5078125	2	decision	foodImageDisplay	2	101	41	foodImage.58	FOODEEG_Images\0605.jpg	YN	Right	No	0.719722400000137	0	399621	252
782.5703125	0.719722400000137	decision	choicePhaseStart	2	101	41	foodImage.58	FOODEEG_Images\0605.jpg	YN	Right	No	0.719722400000137	0	400677	253
783.28125	0	decision	response	2	101	41	foodImage.58	FOODEEG_Images\0605.jpg	YN	Right	No	0.719722400000137	0	401041	235
784.32421875	1	decision	trialStart	2	102	42	foodImage.101	FOODEEG_Images\0909.jpg	YN	Right	No	0.65445069999987	0	401575	251
785.36328125	2	decision	foodImageDisplay	2	102	42	foodImage.101	FOODEEG_Images\0909.jpg	YN	Right	No	0.65445069999987	0	402107	252
787.42578125	0.65445069999987	decision	choicePhaseStart	2	102	42	foodImage.101	FOODEEG_Images\0909.jpg	YN	Right	No	0.65445069999987	0	403163	253
788.072265625	0	decision	response	2	102	42	foodImage.101	FOODEEG_Images\0909.jpg	YN	Right	No	0.65445069999987	0	403494	235
789.11328125	1	health	trialStart	2	103	43	foodImage.49	FOODEEG_Images\0515.jpg	NY	Right	Yes	1.91252259999965	0	404027	251
790.158203125	2	health	foodImageDisplay	2	103	43	foodImage.49	FOODEEG_Images\0515.jpg	NY	Right	Yes	1.91252259999965	0	404562	252
792.224609375	1.91252259999965	health	choicePhaseStart	2	103	43	foodImage.49	FOODEEG_Images\0515.jpg	NY	Right	Yes	1.91252259999965	0	405620	253
794.12890625	0	health	response	2	103	43	foodImage.49	FOODEEG_Images\0515.jpg	NY	Right	Yes	1.91252259999965	0	406595	235
795.169921875	1	health	trialStart	2	104	44	foodImage.102	FOODEEG_Images\0910.jpg	YN	Left	Yes	0.686033199999656	0	407128	251
796.2109375	2	health	foodImageDisplay	2	104	44	foodImage.102	FOODEEG_Images\0910.jpg	YN	Left	Yes	0.686033199999656	0	407661	252
798.275390625	0.686033199999656	health	choicePhaseStart	2	104	44	foodImage.102	FOODEEG_Images\0910.jpg	YN	Left	Yes	0.686033199999656	0	408718	253
798.953125	0	health	response	2	104	44	foodImage.102	FOODEEG_Images\0910.jpg	YN	Left	Yes	0.686033199999656	0	409065	234
799.99609375	1	health	trialStart	2	105	45	foodImage.87	FOODEEG_Images\0873.jpg	NY	Right	Yes	0.717461899999762	0	409599	251
801.052734375	2	health	foodImageDisplay	2	105	45	foodImage.87	FOODEEG_Images\0873.jpg	NY	Right	Yes	0.717461899999762	0	410140	252
803.1171875	0.717461899999762	health	choicePhaseStart	2	105	45	foodImage.87	FOODEEG_Images\0873.jpg	NY	Right	Yes	0.717461899999762	0	411197	253
803.82421875	0	health	response	2	105	45	foodImage.87	FOODEEG_Images\0873.jpg	NY	Right	Yes	0.717461899999762	0	411559	235
804.865234375	1	taste	trialStart	2	106	46	foodImage.75	FOODEEG_Images\0763.jpg	YN	Left	Yes	0.96121900000071	0	412092	251
805.91015625	2	taste	foodImageDisplay	2	106	46	foodImage.75	FOODEEG_Images\0763.jpg	YN	Left	Yes	0.96121900000071	0	412627	252
807.97265625	0.96121900000071	taste	choicePhaseStart	2	106	46	foodImage.75	FOODEEG_Images\0763.jpg	YN	Left	Yes	0.96121900000071	0	413683	253
808.9296875	0	taste	response	2	106	46	foodImage.75	FOODEEG_Images\0763.jpg	YN	Left	Yes	0.96121900000071	0	414173	234
809.96875	1	decision	trialStart	2	107	47	foodImage.63	FOODEEG_Images\0645.jpg	NY	Right	Yes	0.69589569999971	0	414705	251
811.009765625	2	decision	foodImageDisplay	2	107	47	foodImage.63	FOODEEG_Images\0645.jpg	NY	Right	Yes	0.69589569999971	0	415238	252
813.07421875	0.69589569999971	decision	choicePhaseStart	2	107	47	foodImage.63	FOODEEG_Images\0645.jpg	NY	Right	Yes	0.69589569999971	0	416295	253
813.759765625	0	decision	response	2	107	47	foodImage.63	FOODEEG_Images\0645.jpg	NY	Right	Yes	0.69589569999971	0	416646	235
814.80078125	1	decision	trialStart	2	108	48	foodImage.10	FOODEEG_Images\0145.jpg	YN	Left	Yes	0.789925500000209	0	417179	251
815.861328125	2	decision	foodImageDisplay	2	108	48	foodImage.10	FOODEEG_Images\0145.jpg	YN	Left	Yes	0.789925500000209	0	417722	252
817.923828125	0.789925500000209	decision	choicePhaseStart	2	108	48	foodImage.10	FOODEEG_Images\0145.jpg	YN	Left	Yes	0.789925500000209	0	418778	253
818.703125	0	decision	response	2	108	48	foodImage.10	FOODEEG_Images\0145.jpg	YN	Left	Yes	0.789925500000209	0	419177	234
819.744140625	1	taste	trialStart	2	109	49	foodImage.6	FOODEEG_Images\0113.jpg	NY	Right	Yes	1.05244349999975	0	419710	251
820.78515625	2	taste	foodImageDisplay	2	109	49	foodImage.6	FOODEEG_Images\0113.jpg	NY	Right	Yes	1.05244349999975	0	420243	252
822.849609375	1.05244349999975	taste	choicePhaseStart	2	109	49	foodImage.6	FOODEEG_Images\0113.jpg	NY	Right	Yes	1.05244349999975	0	421300	253
823.896484375	0	taste	response	2	109	49	foodImage.6	FOODEEG_Images\0113.jpg	NY	Right	Yes	1.05244349999975	0	421836	235
824.9375	1	decision	trialStart	2	110	50	foodImage.35	FOODEEG_Images\0350.jpg	NY	Right	Yes	0.872833000000355	0	422369	251
825.9765625	2	decision	foodImageDisplay	2	110	50	foodImage.35	FOODEEG_Images\0350.jpg	NY	Right	Yes	0.872833000000355	0	422901	252
828.0390625	0.872833000000355	decision	choicePhaseStart	2	110	50	foodImage.35	FOODEEG_Images\0350.jpg	NY	Right	Yes	0.872833000000355	0	423957	253
828.904296875	0	decision	response	2	110	50	foodImage.35	FOODEEG_Images\0350.jpg	NY	Right	Yes	0.872833000000355	0	424400	235
829.9453125	1	decision	trialStart	2	111	51	foodImage.99	FOODEEG_Images\0907.jpg	YN	Right	No	0.821224199999961	0	424933	251
830.984375	2	decision	foodImageDisplay	2	111	51	foodImage.99	FOODEEG_Images\0907.jpg	YN	Right	No	0.821224199999961	0	425465	252
833.05078125	0.821224199999961	decision	choicePhaseStart	2	111	51	foodImage.99	FOODEEG_Images\0907.jpg	YN	Right	No	0.821224199999961	0	426523	253
833.86328125	0	decision	response	2	111	51	foodImage.99	FOODEEG_Images\0907.jpg	YN	Right	No	0.821224199999961	0	426939	235
834.904296875	1	decision	trialStart	2	112	52	foodImage.23	FOODEEG_Images\0244.jpg	NY	Left	No	1.47853729999952	0	427472	251
835.947265625	2	decision	foodImageDisplay	2	112	52	foodImage.23	FOODEEG_Images\0244.jpg	NY	Left	No	1.47853729999952	0	428006	252
838.009765625	1.47853729999952	decision	choicePhaseStart	2	112	52	foodImage.23	FOODEEG_Images\0244.jpg	NY	Left	No	1.47853729999952	0	429062	253
839.478515625	0	decision	response	2	112	52	foodImage.23	FOODEEG_Images\0244.jpg	NY	Left	No	1.47853729999952	0	429814	234
840.51953125	1	taste	trialStart	2	113	53	foodImage.18	FOODEEG_Images\0202.jpg	NY	Right	Yes	1.08474490000026	0	430347	251
841.580078125	2	taste	foodImageDisplay	2	113	53	foodImage.18	FOODEEG_Images\0202.jpg	NY	Right	Yes	1.08474490000026	0	430890	252
843.642578125	1.08474490000026	taste	choicePhaseStart	2	113	53	foodImage.18	FOODEEG_Images\0202.jpg	NY	Right	Yes	1.08474490000026	0	431946	253
844.71875	0	taste	response	2	113	53	foodImage.18	FOODEEG_Images\0202.jpg	NY	Right	Yes	1.08474490000026	0	432497	235
845.759765625	1	taste	trialStart	2	114	54	foodImage.63	FOODEEG_Images\0645.jpg	NY	Right	Yes	0.990745000000061	0	433030	251
846.802734375	2	taste	foodImageDisplay	2	114	54	foodImage.63	FOODEEG_Images\0645.jpg	NY	Right	Yes	0.990745000000061	0	433564	252
848.87109375	0.990745000000061	taste	choicePhaseStart	2	114	54	foodImage.63	FOODEEG_Images\0645.jpg	NY	Right	Yes	0.990745000000061	0	434623	253
849.853515625	0	taste	response	2	114	54	foodImage.63	FOODEEG_Images\0645.jpg	NY	Right	Yes	0.990745000000061	0	435126	235
850.89453125	1	decision	trialStart	2	115	55	foodImage.120	FOODEEG_Images\0928.jpg	NY	Left	No	0.472782800000459	0	435659	251
851.935546875	2	decision	foodImageDisplay	2	115	55	foodImage.120	FOODEEG_Images\0928.jpg	NY	Left	No	0.472782800000459	0	436192	252
853.998046875	0.472782800000459	decision	choicePhaseStart	2	115	55	foodImage.120	FOODEEG_Images\0928.jpg	NY	Left	No	0.472782800000459	0	437248	253
854.462890625	0	decision	response	2	115	55	foodImage.120	FOODEEG_Images\0928.jpg	NY	Left	No	0.472782800000459	0	437486	234
855.50390625	1	health	trialStart	2	116	56	foodImage.23	FOODEEG_Images\0244.jpg	YN	Right	No	0.51900999999998	0	438019	251
856.54296875	2	health	foodImageDisplay	2	116	56	foodImage.23	FOODEEG_Images\0244.jpg	YN	Right	No	0.51900999999998	0	438551	252
858.609375	0.51900999999998	health	choicePhaseStart	2	116	56	foodImage.23	FOODEEG_Images\0244.jpg	YN	Right	No	0.51900999999998	0	439609	253
859.119140625	0	health	response	2	116	56	foodImage.23	FOODEEG_Images\0244.jpg	YN	Right	No	0.51900999999998	0	439870	235
860.158203125	1	decision	trialStart	2	117	57	foodImage.31	FOODEEG_Images\0294.jpg	NY	Right	Yes	2.79898050000065	0	440402	251
861.201171875	2	decision	foodImageDisplay	2	117	57	foodImage.31	FOODEEG_Images\0294.jpg	NY	Right	Yes	2.79898050000065	0	440936	252
863.263671875	2.79898050000065	decision	choicePhaseStart	2	117	57	foodImage.31	FOODEEG_Images\0294.jpg	NY	Right	Yes	2.79898050000065	0	441992	253
866.0546875	0	decision	response	2	117	57	foodImage.31	FOODEEG_Images\0294.jpg	NY	Right	Yes	2.79898050000065	0	443421	235
867.095703125	1	health	trialStart	2	118	58	foodImage.81	FOODEEG_Images\0797.jpg	NY	Right	Yes	0.929371199999878	0	443954	251
868.150390625	2	health	foodImageDisplay	2	118	58	foodImage.81	FOODEEG_Images\0797.jpg	NY	Right	Yes	0.929371199999878	0	444494	252
870.212890625	0.929371199999878	health	choicePhaseStart	2	118	58	foodImage.81	FOODEEG_Images\0797.jpg	NY	Right	Yes	0.929371199999878	0	445550	253
871.1328125	0	health	response	2	118	58	foodImage.81	FOODEEG_Images\0797.jpg	NY	Right	Yes	0.929371199999878	0	446021	235
872.173828125	1	health	trialStart	2	119	59	foodImage.42	FOODEEG_Images\0438.jpg	NY	Right	Yes	0.700753500000246	0	446554	251
873.265625	2	health	foodImageDisplay	2	119	59	foodImage.42	FOODEEG_Images\0438.jpg	NY	Right	Yes	0.700753500000246	0	447113	252
875.330078125	0.700753500000246	health	choicePhaseStart	2	119	59	foodImage.42	FOODEEG_Images\0438.jpg	NY	Right	Yes	0.700753500000246	0	448170	253
876.021484375	0	health	response	2	119	59	foodImage.42	FOODEEG_Images\0438.jpg	NY	Right	Yes	0.700753500000246	0	448524	235
877.0625	1	taste	trialStart	2	120	60	foodImage.100	FOODEEG_Images\0908.jpg	NY	Left	No	0.63402429999951	0	449057	251
878.1015625	2	taste	foodImageDisplay	2	120	60	foodImage.100	FOODEEG_Images\0908.jpg	NY	Left	No	0.63402429999951	0	449589	252
880.1640625	0.63402429999951	taste	choicePhaseStart	2	120	60	foodImage.100	FOODEEG_Images\0908.jpg	NY	Left	No	0.63402429999951	0	450645	253
880.7890625	0	taste	response	2	120	60	foodImage.100	FOODEEG_Images\0908.jpg	NY	Left	No	0.63402429999951	0	450965	234
882.83203125	12.525390625	n/a	blockEnd	n/a	n/a	n/a	n/a	n/a	n/a	n/a	n/a	n/a	n/a	452011	254
895.357421875	2	n/a	blockStart	3	n/a	n/a	n/a	n/a	n/a	n/a	n/a	n/a	n/a	458424	250
897.388671875	1	health	trialStart	3	121	1	foodImage.95	FOODEEG_Images\0903.jpg	NY	Right	Yes	0.944472099999984	0	459464	251
898.4296875	2	health	foodImageDisplay	3	121	1	foodImage.95	FOODEEG_Images\0903.jpg	NY	Right	Yes	0.944472099999984	0	459997	252
900.494140625	0.944472099999984	health	choicePhaseStart	3	121	1	foodImage.95	FOODEEG_Images\0903.jpg	NY	Right	Yes	0.944472099999984	0	461054	253
901.427734375	0	health	response	3	121	1	foodImage.95	FOODEEG_Images\0903.jpg	NY	Right	Yes	0.944472099999984	0	461532	235
902.46875	1	decision	trialStart	3	122	2	foodImage.1	FOODEEG_Images\0004.jpg	NY	Right	Yes	0.927811199999269	0	462065	251
903.509765625	2	decision	foodImageDisplay	3	122	2	foodImage.1	FOODEEG_Images\0004.jpg	NY	Right	Yes	0.927811199999269	0	462598	252
905.578125	0.927811199999269	decision	choicePhaseStart	3	122	2	foodImage.1	FOODEEG_Images\0004.jpg	NY	Right	Yes	0.927811199999269	0	463657	253
906.5	0	decision	response	3	122	2	foodImage.1	FOODEEG_Images\0004.jpg	NY	Right	Yes	0.927811199999269	0	464129	235
907.544921875	1	decision	trialStart	3	123	3	foodImage.29	FOODEEG_Images\0278.jpg	YN	Right	No	1.35277169999972	0	464664	251
908.5859375	2	decision	foodImageDisplay	3	123	3	foodImage.29	FOODEEG_Images\0278.jpg	YN	Right	No	1.35277169999972	0	465197	252
910.6484375	1.35277169999972	decision	choicePhaseStart	3	123	3	foodImage.29	FOODEEG_Images\0278.jpg	YN	Right	No	1.35277169999972	0	466253	253
911.99609375	0	decision	response	3	123	3	foodImage.29	FOODEEG_Images\0278.jpg	YN	Right	No	1.35277169999972	0	466943	235
913.037109375	1	decision	trialStart	3	124	4	foodImage.94	FOODEEG_Images\0902.jpg	NY	Left	No	0.716397500000312	0	467476	251
914.076171875	2	decision	foodImageDisplay	3	124	4	foodImage.94	FOODEEG_Images\0902.jpg	NY	Left	No	0.716397500000312	0	468008	252
916.142578125	0.716397500000312	decision	choicePhaseStart	3	124	4	foodImage.94	FOODEEG_Images\0902.jpg	NY	Left	No	0.716397500000312	0	469066	253
916.8515625	0	decision	response	3	124	4	foodImage.94	FOODEEG_Images\0902.jpg	NY	Left	No	0.716397500000312	0	469429	234
917.892578125	1	taste	trialStart	3	125	5	foodImage.43	FOODEEG_Images\0445.jpg	NY	Left	No	1.06919229999949	0	469962	251
918.951171875	2	taste	foodImageDisplay	3	125	5	foodImage.43	FOODEEG_Images\0445.jpg	NY	Left	No	1.06919229999949	0	470504	252
921.015625	1.06919229999949	taste	choicePhaseStart	3	125	5	foodImage.43	FOODEEG_Images\0445.jpg	NY	Left	No	1.06919229999949	0	471561	253
922.076171875	0	taste	response	3	125	5	foodImage.43	FOODEEG_Images\0445.jpg	NY	Left	No	1.06919229999949	0	472104	234
923.115234375	1	decision	trialStart	3	126	6	foodImage.107	FOODEEG_Images\0915.jpg	NY	Left	No	1.08187650000036	0	472636	251
924.15625	2	decision	foodImageDisplay	3	126	6	foodImage.107	FOODEEG_Images\0915.jpg	NY	Left	No	1.08187650000036	0	473169	252
926.21875	1.08187650000036	decision	choicePhaseStart	3	126	6	foodImage.107	FOODEEG_Images\0915.jpg	NY	Left	No	1.08187650000036	0	474225	253
927.291015625	0	decision	response	3	126	6	foodImage.107	FOODEEG_Images\0915.jpg	NY	Left	No	1.08187650000036	0	474774	234
928.3359375	1	taste	trialStart	3	127	7	foodImage.120	FOODEEG_Images\0928.jpg	NY	Left	No	1.40524559999994	0	475309	251
929.375	2	taste	foodImageDisplay	3	127	7	foodImage.120	FOODEEG_Images\0928.jpg	NY	Left	No	1.40524559999994	0	475841	252
931.439453125	1.40524559999994	taste	choicePhaseStart	3	127	7	foodImage.120	FOODEEG_Images\0928.jpg	NY	Left	No	1.40524559999994	0	476898	253
932.8359375	0	taste	response	3	127	7	foodImage.120	FOODEEG_Images\0928.jpg	NY	Left	No	1.40524559999994	0	477613	234
933.875	1	decision	trialStart	3	128	8	foodImage.93	FOODEEG_Images\0901.jpg	YN	Right	No	1.33228660000077	0	478145	251
934.9140625	2	decision	foodImageDisplay	3	128	8	foodImage.93	FOODEEG_Images\0901.jpg	YN	Right	No	1.33228660000077	0	478677	252
936.982421875	1.33228660000077	decision	choicePhaseStart	3	128	8	foodImage.93	FOODEEG_Images\0901.jpg	YN	Right	No	1.33228660000077	0	479736	253
938.306640625	0	decision	response	3	128	8	foodImage.93	FOODEEG_Images\0901.jpg	YN	Right	No	1.33228660000077	0	480414	235
939.3515625	1	taste	trialStart	3	129	9	foodImage.14	FOODEEG_Images\0188.jpg	YN	Left	Yes	0.620894899999257	0	480949	251
940.408203125	2	taste	foodImageDisplay	3	129	9	foodImage.14	FOODEEG_Images\0188.jpg	YN	Left	Yes	0.620894899999257	0	481490	252
942.47265625	0.620894899999257	taste	choicePhaseStart	3	129	9	foodImage.14	FOODEEG_Images\0188.jpg	YN	Left	Yes	0.620894899999257	0	482547	253
943.08203125	0	taste	response	3	129	9	foodImage.14	FOODEEG_Images\0188.jpg	YN	Left	Yes	0.620894899999257	0	482859	234
944.123046875	1	health	trialStart	3	130	10	foodImage.55	FOODEEG_Images\0567.jpg	NY	Right	Yes	0.973447800000031	0	483392	251
945.1796875	2	health	foodImageDisplay	3	130	10	foodImage.55	FOODEEG_Images\0567.jpg	NY	Right	Yes	0.973447800000031	0	483933	252
947.244140625	0.973447800000031	health	choicePhaseStart	3	130	10	foodImage.55	FOODEEG_Images\0567.jpg	NY	Right	Yes	0.973447800000031	0	484990	253
948.2109375	0	health	response	3	130	10	foodImage.55	FOODEEG_Images\0567.jpg	NY	Right	Yes	0.973447800000031	0	485485	235
949.26171875	1	health	trialStart	3	131	11	foodImage.60	FOODEEG_Images\0614.jpg	NY	Right	Yes	1.63663009999982	0	486023	251
950.318359375	2	health	foodImageDisplay	3	131	11	foodImage.60	FOODEEG_Images\0614.jpg	NY	Right	Yes	1.63663009999982	0	486564	252
952.3828125	1.63663009999982	health	choicePhaseStart	3	131	11	foodImage.60	FOODEEG_Images\0614.jpg	NY	Right	Yes	1.63663009999982	0	487621	253
954.009765625	0	health	response	3	131	11	foodImage.60	FOODEEG_Images\0614.jpg	NY	Right	Yes	1.63663009999982	0	488454	235
955.052734375	1	decision	trialStart	3	132	12	foodImage.82	FOODEEG_Images\0805.jpg	YN	Right	No	0.673555499999566	0	488988	251
956.111328125	2	decision	foodImageDisplay	3	132	12	foodImage.82	FOODEEG_Images\0805.jpg	YN	Right	No	0.673555499999566	0	489530	252
958.177734375	0.673555499999566	decision	choicePhaseStart	3	132	12	foodImage.82	FOODEEG_Images\0805.jpg	YN	Right	No	0.673555499999566	0	490588	253
958.841796875	0	decision	response	3	132	12	foodImage.82	FOODEEG_Images\0805.jpg	YN	Right	No	0.673555499999566	0	490928	235
959.884765625	1	taste	trialStart	3	133	13	foodImage.119	FOODEEG_Images\0927.jpg	YN	Right	No	0.641929399999754	0	491462	251
960.921875	2	taste	foodImageDisplay	3	133	13	foodImage.119	FOODEEG_Images\0927.jpg	YN	Right	No	0.641929399999754	0	491993	252
962.986328125	0.641929399999754	taste	choicePhaseStart	3	133	13	foodImage.119	FOODEEG_Images\0927.jpg	YN	Right	No	0.641929399999754	0	493050	253
963.6171875	0	taste	response	3	133	13	foodImage.119	FOODEEG_Images\0927.jpg	YN	Right	No	0.641929399999754	0	493373	235
964.66015625	1	decision	trialStart	3	134	14	foodImage.21	FOODEEG_Images\0234.jpg	NY	Right	Yes	0.61383509999996	0	493907	251
965.716796875	2	decision	foodImageDisplay	3	134	14	foodImage.21	FOODEEG_Images\0234.jpg	NY	Right	Yes	0.61383509999996	0	494448	252
967.78125	0.61383509999996	decision	choicePhaseStart	3	134	14	foodImage.21	FOODEEG_Images\0234.jpg	NY	Right	Yes	0.61383509999996	0	495505	253
968.38671875	0	decision	response	3	134	14	foodImage.21	FOODEEG_Images\0234.jpg	NY	Right	Yes	0.61383509999996	0	495815	235
969.427734375	1	taste	trialStart	3	135	15	foodImage.47	FOODEEG_Images\0488.jpg	NY	Right	Yes	0.733532700000069	0	496348	251
970.470703125	2	taste	foodImageDisplay	3	135	15	foodImage.47	FOODEEG_Images\0488.jpg	NY	Right	Yes	0.733532700000069	0	496882	252
972.533203125	0.733532700000069	taste	choicePhaseStart	3	135	15	foodImage.47	FOODEEG_Images\0488.jpg	NY	Right	Yes	0.733532700000069	0	497938	253
973.2578125	0	taste	response	3	135	15	foodImage.47	FOODEEG_Images\0488.jpg	NY	Right	Yes	0.733532700000069	0	498309	235
974.302734375	1	taste	trialStart	3	136	16	foodImage.53	FOODEEG_Images\0547.jpg	YN	Left	Yes	0.870471700000053	0	498844	251
975.365234375	2	taste	foodImageDisplay	3	136	16	foodImage.53	FOODEEG_Images\0547.jpg	YN	Left	Yes	0.870471700000053	0	499388	252
977.427734375	0.870471700000053	taste	choicePhaseStart	3	136	16	foodImage.53	FOODEEG_Images\0547.jpg	YN	Left	Yes	0.870471700000053	0	500444	253
978.2890625	0	taste	response	3	136	16	foodImage.53	FOODEEG_Images\0547.jpg	YN	Left	Yes	0.870471700000053	0	500885	234
979.33203125	1	decision	trialStart	3	137	17	foodImage.41	FOODEEG_Images\0409.jpg	YN	Left	Yes	0.720846399999573	0	501419	251
980.376953125	2	decision	foodImageDisplay	3	137	17	foodImage.41	FOODEEG_Images\0409.jpg	YN	Left	Yes	0.720846399999573	0	501954	252
982.44140625	0.720846399999573	decision	choicePhaseStart	3	137	17	foodImage.41	FOODEEG_Images\0409.jpg	YN	Left	Yes	0.720846399999573	0	503011	253
983.15234375	0	decision	response	3	137	17	foodImage.41	FOODEEG_Images\0409.jpg	YN	Left	Yes	0.720846399999573	0	503375	234
984.193359375	1	taste	trialStart	3	138	18	foodImage.101	FOODEEG_Images\0909.jpg	YN	Right	No	0.784815400000298	0	503908	251
985.23046875	2	taste	foodImageDisplay	3	138	18	foodImage.101	FOODEEG_Images\0909.jpg	YN	Right	No	0.784815400000298	0	504439	252
987.294921875	0.784815400000298	taste	choicePhaseStart	3	138	18	foodImage.101	FOODEEG_Images\0909.jpg	YN	Right	No	0.784815400000298	0	505496	253
988.072265625	0	taste	response	3	138	18	foodImage.101	FOODEEG_Images\0909.jpg	YN	Right	No	0.784815400000298	0	505894	235
989.1171875	1	taste	trialStart	3	139	19	foodImage.104	FOODEEG_Images\0912.jpg	YN	Left	Yes	1.10346250000021	0	506429	251
990.154296875	2	taste	foodImageDisplay	3	139	19	foodImage.104	FOODEEG_Images\0912.jpg	YN	Left	Yes	1.10346250000021	0	506960	252
992.21875	1.10346250000021	taste	choicePhaseStart	3	139	19	foodImage.104	FOODEEG_Images\0912.jpg	YN	Left	Yes	1.10346250000021	0	508017	253
993.3125	0	taste	response	3	139	19	foodImage.104	FOODEEG_Images\0912.jpg	YN	Left	Yes	1.10346250000021	0	508577	234
994.353515625	1	decision	trialStart	3	140	20	foodImage.14	FOODEEG_Images\0188.jpg	NY	Right	Yes	0.840221000000383	0	509110	251
995.41015625	2	decision	foodImageDisplay	3	140	20	foodImage.14	FOODEEG_Images\0188.jpg	NY	Right	Yes	0.840221000000383	0	509651	252
997.474609375	0.840221000000383	decision	choicePhaseStart	3	140	20	foodImage.14	FOODEEG_Images\0188.jpg	NY	Right	Yes	0.840221000000383	0	510708	253
998.3046875	0	decision	response	3	140	20	foodImage.14	FOODEEG_Images\0188.jpg	NY	Right	Yes	0.840221000000383	0	511133	235
999.345703125	1	taste	trialStart	3	141	21	foodImage.46	FOODEEG_Images\0479.jpg	NY	Left	No	0.909178099999735	0	511666	251
1000.404296875	2	taste	foodImageDisplay	3	141	21	foodImage.46	FOODEEG_Images\0479.jpg	NY	Left	No	0.909178099999735	0	512208	252
1002.46875	0.909178099999735	taste	choicePhaseStart	3	141	21	foodImage.46	FOODEEG_Images\0479.jpg	NY	Left	No	0.909178099999735	0	513265	253
1003.369140625	0	taste	response	3	141	21	foodImage.46	FOODEEG_Images\0479.jpg	NY	Left	No	0.909178099999735	0	513726	234
1004.41015625	1	decision	trialStart	3	142	22	foodImage.48	FOODEEG_Images\0494.jpg	NY	Right	Yes	1.35988950000046	0	514259	251
1005.451171875	2	decision	foodImageDisplay	3	142	22	foodImage.48	FOODEEG_Images\0494.jpg	NY	Right	Yes	1.35988950000046	0	514792	252
1007.513671875	1.35988950000046	decision	choicePhaseStart	3	142	22	foodImage.48	FOODEEG_Images\0494.jpg	NY	Right	Yes	1.35988950000046	0	515848	253
1008.865234375	0	decision	response	3	142	22	foodImage.48	FOODEEG_Images\0494.jpg	NY	Right	Yes	1.35988950000046	0	516540	235
1009.90625	1	decision	trialStart	3	143	23	foodImage.106	FOODEEG_Images\0914.jpg	YN	Left	Yes	0.815052099999775	0	517073	251
1010.943359375	2	decision	foodImageDisplay	3	143	23	foodImage.106	FOODEEG_Images\0914.jpg	YN	Left	Yes	0.815052099999775	0	517604	252
1013.009765625	0.815052099999775	decision	choicePhaseStart	3	143	23	foodImage.106	FOODEEG_Images\0914.jpg	YN	Left	Yes	0.815052099999775	0	518662	253
1013.81640625	0	decision	response	3	143	23	foodImage.106	FOODEEG_Images\0914.jpg	YN	Left	Yes	0.815052099999775	0	519075	234
1014.859375	1	decision	trialStart	3	144	24	foodImage.81	FOODEEG_Images\0797.jpg	YN	Right	No	1.64273460000004	0	519609	251
1015.94140625	2	decision	foodImageDisplay	3	144	24	foodImage.81	FOODEEG_Images\0797.jpg	YN	Right	No	1.64273460000004	0	520163	252
1018.005859375	1.64273460000004	decision	choicePhaseStart	3	144	24	foodImage.81	FOODEEG_Images\0797.jpg	YN	Right	No	1.64273460000004	0	521220	253
1019.638671875	0	decision	response	3	144	24	foodImage.81	FOODEEG_Images\0797.jpg	YN	Right	No	1.64273460000004	0	522056	235
1020.68359375	1	taste	trialStart	3	145	25	foodImage.103	FOODEEG_Images\0911.jpg	NY	Left	No	0.635088899999573	0	522591	251
1021.724609375	2	taste	foodImageDisplay	3	145	25	foodImage.103	FOODEEG_Images\0911.jpg	NY	Left	No	0.635088899999573	0	523124	252
1023.7890625	0.635088899999573	taste	choicePhaseStart	3	145	25	foodImage.103	FOODEEG_Images\0911.jpg	NY	Left	No	0.635088899999573	0	524181	253
1024.416015625	0	taste	response	3	145	25	foodImage.103	FOODEEG_Images\0911.jpg	NY	Left	No	0.635088899999573	0	524502	234
1025.458984375	1	decision	trialStart	3	146	26	foodImage.52	FOODEEG_Images\0539.jpg	YN	Right	No	0.694988800000829	0	525036	251
1026.521484375	2	decision	foodImageDisplay	3	146	26	foodImage.52	FOODEEG_Images\0539.jpg	YN	Right	No	0.694988800000829	0	525580	252
1028.5859375	0.694988800000829	decision	choicePhaseStart	3	146	26	foodImage.52	FOODEEG_Images\0539.jpg	YN	Right	No	0.694988800000829	0	526637	253
1029.271484375	0	decision	response	3	146	26	foodImage.52	FOODEEG_Images\0539.jpg	YN	Right	No	0.694988800000829	0	526988	235
1030.314453125	1	taste	trialStart	3	147	27	foodImage.116	FOODEEG_Images\0924.jpg	YN	Right	No	1.12626020000062	0	527522	251
1031.353515625	2	taste	foodImageDisplay	3	147	27	foodImage.116	FOODEEG_Images\0924.jpg	YN	Right	No	1.12626020000062	0	528054	252
1033.416015625	1.12626020000062	taste	choicePhaseStart	3	147	27	foodImage.116	FOODEEG_Images\0924.jpg	YN	Right	No	1.12626020000062	0	529110	253
1034.53515625	0	taste	response	3	147	27	foodImage.116	FOODEEG_Images\0924.jpg	YN	Right	No	1.12626020000062	0	529683	235
1035.578125	1	taste	trialStart	3	148	28	foodImage.98	FOODEEG_Images\0906.jpg	NY	Left	No	0.639498399999866	0	530217	251
1036.615234375	2	taste	foodImageDisplay	3	148	28	foodImage.98	FOODEEG_Images\0906.jpg	NY	Left	No	0.639498399999866	0	530748	252
1038.6796875	0.639498399999866	taste	choicePhaseStart	3	148	28	foodImage.98	FOODEEG_Images\0906.jpg	NY	Left	No	0.639498399999866	0	531805	253
1039.310546875	0	taste	response	3	148	28	foodImage.98	FOODEEG_Images\0906.jpg	NY	Left	No	0.639498399999866	0	532128	234
1040.35546875	1	taste	trialStart	3	149	29	foodImage.8	FOODEEG_Images\0136.jpg	YN	Right	No	0.696022500000254	0	532663	251
1041.396484375	2	taste	foodImageDisplay	3	149	29	foodImage.8	FOODEEG_Images\0136.jpg	YN	Right	No	0.696022500000254	0	533196	252
1043.46484375	0.696022500000254	taste	choicePhaseStart	3	149	29	foodImage.8	FOODEEG_Images\0136.jpg	YN	Right	No	0.696022500000254	0	534255	253
1044.150390625	0	taste	response	3	149	29	foodImage.8	FOODEEG_Images\0136.jpg	YN	Right	No	0.696022500000254	0	534606	235
1045.197265625	1	taste	trialStart	3	150	30	foodImage.80	FOODEEG_Images\0796.jpg	NY	Right	Yes	1.64990980000039	0	535142	251
1046.25390625	2	taste	foodImageDisplay	3	150	30	foodImage.80	FOODEEG_Images\0796.jpg	NY	Right	Yes	1.64990980000039	0	535683	252
1048.318359375	1.64990980000039	taste	choicePhaseStart	3	150	30	foodImage.80	FOODEEG_Images\0796.jpg	NY	Right	Yes	1.64990980000039	0	536740	253
1049.958984375	0	taste	response	3	150	30	foodImage.80	FOODEEG_Images\0796.jpg	NY	Right	Yes	1.64990980000039	0	537580	235
1050.998046875	1	health	trialStart	3	151	31	foodImage.36	FOODEEG_Images\0352.jpg	NY	Right	Yes	0.898439600000529	0	538112	251
1052.080078125	2	health	foodImageDisplay	3	151	31	foodImage.36	FOODEEG_Images\0352.jpg	NY	Right	Yes	0.898439600000529	0	538666	252
1054.142578125	0.898439600000529	health	choicePhaseStart	3	151	31	foodImage.36	FOODEEG_Images\0352.jpg	NY	Right	Yes	0.898439600000529	0	539722	253
1055.03125	0	health	response	3	151	31	foodImage.36	FOODEEG_Images\0352.jpg	NY	Right	Yes	0.898439600000529	0	540177	235
1056.0703125	1	decision	trialStart	3	152	32	foodImage.62	FOODEEG_Images\0644.jpg	NY	Right	Yes	0.892739900000379	0	540709	251
1057.12890625	2	decision	foodImageDisplay	3	152	32	foodImage.62	FOODEEG_Images\0644.jpg	NY	Right	Yes	0.892739900000379	0	541251	252
1059.1953125	0.892739900000379	decision	choicePhaseStart	3	152	32	foodImage.62	FOODEEG_Images\0644.jpg	NY	Right	Yes	0.892739900000379	0	542309	253
1060.078125	0	decision	response	3	152	32	foodImage.62	FOODEEG_Images\0644.jpg	NY	Right	Yes	0.892739900000379	0	542761	235
1061.119140625	1	decision	trialStart	3	153	33	foodImage.37	FOODEEG_Images\0359.jpg	NY	Right	Yes	0.60680020000018	0	543294	251
1062.16015625	2	decision	foodImageDisplay	3	153	33	foodImage.37	FOODEEG_Images\0359.jpg	NY	Right	Yes	0.60680020000018	0	543827	252
1064.224609375	0.60680020000018	decision	choicePhaseStart	3	153	33	foodImage.37	FOODEEG_Images\0359.jpg	NY	Right	Yes	0.60680020000018	0	544884	253
1064.822265625	0	decision	response	3	153	33	foodImage.37	FOODEEG_Images\0359.jpg	NY	Right	Yes	0.60680020000018	0	545190	235
1065.86328125	1	decision	trialStart	3	154	34	foodImage.15	FOODEEG_Images\0189.jpg	YN	Left	Yes	0.743253999999979	0	545723	251
1066.921875	2	decision	foodImageDisplay	3	154	34	foodImage.15	FOODEEG_Images\0189.jpg	YN	Left	Yes	0.743253999999979	0	546265	252
1068.984375	0.743253999999979	decision	choicePhaseStart	3	154	34	foodImage.15	FOODEEG_Images\0189.jpg	YN	Left	Yes	0.743253999999979	0	547321	253
1069.716796875	0	decision	response	3	154	34	foodImage.15	FOODEEG_Images\0189.jpg	YN	Left	Yes	0.743253999999979	0	547696	234
1070.759765625	1	taste	trialStart	3	155	35	foodImage.10	FOODEEG_Images\0145.jpg	NY	Right	Yes	0.754246899999998	0	548230	251
1071.8203125	2	taste	foodImageDisplay	3	155	35	foodImage.10	FOODEEG_Images\0145.jpg	NY	Right	Yes	0.754246899999998	0	548773	252
1073.884765625	0.754246899999998	taste	choicePhaseStart	3	155	35	foodImage.10	FOODEEG_Images\0145.jpg	NY	Right	Yes	0.754246899999998	0	549830	253
1074.62890625	0	taste	response	3	155	35	foodImage.10	FOODEEG_Images\0145.jpg	NY	Right	Yes	0.754246899999998	0	550211	235
1075.669921875	1	taste	trialStart	3	156	36	foodImage.85	FOODEEG_Images\0841.jpg	YN	Right	No	1.30419340000026	0	550744	251
1076.7265625	2	taste	foodImageDisplay	3	156	36	foodImage.85	FOODEEG_Images\0841.jpg	YN	Right	No	1.30419340000026	0	551285	252
1078.791015625	1.30419340000026	taste	choicePhaseStart	3	156	36	foodImage.85	FOODEEG_Images\0841.jpg	YN	Right	No	1.30419340000026	0	552342	253
1080.0859375	0	taste	response	3	156	36	foodImage.85	FOODEEG_Images\0841.jpg	YN	Right	No	1.30419340000026	0	553005	235
1081.126953125	1	health	trialStart	3	157	37	foodImage.26	FOODEEG_Images\0262.jpg	YN	Left	Yes	0.888724299999922	0	553538	251
1082.16796875	2	health	foodImageDisplay	3	157	37	foodImage.26	FOODEEG_Images\0262.jpg	YN	Left	Yes	0.888724299999922	0	554071	252
1084.23046875	0.888724299999922	health	choicePhaseStart	3	157	37	foodImage.26	FOODEEG_Images\0262.jpg	YN	Left	Yes	0.888724299999922	0	555127	253
1085.109375	0	health	response	3	157	37	foodImage.26	FOODEEG_Images\0262.jpg	YN	Left	Yes	0.888724299999922	0	555577	234
1086.15234375	1	decision	trialStart	3	158	38	foodImage.61	FOODEEG_Images\0640.jpg	NY	Right	Yes	0.765704800000094	0	556111	251
1087.193359375	2	decision	foodImageDisplay	3	158	38	foodImage.61	FOODEEG_Images\0640.jpg	NY	Right	Yes	0.765704800000094	0	556644	252
1089.255859375	0.765704800000094	decision	choicePhaseStart	3	158	38	foodImage.61	FOODEEG_Images\0640.jpg	NY	Right	Yes	0.765704800000094	0	557700	253
1090.013671875	0	decision	response	3	158	38	foodImage.61	FOODEEG_Images\0640.jpg	NY	Right	Yes	0.765704800000094	0	558088	235
1091.056640625	1	taste	trialStart	3	159	39	foodImage.9	FOODEEG_Images\0138.jpg	YN	Left	Yes	0.661890800000037	0	558622	251
1092.11328125	2	taste	foodImageDisplay	3	159	39	foodImage.9	FOODEEG_Images\0138.jpg	YN	Left	Yes	0.661890800000037	0	559163	252
1094.17578125	0.661890800000037	taste	choicePhaseStart	3	159	39	foodImage.9	FOODEEG_Images\0138.jpg	YN	Left	Yes	0.661890800000037	0	560219	253
1094.828125	0	taste	response	3	159	39	foodImage.9	FOODEEG_Images\0138.jpg	YN	Left	Yes	0.661890800000037	0	560553	234
1095.87109375	1	health	trialStart	3	160	40	foodImage.74	FOODEEG_Images\0752.jpg	NY	Left	No	0.596325399999841	0	561087	251
1096.919921875	2	health	foodImageDisplay	3	160	40	foodImage.74	FOODEEG_Images\0752.jpg	NY	Left	No	0.596325399999841	0	561624	252
1098.982421875	0.596325399999841	health	choicePhaseStart	3	160	40	foodImage.74	FOODEEG_Images\0752.jpg	NY	Left	No	0.596325399999841	0	562680	253
1099.572265625	0	health	response	3	160	40	foodImage.74	FOODEEG_Images\0752.jpg	NY	Left	No	0.596325399999841	0	562982	234
1100.61328125	1	decision	trialStart	3	161	41	foodImage.2	FOODEEG_Images\0028.jpg	NY	Left	No	1.13748690000011	0	563515	251
1101.65625	2	decision	foodImageDisplay	3	161	41	foodImage.2	FOODEEG_Images\0028.jpg	NY	Left	No	1.13748690000011	0	564049	252
1103.724609375	1.13748690000011	decision	choicePhaseStart	3	161	41	foodImage.2	FOODEEG_Images\0028.jpg	NY	Left	No	1.13748690000011	0	565108	253
1104.8515625	0	decision	response	3	161	41	foodImage.2	FOODEEG_Images\0028.jpg	NY	Left	No	1.13748690000011	0	565685	234
1105.89453125	1	decision	trialStart	3	162	42	foodImage.40	FOODEEG_Images\0373.jpg	YN	Left	Yes	1.02183630000036	0	566219	251
1106.935546875	2	decision	foodImageDisplay	3	162	42	foodImage.40	FOODEEG_Images\0373.jpg	YN	Left	Yes	1.02183630000036	0	566752	252
1109	1.02183630000036	decision	choicePhaseStart	3	162	42	foodImage.40	FOODEEG_Images\0373.jpg	YN	Left	Yes	1.02183630000036	0	567809	253
1110.01171875	0	decision	response	3	162	42	foodImage.40	FOODEEG_Images\0373.jpg	YN	Left	Yes	1.02183630000036	0	568327	234
1111.052734375	1	health	trialStart	3	163	43	foodImage.117	FOODEEG_Images\0925.jpg	YN	Right	No	1.12977039999987	0	568860	251
1112.091796875	2	health	foodImageDisplay	3	163	43	foodImage.117	FOODEEG_Images\0925.jpg	YN	Right	No	1.12977039999987	0	569392	252
1114.15625	1.12977039999987	health	choicePhaseStart	3	163	43	foodImage.117	FOODEEG_Images\0925.jpg	YN	Right	No	1.12977039999987	0	570449	253
1115.275390625	0	health	response	3	163	43	foodImage.117	FOODEEG_Images\0925.jpg	YN	Right	No	1.12977039999987	0	571022	235
1116.31640625	1	taste	trialStart	3	164	44	foodImage.83	FOODEEG_Images\0827.jpg	NY	Left	No	1.23428929999955	0	571555	251
1117.376953125	2	taste	foodImageDisplay	3	164	44	foodImage.83	FOODEEG_Images\0827.jpg	NY	Left	No	1.23428929999955	0	572098	252
1119.439453125	1.23428929999955	taste	choicePhaseStart	3	164	44	foodImage.83	FOODEEG_Images\0827.jpg	NY	Left	No	1.23428929999955	0	573154	253
1120.66796875	0	taste	response	3	164	44	foodImage.83	FOODEEG_Images\0827.jpg	NY	Left	No	1.23428929999955	0	573783	234
1121.708984375	1	taste	trialStart	3	165	45	foodImage.42	FOODEEG_Images\0438.jpg	YN	Right	No	1.19552729999941	0	574316	251
1122.79296875	2	taste	foodImageDisplay	3	165	45	foodImage.42	FOODEEG_Images\0438.jpg	YN	Right	No	1.19552729999941	0	574871	252
1124.85546875	1.19552729999941	taste	choicePhaseStart	3	165	45	foodImage.42	FOODEEG_Images\0438.jpg	YN	Right	No	1.19552729999941	0	575927	253
1126.04296875	0	taste	response	3	165	45	foodImage.42	FOODEEG_Images\0438.jpg	YN	Right	No	1.19552729999941	0	576535	235
1127.0859375	1	decision	trialStart	3	166	46	foodImage.112	FOODEEG_Images\0920.jpg	NY	Left	No	0.980867600000238	0	577069	251
1128.12890625	2	decision	foodImageDisplay	3	166	46	foodImage.112	FOODEEG_Images\0920.jpg	NY	Left	No	0.980867600000238	0	577603	252
1130.19140625	0.980867600000238	decision	choicePhaseStart	3	166	46	foodImage.112	FOODEEG_Images\0920.jpg	NY	Left	No	0.980867600000238	0	578659	253
1131.1640625	0	decision	response	3	166	46	foodImage.112	FOODEEG_Images\0920.jpg	NY	Left	No	0.980867600000238	0	579157	234
1132.205078125	1	decision	trialStart	3	167	47	foodImage.84	FOODEEG_Images\0830.jpg	NY	Left	No	1.38187220000054	0	579690	251
1133.26953125	2	decision	foodImageDisplay	3	167	47	foodImage.84	FOODEEG_Images\0830.jpg	NY	Left	No	1.38187220000054	0	580235	252
1135.333984375	1.38187220000054	decision	choicePhaseStart	3	167	47	foodImage.84	FOODEEG_Images\0830.jpg	NY	Left	No	1.38187220000054	0	581292	253
1136.70703125	0	decision	response	3	167	47	foodImage.84	FOODEEG_Images\0830.jpg	NY	Left	No	1.38187220000054	0	581995	234
1137.748046875	1	taste	trialStart	3	168	48	foodImage.102	FOODEEG_Images\0910.jpg	NY	Right	Yes	0.617353499999808	0	582528	251
1138.787109375	2	taste	foodImageDisplay	3	168	48	foodImage.102	FOODEEG_Images\0910.jpg	NY	Right	Yes	0.617353499999808	0	583060	252
1140.8515625	0.617353499999808	taste	choicePhaseStart	3	168	48	foodImage.102	FOODEEG_Images\0910.jpg	NY	Right	Yes	0.617353499999808	0	584117	253
1141.458984375	0	taste	response	3	168	48	foodImage.102	FOODEEG_Images\0910.jpg	NY	Right	Yes	0.617353499999808	0	584428	235
1142.501953125	1	taste	trialStart	3	169	49	foodImage.34	FOODEEG_Images\0339.jpg	NY	Left	No	0.88977900000009	0	584962	251
1143.5625	2	taste	foodImageDisplay	3	169	49	foodImage.34	FOODEEG_Images\0339.jpg	NY	Left	No	0.88977900000009	0	585505	252
1145.626953125	0.88977900000009	taste	choicePhaseStart	3	169	49	foodImage.34	FOODEEG_Images\0339.jpg	NY	Left	No	0.88977900000009	0	586562	253
1146.505859375	0	taste	response	3	169	49	foodImage.34	FOODEEG_Images\0339.jpg	NY	Left	No	0.88977900000009	0	587012	234
1147.548828125	1	taste	trialStart	3	170	50	foodImage.94	FOODEEG_Images\0902.jpg	YN	Right	No	0.624477600000318	0	587546	251
1148.587890625	2	taste	foodImageDisplay	3	170	50	foodImage.94	FOODEEG_Images\0902.jpg	YN	Right	No	0.624477600000318	0	588078	252
1150.65234375	0.624477600000318	taste	choicePhaseStart	3	170	50	foodImage.94	FOODEEG_Images\0902.jpg	YN	Right	No	0.624477600000318	0	589135	253
1151.267578125	0	taste	response	3	170	50	foodImage.94	FOODEEG_Images\0902.jpg	YN	Right	No	0.624477600000318	0	589450	235
1152.310546875	1	taste	trialStart	3	171	51	foodImage.49	FOODEEG_Images\0515.jpg	YN	Left	Yes	1.16411130000051	0	589984	251
1153.3515625	2	taste	foodImageDisplay	3	171	51	foodImage.49	FOODEEG_Images\0515.jpg	YN	Left	Yes	1.16411130000051	0	590517	252
1155.416015625	1.16411130000051	taste	choicePhaseStart	3	171	51	foodImage.49	FOODEEG_Images\0515.jpg	YN	Left	Yes	1.16411130000051	0	591574	253
1156.5703125	0	taste	response	3	171	51	foodImage.49	FOODEEG_Images\0515.jpg	YN	Left	Yes	1.16411130000051	0	592165	234
1157.61328125	1	taste	trialStart	3	172	52	foodImage.95	FOODEEG_Images\0903.jpg	NY	Left	No	0.615721899999699	0	592699	251
1158.65234375	2	taste	foodImageDisplay	3	172	52	foodImage.95	FOODEEG_Images\0903.jpg	NY	Left	No	0.615721899999699	0	593231	252
1160.716796875	0.615721899999699	taste	choicePhaseStart	3	172	52	foodImage.95	FOODEEG_Images\0903.jpg	NY	Left	No	0.615721899999699	0	594288	253
1161.322265625	0	taste	response	3	172	52	foodImage.95	FOODEEG_Images\0903.jpg	NY	Left	No	0.615721899999699	0	594598	234
1162.36328125	1	taste	trialStart	3	173	53	foodImage.32	FOODEEG_Images\0319.jpg	NY	Left	No	0.653086999999687	0	595131	251
1163.40625	2	taste	foodImageDisplay	3	173	53	foodImage.32	FOODEEG_Images\0319.jpg	NY	Left	No	0.653086999999687	0	595665	252
1165.470703125	0.653086999999687	taste	choicePhaseStart	3	173	53	foodImage.32	FOODEEG_Images\0319.jpg	NY	Left	No	0.653086999999687	0	596722	253
1166.11328125	0	taste	response	3	173	53	foodImage.32	FOODEEG_Images\0319.jpg	NY	Left	No	0.653086999999687	0	597051	234
1167.154296875	1	taste	trialStart	3	174	54	foodImage.108	FOODEEG_Images\0916.jpg	NY	Left	No	0.596057499999915	0	597584	251
1168.19140625	2	taste	foodImageDisplay	3	174	54	foodImage.108	FOODEEG_Images\0916.jpg	NY	Left	No	0.596057499999915	0	598115	252
1170.255859375	0.596057499999915	taste	choicePhaseStart	3	174	54	foodImage.108	FOODEEG_Images\0916.jpg	NY	Left	No	0.596057499999915	0	599172	253
1170.841796875	0	taste	response	3	174	54	foodImage.108	FOODEEG_Images\0916.jpg	NY	Left	No	0.596057499999915	0	599472	234
1171.884765625	1	health	trialStart	3	175	55	foodImage.103	FOODEEG_Images\0911.jpg	YN	Left	Yes	0.51298609999958	0	600006	251
1172.921875	2	health	foodImageDisplay	3	175	55	foodImage.103	FOODEEG_Images\0911.jpg	YN	Left	Yes	0.51298609999958	0	600537	252
1174.986328125	0.51298609999958	health	choicePhaseStart	3	175	55	foodImage.103	FOODEEG_Images\0911.jpg	YN	Left	Yes	0.51298609999958	0	601594	253
1175.490234375	0	health	response	3	175	55	foodImage.103	FOODEEG_Images\0911.jpg	YN	Left	Yes	0.51298609999958	0	601852	234
1176.533203125	1	decision	trialStart	3	176	56	foodImage.4	FOODEEG_Images\0065.jpg	YN	Left	Yes	0.725599500000499	0	602386	251
1177.58984375	2	decision	foodImageDisplay	3	176	56	foodImage.4	FOODEEG_Images\0065.jpg	YN	Left	Yes	0.725599500000499	0	602927	252
1179.65234375	0.725599500000499	decision	choicePhaseStart	3	176	56	foodImage.4	FOODEEG_Images\0065.jpg	YN	Left	Yes	0.725599500000499	0	603983	253
1180.369140625	0	decision	response	3	176	56	foodImage.4	FOODEEG_Images\0065.jpg	YN	Left	Yes	0.725599500000499	0	604350	234
1181.416015625	1	decision	trialStart	3	177	57	foodImage.83	FOODEEG_Images\0827.jpg	NY	Left	No	0.744302000000062	0	604886	251
1182.47265625	2	decision	foodImageDisplay	3	177	57	foodImage.83	FOODEEG_Images\0827.jpg	NY	Left	No	0.744302000000062	0	605427	252
1184.537109375	0.744302000000062	decision	choicePhaseStart	3	177	57	foodImage.83	FOODEEG_Images\0827.jpg	NY	Left	No	0.744302000000062	0	606484	253
1185.2734375	0	decision	response	3	177	57	foodImage.83	FOODEEG_Images\0827.jpg	NY	Left	No	0.744302000000062	0	606861	234
1186.31640625	1	decision	trialStart	3	178	58	foodImage.76	FOODEEG_Images\0766.jpg	NY	Right	Yes	1.32084810000015	0	607395	251
1187.361328125	2	decision	foodImageDisplay	3	178	58	foodImage.76	FOODEEG_Images\0766.jpg	NY	Right	Yes	1.32084810000015	0	607930	252
1189.42578125	1.32084810000015	decision	choicePhaseStart	3	178	58	foodImage.76	FOODEEG_Images\0766.jpg	NY	Right	Yes	1.32084810000015	0	608987	253
1190.736328125	0	decision	response	3	178	58	foodImage.76	FOODEEG_Images\0766.jpg	NY	Right	Yes	1.32084810000015	0	609658	235
1191.779296875	1	decision	trialStart	3	179	59	foodImage.95	FOODEEG_Images\0903.jpg	YN	Right	No	0.78383169999961	0	610192	251
1192.818359375	2	decision	foodImageDisplay	3	179	59	foodImage.95	FOODEEG_Images\0903.jpg	YN	Right	No	0.78383169999961	0	610724	252
1194.8828125	0.78383169999961	decision	choicePhaseStart	3	179	59	foodImage.95	FOODEEG_Images\0903.jpg	YN	Right	No	0.78383169999961	0	611781	253
1195.65625	0	decision	response	3	179	59	foodImage.95	FOODEEG_Images\0903.jpg	YN	Right	No	0.78383169999961	0	612177	235
1196.69921875	1	health	trialStart	3	180	60	foodImage.25	FOODEEG_Images\0261.jpg	NY	Left	No	0.666363000000274	0	612711	251
1197.7421875	2	health	foodImageDisplay	3	180	60	foodImage.25	FOODEEG_Images\0261.jpg	NY	Left	No	0.666363000000274	0	613245	252
1199.8046875	0.666363000000274	health	choicePhaseStart	3	180	60	foodImage.25	FOODEEG_Images\0261.jpg	NY	Left	No	0.666363000000274	0	614301	253
1200.46484375	0	health	response	3	180	60	foodImage.25	FOODEEG_Images\0261.jpg	NY	Left	No	0.666363000000274	0	614639	234
1202.50390625	11.787109375	n/a	blockEnd	n/a	n/a	n/a	n/a	n/a	n/a	n/a	n/a	n/a	n/a	615683	254
1214.291015625	2	n/a	blockStart	4	n/a	n/a	n/a	n/a	n/a	n/a	n/a	n/a	n/a	621718	250
1216.328125	1	health	trialStart	4	181	1	foodImage.59	FOODEEG_Images\0607.jpg	YN	Right	No	0.986677299999428	0	622761	251
1217.375	2	health	foodImageDisplay	4	181	1	foodImage.59	FOODEEG_Images\0607.jpg	YN	Right	No	0.986677299999428	0	623297	252
1219.4375	0.986677299999428	health	choicePhaseStart	4	181	1	foodImage.59	FOODEEG_Images\0607.jpg	YN	Right	No	0.986677299999428	0	624353	253
1220.416015625	0	health	response	4	181	1	foodImage.59	FOODEEG_Images\0607.jpg	YN	Right	No	0.986677299999428	0	624854	235
1221.45703125	1	health	trialStart	4	182	2	foodImage.101	FOODEEG_Images\0909.jpg	NY	Left	No	0.768875599999774	0	625387	251
1222.494140625	2	health	foodImageDisplay	4	182	2	foodImage.101	FOODEEG_Images\0909.jpg	NY	Left	No	0.768875599999774	0	625918	252
1224.55859375	0.768875599999774	health	choicePhaseStart	4	182	2	foodImage.101	FOODEEG_Images\0909.jpg	NY	Left	No	0.768875599999774	0	626975	253
1225.3203125	0	health	response	4	182	2	foodImage.101	FOODEEG_Images\0909.jpg	NY	Left	No	0.768875599999774	0	627365	234
1226.361328125	1	health	trialStart	4	183	3	foodImage.66	FOODEEG_Images\0676.jpg	YN	Left	Yes	0.728505000000041	0	627898	251
1227.40234375	2	health	foodImageDisplay	4	183	3	foodImage.66	FOODEEG_Images\0676.jpg	YN	Left	Yes	0.728505000000041	0	628431	252
1229.46484375	0.728505000000041	health	choicePhaseStart	4	183	3	foodImage.66	FOODEEG_Images\0676.jpg	YN	Left	Yes	0.728505000000041	0	629487	253
1230.18359375	0	health	response	4	183	3	foodImage.66	FOODEEG_Images\0676.jpg	YN	Left	Yes	0.728505000000041	0	629855	234
1231.2265625	1	health	trialStart	4	184	4	foodImage.76	FOODEEG_Images\0766.jpg	YN	Left	Yes	0.617026299999452	0	630389	251
1232.26953125	2	health	foodImageDisplay	4	184	4	foodImage.76	FOODEEG_Images\0766.jpg	YN	Left	Yes	0.617026299999452	0	630923	252
1234.3359375	0.617026299999452	health	choicePhaseStart	4	184	4	foodImage.76	FOODEEG_Images\0766.jpg	YN	Left	Yes	0.617026299999452	0	631981	253
1234.943359375	0	health	response	4	184	4	foodImage.76	FOODEEG_Images\0766.jpg	YN	Left	Yes	0.617026299999452	0	632292	234
1235.984375	1	taste	trialStart	4	185	5	foodImage.89	FOODEEG_Images\0881.jpg	NY	Right	Yes	0.72891350000009	0	632825	251
1237.041015625	2	taste	foodImageDisplay	4	185	5	foodImage.89	FOODEEG_Images\0881.jpg	NY	Right	Yes	0.72891350000009	0	633366	252
1239.103515625	0.72891350000009	taste	choicePhaseStart	4	185	5	foodImage.89	FOODEEG_Images\0881.jpg	NY	Right	Yes	0.72891350000009	0	634422	253
1239.822265625	0	taste	response	4	185	5	foodImage.89	FOODEEG_Images\0881.jpg	NY	Right	Yes	0.72891350000009	0	634790	235
1240.865234375	1	health	trialStart	4	186	6	foodImage.43	FOODEEG_Images\0445.jpg	YN	Left	Yes	0.640047199999572	0	635324	251
1241.921875	2	health	foodImageDisplay	4	186	6	foodImage.43	FOODEEG_Images\0445.jpg	YN	Left	Yes	0.640047199999572	0	635865	252
1243.984375	0.640047199999572	health	choicePhaseStart	4	186	6	foodImage.43	FOODEEG_Images\0445.jpg	YN	Left	Yes	0.640047199999572	0	636921	253
1244.615234375	0	health	response	4	186	6	foodImage.43	FOODEEG_Images\0445.jpg	YN	Left	Yes	0.640047199999572	0	637244	234
1245.662109375	1	taste	trialStart	4	187	7	foodImage.61	FOODEEG_Images\0640.jpg	YN	Left	Yes	0.609098799999629	0	637780	251
1246.703125	2	taste	foodImageDisplay	4	187	7	foodImage.61	FOODEEG_Images\0640.jpg	YN	Left	Yes	0.609098799999629	0	638313	252
1248.767578125	0.609098799999629	taste	choicePhaseStart	4	187	7	foodImage.61	FOODEEG_Images\0640.jpg	YN	Left	Yes	0.609098799999629	0	639370	253
1249.3671875	0	taste	response	4	187	7	foodImage.61	FOODEEG_Images\0640.jpg	YN	Left	Yes	0.609098799999629	0	639677	234
1250.408203125	1	taste	trialStart	4	188	8	foodImage.74	FOODEEG_Images\0752.jpg	YN	Left	Yes	0.597817200000463	0	640210	251
1251.451171875	2	taste	foodImageDisplay	4	188	8	foodImage.74	FOODEEG_Images\0752.jpg	YN	Left	Yes	0.597817200000463	0	640744	252
1253.513671875	0.597817200000463	taste	choicePhaseStart	4	188	8	foodImage.74	FOODEEG_Images\0752.jpg	YN	Left	Yes	0.597817200000463	0	641800	253
1254.103515625	0	taste	response	4	188	8	foodImage.74	FOODEEG_Images\0752.jpg	YN	Left	Yes	0.597817200000463	0	642102	234
1255.142578125	1	health	trialStart	4	189	9	foodImage.12	FOODEEG_Images\0181.jpg	NY	Left	No	0.543772199999694	0	642634	251
1256.185546875	2	health	foodImageDisplay	4	189	9	foodImage.12	FOODEEG_Images\0181.jpg	NY	Left	No	0.543772199999694	0	643168	252
1258.248046875	0.543772199999694	health	choicePhaseStart	4	189	9	foodImage.12	FOODEEG_Images\0181.jpg	NY	Left	No	0.543772199999694	0	644224	253
1258.783203125	0	health	response	4	189	9	foodImage.12	FOODEEG_Images\0181.jpg	NY	Left	No	0.543772199999694	0	644498	234
1259.82421875	1	health	trialStart	4	190	10	foodImage.99	FOODEEG_Images\0907.jpg	NY	Left	No	0.891344599999684	0	645031	251
1260.861328125	2	health	foodImageDisplay	4	190	10	foodImage.99	FOODEEG_Images\0907.jpg	NY	Left	No	0.891344599999684	0	645562	252
1262.923828125	0.891344599999684	health	choicePhaseStart	4	190	10	foodImage.99	FOODEEG_Images\0907.jpg	NY	Left	No	0.891344599999684	0	646618	253
1263.806640625	0	health	response	4	190	10	foodImage.99	FOODEEG_Images\0907.jpg	NY	Left	No	0.891344599999684	0	647070	234
1264.84765625	1	health	trialStart	4	191	11	foodImage.50	FOODEEG_Images\0529.jpg	YN	Left	Yes	1.25953949999985	0	647603	251
1265.908203125	2	health	foodImageDisplay	4	191	11	foodImage.50	FOODEEG_Images\0529.jpg	YN	Left	Yes	1.25953949999985	0	648146	252
1267.970703125	1.25953949999985	health	choicePhaseStart	4	191	11	foodImage.50	FOODEEG_Images\0529.jpg	YN	Left	Yes	1.25953949999985	0	649202	253
1269.220703125	0	health	response	4	191	11	foodImage.50	FOODEEG_Images\0529.jpg	YN	Left	Yes	1.25953949999985	0	649842	234
1270.263671875	1	health	trialStart	4	192	12	foodImage.97	FOODEEG_Images\0905.jpg	YN	Right	No	0.726020699999935	0	650376	251
1271.306640625	2	health	foodImageDisplay	4	192	12	foodImage.97	FOODEEG_Images\0905.jpg	YN	Right	No	0.726020699999935	0	650910	252
1273.369140625	0.726020699999935	health	choicePhaseStart	4	192	12	foodImage.97	FOODEEG_Images\0905.jpg	YN	Right	No	0.726020699999935	0	651966	253
1274.0859375	0	health	response	4	192	12	foodImage.97	FOODEEG_Images\0905.jpg	YN	Right	No	0.726020699999935	0	652333	235
1275.126953125	1	health	trialStart	4	193	13	foodImage.17	FOODEEG_Images\0199.jpg	YN	Left	Yes	0.802823999999418	0	652866	251
1276.169921875	2	health	foodImageDisplay	4	193	13	foodImage.17	FOODEEG_Images\0199.jpg	YN	Left	Yes	0.802823999999418	0	653400	252
1278.234375	0.802823999999418	health	choicePhaseStart	4	193	13	foodImage.17	FOODEEG_Images\0199.jpg	YN	Left	Yes	0.802823999999418	0	654457	253
1279.029296875	0	health	response	4	193	13	foodImage.17	FOODEEG_Images\0199.jpg	YN	Left	Yes	0.802823999999418	0	654864	234
1280.0703125	1	health	trialStart	4	194	14	foodImage.57	FOODEEG_Images\0587.jpg	NY	Right	Yes	0.646678600000087	0	655397	251
1281.111328125	2	health	foodImageDisplay	4	194	14	foodImage.57	FOODEEG_Images\0587.jpg	NY	Right	Yes	0.646678600000087	0	655930	252
