onset	duration	trial_type	event_type	block	trial_total	trial_in_block	food_image_code	food_image_path	button_position	resp_position	resp_choice	choice_rt	resp_too_slow	sample	trigger
284.1796875	2	n/a	blockStart	1	n/a	n/a	n/a	n/a	n/a	n/a	n/a	n/a	n/a	145501	250
286.21484375	1	health	trialStart	1	1	1	foodImage.19	FOODEEG_Images\0225.jpg	YN	Left	Yes	2.01103950012475	0	146543	251
287.263671875	2	health	foodImageDisplay	1	1	1	foodImage.19	FOODEEG_Images\0225.jpg	YN	Left	Yes	2.01103950012475	0	147080	252
289.328125	2.01103950012475	health	choicePhaseStart	1	1	1	foodImage.19	FOODEEG_Images\0225.jpg	YN	Left	Yes	2.01103950012475	0	148137	253
291.330078125	0	health	response	1	1	1	foodImage.19	FOODEEG_Images\0225.jpg	YN	Left	Yes	2.01103950012475	0	149162	234
292.453125	1	decision	trialStart	1	2	2	foodImage.77	FOODEEG_Images\0771.jpg	YN	Left	Yes	0.7868952001445	0	149737	251
293.498046875	2	decision	foodImageDisplay	1	2	2	foodImage.77	FOODEEG_Images\0771.jpg	YN	Left	Yes	0.7868952001445	0	150272	252
295.5625	0.7868952001445	decision	choicePhaseStart	1	2	2	foodImage.77	FOODEEG_Images\0771.jpg	YN	Left	Yes	0.7868952001445	0	151329	253
296.33984375	0	decision	response	1	2	2	foodImage.77	FOODEEG_Images\0771.jpg	YN	Left	Yes	0.7868952001445	0	151727	234
297.392578125	1	taste	trialStart	1	3	3	foodImage.97	FOODEEG_Images\0905.jpg	YN	Right	No	1.01083720009774	0	152266	251
298.43359375	2	taste	foodImageDisplay	1	3	3	foodImage.97	FOODEEG_Images\0905.jpg	YN	Right	No	1.01083720009774	0	152799	252
300.49609375	1.01083720009774	taste	choicePhaseStart	1	3	3	foodImage.97	FOODEEG_Images\0905.jpg	YN	Right	No	1.01083720009774	0	153855	253
301.5	0	taste	response	1	3	3	foodImage.97	FOODEEG_Images\0905.jpg	YN	Right	No	1.01083720009774	0	154369	235
302.544921875	1	health	trialStart	1	4	4	foodImage.106	FOODEEG_Images\0914.jpg	NY	Right	Yes	0.941345500294119	0	154904	251
303.583984375	2	health	foodImageDisplay	1	4	4	foodImage.106	FOODEEG_Images\0914.jpg	NY	Right	Yes	0.941345500294119	0	155436	252
305.646484375	0.941345500294119	health	choicePhaseStart	1	4	4	foodImage.106	FOODEEG_Images\0914.jpg	NY	Right	Yes	0.941345500294119	0	156492	253
306.578125	0	health	response	1	4	4	foodImage.106	FOODEEG_Images\0914.jpg	NY	Right	Yes	0.941345500294119	0	156969	235
307.62109375	1	health	trialStart	1	5	5	foodImage.40	FOODEEG_Images\0373.jpg	YN	Right	No	2.38480110000819	0	157503	251
308.6640625	2	health	foodImageDisplay	1	5	5	foodImage.40	FOODEEG_Images\0373.jpg	YN	Right	No	2.38480110000819	0	158037	252
310.73046875	2.38480110000819	health	choicePhaseStart	1	5	5	foodImage.40	FOODEEG_Images\0373.jpg	YN	Right	No	2.38480110000819	0	159095	253
313.10546875	0	health	response	1	5	5	foodImage.40	FOODEEG_Images\0373.jpg	YN	Right	No	2.38480110000819	0	160311	235
314.16015625	1	taste	trialStart	1	6	6	foodImage.12	FOODEEG_Images\0181.jpg	YN	Left	Yes	1.06935200002044	0	160851	251
315.205078125	2	taste	foodImageDisplay	1	6	6	foodImage.12	FOODEEG_Images\0181.jpg	YN	Left	Yes	1.06935200002044	0	161386	252
317.267578125	1.06935200002044	taste	choicePhaseStart	1	6	6	foodImage.12	FOODEEG_Images\0181.jpg	YN	Left	Yes	1.06935200002044	0	162442	253
318.330078125	0	taste	response	1	6	6	foodImage.12	FOODEEG_Images\0181.jpg	YN	Left	Yes	1.06935200002044	0	162986	234
319.373046875	1	decision	trialStart	1	7	7	foodImage.56	FOODEEG_Images\0586.jpg	YN	Left	Yes	0.96259030001238	0	163520	251
320.416015625	2	decision	foodImageDisplay	1	7	7	foodImage.56	FOODEEG_Images\0586.jpg	YN	Left	Yes	0.96259030001238	0	164054	252
322.478515625	0.96259030001238	decision	choicePhaseStart	1	7	7	foodImage.56	FOODEEG_Images\0586.jpg	YN	Left	Yes	0.96259030001238	0	165110	253
323.43359375	0	decision	response	1	7	7	foodImage.56	FOODEEG_Images\0586.jpg	YN	Left	Yes	0.96259030001238	0	165599	234
324.48046875	1	decision	trialStart	1	8	8	foodImage.96	FOODEEG_Images\0904.jpg	NY	Left	No	0.898308999836445	0	166135	251
325.517578125	2	decision	foodImageDisplay	1	8	8	foodImage.96	FOODEEG_Images\0904.jpg	NY	Left	No	0.898308999836445	0	166666	252
327.58203125	0.898308999836445	decision	choicePhaseStart	1	8	8	foodImage.96	FOODEEG_Images\0904.jpg	NY	Left	No	0.898308999836445	0	167723	253
328.474609375	0	decision	response	1	8	8	foodImage.96	FOODEEG_Images\0904.jpg	NY	Left	No	0.898308999836445	0	168180	234
329.515625	1	decision	trialStart	1	9	9	foodImage.107	FOODEEG_Images\0915.jpg	YN	Right	No	0.817918200045824	0	168713	251
330.5546875	2	decision	foodImageDisplay	1	9	9	foodImage.107	FOODEEG_Images\0915.jpg	YN	Right	No	0.817918200045824	0	169245	252
332.6171875	0.817918200045824	decision	choicePhaseStart	1	9	9	foodImage.107	FOODEEG_Images\0915.jpg	YN	Right	No	0.817918200045824	0	170301	253
333.42578125	0	decision	response	1	9	9	foodImage.107	FOODEEG_Images\0915.jpg	YN	Right	No	0.817918200045824	0	170715	235
334.466796875	1	taste	trialStart	1	10	10	foodImage.79	FOODEEG_Images\0794.jpg	YN	Right	No	0.866239599883556	0	171248	251
335.51171875	2	taste	foodImageDisplay	1	10	10	foodImage.79	FOODEEG_Images\0794.jpg	YN	Right	No	0.866239599883556	0	171783	252
337.57421875	0.866239599883556	taste	choicePhaseStart	1	10	10	foodImage.79	FOODEEG_Images\0794.jpg	YN	Right	No	0.866239599883556	0	172839	253
338.43359375	0	taste	response	1	10	10	foodImage.79	FOODEEG_Images\0794.jpg	YN	Right	No	0.866239599883556	0	173279	235
339.478515625	1	decision	trialStart	1	11	11	foodImage.18	FOODEEG_Images\0202.jpg	NY	Right	Yes	0.773242599796504	0	173814	251
340.537109375	2	decision	foodImageDisplay	1	11	11	foodImage.18	FOODEEG_Images\0202.jpg	NY	Right	Yes	0.773242599796504	0	174356	252
342.6015625	0.773242599796504	decision	choicePhaseStart	1	11	11	foodImage.18	FOODEEG_Images\0202.jpg	NY	Right	Yes	0.773242599796504	0	175413	253
343.369140625	0	decision	response	1	11	11	foodImage.18	FOODEEG_Images\0202.jpg	NY	Right	Yes	0.773242599796504	0	175806	235
344.412109375	1	health	trialStart	1	12	12	foodImage.1	FOODEEG_Images\0004.jpg	NY	Left	No	1.62785199983045	0	176340	251
345.453125	2	health	foodImageDisplay	1	12	12	foodImage.1	FOODEEG_Images\0004.jpg	NY	Left	No	1.62785199983045	0	176873	252
347.515625	1.62785199983045	health	choicePhaseStart	1	12	12	foodImage.1	FOODEEG_Images\0004.jpg	NY	Left	No	1.62785199983045	0	177929	253
349.13671875	0	health	response	1	12	12	foodImage.1	FOODEEG_Images\0004.jpg	NY	Left	No	1.62785199983045	0	178759	234
350.1796875	1	health	trialStart	1	13	13	foodImage.2	FOODEEG_Images\0028.jpg	YN	Right	No	1.36878790007904	0	179293	251
351.232421875	2	health	foodImageDisplay	1	13	13	foodImage.2	FOODEEG_Images\0028.jpg	YN	Right	No	1.36878790007904	0	179832	252
353.294921875	1.36878790007904	health	choicePhaseStart	1	13	13	foodImage.2	FOODEEG_Images\0028.jpg	YN	Right	No	1.36878790007904	0	180888	253
354.65625	0	health	response	1	13	13	foodImage.2	FOODEEG_Images\0028.jpg	YN	Right	No	1.36878790007904	0	181585	235
355.697265625	1	health	trialStart	1	14	14	foodImage.33	FOODEEG_Images\0329.jpg	YN	Left	Yes	0.861942899879068	0	182118	251
356.740234375	2	health	foodImageDisplay	1	14	14	foodImage.33	FOODEEG_Images\0329.jpg	YN	Left	Yes	0.861942899879068	0	182652	252
358.802734375	0.861942899879068	health	choicePhaseStart	1	14	14	foodImage.33	FOODEEG_Images\0329.jpg	YN	Left	Yes	0.861942899879068	0	183708	253
359.65625	0	health	response	1	14	14	foodImage.33	FOODEEG_Images\0329.jpg	YN	Left	Yes	0.861942899879068	0	184145	234
360.69921875	1	decision	trialStart	1	15	15	foodImage.46	FOODEEG_Images\0479.jpg	NY	Left	No	0.684991400223225	0	184679	251
361.755859375	2	decision	foodImageDisplay	1	15	15	foodImage.46	FOODEEG_Images\0479.jpg	NY	Left	No	0.684991400223225	0	185220	252
363.818359375	0.684991400223225	decision	choicePhaseStart	1	15	15	foodImage.46	FOODEEG_Images\0479.jpg	NY	Left	No	0.684991400223225	0	186276	253
364.49609375	0	decision	response	1	15	15	foodImage.46	FOODEEG_Images\0479.jpg	NY	Left	No	0.684991400223225	0	186623	234
365.537109375	1	decision	trialStart	1	16	16	foodImage.106	FOODEEG_Images\0914.jpg	NY	Left	No	0.754832100123167	0	187156	251
366.576171875	2	decision	foodImageDisplay	1	16	16	foodImage.106	FOODEEG_Images\0914.jpg	NY	Left	No	0.754832100123167	0	187688	252
368.63671875	0.754832100123167	decision	choicePhaseStart	1	16	16	foodImage.106	FOODEEG_Images\0914.jpg	NY	Left	No	0.754832100123167	0	188743	253
369.3828125	0	decision	response	1	16	16	foodImage.106	FOODEEG_Images\0914.jpg	NY	Left	No	0.754832100123167	0	189125	234
370.4296875	1	taste	trialStart	1	17	17	foodImage.13	FOODEEG_Images\0183.jpg	NY	Right	Yes	0.722165099810809	0	189661	251
371.47265625	2	taste	foodImageDisplay	1	17	17	foodImage.13	FOODEEG_Images\0183.jpg	NY	Right	Yes	0.722165099810809	0	190195	252
373.53515625	0.722165099810809	taste	choicePhaseStart	1	17	17	foodImage.13	FOODEEG_Images\0183.jpg	NY	Right	Yes	0.722165099810809	0	191251	253
374.248046875	0	taste	response	1	17	17	foodImage.13	FOODEEG_Images\0183.jpg	NY	Right	Yes	0.722165099810809	0	191616	235
375.291015625	1	health	trialStart	1	18	18	foodImage.57	FOODEEG_Images\0587.jpg	NY	Right	Yes	0.818960800301284	0	192150	251
376.333984375	2	health	foodImageDisplay	1	18	18	foodImage.57	FOODEEG_Images\0587.jpg	NY	Right	Yes	0.818960800301284	0	192684	252
378.396484375	0.818960800301284	health	choicePhaseStart	1	18	18	foodImage.57	FOODEEG_Images\0587.jpg	NY	Right	Yes	0.818960800301284	0	193740	253
379.20703125	0	health	response	1	18	18	foodImage.57	FOODEEG_Images\0587.jpg	NY	Right	Yes	0.818960800301284	0	194155	235
380.248046875	1	decision	trialStart	1	19	19	foodImage.16	FOODEEG_Images\0196.jpg	YN	Left	Yes	1.18331209989265	0	194688	251
381.3046875	2	decision	foodImageDisplay	1	19	19	foodImage.16	FOODEEG_Images\0196.jpg	YN	Left	Yes	1.18331209989265	0	195229	252
383.369140625	1.18331209989265	decision	choicePhaseStart	1	19	19	foodImage.16	FOODEEG_Images\0196.jpg	YN	Left	Yes	1.18331209989265	0	196286	253
384.54296875	0	decision	response	1	19	19	foodImage.16	FOODEEG_Images\0196.jpg	YN	Left	Yes	1.18331209989265	0	196887	234
385.5859375	1	decision	trialStart	1	20	20	foodImage.89	FOODEEG_Images\0881.jpg	YN	Left	Yes	0.711799299810082	0	197421	251
386.6640625	2	decision	foodImageDisplay	1	20	20	foodImage.89	FOODEEG_Images\0881.jpg	YN	Left	Yes	0.711799299810082	0	197973	252
388.728515625	0.711799299810082	decision	choicePhaseStart	1	20	20	foodImage.89	FOODEEG_Images\0881.jpg	YN	Left	Yes	0.711799299810082	0	199030	253
389.431640625	0	decision	response	1	20	20	foodImage.89	FOODEEG_Images\0881.jpg	YN	Left	Yes	0.711799299810082	0	199390	234
390.47265625	1	taste	trialStart	1	21	21	foodImage.106	FOODEEG_Images\0914.jpg	NY	Left	No	1.22572749992833	0	199923	251
391.525390625	2	taste	foodImageDisplay	1	21	21	foodImage.106	FOODEEG_Images\0914.jpg	NY	Left	No	1.22572749992833	0	200462	252
393.587890625	1.22572749992833	taste	choicePhaseStart	1	21	21	foodImage.106	FOODEEG_Images\0914.jpg	NY	Left	No	1.22572749992833	0	201518	253
394.806640625	0	taste	response	1	21	21	foodImage.106	FOODEEG_Images\0914.jpg	NY	Left	No	1.22572749992833	0	202142	234
395.849609375	1	decision	trialStart	1	22	22	foodImage.101	FOODEEG_Images\0909.jpg	YN	Right	No	0.625070400070399	0	202676	251
396.888671875	2	decision	foodImageDisplay	1	22	22	foodImage.101	FOODEEG_Images\0909.jpg	YN	Right	No	0.625070400070399	0	203208	252
398.951171875	0.625070400070399	decision	choicePhaseStart	1	22	22	foodImage.101	FOODEEG_Images\0909.jpg	YN	Right	No	0.625070400070399	0	204264	253
399.56640625	0	decision	response	1	22	22	foodImage.101	FOODEEG_Images\0909.jpg	YN	Right	No	0.625070400070399	0	204579	235
400.611328125	1	health	trialStart	1	23	23	foodImage.69	FOODEEG_Images\0693.jpg	YN	Left	Yes	0.794099899940193	0	205114	251
401.654296875	2	health	foodImageDisplay	1	23	23	foodImage.69	FOODEEG_Images\0693.jpg	YN	Left	Yes	0.794099899940193	0	205648	252
403.716796875	0.794099899940193	health	choicePhaseStart	1	23	23	foodImage.69	FOODEEG_Images\0693.jpg	YN	Left	Yes	0.794099899940193	0	206704	253
404.501953125	0	health	response	1	23	23	foodImage.69	FOODEEG_Images\0693.jpg	YN	Left	Yes	0.794099899940193	0	207106	234
405.544921875	1	decision	trialStart	1	24	24	foodImage.3	FOODEEG_Images\0046.jpg	NY	Right	Yes	0.900407200213522	0	207640	251
406.587890625	2	decision	foodImageDisplay	1	24	24	foodImage.3	FOODEEG_Images\0046.jpg	NY	Right	Yes	0.900407200213522	0	208174	252
408.650390625	0.900407200213522	decision	choicePhaseStart	1	24	24	foodImage.3	FOODEEG_Images\0046.jpg	NY	Right	Yes	0.900407200213522	0	209230	253
409.54296875	0	decision	response	1	24	24	foodImage.3	FOODEEG_Images\0046.jpg	NY	Right	Yes	0.900407200213522	0	209687	235
410.583984375	1	decision	trialStart	1	25	25	foodImage.73	FOODEEG_Images\0717.jpg	YN	Right	No	0.909248400013894	0	210220	251
411.642578125	2	decision	foodImageDisplay	1	25	25	foodImage.73	FOODEEG_Images\0717.jpg	YN	Right	No	0.909248400013894	0	210762	252
413.705078125	0.909248400013894	decision	choicePhaseStart	1	25	25	foodImage.73	FOODEEG_Images\0717.jpg	YN	Right	No	0.909248400013894	0	211818	253
414.60546875	0	decision	response	1	25	25	foodImage.73	FOODEEG_Images\0717.jpg	YN	Right	No	0.909248400013894	0	212279	235
415.6484375	1	decision	trialStart	1	26	26	foodImage.104	FOODEEG_Images\0912.jpg	YN	Right	No	0.794201200362295	0	212813	251
416.701171875	2	decision	foodImageDisplay	1	26	26	foodImage.104	FOODEEG_Images\0912.jpg	YN	Right	No	0.794201200362295	0	213352	252
418.763671875	0.794201200362295	decision	choicePhaseStart	1	26	26	foodImage.104	FOODEEG_Images\0912.jpg	YN	Right	No	0.794201200362295	0	214408	253
419.55078125	0	decision	response	1	26	26	foodImage.104	FOODEEG_Images\0912.jpg	YN	Right	No	0.794201200362295	0	214811	235
420.591796875	1	health	trialStart	1	27	27	foodImage.9	FOODEEG_Images\0138.jpg	YN	Right	No	1.11793830012903	0	215344	251
421.65234375	2	health	foodImageDisplay	1	27	27	foodImage.9	FOODEEG_Images\0138.jpg	YN	Right	No	1.11793830012903	0	215887	252
423.712890625	1.11793830012903	health	choicePhaseStart	1	27	27	foodImage.9	FOODEEG_Images\0138.jpg	YN	Right	No	1.11793830012903	0	216942	253
424.822265625	0	health	response	1	27	27	foodImage.9	FOODEEG_Images\0138.jpg	YN	Right	No	1.11793830012903	0	217510	235
425.865234375	1	taste	trialStart	1	28	28	foodImage.78	FOODEEG_Images\0787.jpg	NY	Right	Yes	1.03396830009297	0	218044	251
426.908203125	2	taste	foodImageDisplay	1	28	28	foodImage.78	FOODEEG_Images\0787.jpg	NY	Right	Yes	1.03396830009297	0	218578	252
428.970703125	1.03396830009297	taste	choicePhaseStart	1	28	28	foodImage.78	FOODEEG_Images\0787.jpg	NY	Right	Yes	1.03396830009297	0	219634	253
429.998046875	0	taste	response	1	28	28	foodImage.78	FOODEEG_Images\0787.jpg	NY	Right	Yes	1.03396830009297	0	220160	235
431.041015625	1	decision	trialStart	1	29	29	foodImage.36	FOODEEG_Images\0352.jpg	NY	Right	Yes	0.607150500174612	0	220694	251
432.095703125	2	decision	foodImageDisplay	1	29	29	foodImage.36	FOODEEG_Images\0352.jpg	NY	Right	Yes	0.607150500174612	0	221234	252
434.158203125	0.607150500174612	decision	choicePhaseStart	1	29	29	foodImage.36	FOODEEG_Images\0352.jpg	NY	Right	Yes	0.607150500174612	0	222290	253
434.7578125	0	decision	response	1	29	29	foodImage.36	FOODEEG_Images\0352.jpg	NY	Right	Yes	0.607150500174612	0	222597	235
435.798828125	1	health	trialStart	1	30	30	foodImage.79	FOODEEG_Images\0794.jpg	NY	Right	Yes	0.815746599808335	0	223130	251
436.83984375	2	health	foodImageDisplay	1	30	30	foodImage.79	FOODEEG_Images\0794.jpg	NY	Right	Yes	0.815746599808335	0	223663	252
438.90234375	0.815746599808335	health	choicePhaseStart	1	30	30	foodImage.79	FOODEEG_Images\0794.jpg	NY	Right	Yes	0.815746599808335	0	224719	253
439.708984375	0	health	response	1	30	30	foodImage.79	FOODEEG_Images\0794.jpg	NY	Right	Yes	0.815746599808335	0	225132	235
440.751953125	1	health	trialStart	1	31	31	foodImage.97	FOODEEG_Images\0905.jpg	YN	Right	No	1.1280139000155	0	225666	251
441.791015625	2	health	foodImageDisplay	1	31	31	foodImage.97	FOODEEG_Images\0905.jpg	YN	Right	No	1.1280139000155	0	226198	252
443.853515625	1.1280139000155	health	choicePhaseStart	1	31	31	foodImage.97	FOODEEG_Images\0905.jpg	YN	Right	No	1.1280139000155	0	227254	253
444.97265625	0	health	response	1	31	31	foodImage.97	FOODEEG_Images\0905.jpg	YN	Right	No	1.1280139000155	0	227827	235
446.015625	1	decision	trialStart	1	32	32	foodImage.19	FOODEEG_Images\0225.jpg	YN	Right	No	0.904715300071985	0	228361	251
447.064453125	2	decision	foodImageDisplay	1	32	32	foodImage.19	FOODEEG_Images\0225.jpg	YN	Right	No	0.904715300071985	0	228898	252
449.125	0.904715300071985	decision	choicePhaseStart	1	32	32	foodImage.19	FOODEEG_Images\0225.jpg	YN	Right	No	0.904715300071985	0	229953	253
450.021484375	0	decision	response	1	32	32	foodImage.19	FOODEEG_Images\0225.jpg	YN	Right	No	0.904715300071985	0	230412	235
451.064453125	1	decision	trialStart	1	33	33	foodImage.20	FOODEEG_Images\0226.jpg	NY	Right	Yes	0.734062000177801	0	230946	251
452.10546875	2	decision	foodImageDisplay	1	33	33	foodImage.20	FOODEEG_Images\0226.jpg	NY	Right	Yes	0.734062000177801	0	231479	252
454.16796875	0.734062000177801	decision	choicePhaseStart	1	33	33	foodImage.20	FOODEEG_Images\0226.jpg	NY	Right	Yes	0.734062000177801	0	232535	253
454.892578125	0	decision	response	1	33	33	foodImage.20	FOODEEG_Images\0226.jpg	NY	Right	Yes	0.734062000177801	0	232906	235
455.93359375	1	decision	trialStart	1	34	34	foodImage.11	FOODEEG_Images\0180.jpg	NY	Right	Yes	0.766402200330049	0	233439	251
456.9765625	2	decision	foodImageDisplay	1	34	34	foodImage.11	FOODEEG_Images\0180.jpg	NY	Right	Yes	0.766402200330049	0	233973	252
459.0390625	0.766402200330049	decision	choicePhaseStart	1	34	34	foodImage.11	FOODEEG_Images\0180.jpg	NY	Right	Yes	0.766402200330049	0	235029	253
459.796875	0	decision	response	1	34	34	foodImage.11	FOODEEG_Images\0180.jpg	NY	Right	Yes	0.766402200330049	0	235417	235
460.83984375	1	health	trialStart	1	35	35	foodImage.104	FOODEEG_Images\0912.jpg	NY	Left	No	1.20078950002789	0	235951	251
461.87890625	2	health	foodImageDisplay	1	35	35	foodImage.104	FOODEEG_Images\0912.jpg	NY	Left	No	1.20078950002789	0	236483	252
463.939453125	1.20078950002789	health	choicePhaseStart	1	35	35	foodImage.104	FOODEEG_Images\0912.jpg	NY	Left	No	1.20078950002789	0	237538	253
465.1328125	0	health	response	1	35	35	foodImage.104	FOODEEG_Images\0912.jpg	NY	Left	No	1.20078950002789	0	238149	234
466.173828125	1	health	trialStart	1	36	36	foodImage.62	FOODEEG_Images\0644.jpg	NY	Right	Yes	0.542512100189924	0	238682	251
467.23046875	2	health	foodImageDisplay	1	36	36	foodImage.62	FOODEEG_Images\0644.jpg	NY	Right	Yes	0.542512100189924	0	239223	252
469.29296875	0.542512100189924	health	choicePhaseStart	1	36	36	foodImage.62	FOODEEG_Images\0644.jpg	NY	Right	Yes	0.542512100189924	0	240279	253
469.828125	0	health	response	1	36	36	foodImage.62	FOODEEG_Images\0644.jpg	NY	Right	Yes	0.542512100189924	0	240553	235
470.87109375	1	decision	trialStart	1	37	37	foodImage.78	FOODEEG_Images\0787.jpg	NY	Right	Yes	1.02888700040057	0	241087	251
471.9140625	2	decision	foodImageDisplay	1	37	37	foodImage.78	FOODEEG_Images\0787.jpg	NY	Right	Yes	1.02888700040057	0	241621	252
473.9765625	1.02888700040057	decision	choicePhaseStart	1	37	37	foodImage.78	FOODEEG_Images\0787.jpg	NY	Right	Yes	1.02888700040057	0	242677	253
474.99609375	0	decision	response	1	37	37	foodImage.78	FOODEEG_Images\0787.jpg	NY	Right	Yes	1.02888700040057	0	243199	235
476.0390625	1	health	trialStart	1	38	38	foodImage.8	FOODEEG_Images\0136.jpg	YN	Right	No	0.948216099757701	0	243733	251
477.08203125	2	health	foodImageDisplay	1	38	38	foodImage.8	FOODEEG_Images\0136.jpg	YN	Right	No	0.948216099757701	0	244267	252
479.14453125	0.948216099757701	health	choicePhaseStart	1	38	38	foodImage.8	FOODEEG_Images\0136.jpg	YN	Right	No	0.948216099757701	0	245323	253
480.083984375	0	health	response	1	38	38	foodImage.8	FOODEEG_Images\0136.jpg	YN	Right	No	0.948216099757701	0	245804	235
481.126953125	1	health	trialStart	1	39	39	foodImage.34	FOODEEG_Images\0339.jpg	NY	Left	No	0.637355200015008	0	246338	251
482.185546875	2	health	foodImageDisplay	1	39	39	foodImage.34	FOODEEG_Images\0339.jpg	NY	Left	No	0.637355200015008	0	246880	252
484.24609375	0.637355200015008	health	choicePhaseStart	1	39	39	foodImage.34	FOODEEG_Images\0339.jpg	NY	Left	No	0.637355200015008	0	247935	253
484.875	0	health	response	1	39	39	foodImage.34	FOODEEG_Images\0339.jpg	NY	Left	No	0.637355200015008	0	248257	234
485.919921875	1	health	trialStart	1	40	40	foodImage.71	FOODEEG_Images\0713.jpg	NY	Left	No	0.659908500034362	0	248792	251
486.9609375	2	health	foodImageDisplay	1	40	40	foodImage.71	FOODEEG_Images\0713.jpg	NY	Left	No	0.659908500034362	0	249325	252
489.0234375	0.659908500034362	health	choicePhaseStart	1	40	40	foodImage.71	FOODEEG_Images\0713.jpg	NY	Left	No	0.659908500034362	0	250381	253
489.67578125	0	health	response	1	40	40	foodImage.71	FOODEEG_Images\0713.jpg	NY	Left	No	0.659908500034362	0	250715	234
490.716796875	1	decision	trialStart	1	41	41	foodImage.28	FOODEEG_Images\0273.jpg	YN	Left	Yes	0.911162900272757	0	251248	251
491.7578125	2	decision	foodImageDisplay	1	41	41	foodImage.28	FOODEEG_Images\0273.jpg	YN	Left	Yes	0.911162900272757	0	251781	252
493.8203125	0.911162900272757	decision	choicePhaseStart	1	41	41	foodImage.28	FOODEEG_Images\0273.jpg	YN	Left	Yes	0.911162900272757	0	252837	253
494.72265625	0	decision	response	1	41	41	foodImage.28	FOODEEG_Images\0273.jpg	YN	Left	Yes	0.911162900272757	0	253299	234
495.763671875	1	health	trialStart	1	42	42	foodImage.84	FOODEEG_Images\0830.jpg	YN	Left	Yes	0.712571899872273	0	253832	251
496.826171875	2	health	foodImageDisplay	1	42	42	foodImage.84	FOODEEG_Images\0830.jpg	YN	Left	Yes	0.712571899872273	0	254376	252
498.888671875	0.712571899872273	health	choicePhaseStart	1	42	42	foodImage.84	FOODEEG_Images\0830.jpg	YN	Left	Yes	0.712571899872273	0	255432	253
499.59375	0	health	response	1	42	42	foodImage.84	FOODEEG_Images\0830.jpg	YN	Left	Yes	0.712571899872273	0	255793	234
500.634765625	1	decision	trialStart	1	43	43	foodImage.6	FOODEEG_Images\0113.jpg	NY	Right	Yes	1.85666179982945	0	256326	251
501.67578125	2	decision	foodImageDisplay	1	43	43	foodImage.6	FOODEEG_Images\0113.jpg	NY	Right	Yes	1.85666179982945	0	256859	252
503.73828125	1.85666179982945	decision	choicePhaseStart	1	43	43	foodImage.6	FOODEEG_Images\0113.jpg	NY	Right	Yes	1.85666179982945	0	257915	253
505.5859375	0	decision	response	1	43	43	foodImage.6	FOODEEG_Images\0113.jpg	NY	Right	Yes	1.85666179982945	0	258861	235
506.625	1	health	trialStart	1	44	44	foodImage.114	FOODEEG_Images\0922.jpg	YN	Left	Yes	0.917803299613297	0	259393	251
507.6640625	2	health	foodImageDisplay	1	44	44	foodImage.114	FOODEEG_Images\0922.jpg	YN	Left	Yes	0.917803299613297	0	259925	252
509.7265625	0.917803299613297	health	choicePhaseStart	1	44	44	foodImage.114	FOODEEG_Images\0922.jpg	YN	Left	Yes	0.917803299613297	0	260981	253
510.634765625	0	health	response	1	44	44	foodImage.114	FOODEEG_Images\0922.jpg	YN	Left	Yes	0.917803299613297	0	261446	234
511.673828125	1	taste	trialStart	1	45	45	foodImage.29	FOODEEG_Images\0278.jpg	NY	Left	No	1.03100570011884	0	261978	251
512.732421875	2	taste	foodImageDisplay	1	45	45	foodImage.29	FOODEEG_Images\0278.jpg	NY	Left	No	1.03100570011884	0	262520	252
514.796875	1.03100570011884	taste	choicePhaseStart	1	45	45	foodImage.29	FOODEEG_Images\0278.jpg	NY	Left	No	1.03100570011884	0	263577	253
515.818359375	0	taste	response	1	45	45	foodImage.29	FOODEEG_Images\0278.jpg	NY	Left	No	1.03100570011884	0	264100	234
516.859375	1	taste	trialStart	1	46	46	foodImage.44	FOODEEG_Images\0459.jpg	YN	Left	Yes	0.707343500107527	0	264633	251
517.904296875	2	taste	foodImageDisplay	1	46	46	foodImage.44	FOODEEG_Images\0459.jpg	YN	Left	Yes	0.707343500107527	0	265168	252
519.966796875	0.707343500107527	taste	choicePhaseStart	1	46	46	foodImage.44	FOODEEG_Images\0459.jpg	YN	Left	Yes	0.707343500107527	0	266224	253
520.666015625	0	taste	response	1	46	46	foodImage.44	FOODEEG_Images\0459.jpg	YN	Left	Yes	0.707343500107527	0	266582	234
521.705078125	1	health	trialStart	1	47	47	foodImage.4	FOODEEG_Images\0065.jpg	NY	Left	No	0.989086499903351	0	267114	251
522.759765625	2	health	foodImageDisplay	1	47	47	foodImage.4	FOODEEG_Images\0065.jpg	NY	Left	No	0.989086499903351	0	267654	252
524.822265625	0.989086499903351	health	choicePhaseStart	1	47	47	foodImage.4	FOODEEG_Images\0065.jpg	NY	Left	No	0.989086499903351	0	268710	253
525.802734375	0	health	response	1	47	47	foodImage.4	FOODEEG_Images\0065.jpg	NY	Left	No	0.989086499903351	0	269212	234
526.84375	1	taste	trialStart	1	48	48	foodImage.27	FOODEEG_Images\0263.jpg	NY	Left	No	1.27708429982886	0	269745	251
527.88671875	2	taste	foodImageDisplay	1	48	48	foodImage.27	FOODEEG_Images\0263.jpg	NY	Left	No	1.27708429982886	0	270279	252
529.94921875	1.27708429982886	taste	choicePhaseStart	1	48	48	foodImage.27	FOODEEG_Images\0263.jpg	NY	Left	No	1.27708429982886	0	271335	253
531.216796875	0	taste	response	1	48	48	foodImage.27	FOODEEG_Images\0263.jpg	NY	Left	No	1.27708429982886	0	271984	234
532.259765625	1	health	trialStart	1	49	49	foodImage.43	FOODEEG_Images\0445.jpg	NY	Right	Yes	0.808759400155395	0	272518	251
533.330078125	2	health	foodImageDisplay	1	49	49	foodImage.43	FOODEEG_Images\0445.jpg	NY	Right	Yes	0.808759400155395	0	273066	252
535.392578125	0.808759400155395	health	choicePhaseStart	1	49	49	foodImage.43	FOODEEG_Images\0445.jpg	NY	Right	Yes	0.808759400155395	0	274122	253
536.193359375	0	health	response	1	49	49	foodImage.43	FOODEEG_Images\0445.jpg	NY	Right	Yes	0.808759400155395	0	274532	235
537.234375	1	health	trialStart	1	50	50	foodImage.27	FOODEEG_Images\0263.jpg	NY	Right	Yes	0.99981340020895	0	275065	251
538.275390625	2	health	foodImageDisplay	1	50	50	foodImage.27	FOODEEG_Images\0263.jpg	NY	Right	Yes	0.99981340020895	0	275598	252
540.337890625	0.99981340020895	health	choicePhaseStart	1	50	50	foodImage.27	FOODEEG_Images\0263.jpg	NY	Right	Yes	0.99981340020895	0	276654	253
541.328125	0	health	response	1	50	50	foodImage.27	FOODEEG_Images\0263.jpg	NY	Right	Yes	0.99981340020895	0	277161	235
542.369140625	1	health	trialStart	1	51	51	foodImage.55	FOODEEG_Images\0567.jpg	YN	Left	Yes	0.99128059996292	0	277694	251
543.427734375	2	health	foodImageDisplay	1	51	51	foodImage.55	FOODEEG_Images\0567.jpg	YN	Left	Yes	0.99128059996292	0	278236	252
545.490234375	0.99128059996292	health	choicePhaseStart	1	51	51	foodImage.55	FOODEEG_Images\0567.jpg	YN	Left	Yes	0.99128059996292	0	279292	253
546.47265625	0	health	response	1	51	51	foodImage.55	FOODEEG_Images\0567.jpg	YN	Left	Yes	0.99128059996292	0	279795	234
547.515625	1	taste	trialStart	1	52	52	foodImage.35	FOODEEG_Images\0350.jpg	NY	Right	Yes	0.696186800021678	0	280329	251
548.5546875	2	taste	foodImageDisplay	1	52	52	foodImage.35	FOODEEG_Images\0350.jpg	NY	Right	Yes	0.696186800021678	0	280861	252
550.6171875	0.696186800021678	taste	choicePhaseStart	1	52	52	foodImage.35	FOODEEG_Images\0350.jpg	NY	Right	Yes	0.696186800021678	0	281917	253
551.3046875	0	taste	response	1	52	52	foodImage.35	FOODEEG_Images\0350.jpg	NY	Right	Yes	0.696186800021678	0	282269	235
552.34765625	1	health	trialStart	1	53	53	foodImage.63	FOODEEG_Images\0645.jpg	YN	Left	Yes	0.630063900258392	0	282803	251
553.40234375	2	health	foodImageDisplay	1	53	53	foodImage.63	FOODEEG_Images\0645.jpg	YN	Left	Yes	0.630063900258392	0	283343	252
555.466796875	0.630063900258392	health	choicePhaseStart	1	53	53	foodImage.63	FOODEEG_Images\0645.jpg	YN	Left	Yes	0.630063900258392	0	284400	253
556.087890625	0	health	response	1	53	53	foodImage.63	FOODEEG_Images\0645.jpg	YN	Left	Yes	0.630063900258392	0	284718	234
557.130859375	1	taste	trialStart	1	54	54	foodImage.4	FOODEEG_Images\0065.jpg	YN	Left	Yes	0.606312699615955	0	285252	251
558.1875	2	taste	foodImageDisplay	1	54	54	foodImage.4	FOODEEG_Images\0065.jpg	YN	Left	Yes	0.606312699615955	0	285793	252
560.251953125	0.606312699615955	taste	choicePhaseStart	1	54	54	foodImage.4	FOODEEG_Images\0065.jpg	YN	Left	Yes	0.606312699615955	0	286850	253
560.84765625	0	taste	response	1	54	54	foodImage.4	FOODEEG_Images\0065.jpg	YN	Left	Yes	0.606312699615955	0	287155	234
561.888671875	1	taste	trialStart	1	55	55	foodImage.93	FOODEEG_Images\0901.jpg	NY	Left	No	1.09164169989526	0	287688	251
562.927734375	2	taste	foodImageDisplay	1	55	55	foodImage.93	FOODEEG_Images\0901.jpg	NY	Left	No	1.09164169989526	0	288220	252
564.990234375	1.09164169989526	taste	choicePhaseStart	1	55	55	foodImage.93	FOODEEG_Images\0901.jpg	NY	Left	No	1.09164169989526	0	289276	253
566.072265625	0	taste	response	1	55	55	foodImage.93	FOODEEG_Images\0901.jpg	NY	Left	No	1.09164169989526	0	289830	234
567.11328125	1	decision	trialStart	1	56	56	foodImage.92	FOODEEG_Images\0900.jpg	YN	Right	No	0.661894999910146	0	290363	251
568.154296875	2	decision	foodImageDisplay	1	56	56	foodImage.92	FOODEEG_Images\0900.jpg	YN	Right	No	0.661894999910146	0	290896	252
570.21875	0.661894999910146	decision	choicePhaseStart	1	56	56	foodImage.92	FOODEEG_Images\0900.jpg	YN	Right	No	0.661894999910146	0	291953	253
570.87109375	0	decision	response	1	56	56	foodImage.92	FOODEEG_Images\0900.jpg	YN	Right	No	0.661894999910146	0	292287	235
571.912109375	1	health	trialStart	1	57	57	foodImage.23	FOODEEG_Images\0244.jpg	YN	Left	Yes	0.883880800101906	0	292820	251
572.953125	2	health	foodImageDisplay	1	57	57	foodImage.23	FOODEEG_Images\0244.jpg	YN	Left	Yes	0.883880800101906	0	293353	252
575.013671875	0.883880800101906	health	choicePhaseStart	1	57	57	foodImage.23	FOODEEG_Images\0244.jpg	YN	Left	Yes	0.883880800101906	0	294408	253
575.888671875	0	health	response	1	57	57	foodImage.23	FOODEEG_Images\0244.jpg	YN	Left	Yes	0.883880800101906	0	294856	234
576.9296875	1	decision	trialStart	1	58	58	foodImage.105	FOODEEG_Images\0913.jpg	NY	Left	No	0.875309800263494	0	295389	251
577.966796875	2	decision	foodImageDisplay	1	58	58	foodImage.105	FOODEEG_Images\0913.jpg	NY	Left	No	0.875309800263494	0	295920	252
580.029296875	0.875309800263494	decision	choicePhaseStart	1	58	58	foodImage.105	FOODEEG_Images\0913.jpg	NY	Left	No	0.875309800263494	0	296976	253
580.896484375	0	decision	response	1	58	58	foodImage.105	FOODEEG_Images\0913.jpg	NY	Left	No	0.875309800263494	0	297420	234
581.94140625	1	health	trialStart	1	59	59	foodImage.111	FOODEEG_Images\0919.jpg	YN	Right	No	2.37912440020591	0	297955	251
582.982421875	2	health	foodImageDisplay	1	59	59	foodImage.111	FOODEEG_Images\0919.jpg	YN	Right	No	2.37912440020591	0	298488	252
585.044921875	2.37912440020591	health	choicePhaseStart	1	59	59	foodImage.111	FOODEEG_Images\0919.jpg	YN	Right	No	2.37912440020591	0	299544	253
587.416015625	0	health	response	1	59	59	foodImage.111	FOODEEG_Images\0919.jpg	YN	Right	No	2.37912440020591	0	300758	235
588.458984375	1	taste	trialStart	1	60	60	foodImage.104	FOODEEG_Images\0912.jpg	YN	Right	No	0.68078780034557	0	301292	251
589.49609375	2	taste	foodImageDisplay	1	60	60	foodImage.104	FOODEEG_Images\0912.jpg	YN	Right	No	0.68078780034557	0	301823	252
591.55859375	0.68078780034557	taste	choicePhaseStart	1	60	60	foodImage.104	FOODEEG_Images\0912.jpg	YN	Right	No	0.68078780034557	0	302879	253
592.23046875	0	taste	response	1	60	60	foodImage.104	FOODEEG_Images\0912.jpg	YN	Right	No	0.68078780034557	0	303223	235
594.271484375	22.015625	n/a	blockEnd	n/a	n/a	n/a	n/a	n/a	n/a	n/a	n/a	n/a	n/a	304268	254
616.287109375	2	n/a	blockStart	2	n/a	n/a	n/a	n/a	n/a	n/a	n/a	n/a	n/a	315540	250
618.318359375	1	taste	trialStart	2	61	1	foodImage.22	FOODEEG_Images\0236.jpg	YN	Left	Yes	0.66147270007059	0	316580	251
619.36328125	2	taste	foodImageDisplay	2	61	1	foodImage.22	FOODEEG_Images\0236.jpg	YN	Left	Yes	0.66147270007059	0	317115	252
621.4296875	0.66147270007059	taste	choicePhaseStart	2	61	1	foodImage.22	FOODEEG_Images\0236.jpg	YN	Left	Yes	0.66147270007059	0	318173	253
622.0859375	0	taste	response	2	61	1	foodImage.22	FOODEEG_Images\0236.jpg	YN	Left	Yes	0.66147270007059	0	318509	234
623.12890625	1	health	trialStart	2	62	2	foodImage.64	FOODEEG_Images\0647.jpg	YN	Left	Yes	0.601202399935573	0	319043	251
624.18359375	2	health	foodImageDisplay	2	62	2	foodImage.64	FOODEEG_Images\0647.jpg	YN	Left	Yes	0.601202399935573	0	319583	252
626.24609375	0.601202399935573	health	choicePhaseStart	2	62	2	foodImage.64	FOODEEG_Images\0647.jpg	YN	Left	Yes	0.601202399935573	0	320639	253
626.837890625	0	health	response	2	62	2	foodImage.64	FOODEEG_Images\0647.jpg	YN	Left	Yes	0.601202399935573	0	320942	234
627.87890625	1	decision	trialStart	2	63	3	foodImage.29	FOODEEG_Images\0278.jpg	YN	Right	No	0.782006899826229	0	321475	251
628.919921875	2	decision	foodImageDisplay	2	63	3	foodImage.29	FOODEEG_Images\0278.jpg	YN	Right	No	0.782006899826229	0	322008	252
630.982421875	0.782006899826229	decision	choicePhaseStart	2	63	3	foodImage.29	FOODEEG_Images\0278.jpg	YN	Right	No	0.782006899826229	0	323064	253
631.7578125	0	decision	response	2	63	3	foodImage.29	FOODEEG_Images\0278.jpg	YN	Right	No	0.782006899826229	0	323461	235
632.798828125	1	taste	trialStart	2	64	4	foodImage.2	FOODEEG_Images\0028.jpg	NY	Right	Yes	0.751155499834567	0	323994	251
633.83984375	2	taste	foodImageDisplay	2	64	4	foodImage.2	FOODEEG_Images\0028.jpg	NY	Right	Yes	0.751155499834567	0	324527	252
635.90234375	0.751155499834567	taste	choicePhaseStart	2	64	4	foodImage.2	FOODEEG_Images\0028.jpg	NY	Right	Yes	0.751155499834567	0	325583	253
636.64453125	0	taste	response	2	64	4	foodImage.2	FOODEEG_Images\0028.jpg	NY	Right	Yes	0.751155499834567	0	325963	235
637.6875	1	decision	trialStart	2	65	5	foodImage.67	FOODEEG_Images\0679.jpg	YN	Left	Yes	0.75184140028432	0	326497	251
638.744140625	2	decision	foodImageDisplay	2	65	5	foodImage.67	FOODEEG_Images\0679.jpg	YN	Left	Yes	0.75184140028432	0	327038	252
640.806640625	0.75184140028432	decision	choicePhaseStart	2	65	5	foodImage.67	FOODEEG_Images\0679.jpg	YN	Left	Yes	0.75184140028432	0	328094	253
641.548828125	0	decision	response	2	65	5	foodImage.67	FOODEEG_Images\0679.jpg	YN	Left	Yes	0.75184140028432	0	328474	234
642.595703125	1	taste	trialStart	2	66	6	foodImage.21	FOODEEG_Images\0234.jpg	YN	Left	Yes	0.651355100329965	0	329010	251
643.65234375	2	taste	foodImageDisplay	2	66	6	foodImage.21	FOODEEG_Images\0234.jpg	YN	Left	Yes	0.651355100329965	0	329551	252
645.71484375	0.651355100329965	taste	choicePhaseStart	2	66	6	foodImage.21	FOODEEG_Images\0234.jpg	YN	Left	Yes	0.651355100329965	0	330607	253
646.357421875	0	taste	response	2	66	6	foodImage.21	FOODEEG_Images\0234.jpg	YN	Left	Yes	0.651355100329965	0	330936	234
647.396484375	1	taste	trialStart	2	67	7	foodImage.99	FOODEEG_Images\0907.jpg	NY	Left	No	0.916333499830216	0	331468	251
648.435546875	2	taste	foodImageDisplay	2	67	7	foodImage.99	FOODEEG_Images\0907.jpg	NY	Left	No	0.916333499830216	0	332000	252
650.498046875	0.916333499830216	taste	choicePhaseStart	2	67	7	foodImage.99	FOODEEG_Images\0907.jpg	NY	Left	No	0.916333499830216	0	333056	253
651.404296875	0	taste	response	2	67	7	foodImage.99	FOODEEG_Images\0907.jpg	NY	Left	No	0.916333499830216	0	333520	234
652.4453125	1	health	trialStart	2	68	8	foodImage.72	FOODEEG_Images\0714.jpg	YN	Left	Yes	1.14074379997328	0	334053	251
653.490234375	2	health	foodImageDisplay	2	68	8	foodImage.72	FOODEEG_Images\0714.jpg	YN	Left	Yes	1.14074379997328	0	334588	252
655.552734375	1.14074379997328	health	choicePhaseStart	2	68	8	foodImage.72	FOODEEG_Images\0714.jpg	YN	Left	Yes	1.14074379997328	0	335644	253
656.68359375	0	health	response	2	68	8	foodImage.72	FOODEEG_Images\0714.jpg	YN	Left	Yes	1.14074379997328	0	336223	234
657.7265625	1	decision	trialStart	2	69	9	foodImage.44	FOODEEG_Images\0459.jpg	YN	Left	Yes	0.597539599984884	0	336757	251
658.771484375	2	decision	foodImageDisplay	2	69	9	foodImage.44	FOODEEG_Images\0459.jpg	YN	Left	Yes	0.597539599984884	0	337292	252
660.833984375	0.597539599984884	decision	choicePhaseStart	2	69	9	foodImage.44	FOODEEG_Images\0459.jpg	YN	Left	Yes	0.597539599984884	0	338348	253
661.419921875	0	decision	response	2	69	9	foodImage.44	FOODEEG_Images\0459.jpg	YN	Left	Yes	0.597539599984884	0	338648	234
662.4609375	1	taste	trialStart	2	70	10	foodImage.51	FOODEEG_Images\0536.jpg	YN	Left	Yes	1.274461499881	0	339181	251
663.5078125	2	taste	foodImageDisplay	2	70	10	foodImage.51	FOODEEG_Images\0536.jpg	YN	Left	Yes	1.274461499881	0	339717	252
665.5703125	1.274461499881	taste	choicePhaseStart	2	70	10	foodImage.51	FOODEEG_Images\0536.jpg	YN	Left	Yes	1.274461499881	0	340773	253
666.8359375	0	taste	response	2	70	10	foodImage.51	FOODEEG_Images\0536.jpg	YN	Left	Yes	1.274461499881	0	341421	234
667.87890625	1	taste	trialStart	2	71	11	foodImage.47	FOODEEG_Images\0488.jpg	NY	Right	Yes	0.70976320002228	0	341955	251
668.921875	2	taste	foodImageDisplay	2	71	11	foodImage.47	FOODEEG_Images\0488.jpg	NY	Right	Yes	0.70976320002228	0	342489	252
670.984375	0.70976320002228	taste	choicePhaseStart	2	71	11	foodImage.47	FOODEEG_Images\0488.jpg	NY	Right	Yes	0.70976320002228	0	343545	253
671.68359375	0	taste	response	2	71	11	foodImage.47	FOODEEG_Images\0488.jpg	NY	Right	Yes	0.70976320002228	0	343903	235
672.724609375	1	taste	trialStart	2	72	12	foodImage.71	FOODEEG_Images\0713.jpg	YN	Left	Yes	0.529313900042325	0	344436	251
673.765625	2	taste	foodImageDisplay	2	72	12	foodImage.71	FOODEEG_Images\0713.jpg	YN	Left	Yes	0.529313900042325	0	344969	252
675.828125	0.529313900042325	taste	choicePhaseStart	2	72	12	foodImage.71	FOODEEG_Images\0713.jpg	YN	Left	Yes	0.529313900042325	0	346025	253
676.34765625	0	taste	response	2	72	12	foodImage.71	FOODEEG_Images\0713.jpg	YN	Left	Yes	0.529313900042325	0	346291	234
677.388671875	1	decision	trialStart	2	73	13	foodImage.108	FOODEEG_Images\0916.jpg	YN	Right	No	0.796819699928164	0	346824	251
678.42578125	2	decision	foodImageDisplay	2	73	13	foodImage.108	FOODEEG_Images\0916.jpg	YN	Right	No	0.796819699928164	0	347355	252
680.48828125	0.796819699928164	decision	choicePhaseStart	2	73	13	foodImage.108	FOODEEG_Images\0916.jpg	YN	Right	No	0.796819699928164	0	348411	253
681.275390625	0	decision	response	2	73	13	foodImage.108	FOODEEG_Images\0916.jpg	YN	Right	No	0.796819699928164	0	348814	235
682.318359375	1	taste	trialStart	2	74	14	foodImage.61	FOODEEG_Images\0640.jpg	NY	Right	Yes	1.0552064999938	0	349348	251
683.359375	2	taste	foodImageDisplay	2	74	14	foodImage.61	FOODEEG_Images\0640.jpg	NY	Right	Yes	1.0552064999938	0	349881	252
685.421875	1.0552064999938	taste	choicePhaseStart	2	74	14	foodImage.61	FOODEEG_Images\0640.jpg	NY	Right	Yes	1.0552064999938	0	350937	253
686.466796875	0	taste	response	2	74	14	foodImage.61	FOODEEG_Images\0640.jpg	NY	Right	Yes	1.0552064999938	0	351472	235
687.5078125	1	health	trialStart	2	75	15	foodImage.56	FOODEEG_Images\0586.jpg	NY	Right	Yes	0.703803999815136	0	352005	251
688.55078125	2	health	foodImageDisplay	2	75	15	foodImage.56	FOODEEG_Images\0586.jpg	NY	Right	Yes	0.703803999815136	0	352539	252
690.61328125	0.703803999815136	health	choicePhaseStart	2	75	15	foodImage.56	FOODEEG_Images\0586.jpg	NY	Right	Yes	0.703803999815136	0	353595	253
691.306640625	0	health	response	2	75	15	foodImage.56	FOODEEG_Images\0586.jpg	NY	Right	Yes	0.703803999815136	0	353950	235
692.349609375	1	taste	trialStart	2	76	16	foodImage.53	FOODEEG_Images\0547.jpg	YN	Left	Yes	0.606739800423384	0	354484	251
693.408203125	2	taste	foodImageDisplay	2	76	16	foodImage.53	FOODEEG_Images\0547.jpg	YN	Left	Yes	0.606739800423384	0	355026	252
695.46875	0.606739800423384	taste	choicePhaseStart	2	76	16	foodImage.53	FOODEEG_Images\0547.jpg	YN	Left	Yes	0.606739800423384	0	356081	253
696.06640625	0	taste	response	2	76	16	foodImage.53	FOODEEG_Images\0547.jpg	YN	Left	Yes	0.606739800423384	0	356387	234
697.111328125	1	decision	trialStart	2	77	17	foodImage.79	FOODEEG_Images\0794.jpg	NY	Left	No	0.866840000264347	0	356922	251
698.154296875	2	decision	foodImageDisplay	2	77	17	foodImage.79	FOODEEG_Images\0794.jpg	NY	Left	No	0.866840000264347	0	357456	252
700.216796875	0.866840000264347	decision	choicePhaseStart	2	77	17	foodImage.79	FOODEEG_Images\0794.jpg	NY	Left	No	0.866840000264347	0	358512	253
701.07421875	0	decision	response	2	77	17	foodImage.79	FOODEEG_Images\0794.jpg	NY	Left	No	0.866840000264347	0	358951	234
702.119140625	1	health	trialStart	2	78	18	foodImage.38	FOODEEG_Images\0365.jpg	NY	Right	Yes	0.524171500001103	0	359486	251
703.16015625	2	health	foodImageDisplay	2	78	18	foodImage.38	FOODEEG_Images\0365.jpg	NY	Right	Yes	0.524171500001103	0	360019	252
705.220703125	0.524171500001103	health	choicePhaseStart	2	78	18	foodImage.38	FOODEEG_Images\0365.jpg	NY	Right	Yes	0.524171500001103	0	361074	253
705.73828125	0	health	response	2	78	18	foodImage.38	FOODEEG_Images\0365.jpg	NY	Right	Yes	0.524171500001103	0	361339	235
706.779296875	1	decision	trialStart	2	79	19	foodImage.63	FOODEEG_Images\0645.jpg	YN	Left	Yes	0.776752000208944	0	361872	251
707.8203125	2	decision	foodImageDisplay	2	79	19	foodImage.63	FOODEEG_Images\0645.jpg	YN	Left	Yes	0.776752000208944	0	362405	252
709.8828125	0.776752000208944	decision	choicePhaseStart	2	79	19	foodImage.63	FOODEEG_Images\0645.jpg	YN	Left	Yes	0.776752000208944	0	363461	253
710.650390625	0	decision	response	2	79	19	foodImage.63	FOODEEG_Images\0645.jpg	YN	Left	Yes	0.776752000208944	0	363854	234
711.69140625	1	taste	trialStart	2	80	20	foodImage.62	FOODEEG_Images\0644.jpg	NY	Right	Yes	0.688505900092423	0	364387	251
712.748046875	2	taste	foodImageDisplay	2	80	20	foodImage.62	FOODEEG_Images\0644.jpg	NY	Right	Yes	0.688505900092423	0	364928	252
714.810546875	0.688505900092423	taste	choicePhaseStart	2	80	20	foodImage.62	FOODEEG_Images\0644.jpg	NY	Right	Yes	0.688505900092423	0	365984	253
715.490234375	0	taste	response	2	80	20	foodImage.62	FOODEEG_Images\0644.jpg	NY	Right	Yes	0.688505900092423	0	366332	235
716.53125	1	health	trialStart	2	81	21	foodImage.78	FOODEEG_Images\0787.jpg	YN	Left	Yes	0.791681899689138	0	366865	251
717.572265625	2	health	foodImageDisplay	2	81	21	foodImage.78	FOODEEG_Images\0787.jpg	YN	Left	Yes	0.791681899689138	0	367398	252
719.634765625	0.791681899689138	health	choicePhaseStart	2	81	21	foodImage.78	FOODEEG_Images\0787.jpg	YN	Left	Yes	0.791681899689138	0	368454	253
720.41796875	0	health	response	2	81	21	foodImage.78	FOODEEG_Images\0787.jpg	YN	Left	Yes	0.791681899689138	0	368855	234
721.4609375	1	taste	trialStart	2	82	22	foodImage.109	FOODEEG_Images\0917.jpg	NY	Left	No	0.928776099812239	0	369389	251
722.5	2	taste	foodImageDisplay	2	82	22	foodImage.109	FOODEEG_Images\0917.jpg	NY	Left	No	0.928776099812239	0	369921	252
724.560546875	0.928776099812239	taste	choicePhaseStart	2	82	22	foodImage.109	FOODEEG_Images\0917.jpg	NY	Left	No	0.928776099812239	0	370976	253
725.482421875	0	taste	response	2	82	22	foodImage.109	FOODEEG_Images\0917.jpg	NY	Left	No	0.928776099812239	0	371448	234
726.525390625	1	health	trialStart	2	83	23	foodImage.96	FOODEEG_Images\0904.jpg	YN	Left	Yes	0.760529199615121	0	371982	251
727.564453125	2	health	foodImageDisplay	2	83	23	foodImage.96	FOODEEG_Images\0904.jpg	YN	Left	Yes	0.760529199615121	0	372514	252
729.625	0.760529199615121	health	choicePhaseStart	2	83	23	foodImage.96	FOODEEG_Images\0904.jpg	YN	Left	Yes	0.760529199615121	0	373569	253
730.376953125	0	health	response	2	83	23	foodImage.96	FOODEEG_Images\0904.jpg	YN	Left	Yes	0.760529199615121	0	373954	234
731.419921875	1	decision	trialStart	2	84	24	foodImage.115	FOODEEG_Images\0923.jpg	YN	Right	No	0.832824899815023	0	374488	251
732.458984375	2	decision	foodImageDisplay	2	84	24	foodImage.115	FOODEEG_Images\0923.jpg	YN	Right	No	0.832824899815023	0	375020	252
734.521484375	0.832824899815023	decision	choicePhaseStart	2	84	24	foodImage.115	FOODEEG_Images\0923.jpg	YN	Right	No	0.832824899815023	0	376076	253
735.345703125	0	decision	response	2	84	24	foodImage.115	FOODEEG_Images\0923.jpg	YN	Right	No	0.832824899815023	0	376498	235
736.388671875	1	decision	trialStart	2	85	25	foodImage.13	FOODEEG_Images\0183.jpg	YN	Left	Yes	0.708969600033015	0	377032	251
737.431640625	2	decision	foodImageDisplay	2	85	25	foodImage.13	FOODEEG_Images\0183.jpg	YN	Left	Yes	0.708969600033015	0	377566	252
739.4921875	0.708969600033015	decision	choicePhaseStart	2	85	25	foodImage.13	FOODEEG_Images\0183.jpg	YN	Left	Yes	0.708969600033015	0	378621	253
740.193359375	0	decision	response	2	85	25	foodImage.13	FOODEEG_Images\0183.jpg	YN	Left	Yes	0.708969600033015	0	378980	234
741.236328125	1	taste	trialStart	2	86	26	foodImage.73	FOODEEG_Images\0717.jpg	NY	Right	Yes	1.13038619980216	0	379514	251
742.294921875	2	taste	foodImageDisplay	2	86	26	foodImage.73	FOODEEG_Images\0717.jpg	NY	Right	Yes	1.13038619980216	0	380056	252
744.359375	1.13038619980216	taste	choicePhaseStart	2	86	26	foodImage.73	FOODEEG_Images\0717.jpg	NY	Right	Yes	1.13038619980216	0	381113	253
745.48046875	0	taste	response	2	86	26	foodImage.73	FOODEEG_Images\0717.jpg	NY	Right	Yes	1.13038619980216	0	381687	235
746.5234375	1	health	trialStart	2	87	27	foodImage.24	FOODEEG_Images\0250.jpg	NY	Right	Yes	0.613735400140285	0	382221	251
747.564453125	2	health	foodImageDisplay	2	87	27	foodImage.24	FOODEEG_Images\0250.jpg	NY	Right	Yes	0.613735400140285	0	382754	252
749.626953125	0.613735400140285	health	choicePhaseStart	2	87	27	foodImage.24	FOODEEG_Images\0250.jpg	NY	Right	Yes	0.613735400140285	0	383810	253
750.232421875	0	health	response	2	87	27	foodImage.24	FOODEEG_Images\0250.jpg	NY	Right	Yes	0.613735400140285	0	384120	235
751.275390625	1	health	trialStart	2	88	28	foodImage.95	FOODEEG_Images\0903.jpg	NY	Left	No	1.2879666001536	0	384654	251
752.314453125	2	health	foodImageDisplay	2	88	28	foodImage.95	FOODEEG_Images\0903.jpg	NY	Left	No	1.2879666001536	0	385186	252
754.376953125	1.2879666001536	health	choicePhaseStart	2	88	28	foodImage.95	FOODEEG_Images\0903.jpg	NY	Left	No	1.2879666001536	0	386242	253
755.65625	0	health	response	2	88	28	foodImage.95	FOODEEG_Images\0903.jpg	NY	Left	No	1.2879666001536	0	386897	234
756.69921875	1	taste	trialStart	2	89	29	foodImage.119	FOODEEG_Images\0927.jpg	NY	Left	No	0.684167599771172	0	387431	251
757.736328125	2	taste	foodImageDisplay	2	89	29	foodImage.119	FOODEEG_Images\0927.jpg	NY	Left	No	0.684167599771172	0	387962	252
759.798828125	0.684167599771172	taste	choicePhaseStart	2	89	29	foodImage.119	FOODEEG_Images\0927.jpg	NY	Left	No	0.684167599771172	0	389018	253
760.47265625	0	taste	response	2	89	29	foodImage.119	FOODEEG_Images\0927.jpg	NY	Left	No	0.684167599771172	0	389363	234
761.515625	1	health	trialStart	2	90	30	foodImage.5	FOODEEG_Images\0107.jpg	NY	Left	No	0.681500100065023	0	389897	251
762.591796875	2	health	foodImageDisplay	2	90	30	foodImage.5	FOODEEG_Images\0107.jpg	NY	Left	No	0.681500100065023	0	390448	252
764.654296875	0.681500100065023	health	choicePhaseStart	2	90	30	foodImage.5	FOODEEG_Images\0107.jpg	NY	Left	No	0.681500100065023	0	391504	253
765.328125	0	health	response	2	90	30	foodImage.5	FOODEEG_Images\0107.jpg	NY	Left	No	0.681500100065023	0	391849	234
766.37109375	1	health	trialStart	2	91	31	foodImage.99	FOODEEG_Images\0907.jpg	NY	Left	No	0.464989899657667	0	392383	251
767.41015625	2	health	foodImageDisplay	2	91	31	foodImage.99	FOODEEG_Images\0907.jpg	NY	Left	No	0.464989899657667	0	392915	252
769.47265625	0.464989899657667	health	choicePhaseStart	2	91	31	foodImage.99	FOODEEG_Images\0907.jpg	NY	Left	No	0.464989899657667	0	393971	253
769.927734375	0	health	response	2	91	31	foodImage.99	FOODEEG_Images\0907.jpg	NY	Left	No	0.464989899657667	0	394204	234
770.96875	1	health	trialStart	2	92	32	foodImage.51	FOODEEG_Images\0536.jpg	YN	Left	Yes	0.431385700125247	0	394737	251
772.01171875	2	health	foodImageDisplay	2	92	32	foodImage.51	FOODEEG_Images\0536.jpg	YN	Left	Yes	0.431385700125247	0	395271	252
774.07421875	0.431385700125247	health	choicePhaseStart	2	92	32	foodImage.51	FOODEEG_Images\0536.jpg	YN	Left	Yes	0.431385700125247	0	396327	253
774.49609375	0	health	response	2	92	32	foodImage.51	FOODEEG_Images\0536.jpg	YN	Left	Yes	0.431385700125247	0	396543	234
775.5390625	1	health	trialStart	2	93	33	foodImage.115	FOODEEG_Images\0923.jpg	NY	Right	Yes	0.688283899798989	0	397077	251
776.576171875	2	health	foodImageDisplay	2	93	33	foodImage.115	FOODEEG_Images\0923.jpg	NY	Right	Yes	0.688283899798989	0	397608	252
778.638671875	0.688283899798989	health	choicePhaseStart	2	93	33	foodImage.115	FOODEEG_Images\0923.jpg	NY	Right	Yes	0.688283899798989	0	398664	253
779.3203125	0	health	response	2	93	33	foodImage.115	FOODEEG_Images\0923.jpg	NY	Right	Yes	0.688283899798989	0	399013	235
780.36328125	1	decision	trialStart	2	94	34	foodImage.38	FOODEEG_Images\0365.jpg	NY	Right	Yes	0.777560500428081	0	399547	251
781.400390625	2	decision	foodImageDisplay	2	94	34	foodImage.38	FOODEEG_Images\0365.jpg	NY	Right	Yes	0.777560500428081	0	400078	252
783.462890625	0.777560500428081	decision	choicePhaseStart	2	94	34	foodImage.38	FOODEEG_Images\0365.jpg	NY	Right	Yes	0.777560500428081	0	401134	253
784.232421875	0	decision	response	2	94	34	foodImage.38	FOODEEG_Images\0365.jpg	NY	Right	Yes	0.777560500428081	0	401528	235
785.275390625	1	decision	trialStart	2	95	35	foodImage.43	FOODEEG_Images\0445.jpg	NY	Left	No	0.598021800164133	0	402062	251
786.33203125	2	decision	foodImageDisplay	2	95	35	foodImage.43	FOODEEG_Images\0445.jpg	NY	Left	No	0.598021800164133	0	402603	252
788.392578125	0.598021800164133	decision	choicePhaseStart	2	95	35	foodImage.43	FOODEEG_Images\0445.jpg	NY	Left	No	0.598021800164133	0	403658	253
788.984375	0	decision	response	2	95	35	foodImage.43	FOODEEG_Images\0445.jpg	NY	Left	No	0.598021800164133	0	403961	234
790.0234375	1	taste	trialStart	2	96	36	foodImage.40	FOODEEG_Images\0373.jpg	NY	Right	Yes	0.672751500271261	0	404493	251
791.064453125	2	taste	foodImageDisplay	2	96	36	foodImage.40	FOODEEG_Images\0373.jpg	NY	Right	Yes	0.672751500271261	0	405026	252
793.126953125	0.672751500271261	taste	choicePhaseStart	2	96	36	foodImage.40	FOODEEG_Images\0373.jpg	NY	Right	Yes	0.672751500271261	0	406082	253
793.791015625	0	taste	response	2	96	36	foodImage.40	FOODEEG_Images\0373.jpg	NY	Right	Yes	0.672751500271261	0	406422	235
794.833984375	1	health	trialStart	2	97	37	foodImage.61	FOODEEG_Images\0640.jpg	YN	Left	Yes	0.7052929000929	0	406956	251
795.873046875	2	health	foodImageDisplay	2	97	37	foodImage.61	FOODEEG_Images\0640.jpg	YN	Left	Yes	0.7052929000929	0	407488	252
797.935546875	0.7052929000929	health	choicePhaseStart	2	97	37	foodImage.61	FOODEEG_Images\0640.jpg	YN	Left	Yes	0.7052929000929	0	408544	253
798.630859375	0	health	response	2	97	37	foodImage.61	FOODEEG_Images\0640.jpg	YN	Left	Yes	0.7052929000929	0	408900	234
799.673828125	1	health	trialStart	2	98	38	foodImage.29	FOODEEG_Images\0278.jpg	YN	Left	Yes	0.748455400113016	0	409434	251
800.716796875	2	health	foodImageDisplay	2	98	38	foodImage.29	FOODEEG_Images\0278.jpg	YN	Left	Yes	0.748455400113016	0	409968	252
802.779296875	0.748455400113016	health	choicePhaseStart	2	98	38	foodImage.29	FOODEEG_Images\0278.jpg	YN	Left	Yes	0.748455400113016	0	411024	253
803.51953125	0	health	response	2	98	38	foodImage.29	FOODEEG_Images\0278.jpg	YN	Left	Yes	0.748455400113016	0	411403	234
804.5625	1	decision	trialStart	2	99	39	foodImage.39	FOODEEG_Images\0367.jpg	NY	Right	Yes	0.812233500182629	0	411937	251
805.6015625	2	decision	foodImageDisplay	2	99	39	foodImage.39	FOODEEG_Images\0367.jpg	NY	Right	Yes	0.812233500182629	0	412469	252
807.666015625	0.812233500182629	decision	choicePhaseStart	2	99	39	foodImage.39	FOODEEG_Images\0367.jpg	NY	Right	Yes	0.812233500182629	0	413526	253
808.470703125	0	decision	response	2	99	39	foodImage.39	FOODEEG_Images\0367.jpg	NY	Right	Yes	0.812233500182629	0	413938	235
809.51171875	1	taste	trialStart	2	100	40	foodImage.52	FOODEEG_Images\0539.jpg	YN	Left	Yes	0.805677300319076	0	414471	251
810.578125	2	taste	foodImageDisplay	2	100	40	foodImage.52	FOODEEG_Images\0539.jpg	YN	Left	Yes	0.805677300319076	0	415017	252
812.640625	0.805677300319076	taste	choicePhaseStart	2	100	40	foodImage.52	FOODEEG_Images\0539.jpg	YN	Left	Yes	0.805677300319076	0	416073	253
813.4375	0	taste	response	2	100	40	foodImage.52	FOODEEG_Images\0539.jpg	YN	Left	Yes	0.805677300319076	0	416481	234
814.48046875	1	decision	trialStart	2	101	41	foodImage.64	FOODEEG_Images\0647.jpg	YN	Left	Yes	0.670465199742466	0	417015	251
815.537109375	2	decision	foodImageDisplay	2	101	41	foodImage.64	FOODEEG_Images\0647.jpg	YN	Left	Yes	0.670465199742466	0	417556	252
817.599609375	0.670465199742466	decision	choicePhaseStart	2	101	41	foodImage.64	FOODEEG_Images\0647.jpg	YN	Left	Yes	0.670465199742466	0	418612	253
818.26171875	0	decision	response	2	101	41	foodImage.64	FOODEEG_Images\0647.jpg	YN	Left	Yes	0.670465199742466	0	418951	234
819.3046875	1	decision	trialStart	2	102	42	foodImage.12	FOODEEG_Images\0181.jpg	NY	Right	Yes	1.18275879975408	0	419485	251
820.345703125	2	decision	foodImageDisplay	2	102	42	foodImage.12	FOODEEG_Images\0181.jpg	NY	Right	Yes	1.18275879975408	0	420018	252
822.408203125	1.18275879975408	decision	choicePhaseStart	2	102	42	foodImage.12	FOODEEG_Images\0181.jpg	NY	Right	Yes	1.18275879975408	0	421074	253
823.58203125	0	decision	response	2	102	42	foodImage.12	FOODEEG_Images\0181.jpg	NY	Right	Yes	1.18275879975408	0	421675	235
824.62890625	1	taste	trialStart	2	103	43	foodImage.6	FOODEEG_Images\0113.jpg	NY	Right	Yes	0.687171599827707	0	422211	251
825.671875	2	taste	foodImageDisplay	2	103	43	foodImage.6	FOODEEG_Images\0113.jpg	NY	Right	Yes	0.687171599827707	0	422745	252
827.734375	0.687171599827707	taste	choicePhaseStart	2	103	43	foodImage.6	FOODEEG_Images\0113.jpg	NY	Right	Yes	0.687171599827707	0	423801	253
828.4140625	0	taste	response	2	103	43	foodImage.6	FOODEEG_Images\0113.jpg	NY	Right	Yes	0.687171599827707	0	424149	235
829.455078125	1	health	trialStart	2	104	44	foodImage.103	FOODEEG_Images\0911.jpg	NY	Left	No	0.607751700095832	0	424682	251
830.49609375	2	health	foodImageDisplay	2	104	44	foodImage.103	FOODEEG_Images\0911.jpg	NY	Left	No	0.607751700095832	0	425215	252
832.55859375	0.607751700095832	health	choicePhaseStart	2	104	44	foodImage.103	FOODEEG_Images\0911.jpg	NY	Left	No	0.607751700095832	0	426271	253
833.158203125	0	health	response	2	104	44	foodImage.103	FOODEEG_Images\0911.jpg	NY	Left	No	0.607751700095832	0	426578	234
834.197265625	1	health	trialStart	2	105	45	foodImage.28	FOODEEG_Images\0273.jpg	YN	Left	Yes	0.866711899638176	0	427110	251
835.23828125	2	health	foodImageDisplay	2	105	45	foodImage.28	FOODEEG_Images\0273.jpg	YN	Left	Yes	0.866711899638176	0	427643	252
837.30078125	0.866711899638176	health	choicePhaseStart	2	105	45	foodImage.28	FOODEEG_Images\0273.jpg	YN	Left	Yes	0.866711899638176	0	428699	253
838.158203125	0	health	response	2	105	45	foodImage.28	FOODEEG_Images\0273.jpg	YN	Left	Yes	0.866711899638176	0	429138	234
839.197265625	1	taste	trialStart	2	106	46	foodImage.118	FOODEEG_Images\0926.jpg	YN	Right	No	0.746722999960184	0	429670	251
840.234375	2	taste	foodImageDisplay	2	106	46	foodImage.118	FOODEEG_Images\0926.jpg	YN	Right	No	0.746722999960184	0	430201	252
842.296875	0.746722999960184	taste	choicePhaseStart	2	106	46	foodImage.118	FOODEEG_Images\0926.jpg	YN	Right	No	0.746722999960184	0	431257	253
843.037109375	0	taste	response	2	106	46	foodImage.118	FOODEEG_Images\0926.jpg	YN	Right	No	0.746722999960184	0	431636	235
844.08203125	1	taste	trialStart	2	107	47	foodImage.26	FOODEEG_Images\0262.jpg	YN	Right	No	2.24543760018423	0	432171	251
845.125	2	taste	foodImageDisplay	2	107	47	foodImage.26	FOODEEG_Images\0262.jpg	YN	Right	No	2.24543760018423	0	432705	252
847.193359375	2.24543760018423	taste	choicePhaseStart	2	107	47	foodImage.26	FOODEEG_Images\0262.jpg	YN	Right	No	2.24543760018423	0	433764	253
849.4296875	0	taste	response	2	107	47	foodImage.26	FOODEEG_Images\0262.jpg	YN	Right	No	2.24543760018423	0	434909	235
850.46875	1	taste	trialStart	2	108	48	foodImage.77	FOODEEG_Images\0771.jpg	YN	Left	Yes	0.727333200164139	0	435441	251
851.51171875	2	taste	foodImageDisplay	2	108	48	foodImage.77	FOODEEG_Images\0771.jpg	YN	Left	Yes	0.727333200164139	0	435975	252
853.57421875	0.727333200164139	taste	choicePhaseStart	2	108	48	foodImage.77	FOODEEG_Images\0771.jpg	YN	Left	Yes	0.727333200164139	0	437031	253
854.29296875	0	taste	response	2	108	48	foodImage.77	FOODEEG_Images\0771.jpg	YN	Left	Yes	0.727333200164139	0	437399	234
855.333984375	1	health	trialStart	2	109	49	foodImage.45	FOODEEG_Images\0478.jpg	YN	Left	Yes	0.81369260000065	0	437932	251
856.37890625	2	health	foodImageDisplay	2	109	49	foodImage.45	FOODEEG_Images\0478.jpg	YN	Left	Yes	0.81369260000065	0	438467	252
858.44140625	0.81369260000065	health	choicePhaseStart	2	109	49	foodImage.45	FOODEEG_Images\0478.jpg	YN	Left	Yes	0.81369260000065	0	439523	253
859.244140625	0	health	response	2	109	49	foodImage.45	FOODEEG_Images\0478.jpg	YN	Left	Yes	0.81369260000065	0	439934	234
860.287109375	1	health	trialStart	2	110	50	foodImage.54	FOODEEG_Images\0560.jpg	YN	Left	Yes	0.69241590006277	0	440468	251
861.34765625	2	health	foodImageDisplay	2	110	50	foodImage.54	FOODEEG_Images\0560.jpg	YN	Left	Yes	0.69241590006277	0	441011	252
863.41015625	0.69241590006277	health	choicePhaseStart	2	110	50	foodImage.54	FOODEEG_Images\0560.jpg	YN	Left	Yes	0.69241590006277	0	442067	253
864.091796875	0	health	response	2	110	50	foodImage.54	FOODEEG_Images\0560.jpg	YN	Left	Yes	0.69241590006277	0	442416	234
865.134765625	1	decision	trialStart	2	111	51	foodImage.95	FOODEEG_Images\0903.jpg	NY	Left	No	0.728414400015026	0	442950	251
866.173828125	2	decision	foodImageDisplay	2	111	51	foodImage.95	FOODEEG_Images\0903.jpg	NY	Left	No	0.728414400015026	0	443482	252
868.236328125	0.728414400015026	decision	choicePhaseStart	2	111	51	foodImage.95	FOODEEG_Images\0903.jpg	NY	Left	No	0.728414400015026	0	444538	253
868.95703125	0	decision	response	2	111	51	foodImage.95	FOODEEG_Images\0903.jpg	NY	Left	No	0.728414400015026	0	444907	234
869.998046875	1	decision	trialStart	2	112	52	foodImage.8	FOODEEG_Images\0136.jpg	NY	Left	No	0.51115719974041	0	445440	251
871.041015625	2	decision	foodImageDisplay	2	112	52	foodImage.8	FOODEEG_Images\0136.jpg	NY	Left	No	0.51115719974041	0	445974	252
873.103515625	0.51115719974041	decision	choicePhaseStart	2	112	52	foodImage.8	FOODEEG_Images\0136.jpg	NY	Left	No	0.51115719974041	0	447030	253
873.603515625	0	decision	response	2	112	52	foodImage.8	FOODEEG_Images\0136.jpg	NY	Left	No	0.51115719974041	0	447286	234
874.650390625	1	taste	trialStart	2	113	53	foodImage.69	FOODEEG_Images\0693.jpg	NY	Right	Yes	0.618765700142831	0	447822	251
875.69140625	2	taste	foodImageDisplay	2	113	53	foodImage.69	FOODEEG_Images\0693.jpg	NY	Right	Yes	0.618765700142831	0	448355	252
877.75390625	0.618765700142831	taste	choicePhaseStart	2	113	53	foodImage.69	FOODEEG_Images\0693.jpg	NY	Right	Yes	0.618765700142831	0	449411	253
878.36328125	0	taste	response	2	113	53	foodImage.69	FOODEEG_Images\0693.jpg	NY	Right	Yes	0.618765700142831	0	449723	235
879.408203125	1	decision	trialStart	2	114	54	foodImage.9	FOODEEG_Images\0138.jpg	NY	Left	No	0.612161899916828	0	450258	251
880.46484375	2	decision	foodImageDisplay	2	114	54	foodImage.9	FOODEEG_Images\0138.jpg	NY	Left	No	0.612161899916828	0	450799	252
882.52734375	0.612161899916828	decision	choicePhaseStart	2	114	54	foodImage.9	FOODEEG_Images\0138.jpg	NY	Left	No	0.612161899916828	0	451855	253
883.130859375	0	decision	response	2	114	54	foodImage.9	FOODEEG_Images\0138.jpg	NY	Left	No	0.612161899916828	0	452164	234
884.173828125	1	taste	trialStart	2	115	55	foodImage.89	FOODEEG_Images\0881.jpg	YN	Left	Yes	0.638763900380582	0	452698	251
885.23046875	2	taste	foodImageDisplay	2	115	55	foodImage.89	FOODEEG_Images\0881.jpg	YN	Left	Yes	0.638763900380582	0	453239	252
887.29296875	0.638763900380582	taste	choicePhaseStart	2	115	55	foodImage.89	FOODEEG_Images\0881.jpg	YN	Left	Yes	0.638763900380582	0	454295	253
887.923828125	0	taste	response	2	115	55	foodImage.89	FOODEEG_Images\0881.jpg	YN	Left	Yes	0.638763900380582	0	454618	234
888.970703125	1	health	trialStart	2	116	56	foodImage.92	FOODEEG_Images\0900.jpg	YN	Right	No	2.96613720012829	0	455154	251
890.0078125	2	health	foodImageDisplay	2	116	56	foodImage.92	FOODEEG_Images\0900.jpg	YN	Right	No	2.96613720012829	0	455685	252
892.0703125	2.96613720012829	health	choicePhaseStart	2	116	56	foodImage.92	FOODEEG_Images\0900.jpg	YN	Right	No	2.96613720012829	0	456741	253
895.02734375	0	health	response	2	116	56	foodImage.92	FOODEEG_Images\0900.jpg	YN	Right	No	2.96613720012829	0	458255	235
896.0703125	1	decision	trialStart	2	117	57	foodImage.93	FOODEEG_Images\0901.jpg	NY	Left	No	0.71210419991985	0	458789	251
897.109375	2	decision	foodImageDisplay	2	117	57	foodImage.93	FOODEEG_Images\0901.jpg	NY	Left	No	0.71210419991985	0	459321	252
899.171875	0.71210419991985	decision	choicePhaseStart	2	117	57	foodImage.93	FOODEEG_Images\0901.jpg	NY	Left	No	0.71210419991985	0	460377	253
899.875	0	decision	response	2	117	57	foodImage.93	FOODEEG_Images\0901.jpg	NY	Left	No	0.71210419991985	0	460737	234
900.916015625	1	taste	trialStart	2	118	58	foodImage.25	FOODEEG_Images\0261.jpg	NY	Right	Yes	0.689228700008243	0	461270	251
901.95703125	2	taste	foodImageDisplay	2	118	58	foodImage.25	FOODEEG_Images\0261.jpg	NY	Right	Yes	0.689228700008243	0	461803	252
904.01953125	0.689228700008243	taste	choicePhaseStart	2	118	58	foodImage.25	FOODEEG_Images\0261.jpg	NY	Right	Yes	0.689228700008243	0	462859	253
904.69921875	0	taste	response	2	118	58	foodImage.25	FOODEEG_Images\0261.jpg	NY	Right	Yes	0.689228700008243	0	463207	235
905.740234375	1	health	trialStart	2	119	59	foodImage.35	FOODEEG_Images\0350.jpg	YN	Left	Yes	0.739967199973762	0	463740	251
906.77734375	2	health	foodImageDisplay	2	119	59	foodImage.35	FOODEEG_Images\0350.jpg	YN	Left	Yes	0.739967199973762	0	464271	252
908.837890625	0.739967199973762	health	choicePhaseStart	2	119	59	foodImage.35	FOODEEG_Images\0350.jpg	YN	Left	Yes	0.739967199973762	0	465326	253
909.5703125	0	health	response	2	119	59	foodImage.35	FOODEEG_Images\0350.jpg	YN	Left	Yes	0.739967199973762	0	465701	234
910.61328125	1	decision	trialStart	2	120	60	foodImage.116	FOODEEG_Images\0924.jpg	YN	Right	No	0.709817599970847	0	466235	251
911.654296875	2	decision	foodImageDisplay	2	120	60	foodImage.116	FOODEEG_Images\0924.jpg	YN	Right	No	0.709817599970847	0	466768	252
913.716796875	0.709817599970847	decision	choicePhaseStart	2	120	60	foodImage.116	FOODEEG_Images\0924.jpg	YN	Right	No	0.709817599970847	0	467824	253
914.41796875	0	decision	response	2	120	60	foodImage.116	FOODEEG_Images\0924.jpg	YN	Right	No	0.709817599970847	0	468183	235
916.462890625	64.8359375	n/a	blockEnd	n/a	n/a	n/a	n/a	n/a	n/a	n/a	n/a	n/a	n/a	469230	254
981.298828125	2	n/a	blockStart	3	n/a	n/a	n/a	n/a	n/a	n/a	n/a	n/a	n/a	502426	250
983.330078125	1	health	trialStart	3	121	1	foodImage.93	FOODEEG_Images\0901.jpg	YN	Left	Yes	0.633221100084484	0	503466	251
984.3671875	2	health	foodImageDisplay	3	121	1	foodImage.93	FOODEEG_Images\0901.jpg	YN	Left	Yes	0.633221100084484	0	503997	252
986.431640625	0.633221100084484	health	choicePhaseStart	3	121	1	foodImage.93	FOODEEG_Images\0901.jpg	YN	Left	Yes	0.633221100084484	0	505054	253
987.0546875	0	health	response	3	121	1	foodImage.93	FOODEEG_Images\0901.jpg	YN	Left	Yes	0.633221100084484	0	505373	234
988.099609375	1	taste	trialStart	3	122	2	foodImage.54	FOODEEG_Images\0560.jpg	YN	Left	Yes	0.685413599945605	0	505908	251
989.15625	2	taste	foodImageDisplay	3	122	2	foodImage.54	FOODEEG_Images\0560.jpg	YN	Left	Yes	0.685413599945605	0	506449	252
991.21875	0.685413599945605	taste	choicePhaseStart	3	122	2	foodImage.54	FOODEEG_Images\0560.jpg	YN	Left	Yes	0.685413599945605	0	507505	253
991.89453125	0	taste	response	3	122	2	foodImage.54	FOODEEG_Images\0560.jpg	YN	Left	Yes	0.685413599945605	0	507851	234
992.9375	1	health	trialStart	3	123	3	foodImage.17	FOODEEG_Images\0199.jpg	NY	Right	Yes	0.588768400251865	0	508385	251
993.98046875	2	health	foodImageDisplay	3	123	3	foodImage.17	FOODEEG_Images\0199.jpg	NY	Right	Yes	0.588768400251865	0	508919	252
996.04296875	0.588768400251865	health	choicePhaseStart	3	123	3	foodImage.17	FOODEEG_Images\0199.jpg	NY	Right	Yes	0.588768400251865	0	509975	253
996.623046875	0	health	response	3	123	3	foodImage.17	FOODEEG_Images\0199.jpg	NY	Right	Yes	0.588768400251865	0	510272	235
997.6640625	1	decision	trialStart	3	124	4	foodImage.62	FOODEEG_Images\0644.jpg	NY	Right	Yes	0.753044699784368	0	510805	251
998.720703125	2	decision	foodImageDisplay	3	124	4	foodImage.62	FOODEEG_Images\0644.jpg	NY	Right	Yes	0.753044699784368	0	511346	252
1000.783203125	0.753044699784368	decision	choicePhaseStart	3	124	4	foodImage.62	FOODEEG_Images\0644.jpg	NY	Right	Yes	0.753044699784368	0	512402	253
1001.52734375	0	decision	response	3	124	4	foodImage.62	FOODEEG_Images\0644.jpg	NY	Right	Yes	0.753044699784368	0	512783	235
1002.56640625	1	taste	trialStart	3	125	5	foodImage.113	FOODEEG_Images\0921.jpg	NY	Left	No	0.69372299965471	0	513315	251
1003.611328125	2	taste	foodImageDisplay	3	125	5	foodImage.113	FOODEEG_Images\0921.jpg	NY	Left	No	0.69372299965471	0	513850	252
1005.673828125	0.69372299965471	taste	choicePhaseStart	3	125	5	foodImage.113	FOODEEG_Images\0921.jpg	NY	Left	No	0.69372299965471	0	514906	253
1006.359375	0	taste	response	3	125	5	foodImage.113	FOODEEG_Images\0921.jpg	NY	Left	No	0.69372299965471	0	515257	234
1007.40234375	1	decision	trialStart	3	126	6	foodImage.53	FOODEEG_Images\0547.jpg	YN	Right	No	0.616750699933618	0	515791	251
1008.45703125	2	decision	foodImageDisplay	3	126	6	foodImage.53	FOODEEG_Images\0547.jpg	YN	Right	No	0.616750699933618	0	516331	252
1010.51953125	0.616750699933618	decision	choicePhaseStart	3	126	6	foodImage.53	FOODEEG_Images\0547.jpg	YN	Right	No	0.616750699933618	0	517387	253
1011.126953125	0	decision	response	3	126	6	foodImage.53	FOODEEG_Images\0547.jpg	YN	Right	No	0.616750699933618	0	517698	235
1012.169921875	1	taste	trialStart	3	127	7	foodImage.56	FOODEEG_Images\0586.jpg	YN	Left	Yes	0.614366000052541	0	518232	251
1013.21875	2	taste	foodImageDisplay	3	127	7	foodImage.56	FOODEEG_Images\0586.jpg	YN	Left	Yes	0.614366000052541	0	518769	252
1015.28125	0.614366000052541	taste	choicePhaseStart	3	127	7	foodImage.56	FOODEEG_Images\0586.jpg	YN	Left	Yes	0.614366000052541	0	519825	253
1015.88671875	0	taste	response	3	127	7	foodImage.56	FOODEEG_Images\0586.jpg	YN	Left	Yes	0.614366000052541	0	520135	234
1016.9296875	1	health	trialStart	3	128	8	foodImage.67	FOODEEG_Images\0679.jpg	NY	Right	Yes	0.661627599969506	0	520669	251
1017.98828125	2	health	foodImageDisplay	3	128	8	foodImage.67	FOODEEG_Images\0679.jpg	NY	Right	Yes	0.661627599969506	0	521211	252
1020.05078125	0.661627599969506	health	choicePhaseStart	3	128	8	foodImage.67	FOODEEG_Images\0679.jpg	NY	Right	Yes	0.661627599969506	0	522267	253
1020.701171875	0	health	response	3	128	8	foodImage.67	FOODEEG_Images\0679.jpg	NY	Right	Yes	0.661627599969506	0	522600	235
1021.75	1	taste	trialStart	3	129	9	foodImage.8	FOODEEG_Images\0136.jpg	NY	Left	No	0.842098199762404	0	523137	251
1022.791015625	2	taste	foodImageDisplay	3	129	9	foodImage.8	FOODEEG_Images\0136.jpg	NY	Left	No	0.842098199762404	0	523670	252
1024.853515625	0.842098199762404	taste	choicePhaseStart	3	129	9	foodImage.8	FOODEEG_Images\0136.jpg	NY	Left	No	0.842098199762404	0	524726	253
1025.685546875	0	taste	response	3	129	9	foodImage.8	FOODEEG_Images\0136.jpg	NY	Left	No	0.842098199762404	0	525152	234
1026.728515625	1	health	trialStart	3	130	10	foodImage.94	FOODEEG_Images\0902.jpg	NY	Right	Yes	0.626708700321615	0	525686	251
1027.765625	2	health	foodImageDisplay	3	130	10	foodImage.94	FOODEEG_Images\0902.jpg	NY	Right	Yes	0.626708700321615	0	526217	252
1029.828125	0.626708700321615	health	choicePhaseStart	3	130	10	foodImage.94	FOODEEG_Images\0902.jpg	NY	Right	Yes	0.626708700321615	0	527273	253
1030.4453125	0	health	response	3	130	10	foodImage.94	FOODEEG_Images\0902.jpg	NY	Right	Yes	0.626708700321615	0	527589	235
1031.48828125	1	taste	trialStart	3	131	11	foodImage.63	FOODEEG_Images\0645.jpg	YN	Left	Yes	0.672220900189131	0	528123	251
1032.529296875	2	taste	foodImageDisplay	3	131	11	foodImage.63	FOODEEG_Images\0645.jpg	YN	Left	Yes	0.672220900189131	0	528656	252
1034.58984375	0.672220900189131	taste	choicePhaseStart	3	131	11	foodImage.63	FOODEEG_Images\0645.jpg	YN	Left	Yes	0.672220900189131	0	529711	253
1035.25390625	0	taste	response	3	131	11	foodImage.63	FOODEEG_Images\0645.jpg	YN	Left	Yes	0.672220900189131	0	530051	234
1036.294921875	1	decision	trialStart	3	132	12	foodImage.90	FOODEEG_Images\0890.jpg	YN	Left	Yes	0.675846400205046	0	530584	251
1037.35546875	2	decision	foodImageDisplay	3	132	12	foodImage.90	FOODEEG_Images\0890.jpg	YN	Left	Yes	0.675846400205046	0	531127	252
1039.41796875	0.675846400205046	decision	choicePhaseStart	3	132	12	foodImage.90	FOODEEG_Images\0890.jpg	YN	Left	Yes	0.675846400205046	0	532183	253
1040.0859375	0	decision	response	3	132	12	foodImage.90	FOODEEG_Images\0890.jpg	YN	Left	Yes	0.675846400205046	0	532525	234
1041.12890625	1	taste	trialStart	3	133	13	foodImage.48	FOODEEG_Images\0494.jpg	YN	Right	No	0.835264500230551	0	533059	251
1042.171875	2	taste	foodImageDisplay	3	133	13	foodImage.48	FOODEEG_Images\0494.jpg	YN	Right	No	0.835264500230551	0	533593	252
1044.234375	0.835264500230551	taste	choicePhaseStart	3	133	13	foodImage.48	FOODEEG_Images\0494.jpg	YN	Right	No	0.835264500230551	0	534649	253
1045.060546875	0	taste	response	3	133	13	foodImage.48	FOODEEG_Images\0494.jpg	YN	Right	No	0.835264500230551	0	535072	235
1046.103515625	1	decision	trialStart	3	134	14	foodImage.97	FOODEEG_Images\0905.jpg	NY	Left	No	0.608263500034809	0	535606	251
1047.142578125	2	decision	foodImageDisplay	3	134	14	foodImage.97	FOODEEG_Images\0905.jpg	NY	Left	No	0.608263500034809	0	536138	252
1049.205078125	0.608263500034809	decision	choicePhaseStart	3	134	14	foodImage.97	FOODEEG_Images\0905.jpg	NY	Left	No	0.608263500034809	0	537194	253
1049.8046875	0	decision	response	3	134	14	foodImage.97	FOODEEG_Images\0905.jpg	NY	Left	No	0.608263500034809	0	537501	234
1050.849609375	1	decision	trialStart	3	135	15	foodImage.33	FOODEEG_Images\0329.jpg	NY	Right	Yes	0.584868500009179	0	538036	251
1051.890625	2	decision	foodImageDisplay	3	135	15	foodImage.33	FOODEEG_Images\0329.jpg	NY	Right	Yes	0.584868500009179	0	538569	252
1053.95703125	0.584868500009179	decision	choicePhaseStart	3	135	15	foodImage.33	FOODEEG_Images\0329.jpg	NY	Right	Yes	0.584868500009179	0	539627	253
1054.533203125	0	decision	response	3	135	15	foodImage.33	FOODEEG_Images\0329.jpg	NY	Right	Yes	0.584868500009179	0	539922	235
1055.57421875	1	taste	trialStart	3	136	16	foodImage.70	FOODEEG_Images\0705.jpg	YN	Left	Yes	0.648633100092411	0	540455	251
1056.630859375	2	taste	foodImageDisplay	3	136	16	foodImage.70	FOODEEG_Images\0705.jpg	YN	Left	Yes	0.648633100092411	0	540996	252
1058.693359375	0.648633100092411	taste	choicePhaseStart	3	136	16	foodImage.70	FOODEEG_Images\0705.jpg	YN	Left	Yes	0.648633100092411	0	542052	253
1059.33203125	0	taste	response	3	136	16	foodImage.70	FOODEEG_Images\0705.jpg	YN	Left	Yes	0.648633100092411	0	542379	234
1060.375	1	decision	trialStart	3	137	17	foodImage.24	FOODEEG_Images\0250.jpg	NY	Right	Yes	0.572694799862802	0	542913	251
1061.41796875	2	decision	foodImageDisplay	3	137	17	foodImage.24	FOODEEG_Images\0250.jpg	NY	Right	Yes	0.572694799862802	0	543447	252
1063.48046875	0.572694799862802	decision	choicePhaseStart	3	137	17	foodImage.24	FOODEEG_Images\0250.jpg	NY	Right	Yes	0.572694799862802	0	544503	253
1064.044921875	0	decision	response	3	137	17	foodImage.24	FOODEEG_Images\0250.jpg	NY	Right	Yes	0.572694799862802	0	544792	235
1065.087890625	1	health	trialStart	3	138	18	foodImage.13	FOODEEG_Images\0183.jpg	NY	Right	Yes	0.693546600174159	0	545326	251
1066.12890625	2	health	foodImageDisplay	3	138	18	foodImage.13	FOODEEG_Images\0183.jpg	NY	Right	Yes	0.693546600174159	0	545859	252
1068.19140625	0.693546600174159	health	choicePhaseStart	3	138	18	foodImage.13	FOODEEG_Images\0183.jpg	NY	Right	Yes	0.693546600174159	0	546915	253
1068.876953125	0	health	response	3	138	18	foodImage.13	FOODEEG_Images\0183.jpg	NY	Right	Yes	0.693546600174159	0	547266	235
1069.91796875	1	taste	trialStart	3	139	19	foodImage.90	FOODEEG_Images\0890.jpg	NY	Right	Yes	0.551001800224185	0	547799	251
1070.974609375	2	taste	foodImageDisplay	3	139	19	foodImage.90	FOODEEG_Images\0890.jpg	NY	Right	Yes	0.551001800224185	0	548340	252
1073.037109375	0.551001800224185	taste	choicePhaseStart	3	139	19	foodImage.90	FOODEEG_Images\0890.jpg	NY	Right	Yes	0.551001800224185	0	549396	253
1073.580078125	0	taste	response	3	139	19	foodImage.90	FOODEEG_Images\0890.jpg	NY	Right	Yes	0.551001800224185	0	549674	235
1074.623046875	1	decision	trialStart	3	140	20	foodImage.2	FOODEEG_Images\0028.jpg	NY	Right	Yes	0.606531500350684	0	550208	251
1075.662109375	2	decision	foodImageDisplay	3	140	20	foodImage.2	FOODEEG_Images\0028.jpg	NY	Right	Yes	0.606531500350684	0	550740	252
1077.724609375	0.606531500350684	decision	choicePhaseStart	3	140	20	foodImage.2	FOODEEG_Images\0028.jpg	NY	Right	Yes	0.606531500350684	0	551796	253
1078.32421875	0	decision	response	3	140	20	foodImage.2	FOODEEG_Images\0028.jpg	NY	Right	Yes	0.606531500350684	0	552103	235
1079.365234375	1	taste	trialStart	3	141	21	foodImage.34	FOODEEG_Images\0339.jpg	YN	Left	Yes	0.713615099899471	0	552636	251
1080.421875	2	taste	foodImageDisplay	3	141	21	foodImage.34	FOODEEG_Images\0339.jpg	YN	Left	Yes	0.713615099899471	0	553177	252
1082.484375	0.713615099899471	taste	choicePhaseStart	3	141	21	foodImage.34	FOODEEG_Images\0339.jpg	YN	Left	Yes	0.713615099899471	0	554233	253
1083.1875	0	taste	response	3	141	21	foodImage.34	FOODEEG_Images\0339.jpg	YN	Left	Yes	0.713615099899471	0	554593	234
1084.232421875	1	taste	trialStart	3	142	22	foodImage.58	FOODEEG_Images\0605.jpg	YN	Right	No	0.685809900052845	0	555128	251
1085.2890625	2	taste	foodImageDisplay	3	142	22	foodImage.58	FOODEEG_Images\0605.jpg	YN	Right	No	0.685809900052845	0	555669	252
1087.3515625	0.685809900052845	taste	choicePhaseStart	3	142	22	foodImage.58	FOODEEG_Images\0605.jpg	YN	Right	No	0.685809900052845	0	556725	253
1088.02734375	0	taste	response	3	142	22	foodImage.58	FOODEEG_Images\0605.jpg	YN	Right	No	0.685809900052845	0	557071	235
1089.0703125	1	taste	trialStart	3	143	23	foodImage.80	FOODEEG_Images\0796.jpg	YN	Left	Yes	0.606374099850655	0	557605	251
1090.126953125	2	taste	foodImageDisplay	3	143	23	foodImage.80	FOODEEG_Images\0796.jpg	YN	Left	Yes	0.606374099850655	0	558146	252
1092.189453125	0.606374099850655	taste	choicePhaseStart	3	143	23	foodImage.80	FOODEEG_Images\0796.jpg	YN	Left	Yes	0.606374099850655	0	559202	253
1092.787109375	0	taste	response	3	143	23	foodImage.80	FOODEEG_Images\0796.jpg	YN	Left	Yes	0.606374099850655	0	559508	234
1093.826171875	1	decision	trialStart	3	144	24	foodImage.103	FOODEEG_Images\0911.jpg	NY	Left	No	0.652278100140393	0	560040	251
1094.865234375	2	decision	foodImageDisplay	3	144	24	foodImage.103	FOODEEG_Images\0911.jpg	NY	Left	No	0.652278100140393	0	560572	252
1096.927734375	0.652278100140393	decision	choicePhaseStart	3	144	24	foodImage.103	FOODEEG_Images\0911.jpg	NY	Left	No	0.652278100140393	0	561628	253
1097.5703125	0	decision	response	3	144	24	foodImage.103	FOODEEG_Images\0911.jpg	NY	Left	No	0.652278100140393	0	561957	234
1098.61328125	1	taste	trialStart	3	145	25	foodImage.74	FOODEEG_Images\0752.jpg	YN	Left	Yes	0.554479900281876	0	562491	251
1099.658203125	2	taste	foodImageDisplay	3	145	25	foodImage.74	FOODEEG_Images\0752.jpg	YN	Left	Yes	0.554479900281876	0	563026	252
1101.720703125	0.554479900281876	taste	choicePhaseStart	3	145	25	foodImage.74	FOODEEG_Images\0752.jpg	YN	Left	Yes	0.554479900281876	0	564082	253
1102.267578125	0	taste	response	3	145	25	foodImage.74	FOODEEG_Images\0752.jpg	YN	Left	Yes	0.554479900281876	0	564362	234
1103.310546875	1	taste	trialStart	3	146	26	foodImage.20	FOODEEG_Images\0226.jpg	NY	Right	Yes	0.727231999859214	0	564896	251
1104.3515625	2	taste	foodImageDisplay	3	146	26	foodImage.20	FOODEEG_Images\0226.jpg	NY	Right	Yes	0.727231999859214	0	565429	252
1106.4140625	0.727231999859214	taste	choicePhaseStart	3	146	26	foodImage.20	FOODEEG_Images\0226.jpg	NY	Right	Yes	0.727231999859214	0	566485	253
1107.130859375	0	taste	response	3	146	26	foodImage.20	FOODEEG_Images\0226.jpg	NY	Right	Yes	0.727231999859214	0	566852	235
1108.171875	1	decision	trialStart	3	147	27	foodImage.47	FOODEEG_Images\0488.jpg	YN	Left	Yes	0.719582899939269	0	567385	251
1109.212890625	2	decision	foodImageDisplay	3	147	27	foodImage.47	FOODEEG_Images\0488.jpg	YN	Left	Yes	0.719582899939269	0	567918	252
1111.275390625	0.719582899939269	decision	choicePhaseStart	3	147	27	foodImage.47	FOODEEG_Images\0488.jpg	YN	Left	Yes	0.719582899939269	0	568974	253
1111.986328125	0	decision	response	3	147	27	foodImage.47	FOODEEG_Images\0488.jpg	YN	Left	Yes	0.719582899939269	0	569338	234
1113.033203125	1	decision	trialStart	3	148	28	foodImage.111	FOODEEG_Images\0919.jpg	YN	Right	No	0.510254899971187	0	569874	251
1114.0703125	2	decision	foodImageDisplay	3	148	28	foodImage.111	FOODEEG_Images\0919.jpg	YN	Right	No	0.510254899971187	0	570405	252
1116.1328125	0.510254899971187	decision	choicePhaseStart	3	148	28	foodImage.111	FOODEEG_Images\0919.jpg	YN	Right	No	0.510254899971187	0	571461	253
1116.634765625	0	decision	response	3	148	28	foodImage.111	FOODEEG_Images\0919.jpg	YN	Right	No	0.510254899971187	0	571718	235
1117.677734375	1	taste	trialStart	3	149	29	foodImage.98	FOODEEG_Images\0906.jpg	NY	Left	No	0.598563600331545	0	572252	251
1118.716796875	2	taste	foodImageDisplay	3	149	29	foodImage.98	FOODEEG_Images\0906.jpg	NY	Left	No	0.598563600331545	0	572784	252
1120.779296875	0.598563600331545	taste	choicePhaseStart	3	149	29	foodImage.98	FOODEEG_Images\0906.jpg	NY	Left	No	0.598563600331545	0	573840	253
1121.369140625	0	taste	response	3	149	29	foodImage.98	FOODEEG_Images\0906.jpg	NY	Left	No	0.598563600331545	0	574142	234
1122.41015625	1	taste	trialStart	3	150	30	foodImage.43	FOODEEG_Images\0445.jpg	NY	Left	No	0.683873699977994	0	574675	251
1123.46484375	2	taste	foodImageDisplay	3	150	30	foodImage.43	FOODEEG_Images\0445.jpg	NY	Left	No	0.683873699977994	0	575215	252
1125.52734375	0.683873699977994	taste	choicePhaseStart	3	150	30	foodImage.43	FOODEEG_Images\0445.jpg	NY	Left	No	0.683873699977994	0	576271	253
1126.201171875	0	taste	response	3	150	30	foodImage.43	FOODEEG_Images\0445.jpg	NY	Left	No	0.683873699977994	0	576616	234
1127.2421875	1	health	trialStart	3	151	31	foodImage.50	FOODEEG_Images\0529.jpg	YN	Left	Yes	0.714675099588931	0	577149	251
1128.298828125	2	health	foodImageDisplay	3	151	31	foodImage.50	FOODEEG_Images\0529.jpg	YN	Left	Yes	0.714675099588931	0	577690	252
1130.361328125	0.714675099588931	health	choicePhaseStart	3	151	31	foodImage.50	FOODEEG_Images\0529.jpg	YN	Left	Yes	0.714675099588931	0	578746	253
1131.06640625	0	health	response	3	151	31	foodImage.50	FOODEEG_Images\0529.jpg	YN	Left	Yes	0.714675099588931	0	579107	234
1132.10546875	1	health	trialStart	3	152	32	foodImage.49	FOODEEG_Images\0515.jpg	YN	Left	Yes	0.87574699986726	0	579639	251
1133.1484375	2	health	foodImageDisplay	3	152	32	foodImage.49	FOODEEG_Images\0515.jpg	YN	Left	Yes	0.87574699986726	0	580173	252
1135.21484375	0.87574699986726	health	choicePhaseStart	3	152	32	foodImage.49	FOODEEG_Images\0515.jpg	YN	Left	Yes	0.87574699986726	0	581231	253
1136.08203125	0	health	response	3	152	32	foodImage.49	FOODEEG_Images\0515.jpg	YN	Left	Yes	0.87574699986726	0	581675	234
1137.12109375	1	health	trialStart	3	153	33	foodImage.31	FOODEEG_Images\0294.jpg	YN	Left	Yes	1.07250070013106	0	582207	251
1138.1640625	2	health	foodImageDisplay	3	153	33	foodImage.31	FOODEEG_Images\0294.jpg	YN	Left	Yes	1.07250070013106	0	582741	252
1140.2265625	1.07250070013106	health	choicePhaseStart	3	153	33	foodImage.31	FOODEEG_Images\0294.jpg	YN	Left	Yes	1.07250070013106	0	583797	253
1141.2890625	0	health	response	3	153	33	foodImage.31	FOODEEG_Images\0294.jpg	YN	Left	Yes	1.07250070013106	0	584341	234
1142.333984375	1	health	trialStart	3	154	34	foodImage.100	FOODEEG_Images\0908.jpg	NY	Right	Yes	0.548124500084668	0	584876	251
1143.375	2	health	foodImageDisplay	3	154	34	foodImage.100	FOODEEG_Images\0908.jpg	NY	Right	Yes	0.548124500084668	0	585409	252
1145.439453125	0.548124500084668	health	choicePhaseStart	3	154	34	foodImage.100	FOODEEG_Images\0908.jpg	NY	Right	Yes	0.548124500084668	0	586466	253
1145.9765625	0	health	response	3	154	34	foodImage.100	FOODEEG_Images\0908.jpg	NY	Right	Yes	0.548124500084668	0	586741	235
1147.015625	1	decision	trialStart	3	155	35	foodImage.37	FOODEEG_Images\0359.jpg	YN	Right	No	1.88930030027404	0	587273	251
1148.05859375	2	decision	foodImageDisplay	3	155	35	foodImage.37	FOODEEG_Images\0359.jpg	YN	Right	No	1.88930030027404	0	587807	252
1150.12109375	1.88930030027404	decision	choicePhaseStart	3	155	35	foodImage.37	FOODEEG_Images\0359.jpg	YN	Right	No	1.88930030027404	0	588863	253
1152.001953125	0	decision	response	3	155	35	foodImage.37	FOODEEG_Images\0359.jpg	YN	Right	No	1.88930030027404	0	589826	235
1153.041015625	1	health	trialStart	3	156	36	foodImage.14	FOODEEG_Images\0188.jpg	YN	Right	No	0.849094500299543	0	590358	251
1154.09765625	2	health	foodImageDisplay	3	156	36	foodImage.14	FOODEEG_Images\0188.jpg	YN	Right	No	0.849094500299543	0	590899	252
1156.16015625	0.849094500299543	health	choicePhaseStart	3	156	36	foodImage.14	FOODEEG_Images\0188.jpg	YN	Right	No	0.849094500299543	0	591955	253
1157	0	health	response	3	156	36	foodImage.14	FOODEEG_Images\0188.jpg	YN	Right	No	0.849094500299543	0	592385	235
1158.041015625	1	health	trialStart	3	157	37	foodImage.6	FOODEEG_Images\0113.jpg	YN	Right	No	0.754603500012308	0	592918	251
1159.080078125	2	health	foodImageDisplay	3	157	37	foodImage.6	FOODEEG_Images\0113.jpg	YN	Right	No	0.754603500012308	0	593450	252
1161.140625	0.754603500012308	health	choicePhaseStart	3	157	37	foodImage.6	FOODEEG_Images\0113.jpg	YN	Right	No	0.754603500012308	0	594505	253
1161.888671875	0	health	response	3	157	37	foodImage.6	FOODEEG_Images\0113.jpg	YN	Right	No	0.754603500012308	0	594888	235
1162.953125	1	taste	trialStart	3	158	38	foodImage.114	FOODEEG_Images\0922.jpg	YN	Right	No	1.92406130023301	0	595433	251
1163.990234375	2	taste	foodImageDisplay	3	158	38	foodImage.114	FOODEEG_Images\0922.jpg	YN	Right	No	1.92406130023301	0	595964	252
1166.052734375	1.92406130023301	taste	choicePhaseStart	3	158	38	foodImage.114	FOODEEG_Images\0922.jpg	YN	Right	No	1.92406130023301	0	597020	253
1167.96875	0	taste	response	3	158	38	foodImage.114	FOODEEG_Images\0922.jpg	YN	Right	No	1.92406130023301	0	598001	235
1169.009765625	1	taste	trialStart	3	159	39	foodImage.36	FOODEEG_Images\0352.jpg	NY	Right	Yes	0.931834099814296	0	598534	251
1170.064453125	2	taste	foodImageDisplay	3	159	39	foodImage.36	FOODEEG_Images\0352.jpg	NY	Right	Yes	0.931834099814296	0	599074	252
1172.126953125	0.931834099814296	taste	choicePhaseStart	3	159	39	foodImage.36	FOODEEG_Images\0352.jpg	NY	Right	Yes	0.931834099814296	0	600130	253
1173.048828125	0	taste	response	3	159	39	foodImage.36	FOODEEG_Images\0352.jpg	NY	Right	Yes	0.931834099814296	0	600602	235
1174.091796875	1	taste	trialStart	3	160	40	foodImage.116	FOODEEG_Images\0924.jpg	NY	Left	No	0.561776199843735	0	601136	251
1175.12890625	2	taste	foodImageDisplay	3	160	40	foodImage.116	FOODEEG_Images\0924.jpg	NY	Left	No	0.561776199843735	0	601667	252
1177.19140625	0.561776199843735	taste	choicePhaseStart	3	160	40	foodImage.116	FOODEEG_Images\0924.jpg	NY	Left	No	0.561776199843735	0	602723	253
1177.744140625	0	taste	response	3	160	40	foodImage.116	FOODEEG_Images\0924.jpg	NY	Left	No	0.561776199843735	0	603006	234
1178.787109375	1	health	trialStart	3	161	41	foodImage.105	FOODEEG_Images\0913.jpg	NY	Right	Yes	1.28743200004101	0	603540	251
1179.826171875	2	health	foodImageDisplay	3	161	41	foodImage.105	FOODEEG_Images\0913.jpg	NY	Right	Yes	1.28743200004101	0	604072	252
1181.888671875	1.28743200004101	health	choicePhaseStart	3	161	41	foodImage.105	FOODEEG_Images\0913.jpg	NY	Right	Yes	1.28743200004101	0	605128	253
1183.16796875	0	health	response	3	161	41	foodImage.105	FOODEEG_Images\0913.jpg	NY	Right	Yes	1.28743200004101	0	605783	235
1184.208984375	1	health	trialStart	3	162	42	foodImage.73	FOODEEG_Images\0717.jpg	YN	Left	Yes	0.961061799898744	0	606316	251
1185.263671875	2	health	foodImageDisplay	3	162	42	foodImage.73	FOODEEG_Images\0717.jpg	YN	Left	Yes	0.961061799898744	0	606856	252
1187.326171875	0.961061799898744	health	choicePhaseStart	3	162	42	foodImage.73	FOODEEG_Images\0717.jpg	YN	Left	Yes	0.961061799898744	0	607912	253
1188.279296875	0	health	response	3	162	42	foodImage.73	FOODEEG_Images\0717.jpg	YN	Left	Yes	0.961061799898744	0	608400	234
1189.3203125	1	taste	trialStart	3	163	43	foodImage.31	FOODEEG_Images\0294.jpg	NY	Right	Yes	0.583292399998754	0	608933	251
1190.361328125	2	taste	foodImageDisplay	3	163	43	foodImage.31	FOODEEG_Images\0294.jpg	NY	Right	Yes	0.583292399998754	0	609466	252
1192.423828125	0.583292399998754	taste	choicePhaseStart	3	163	43	foodImage.31	FOODEEG_Images\0294.jpg	NY	Right	Yes	0.583292399998754	0	610522	253
1193	0	taste	response	3	163	43	foodImage.31	FOODEEG_Images\0294.jpg	NY	Right	Yes	0.583292399998754	0	610817	235
1194.04296875	1	health	trialStart	3	164	44	foodImage.44	FOODEEG_Images\0459.jpg	NY	Right	Yes	0.600741100031883	0	611351	251
1195.087890625	2	health	foodImageDisplay	3	164	44	foodImage.44	FOODEEG_Images\0459.jpg	NY	Right	Yes	0.600741100031883	0	611886	252
1197.15234375	0.600741100031883	health	choicePhaseStart	3	164	44	foodImage.44	FOODEEG_Images\0459.jpg	NY	Right	Yes	0.600741100031883	0	612943	253
1197.7421875	0	health	response	3	164	44	foodImage.44	FOODEEG_Images\0459.jpg	NY	Right	Yes	0.600741100031883	0	613245	235
1198.78515625	1	health	trialStart	3	165	45	foodImage.109	FOODEEG_Images\0917.jpg	NY	Left	No	0.720344300381839	0	613779	251
1199.822265625	2	health	foodImageDisplay	3	165	45	foodImage.109	FOODEEG_Images\0917.jpg	NY	Left	No	0.720344300381839	0	614310	252
1201.884765625	0.720344300381839	health	choicePhaseStart	3	165	45	foodImage.109	FOODEEG_Images\0917.jpg	NY	Left	No	0.720344300381839	0	615366	253
1202.599609375	0	health	response	3	165	45	foodImage.109	FOODEEG_Images\0917.jpg	NY	Left	No	0.720344300381839	0	615732	234
1203.642578125	1	health	trialStart	3	166	46	foodImage.7	FOODEEG_Images\0116.jpg	NY	Left	No	0.747620299924165	0	616266	251
1204.685546875	2	health	foodImageDisplay	3	166	46	foodImage.7	FOODEEG_Images\0116.jpg	NY	Left	No	0.747620299924165	0	616800	252
1206.748046875	0.747620299924165	health	choicePhaseStart	3	166	46	foodImage.7	FOODEEG_Images\0116.jpg	NY	Left	No	0.747620299924165	0	617856	253
1207.486328125	0	health	response	3	166	46	foodImage.7	FOODEEG_Images\0116.jpg	NY	Left	No	0.747620299924165	0	618234	234
1208.529296875	1	health	trialStart	3	167	47	foodImage.118	FOODEEG_Images\0926.jpg	YN	Right	No	0.737486199941486	0	618768	251
1209.56640625	2	health	foodImageDisplay	3	167	47	foodImage.118	FOODEEG_Images\0926.jpg	YN	Right	No	0.737486199941486	0	619299	252
1211.62890625	0.737486199941486	health	choicePhaseStart	3	167	47	foodImage.118	FOODEEG_Images\0926.jpg	YN	Right	No	0.737486199941486	0	620355	253
1212.357421875	0	health	response	3	167	47	foodImage.118	FOODEEG_Images\0926.jpg	YN	Right	No	0.737486199941486	0	620728	235
1213.3984375	1	taste	trialStart	3	168	48	foodImage.92	FOODEEG_Images\0900.jpg	YN	Right	No	0.870230700355023	0	621261	251
1214.435546875	2	taste	foodImageDisplay	3	168	48	foodImage.92	FOODEEG_Images\0900.jpg	YN	Right	No	0.870230700355023	0	621792	252
1216.498046875	0.870230700355023	taste	choicePhaseStart	3	168	48	foodImage.92	FOODEEG_Images\0900.jpg	YN	Right	No	0.870230700355023	0	622848	253
1217.357421875	0	taste	response	3	168	48	foodImage.92	FOODEEG_Images\0900.jpg	YN	Right	No	0.870230700355023	0	623288	235
1218.40234375	1	health	trialStart	3	169	49	foodImage.36	FOODEEG_Images\0352.jpg	YN	Left	Yes	0.567989700008184	0	623823	251
1219.45703125	2	health	foodImageDisplay	3	169	49	foodImage.36	FOODEEG_Images\0352.jpg	YN	Left	Yes	0.567989700008184	0	624363	252
1221.51953125	0.567989700008184	health	choicePhaseStart	3	169	49	foodImage.36	FOODEEG_Images\0352.jpg	YN	Left	Yes	0.567989700008184	0	625419	253
1222.078125	0	health	response	3	169	49	foodImage.36	FOODEEG_Images\0352.jpg	YN	Left	Yes	0.567989700008184	0	625705	234
1223.12109375	1	taste	trialStart	3	170	50	foodImage.1	FOODEEG_Images\0004.jpg	YN	Left	Yes	0.580920699983835	0	626239	251
1224.1640625	2	taste	foodImageDisplay	3	170	50	foodImage.1	FOODEEG_Images\0004.jpg	YN	Left	Yes	0.580920699983835	0	626773	252
1226.2265625	0.580920699983835	taste	choicePhaseStart	3	170	50	foodImage.1	FOODEEG_Images\0004.jpg	YN	Left	Yes	0.580920699983835	0	627829	253
1226.798828125	0	taste	response	3	170	50	foodImage.1	FOODEEG_Images\0004.jpg	YN	Left	Yes	0.580920699983835	0	628122	234
1227.83984375	1	health	trialStart	3	171	51	foodImage.107	FOODEEG_Images\0915.jpg	YN	Left	Yes	0.943415699992329	0	628655	251
1228.87890625	2	health	foodImageDisplay	3	171	51	foodImage.107	FOODEEG_Images\0915.jpg	YN	Left	Yes	0.943415699992329	0	629187	252
1230.943359375	0.943415699992329	health	choicePhaseStart	3	171	51	foodImage.107	FOODEEG_Images\0915.jpg	YN	Left	Yes	0.943415699992329	0	630244	253
1231.876953125	0	health	response	3	171	51	foodImage.107	FOODEEG_Images\0915.jpg	YN	Left	Yes	0.943415699992329	0	630722	234
1232.923828125	1	decision	trialStart	3	172	52	foodImage.110	FOODEEG_Images\0918.jpg	YN	Right	No	0.69655520003289	0	631258	251
1233.962890625	2	decision	foodImageDisplay	3	172	52	foodImage.110	FOODEEG_Images\0918.jpg	YN	Right	No	0.69655520003289	0	631790	252
1236.03125	0.69655520003289	decision	choicePhaseStart	3	172	52	foodImage.110	FOODEEG_Images\0918.jpg	YN	Right	No	0.69655520003289	0	632849	253
1236.716796875	0	decision	response	3	172	52	foodImage.110	FOODEEG_Images\0918.jpg	YN	Right	No	0.69655520003289	0	633200	235
1237.76171875	1	taste	trialStart	3	173	53	foodImage.24	FOODEEG_Images\0250.jpg	NY	Right	Yes	1.04399490030482	0	633735	251
1238.8046875	2	taste	foodImageDisplay	3	173	53	foodImage.24	FOODEEG_Images\0250.jpg	NY	Right	Yes	1.04399490030482	0	634269	252
1240.869140625	1.04399490030482	taste	choicePhaseStart	3	173	53	foodImage.24	FOODEEG_Images\0250.jpg	NY	Right	Yes	1.04399490030482	0	635326	253
1241.90234375	0	taste	response	3	173	53	foodImage.24	FOODEEG_Images\0250.jpg	NY	Right	Yes	1.04399490030482	0	635855	235
1242.94921875	1	decision	trialStart	3	174	54	foodImage.86	FOODEEG_Images\0844.jpg	YN	Left	Yes	0.742041800171137	0	636391	251
1244.009765625	2	decision	foodImageDisplay	3	174	54	foodImage.86	FOODEEG_Images\0844.jpg	YN	Left	Yes	0.742041800171137	0	636934	252
1246.072265625	0.742041800171137	decision	choicePhaseStart	3	174	54	foodImage.86	FOODEEG_Images\0844.jpg	YN	Left	Yes	0.742041800171137	0	637990	253
1246.8046875	0	decision	response	3	174	54	foodImage.86	FOODEEG_Images\0844.jpg	YN	Left	Yes	0.742041800171137	0	638365	234
1247.849609375	1	health	trialStart	3	175	55	foodImage.76	FOODEEG_Images\0766.jpg	NY	Right	Yes	0.785620899870992	0	638900	251
1248.89453125	2	health	foodImageDisplay	3	175	55	foodImage.76	FOODEEG_Images\0766.jpg	NY	Right	Yes	0.785620899870992	0	639435	252
1250.95703125	0.785620899870992	health	choicePhaseStart	3	175	55	foodImage.76	FOODEEG_Images\0766.jpg	NY	Right	Yes	0.785620899870992	0	640491	253
1251.732421875	0	health	response	3	175	55	foodImage.76	FOODEEG_Images\0766.jpg	NY	Right	Yes	0.785620899870992	0	640888	235
1252.775390625	1	health	trialStart	3	176	56	foodImage.48	FOODEEG_Images\0494.jpg	NY	Left	No	0.623155500274152	0	641422	251
1253.81640625	2	health	foodImageDisplay	3	176	56	foodImage.48	FOODEEG_Images\0494.jpg	NY	Left	No	0.623155500274152	0	641955	252
1255.87890625	0.623155500274152	health	choicePhaseStart	3	176	56	foodImage.48	FOODEEG_Images\0494.jpg	NY	Left	No	0.623155500274152	0	643011	253
1256.4921875	0	health	response	3	176	56	foodImage.48	FOODEEG_Images\0494.jpg	NY	Left	No	0.623155500274152	0	643325	234
1257.533203125	1	taste	trialStart	3	177	57	foodImage.75	FOODEEG_Images\0763.jpg	NY	Right	Yes	0.758145300205797	0	643858	251
1258.576171875	2	taste	foodImageDisplay	3	177	57	foodImage.75	FOODEEG_Images\0763.jpg	NY	Right	Yes	0.758145300205797	0	644392	252
1260.638671875	0.758145300205797	taste	choicePhaseStart	3	177	57	foodImage.75	FOODEEG_Images\0763.jpg	NY	Right	Yes	0.758145300205797	0	645448	253
1261.388671875	0	taste	response	3	177	57	foodImage.75	FOODEEG_Images\0763.jpg	NY	Right	Yes	0.758145300205797	0	645832	235
1262.43359375	1	health	trialStart	3	178	58	foodImage.89	FOODEEG_Images\0881.jpg	NY	Right	Yes	1.55874500004575	0	646367	251
1263.48828125	2	health	foodImageDisplay	3	178	58	foodImage.89	FOODEEG_Images\0881.jpg	NY	Right	Yes	1.55874500004575	0	646907	252
1265.55078125	1.55874500004575	health	choicePhaseStart	3	178	58	foodImage.89	FOODEEG_Images\0881.jpg	NY	Right	Yes	1.55874500004575	0	647963	253
1267.099609375	0	health	response	3	178	58	foodImage.89	FOODEEG_Images\0881.jpg	NY	Right	Yes	1.55874500004575	0	648756	235
1268.142578125	1	taste	trialStart	3	179	59	foodImage.11	FOODEEG_Images\0180.jpg	YN	Left	Yes	0.733486900106072	0	649290	251
1269.185546875	2	taste	foodImageDisplay	3	179	59	foodImage.11	FOODEEG_Images\0180.jpg	YN	Left	Yes	0.733486900106072	0	649824	252
1271.248046875	0.733486900106072	taste	choicePhaseStart	3	179	59	foodImage.11	FOODEEG_Images\0180.jpg	YN	Left	Yes	0.733486900106072	0	650880	253
1271.97265625	0	taste	response	3	179	59	foodImage.11	FOODEEG_Images\0180.jpg	YN	Left	Yes	0.733486900106072	0	651251	234
1273.01953125	1	health	trialStart	3	180	60	foodImage.98	FOODEEG_Images\0906.jpg	YN	Right	No	0.749579000286758	0	651787	251
1274.056640625	2	health	foodImageDisplay	3	180	60	foodImage.98	FOODEEG_Images\0906.jpg	YN	Right	No	0.749579000286758	0	652318	252
1276.119140625	0.749579000286758	health	choicePhaseStart	3	180	60	foodImage.98	FOODEEG_Images\0906.jpg	YN	Right	No	0.749579000286758	0	653374	253
1276.859375	0	health	response	3	180	60	foodImage.98	FOODEEG_Images\0906.jpg	YN	Right	No	0.749579000286758	0	653753	235
1278.904296875	94.87109375	n/a	blockEnd	n/a	n/a	n/a	n/a	n/a	n/a	n/a	n/a	n/a	n/a	654800	254
1373.775390625	2	n/a	blockStart	4	n/a	n/a	n/a	n/a	n/a	n/a	n/a	n/a	n/a	703374	250
1375.80859375	1	health	trialStart	4	181	1	foodImage.12	FOODEEG_Images\0181.jpg	NY	Right	Yes	0.613803399726748	0	704415	251
1376.8515625	2	health	foodImageDisplay	4	181	1	foodImage.12	FOODEEG_Images\0181.jpg	NY	Right	Yes	0.613803399726748	0	704949	252
1378.9140625	0.613803399726748	health	choicePhaseStart	4	181	1	foodImage.12	FOODEEG_Images\0181.jpg	NY	Right	Yes	0.613803399726748	0	706005	253
1379.51953125	0	health	response	4	181	1	foodImage.12	FOODEEG_Images\0181.jpg	NY	Right	Yes	0.613803399726748	0	706315	235
1380.564453125	1	taste	trialStart	4	182	2	foodImage.68	FOODEEG_Images\0685.jpg	YN	Left	Yes	0.698088999837637	0	706850	251
1381.640625	2	taste	foodImageDisplay	4	182	2	foodImage.68	FOODEEG_Images\0685.jpg	YN	Left	Yes	0.698088999837637	0	707401	252
1383.703125	0.698088999837637	taste	choicePhaseStart	4	182	2	foodImage.68	FOODEEG_Images\0685.jpg	YN	Left	Yes	0.698088999837637	0	708457	253
1384.390625	0	taste	response	4	182	2	foodImage.68	FOODEEG_Images\0685.jpg	YN	Left	Yes	0.698088999837637	0	708809	234
1385.431640625	1	decision	trialStart	4	183	3	foodImage.80	FOODEEG_Images\0796.jpg	YN	Left	Yes	0.714789799880236	0	709342	251
1386.48828125	2	decision	foodImageDisplay	4	183	3	foodImage.80	FOODEEG_Images\0796.jpg	YN	Left	Yes	0.714789799880236	0	709883	252
1388.548828125	0.714789799880236	decision	choicePhaseStart	4	183	3	foodImage.80	FOODEEG_Images\0796.jpg	YN	Left	Yes	0.714789799880236	0	710938	253
1389.255859375	0	decision	response	4	183	3	foodImage.80	FOODEEG_Images\0796.jpg	YN	Left	Yes	0.714789799880236	0	711300	234
1390.296875	1	decision	trialStart	4	184	4	foodImage.76	FOODEEG_Images\0766.jpg	YN	Right	No	0.610066100023687	0	711833	251
1391.337890625	2	decision	foodImageDisplay	4	184	4	foodImage.76	FOODEEG_Images\0766.jpg	YN	Right	No	0.610066100023687	0	712366	252
1393.40625	0.610066100023687	decision	choicePhaseStart	4	184	4	foodImage.76	FOODEEG_Images\0766.jpg	YN	Right	No	0.610066100023687	0	713425	253
1394.0078125	0	decision	response	4	184	4	foodImage.76	FOODEEG_Images\0766.jpg	YN	Right	No	0.610066100023687	0	713733	235
1395.05078125	1	decision	trialStart	4	185	5	foodImage.22	FOODEEG_Images\0236.jpg	NY	Right	Yes	0.54961230000481	0	714267	251
1396.091796875	2	decision	foodImageDisplay	4	185	5	foodImage.22	FOODEEG_Images\0236.jpg	NY	Right	Yes	0.54961230000481	0	714800	252
1398.154296875	0.54961230000481	decision	choicePhaseStart	4	185	5	foodImage.22	FOODEEG_Images\0236.jpg	NY	Right	Yes	0.54961230000481	0	715856	253
1398.6953125	0	decision	response	4	185	5	foodImage.22	FOODEEG_Images\0236.jpg	NY	Right	Yes	0.54961230000481	0	716133	235
1399.73828125	1	health	trialStart	4	186	6	foodImage.90	FOODEEG_Images\0890.jpg	YN	Left	Yes	0.611852400004864	0	716667	251
1400.796875	2	health	foodImageDisplay	4	186	6	foodImage.90	FOODEEG_Images\0890.jpg	YN	Left	Yes	0.611852400004864	0	717209	252
1402.859375	0.611852400004864	health	choicePhaseStart	4	186	6	foodImage.90	FOODEEG_Images\0890.jpg	YN	Left	Yes	0.611852400004864	0	718265	253
1403.462890625	0	health	response	4	186	6	foodImage.90	FOODEEG_Images\0890.jpg	YN	Left	Yes	0.611852400004864	0	718574	234
1404.50390625	1	decision	trialStart	4	187	7	foodImage.27	FOODEEG_Images\0263.jpg	NY	Right	Yes	0.558397400192916	0	719107	251
1405.546875	2	decision	foodImageDisplay	4	187	7	foodImage.27	FOODEEG_Images\0263.jpg	NY	Right	Yes	0.558397400192916	0	719641	252
1407.609375	0.558397400192916	decision	choicePhaseStart	4	187	7	foodImage.27	FOODEEG_Images\0263.jpg	NY	Right	Yes	0.558397400192916	0	720697	253
1408.158203125	0	decision	response	4	187	7	foodImage.27	FOODEEG_Images\0263.jpg	NY	Right	Yes	0.558397400192916	0	720978	235
1409.203125	1	decision	trialStart	4	188	8	foodImage.35	FOODEEG_Images\0350.jpg	NY	Right	Yes	0.543801300227642	0	721513	251
1410.240234375	2	decision	foodImageDisplay	4	188	8	foodImage.35	FOODEEG_Images\0350.jpg	NY	Right	Yes	0.543801300227642	0	722044	252
1412.302734375	0.543801300227642	decision	choicePhaseStart	4	188	8	foodImage.35	FOODEEG_Images\0350.jpg	NY	Right	Yes	0.543801300227642	0	723100	253
1412.83984375	0	decision	response	4	188	8	foodImage.35	FOODEEG_Images\0350.jpg	NY	Right	Yes	0.543801300227642	0	723375	235
1413.880859375	1	decision	trialStart	4	189	9	foodImage.118	FOODEEG_Images\0926.jpg	NY	Left	No	0.736538599710912	0	723908	251
1414.919921875	2	decision	foodImageDisplay	4	189	9	foodImage.118	FOODEEG_Images\0926.jpg	NY	Left	No	0.736538599710912	0	724440	252
1416.982421875	0.736538599710912	decision	choicePhaseStart	4	189	9	foodImage.118	FOODEEG_Images\0926.jpg	NY	Left	No	0.736538599710912	0	725496	253
1417.7109375	0	decision	response	4	189	9	foodImage.118	FOODEEG_Images\0926.jpg	NY	Left	No	0.736538599710912	0	725869	234
1418.751953125	1	decision	trialStart	4	190	10	foodImage.32	FOODEEG_Images\0319.jpg	NY	Right	Yes	0.643939099740237	0	726402	251
1419.794921875	2	decision	foodImageDisplay	4	190	10	foodImage.32	FOODEEG_Images\0319.jpg	NY	Right	Yes	0.643939099740237	0	726936	252
1421.857421875	0.643939099740237	decision	choicePhaseStart	4	190	10	foodImage.32	FOODEEG_Images\0319.jpg	NY	Right	Yes	0.643939099740237	0	727992	253
1422.494140625	0	decision	response	4	190	10	foodImage.32	FOODEEG_Images\0319.jpg	NY	Right	Yes	0.643939099740237	0	728318	235
1423.53515625	1	health	trialStart	4	191	11	foodImage.10	FOODEEG_Images\0145.jpg	YN	Right	No	1.15391719993204	0	728851	251
1424.58984375	2	health	foodImageDisplay	4	191	11	foodImage.10	FOODEEG_Images\0145.jpg	YN	Right	No	1.15391719993204	0	729391	252
1426.65234375	1.15391719993204	health	choicePhaseStart	4	191	11	foodImage.10	FOODEEG_Images\0145.jpg	YN	Right	No	1.15391719993204	0	730447	253
1427.798828125	0	health	response	4	191	11	foodImage.10	FOODEEG_Images\0145.jpg	YN	Right	No	1.15391719993204	0	731034	235
1428.83984375	1	taste	trialStart	4	192	12	foodImage.30	FOODEEG_Images\0282.jpg	YN	Left	Yes	1.55549929989502	0	731567	251
1429.884765625	2	taste	foodImageDisplay	4	192	12	foodImage.30	FOODEEG_Images\0282.jpg	YN	Left	Yes	1.55549929989502	0	732102	252
1431.947265625	1.55549929989502	taste	choicePhaseStart	4	192	12	foodImage.30	FOODEEG_Images\0282.jpg	YN	Left	Yes	1.55549929989502	0	733158	253
