onset	duration	trial_type	event_type	block	trial_total	trial_in_block	food_image_code	food_image_path	button_position	resp_position	resp_choice	choice_rt	resp_too_slow	sample	trigger
251.517578125	2	n/a	blockStart	1	n/a	n/a	n/a	n/a	n/a	n/a	n/a	n/a	n/a	128778	250
253.556640625	1	decision	trialStart	1	1	1	foodImage.97	FOODEEG_Images\0905.jpg	NY	Right	Yes	0.9027976999987	0	129822	251
254.599609375	2	decision	foodImageDisplay	1	1	1	foodImage.97	FOODEEG_Images\0905.jpg	NY	Right	Yes	0.9027976999987	0	130356	252
256.6640625	0.9027976999987	decision	choicePhaseStart	1	1	1	foodImage.97	FOODEEG_Images\0905.jpg	NY	Right	Yes	0.9027976999987	0	131413	253
257.55859375	0	decision	response	1	1	1	foodImage.97	FOODEEG_Images\0905.jpg	NY	Right	Yes	0.9027976999987	0	131871	235
258.64453125	1	decision	trialStart	1	2	2	foodImage.111	FOODEEG_Images\0919.jpg	NY	Left	No	0.898030399999698	0	132427	251
259.685546875	2	decision	foodImageDisplay	1	2	2	foodImage.111	FOODEEG_Images\0919.jpg	NY	Left	No	0.898030399999698	0	132960	252
261.75	0.898030399999698	decision	choicePhaseStart	1	2	2	foodImage.111	FOODEEG_Images\0919.jpg	NY	Left	No	0.898030399999698	0	134017	253
262.638671875	0	decision	response	1	2	2	foodImage.111	FOODEEG_Images\0919.jpg	NY	Left	No	0.898030399999698	0	134472	234
263.69140625	1	taste	trialStart	1	3	3	foodImage.120	FOODEEG_Images\0928.jpg	YN	Right	No	1.01227599999947	0	135011	251
264.73046875	2	taste	foodImageDisplay	1	3	3	foodImage.120	FOODEEG_Images\0928.jpg	YN	Right	No	1.01227599999947	0	135543	252
266.80078125	1.01227599999947	taste	choicePhaseStart	1	3	3	foodImage.120	FOODEEG_Images\0928.jpg	YN	Right	No	1.01227599999947	0	136603	253
267.806640625	0	taste	response	1	3	3	foodImage.120	FOODEEG_Images\0928.jpg	YN	Right	No	1.01227599999947	0	137118	235
268.857421875	1	decision	trialStart	1	4	4	foodImage.15	FOODEEG_Images\0189.jpg	NY	Right	Yes	0.82783980000022	0	137656	251
269.9140625	2	decision	foodImageDisplay	1	4	4	foodImage.15	FOODEEG_Images\0189.jpg	NY	Right	Yes	0.82783980000022	0	138197	252
271.98828125	0.82783980000022	decision	choicePhaseStart	1	4	4	foodImage.15	FOODEEG_Images\0189.jpg	NY	Right	Yes	0.82783980000022	0	139259	253
272.806640625	0	decision	response	1	4	4	foodImage.15	FOODEEG_Images\0189.jpg	NY	Right	Yes	0.82783980000022	0	139678	235
273.8515625	1	decision	trialStart	1	5	5	foodImage.94	FOODEEG_Images\0902.jpg	YN	Right	No	0.925337499998932	0	140213	251
274.91015625	2	decision	foodImageDisplay	1	5	5	foodImage.94	FOODEEG_Images\0902.jpg	YN	Right	No	0.925337499998932	0	140755	252
276.982421875	0.925337499998932	decision	choicePhaseStart	1	5	5	foodImage.94	FOODEEG_Images\0902.jpg	YN	Right	No	0.925337499998932	0	141816	253
277.90234375	0	decision	response	1	5	5	foodImage.94	FOODEEG_Images\0902.jpg	YN	Right	No	0.925337499998932	0	142287	235
278.951171875	1	taste	trialStart	1	6	6	foodImage.96	FOODEEG_Images\0904.jpg	NY	Left	No	1.58517000000029	0	142824	251
279.990234375	2	taste	foodImageDisplay	1	6	6	foodImage.96	FOODEEG_Images\0904.jpg	NY	Left	No	1.58517000000029	0	143356	252
282.0546875	1.58517000000029	taste	choicePhaseStart	1	6	6	foodImage.96	FOODEEG_Images\0904.jpg	NY	Left	No	1.58517000000029	0	144413	253
283.62890625	0	taste	response	1	6	6	foodImage.96	FOODEEG_Images\0904.jpg	NY	Left	No	1.58517000000029	0	145219	234
284.673828125	1	taste	trialStart	1	7	7	foodImage.46	FOODEEG_Images\0479.jpg	YN	Left	Yes	0.981599799999458	0	145754	251
285.744140625	2	taste	foodImageDisplay	1	7	7	foodImage.46	FOODEEG_Images\0479.jpg	YN	Left	Yes	0.981599799999458	0	146302	252
287.8125	0.981599799999458	taste	choicePhaseStart	1	7	7	foodImage.46	FOODEEG_Images\0479.jpg	YN	Left	Yes	0.981599799999458	0	147361	253
288.7890625	0	taste	response	1	7	7	foodImage.46	FOODEEG_Images\0479.jpg	YN	Left	Yes	0.981599799999458	0	147861	234
289.83203125	1	decision	trialStart	1	8	8	foodImage.24	FOODEEG_Images\0250.jpg	NY	Left	No	1.10509599999932	0	148395	251
290.873046875	2	decision	foodImageDisplay	1	8	8	foodImage.24	FOODEEG_Images\0250.jpg	NY	Left	No	1.10509599999932	0	148928	252
292.939453125	1.10509599999932	decision	choicePhaseStart	1	8	8	foodImage.24	FOODEEG_Images\0250.jpg	NY	Left	No	1.10509599999932	0	149986	253
294.037109375	0	decision	response	1	8	8	foodImage.24	FOODEEG_Images\0250.jpg	NY	Left	No	1.10509599999932	0	150548	234
295.08203125	1	health	trialStart	1	9	9	foodImage.88	FOODEEG_Images\0878.jpg	NY	Left	No	1.42036830000143	0	151083	251
296.13671875	2	health	foodImageDisplay	1	9	9	foodImage.88	FOODEEG_Images\0878.jpg	NY	Left	No	1.42036830000143	0	151623	252
298.201171875	1.42036830000143	health	choicePhaseStart	1	9	9	foodImage.88	FOODEEG_Images\0878.jpg	NY	Left	No	1.42036830000143	0	152680	253
299.61328125	0	health	response	1	9	9	foodImage.88	FOODEEG_Images\0878.jpg	NY	Left	No	1.42036830000143	0	153403	234
300.666015625	1	health	trialStart	1	10	10	foodImage.81	FOODEEG_Images\0797.jpg	YN	Left	Yes	0.879111300000659	0	153942	251
301.75	2	health	foodImageDisplay	1	10	10	foodImage.81	FOODEEG_Images\0797.jpg	YN	Left	Yes	0.879111300000659	0	154497	252
303.814453125	0.879111300000659	health	choicePhaseStart	1	10	10	foodImage.81	FOODEEG_Images\0797.jpg	YN	Left	Yes	0.879111300000659	0	155554	253
304.685546875	0	health	response	1	10	10	foodImage.81	FOODEEG_Images\0797.jpg	YN	Left	Yes	0.879111300000659	0	156000	234
305.734375	1	taste	trialStart	1	11	11	foodImage.111	FOODEEG_Images\0919.jpg	YN	Right	No	0.85347449999972	0	156537	251
306.7890625	2	taste	foodImageDisplay	1	11	11	foodImage.111	FOODEEG_Images\0919.jpg	YN	Right	No	0.85347449999972	0	157077	252
308.853515625	0.85347449999972	taste	choicePhaseStart	1	11	11	foodImage.111	FOODEEG_Images\0919.jpg	YN	Right	No	0.85347449999972	0	158134	253
309.701171875	0	taste	response	1	11	11	foodImage.111	FOODEEG_Images\0919.jpg	YN	Right	No	0.85347449999972	0	158568	235
310.75	1	taste	trialStart	1	12	12	foodImage.80	FOODEEG_Images\0796.jpg	YN	Left	Yes	1.12044470000001	0	159105	251
311.810546875	2	taste	foodImageDisplay	1	12	12	foodImage.80	FOODEEG_Images\0796.jpg	YN	Left	Yes	1.12044470000001	0	159648	252
313.880859375	1.12044470000001	taste	choicePhaseStart	1	12	12	foodImage.80	FOODEEG_Images\0796.jpg	YN	Left	Yes	1.12044470000001	0	160708	253
314.99609375	0	taste	response	1	12	12	foodImage.80	FOODEEG_Images\0796.jpg	YN	Left	Yes	1.12044470000001	0	161279	234
316.037109375	1	taste	trialStart	1	13	13	foodImage.36	FOODEEG_Images\0352.jpg	NY	Right	Yes	0.917344100000264	0	161812	251
317.12109375	2	taste	foodImageDisplay	1	13	13	foodImage.36	FOODEEG_Images\0352.jpg	NY	Right	Yes	0.917344100000264	0	162367	252
319.185546875	0.917344100000264	taste	choicePhaseStart	1	13	13	foodImage.36	FOODEEG_Images\0352.jpg	NY	Right	Yes	0.917344100000264	0	163424	253
320.091796875	0	taste	response	1	13	13	foodImage.36	FOODEEG_Images\0352.jpg	NY	Right	Yes	0.917344100000264	0	163888	235
321.13671875	1	taste	trialStart	1	14	14	foodImage.91	FOODEEG_Images\0896.jpg	NY	Right	Yes	0.855713400000241	0	164423	251
322.197265625	2	taste	foodImageDisplay	1	14	14	foodImage.91	FOODEEG_Images\0896.jpg	NY	Right	Yes	0.855713400000241	0	164966	252
324.26171875	0.855713400000241	taste	choicePhaseStart	1	14	14	foodImage.91	FOODEEG_Images\0896.jpg	NY	Right	Yes	0.855713400000241	0	166023	253
325.107421875	0	taste	response	1	14	14	foodImage.91	FOODEEG_Images\0896.jpg	NY	Right	Yes	0.855713400000241	0	166456	235
326.1484375	1	decision	trialStart	1	15	15	foodImage.2	FOODEEG_Images\0028.jpg	YN	Left	Yes	1.01345109999966	0	166989	251
327.19140625	2	decision	foodImageDisplay	1	15	15	foodImage.2	FOODEEG_Images\0028.jpg	YN	Left	Yes	1.01345109999966	0	167523	252
329.255859375	1.01345109999966	decision	choicePhaseStart	1	15	15	foodImage.2	FOODEEG_Images\0028.jpg	YN	Left	Yes	1.01345109999966	0	168580	253
330.259765625	0	decision	response	1	15	15	foodImage.2	FOODEEG_Images\0028.jpg	YN	Left	Yes	1.01345109999966	0	169094	234
331.306640625	1	health	trialStart	1	16	16	foodImage.46	FOODEEG_Images\0479.jpg	NY	Right	Yes	0.879989499999283	0	169630	251
332.380859375	2	health	foodImageDisplay	1	16	16	foodImage.46	FOODEEG_Images\0479.jpg	NY	Right	Yes	0.879989499999283	0	170180	252
334.453125	0.879989499999283	health	choicePhaseStart	1	16	16	foodImage.46	FOODEEG_Images\0479.jpg	NY	Right	Yes	0.879989499999283	0	171241	253
335.32421875	0	health	response	1	16	16	foodImage.46	FOODEEG_Images\0479.jpg	NY	Right	Yes	0.879989499999283	0	171687	235
336.37109375	1	health	trialStart	1	17	17	foodImage.98	FOODEEG_Images\0906.jpg	NY	Left	No	1.12146299999949	0	172223	251
337.41015625	2	health	foodImageDisplay	1	17	17	foodImage.98	FOODEEG_Images\0906.jpg	NY	Left	No	1.12146299999949	0	172755	252
339.478515625	1.12146299999949	health	choicePhaseStart	1	17	17	foodImage.98	FOODEEG_Images\0906.jpg	NY	Left	No	1.12146299999949	0	173814	253
340.595703125	0	health	response	1	17	17	foodImage.98	FOODEEG_Images\0906.jpg	NY	Left	No	1.12146299999949	0	174386	234
341.63671875	1	decision	trialStart	1	18	18	foodImage.101	FOODEEG_Images\0909.jpg	NY	Left	No	1.30999530000008	0	174919	251
342.677734375	2	decision	foodImageDisplay	1	18	18	foodImage.101	FOODEEG_Images\0909.jpg	NY	Left	No	1.30999530000008	0	175452	252
344.7421875	1.30999530000008	decision	choicePhaseStart	1	18	18	foodImage.101	FOODEEG_Images\0909.jpg	NY	Left	No	1.30999530000008	0	176509	253
346.04296875	0	decision	response	1	18	18	foodImage.101	FOODEEG_Images\0909.jpg	NY	Left	No	1.30999530000008	0	177175	234
347.083984375	1	taste	trialStart	1	19	19	foodImage.39	FOODEEG_Images\0367.jpg	NY	Right	Yes	0.875239000000875	0	177708	251
348.12109375	2	taste	foodImageDisplay	1	19	19	foodImage.39	FOODEEG_Images\0367.jpg	NY	Right	Yes	0.875239000000875	0	178239	252
350.19140625	0.875239000000875	taste	choicePhaseStart	1	19	19	foodImage.39	FOODEEG_Images\0367.jpg	NY	Right	Yes	0.875239000000875	0	179299	253
351.05859375	0	taste	response	1	19	19	foodImage.39	FOODEEG_Images\0367.jpg	NY	Right	Yes	0.875239000000875	0	179743	235
352.103515625	1	taste	trialStart	1	20	20	foodImage.50	FOODEEG_Images\0529.jpg	NY	Right	Yes	1.7565711999996	0	180278	251
353.16015625	2	taste	foodImageDisplay	1	20	20	foodImage.50	FOODEEG_Images\0529.jpg	NY	Right	Yes	1.7565711999996	0	180819	252
355.228515625	1.7565711999996	taste	choicePhaseStart	1	20	20	foodImage.50	FOODEEG_Images\0529.jpg	NY	Right	Yes	1.7565711999996	0	181878	253
356.978515625	0	taste	response	1	20	20	foodImage.50	FOODEEG_Images\0529.jpg	NY	Right	Yes	1.7565711999996	0	182774	235
358.01953125	1	taste	trialStart	1	21	21	foodImage.3	FOODEEG_Images\0046.jpg	NY	Right	Yes	0.789087699999072	0	183307	251
359.080078125	2	taste	foodImageDisplay	1	21	21	foodImage.3	FOODEEG_Images\0046.jpg	NY	Right	Yes	0.789087699999072	0	183850	252
361.1484375	0.789087699999072	taste	choicePhaseStart	1	21	21	foodImage.3	FOODEEG_Images\0046.jpg	NY	Right	Yes	0.789087699999072	0	184909	253
361.9296875	0	taste	response	1	21	21	foodImage.3	FOODEEG_Images\0046.jpg	NY	Right	Yes	0.789087699999072	0	185309	235
362.970703125	1	decision	trialStart	1	22	22	foodImage.46	FOODEEG_Images\0479.jpg	NY	Right	Yes	1.38747139999941	0	185842	251
364.02734375	2	decision	foodImageDisplay	1	22	22	foodImage.46	FOODEEG_Images\0479.jpg	NY	Right	Yes	1.38747139999941	0	186383	252
366.09375	1.38747139999941	decision	choicePhaseStart	1	22	22	foodImage.46	FOODEEG_Images\0479.jpg	NY	Right	Yes	1.38747139999941	0	187441	253
367.474609375	0	decision	response	1	22	22	foodImage.46	FOODEEG_Images\0479.jpg	NY	Right	Yes	1.38747139999941	0	188148	235
368.515625	1	decision	trialStart	1	23	23	foodImage.120	FOODEEG_Images\0928.jpg	YN	Right	No	1.23270260000027	0	188681	251
369.552734375	2	decision	foodImageDisplay	1	23	23	foodImage.120	FOODEEG_Images\0928.jpg	YN	Right	No	1.23270260000027	0	189212	252
371.619140625	1.23270260000027	decision	choicePhaseStart	1	23	23	foodImage.120	FOODEEG_Images\0928.jpg	YN	Right	No	1.23270260000027	0	190270	253
372.841796875	0	decision	response	1	23	23	foodImage.120	FOODEEG_Images\0928.jpg	YN	Right	No	1.23270260000027	0	190896	235
373.890625	1	health	trialStart	1	24	24	foodImage.89	FOODEEG_Images\0881.jpg	NY	Right	Yes	1.38980219999939	0	191433	251
374.947265625	2	health	foodImageDisplay	1	24	24	foodImage.89	FOODEEG_Images\0881.jpg	NY	Right	Yes	1.38980219999939	0	191974	252
377.01953125	1.38980219999939	health	choicePhaseStart	1	24	24	foodImage.89	FOODEEG_Images\0881.jpg	NY	Right	Yes	1.38980219999939	0	193035	253
378.40234375	0	health	response	1	24	24	foodImage.89	FOODEEG_Images\0881.jpg	NY	Right	Yes	1.38980219999939	0	193743	235
379.443359375	1	decision	trialStart	1	25	25	foodImage.16	FOODEEG_Images\0196.jpg	NY	Left	No	0.757807900001353	0	194276	251
380.5	2	decision	foodImageDisplay	1	25	25	foodImage.16	FOODEEG_Images\0196.jpg	NY	Left	No	0.757807900001353	0	194817	252
382.572265625	0.757807900001353	decision	choicePhaseStart	1	25	25	foodImage.16	FOODEEG_Images\0196.jpg	NY	Left	No	0.757807900001353	0	195878	253
383.322265625	0	decision	response	1	25	25	foodImage.16	FOODEEG_Images\0196.jpg	NY	Left	No	0.757807900001353	0	196262	234
384.365234375	1	taste	trialStart	1	26	26	foodImage.84	FOODEEG_Images\0830.jpg	YN	Left	Yes	1.28416350000043	0	196796	251
385.419921875	2	taste	foodImageDisplay	1	26	26	foodImage.84	FOODEEG_Images\0830.jpg	YN	Left	Yes	1.28416350000043	0	197336	252
387.486328125	1.28416350000043	taste	choicePhaseStart	1	26	26	foodImage.84	FOODEEG_Images\0830.jpg	YN	Left	Yes	1.28416350000043	0	198394	253
388.76171875	0	taste	response	1	26	26	foodImage.84	FOODEEG_Images\0830.jpg	YN	Left	Yes	1.28416350000043	0	199047	234
389.806640625	1	health	trialStart	1	27	27	foodImage.74	FOODEEG_Images\0752.jpg	YN	Left	Yes	0.764110799998889	0	199582	251
390.853515625	2	health	foodImageDisplay	1	27	27	foodImage.74	FOODEEG_Images\0752.jpg	YN	Left	Yes	0.764110799998889	0	200118	252
392.916015625	0.764110799998889	health	choicePhaseStart	1	27	27	foodImage.74	FOODEEG_Images\0752.jpg	YN	Left	Yes	0.764110799998889	0	201174	253
393.673828125	0	health	response	1	27	27	foodImage.74	FOODEEG_Images\0752.jpg	YN	Left	Yes	0.764110799998889	0	201562	234
394.716796875	1	decision	trialStart	1	28	28	foodImage.13	FOODEEG_Images\0183.jpg	YN	Left	Yes	0.831703600000765	0	202096	251
395.759765625	2	decision	foodImageDisplay	1	28	28	foodImage.13	FOODEEG_Images\0183.jpg	YN	Left	Yes	0.831703600000765	0	202630	252
397.826171875	0.831703600000765	decision	choicePhaseStart	1	28	28	foodImage.13	FOODEEG_Images\0183.jpg	YN	Left	Yes	0.831703600000765	0	203688	253
398.6484375	0	decision	response	1	28	28	foodImage.13	FOODEEG_Images\0183.jpg	YN	Left	Yes	0.831703600000765	0	204109	234
399.689453125	1	taste	trialStart	1	29	29	foodImage.95	FOODEEG_Images\0903.jpg	NY	Left	No	1.14992889999849	0	204642	251
400.728515625	2	taste	foodImageDisplay	1	29	29	foodImage.95	FOODEEG_Images\0903.jpg	NY	Left	No	1.14992889999849	0	205174	252
402.794921875	1.14992889999849	taste	choicePhaseStart	1	29	29	foodImage.95	FOODEEG_Images\0903.jpg	NY	Left	No	1.14992889999849	0	206232	253
403.935546875	0	taste	response	1	29	29	foodImage.95	FOODEEG_Images\0903.jpg	NY	Left	No	1.14992889999849	0	206816	234
404.98046875	1	taste	trialStart	1	30	30	foodImage.56	FOODEEG_Images\0586.jpg	NY	Right	Yes	1.14600379999865	0	207351	251
406.021484375	2	taste	foodImageDisplay	1	30	30	foodImage.56	FOODEEG_Images\0586.jpg	NY	Right	Yes	1.14600379999865	0	207884	252
408.0859375	1.14600379999865	taste	choicePhaseStart	1	30	30	foodImage.56	FOODEEG_Images\0586.jpg	NY	Right	Yes	1.14600379999865	0	208941	253
409.224609375	0	taste	response	1	30	30	foodImage.56	FOODEEG_Images\0586.jpg	NY	Right	Yes	1.14600379999865	0	209524	235
410.265625	1	taste	trialStart	1	31	31	foodImage.75	FOODEEG_Images\0763.jpg	NY	Right	Yes	1.59913700000106	0	210057	251
411.30859375	2	taste	foodImageDisplay	1	31	31	foodImage.75	FOODEEG_Images\0763.jpg	NY	Right	Yes	1.59913700000106	0	210591	252
413.37890625	1.59913700000106	taste	choicePhaseStart	1	31	31	foodImage.75	FOODEEG_Images\0763.jpg	NY	Right	Yes	1.59913700000106	0	211651	253
414.96875	0	taste	response	1	31	31	foodImage.75	FOODEEG_Images\0763.jpg	NY	Right	Yes	1.59913700000106	0	212465	235
416.0078125	1	taste	trialStart	1	32	32	foodImage.21	FOODEEG_Images\0234.jpg	NY	Right	Yes	0.71085039999889	0	212997	251
417.091796875	2	taste	foodImageDisplay	1	32	32	foodImage.21	FOODEEG_Images\0234.jpg	NY	Right	Yes	0.71085039999889	0	213552	252
419.16015625	0.71085039999889	taste	choicePhaseStart	1	32	32	foodImage.21	FOODEEG_Images\0234.jpg	NY	Right	Yes	0.71085039999889	0	214611	253
419.86328125	0	taste	response	1	32	32	foodImage.21	FOODEEG_Images\0234.jpg	NY	Right	Yes	0.71085039999889	0	214971	235
420.90625	1	taste	trialStart	1	33	33	foodImage.34	FOODEEG_Images\0339.jpg	YN	Left	Yes	1.39634689999912	0	215505	251
421.966796875	2	taste	foodImageDisplay	1	33	33	foodImage.34	FOODEEG_Images\0339.jpg	YN	Left	Yes	1.39634689999912	0	216048	252
424.03515625	1.39634689999912	taste	choicePhaseStart	1	33	33	foodImage.34	FOODEEG_Images\0339.jpg	YN	Left	Yes	1.39634689999912	0	217107	253
425.423828125	0	taste	response	1	33	33	foodImage.34	FOODEEG_Images\0339.jpg	YN	Left	Yes	1.39634689999912	0	217818	234
426.466796875	1	health	trialStart	1	34	34	foodImage.108	FOODEEG_Images\0916.jpg	YN	Right	No	2.56115270000009	0	218352	251
427.505859375	2	health	foodImageDisplay	1	34	34	foodImage.108	FOODEEG_Images\0916.jpg	YN	Right	No	2.56115270000009	0	218884	252
429.572265625	2.56115270000009	health	choicePhaseStart	1	34	34	foodImage.108	FOODEEG_Images\0916.jpg	YN	Right	No	2.56115270000009	0	219942	253
432.126953125	0	health	response	1	34	34	foodImage.108	FOODEEG_Images\0916.jpg	YN	Right	No	2.56115270000009	0	221250	235
433.16796875	1	taste	trialStart	1	35	35	foodImage.9	FOODEEG_Images\0138.jpg	YN	Left	Yes	0.656035800000609	0	221783	251
434.2265625	2	taste	foodImageDisplay	1	35	35	foodImage.9	FOODEEG_Images\0138.jpg	YN	Left	Yes	0.656035800000609	0	222325	252
436.287109375	0.656035800000609	taste	choicePhaseStart	1	35	35	foodImage.9	FOODEEG_Images\0138.jpg	YN	Left	Yes	0.656035800000609	0	223380	253
436.935546875	0	taste	response	1	35	35	foodImage.9	FOODEEG_Images\0138.jpg	YN	Left	Yes	0.656035800000609	0	223712	234
437.978515625	1	decision	trialStart	1	36	36	foodImage.116	FOODEEG_Images\0924.jpg	YN	Right	No	1.13605400000051	0	224246	251
439.03125	2	decision	foodImageDisplay	1	36	36	foodImage.116	FOODEEG_Images\0924.jpg	YN	Right	No	1.13605400000051	0	224785	252
441.099609375	1.13605400000051	decision	choicePhaseStart	1	36	36	foodImage.116	FOODEEG_Images\0924.jpg	YN	Right	No	1.13605400000051	0	225844	253
442.23046875	0	decision	response	1	36	36	foodImage.116	FOODEEG_Images\0924.jpg	YN	Right	No	1.13605400000051	0	226423	235
443.2734375	1	decision	trialStart	1	37	37	foodImage.34	FOODEEG_Images\0339.jpg	NY	Right	Yes	1.04603369999859	0	226957	251
444.330078125	2	decision	foodImageDisplay	1	37	37	foodImage.34	FOODEEG_Images\0339.jpg	NY	Right	Yes	1.04603369999859	0	227498	252
446.39453125	1.04603369999859	decision	choicePhaseStart	1	37	37	foodImage.34	FOODEEG_Images\0339.jpg	NY	Right	Yes	1.04603369999859	0	228555	253
447.431640625	0	decision	response	1	37	37	foodImage.34	FOODEEG_Images\0339.jpg	NY	Right	Yes	1.04603369999859	0	229086	235
448.474609375	1	decision	trialStart	1	38	38	foodImage.6	FOODEEG_Images\0113.jpg	NY	Right	Yes	0.718214099999386	0	229620	251
449.515625	2	decision	foodImageDisplay	1	38	38	foodImage.6	FOODEEG_Images\0113.jpg	NY	Right	Yes	0.718214099999386	0	230153	252
451.583984375	0.718214099999386	decision	choicePhaseStart	1	38	38	foodImage.6	FOODEEG_Images\0113.jpg	NY	Right	Yes	0.718214099999386	0	231212	253
452.294921875	0	decision	response	1	38	38	foodImage.6	FOODEEG_Images\0113.jpg	NY	Right	Yes	0.718214099999386	0	231576	235
453.337890625	1	taste	trialStart	1	39	39	foodImage.119	FOODEEG_Images\0927.jpg	YN	Right	No	0.941732100000081	0	232110	251
454.375	2	taste	foodImageDisplay	1	39	39	foodImage.119	FOODEEG_Images\0927.jpg	YN	Right	No	0.941732100000081	0	232641	252
456.44140625	0.941732100000081	taste	choicePhaseStart	1	39	39	foodImage.119	FOODEEG_Images\0927.jpg	YN	Right	No	0.941732100000081	0	233699	253
457.375	0	taste	response	1	39	39	foodImage.119	FOODEEG_Images\0927.jpg	YN	Right	No	0.941732100000081	0	234177	235
458.41796875	1	taste	trialStart	1	40	40	foodImage.27	FOODEEG_Images\0263.jpg	YN	Left	Yes	0.866812500000378	0	234711	251
459.4609375	2	taste	foodImageDisplay	1	40	40	foodImage.27	FOODEEG_Images\0263.jpg	YN	Left	Yes	0.866812500000378	0	235245	252
461.5234375	0.866812500000378	taste	choicePhaseStart	1	40	40	foodImage.27	FOODEEG_Images\0263.jpg	YN	Left	Yes	0.866812500000378	0	236301	253
462.3828125	0	taste	response	1	40	40	foodImage.27	FOODEEG_Images\0263.jpg	YN	Left	Yes	0.866812500000378	0	236741	234
463.423828125	1	decision	trialStart	1	41	41	foodImage.84	FOODEEG_Images\0830.jpg	NY	Right	Yes	0.930333100001008	0	237274	251
464.484375	2	decision	foodImageDisplay	1	41	41	foodImage.84	FOODEEG_Images\0830.jpg	NY	Right	Yes	0.930333100001008	0	237817	252
466.548828125	0.930333100001008	decision	choicePhaseStart	1	41	41	foodImage.84	FOODEEG_Images\0830.jpg	NY	Right	Yes	0.930333100001008	0	238874	253
467.470703125	0	decision	response	1	41	41	foodImage.84	FOODEEG_Images\0830.jpg	NY	Right	Yes	0.930333100001008	0	239346	235
468.513671875	1	decision	trialStart	1	42	42	foodImage.71	FOODEEG_Images\0713.jpg	YN	Left	Yes	0.797220399999787	0	239880	251
469.5546875	2	decision	foodImageDisplay	1	42	42	foodImage.71	FOODEEG_Images\0713.jpg	YN	Left	Yes	0.797220399999787	0	240413	252
471.6171875	0.797220399999787	decision	choicePhaseStart	1	42	42	foodImage.71	FOODEEG_Images\0713.jpg	YN	Left	Yes	0.797220399999787	0	241469	253
472.40625	0	decision	response	1	42	42	foodImage.71	FOODEEG_Images\0713.jpg	YN	Left	Yes	0.797220399999787	0	241873	234
473.44921875	1	health	trialStart	1	43	43	foodImage.91	FOODEEG_Images\0896.jpg	YN	Right	No	1.19138049999856	0	242407	251
474.505859375	2	health	foodImageDisplay	1	43	43	foodImage.91	FOODEEG_Images\0896.jpg	YN	Right	No	1.19138049999856	0	242948	252
476.568359375	1.19138049999856	health	choicePhaseStart	1	43	43	foodImage.91	FOODEEG_Images\0896.jpg	YN	Right	No	1.19138049999856	0	244004	253
477.75	0	health	response	1	43	43	foodImage.91	FOODEEG_Images\0896.jpg	YN	Right	No	1.19138049999856	0	244609	235
478.79296875	1	decision	trialStart	1	44	44	foodImage.58	FOODEEG_Images\0605.jpg	YN	Left	Yes	0.83717550000074	0	245143	251
479.8515625	2	decision	foodImageDisplay	1	44	44	foodImage.58	FOODEEG_Images\0605.jpg	YN	Left	Yes	0.83717550000074	0	245685	252
481.919921875	0.83717550000074	decision	choicePhaseStart	1	44	44	foodImage.58	FOODEEG_Images\0605.jpg	YN	Left	Yes	0.83717550000074	0	246744	253
482.75	0	decision	response	1	44	44	foodImage.58	FOODEEG_Images\0605.jpg	YN	Left	Yes	0.83717550000074	0	247169	234
483.796875	1	health	trialStart	1	45	45	foodImage.12	FOODEEG_Images\0181.jpg	YN	Left	Yes	0.673245199999656	0	247705	251
484.84375	2	health	foodImageDisplay	1	45	45	foodImage.12	FOODEEG_Images\0181.jpg	YN	Left	Yes	0.673245199999656	0	248241	252
486.908203125	0.673245199999656	health	choicePhaseStart	1	45	45	foodImage.12	FOODEEG_Images\0181.jpg	YN	Left	Yes	0.673245199999656	0	249298	253
487.57421875	0	health	response	1	45	45	foodImage.12	FOODEEG_Images\0181.jpg	YN	Left	Yes	0.673245199999656	0	249639	234
488.61328125	1	taste	trialStart	1	46	46	foodImage.69	FOODEEG_Images\0693.jpg	NY	Right	Yes	1.17527469999914	0	250171	251
489.654296875	2	taste	foodImageDisplay	1	46	46	foodImage.69	FOODEEG_Images\0693.jpg	NY	Right	Yes	1.17527469999914	0	250704	252
491.71875	1.17527469999914	taste	choicePhaseStart	1	46	46	foodImage.69	FOODEEG_Images\0693.jpg	NY	Right	Yes	1.17527469999914	0	251761	253
492.884765625	0	taste	response	1	46	46	foodImage.69	FOODEEG_Images\0693.jpg	NY	Right	Yes	1.17527469999914	0	252358	235
493.923828125	1	decision	trialStart	1	47	47	foodImage.8	FOODEEG_Images\0136.jpg	NY	Right	Yes	0.797104899998885	0	252890	251
494.962890625	2	decision	foodImageDisplay	1	47	47	foodImage.8	FOODEEG_Images\0136.jpg	NY	Right	Yes	0.797104899998885	0	253422	252
497.025390625	0.797104899998885	decision	choicePhaseStart	1	47	47	foodImage.8	FOODEEG_Images\0136.jpg	NY	Right	Yes	0.797104899998885	0	254478	253
497.8125	0	decision	response	1	47	47	foodImage.8	FOODEEG_Images\0136.jpg	NY	Right	Yes	0.797104899998885	0	254881	235
498.85546875	1	health	trialStart	1	48	48	foodImage.65	FOODEEG_Images\0658.jpg	NY	Right	Yes	1.57358860000022	0	255415	251
499.896484375	2	health	foodImageDisplay	1	48	48	foodImage.65	FOODEEG_Images\0658.jpg	NY	Right	Yes	1.57358860000022	0	255948	252
501.9609375	1.57358860000022	health	choicePhaseStart	1	48	48	foodImage.65	FOODEEG_Images\0658.jpg	NY	Right	Yes	1.57358860000022	0	257005	253
503.525390625	0	health	response	1	48	48	foodImage.65	FOODEEG_Images\0658.jpg	NY	Right	Yes	1.57358860000022	0	257806	235
504.56640625	1	health	trialStart	1	49	49	foodImage.53	FOODEEG_Images\0547.jpg	NY	Left	No	0.870985300000029	0	258339	251
505.623046875	2	health	foodImageDisplay	1	49	49	foodImage.53	FOODEEG_Images\0547.jpg	NY	Left	No	0.870985300000029	0	258880	252
507.6875	0.870985300000029	health	choicePhaseStart	1	49	49	foodImage.53	FOODEEG_Images\0547.jpg	NY	Left	No	0.870985300000029	0	259937	253
508.548828125	0	health	response	1	49	49	foodImage.53	FOODEEG_Images\0547.jpg	NY	Left	No	0.870985300000029	0	260378	234
509.58984375	1	health	trialStart	1	50	50	foodImage.59	FOODEEG_Images\0607.jpg	NY	Left	No	1.0383096000005	0	260911	251
510.638671875	2	health	foodImageDisplay	1	50	50	foodImage.59	FOODEEG_Images\0607.jpg	NY	Left	No	1.0383096000005	0	261448	252
512.708984375	1.0383096000005	health	choicePhaseStart	1	50	50	foodImage.59	FOODEEG_Images\0607.jpg	NY	Left	No	1.0383096000005	0	262508	253
513.740234375	0	health	response	1	50	50	foodImage.59	FOODEEG_Images\0607.jpg	NY	Left	No	1.0383096000005	0	263036	234
514.783203125	1	health	trialStart	1	51	51	foodImage.3	FOODEEG_Images\0046.jpg	NY	Left	No	0.710896299999149	0	263570	251
515.826171875	2	health	foodImageDisplay	1	51	51	foodImage.3	FOODEEG_Images\0046.jpg	NY	Left	No	0.710896299999149	0	264104	252
517.892578125	0.710896299999149	health	choicePhaseStart	1	51	51	foodImage.3	FOODEEG_Images\0046.jpg	NY	Left	No	0.710896299999149	0	265162	253
518.595703125	0	health	response	1	51	51	foodImage.3	FOODEEG_Images\0046.jpg	NY	Left	No	0.710896299999149	0	265522	234
519.638671875	1	health	trialStart	1	52	52	foodImage.35	FOODEEG_Images\0350.jpg	YN	Right	No	2.54622159999963	0	266056	251
520.693359375	2	health	foodImageDisplay	1	52	52	foodImage.35	FOODEEG_Images\0350.jpg	YN	Right	No	2.54622159999963	0	266596	252
522.76171875	2.54622159999963	health	choicePhaseStart	1	52	52	foodImage.35	FOODEEG_Images\0350.jpg	YN	Right	No	2.54622159999963	0	267655	253
525.30078125	0	health	response	1	52	52	foodImage.35	FOODEEG_Images\0350.jpg	YN	Right	No	2.54622159999963	0	268955	235
526.341796875	1	decision	trialStart	1	53	53	foodImage.30	FOODEEG_Images\0282.jpg	NY	Right	Yes	0.912720700000136	0	269488	251
527.384765625	2	decision	foodImageDisplay	1	53	53	foodImage.30	FOODEEG_Images\0282.jpg	NY	Right	Yes	0.912720700000136	0	270022	252
529.453125	0.912720700000136	decision	choicePhaseStart	1	53	53	foodImage.30	FOODEEG_Images\0282.jpg	NY	Right	Yes	0.912720700000136	0	271081	253
530.35546875	0	decision	response	1	53	53	foodImage.30	FOODEEG_Images\0282.jpg	NY	Right	Yes	0.912720700000136	0	271543	235
531.3984375	1	health	trialStart	1	54	54	foodImage.13	FOODEEG_Images\0183.jpg	YN	Left	Yes	0.842761300000348	0	272077	251
532.458984375	2	health	foodImageDisplay	1	54	54	foodImage.13	FOODEEG_Images\0183.jpg	YN	Left	Yes	0.842761300000348	0	272620	252
534.52734375	0.842761300000348	health	choicePhaseStart	1	54	54	foodImage.13	FOODEEG_Images\0183.jpg	YN	Left	Yes	0.842761300000348	0	273679	253
535.36328125	0	health	response	1	54	54	foodImage.13	FOODEEG_Images\0183.jpg	YN	Left	Yes	0.842761300000348	0	274107	234
536.40625	1	decision	trialStart	1	55	55	foodImage.57	FOODEEG_Images\0587.jpg	NY	Right	Yes	0.929070000000138	0	274641	251
537.46875	2	decision	foodImageDisplay	1	55	55	foodImage.57	FOODEEG_Images\0587.jpg	NY	Right	Yes	0.929070000000138	0	275185	252
539.537109375	0.929070000000138	decision	choicePhaseStart	1	55	55	foodImage.57	FOODEEG_Images\0587.jpg	NY	Right	Yes	0.929070000000138	0	276244	253
540.458984375	0	decision	response	1	55	55	foodImage.57	FOODEEG_Images\0587.jpg	NY	Right	Yes	0.929070000000138	0	276716	235
541.5	1	taste	trialStart	1	56	56	foodImage.38	FOODEEG_Images\0365.jpg	YN	Left	Yes	0.903493300000264	0	277249	251
542.541015625	2	taste	foodImageDisplay	1	56	56	foodImage.38	FOODEEG_Images\0365.jpg	YN	Left	Yes	0.903493300000264	0	277782	252
544.60546875	0.903493300000264	taste	choicePhaseStart	1	56	56	foodImage.38	FOODEEG_Images\0365.jpg	YN	Left	Yes	0.903493300000264	0	278839	253
545.498046875	0	taste	response	1	56	56	foodImage.38	FOODEEG_Images\0365.jpg	YN	Left	Yes	0.903493300000264	0	279296	234
546.544921875	1	health	trialStart	1	57	57	foodImage.1	FOODEEG_Images\0004.jpg	NY	Left	No	0.977114499999516	0	279832	251
547.587890625	2	health	foodImageDisplay	1	57	57	foodImage.1	FOODEEG_Images\0004.jpg	NY	Left	No	0.977114499999516	0	280366	252
549.65625	0.977114499999516	health	choicePhaseStart	1	57	57	foodImage.1	FOODEEG_Images\0004.jpg	NY	Left	No	0.977114499999516	0	281425	253
550.626953125	0	health	response	1	57	57	foodImage.1	FOODEEG_Images\0004.jpg	NY	Left	No	0.977114499999516	0	281922	234
551.67578125	1	decision	trialStart	1	58	58	foodImage.48	FOODEEG_Images\0494.jpg	NY	Right	Yes	1.41005600000062	0	282459	251
552.716796875	2	decision	foodImageDisplay	1	58	58	foodImage.48	FOODEEG_Images\0494.jpg	NY	Right	Yes	1.41005600000062	0	282992	252
554.77734375	1.41005600000062	decision	choicePhaseStart	1	58	58	foodImage.48	FOODEEG_Images\0494.jpg	NY	Right	Yes	1.41005600000062	0	284047	253
556.1796875	0	decision	response	1	58	58	foodImage.48	FOODEEG_Images\0494.jpg	NY	Right	Yes	1.41005600000062	0	284765	235
557.216796875	1	decision	trialStart	1	59	59	foodImage.86	FOODEEG_Images\0844.jpg	NY	Right	Yes	0.678407800000059	0	285296	251
558.271484375	2	decision	foodImageDisplay	1	59	59	foodImage.86	FOODEEG_Images\0844.jpg	NY	Right	Yes	0.678407800000059	0	285836	252
560.33984375	0.678407800000059	decision	choicePhaseStart	1	59	59	foodImage.86	FOODEEG_Images\0844.jpg	NY	Right	Yes	0.678407800000059	0	286895	253
561.009765625	0	decision	response	1	59	59	foodImage.86	FOODEEG_Images\0844.jpg	NY	Right	Yes	0.678407800000059	0	287238	235
562.056640625	1	taste	trialStart	1	60	60	foodImage.67	FOODEEG_Images\0679.jpg	YN	Right	No	1.57114790000014	0	287774	251
563.11328125	2	taste	foodImageDisplay	1	60	60	foodImage.67	FOODEEG_Images\0679.jpg	YN	Right	No	1.57114790000014	0	288315	252
565.181640625	1.57114790000014	taste	choicePhaseStart	1	60	60	foodImage.67	FOODEEG_Images\0679.jpg	YN	Right	No	1.57114790000014	0	289374	253
566.74609375	0	taste	response	1	60	60	foodImage.67	FOODEEG_Images\0679.jpg	YN	Right	No	1.57114790000014	0	290175	235
568.7890625	14.4609375	n/a	blockEnd	n/a	n/a	n/a	n/a	n/a	n/a	n/a	n/a	n/a	n/a	291221	254
583.25	2	n/a	blockStart	2	n/a	n/a	n/a	n/a	n/a	n/a	n/a	n/a	n/a	298625	250
585.28515625	1	taste	trialStart	2	61	1	foodImage.58	FOODEEG_Images\0605.jpg	NY	Right	Yes	0.832695400000375	0	299667	251
586.345703125	2	taste	foodImageDisplay	2	61	1	foodImage.58	FOODEEG_Images\0605.jpg	NY	Right	Yes	0.832695400000375	0	300210	252
588.408203125	0.832695400000375	taste	choicePhaseStart	2	61	1	foodImage.58	FOODEEG_Images\0605.jpg	NY	Right	Yes	0.832695400000375	0	301266	253
589.234375	0	taste	response	2	61	1	foodImage.58	FOODEEG_Images\0605.jpg	NY	Right	Yes	0.832695400000375	0	301689	235
590.27734375	1	taste	trialStart	2	62	2	foodImage.15	FOODEEG_Images\0189.jpg	YN	Left	Yes	0.72498700000142	0	302223	251
591.333984375	2	taste	foodImageDisplay	2	62	2	foodImage.15	FOODEEG_Images\0189.jpg	YN	Left	Yes	0.72498700000142	0	302764	252
593.40234375	0.72498700000142	taste	choicePhaseStart	2	62	2	foodImage.15	FOODEEG_Images\0189.jpg	YN	Left	Yes	0.72498700000142	0	303823	253
594.12109375	0	taste	response	2	62	2	foodImage.15	FOODEEG_Images\0189.jpg	YN	Left	Yes	0.72498700000142	0	304191	234
595.1640625	1	health	trialStart	2	63	3	foodImage.67	FOODEEG_Images\0679.jpg	NY	Right	Yes	2.39144450000094	0	304725	251
596.21875	2	health	foodImageDisplay	2	63	3	foodImage.67	FOODEEG_Images\0679.jpg	NY	Right	Yes	2.39144450000094	0	305265	252
598.287109375	2.39144450000094	health	choicePhaseStart	2	63	3	foodImage.67	FOODEEG_Images\0679.jpg	NY	Right	Yes	2.39144450000094	0	306324	253
600.671875	0	health	response	2	63	3	foodImage.67	FOODEEG_Images\0679.jpg	NY	Right	Yes	2.39144450000094	0	307545	235
601.71875	1	decision	trialStart	2	64	4	foodImage.40	FOODEEG_Images\0373.jpg	NY	Right	Yes	0.743936999999278	0	308081	251
602.76171875	2	decision	foodImageDisplay	2	64	4	foodImage.40	FOODEEG_Images\0373.jpg	NY	Right	Yes	0.743936999999278	0	308615	252
604.826171875	0.743936999999278	decision	choicePhaseStart	2	64	4	foodImage.40	FOODEEG_Images\0373.jpg	NY	Right	Yes	0.743936999999278	0	309672	253
605.560546875	0	decision	response	2	64	4	foodImage.40	FOODEEG_Images\0373.jpg	NY	Right	Yes	0.743936999999278	0	310048	235
606.603515625	1	health	trialStart	2	65	5	foodImage.20	FOODEEG_Images\0226.jpg	YN	Left	Yes	1.97292560000096	0	310582	251
607.646484375	2	health	foodImageDisplay	2	65	5	foodImage.20	FOODEEG_Images\0226.jpg	YN	Left	Yes	1.97292560000096	0	311116	252
609.71484375	1.97292560000096	health	choicePhaseStart	2	65	5	foodImage.20	FOODEEG_Images\0226.jpg	YN	Left	Yes	1.97292560000096	0	312175	253
611.6796875	0	health	response	2	65	5	foodImage.20	FOODEEG_Images\0226.jpg	YN	Left	Yes	1.97292560000096	0	313181	234
612.71875	1	taste	trialStart	2	66	6	foodImage.74	FOODEEG_Images\0752.jpg	NY	Right	Yes	0.7635304000014	0	313713	251
613.759765625	2	taste	foodImageDisplay	2	66	6	foodImage.74	FOODEEG_Images\0752.jpg	NY	Right	Yes	0.7635304000014	0	314246	252
615.822265625	0.7635304000014	taste	choicePhaseStart	2	66	6	foodImage.74	FOODEEG_Images\0752.jpg	NY	Right	Yes	0.7635304000014	0	315302	253
616.576171875	0	taste	response	2	66	6	foodImage.74	FOODEEG_Images\0752.jpg	NY	Right	Yes	0.7635304000014	0	315688	235
617.615234375	1	decision	trialStart	2	67	7	foodImage.118	FOODEEG_Images\0926.jpg	YN	Right	No	0.994781699999294	0	316220	251
618.65234375	2	decision	foodImageDisplay	2	67	7	foodImage.118	FOODEEG_Images\0926.jpg	YN	Right	No	0.994781699999294	0	316751	252
620.716796875	0.994781699999294	decision	choicePhaseStart	2	67	7	foodImage.118	FOODEEG_Images\0926.jpg	YN	Right	No	0.994781699999294	0	317808	253
621.703125	0	decision	response	2	67	7	foodImage.118	FOODEEG_Images\0926.jpg	YN	Right	No	0.994781699999294	0	318313	235
622.75	1	health	trialStart	2	68	8	foodImage.58	FOODEEG_Images\0605.jpg	YN	Left	Yes	1.67565560000003	0	318849	251
623.80859375	2	health	foodImageDisplay	2	68	8	foodImage.58	FOODEEG_Images\0605.jpg	YN	Left	Yes	1.67565560000003	0	319391	252
625.876953125	1.67565560000003	health	choicePhaseStart	2	68	8	foodImage.58	FOODEEG_Images\0605.jpg	YN	Left	Yes	1.67565560000003	0	320450	253
627.54296875	0	health	response	2	68	8	foodImage.58	FOODEEG_Images\0605.jpg	YN	Left	Yes	1.67565560000003	0	321303	234
628.587890625	1	health	trialStart	2	69	9	foodImage.15	FOODEEG_Images\0189.jpg	NY	Left	No	1.15102309999929	0	321838	251
629.6484375	2	health	foodImageDisplay	2	69	9	foodImage.15	FOODEEG_Images\0189.jpg	NY	Left	No	1.15102309999929	0	322381	252
631.716796875	1.15102309999929	health	choicePhaseStart	2	69	9	foodImage.15	FOODEEG_Images\0189.jpg	NY	Left	No	1.15102309999929	0	323440	253
632.86328125	0	health	response	2	69	9	foodImage.15	FOODEEG_Images\0189.jpg	NY	Left	No	1.15102309999929	0	324027	234
633.90625	1	decision	trialStart	2	70	10	foodImage.39	FOODEEG_Images\0367.jpg	NY	Right	Yes	0.813609999999244	0	324561	251
634.9453125	2	decision	foodImageDisplay	2	70	10	foodImage.39	FOODEEG_Images\0367.jpg	NY	Right	Yes	0.813609999999244	0	325093	252
637.009765625	0.813609999999244	decision	choicePhaseStart	2	70	10	foodImage.39	FOODEEG_Images\0367.jpg	NY	Right	Yes	0.813609999999244	0	326150	253
637.814453125	0	decision	response	2	70	10	foodImage.39	FOODEEG_Images\0367.jpg	NY	Right	Yes	0.813609999999244	0	326562	235
638.857421875	1	health	trialStart	2	71	11	foodImage.76	FOODEEG_Images\0766.jpg	YN	Left	Yes	0.737189900000885	0	327096	251
639.90234375	2	health	foodImageDisplay	2	71	11	foodImage.76	FOODEEG_Images\0766.jpg	YN	Left	Yes	0.737189900000885	0	327631	252
641.970703125	0.737189900000885	health	choicePhaseStart	2	71	11	foodImage.76	FOODEEG_Images\0766.jpg	YN	Left	Yes	0.737189900000885	0	328690	253
642.703125	0	health	response	2	71	11	foodImage.76	FOODEEG_Images\0766.jpg	YN	Left	Yes	0.737189900000885	0	329065	234
643.74609375	1	health	trialStart	2	72	12	foodImage.119	FOODEEG_Images\0927.jpg	YN	Right	No	1.36872430000039	0	329599	251
644.783203125	2	health	foodImageDisplay	2	72	12	foodImage.119	FOODEEG_Images\0927.jpg	YN	Right	No	1.36872430000039	0	330130	252
646.84765625	1.36872430000039	health	choicePhaseStart	2	72	12	foodImage.119	FOODEEG_Images\0927.jpg	YN	Right	No	1.36872430000039	0	331187	253
648.20703125	0	health	response	2	72	12	foodImage.119	FOODEEG_Images\0927.jpg	YN	Right	No	1.36872430000039	0	331883	235
649.25	1	taste	trialStart	2	73	13	foodImage.66	FOODEEG_Images\0676.jpg	YN	Left	Yes	1.73911780000162	0	332417	251
650.29296875	2	taste	foodImageDisplay	2	73	13	foodImage.66	FOODEEG_Images\0676.jpg	YN	Left	Yes	1.73911780000162	0	332951	252
652.35546875	1.73911780000162	taste	choicePhaseStart	2	73	13	foodImage.66	FOODEEG_Images\0676.jpg	YN	Left	Yes	1.73911780000162	0	334007	253
654.0859375	0	taste	response	2	73	13	foodImage.66	FOODEEG_Images\0676.jpg	YN	Left	Yes	1.73911780000162	0	334893	234
655.134765625	1	taste	trialStart	2	74	14	foodImage.116	FOODEEG_Images\0924.jpg	NY	Left	No	1.03204069999992	0	335430	251
656.173828125	2	taste	foodImageDisplay	2	74	14	foodImage.116	FOODEEG_Images\0924.jpg	NY	Left	No	1.03204069999992	0	335962	252
658.23828125	1.03204069999992	taste	choicePhaseStart	2	74	14	foodImage.116	FOODEEG_Images\0924.jpg	NY	Left	No	1.03204069999992	0	337019	253
659.26171875	0	taste	response	2	74	14	foodImage.116	FOODEEG_Images\0924.jpg	NY	Left	No	1.03204069999992	0	337543	234
660.3046875	1	decision	trialStart	2	75	15	foodImage.119	FOODEEG_Images\0927.jpg	NY	Left	No	1.41868919999979	0	338077	251
661.341796875	2	decision	foodImageDisplay	2	75	15	foodImage.119	FOODEEG_Images\0927.jpg	NY	Left	No	1.41868919999979	0	338608	252
663.41015625	1.41868919999979	decision	choicePhaseStart	2	75	15	foodImage.119	FOODEEG_Images\0927.jpg	NY	Left	No	1.41868919999979	0	339667	253
664.822265625	0	decision	response	2	75	15	foodImage.119	FOODEEG_Images\0927.jpg	NY	Left	No	1.41868919999979	0	340390	234
665.8671875	1	taste	trialStart	2	76	16	foodImage.55	FOODEEG_Images\0567.jpg	NY	Right	Yes	0.858787099999972	0	340925	251
666.92578125	2	taste	foodImageDisplay	2	76	16	foodImage.55	FOODEEG_Images\0567.jpg	NY	Right	Yes	0.858787099999972	0	341467	252
668.994140625	0.858787099999972	taste	choicePhaseStart	2	76	16	foodImage.55	FOODEEG_Images\0567.jpg	NY	Right	Yes	0.858787099999972	0	342526	253
669.845703125	0	taste	response	2	76	16	foodImage.55	FOODEEG_Images\0567.jpg	NY	Right	Yes	0.858787099999972	0	342962	235
670.91015625	1	health	trialStart	2	77	17	foodImage.54	FOODEEG_Images\0560.jpg	YN	Left	Yes	1.13548850000006	0	343507	251
671.966796875	2	health	foodImageDisplay	2	77	17	foodImage.54	FOODEEG_Images\0560.jpg	YN	Left	Yes	1.13548850000006	0	344048	252
674.03125	1.13548850000006	health	choicePhaseStart	2	77	17	foodImage.54	FOODEEG_Images\0560.jpg	YN	Left	Yes	1.13548850000006	0	345105	253
675.158203125	0	health	response	2	77	17	foodImage.54	FOODEEG_Images\0560.jpg	YN	Left	Yes	1.13548850000006	0	345682	234
676.19921875	1	health	trialStart	2	78	18	foodImage.36	FOODEEG_Images\0352.jpg	YN	Left	Yes	1.12472290000005	0	346215	251
677.2578125	2	health	foodImageDisplay	2	78	18	foodImage.36	FOODEEG_Images\0352.jpg	YN	Left	Yes	1.12472290000005	0	346757	252
679.322265625	1.12472290000005	health	choicePhaseStart	2	78	18	foodImage.36	FOODEEG_Images\0352.jpg	YN	Left	Yes	1.12472290000005	0	347814	253
680.4375	0	health	response	2	78	18	foodImage.36	FOODEEG_Images\0352.jpg	YN	Left	Yes	1.12472290000005	0	348385	234
681.48046875	1	decision	trialStart	2	79	19	foodImage.18	FOODEEG_Images\0202.jpg	NY	Right	Yes	0.855812300000252	0	348919	251
682.5390625	2	decision	foodImageDisplay	2	79	19	foodImage.18	FOODEEG_Images\0202.jpg	NY	Right	Yes	0.855812300000252	0	349461	252
684.607421875	0.855812300000252	decision	choicePhaseStart	2	79	19	foodImage.18	FOODEEG_Images\0202.jpg	NY	Right	Yes	0.855812300000252	0	350520	253
685.453125	0	decision	response	2	79	19	foodImage.18	FOODEEG_Images\0202.jpg	NY	Right	Yes	0.855812300000252	0	350953	235
686.49609375	1	taste	trialStart	2	80	20	foodImage.5	FOODEEG_Images\0107.jpg	NY	Right	Yes	0.845305500000904	0	351487	251
687.552734375	2	taste	foodImageDisplay	2	80	20	foodImage.5	FOODEEG_Images\0107.jpg	NY	Right	Yes	0.845305500000904	0	352028	252
689.6171875	0.845305500000904	taste	choicePhaseStart	2	80	20	foodImage.5	FOODEEG_Images\0107.jpg	NY	Right	Yes	0.845305500000904	0	353085	253
690.453125	0	taste	response	2	80	20	foodImage.5	FOODEEG_Images\0107.jpg	NY	Right	Yes	0.845305500000904	0	353513	235
691.49609375	1	health	trialStart	2	81	21	foodImage.39	FOODEEG_Images\0367.jpg	NY	Left	No	1.26549829999931	0	354047	251
692.53515625	2	health	foodImageDisplay	2	81	21	foodImage.39	FOODEEG_Images\0367.jpg	NY	Left	No	1.26549829999931	0	354579	252
694.603515625	1.26549829999931	health	choicePhaseStart	2	81	21	foodImage.39	FOODEEG_Images\0367.jpg	NY	Left	No	1.26549829999931	0	355638	253
695.861328125	0	health	response	2	81	21	foodImage.39	FOODEEG_Images\0367.jpg	NY	Left	No	1.26549829999931	0	356282	234
696.904296875	1	taste	trialStart	2	82	22	foodImage.4	FOODEEG_Images\0065.jpg	NY	Right	Yes	0.975683999999092	0	356816	251
697.9765625	2	taste	foodImageDisplay	2	82	22	foodImage.4	FOODEEG_Images\0065.jpg	NY	Right	Yes	0.975683999999092	0	357365	252
700.044921875	0.975683999999092	taste	choicePhaseStart	2	82	22	foodImage.4	FOODEEG_Images\0065.jpg	NY	Right	Yes	0.975683999999092	0	358424	253
701.013671875	0	taste	response	2	82	22	foodImage.4	FOODEEG_Images\0065.jpg	NY	Right	Yes	0.975683999999092	0	358920	235
702.056640625	1	health	trialStart	2	83	23	foodImage.85	FOODEEG_Images\0841.jpg	NY	Left	No	1.24326239999937	0	359454	251
703.119140625	2	health	foodImageDisplay	2	83	23	foodImage.85	FOODEEG_Images\0841.jpg	NY	Left	No	1.24326239999937	0	359998	252
705.185546875	1.24326239999937	health	choicePhaseStart	2	83	23	foodImage.85	FOODEEG_Images\0841.jpg	NY	Left	No	1.24326239999937	0	361056	253
706.419921875	0	health	response	2	83	23	foodImage.85	FOODEEG_Images\0841.jpg	NY	Left	No	1.24326239999937	0	361688	234
707.46484375	1	health	trialStart	2	84	24	foodImage.57	FOODEEG_Images\0587.jpg	YN	Right	No	1.39924849999989	0	362223	251
708.509765625	2	health	foodImageDisplay	2	84	24	foodImage.57	FOODEEG_Images\0587.jpg	YN	Right	No	1.39924849999989	0	362758	252
710.57421875	1.39924849999989	health	choicePhaseStart	2	84	24	foodImage.57	FOODEEG_Images\0587.jpg	YN	Right	No	1.39924849999989	0	363815	253
711.96484375	0	health	response	2	84	24	foodImage.57	FOODEEG_Images\0587.jpg	YN	Right	No	1.39924849999989	0	364527	235
713.009765625	1	taste	trialStart	2	85	25	foodImage.88	FOODEEG_Images\0878.jpg	NY	Right	Yes	1.01913819999936	0	365062	251
714.06640625	2	taste	foodImageDisplay	2	85	25	foodImage.88	FOODEEG_Images\0878.jpg	NY	Right	Yes	1.01913819999936	0	365603	252
716.130859375	1.01913819999936	taste	choicePhaseStart	2	85	25	foodImage.88	FOODEEG_Images\0878.jpg	NY	Right	Yes	1.01913819999936	0	366660	253
717.140625	0	taste	response	2	85	25	foodImage.88	FOODEEG_Images\0878.jpg	NY	Right	Yes	1.01913819999936	0	367177	235
718.18359375	1	taste	trialStart	2	86	26	foodImage.44	FOODEEG_Images\0459.jpg	NY	Right	Yes	0.996265800000401	0	367711	251
719.23046875	2	taste	foodImageDisplay	2	86	26	foodImage.44	FOODEEG_Images\0459.jpg	NY	Right	Yes	0.996265800000401	0	368247	252
721.296875	0.996265800000401	taste	choicePhaseStart	2	86	26	foodImage.44	FOODEEG_Images\0459.jpg	NY	Right	Yes	0.996265800000401	0	369305	253
722.28515625	0	taste	response	2	86	26	foodImage.44	FOODEEG_Images\0459.jpg	NY	Right	Yes	0.996265800000401	0	369811	235
723.328125	1	decision	trialStart	2	87	27	foodImage.83	FOODEEG_Images\0827.jpg	YN	Left	Yes	1.07574249999925	0	370345	251
724.38671875	2	decision	foodImageDisplay	2	87	27	foodImage.83	FOODEEG_Images\0827.jpg	YN	Left	Yes	1.07574249999925	0	370887	252
726.44921875	1.07574249999925	decision	choicePhaseStart	2	87	27	foodImage.83	FOODEEG_Images\0827.jpg	YN	Left	Yes	1.07574249999925	0	371943	253
727.515625	0	decision	response	2	87	27	foodImage.83	FOODEEG_Images\0827.jpg	YN	Left	Yes	1.07574249999925	0	372489	234
728.55859375	1	decision	trialStart	2	88	28	foodImage.91	FOODEEG_Images\0896.jpg	YN	Left	Yes	1.33212169999933	0	373023	251
729.6171875	2	decision	foodImageDisplay	2	88	28	foodImage.91	FOODEEG_Images\0896.jpg	YN	Left	Yes	1.33212169999933	0	373565	252
731.685546875	1.33212169999933	decision	choicePhaseStart	2	88	28	foodImage.91	FOODEEG_Images\0896.jpg	YN	Left	Yes	1.33212169999933	0	374624	253
733.01171875	0	decision	response	2	88	28	foodImage.91	FOODEEG_Images\0896.jpg	YN	Left	Yes	1.33212169999933	0	375303	234
734.0546875	1	health	trialStart	2	89	29	foodImage.80	FOODEEG_Images\0796.jpg	NY	Right	Yes	0.99069260000033	0	375837	251
735.111328125	2	health	foodImageDisplay	2	89	29	foodImage.80	FOODEEG_Images\0796.jpg	NY	Right	Yes	0.99069260000033	0	376378	252
737.1796875	0.99069260000033	health	choicePhaseStart	2	89	29	foodImage.80	FOODEEG_Images\0796.jpg	NY	Right	Yes	0.99069260000033	0	377437	253
738.1640625	0	health	response	2	89	29	foodImage.80	FOODEEG_Images\0796.jpg	NY	Right	Yes	0.99069260000033	0	377941	235
739.212890625	1	health	trialStart	2	90	30	foodImage.72	FOODEEG_Images\0714.jpg	YN	Right	No	1.93905320000158	0	378478	251
740.255859375	2	health	foodImageDisplay	2	90	30	foodImage.72	FOODEEG_Images\0714.jpg	YN	Right	No	1.93905320000158	0	379012	252
742.32421875	1.93905320000158	health	choicePhaseStart	2	90	30	foodImage.72	FOODEEG_Images\0714.jpg	YN	Right	No	1.93905320000158	0	380071	253
744.259765625	0	health	response	2	90	30	foodImage.72	FOODEEG_Images\0714.jpg	YN	Right	No	1.93905320000158	0	381062	235
745.302734375	1	health	trialStart	2	91	31	foodImage.6	FOODEEG_Images\0113.jpg	YN	Right	No	0.708907599999293	0	381596	251
746.34375	2	health	foodImageDisplay	2	91	31	foodImage.6	FOODEEG_Images\0113.jpg	YN	Right	No	0.708907599999293	0	382129	252
748.408203125	0.708907599999293	health	choicePhaseStart	2	91	31	foodImage.6	FOODEEG_Images\0113.jpg	YN	Right	No	0.708907599999293	0	383186	253
749.107421875	0	health	response	2	91	31	foodImage.6	FOODEEG_Images\0113.jpg	YN	Right	No	0.708907599999293	0	383544	235
750.150390625	1	taste	trialStart	2	92	32	foodImage.106	FOODEEG_Images\0914.jpg	NY	Left	No	1.23777090000112	0	384078	251
751.19140625	2	taste	foodImageDisplay	2	92	32	foodImage.106	FOODEEG_Images\0914.jpg	NY	Left	No	1.23777090000112	0	384611	252
753.25390625	1.23777090000112	taste	choicePhaseStart	2	92	32	foodImage.106	FOODEEG_Images\0914.jpg	NY	Left	No	1.23777090000112	0	385667	253
754.482421875	0	taste	response	2	92	32	foodImage.106	FOODEEG_Images\0914.jpg	NY	Left	No	1.23777090000112	0	386296	234
755.53125	1	taste	trialStart	2	93	33	foodImage.71	FOODEEG_Images\0713.jpg	YN	Left	Yes	0.870544499999596	0	386833	251
756.57421875	2	taste	foodImageDisplay	2	93	33	foodImage.71	FOODEEG_Images\0713.jpg	YN	Left	Yes	0.870544499999596	0	387367	252
758.642578125	0.870544499999596	taste	choicePhaseStart	2	93	33	foodImage.71	FOODEEG_Images\0713.jpg	YN	Left	Yes	0.870544499999596	0	388426	253
759.505859375	0	taste	response	2	93	33	foodImage.71	FOODEEG_Images\0713.jpg	YN	Left	Yes	0.870544499999596	0	388868	234
760.548828125	1	decision	trialStart	2	94	34	foodImage.17	FOODEEG_Images\0199.jpg	NY	Right	Yes	0.94033219999983	0	389402	251
761.595703125	2	decision	foodImageDisplay	2	94	34	foodImage.17	FOODEEG_Images\0199.jpg	NY	Right	Yes	0.94033219999983	0	389938	252
763.66015625	0.94033219999983	decision	choicePhaseStart	2	94	34	foodImage.17	FOODEEG_Images\0199.jpg	NY	Right	Yes	0.94033219999983	0	390995	253
764.59375	0	decision	response	2	94	34	foodImage.17	FOODEEG_Images\0199.jpg	NY	Right	Yes	0.94033219999983	0	391473	235
765.638671875	1	health	trialStart	2	95	35	foodImage.33	FOODEEG_Images\0329.jpg	NY	Right	Yes	1.0354466000008	0	392008	251
766.6796875	2	health	foodImageDisplay	2	95	35	foodImage.33	FOODEEG_Images\0329.jpg	NY	Right	Yes	1.0354466000008	0	392541	252
768.744140625	1.0354466000008	health	choicePhaseStart	2	95	35	foodImage.33	FOODEEG_Images\0329.jpg	NY	Right	Yes	1.0354466000008	0	393598	253
769.76953125	0	health	response	2	95	35	foodImage.33	FOODEEG_Images\0329.jpg	NY	Right	Yes	1.0354466000008	0	394123	235
770.8125	1	health	trialStart	2	96	36	foodImage.116	FOODEEG_Images\0924.jpg	YN	Right	No	1.44668189999902	0	394657	251
771.8515625	2	health	foodImageDisplay	2	96	36	foodImage.116	FOODEEG_Images\0924.jpg	YN	Right	No	1.44668189999902	0	395189	252
773.916015625	1.44668189999902	health	choicePhaseStart	2	96	36	foodImage.116	FOODEEG_Images\0924.jpg	YN	Right	No	1.44668189999902	0	396246	253
775.353515625	0	health	response	2	96	36	foodImage.116	FOODEEG_Images\0924.jpg	YN	Right	No	1.44668189999902	0	396982	235
776.3984375	1	health	trialStart	2	97	37	foodImage.47	FOODEEG_Images\0488.jpg	YN	Right	No	2.17873899999904	0	397517	251
777.439453125	2	health	foodImageDisplay	2	97	37	foodImage.47	FOODEEG_Images\0488.jpg	YN	Right	No	2.17873899999904	0	398050	252
779.50390625	2.17873899999904	health	choicePhaseStart	2	97	37	foodImage.47	FOODEEG_Images\0488.jpg	YN	Right	No	2.17873899999904	0	399107	253
781.673828125	0	health	response	2	97	37	foodImage.47	FOODEEG_Images\0488.jpg	YN	Right	No	2.17873899999904	0	400218	235
782.716796875	1	decision	trialStart	2	98	38	foodImage.78	FOODEEG_Images\0787.jpg	NY	Left	No	1.64251030000014	0	400752	251
783.76171875	2	decision	foodImageDisplay	2	98	38	foodImage.78	FOODEEG_Images\0787.jpg	NY	Left	No	1.64251030000014	0	401287	252
785.830078125	1.64251030000014	decision	choicePhaseStart	2	98	38	foodImage.78	FOODEEG_Images\0787.jpg	NY	Left	No	1.64251030000014	0	402346	253
787.46484375	0	decision	response	2	98	38	foodImage.78	FOODEEG_Images\0787.jpg	NY	Left	No	1.64251030000014	0	403183	234
788.5078125	1	decision	trialStart	2	99	39	foodImage.19	FOODEEG_Images\0225.jpg	NY	Left	No	1.77145440000095	0	403717	251
789.568359375	2	decision	foodImageDisplay	2	99	39	foodImage.19	FOODEEG_Images\0225.jpg	NY	Left	No	1.77145440000095	0	404260	252
791.630859375	1.77145440000095	decision	choicePhaseStart	2	99	39	foodImage.19	FOODEEG_Images\0225.jpg	NY	Left	No	1.77145440000095	0	405316	253
793.392578125	0	decision	response	2	99	39	foodImage.19	FOODEEG_Images\0225.jpg	NY	Left	No	1.77145440000095	0	406218	234
794.439453125	1	health	trialStart	2	100	40	foodImage.17	FOODEEG_Images\0199.jpg	YN	Left	Yes	0.821458899999925	0	406754	251
795.484375	2	health	foodImageDisplay	2	100	40	foodImage.17	FOODEEG_Images\0199.jpg	YN	Left	Yes	0.821458899999925	0	407289	252
797.548828125	0.821458899999925	health	choicePhaseStart	2	100	40	foodImage.17	FOODEEG_Images\0199.jpg	YN	Left	Yes	0.821458899999925	0	408346	253
798.361328125	0	health	response	2	100	40	foodImage.17	FOODEEG_Images\0199.jpg	YN	Left	Yes	0.821458899999925	0	408762	234
799.408203125	1	decision	trialStart	2	101	41	foodImage.20	FOODEEG_Images\0226.jpg	YN	Left	Yes	1.09343850000005	0	409298	251
800.46875	2	decision	foodImageDisplay	2	101	41	foodImage.20	FOODEEG_Images\0226.jpg	YN	Left	Yes	1.09343850000005	0	409841	252
802.533203125	1.09343850000005	decision	choicePhaseStart	2	101	41	foodImage.20	FOODEEG_Images\0226.jpg	YN	Left	Yes	1.09343850000005	0	410898	253
803.6171875	0	decision	response	2	101	41	foodImage.20	FOODEEG_Images\0226.jpg	YN	Left	Yes	1.09343850000005	0	411453	234
804.66015625	1	decision	trialStart	2	102	42	foodImage.11	FOODEEG_Images\0180.jpg	NY	Right	Yes	0.834115799998472	0	411987	251
805.703125	2	decision	foodImageDisplay	2	102	42	foodImage.11	FOODEEG_Images\0180.jpg	NY	Right	Yes	0.834115799998472	0	412521	252
807.767578125	0.834115799998472	decision	choicePhaseStart	2	102	42	foodImage.11	FOODEEG_Images\0180.jpg	NY	Right	Yes	0.834115799998472	0	413578	253
808.591796875	0	decision	response	2	102	42	foodImage.11	FOODEEG_Images\0180.jpg	NY	Right	Yes	0.834115799998472	0	414000	235
809.63671875	1	decision	trialStart	2	103	43	foodImage.27	FOODEEG_Images\0263.jpg	YN	Left	Yes	0.9236492	0	414535	251
810.677734375	2	decision	foodImageDisplay	2	103	43	foodImage.27	FOODEEG_Images\0263.jpg	YN	Left	Yes	0.9236492	0	415068	252
812.7421875	0.9236492	decision	choicePhaseStart	2	103	43	foodImage.27	FOODEEG_Images\0263.jpg	YN	Left	Yes	0.9236492	0	416125	253
813.65625	0	decision	response	2	103	43	foodImage.27	FOODEEG_Images\0263.jpg	YN	Left	Yes	0.9236492	0	416593	234
814.69921875	1	health	trialStart	2	104	44	foodImage.31	FOODEEG_Images\0294.jpg	NY	Left	No	1.22126200000093	0	417127	251
815.7421875	2	health	foodImageDisplay	2	104	44	foodImage.31	FOODEEG_Images\0294.jpg	NY	Left	No	1.22126200000093	0	417661	252
817.8046875	1.22126200000093	health	choicePhaseStart	2	104	44	foodImage.31	FOODEEG_Images\0294.jpg	NY	Left	No	1.22126200000093	0	418717	253
819.015625	0	health	response	2	104	44	foodImage.31	FOODEEG_Images\0294.jpg	NY	Left	No	1.22126200000093	0	419337	234
820.05859375	1	taste	trialStart	2	105	45	foodImage.20	FOODEEG_Images\0226.jpg	YN	Right	No	1.50283080000008	0	419871	251
821.119140625	2	taste	foodImageDisplay	2	105	45	foodImage.20	FOODEEG_Images\0226.jpg	YN	Right	No	1.50283080000008	0	420414	252
823.185546875	1.50283080000008	taste	choicePhaseStart	2	105	45	foodImage.20	FOODEEG_Images\0226.jpg	YN	Right	No	1.50283080000008	0	421472	253
824.6796875	0	taste	response	2	105	45	foodImage.20	FOODEEG_Images\0226.jpg	YN	Right	No	1.50283080000008	0	422237	235
825.72265625	1	decision	trialStart	2	106	46	foodImage.114	FOODEEG_Images\0922.jpg	YN	Right	No	1.30210799999986	0	422771	251
826.759765625	2	decision	foodImageDisplay	2	106	46	foodImage.114	FOODEEG_Images\0922.jpg	YN	Right	No	1.30210799999986	0	423302	252
828.826171875	1.30210799999986	decision	choicePhaseStart	2	106	46	foodImage.114	FOODEEG_Images\0922.jpg	YN	Right	No	1.30210799999986	0	424360	253
830.119140625	0	decision	response	2	106	46	foodImage.114	FOODEEG_Images\0922.jpg	YN	Right	No	1.30210799999986	0	425022	235
831.162109375	1	health	trialStart	2	107	47	foodImage.51	FOODEEG_Images\0536.jpg	NY	Left	No	1.10490899999968	0	425556	251
832.216796875	2	health	foodImageDisplay	2	107	47	foodImage.51	FOODEEG_Images\0536.jpg	NY	Left	No	1.10490899999968	0	426096	252
834.279296875	1.10490899999968	health	choicePhaseStart	2	107	47	foodImage.51	FOODEEG_Images\0536.jpg	NY	Left	No	1.10490899999968	0	427152	253
835.375	0	health	response	2	107	47	foodImage.51	FOODEEG_Images\0536.jpg	NY	Left	No	1.10490899999968	0	427713	234
836.416015625	1	health	trialStart	2	108	48	foodImage.95	FOODEEG_Images\0903.jpg	NY	Left	No	1.83011479999914	0	428246	251
837.462890625	2	health	foodImageDisplay	2	108	48	foodImage.95	FOODEEG_Images\0903.jpg	NY	Left	No	1.83011479999914	0	428782	252
839.529296875	1.83011479999914	health	choicePhaseStart	2	108	48	foodImage.95	FOODEEG_Images\0903.jpg	NY	Left	No	1.83011479999914	0	429840	253
841.3515625	0	health	response	2	108	48	foodImage.95	FOODEEG_Images\0903.jpg	NY	Left	No	1.83011479999914	0	430773	234
842.40234375	1	decision	trialStart	2	109	49	foodImage.108	FOODEEG_Images\0916.jpg	YN	Right	No	1.51949969999987	0	431311	251
843.44140625	2	decision	foodImageDisplay	2	109	49	foodImage.108	FOODEEG_Images\0916.jpg	YN	Right	No	1.51949969999987	0	431843	252
845.509765625	1.51949969999987	decision	choicePhaseStart	2	109	49	foodImage.108	FOODEEG_Images\0916.jpg	YN	Right	No	1.51949969999987	0	432902	253
847.0234375	0	decision	response	2	109	49	foodImage.108	FOODEEG_Images\0916.jpg	YN	Right	No	1.51949969999987	0	433677	235
848.06640625	1	health	trialStart	2	110	50	foodImage.96	FOODEEG_Images\0904.jpg	NY	Right	Yes	0.992751400000998	0	434211	251
849.103515625	2	health	foodImageDisplay	2	110	50	foodImage.96	FOODEEG_Images\0904.jpg	NY	Right	Yes	0.992751400000998	0	434742	252
851.16796875	0.992751400000998	health	choicePhaseStart	2	110	50	foodImage.96	FOODEEG_Images\0904.jpg	NY	Right	Yes	0.992751400000998	0	435799	253
852.150390625	0	health	response	2	110	50	foodImage.96	FOODEEG_Images\0904.jpg	NY	Right	Yes	0.992751400000998	0	436302	235
853.193359375	1	health	trialStart	2	111	51	foodImage.69	FOODEEG_Images\0693.jpg	YN	Left	Yes	0.896408099999462	0	436836	251
854.255859375	2	health	foodImageDisplay	2	111	51	foodImage.69	FOODEEG_Images\0693.jpg	YN	Left	Yes	0.896408099999462	0	437380	252
856.318359375	0.896408099999462	health	choicePhaseStart	2	111	51	foodImage.69	FOODEEG_Images\0693.jpg	YN	Left	Yes	0.896408099999462	0	438436	253
857.20703125	0	health	response	2	111	51	foodImage.69	FOODEEG_Images\0693.jpg	YN	Left	Yes	0.896408099999462	0	438891	234
858.25	1	health	trialStart	2	112	52	foodImage.49	FOODEEG_Images\0515.jpg	YN	Right	No	1.0711854000001	0	439425	251
859.291015625	2	health	foodImageDisplay	2	112	52	foodImage.49	FOODEEG_Images\0515.jpg	YN	Right	No	1.0711854000001	0	439958	252
861.359375	1.0711854000001	health	choicePhaseStart	2	112	52	foodImage.49	FOODEEG_Images\0515.jpg	YN	Right	No	1.0711854000001	0	441017	253
862.421875	0	health	response	2	112	52	foodImage.49	FOODEEG_Images\0515.jpg	YN	Right	No	1.0711854000001	0	441561	235
863.470703125	1	health	trialStart	2	113	53	foodImage.103	FOODEEG_Images\0911.jpg	YN	Right	No	1.20385219999844	0	442098	251
864.51171875	2	health	foodImageDisplay	2	113	53	foodImage.103	FOODEEG_Images\0911.jpg	YN	Right	No	1.20385219999844	0	442631	252
866.580078125	1.20385219999844	health	choicePhaseStart	2	113	53	foodImage.103	FOODEEG_Images\0911.jpg	YN	Right	No	1.20385219999844	0	443690	253
867.7734375	0	health	response	2	113	53	foodImage.103	FOODEEG_Images\0911.jpg	YN	Right	No	1.20385219999844	0	444301	235
868.822265625	1	health	trialStart	2	114	54	foodImage.107	FOODEEG_Images\0915.jpg	NY	Right	Yes	1.53046519999953	0	444838	251
869.861328125	2	health	foodImageDisplay	2	114	54	foodImage.107	FOODEEG_Images\0915.jpg	NY	Right	Yes	1.53046519999953	0	445370	252
871.9296875	1.53046519999953	health	choicePhaseStart	2	114	54	foodImage.107	FOODEEG_Images\0915.jpg	NY	Right	Yes	1.53046519999953	0	446429	253
873.455078125	0	health	response	2	114	54	foodImage.107	FOODEEG_Images\0915.jpg	NY	Right	Yes	1.53046519999953	0	447210	235
874.498046875	1	decision	trialStart	2	115	55	foodImage.102	FOODEEG_Images\0910.jpg	NY	Left	No	0.967299899999489	0	447744	251
875.537109375	2	decision	foodImageDisplay	2	115	55	foodImage.102	FOODEEG_Images\0910.jpg	NY	Left	No	0.967299899999489	0	448276	252
877.599609375	0.967299899999489	decision	choicePhaseStart	2	115	55	foodImage.102	FOODEEG_Images\0910.jpg	NY	Left	No	0.967299899999489	0	449332	253
878.55859375	0	decision	response	2	115	55	foodImage.102	FOODEEG_Images\0910.jpg	NY	Left	No	0.967299899999489	0	449823	234
879.607421875	1	decision	trialStart	2	116	56	foodImage.110	FOODEEG_Images\0918.jpg	NY	Left	No	1.54214390000016	0	450360	251
880.64453125	2	decision	foodImageDisplay	2	116	56	foodImage.110	FOODEEG_Images\0918.jpg	NY	Left	No	1.54214390000016	0	450891	252
882.712890625	1.54214390000016	decision	choicePhaseStart	2	116	56	foodImage.110	FOODEEG_Images\0918.jpg	NY	Left	No	1.54214390000016	0	451950	253
884.24609375	0	decision	response	2	116	56	foodImage.110	FOODEEG_Images\0918.jpg	NY	Left	No	1.54214390000016	0	452735	234
885.2890625	1	taste	trialStart	2	117	57	foodImage.51	FOODEEG_Images\0536.jpg	NY	Right	Yes	1.63747989999865	0	453269	251
886.333984375	2	taste	foodImageDisplay	2	117	57	foodImage.51	FOODEEG_Images\0536.jpg	NY	Right	Yes	1.63747989999865	0	453804	252
888.400390625	1.63747989999865	taste	choicePhaseStart	2	117	57	foodImage.51	FOODEEG_Images\0536.jpg	NY	Right	Yes	1.63747989999865	0	454862	253
890.029296875	0	taste	response	2	117	57	foodImage.51	FOODEEG_Images\0536.jpg	NY	Right	Yes	1.63747989999865	0	455696	235
891.072265625	1	health	trialStart	2	118	58	foodImage.113	FOODEEG_Images\0921.jpg	NY	Left	No	0.920017000000371	0	456230	251
892.111328125	2	health	foodImageDisplay	2	118	58	foodImage.113	FOODEEG_Images\0921.jpg	NY	Left	No	0.920017000000371	0	456762	252
894.173828125	0.920017000000371	health	choicePhaseStart	2	118	58	foodImage.113	FOODEEG_Images\0921.jpg	NY	Left	No	0.920017000000371	0	457818	253
895.0859375	0	health	response	2	118	58	foodImage.113	FOODEEG_Images\0921.jpg	NY	Left	No	0.920017000000371	0	458285	234
896.126953125	1	taste	trialStart	2	119	59	foodImage.86	FOODEEG_Images\0844.jpg	NY	Right	Yes	0.837369400000171	0	458818	251
897.19921875	2	taste	foodImageDisplay	2	119	59	foodImage.86	FOODEEG_Images\0844.jpg	NY	Right	Yes	0.837369400000171	0	459367	252
899.26171875	0.837369400000171	taste	choicePhaseStart	2	119	59	foodImage.86	FOODEEG_Images\0844.jpg	NY	Right	Yes	0.837369400000171	0	460423	253
900.09375	0	taste	response	2	119	59	foodImage.86	FOODEEG_Images\0844.jpg	NY	Right	Yes	0.837369400000171	0	460849	235
901.134765625	1	decision	trialStart	2	120	60	foodImage.49	FOODEEG_Images\0515.jpg	NY	Right	Yes	1.63617840000006	0	461382	251
902.177734375	2	decision	foodImageDisplay	2	120	60	foodImage.49	FOODEEG_Images\0515.jpg	NY	Right	Yes	1.63617840000006	0	461916	252
904.2421875	1.63617840000006	decision	choicePhaseStart	2	120	60	foodImage.49	FOODEEG_Images\0515.jpg	NY	Right	Yes	1.63617840000006	0	462973	253
905.869140625	0	decision	response	2	120	60	foodImage.49	FOODEEG_Images\0515.jpg	NY	Right	Yes	1.63617840000006	0	463806	235
907.912109375	11.455078125	n/a	blockEnd	n/a	n/a	n/a	n/a	n/a	n/a	n/a	n/a	n/a	n/a	464852	254
919.3671875	2	n/a	blockStart	3	n/a	n/a	n/a	n/a	n/a	n/a	n/a	n/a	n/a	470717	250
921.400390625	1	taste	trialStart	3	121	1	foodImage.17	FOODEEG_Images\0199.jpg	YN	Left	Yes	0.905074899999818	0	471758	251
922.443359375	2	taste	foodImageDisplay	3	121	1	foodImage.17	FOODEEG_Images\0199.jpg	YN	Left	Yes	0.905074899999818	0	472292	252
924.505859375	0.905074899999818	taste	choicePhaseStart	3	121	1	foodImage.17	FOODEEG_Images\0199.jpg	YN	Left	Yes	0.905074899999818	0	473348	253
925.404296875	0	taste	response	3	121	1	foodImage.17	FOODEEG_Images\0199.jpg	YN	Left	Yes	0.905074899999818	0	473808	234
926.447265625	1	health	trialStart	3	122	2	foodImage.75	FOODEEG_Images\0763.jpg	NY	Right	Yes	1.0359081000006	0	474342	251
927.490234375	2	health	foodImageDisplay	3	122	2	foodImage.75	FOODEEG_Images\0763.jpg	NY	Right	Yes	1.0359081000006	0	474876	252
929.55859375	1.0359081000006	health	choicePhaseStart	3	122	2	foodImage.75	FOODEEG_Images\0763.jpg	NY	Right	Yes	1.0359081000006	0	475935	253
930.587890625	0	health	response	3	122	2	foodImage.75	FOODEEG_Images\0763.jpg	NY	Right	Yes	1.0359081000006	0	476462	235
931.630859375	1	taste	trialStart	3	123	3	foodImage.2	FOODEEG_Images\0028.jpg	NY	Right	Yes	0.761831199999506	0	476996	251
932.677734375	2	taste	foodImageDisplay	3	123	3	foodImage.2	FOODEEG_Images\0028.jpg	NY	Right	Yes	0.761831199999506	0	477532	252
934.744140625	0.761831199999506	taste	choicePhaseStart	3	123	3	foodImage.2	FOODEEG_Images\0028.jpg	NY	Right	Yes	0.761831199999506	0	478590	253
935.5	0	taste	response	3	123	3	foodImage.2	FOODEEG_Images\0028.jpg	NY	Right	Yes	0.761831199999506	0	478977	235
936.54296875	1	taste	trialStart	3	124	4	foodImage.83	FOODEEG_Images\0827.jpg	NY	Right	Yes	0.949571299999661	0	479511	251
937.6015625	2	taste	foodImageDisplay	3	124	4	foodImage.83	FOODEEG_Images\0827.jpg	NY	Right	Yes	0.949571299999661	0	480053	252
939.66796875	0.949571299999661	taste	choicePhaseStart	3	124	4	foodImage.83	FOODEEG_Images\0827.jpg	NY	Right	Yes	0.949571299999661	0	481111	253
940.611328125	0	taste	response	3	124	4	foodImage.83	FOODEEG_Images\0827.jpg	NY	Right	Yes	0.949571299999661	0	481594	235
941.654296875	1	taste	trialStart	3	125	5	foodImage.60	FOODEEG_Images\0614.jpg	YN	Left	Yes	0.966393400000015	0	482128	251
942.712890625	2	taste	foodImageDisplay	3	125	5	foodImage.60	FOODEEG_Images\0614.jpg	YN	Left	Yes	0.966393400000015	0	482670	252
944.78125	0.966393400000015	taste	choicePhaseStart	3	125	5	foodImage.60	FOODEEG_Images\0614.jpg	YN	Left	Yes	0.966393400000015	0	483729	253
945.73828125	0	taste	response	3	125	5	foodImage.60	FOODEEG_Images\0614.jpg	YN	Left	Yes	0.966393400000015	0	484219	234
946.787109375	1	taste	trialStart	3	126	6	foodImage.110	FOODEEG_Images\0918.jpg	NY	Left	No	1.77732239999932	0	484756	251
947.826171875	2	taste	foodImageDisplay	3	126	6	foodImage.110	FOODEEG_Images\0918.jpg	NY	Left	No	1.77732239999932	0	485288	252
949.890625	1.77732239999932	taste	choicePhaseStart	3	126	6	foodImage.110	FOODEEG_Images\0918.jpg	NY	Left	No	1.77732239999932	0	486345	253
951.658203125	0	taste	response	3	126	6	foodImage.110	FOODEEG_Images\0918.jpg	NY	Left	No	1.77732239999932	0	487250	234
952.701171875	1	decision	trialStart	3	127	7	foodImage.74	FOODEEG_Images\0752.jpg	NY	Right	Yes	0.876235500001712	0	487784	251
953.74609375	2	decision	foodImageDisplay	3	127	7	foodImage.74	FOODEEG_Images\0752.jpg	NY	Right	Yes	0.876235500001712	0	488319	252
955.80859375	0.876235500001712	decision	choicePhaseStart	3	127	7	foodImage.74	FOODEEG_Images\0752.jpg	NY	Right	Yes	0.876235500001712	0	489375	253
956.67578125	0	decision	response	3	127	7	foodImage.74	FOODEEG_Images\0752.jpg	NY	Right	Yes	0.876235500001712	0	489819	235
957.71875	1	decision	trialStart	3	128	8	foodImage.36	FOODEEG_Images\0352.jpg	YN	Left	Yes	1.32188449999921	0	490353	251
958.779296875	2	decision	foodImageDisplay	3	128	8	foodImage.36	FOODEEG_Images\0352.jpg	YN	Left	Yes	1.32188449999921	0	490896	252
960.841796875	1.32188449999921	decision	choicePhaseStart	3	128	8	foodImage.36	FOODEEG_Images\0352.jpg	YN	Left	Yes	1.32188449999921	0	491952	253
962.154296875	0	decision	response	3	128	8	foodImage.36	FOODEEG_Images\0352.jpg	YN	Left	Yes	1.32188449999921	0	492624	234
963.19921875	1	taste	trialStart	3	129	9	foodImage.76	FOODEEG_Images\0766.jpg	NY	Left	No	1.28996720000032	0	493159	251
964.2421875	2	taste	foodImageDisplay	3	129	9	foodImage.76	FOODEEG_Images\0766.jpg	NY	Left	No	1.28996720000032	0	493693	252
966.3046875	1.28996720000032	taste	choicePhaseStart	3	129	9	foodImage.76	FOODEEG_Images\0766.jpg	NY	Left	No	1.28996720000032	0	494749	253
967.5859375	0	taste	response	3	129	9	foodImage.76	FOODEEG_Images\0766.jpg	NY	Left	No	1.28996720000032	0	495405	234
968.626953125	1	taste	trialStart	3	130	10	foodImage.117	FOODEEG_Images\0925.jpg	NY	Left	No	0.828335600001083	0	495938	251
969.681640625	2	taste	foodImageDisplay	3	130	10	foodImage.117	FOODEEG_Images\0925.jpg	NY	Left	No	0.828335600001083	0	496478	252
971.744140625	0.828335600001083	taste	choicePhaseStart	3	130	10	foodImage.117	FOODEEG_Images\0925.jpg	NY	Left	No	0.828335600001083	0	497534	253
972.5625	0	taste	response	3	130	10	foodImage.117	FOODEEG_Images\0925.jpg	NY	Left	No	0.828335600001083	0	497953	234
973.603515625	1	taste	trialStart	3	131	11	foodImage.81	FOODEEG_Images\0797.jpg	YN	Right	No	1.90819510000074	0	498486	251
974.6875	2	taste	foodImageDisplay	3	131	11	foodImage.81	FOODEEG_Images\0797.jpg	YN	Right	No	1.90819510000074	0	499041	252
976.751953125	1.90819510000074	taste	choicePhaseStart	3	131	11	foodImage.81	FOODEEG_Images\0797.jpg	YN	Right	No	1.90819510000074	0	500098	253
978.650390625	0	taste	response	3	131	11	foodImage.81	FOODEEG_Images\0797.jpg	YN	Right	No	1.90819510000074	0	501070	235
979.693359375	1	taste	trialStart	3	132	12	foodImage.19	FOODEEG_Images\0225.jpg	YN	Right	No	0.736527699998987	0	501604	251
980.736328125	2	taste	foodImageDisplay	3	132	12	foodImage.19	FOODEEG_Images\0225.jpg	YN	Right	No	0.736527699998987	0	502138	252
982.80078125	0.736527699998987	taste	choicePhaseStart	3	132	12	foodImage.19	FOODEEG_Images\0225.jpg	YN	Right	No	0.736527699998987	0	503195	253
983.529296875	0	taste	response	3	132	12	foodImage.19	FOODEEG_Images\0225.jpg	YN	Right	No	0.736527699998987	0	503568	235
984.578125	1	taste	trialStart	3	133	13	foodImage.10	FOODEEG_Images\0145.jpg	YN	Left	Yes	0.590060599999561	0	504105	251
985.63671875	2	taste	foodImageDisplay	3	133	13	foodImage.10	FOODEEG_Images\0145.jpg	YN	Left	Yes	0.590060599999561	0	504647	252
987.70703125	0.590060599999561	taste	choicePhaseStart	3	133	13	foodImage.10	FOODEEG_Images\0145.jpg	YN	Left	Yes	0.590060599999561	0	505707	253
988.2890625	0	taste	response	3	133	13	foodImage.10	FOODEEG_Images\0145.jpg	YN	Left	Yes	0.590060599999561	0	506005	234
989.33203125	1	taste	trialStart	3	134	14	foodImage.101	FOODEEG_Images\0909.jpg	NY	Left	No	0.913384600000427	0	506539	251
990.369140625	2	taste	foodImageDisplay	3	134	14	foodImage.101	FOODEEG_Images\0909.jpg	NY	Left	No	0.913384600000427	0	507070	252
992.4375	0.913384600000427	taste	choicePhaseStart	3	134	14	foodImage.101	FOODEEG_Images\0909.jpg	NY	Left	No	0.913384600000427	0	508129	253
993.345703125	0	taste	response	3	134	14	foodImage.101	FOODEEG_Images\0909.jpg	NY	Left	No	0.913384600000427	0	508594	234
994.396484375	1	decision	trialStart	3	135	15	foodImage.75	FOODEEG_Images\0763.jpg	NY	Right	Yes	1.33788949999871	0	509132	251
995.44140625	2	decision	foodImageDisplay	3	135	15	foodImage.75	FOODEEG_Images\0763.jpg	NY	Right	Yes	1.33788949999871	0	509667	252
997.50390625	1.33788949999871	decision	choicePhaseStart	3	135	15	foodImage.75	FOODEEG_Images\0763.jpg	NY	Right	Yes	1.33788949999871	0	510723	253
998.833984375	0	decision	response	3	135	15	foodImage.75	FOODEEG_Images\0763.jpg	NY	Right	Yes	1.33788949999871	0	511404	235
999.880859375	1	health	trialStart	3	136	16	foodImage.99	FOODEEG_Images\0907.jpg	YN	Right	No	1.05951599999935	0	511940	251
1000.91796875	2	health	foodImageDisplay	3	136	16	foodImage.99	FOODEEG_Images\0907.jpg	YN	Right	No	1.05951599999935	0	512471	252
1002.982421875	1.05951599999935	health	choicePhaseStart	3	136	16	foodImage.99	FOODEEG_Images\0907.jpg	YN	Right	No	1.05951599999935	0	513528	253
1004.033203125	0	health	response	3	136	16	foodImage.99	FOODEEG_Images\0907.jpg	YN	Right	No	1.05951599999935	0	514066	235
1005.07421875	1	decision	trialStart	3	137	17	foodImage.51	FOODEEG_Images\0536.jpg	NY	Right	Yes	1.38162560000092	0	514599	251
1006.12109375	2	decision	foodImageDisplay	3	137	17	foodImage.51	FOODEEG_Images\0536.jpg	NY	Right	Yes	1.38162560000092	0	515135	252
1008.185546875	1.38162560000092	decision	choicePhaseStart	3	137	17	foodImage.51	FOODEEG_Images\0536.jpg	NY	Right	Yes	1.38162560000092	0	516192	253
1009.560546875	0	decision	response	3	137	17	foodImage.51	FOODEEG_Images\0536.jpg	NY	Right	Yes	1.38162560000092	0	516896	235
1010.603515625	1	health	trialStart	3	138	18	foodImage.77	FOODEEG_Images\0771.jpg	NY	Right	Yes	0.834220099999584	0	517430	251
1011.646484375	2	health	foodImageDisplay	3	138	18	foodImage.77	FOODEEG_Images\0771.jpg	NY	Right	Yes	0.834220099999584	0	517964	252
1013.7109375	0.834220099999584	health	choicePhaseStart	3	138	18	foodImage.77	FOODEEG_Images\0771.jpg	NY	Right	Yes	0.834220099999584	0	519021	253
1014.537109375	0	health	response	3	138	18	foodImage.77	FOODEEG_Images\0771.jpg	NY	Right	Yes	0.834220099999584	0	519444	235
1015.58203125	1	decision	trialStart	3	139	19	foodImage.96	FOODEEG_Images\0904.jpg	NY	Right	Yes	3.01428420000047	0	519979	251
1016.62109375	2	decision	foodImageDisplay	3	139	19	foodImage.96	FOODEEG_Images\0904.jpg	NY	Right	Yes	3.01428420000047	0	520511	252
1018.689453125	3.01428420000047	decision	choicePhaseStart	3	139	19	foodImage.96	FOODEEG_Images\0904.jpg	NY	Right	Yes	3.01428420000047	0	521570	253
1021.6953125	0	decision	response	3	139	19	foodImage.96	FOODEEG_Images\0904.jpg	NY	Right	Yes	3.01428420000047	0	523109	235
1022.740234375	1	health	trialStart	3	140	20	foodImage.34	FOODEEG_Images\0339.jpg	NY	Left	No	1.02118549999977	0	523644	251
1023.798828125	2	health	foodImageDisplay	3	140	20	foodImage.34	FOODEEG_Images\0339.jpg	NY	Left	No	1.02118549999977	0	524186	252
1025.8671875	1.02118549999977	health	choicePhaseStart	3	140	20	foodImage.34	FOODEEG_Images\0339.jpg	NY	Left	No	1.02118549999977	0	525245	253
1026.880859375	0	health	response	3	140	20	foodImage.34	FOODEEG_Images\0339.jpg	NY	Left	No	1.02118549999977	0	525764	234
1027.919921875	1	health	trialStart	3	141	21	foodImage.87	FOODEEG_Images\0873.jpg	YN	Left	Yes	0.835282599999118	0	526296	251
1028.994140625	2	health	foodImageDisplay	3	141	21	foodImage.87	FOODEEG_Images\0873.jpg	YN	Left	Yes	0.835282599999118	0	526846	252
1031.060546875	0.835282599999118	health	choicePhaseStart	3	141	21	foodImage.87	FOODEEG_Images\0873.jpg	YN	Left	Yes	0.835282599999118	0	527904	253
1031.888671875	0	health	response	3	141	21	foodImage.87	FOODEEG_Images\0873.jpg	YN	Left	Yes	0.835282599999118	0	528328	234
1032.931640625	1	decision	trialStart	3	142	22	foodImage.10	FOODEEG_Images\0145.jpg	NY	Right	Yes	0.97764079999979	0	528862	251
1033.990234375	2	decision	foodImageDisplay	3	142	22	foodImage.10	FOODEEG_Images\0145.jpg	NY	Right	Yes	0.97764079999979	0	529404	252
1036.0546875	0.97764079999979	decision	choicePhaseStart	3	142	22	foodImage.10	FOODEEG_Images\0145.jpg	NY	Right	Yes	0.97764079999979	0	530461	253
1037.0234375	0	decision	response	3	142	22	foodImage.10	FOODEEG_Images\0145.jpg	NY	Right	Yes	0.97764079999979	0	530957	235
1038.06640625	1	taste	trialStart	3	143	23	foodImage.82	FOODEEG_Images\0805.jpg	YN	Left	Yes	0.949360500000694	0	531491	251
1039.123046875	2	taste	foodImageDisplay	3	143	23	foodImage.82	FOODEEG_Images\0805.jpg	YN	Left	Yes	0.949360500000694	0	532032	252
1041.1875	0.949360500000694	taste	choicePhaseStart	3	143	23	foodImage.82	FOODEEG_Images\0805.jpg	YN	Left	Yes	0.949360500000694	0	533089	253
1042.126953125	0	taste	response	3	143	23	foodImage.82	FOODEEG_Images\0805.jpg	YN	Left	Yes	0.949360500000694	0	533570	234
1043.169921875	1	taste	trialStart	3	144	24	foodImage.97	FOODEEG_Images\0905.jpg	YN	Left	Yes	1.68843740000011	0	534104	251
1044.208984375	2	taste	foodImageDisplay	3	144	24	foodImage.97	FOODEEG_Images\0905.jpg	YN	Left	Yes	1.68843740000011	0	534636	252
1046.2734375	1.68843740000011	taste	choicePhaseStart	3	144	24	foodImage.97	FOODEEG_Images\0905.jpg	YN	Left	Yes	1.68843740000011	0	535693	253
1047.951171875	0	taste	response	3	144	24	foodImage.97	FOODEEG_Images\0905.jpg	YN	Left	Yes	1.68843740000011	0	536552	234
1048.994140625	1	health	trialStart	3	145	25	foodImage.79	FOODEEG_Images\0794.jpg	YN	Left	Yes	0.97599320000154	0	537086	251
1050.041015625	2	health	foodImageDisplay	3	145	25	foodImage.79	FOODEEG_Images\0794.jpg	YN	Left	Yes	0.97599320000154	0	537622	252
1052.109375	0.97599320000154	health	choicePhaseStart	3	145	25	foodImage.79	FOODEEG_Images\0794.jpg	YN	Left	Yes	0.97599320000154	0	538681	253
1053.078125	0	health	response	3	145	25	foodImage.79	FOODEEG_Images\0794.jpg	YN	Left	Yes	0.97599320000154	0	539177	234
1054.123046875	1	taste	trialStart	3	146	26	foodImage.41	FOODEEG_Images\0409.jpg	YN	Left	Yes	1.98975430000064	0	539712	251
1055.169921875	2	taste	foodImageDisplay	3	146	26	foodImage.41	FOODEEG_Images\0409.jpg	YN	Left	Yes	1.98975430000064	0	540248	252
1057.234375	1.98975430000064	taste	choicePhaseStart	3	146	26	foodImage.41	FOODEEG_Images\0409.jpg	YN	Left	Yes	1.98975430000064	0	541305	253
1059.21484375	0	taste	response	3	146	26	foodImage.41	FOODEEG_Images\0409.jpg	YN	Left	Yes	1.98975430000064	0	542319	234
1060.255859375	1	decision	trialStart	3	147	27	foodImage.85	FOODEEG_Images\0841.jpg	YN	Left	Yes	1.01762149999922	0	542852	251
1061.318359375	2	decision	foodImageDisplay	3	147	27	foodImage.85	FOODEEG_Images\0841.jpg	YN	Left	Yes	1.01762149999922	0	543396	252
1063.38671875	1.01762149999922	decision	choicePhaseStart	3	147	27	foodImage.85	FOODEEG_Images\0841.jpg	YN	Left	Yes	1.01762149999922	0	544455	253
1064.3984375	0	decision	response	3	147	27	foodImage.85	FOODEEG_Images\0841.jpg	YN	Left	Yes	1.01762149999922	0	544973	234
1065.44140625	1	health	trialStart	3	148	28	foodImage.97	FOODEEG_Images\0905.jpg	NY	Left	No	1.10615880000114	0	545507	251
1066.48046875	2	health	foodImageDisplay	3	148	28	foodImage.97	FOODEEG_Images\0905.jpg	NY	Left	No	1.10615880000114	0	546039	252
1068.546875	1.10615880000114	health	choicePhaseStart	3	148	28	foodImage.97	FOODEEG_Images\0905.jpg	NY	Left	No	1.10615880000114	0	547097	253
1069.646484375	0	health	response	3	148	28	foodImage.97	FOODEEG_Images\0905.jpg	NY	Left	No	1.10615880000114	0	547660	234
1070.6875	1	health	trialStart	3	149	29	foodImage.70	FOODEEG_Images\0705.jpg	YN	Right	No	0.997002800000701	0	548193	251
1071.751953125	2	health	foodImageDisplay	3	149	29	foodImage.70	FOODEEG_Images\0705.jpg	YN	Right	No	0.997002800000701	0	548738	252
1073.818359375	0.997002800000701	health	choicePhaseStart	3	149	29	foodImage.70	FOODEEG_Images\0705.jpg	YN	Right	No	0.997002800000701	0	549796	253
1074.806640625	0	health	response	3	149	29	foodImage.70	FOODEEG_Images\0705.jpg	YN	Right	No	0.997002800000701	0	550302	235
1075.849609375	1	decision	trialStart	3	150	30	foodImage.38	FOODEEG_Images\0365.jpg	YN	Left	Yes	0.894331299999976	0	550836	251
1076.888671875	2	decision	foodImageDisplay	3	150	30	foodImage.38	FOODEEG_Images\0365.jpg	YN	Left	Yes	0.894331299999976	0	551368	252
1078.953125	0.894331299999976	decision	choicePhaseStart	3	150	30	foodImage.38	FOODEEG_Images\0365.jpg	YN	Left	Yes	0.894331299999976	0	552425	253
1079.837890625	0	decision	response	3	150	30	foodImage.38	FOODEEG_Images\0365.jpg	YN	Left	Yes	0.894331299999976	0	552878	234
1080.87890625	1	health	trialStart	3	151	31	foodImage.23	FOODEEG_Images\0244.jpg	NY	Right	Yes	1.18909369999892	0	553411	251
1081.927734375	2	health	foodImageDisplay	3	151	31	foodImage.23	FOODEEG_Images\0244.jpg	NY	Right	Yes	1.18909369999892	0	553948	252
1083.9921875	1.18909369999892	health	choicePhaseStart	3	151	31	foodImage.23	FOODEEG_Images\0244.jpg	NY	Right	Yes	1.18909369999892	0	555005	253
1085.173828125	0	health	response	3	151	31	foodImage.23	FOODEEG_Images\0244.jpg	NY	Right	Yes	1.18909369999892	0	555610	235
1086.216796875	1	health	trialStart	3	152	32	foodImage.4	FOODEEG_Images\0065.jpg	NY	Left	No	1.62683070000094	0	556144	251
1087.27734375	2	health	foodImageDisplay	3	152	32	foodImage.4	FOODEEG_Images\0065.jpg	NY	Left	No	1.62683070000094	0	556687	252
1089.33984375	1.62683070000094	health	choicePhaseStart	3	152	32	foodImage.4	FOODEEG_Images\0065.jpg	NY	Left	No	1.62683070000094	0	557743	253
1090.95703125	0	health	response	3	152	32	foodImage.4	FOODEEG_Images\0065.jpg	NY	Left	No	1.62683070000094	0	558571	234
1092.001953125	1	taste	trialStart	3	153	33	foodImage.85	FOODEEG_Images\0841.jpg	YN	Left	Yes	1.04786669999885	0	559106	251
1093.05859375	2	taste	foodImageDisplay	3	153	33	foodImage.85	FOODEEG_Images\0841.jpg	YN	Left	Yes	1.04786669999885	0	559647	252
1095.126953125	1.04786669999885	taste	choicePhaseStart	3	153	33	foodImage.85	FOODEEG_Images\0841.jpg	YN	Left	Yes	1.04786669999885	0	560706	253
1096.1640625	0	taste	response	3	153	33	foodImage.85	FOODEEG_Images\0841.jpg	YN	Left	Yes	1.04786669999885	0	561237	234
1097.208984375	1	decision	trialStart	3	154	34	foodImage.12	FOODEEG_Images\0181.jpg	YN	Left	Yes	0.924165399999765	0	561772	251
1098.251953125	2	decision	foodImageDisplay	3	154	34	foodImage.12	FOODEEG_Images\0181.jpg	YN	Left	Yes	0.924165399999765	0	562306	252
1100.3203125	0.924165399999765	decision	choicePhaseStart	3	154	34	foodImage.12	FOODEEG_Images\0181.jpg	YN	Left	Yes	0.924165399999765	0	563365	253
1101.236328125	0	decision	response	3	154	34	foodImage.12	FOODEEG_Images\0181.jpg	YN	Left	Yes	0.924165399999765	0	563834	234
1102.28125	1	health	trialStart	3	155	35	foodImage.82	FOODEEG_Images\0805.jpg	YN	Left	Yes	0.807005799999388	0	564369	251
1103.3359375	2	health	foodImageDisplay	3	155	35	foodImage.82	FOODEEG_Images\0805.jpg	YN	Left	Yes	0.807005799999388	0	564909	252
1105.404296875	0.807005799999388	health	choicePhaseStart	3	155	35	foodImage.82	FOODEEG_Images\0805.jpg	YN	Left	Yes	0.807005799999388	0	565968	253
1106.205078125	0	health	response	3	155	35	foodImage.82	FOODEEG_Images\0805.jpg	YN	Left	Yes	0.807005799999388	0	566378	234
1107.248046875	1	decision	trialStart	3	156	36	foodImage.76	FOODEEG_Images\0766.jpg	NY	Left	No	1.1419748999997	0	566912	251
1108.310546875	2	decision	foodImageDisplay	3	156	36	foodImage.76	FOODEEG_Images\0766.jpg	NY	Left	No	1.1419748999997	0	567456	252
1110.37890625	1.1419748999997	decision	choicePhaseStart	3	156	36	foodImage.76	FOODEEG_Images\0766.jpg	NY	Left	No	1.1419748999997	0	568515	253
1111.517578125	0	decision	response	3	156	36	foodImage.76	FOODEEG_Images\0766.jpg	NY	Left	No	1.1419748999997	0	569098	234
1112.55859375	1	health	trialStart	3	157	37	foodImage.27	FOODEEG_Images\0263.jpg	NY	Right	Yes	0.859180999999808	0	569631	251
1113.603515625	2	health	foodImageDisplay	3	157	37	foodImage.27	FOODEEG_Images\0263.jpg	NY	Right	Yes	0.859180999999808	0	570166	252
1115.671875	0.859180999999808	health	choicePhaseStart	3	157	37	foodImage.27	FOODEEG_Images\0263.jpg	NY	Right	Yes	0.859180999999808	0	571225	253
1116.525390625	0	health	response	3	157	37	foodImage.27	FOODEEG_Images\0263.jpg	NY	Right	Yes	0.859180999999808	0	571662	235
1117.572265625	1	health	trialStart	3	158	38	foodImage.86	FOODEEG_Images\0844.jpg	YN	Right	No	1.14893980000124	0	572198	251
1118.6328125	2	health	foodImageDisplay	3	158	38	foodImage.86	FOODEEG_Images\0844.jpg	YN	Right	No	1.14893980000124	0	572741	252
1120.701171875	1.14893980000124	health	choicePhaseStart	3	158	38	foodImage.86	FOODEEG_Images\0844.jpg	YN	Right	No	1.14893980000124	0	573800	253
1121.84375	0	health	response	3	158	38	foodImage.86	FOODEEG_Images\0844.jpg	YN	Right	No	1.14893980000124	0	574385	235
1122.888671875	1	health	trialStart	3	159	39	foodImage.9	FOODEEG_Images\0138.jpg	YN	Right	No	1.16287550000015	0	574920	251
1123.947265625	2	health	foodImageDisplay	3	159	39	foodImage.9	FOODEEG_Images\0138.jpg	YN	Right	No	1.16287550000015	0	575462	252
1126.009765625	1.16287550000015	health	choicePhaseStart	3	159	39	foodImage.9	FOODEEG_Images\0138.jpg	YN	Right	No	1.16287550000015	0	576518	253
1127.1640625	0	health	response	3	159	39	foodImage.9	FOODEEG_Images\0138.jpg	YN	Right	No	1.16287550000015	0	577109	235
1128.20703125	1	health	trialStart	3	160	40	foodImage.93	FOODEEG_Images\0901.jpg	NY	Right	Yes	2.61801750000086	0	577643	251
1129.24609375	2	health	foodImageDisplay	3	160	40	foodImage.93	FOODEEG_Images\0901.jpg	NY	Right	Yes	2.61801750000086	0	578175	252
1131.3203125	2.61801750000086	health	choicePhaseStart	3	160	40	foodImage.93	FOODEEG_Images\0901.jpg	NY	Right	Yes	2.61801750000086	0	579237	253
1133.931640625	0	health	response	3	160	40	foodImage.93	FOODEEG_Images\0901.jpg	NY	Right	Yes	2.61801750000086	0	580574	235
1134.974609375	1	health	trialStart	3	161	41	foodImage.60	FOODEEG_Images\0614.jpg	NY	Right	Yes	1.40751009999985	0	581108	251
1136.03125	2	health	foodImageDisplay	3	161	41	foodImage.60	FOODEEG_Images\0614.jpg	NY	Right	Yes	1.40751009999985	0	581649	252
1138.099609375	1.40751009999985	health	choicePhaseStart	3	161	41	foodImage.60	FOODEEG_Images\0614.jpg	NY	Right	Yes	1.40751009999985	0	582708	253
1139.5	0	health	response	3	161	41	foodImage.60	FOODEEG_Images\0614.jpg	NY	Right	Yes	1.40751009999985	0	583425	235
1140.54296875	1	decision	trialStart	3	162	42	foodImage.61	FOODEEG_Images\0640.jpg	NY	Right	Yes	0.971921500000462	0	583959	251
1141.5859375	2	decision	foodImageDisplay	3	162	42	foodImage.61	FOODEEG_Images\0640.jpg	NY	Right	Yes	0.971921500000462	0	584493	252
1143.6484375	0.971921500000462	decision	choicePhaseStart	3	162	42	foodImage.61	FOODEEG_Images\0640.jpg	NY	Right	Yes	0.971921500000462	0	585549	253
1144.611328125	0	decision	response	3	162	42	foodImage.61	FOODEEG_Images\0640.jpg	NY	Right	Yes	0.971921500000462	0	586042	235
1145.658203125	1	health	trialStart	3	163	43	foodImage.66	FOODEEG_Images\0676.jpg	NY	Left	No	0.834996199999296	0	586578	251
1146.703125	2	health	foodImageDisplay	3	163	43	foodImage.66	FOODEEG_Images\0676.jpg	NY	Left	No	0.834996199999296	0	587113	252
1148.76953125	0.834996199999296	health	choicePhaseStart	3	163	43	foodImage.66	FOODEEG_Images\0676.jpg	NY	Left	No	0.834996199999296	0	588171	253
1149.595703125	0	health	response	3	163	43	foodImage.66	FOODEEG_Images\0676.jpg	NY	Left	No	0.834996199999296	0	588594	234
1150.638671875	1	health	trialStart	3	164	44	foodImage.5	FOODEEG_Images\0107.jpg	NY	Left	No	0.829243800000768	0	589128	251
1151.6953125	2	health	foodImageDisplay	3	164	44	foodImage.5	FOODEEG_Images\0107.jpg	NY	Left	No	0.829243800000768	0	589669	252
1153.7578125	0.829243800000768	health	choicePhaseStart	3	164	44	foodImage.5	FOODEEG_Images\0107.jpg	NY	Left	No	0.829243800000768	0	590725	253
1154.578125	0	health	response	3	164	44	foodImage.5	FOODEEG_Images\0107.jpg	NY	Left	No	0.829243800000768	0	591145	234
1155.623046875	1	decision	trialStart	3	165	45	foodImage.9	FOODEEG_Images\0138.jpg	YN	Left	Yes	1.34048549999898	0	591680	251
1156.6796875	2	decision	foodImageDisplay	3	165	45	foodImage.9	FOODEEG_Images\0138.jpg	YN	Left	Yes	1.34048549999898	0	592221	252
1158.7421875	1.34048549999898	decision	choicePhaseStart	3	165	45	foodImage.9	FOODEEG_Images\0138.jpg	YN	Left	Yes	1.34048549999898	0	593277	253
1160.07421875	0	decision	response	3	165	45	foodImage.9	FOODEEG_Images\0138.jpg	YN	Left	Yes	1.34048549999898	0	593959	234
1161.119140625	1	taste	trialStart	3	166	46	foodImage.61	FOODEEG_Images\0640.jpg	YN	Left	Yes	1.51462809999975	0	594494	251
1162.162109375	2	taste	foodImageDisplay	3	166	46	foodImage.61	FOODEEG_Images\0640.jpg	YN	Left	Yes	1.51462809999975	0	595028	252
1164.23046875	1.51462809999975	taste	choicePhaseStart	3	166	46	foodImage.61	FOODEEG_Images\0640.jpg	YN	Left	Yes	1.51462809999975	0	596087	253
1165.73828125	0	taste	response	3	166	46	foodImage.61	FOODEEG_Images\0640.jpg	YN	Left	Yes	1.51462809999975	0	596859	234
1166.783203125	1	health	trialStart	3	167	47	foodImage.111	FOODEEG_Images\0919.jpg	NY	Left	No	1.40237750000051	0	597394	251
1167.8203125	2	health	foodImageDisplay	3	167	47	foodImage.111	FOODEEG_Images\0919.jpg	NY	Left	No	1.40237750000051	0	597925	252
1169.888671875	1.40237750000051	health	choicePhaseStart	3	167	47	foodImage.111	FOODEEG_Images\0919.jpg	NY	Left	No	1.40237750000051	0	598984	253
1171.283203125	0	health	response	3	167	47	foodImage.111	FOODEEG_Images\0919.jpg	NY	Left	No	1.40237750000051	0	599698	234
1172.32421875	1	health	trialStart	3	168	48	foodImage.43	FOODEEG_Images\0445.jpg	YN	Left	Yes	0.83973369999876	0	600231	251
1173.384765625	2	health	foodImageDisplay	3	168	48	foodImage.43	FOODEEG_Images\0445.jpg	YN	Left	Yes	0.83973369999876	0	600774	252
1175.44921875	0.83973369999876	health	choicePhaseStart	3	168	48	foodImage.43	FOODEEG_Images\0445.jpg	YN	Left	Yes	0.83973369999876	0	601831	253
1176.28125	0	health	response	3	168	48	foodImage.43	FOODEEG_Images\0445.jpg	YN	Left	Yes	0.83973369999876	0	602257	234
1177.32421875	1	taste	trialStart	3	169	49	foodImage.33	FOODEEG_Images\0329.jpg	NY	Right	Yes	1.86438920000001	0	602791	251
1178.3671875	2	taste	foodImageDisplay	3	169	49	foodImage.33	FOODEEG_Images\0329.jpg	NY	Right	Yes	1.86438920000001	0	603325	252
1180.435546875	1.86438920000001	taste	choicePhaseStart	3	169	49	foodImage.33	FOODEEG_Images\0329.jpg	NY	Right	Yes	1.86438920000001	0	604384	253
1182.2890625	0	taste	response	3	169	49	foodImage.33	FOODEEG_Images\0329.jpg	NY	Right	Yes	1.86438920000001	0	605333	235
1183.33203125	1	decision	trialStart	3	170	50	foodImage.59	FOODEEG_Images\0607.jpg	NY	Right	Yes	0.858716099999583	0	605867	251
1184.3828125	2	decision	foodImageDisplay	3	170	50	foodImage.59	FOODEEG_Images\0607.jpg	NY	Right	Yes	0.858716099999583	0	606405	252
1186.447265625	0.858716099999583	decision	choicePhaseStart	3	170	50	foodImage.59	FOODEEG_Images\0607.jpg	NY	Right	Yes	0.858716099999583	0	607462	253
1187.296875	0	decision	response	3	170	50	foodImage.59	FOODEEG_Images\0607.jpg	NY	Right	Yes	0.858716099999583	0	607897	235
1188.341796875	1	health	trialStart	3	171	51	foodImage.104	FOODEEG_Images\0912.jpg	NY	Left	No	1.32787409999946	0	608432	251
1189.37890625	2	health	foodImageDisplay	3	171	51	foodImage.104	FOODEEG_Images\0912.jpg	NY	Left	No	1.32787409999946	0	608963	252
1191.447265625	1.32787409999946	health	choicePhaseStart	3	171	51	foodImage.104	FOODEEG_Images\0912.jpg	NY	Left	No	1.32787409999946	0	610022	253
1192.76953125	0	health	response	3	171	51	foodImage.104	FOODEEG_Images\0912.jpg	NY	Left	No	1.32787409999946	0	610699	234
1193.814453125	1	health	trialStart	3	172	52	foodImage.63	FOODEEG_Images\0645.jpg	YN	Left	Yes	2.32326810000086	0	611234	251
1194.857421875	2	health	foodImageDisplay	3	172	52	foodImage.63	FOODEEG_Images\0645.jpg	YN	Left	Yes	2.32326810000086	0	611768	252
1196.92578125	2.32326810000086	health	choicePhaseStart	3	172	52	foodImage.63	FOODEEG_Images\0645.jpg	YN	Left	Yes	2.32326810000086	0	612827	253
1199.2421875	0	health	response	3	172	52	foodImage.63	FOODEEG_Images\0645.jpg	YN	Left	Yes	2.32326810000086	0	614013	234
1200.2890625	1	health	trialStart	3	173	53	foodImage.101	FOODEEG_Images\0909.jpg	YN	Right	No	1.15030490000026	0	614549	251
1201.328125	2	health	foodImageDisplay	3	173	53	foodImage.101	FOODEEG_Images\0909.jpg	YN	Right	No	1.15030490000026	0	615081	252
1203.396484375	1.15030490000026	health	choicePhaseStart	3	173	53	foodImage.101	FOODEEG_Images\0909.jpg	YN	Right	No	1.15030490000026	0	616140	253
1204.537109375	0	health	response	3	173	53	foodImage.101	FOODEEG_Images\0909.jpg	YN	Right	No	1.15030490000026	0	616724	235
1205.580078125	1	taste	trialStart	3	174	54	foodImage.35	FOODEEG_Images\0350.jpg	NY	Right	Yes	0.870871499999339	0	617258	251
1206.634765625	2	taste	foodImageDisplay	3	174	54	foodImage.35	FOODEEG_Images\0350.jpg	NY	Right	Yes	0.870871499999339	0	617798	252
1208.69921875	0.870871499999339	taste	choicePhaseStart	3	174	54	foodImage.35	FOODEEG_Images\0350.jpg	NY	Right	Yes	0.870871499999339	0	618855	253
1209.560546875	0	taste	response	3	174	54	foodImage.35	FOODEEG_Images\0350.jpg	NY	Right	Yes	0.870871499999339	0	619296	235
1210.603515625	1	decision	trialStart	3	175	55	foodImage.55	FOODEEG_Images\0567.jpg	YN	Left	Yes	0.852802299999894	0	619830	251
1211.6875	2	decision	foodImageDisplay	3	175	55	foodImage.55	FOODEEG_Images\0567.jpg	YN	Left	Yes	0.852802299999894	0	620385	252
1213.755859375	0.852802299999894	decision	choicePhaseStart	3	175	55	foodImage.55	FOODEEG_Images\0567.jpg	YN	Left	Yes	0.852802299999894	0	621444	253
1214.599609375	0	decision	response	3	175	55	foodImage.55	FOODEEG_Images\0567.jpg	YN	Left	Yes	0.852802299999894	0	621876	234
1215.642578125	1	taste	trialStart	3	176	56	foodImage.48	FOODEEG_Images\0494.jpg	YN	Left	Yes	1.3220235000008	0	622410	251
1216.685546875	2	taste	foodImageDisplay	3	176	56	foodImage.48	FOODEEG_Images\0494.jpg	YN	Left	Yes	1.3220235000008	0	622944	252
1218.748046875	1.3220235000008	taste	choicePhaseStart	3	176	56	foodImage.48	FOODEEG_Images\0494.jpg	YN	Left	Yes	1.3220235000008	0	624000	253
1220.064453125	0	taste	response	3	176	56	foodImage.48	FOODEEG_Images\0494.jpg	YN	Left	Yes	1.3220235000008	0	624674	234
1221.10546875	1	taste	trialStart	3	177	57	foodImage.31	FOODEEG_Images\0294.jpg	NY	Right	Yes	0.78441649999877	0	625207	251
1222.146484375	2	taste	foodImageDisplay	3	177	57	foodImage.31	FOODEEG_Images\0294.jpg	NY	Right	Yes	0.78441649999877	0	625740	252
1224.208984375	0.78441649999877	taste	choicePhaseStart	3	177	57	foodImage.31	FOODEEG_Images\0294.jpg	NY	Right	Yes	0.78441649999877	0	626796	253
1224.984375	0	taste	response	3	177	57	foodImage.31	FOODEEG_Images\0294.jpg	NY	Right	Yes	0.78441649999877	0	627193	235
1226.02734375	1	taste	trialStart	3	178	58	foodImage.77	FOODEEG_Images\0771.jpg	YN	Left	Yes	0.945989099998769	0	627727	251
1227.072265625	2	taste	foodImageDisplay	3	178	58	foodImage.77	FOODEEG_Images\0771.jpg	YN	Left	Yes	0.945989099998769	0	628262	252
1229.140625	0.945989099998769	taste	choicePhaseStart	3	178	58	foodImage.77	FOODEEG_Images\0771.jpg	YN	Left	Yes	0.945989099998769	0	629321	253
1230.080078125	0	taste	response	3	178	58	foodImage.77	FOODEEG_Images\0771.jpg	YN	Left	Yes	0.945989099998769	0	629802	234
1231.123046875	1	taste	trialStart	3	179	59	foodImage.24	FOODEEG_Images\0250.jpg	NY	Left	No	1.31860789999882	0	630336	251
1232.166015625	2	taste	foodImageDisplay	3	179	59	foodImage.24	FOODEEG_Images\0250.jpg	NY	Left	No	1.31860789999882	0	630870	252
1234.234375	1.31860789999882	taste	choicePhaseStart	3	179	59	foodImage.24	FOODEEG_Images\0250.jpg	NY	Left	No	1.31860789999882	0	631929	253
1235.54296875	0	taste	response	3	179	59	foodImage.24	FOODEEG_Images\0250.jpg	NY	Left	No	1.31860789999882	0	632599	234
1236.5859375	1	health	trialStart	3	180	60	foodImage.2	FOODEEG_Images\0028.jpg	YN	Right	No	1.40472229999978	0	633133	251
1237.62890625	2	health	foodImageDisplay	3	180	60	foodImage.2	FOODEEG_Images\0028.jpg	YN	Right	No	1.40472229999978	0	633667	252
1239.697265625	1.40472229999978	health	choicePhaseStart	3	180	60	foodImage.2	FOODEEG_Images\0028.jpg	YN	Right	No	1.40472229999978	0	634726	253
1241.095703125	0	health	response	3	180	60	foodImage.2	FOODEEG_Images\0028.jpg	YN	Right	No	1.40472229999978	0	635442	235
1243.142578125	24.921875	n/a	blockEnd	n/a	n/a	n/a	n/a	n/a	n/a	n/a	n/a	n/a	n/a	636490	254
1268.064453125	2	n/a	blockStart	4	n/a	n/a	n/a	n/a	n/a	n/a	n/a	n/a	n/a	649250	250
1270.099609375	1	decision	trialStart	4	181	1	foodImage.115	FOODEEG_Images\0923.jpg	NY	Left	No	0.827951400000529	0	650292	251
1271.140625	2	decision	foodImageDisplay	4	181	1	foodImage.115	FOODEEG_Images\0923.jpg	NY	Left	No	0.827951400000529	0	650825	252
1273.203125	0.827951400000529	decision	choicePhaseStart	4	181	1	foodImage.115	FOODEEG_Images\0923.jpg	NY	Left	No	0.827951400000529	0	651881	253
1274.021484375	0	decision	response	4	181	1	foodImage.115	FOODEEG_Images\0923.jpg	NY	Left	No	0.827951400000529	0	652300	234
1275.06640625	1	decision	trialStart	4	182	2	foodImage.26	FOODEEG_Images\0262.jpg	YN	Right	No	0.796152700000675	0	652835	251
1276.10546875	2	decision	foodImageDisplay	4	182	2	foodImage.26	FOODEEG_Images\0262.jpg	YN	Right	No	0.796152700000675	0	653367	252
1278.169921875	0.796152700000675	decision	choicePhaseStart	4	182	2	foodImage.26	FOODEEG_Images\0262.jpg	YN	Right	No	0.796152700000675	0	654424	253
1278.958984375	0	decision	response	4	182	2	foodImage.26	FOODEEG_Images\0262.jpg	YN	Right	No	0.796152700000675	0	654828	235
1280.001953125	1	decision	trialStart	4	183	3	foodImage.87	FOODEEG_Images\0873.jpg	NY	Left	No	0.951030899999751	0	655362	251
1281.08203125	2	decision	foodImageDisplay	4	183	3	foodImage.87	FOODEEG_Images\0873.jpg	NY	Left	No	0.951030899999751	0	655915	252
1283.150390625	0.951030899999751	decision	choicePhaseStart	4	183	3	foodImage.87	FOODEEG_Images\0873.jpg	NY	Left	No	0.951030899999751	0	656974	253
1284.09375	0	decision	response	4	183	3	foodImage.87	FOODEEG_Images\0873.jpg	NY	Left	No	0.951030899999751	0	657457	234
1285.13671875	1	health	trialStart	4	184	4	foodImage.11	FOODEEG_Images\0180.jpg	YN	Left	Yes	1.08307360000072	0	657991	251
1286.1796875	2	health	foodImageDisplay	4	184	4	foodImage.11	FOODEEG_Images\0180.jpg	YN	Left	Yes	1.08307360000072	0	658525	252
1288.244140625	1.08307360000072	health	choicePhaseStart	4	184	4	foodImage.11	FOODEEG_Images\0180.jpg	YN	Left	Yes	1.08307360000072	0	659582	253
1289.318359375	0	health	response	4	184	4	foodImage.11	FOODEEG_Images\0180.jpg	YN	Left	Yes	1.08307360000072	0	660132	234
1290.359375	1	health	trialStart	4	185	5	foodImage.78	FOODEEG_Images\0787.jpg	NY	Right	Yes	0.891275899999528	0	660665	251
1291.404296875	2	health	foodImageDisplay	4	185	5	foodImage.78	FOODEEG_Images\0787.jpg	NY	Right	Yes	0.891275899999528	0	661200	252
1293.47265625	0.891275899999528	health	choicePhaseStart	4	185	5	foodImage.78	FOODEEG_Images\0787.jpg	NY	Right	Yes	0.891275899999528	0	662259	253
1294.357421875	0	health	response	4	185	5	foodImage.78	FOODEEG_Images\0787.jpg	NY	Right	Yes	0.891275899999528	0	662712	235
1295.400390625	1	health	trialStart	4	186	6	foodImage.61	FOODEEG_Images\0640.jpg	NY	Right	Yes	0.830933399998685	0	663246	251
1296.443359375	2	health	foodImageDisplay	4	186	6	foodImage.61	FOODEEG_Images\0640.jpg	NY	Right	Yes	0.830933399998685	0	663780	252
1298.51171875	0.830933399998685	health	choicePhaseStart	4	186	6	foodImage.61	FOODEEG_Images\0640.jpg	NY	Right	Yes	0.830933399998685	0	664839	253
1299.333984375	0	health	response	4	186	6	foodImage.61	FOODEEG_Images\0640.jpg	NY	Right	Yes	0.830933399998685	0	665260	235
1300.376953125	1	decision	trialStart	4	187	7	foodImage.106	FOODEEG_Images\0914.jpg	YN	Right	No	1.04092700000001	0	665794	251
1301.431640625	2	decision	foodImageDisplay	4	187	7	foodImage.106	FOODEEG_Images\0914.jpg	YN	Right	No	1.04092700000001	0	666334	252
1303.5	1.04092700000001	decision	choicePhaseStart	4	187	7	foodImage.106	FOODEEG_Images\0914.jpg	YN	Right	No	1.04092700000001	0	667393	253
1304.533203125	0	decision	response	4	187	7	foodImage.106	FOODEEG_Images\0914.jpg	YN	Right	No	1.04092700000001	0	667922	235
1305.576171875	1	decision	trialStart	4	188	8	foodImage.4	FOODEEG_Images\0065.jpg	NY	Right	Yes	1.35090579999996	0	668456	251
1306.6328125	2	decision	foodImageDisplay	4	188	8	foodImage.4	FOODEEG_Images\0065.jpg	NY	Right	Yes	1.35090579999996	0	668997	252
1308.701171875	1.35090579999996	decision	choicePhaseStart	4	188	8	foodImage.4	FOODEEG_Images\0065.jpg	NY	Right	Yes	1.35090579999996	0	670056	253
1310.044921875	0	decision	response	4	188	8	foodImage.4	FOODEEG_Images\0065.jpg	NY	Right	Yes	1.35090579999996	0	670744	235
1311.09375	1	health	trialStart	4	189	9	foodImage.22	FOODEEG_Images\0236.jpg	NY	Right	Yes	2.07601170000089	0	671281	251
1312.1484375	2	health	foodImageDisplay	4	189	9	foodImage.22	FOODEEG_Images\0236.jpg	NY	Right	Yes	2.07601170000089	0	671821	252
1314.216796875	2.07601170000089	health	choicePhaseStart	4	189	9	foodImage.22	FOODEEG_Images\0236.jpg	NY	Right	Yes	2.07601170000089	0	672880	253
1316.28515625	0	health	response	4	189	9	foodImage.22	FOODEEG_Images\0236.jpg	NY	Right	Yes	2.07601170000089	0	673939	235
1317.32421875	1	taste	trialStart	4	190	10	foodImage.23	FOODEEG_Images\0244.jpg	YN	Right	No	1.89897530000053	0	674471	251
1318.3671875	2	taste	foodImageDisplay	4	190	10	foodImage.23	FOODEEG_Images\0244.jpg	YN	Right	No	1.89897530000053	0	675005	252
1320.43359375	1.89897530000053	taste	choicePhaseStart	4	190	10	foodImage.23	FOODEEG_Images\0244.jpg	YN	Right	No	1.89897530000053	0	676063	253
1322.32421875	0	taste	response	4	190	10	foodImage.23	FOODEEG_Images\0244.jpg	YN	Right	No	1.89897530000053	0	677031	235
1323.3671875	1	decision	trialStart	4	191	11	foodImage.62	FOODEEG_Images\0644.jpg	NY	Right	Yes	0.965309299999717	0	677565	251
1324.427734375	2	decision	foodImageDisplay	4	191	11	foodImage.62	FOODEEG_Images\0644.jpg	NY	Right	Yes	0.965309299999717	0	678108	252
1326.49609375	0.965309299999717	decision	choicePhaseStart	4	191	11	foodImage.62	FOODEEG_Images\0644.jpg	NY	Right	Yes	0.965309299999717	0	679167	253
1327.451171875	0	decision	response	4	191	11	foodImage.62	FOODEEG_Images\0644.jpg	NY	Right	Yes	0.965309299999717	0	679656	235
1328.49609375	1	decision	trialStart	4	192	12	foodImage.103	FOODEEG_Images\0911.jpg	NY	Left	No	0.992696300001626	0	680191	251
1329.533203125	2	decision	foodImageDisplay	4	192	12	foodImage.103	FOODEEG_Images\0911.jpg	NY	Left	No	0.992696300001626	0	680722	252
1331.6015625	0.992696300001626	decision	choicePhaseStart	4	192	12	foodImage.103	FOODEEG_Images\0911.jpg	NY	Left	No	0.992696300001626	0	681781	253
1332.587890625	0	decision	response	4	192	12	foodImage.103	FOODEEG_Images\0911.jpg	NY	Left	No	0.992696300001626	0	682286	234
1333.630859375	1	taste	trialStart	4	193	13	foodImage.8	FOODEEG_Images\0136.jpg	YN	Left	Yes	0.81512389999989	0	682820	251
1334.673828125	2	taste	foodImageDisplay	4	193	13	foodImage.8	FOODEEG_Images\0136.jpg	YN	Left	Yes	0.81512389999989	0	683354	252
1336.740234375	0.81512389999989	taste	choicePhaseStart	4	193	13	foodImage.8	FOODEEG_Images\0136.jpg	YN	Left	Yes	0.81512389999989	0	684412	253
1337.546875	0	taste	response	4	193	13	foodImage.8	FOODEEG_Images\0136.jpg	YN	Left	Yes	0.81512389999989	0	684825	234
1338.58984375	1	decision	trialStart	4	194	14	foodImage.25	FOODEEG_Images\0261.jpg	NY	Left	No	0.687550099999498	0	685359	251
1339.630859375	2	decision	foodImageDisplay	4	194	14	foodImage.25	FOODEEG_Images\0261.jpg	NY	Left	No	0.687550099999498	0	685892	252
1341.69921875	0.687550099999498	decision	choicePhaseStart	4	194	14	foodImage.25	FOODEEG_Images\0261.jpg	NY	Left	No	0.687550099999498	0	686951	253
1342.37890625	0	decision	response	4	194	14	foodImage.25	FOODEEG_Images\0261.jpg	NY	Left	No	0.687550099999498	0	687299	234
1343.421875	1	health	trialStart	4	195	15	foodImage.64	FOODEEG_Images\0647.jpg	NY	Right	Yes	0.895993100000851	0	687833	251
