onset	duration	trial_type	event_type	block	trial_total	trial_in_block	food_image_code	food_image_path	button_position	resp_position	resp_choice	choice_rt	resp_too_slow	sample	trigger
317.494140625	2	n/a	blockStart	1	n/a	n/a	n/a	n/a	n/a	n/a	n/a	n/a	n/a	162558	250
319.529296875	1	taste	trialStart	1	1	1	foodImage.67	FOODEEG_Images\0679.jpg	YN	Right	No	1.72054399992339	0	163600	251
320.58984375	2	taste	foodImageDisplay	1	1	1	foodImage.67	FOODEEG_Images\0679.jpg	YN	Right	No	1.72054399992339	0	164143	252
322.65625	1.72054399992339	taste	choicePhaseStart	1	1	1	foodImage.67	FOODEEG_Images\0679.jpg	YN	Right	No	1.72054399992339	0	165201	253
324.369140625	0	taste	response	1	1	1	foodImage.67	FOODEEG_Images\0679.jpg	YN	Right	No	1.72054399992339	0	166078	235
325.478515625	1	health	trialStart	1	2	2	foodImage.37	FOODEEG_Images\0359.jpg	NY	Left	No	3.7537327001337	0	166646	251
326.51953125	2	health	foodImageDisplay	1	2	2	foodImage.37	FOODEEG_Images\0359.jpg	NY	Left	No	3.7537327001337	0	167179	252
328.583984375	3.7537327001337	health	choicePhaseStart	1	2	2	foodImage.37	FOODEEG_Images\0359.jpg	NY	Left	No	3.7537327001337	0	168236	253
332.328125	0	health	response	1	2	2	foodImage.37	FOODEEG_Images\0359.jpg	NY	Left	No	3.7537327001337	0	170153	234
333.380859375	1	taste	trialStart	1	3	3	foodImage.105	FOODEEG_Images\0913.jpg	YN	Right	No	2.26696279994212	0	170692	251
334.421875	2	taste	foodImageDisplay	1	3	3	foodImage.105	FOODEEG_Images\0913.jpg	YN	Right	No	2.26696279994212	0	171225	252
336.484375	2.26696279994212	taste	choicePhaseStart	1	3	3	foodImage.105	FOODEEG_Images\0913.jpg	YN	Right	No	2.26696279994212	0	172281	253
338.744140625	0	taste	response	1	3	3	foodImage.105	FOODEEG_Images\0913.jpg	YN	Right	No	2.26696279994212	0	173438	235
339.787109375	1	taste	trialStart	1	4	4	foodImage.41	FOODEEG_Images\0409.jpg	YN	Right	No	2.40691110002808	0	173972	251
340.8359375	2	taste	foodImageDisplay	1	4	4	foodImage.41	FOODEEG_Images\0409.jpg	YN	Right	No	2.40691110002808	0	174509	252
342.8984375	2.40691110002808	taste	choicePhaseStart	1	4	4	foodImage.41	FOODEEG_Images\0409.jpg	YN	Right	No	2.40691110002808	0	175565	253
345.296875	0	taste	response	1	4	4	foodImage.41	FOODEEG_Images\0409.jpg	YN	Right	No	2.40691110002808	0	176793	235
346.33984375	1	taste	trialStart	1	5	5	foodImage.88	FOODEEG_Images\0878.jpg	YN	Left	Yes	0.892184600001201	0	177327	251
347.40234375	2	taste	foodImageDisplay	1	5	5	foodImage.88	FOODEEG_Images\0878.jpg	YN	Left	Yes	0.892184600001201	0	177871	252
349.474609375	0.892184600001201	taste	choicePhaseStart	1	5	5	foodImage.88	FOODEEG_Images\0878.jpg	YN	Left	Yes	0.892184600001201	0	178932	253
350.359375	0	taste	response	1	5	5	foodImage.88	FOODEEG_Images\0878.jpg	YN	Left	Yes	0.892184600001201	0	179385	234
351.408203125	1	health	trialStart	1	6	6	foodImage.23	FOODEEG_Images\0244.jpg	YN	Left	Yes	0.730852200184017	0	179922	251
352.451171875	2	health	foodImageDisplay	1	6	6	foodImage.23	FOODEEG_Images\0244.jpg	YN	Left	Yes	0.730852200184017	0	180456	252
354.513671875	0.730852200184017	health	choicePhaseStart	1	6	6	foodImage.23	FOODEEG_Images\0244.jpg	YN	Left	Yes	0.730852200184017	0	181512	253
355.240234375	0	health	response	1	6	6	foodImage.23	FOODEEG_Images\0244.jpg	YN	Left	Yes	0.730852200184017	0	181884	234
356.28515625	1	taste	trialStart	1	7	7	foodImage.15	FOODEEG_Images\0189.jpg	YN	Left	Yes	1.04887160006911	0	182419	251
357.341796875	2	taste	foodImageDisplay	1	7	7	foodImage.15	FOODEEG_Images\0189.jpg	YN	Left	Yes	1.04887160006911	0	182960	252
359.404296875	1.04887160006911	taste	choicePhaseStart	1	7	7	foodImage.15	FOODEEG_Images\0189.jpg	YN	Left	Yes	1.04887160006911	0	184016	253
360.447265625	0	taste	response	1	7	7	foodImage.15	FOODEEG_Images\0189.jpg	YN	Left	Yes	1.04887160006911	0	184550	234
361.490234375	1	taste	trialStart	1	8	8	foodImage.18	FOODEEG_Images\0202.jpg	NY	Left	No	2.24310610000975	0	185084	251
362.546875	2	taste	foodImageDisplay	1	8	8	foodImage.18	FOODEEG_Images\0202.jpg	NY	Left	No	2.24310610000975	0	185625	252
364.61328125	2.24310610000975	taste	choicePhaseStart	1	8	8	foodImage.18	FOODEEG_Images\0202.jpg	NY	Left	No	2.24310610000975	0	186683	253
366.84765625	0	taste	response	1	8	8	foodImage.18	FOODEEG_Images\0202.jpg	NY	Left	No	2.24310610000975	0	187827	234
367.890625	1	taste	trialStart	1	9	9	foodImage.8	FOODEEG_Images\0136.jpg	NY	Left	No	0.922627600142732	0	188361	251
368.93359375	2	taste	foodImageDisplay	1	9	9	foodImage.8	FOODEEG_Images\0136.jpg	NY	Left	No	0.922627600142732	0	188895	252
370.99609375	0.922627600142732	taste	choicePhaseStart	1	9	9	foodImage.8	FOODEEG_Images\0136.jpg	NY	Left	No	0.922627600142732	0	189951	253
371.91015625	0	taste	response	1	9	9	foodImage.8	FOODEEG_Images\0136.jpg	NY	Left	No	0.922627600142732	0	190419	234
372.951171875	1	health	trialStart	1	10	10	foodImage.58	FOODEEG_Images\0605.jpg	NY	Right	Yes	0.966097099939361	0	190952	251
374.009765625	2	health	foodImageDisplay	1	10	10	foodImage.58	FOODEEG_Images\0605.jpg	NY	Right	Yes	0.966097099939361	0	191494	252
376.072265625	0.966097099939361	health	choicePhaseStart	1	10	10	foodImage.58	FOODEEG_Images\0605.jpg	NY	Right	Yes	0.966097099939361	0	192550	253
377.03125	0	health	response	1	10	10	foodImage.58	FOODEEG_Images\0605.jpg	NY	Right	Yes	0.966097099939361	0	193041	235
378.072265625	1	health	trialStart	1	11	11	foodImage.91	FOODEEG_Images\0896.jpg	NY	Right	Yes	1.73338459990919	0	193574	251
379.12890625	2	health	foodImageDisplay	1	11	11	foodImage.91	FOODEEG_Images\0896.jpg	NY	Right	Yes	1.73338459990919	0	194115	252
381.19140625	1.73338459990919	health	choicePhaseStart	1	11	11	foodImage.91	FOODEEG_Images\0896.jpg	NY	Right	Yes	1.73338459990919	0	195171	253
382.919921875	0	health	response	1	11	11	foodImage.91	FOODEEG_Images\0896.jpg	NY	Right	Yes	1.73338459990919	0	196056	235
383.9609375	1	taste	trialStart	1	12	12	foodImage.53	FOODEEG_Images\0547.jpg	YN	Left	Yes	1.32526240008883	0	196589	251
385.017578125	2	taste	foodImageDisplay	1	12	12	foodImage.53	FOODEEG_Images\0547.jpg	YN	Left	Yes	1.32526240008883	0	197130	252
387.080078125	1.32526240008883	taste	choicePhaseStart	1	12	12	foodImage.53	FOODEEG_Images\0547.jpg	YN	Left	Yes	1.32526240008883	0	198186	253
388.3984375	0	taste	response	1	12	12	foodImage.53	FOODEEG_Images\0547.jpg	YN	Left	Yes	1.32526240008883	0	198861	234
389.439453125	1	health	trialStart	1	13	13	foodImage.68	FOODEEG_Images\0685.jpg	YN	Left	Yes	1.48132989997976	0	199394	251
390.517578125	2	health	foodImageDisplay	1	13	13	foodImage.68	FOODEEG_Images\0685.jpg	YN	Left	Yes	1.48132989997976	0	199946	252
392.58203125	1.48132989997976	health	choicePhaseStart	1	13	13	foodImage.68	FOODEEG_Images\0685.jpg	YN	Left	Yes	1.48132989997976	0	201003	253
394.0546875	0	health	response	1	13	13	foodImage.68	FOODEEG_Images\0685.jpg	YN	Left	Yes	1.48132989997976	0	201757	234
395.09375	1	decision	trialStart	1	14	14	foodImage.18	FOODEEG_Images\0202.jpg	NY	Left	No	1.77859849995002	0	202289	251
396.150390625	2	decision	foodImageDisplay	1	14	14	foodImage.18	FOODEEG_Images\0202.jpg	NY	Left	No	1.77859849995002	0	202830	252
398.212890625	1.77859849995002	decision	choicePhaseStart	1	14	14	foodImage.18	FOODEEG_Images\0202.jpg	NY	Left	No	1.77859849995002	0	203886	253
399.98046875	0	decision	response	1	14	14	foodImage.18	FOODEEG_Images\0202.jpg	NY	Left	No	1.77859849995002	0	204791	234
401.025390625	1	health	trialStart	1	15	15	foodImage.19	FOODEEG_Images\0225.jpg	YN	Right	No	1.37033970002085	0	205326	251
402.0703125	2	health	foodImageDisplay	1	15	15	foodImage.19	FOODEEG_Images\0225.jpg	YN	Right	No	1.37033970002085	0	205861	252
404.1328125	1.37033970002085	health	choicePhaseStart	1	15	15	foodImage.19	FOODEEG_Images\0225.jpg	YN	Right	No	1.37033970002085	0	206917	253
405.494140625	0	health	response	1	15	15	foodImage.19	FOODEEG_Images\0225.jpg	YN	Right	No	1.37033970002085	0	207614	235
406.533203125	1	taste	trialStart	1	16	16	foodImage.49	FOODEEG_Images\0515.jpg	YN	Right	No	1.67254449985921	0	208146	251
407.576171875	2	taste	foodImageDisplay	1	16	16	foodImage.49	FOODEEG_Images\0515.jpg	YN	Right	No	1.67254449985921	0	208680	252
409.638671875	1.67254449985921	taste	choicePhaseStart	1	16	16	foodImage.49	FOODEEG_Images\0515.jpg	YN	Right	No	1.67254449985921	0	209736	253
411.30078125	0	taste	response	1	16	16	foodImage.49	FOODEEG_Images\0515.jpg	YN	Right	No	1.67254449985921	0	210587	235
412.341796875	1	health	trialStart	1	17	17	foodImage.13	FOODEEG_Images\0183.jpg	NY	Left	No	1.30775579996407	0	211120	251
413.384765625	2	health	foodImageDisplay	1	17	17	foodImage.13	FOODEEG_Images\0183.jpg	NY	Left	No	1.30775579996407	0	211654	252
415.44921875	1.30775579996407	health	choicePhaseStart	1	17	17	foodImage.13	FOODEEG_Images\0183.jpg	NY	Left	No	1.30775579996407	0	212711	253
416.75	0	health	response	1	17	17	foodImage.13	FOODEEG_Images\0183.jpg	NY	Left	No	1.30775579996407	0	213377	234
417.79296875	1	health	trialStart	1	18	18	foodImage.34	FOODEEG_Images\0339.jpg	NY	Right	Yes	1.31535840011202	0	213911	251
418.8515625	2	health	foodImageDisplay	1	18	18	foodImage.34	FOODEEG_Images\0339.jpg	NY	Right	Yes	1.31535840011202	0	214453	252
420.9140625	1.31535840011202	health	choicePhaseStart	1	18	18	foodImage.34	FOODEEG_Images\0339.jpg	NY	Right	Yes	1.31535840011202	0	215509	253
422.220703125	0	health	response	1	18	18	foodImage.34	FOODEEG_Images\0339.jpg	NY	Right	Yes	1.31535840011202	0	216178	235
423.263671875	1	health	trialStart	1	19	19	foodImage.42	FOODEEG_Images\0438.jpg	NY	Left	No	1.72408839990385	0	216712	251
424.35546875	2	health	foodImageDisplay	1	19	19	foodImage.42	FOODEEG_Images\0438.jpg	NY	Left	No	1.72408839990385	0	217271	252
426.41796875	1.72408839990385	health	choicePhaseStart	1	19	19	foodImage.42	FOODEEG_Images\0438.jpg	NY	Left	No	1.72408839990385	0	218327	253
428.1328125	0	health	response	1	19	19	foodImage.42	FOODEEG_Images\0438.jpg	NY	Left	No	1.72408839990385	0	219205	234
429.173828125	1	decision	trialStart	1	20	20	foodImage.73	FOODEEG_Images\0717.jpg	YN	Right	No	1.26796040008776	0	219738	251
430.234375	2	decision	foodImageDisplay	1	20	20	foodImage.73	FOODEEG_Images\0717.jpg	YN	Right	No	1.26796040008776	0	220281	252
432.296875	1.26796040008776	decision	choicePhaseStart	1	20	20	foodImage.73	FOODEEG_Images\0717.jpg	YN	Right	No	1.26796040008776	0	221337	253
433.556640625	0	decision	response	1	20	20	foodImage.73	FOODEEG_Images\0717.jpg	YN	Right	No	1.26796040008776	0	221982	235
434.59765625	1	taste	trialStart	1	21	21	foodImage.108	FOODEEG_Images\0916.jpg	YN	Right	No	0.953436999814585	0	222515	251
435.63671875	2	taste	foodImageDisplay	1	21	21	foodImage.108	FOODEEG_Images\0916.jpg	YN	Right	No	0.953436999814585	0	223047	252
437.69921875	0.953436999814585	taste	choicePhaseStart	1	21	21	foodImage.108	FOODEEG_Images\0916.jpg	YN	Right	No	0.953436999814585	0	224103	253
438.64453125	0	taste	response	1	21	21	foodImage.108	FOODEEG_Images\0916.jpg	YN	Right	No	0.953436999814585	0	224587	235
439.6875	1	health	trialStart	1	22	22	foodImage.21	FOODEEG_Images\0234.jpg	NY	Left	No	0.922760099871084	0	225121	251
440.748046875	2	health	foodImageDisplay	1	22	22	foodImage.21	FOODEEG_Images\0234.jpg	NY	Left	No	0.922760099871084	0	225664	252
442.810546875	0.922760099871084	health	choicePhaseStart	1	22	22	foodImage.21	FOODEEG_Images\0234.jpg	NY	Left	No	0.922760099871084	0	226720	253
443.724609375	0	health	response	1	22	22	foodImage.21	FOODEEG_Images\0234.jpg	NY	Left	No	0.922760099871084	0	227188	234
444.765625	1	health	trialStart	1	23	23	foodImage.74	FOODEEG_Images\0752.jpg	NY	Left	No	0.838640700094402	0	227721	251
445.80859375	2	health	foodImageDisplay	1	23	23	foodImage.74	FOODEEG_Images\0752.jpg	NY	Left	No	0.838640700094402	0	228255	252
447.87109375	0.838640700094402	health	choicePhaseStart	1	23	23	foodImage.74	FOODEEG_Images\0752.jpg	NY	Left	No	0.838640700094402	0	229311	253
448.69921875	0	health	response	1	23	23	foodImage.74	FOODEEG_Images\0752.jpg	NY	Left	No	0.838640700094402	0	229735	234
449.7421875	1	taste	trialStart	1	24	24	foodImage.37	FOODEEG_Images\0359.jpg	YN	Left	Yes	1.19862120016478	0	230269	251
450.783203125	2	taste	foodImageDisplay	1	24	24	foodImage.37	FOODEEG_Images\0359.jpg	YN	Left	Yes	1.19862120016478	0	230802	252
452.845703125	1.19862120016478	taste	choicePhaseStart	1	24	24	foodImage.37	FOODEEG_Images\0359.jpg	YN	Left	Yes	1.19862120016478	0	231858	253
454.03515625	0	taste	response	1	24	24	foodImage.37	FOODEEG_Images\0359.jpg	YN	Left	Yes	1.19862120016478	0	232467	234
455.078125	1	decision	trialStart	1	25	25	foodImage.81	FOODEEG_Images\0797.jpg	YN	Left	Yes	1.56558279995807	0	233001	251
456.134765625	2	decision	foodImageDisplay	1	25	25	foodImage.81	FOODEEG_Images\0797.jpg	YN	Left	Yes	1.56558279995807	0	233542	252
458.19921875	1.56558279995807	decision	choicePhaseStart	1	25	25	foodImage.81	FOODEEG_Images\0797.jpg	YN	Left	Yes	1.56558279995807	0	234599	253
459.755859375	0	decision	response	1	25	25	foodImage.81	FOODEEG_Images\0797.jpg	YN	Left	Yes	1.56558279995807	0	235396	234
460.80078125	1	health	trialStart	1	26	26	foodImage.6	FOODEEG_Images\0113.jpg	NY	Right	Yes	2.00838029989973	0	235931	251
461.841796875	2	health	foodImageDisplay	1	26	26	foodImage.6	FOODEEG_Images\0113.jpg	NY	Right	Yes	2.00838029989973	0	236464	252
463.908203125	2.00838029989973	health	choicePhaseStart	1	26	26	foodImage.6	FOODEEG_Images\0113.jpg	NY	Right	Yes	2.00838029989973	0	237522	253
465.90625	0	health	response	1	26	26	foodImage.6	FOODEEG_Images\0113.jpg	NY	Right	Yes	2.00838029989973	0	238545	235
466.94921875	1	decision	trialStart	1	27	27	foodImage.31	FOODEEG_Images\0294.jpg	NY	Left	No	0.931703499983996	0	239079	251
467.9921875	2	decision	foodImageDisplay	1	27	27	foodImage.31	FOODEEG_Images\0294.jpg	NY	Left	No	0.931703499983996	0	239613	252
470.056640625	0.931703499983996	decision	choicePhaseStart	1	27	27	foodImage.31	FOODEEG_Images\0294.jpg	NY	Left	No	0.931703499983996	0	240670	253
470.978515625	0	decision	response	1	27	27	foodImage.31	FOODEEG_Images\0294.jpg	NY	Left	No	0.931703499983996	0	241142	234
472.021484375	1	taste	trialStart	1	28	28	foodImage.106	FOODEEG_Images\0914.jpg	YN	Left	Yes	0.725499399937689	0	241676	251
473.0625	2	taste	foodImageDisplay	1	28	28	foodImage.106	FOODEEG_Images\0914.jpg	YN	Left	Yes	0.725499399937689	0	242209	252
475.125	0.725499399937689	taste	choicePhaseStart	1	28	28	foodImage.106	FOODEEG_Images\0914.jpg	YN	Left	Yes	0.725499399937689	0	243265	253
475.84375	0	taste	response	1	28	28	foodImage.106	FOODEEG_Images\0914.jpg	YN	Left	Yes	0.725499399937689	0	243633	234
476.88671875	1	taste	trialStart	1	29	29	foodImage.36	FOODEEG_Images\0352.jpg	YN	Left	Yes	0.808330700034276	0	244167	251
477.947265625	2	taste	foodImageDisplay	1	29	29	foodImage.36	FOODEEG_Images\0352.jpg	YN	Left	Yes	0.808330700034276	0	244710	252
480.009765625	0.808330700034276	taste	choicePhaseStart	1	29	29	foodImage.36	FOODEEG_Images\0352.jpg	YN	Left	Yes	0.808330700034276	0	245766	253
480.810546875	0	taste	response	1	29	29	foodImage.36	FOODEEG_Images\0352.jpg	YN	Left	Yes	0.808330700034276	0	246176	234
481.857421875	1	health	trialStart	1	30	30	foodImage.30	FOODEEG_Images\0282.jpg	YN	Left	Yes	0.721549999900162	0	246712	251
482.8984375	2	health	foodImageDisplay	1	30	30	foodImage.30	FOODEEG_Images\0282.jpg	YN	Left	Yes	0.721549999900162	0	247245	252
484.9609375	0.721549999900162	health	choicePhaseStart	1	30	30	foodImage.30	FOODEEG_Images\0282.jpg	YN	Left	Yes	0.721549999900162	0	248301	253
485.673828125	0	health	response	1	30	30	foodImage.30	FOODEEG_Images\0282.jpg	YN	Left	Yes	0.721549999900162	0	248666	234
486.71875	1	health	trialStart	1	31	31	foodImage.116	FOODEEG_Images\0924.jpg	NY	Left	No	1.11692049982958	0	249201	251
487.759765625	2	health	foodImageDisplay	1	31	31	foodImage.116	FOODEEG_Images\0924.jpg	NY	Left	No	1.11692049982958	0	249734	252
489.822265625	1.11692049982958	health	choicePhaseStart	1	31	31	foodImage.116	FOODEEG_Images\0924.jpg	NY	Left	No	1.11692049982958	0	250790	253
490.9296875	0	health	response	1	31	31	foodImage.116	FOODEEG_Images\0924.jpg	NY	Left	No	1.11692049982958	0	251357	234
491.9765625	1	decision	trialStart	1	32	32	foodImage.113	FOODEEG_Images\0921.jpg	YN	Right	No	0.953880999935791	0	251893	251
493.017578125	2	decision	foodImageDisplay	1	32	32	foodImage.113	FOODEEG_Images\0921.jpg	YN	Right	No	0.953880999935791	0	252426	252
495.080078125	0.953880999935791	decision	choicePhaseStart	1	32	32	foodImage.113	FOODEEG_Images\0921.jpg	YN	Right	No	0.953880999935791	0	253482	253
496.025390625	0	decision	response	1	32	32	foodImage.113	FOODEEG_Images\0921.jpg	YN	Right	No	0.953880999935791	0	253966	235
497.072265625	1	decision	trialStart	1	33	33	foodImage.43	FOODEEG_Images\0445.jpg	NY	Right	Yes	0.897546299966052	0	254502	251
498.130859375	2	decision	foodImageDisplay	1	33	33	foodImage.43	FOODEEG_Images\0445.jpg	NY	Right	Yes	0.897546299966052	0	255044	252
500.193359375	0.897546299966052	decision	choicePhaseStart	1	33	33	foodImage.43	FOODEEG_Images\0445.jpg	NY	Right	Yes	0.897546299966052	0	256100	253
501.08203125	0	decision	response	1	33	33	foodImage.43	FOODEEG_Images\0445.jpg	NY	Right	Yes	0.897546299966052	0	256555	235
502.125	1	health	trialStart	1	34	34	foodImage.22	FOODEEG_Images\0236.jpg	YN	Left	Yes	0.652832800056785	0	257089	251
503.16796875	2	health	foodImageDisplay	1	34	34	foodImage.22	FOODEEG_Images\0236.jpg	YN	Left	Yes	0.652832800056785	0	257623	252
505.23046875	0.652832800056785	health	choicePhaseStart	1	34	34	foodImage.22	FOODEEG_Images\0236.jpg	YN	Left	Yes	0.652832800056785	0	258679	253
505.873046875	0	health	response	1	34	34	foodImage.22	FOODEEG_Images\0236.jpg	YN	Left	Yes	0.652832800056785	0	259008	234
506.916015625	1	taste	trialStart	1	35	35	foodImage.113	FOODEEG_Images\0921.jpg	YN	Right	No	1.12049079989083	0	259542	251
507.955078125	2	taste	foodImageDisplay	1	35	35	foodImage.113	FOODEEG_Images\0921.jpg	YN	Right	No	1.12049079989083	0	260074	252
510.017578125	1.12049079989083	taste	choicePhaseStart	1	35	35	foodImage.113	FOODEEG_Images\0921.jpg	YN	Right	No	1.12049079989083	0	261130	253
511.12890625	0	taste	response	1	35	35	foodImage.113	FOODEEG_Images\0921.jpg	YN	Right	No	1.12049079989083	0	261699	235
512.171875	1	decision	trialStart	1	36	36	foodImage.17	FOODEEG_Images\0199.jpg	YN	Left	Yes	1.02990270010196	0	262233	251
513.21484375	2	decision	foodImageDisplay	1	36	36	foodImage.17	FOODEEG_Images\0199.jpg	YN	Left	Yes	1.02990270010196	0	262767	252
515.283203125	1.02990270010196	decision	choicePhaseStart	1	36	36	foodImage.17	FOODEEG_Images\0199.jpg	YN	Left	Yes	1.02990270010196	0	263826	253
516.3046875	0	decision	response	1	36	36	foodImage.17	FOODEEG_Images\0199.jpg	YN	Left	Yes	1.02990270010196	0	264349	234
517.34765625	1	health	trialStart	1	37	37	foodImage.88	FOODEEG_Images\0878.jpg	NY	Right	Yes	1.30220480007119	0	264883	251
518.40234375	2	health	foodImageDisplay	1	37	37	foodImage.88	FOODEEG_Images\0878.jpg	NY	Right	Yes	1.30220480007119	0	265423	252
520.466796875	1.30220480007119	health	choicePhaseStart	1	37	37	foodImage.88	FOODEEG_Images\0878.jpg	NY	Right	Yes	1.30220480007119	0	266480	253
521.759765625	0	health	response	1	37	37	foodImage.88	FOODEEG_Images\0878.jpg	NY	Right	Yes	1.30220480007119	0	267142	235
522.802734375	1	health	trialStart	1	38	38	foodImage.33	FOODEEG_Images\0329.jpg	NY	Left	No	1.18332710000686	0	267676	251
523.84375	2	health	foodImageDisplay	1	38	38	foodImage.33	FOODEEG_Images\0329.jpg	NY	Left	No	1.18332710000686	0	268209	252
525.90625	1.18332710000686	health	choicePhaseStart	1	38	38	foodImage.33	FOODEEG_Images\0329.jpg	NY	Left	No	1.18332710000686	0	269265	253
527.080078125	0	health	response	1	38	38	foodImage.33	FOODEEG_Images\0329.jpg	NY	Left	No	1.18332710000686	0	269866	234
528.123046875	1	decision	trialStart	1	39	39	foodImage.22	FOODEEG_Images\0236.jpg	YN	Right	No	1.07988189999014	0	270400	251
529.1640625	2	decision	foodImageDisplay	1	39	39	foodImage.22	FOODEEG_Images\0236.jpg	YN	Right	No	1.07988189999014	0	270933	252
531.224609375	1.07988189999014	decision	choicePhaseStart	1	39	39	foodImage.22	FOODEEG_Images\0236.jpg	YN	Right	No	1.07988189999014	0	271988	253
532.296875	0	decision	response	1	39	39	foodImage.22	FOODEEG_Images\0236.jpg	YN	Right	No	1.07988189999014	0	272537	235
533.341796875	1	decision	trialStart	1	40	40	foodImage.109	FOODEEG_Images\0917.jpg	YN	Right	No	1.53321900009178	0	273072	251
534.380859375	2	decision	foodImageDisplay	1	40	40	foodImage.109	FOODEEG_Images\0917.jpg	YN	Right	No	1.53321900009178	0	273604	252
536.443359375	1.53321900009178	decision	choicePhaseStart	1	40	40	foodImage.109	FOODEEG_Images\0917.jpg	YN	Right	No	1.53321900009178	0	274660	253
537.96875	0	decision	response	1	40	40	foodImage.109	FOODEEG_Images\0917.jpg	YN	Right	No	1.53321900009178	0	275441	235
539.01171875	1	decision	trialStart	1	41	41	foodImage.70	FOODEEG_Images\0705.jpg	YN	Left	Yes	0.820361800026149	0	275975	251
540.078125	2	decision	foodImageDisplay	1	41	41	foodImage.70	FOODEEG_Images\0705.jpg	YN	Left	Yes	0.820361800026149	0	276521	252
542.140625	0.820361800026149	decision	choicePhaseStart	1	41	41	foodImage.70	FOODEEG_Images\0705.jpg	YN	Left	Yes	0.820361800026149	0	277577	253
542.951171875	0	decision	response	1	41	41	foodImage.70	FOODEEG_Images\0705.jpg	YN	Left	Yes	0.820361800026149	0	277992	234
544	1	health	trialStart	1	42	42	foodImage.59	FOODEEG_Images\0607.jpg	NY	Left	No	0.887772100046277	0	278529	251
545.048828125	2	health	foodImageDisplay	1	42	42	foodImage.59	FOODEEG_Images\0607.jpg	NY	Left	No	0.887772100046277	0	279066	252
547.11328125	0.887772100046277	health	choicePhaseStart	1	42	42	foodImage.59	FOODEEG_Images\0607.jpg	NY	Left	No	0.887772100046277	0	280123	253
547.9921875	0	health	response	1	42	42	foodImage.59	FOODEEG_Images\0607.jpg	NY	Left	No	0.887772100046277	0	280573	234
549.037109375	1	decision	trialStart	1	43	43	foodImage.51	FOODEEG_Images\0536.jpg	NY	Right	Yes	0.957054199883714	0	281108	251
550.083984375	2	decision	foodImageDisplay	1	43	43	foodImage.51	FOODEEG_Images\0536.jpg	NY	Right	Yes	0.957054199883714	0	281644	252
552.146484375	0.957054199883714	decision	choicePhaseStart	1	43	43	foodImage.51	FOODEEG_Images\0536.jpg	NY	Right	Yes	0.957054199883714	0	282700	253
553.095703125	0	decision	response	1	43	43	foodImage.51	FOODEEG_Images\0536.jpg	NY	Right	Yes	0.957054199883714	0	283186	235
554.138671875	1	decision	trialStart	1	44	44	foodImage.99	FOODEEG_Images\0907.jpg	YN	Right	No	0.768856900045648	0	283720	251
555.177734375	2	decision	foodImageDisplay	1	44	44	foodImage.99	FOODEEG_Images\0907.jpg	YN	Right	No	0.768856900045648	0	284252	252
557.240234375	0.768856900045648	decision	choicePhaseStart	1	44	44	foodImage.99	FOODEEG_Images\0907.jpg	YN	Right	No	0.768856900045648	0	285308	253
558	0	decision	response	1	44	44	foodImage.99	FOODEEG_Images\0907.jpg	YN	Right	No	0.768856900045648	0	285697	235
559.048828125	1	decision	trialStart	1	45	45	foodImage.61	FOODEEG_Images\0640.jpg	YN	Right	No	1.72764960001223	0	286234	251
560.091796875	2	decision	foodImageDisplay	1	45	45	foodImage.61	FOODEEG_Images\0640.jpg	YN	Right	No	1.72764960001223	0	286768	252
562.16015625	1.72764960001223	decision	choicePhaseStart	1	45	45	foodImage.61	FOODEEG_Images\0640.jpg	YN	Right	No	1.72764960001223	0	287827	253
563.87890625	0	decision	response	1	45	45	foodImage.61	FOODEEG_Images\0640.jpg	YN	Right	No	1.72764960001223	0	288707	235
564.923828125	1	decision	trialStart	1	46	46	foodImage.12	FOODEEG_Images\0181.jpg	NY	Left	No	1.13920550001785	0	289242	251
565.96484375	2	decision	foodImageDisplay	1	46	46	foodImage.12	FOODEEG_Images\0181.jpg	NY	Left	No	1.13920550001785	0	289775	252
568.02734375	1.13920550001785	decision	choicePhaseStart	1	46	46	foodImage.12	FOODEEG_Images\0181.jpg	NY	Left	No	1.13920550001785	0	290831	253
569.158203125	0	decision	response	1	46	46	foodImage.12	FOODEEG_Images\0181.jpg	NY	Left	No	1.13920550001785	0	291410	234
570.20703125	1	health	trialStart	1	47	47	foodImage.2	FOODEEG_Images\0028.jpg	YN	Left	Yes	0.999302200041711	0	291947	251
571.25	2	health	foodImageDisplay	1	47	47	foodImage.2	FOODEEG_Images\0028.jpg	YN	Left	Yes	0.999302200041711	0	292481	252
573.3125	0.999302200041711	health	choicePhaseStart	1	47	47	foodImage.2	FOODEEG_Images\0028.jpg	YN	Left	Yes	0.999302200041711	0	293537	253
574.302734375	0	health	response	1	47	47	foodImage.2	FOODEEG_Images\0028.jpg	YN	Left	Yes	0.999302200041711	0	294044	234
575.349609375	1	decision	trialStart	1	48	48	foodImage.59	FOODEEG_Images\0607.jpg	YN	Left	Yes	0.788278699852526	0	294580	251
576.396484375	2	decision	foodImageDisplay	1	48	48	foodImage.59	FOODEEG_Images\0607.jpg	YN	Left	Yes	0.788278699852526	0	295116	252
578.458984375	0.788278699852526	decision	choicePhaseStart	1	48	48	foodImage.59	FOODEEG_Images\0607.jpg	YN	Left	Yes	0.788278699852526	0	296172	253
579.23828125	0	decision	response	1	48	48	foodImage.59	FOODEEG_Images\0607.jpg	YN	Left	Yes	0.788278699852526	0	296571	234
580.28125	1	decision	trialStart	1	49	49	foodImage.24	FOODEEG_Images\0250.jpg	YN	Left	Yes	0.727404899895191	0	297105	251
581.32421875	2	decision	foodImageDisplay	1	49	49	foodImage.24	FOODEEG_Images\0250.jpg	YN	Left	Yes	0.727404899895191	0	297639	252
583.390625	0.727404899895191	decision	choicePhaseStart	1	49	49	foodImage.24	FOODEEG_Images\0250.jpg	YN	Left	Yes	0.727404899895191	0	298697	253
584.111328125	0	decision	response	1	49	49	foodImage.24	FOODEEG_Images\0250.jpg	YN	Left	Yes	0.727404899895191	0	299066	234
585.154296875	1	decision	trialStart	1	50	50	foodImage.108	FOODEEG_Images\0916.jpg	YN	Right	No	0.952502899803221	0	299600	251
586.193359375	2	decision	foodImageDisplay	1	50	50	foodImage.108	FOODEEG_Images\0916.jpg	YN	Right	No	0.952502899803221	0	300132	252
588.25390625	0.952502899803221	decision	choicePhaseStart	1	50	50	foodImage.108	FOODEEG_Images\0916.jpg	YN	Right	No	0.952502899803221	0	301187	253
589.197265625	0	decision	response	1	50	50	foodImage.108	FOODEEG_Images\0916.jpg	YN	Right	No	0.952502899803221	0	301670	235
590.24609375	1	taste	trialStart	1	51	51	foodImage.19	FOODEEG_Images\0225.jpg	NY	Right	Yes	1.39231599983759	0	302207	251
591.287109375	2	taste	foodImageDisplay	1	51	51	foodImage.19	FOODEEG_Images\0225.jpg	NY	Right	Yes	1.39231599983759	0	302740	252
593.349609375	1.39231599983759	taste	choicePhaseStart	1	51	51	foodImage.19	FOODEEG_Images\0225.jpg	NY	Right	Yes	1.39231599983759	0	303796	253
594.734375	0	taste	response	1	51	51	foodImage.19	FOODEEG_Images\0225.jpg	NY	Right	Yes	1.39231599983759	0	304505	235
595.77734375	1	health	trialStart	1	52	52	foodImage.63	FOODEEG_Images\0645.jpg	YN	Left	Yes	1.17438689991832	0	305039	251
596.818359375	2	health	foodImageDisplay	1	52	52	foodImage.63	FOODEEG_Images\0645.jpg	YN	Left	Yes	1.17438689991832	0	305572	252
598.880859375	1.17438689991832	health	choicePhaseStart	1	52	52	foodImage.63	FOODEEG_Images\0645.jpg	YN	Left	Yes	1.17438689991832	0	306628	253
600.044921875	0	health	response	1	52	52	foodImage.63	FOODEEG_Images\0645.jpg	YN	Left	Yes	1.17438689991832	0	307224	234
601.0859375	1	decision	trialStart	1	53	53	foodImage.114	FOODEEG_Images\0922.jpg	NY	Right	Yes	1.3310989998281	0	307757	251
602.125	2	decision	foodImageDisplay	1	53	53	foodImage.114	FOODEEG_Images\0922.jpg	NY	Right	Yes	1.3310989998281	0	308289	252
604.1875	1.3310989998281	decision	choicePhaseStart	1	53	53	foodImage.114	FOODEEG_Images\0922.jpg	NY	Right	Yes	1.3310989998281	0	309345	253
605.509765625	0	decision	response	1	53	53	foodImage.114	FOODEEG_Images\0922.jpg	NY	Right	Yes	1.3310989998281	0	310022	235
606.552734375	1	taste	trialStart	1	54	54	foodImage.43	FOODEEG_Images\0445.jpg	NY	Left	No	1.3002708000131	0	310556	251
607.611328125	2	taste	foodImageDisplay	1	54	54	foodImage.43	FOODEEG_Images\0445.jpg	NY	Left	No	1.3002708000131	0	311098	252
609.673828125	1.3002708000131	taste	choicePhaseStart	1	54	54	foodImage.43	FOODEEG_Images\0445.jpg	NY	Left	No	1.3002708000131	0	312154	253
610.96484375	0	taste	response	1	54	54	foodImage.43	FOODEEG_Images\0445.jpg	NY	Left	No	1.3002708000131	0	312815	234
612.00390625	1	health	trialStart	1	55	55	foodImage.83	FOODEEG_Images\0827.jpg	YN	Left	Yes	0.501290199812502	0	313347	251
613.060546875	2	health	foodImageDisplay	1	55	55	foodImage.83	FOODEEG_Images\0827.jpg	YN	Left	Yes	0.501290199812502	0	313888	252
615.12109375	0.501290199812502	health	choicePhaseStart	1	55	55	foodImage.83	FOODEEG_Images\0827.jpg	YN	Left	Yes	0.501290199812502	0	314943	253
615.61328125	0	health	response	1	55	55	foodImage.83	FOODEEG_Images\0827.jpg	YN	Left	Yes	0.501290199812502	0	315195	234
616.65625	1	decision	trialStart	1	56	56	foodImage.112	FOODEEG_Images\0920.jpg	YN	Right	No	0.826048899907619	0	315729	251
617.6953125	2	decision	foodImageDisplay	1	56	56	foodImage.112	FOODEEG_Images\0920.jpg	YN	Right	No	0.826048899907619	0	316261	252
619.755859375	0.826048899907619	decision	choicePhaseStart	1	56	56	foodImage.112	FOODEEG_Images\0920.jpg	YN	Right	No	0.826048899907619	0	317316	253
620.572265625	0	decision	response	1	56	56	foodImage.112	FOODEEG_Images\0920.jpg	YN	Right	No	0.826048899907619	0	317734	235
621.615234375	1	taste	trialStart	1	57	57	foodImage.45	FOODEEG_Images\0478.jpg	NY	Left	No	0.798036599997431	0	318268	251
622.66015625	2	taste	foodImageDisplay	1	57	57	foodImage.45	FOODEEG_Images\0478.jpg	NY	Left	No	0.798036599997431	0	318803	252
624.728515625	0.798036599997431	taste	choicePhaseStart	1	57	57	foodImage.45	FOODEEG_Images\0478.jpg	NY	Left	No	0.798036599997431	0	319862	253
625.517578125	0	taste	response	1	57	57	foodImage.45	FOODEEG_Images\0478.jpg	NY	Left	No	0.798036599997431	0	320266	234
626.55859375	1	decision	trialStart	1	58	58	foodImage.56	FOODEEG_Images\0586.jpg	NY	Right	Yes	0.714887399924919	0	320799	251
627.603515625	2	decision	foodImageDisplay	1	58	58	foodImage.56	FOODEEG_Images\0586.jpg	NY	Right	Yes	0.714887399924919	0	321334	252
629.666015625	0.714887399924919	decision	choicePhaseStart	1	58	58	foodImage.56	FOODEEG_Images\0586.jpg	NY	Right	Yes	0.714887399924919	0	322390	253
630.373046875	0	decision	response	1	58	58	foodImage.56	FOODEEG_Images\0586.jpg	NY	Right	Yes	0.714887399924919	0	322752	235
631.416015625	1	taste	trialStart	1	59	59	foodImage.3	FOODEEG_Images\0046.jpg	YN	Left	Yes	0.890559100080281	0	323286	251
632.4609375	2	taste	foodImageDisplay	1	59	59	foodImage.3	FOODEEG_Images\0046.jpg	YN	Left	Yes	0.890559100080281	0	323821	252
634.5234375	0.890559100080281	taste	choicePhaseStart	1	59	59	foodImage.3	FOODEEG_Images\0046.jpg	YN	Left	Yes	0.890559100080281	0	324877	253
635.404296875	0	taste	response	1	59	59	foodImage.3	FOODEEG_Images\0046.jpg	YN	Left	Yes	0.890559100080281	0	325328	234
636.447265625	1	taste	trialStart	1	60	60	foodImage.75	FOODEEG_Images\0763.jpg	NY	Left	No	0.756747000152245	0	325862	251
637.490234375	2	taste	foodImageDisplay	1	60	60	foodImage.75	FOODEEG_Images\0763.jpg	NY	Left	No	0.756747000152245	0	326396	252
639.552734375	0.756747000152245	taste	choicePhaseStart	1	60	60	foodImage.75	FOODEEG_Images\0763.jpg	NY	Left	No	0.756747000152245	0	327452	253
640.30078125	0	taste	response	1	60	60	foodImage.75	FOODEEG_Images\0763.jpg	NY	Left	No	0.756747000152245	0	327835	234
642.34375	18.076171875	n/a	blockEnd	n/a	n/a	n/a	n/a	n/a	n/a	n/a	n/a	n/a	n/a	328881	254
660.419921875	2	n/a	blockStart	2	n/a	n/a	n/a	n/a	n/a	n/a	n/a	n/a	n/a	338136	250
662.451171875	1	decision	trialStart	2	61	1	foodImage.34	FOODEEG_Images\0339.jpg	YN	Left	Yes	1.08019059989601	0	339176	251
663.53125	2	decision	foodImageDisplay	2	61	1	foodImage.34	FOODEEG_Images\0339.jpg	YN	Left	Yes	1.08019059989601	0	339729	252
665.595703125	1.08019059989601	decision	choicePhaseStart	2	61	1	foodImage.34	FOODEEG_Images\0339.jpg	YN	Left	Yes	1.08019059989601	0	340786	253
666.66796875	0	decision	response	2	61	1	foodImage.34	FOODEEG_Images\0339.jpg	YN	Left	Yes	1.08019059989601	0	341335	234
667.7109375	1	decision	trialStart	2	62	2	foodImage.20	FOODEEG_Images\0226.jpg	YN	Right	No	1.09981439984404	0	341869	251
668.75390625	2	decision	foodImageDisplay	2	62	2	foodImage.20	FOODEEG_Images\0226.jpg	YN	Right	No	1.09981439984404	0	342403	252
670.81640625	1.09981439984404	decision	choicePhaseStart	2	62	2	foodImage.20	FOODEEG_Images\0226.jpg	YN	Right	No	1.09981439984404	0	343459	253
671.90625	0	decision	response	2	62	2	foodImage.20	FOODEEG_Images\0226.jpg	YN	Right	No	1.09981439984404	0	344017	235
672.94921875	1	taste	trialStart	2	63	3	foodImage.4	FOODEEG_Images\0065.jpg	YN	Left	Yes	0.92005840013735	0	344551	251
674.005859375	2	taste	foodImageDisplay	2	63	3	foodImage.4	FOODEEG_Images\0065.jpg	YN	Left	Yes	0.92005840013735	0	345092	252
676.068359375	0.92005840013735	taste	choicePhaseStart	2	63	3	foodImage.4	FOODEEG_Images\0065.jpg	YN	Left	Yes	0.92005840013735	0	346148	253
676.978515625	0	taste	response	2	63	3	foodImage.4	FOODEEG_Images\0065.jpg	YN	Left	Yes	0.92005840013735	0	346614	234
678.0234375	1	taste	trialStart	2	64	4	foodImage.112	FOODEEG_Images\0920.jpg	YN	Right	No	3.39191069989465	0	347149	251
679.060546875	2	taste	foodImageDisplay	2	64	4	foodImage.112	FOODEEG_Images\0920.jpg	YN	Right	No	3.39191069989465	0	347680	252
681.123046875	3.39191069989465	taste	choicePhaseStart	2	64	4	foodImage.112	FOODEEG_Images\0920.jpg	YN	Right	No	3.39191069989465	0	348736	253
684.505859375	0	taste	response	2	64	4	foodImage.112	FOODEEG_Images\0920.jpg	YN	Right	No	3.39191069989465	0	350468	235
685.546875	1	taste	trialStart	2	65	5	foodImage.101	FOODEEG_Images\0909.jpg	NY	Right	Yes	1.01573610003106	0	351001	251
686.59765625	2	taste	foodImageDisplay	2	65	5	foodImage.101	FOODEEG_Images\0909.jpg	NY	Right	Yes	1.01573610003106	0	351539	252
688.66015625	1.01573610003106	taste	choicePhaseStart	2	65	5	foodImage.101	FOODEEG_Images\0909.jpg	NY	Right	Yes	1.01573610003106	0	352595	253
689.666015625	0	taste	response	2	65	5	foodImage.101	FOODEEG_Images\0909.jpg	NY	Right	Yes	1.01573610003106	0	353110	235
690.708984375	1	health	trialStart	2	66	6	foodImage.20	FOODEEG_Images\0226.jpg	NY	Right	Yes	2.53432220011018	0	353644	251
691.75	2	health	foodImageDisplay	2	66	6	foodImage.20	FOODEEG_Images\0226.jpg	NY	Right	Yes	2.53432220011018	0	354177	252
693.8125	2.53432220011018	health	choicePhaseStart	2	66	6	foodImage.20	FOODEEG_Images\0226.jpg	NY	Right	Yes	2.53432220011018	0	355233	253
696.337890625	0	health	response	2	66	6	foodImage.20	FOODEEG_Images\0226.jpg	NY	Right	Yes	2.53432220011018	0	356526	235
697.37890625	1	health	trialStart	2	67	7	foodImage.69	FOODEEG_Images\0693.jpg	NY	Left	No	0.941897599957883	0	357059	251
698.419921875	2	health	foodImageDisplay	2	67	7	foodImage.69	FOODEEG_Images\0693.jpg	NY	Left	No	0.941897599957883	0	357592	252
700.484375	0.941897599957883	health	choicePhaseStart	2	67	7	foodImage.69	FOODEEG_Images\0693.jpg	NY	Left	No	0.941897599957883	0	358649	253
701.41796875	0	health	response	2	67	7	foodImage.69	FOODEEG_Images\0693.jpg	NY	Left	No	0.941897599957883	0	359127	234
702.455078125	1	decision	trialStart	2	68	8	foodImage.115	FOODEEG_Images\0923.jpg	NY	Right	Yes	1.38181709987111	0	359658	251
703.494140625	2	decision	foodImageDisplay	2	68	8	foodImage.115	FOODEEG_Images\0923.jpg	NY	Right	Yes	1.38181709987111	0	360190	252
705.556640625	1.38181709987111	decision	choicePhaseStart	2	68	8	foodImage.115	FOODEEG_Images\0923.jpg	NY	Right	Yes	1.38181709987111	0	361246	253
706.9296875	0	decision	response	2	68	8	foodImage.115	FOODEEG_Images\0923.jpg	NY	Right	Yes	1.38181709987111	0	361949	235
707.970703125	1	decision	trialStart	2	69	9	foodImage.100	FOODEEG_Images\0908.jpg	YN	Right	No	0.786448900122195	0	362482	251
709.009765625	2	decision	foodImageDisplay	2	69	9	foodImage.100	FOODEEG_Images\0908.jpg	YN	Right	No	0.786448900122195	0	363014	252
711.072265625	0.786448900122195	decision	choicePhaseStart	2	69	9	foodImage.100	FOODEEG_Images\0908.jpg	YN	Right	No	0.786448900122195	0	364070	253
711.849609375	0	decision	response	2	69	9	foodImage.100	FOODEEG_Images\0908.jpg	YN	Right	No	0.786448900122195	0	364468	235
712.892578125	1	decision	trialStart	2	70	10	foodImage.64	FOODEEG_Images\0647.jpg	NY	Left	No	1.20025849994272	0	365002	251
713.953125	2	decision	foodImageDisplay	2	70	10	foodImage.64	FOODEEG_Images\0647.jpg	NY	Left	No	1.20025849994272	0	365545	252
716.015625	1.20025849994272	decision	choicePhaseStart	2	70	10	foodImage.64	FOODEEG_Images\0647.jpg	NY	Left	No	1.20025849994272	0	366601	253
717.208984375	0	decision	response	2	70	10	foodImage.64	FOODEEG_Images\0647.jpg	NY	Left	No	1.20025849994272	0	367212	234
718.248046875	1	decision	trialStart	2	71	11	foodImage.57	FOODEEG_Images\0587.jpg	YN	Left	Yes	1.26364949997514	0	367744	251
719.291015625	2	decision	foodImageDisplay	2	71	11	foodImage.57	FOODEEG_Images\0587.jpg	YN	Left	Yes	1.26364949997514	0	368278	252
721.35546875	1.26364949997514	decision	choicePhaseStart	2	71	11	foodImage.57	FOODEEG_Images\0587.jpg	YN	Left	Yes	1.26364949997514	0	369335	253
722.609375	0	decision	response	2	71	11	foodImage.57	FOODEEG_Images\0587.jpg	YN	Left	Yes	1.26364949997514	0	369977	234
723.650390625	1	taste	trialStart	2	72	12	foodImage.38	FOODEEG_Images\0365.jpg	NY	Left	No	1.12271889997646	0	370510	251
724.6875	2	taste	foodImageDisplay	2	72	12	foodImage.38	FOODEEG_Images\0365.jpg	NY	Left	No	1.12271889997646	0	371041	252
726.751953125	1.12271889997646	taste	choicePhaseStart	2	72	12	foodImage.38	FOODEEG_Images\0365.jpg	NY	Left	No	1.12271889997646	0	372098	253
727.865234375	0	taste	response	2	72	12	foodImage.38	FOODEEG_Images\0365.jpg	NY	Left	No	1.12271889997646	0	372668	234
728.908203125	1	taste	trialStart	2	73	13	foodImage.24	FOODEEG_Images\0250.jpg	NY	Left	No	2.33362770010717	0	373202	251
729.951171875	2	taste	foodImageDisplay	2	73	13	foodImage.24	FOODEEG_Images\0250.jpg	NY	Left	No	2.33362770010717	0	373736	252
732.013671875	2.33362770010717	taste	choicePhaseStart	2	73	13	foodImage.24	FOODEEG_Images\0250.jpg	NY	Left	No	2.33362770010717	0	374792	253
734.3359375	0	taste	response	2	73	13	foodImage.24	FOODEEG_Images\0250.jpg	NY	Left	No	2.33362770010717	0	375981	234
735.380859375	1	health	trialStart	2	74	14	foodImage.98	FOODEEG_Images\0906.jpg	YN	Right	No	1.54961239988916	0	376516	251
736.419921875	2	health	foodImageDisplay	2	74	14	foodImage.98	FOODEEG_Images\0906.jpg	YN	Right	No	1.54961239988916	0	377048	252
738.482421875	1.54961239988916	health	choicePhaseStart	2	74	14	foodImage.98	FOODEEG_Images\0906.jpg	YN	Right	No	1.54961239988916	0	378104	253
740.0234375	0	health	response	2	74	14	foodImage.98	FOODEEG_Images\0906.jpg	YN	Right	No	1.54961239988916	0	378893	235
741.06640625	1	health	trialStart	2	75	15	foodImage.24	FOODEEG_Images\0250.jpg	YN	Left	Yes	1.20426289993338	0	379427	251
742.107421875	2	health	foodImageDisplay	2	75	15	foodImage.24	FOODEEG_Images\0250.jpg	YN	Left	Yes	1.20426289993338	0	379960	252
744.171875	1.20426289993338	health	choicePhaseStart	2	75	15	foodImage.24	FOODEEG_Images\0250.jpg	YN	Left	Yes	1.20426289993338	0	381017	253
745.3671875	0	health	response	2	75	15	foodImage.24	FOODEEG_Images\0250.jpg	YN	Left	Yes	1.20426289993338	0	381629	234
746.41015625	1	decision	trialStart	2	76	16	foodImage.37	FOODEEG_Images\0359.jpg	NY	Left	No	1.58401739993133	0	382163	251
747.44921875	2	decision	foodImageDisplay	2	76	16	foodImage.37	FOODEEG_Images\0359.jpg	NY	Left	No	1.58401739993133	0	382695	252
749.51171875	1.58401739993133	decision	choicePhaseStart	2	76	16	foodImage.37	FOODEEG_Images\0359.jpg	NY	Left	No	1.58401739993133	0	383751	253
751.087890625	0	decision	response	2	76	16	foodImage.37	FOODEEG_Images\0359.jpg	NY	Left	No	1.58401739993133	0	384558	234
752.130859375	1	decision	trialStart	2	77	17	foodImage.60	FOODEEG_Images\0614.jpg	YN	Left	Yes	0.89582320000045	0	385092	251
753.193359375	2	decision	foodImageDisplay	2	77	17	foodImage.60	FOODEEG_Images\0614.jpg	YN	Left	Yes	0.89582320000045	0	385636	252
755.255859375	0.89582320000045	decision	choicePhaseStart	2	77	17	foodImage.60	FOODEEG_Images\0614.jpg	YN	Left	Yes	0.89582320000045	0	386692	253
756.14453125	0	decision	response	2	77	17	foodImage.60	FOODEEG_Images\0614.jpg	YN	Left	Yes	0.89582320000045	0	387147	234
757.185546875	1	taste	trialStart	2	78	18	foodImage.59	FOODEEG_Images\0607.jpg	YN	Left	Yes	0.864908199990168	0	387680	251
758.234375	2	taste	foodImageDisplay	2	78	18	foodImage.59	FOODEEG_Images\0607.jpg	YN	Left	Yes	0.864908199990168	0	388217	252
760.296875	0.864908199990168	taste	choicePhaseStart	2	78	18	foodImage.59	FOODEEG_Images\0607.jpg	YN	Left	Yes	0.864908199990168	0	389273	253
761.150390625	0	taste	response	2	78	18	foodImage.59	FOODEEG_Images\0607.jpg	YN	Left	Yes	0.864908199990168	0	389710	234
762.1953125	1	taste	trialStart	2	79	19	foodImage.52	FOODEEG_Images\0539.jpg	NY	Left	No	0.954477600054815	0	390245	251
763.25390625	2	taste	foodImageDisplay	2	79	19	foodImage.52	FOODEEG_Images\0539.jpg	NY	Left	No	0.954477600054815	0	390787	252
765.31640625	0.954477600054815	taste	choicePhaseStart	2	79	19	foodImage.52	FOODEEG_Images\0539.jpg	NY	Left	No	0.954477600054815	0	391843	253
766.263671875	0	taste	response	2	79	19	foodImage.52	FOODEEG_Images\0539.jpg	NY	Left	No	0.954477600054815	0	392328	234
767.306640625	1	decision	trialStart	2	80	20	foodImage.67	FOODEEG_Images\0679.jpg	YN	Right	No	0.952027400024235	0	392862	251
768.361328125	2	decision	foodImageDisplay	2	80	20	foodImage.67	FOODEEG_Images\0679.jpg	YN	Right	No	0.952027400024235	0	393402	252
770.423828125	0.952027400024235	decision	choicePhaseStart	2	80	20	foodImage.67	FOODEEG_Images\0679.jpg	YN	Right	No	0.952027400024235	0	394458	253
771.3671875	0	decision	response	2	80	20	foodImage.67	FOODEEG_Images\0679.jpg	YN	Right	No	0.952027400024235	0	394941	235
772.41015625	1	health	trialStart	2	81	21	foodImage.1	FOODEEG_Images\0004.jpg	YN	Left	Yes	1.49400960002095	0	395475	251
773.451171875	2	health	foodImageDisplay	2	81	21	foodImage.1	FOODEEG_Images\0004.jpg	YN	Left	Yes	1.49400960002095	0	396008	252
775.513671875	1.49400960002095	health	choicePhaseStart	2	81	21	foodImage.1	FOODEEG_Images\0004.jpg	YN	Left	Yes	1.49400960002095	0	397064	253
776.998046875	0	health	response	2	81	21	foodImage.1	FOODEEG_Images\0004.jpg	YN	Left	Yes	1.49400960002095	0	397824	234
778.04296875	1	health	trialStart	2	82	22	foodImage.89	FOODEEG_Images\0881.jpg	NY	Left	No	1.20574679994024	0	398359	251
779.099609375	2	health	foodImageDisplay	2	82	22	foodImage.89	FOODEEG_Images\0881.jpg	NY	Left	No	1.20574679994024	0	398900	252
781.162109375	1.20574679994024	health	choicePhaseStart	2	82	22	foodImage.89	FOODEEG_Images\0881.jpg	NY	Left	No	1.20574679994024	0	399956	253
782.359375	0	health	response	2	82	22	foodImage.89	FOODEEG_Images\0881.jpg	NY	Left	No	1.20574679994024	0	400569	234
783.40234375	1	taste	trialStart	2	83	23	foodImage.46	FOODEEG_Images\0479.jpg	NY	Left	No	1.65135969989933	0	401103	251
784.4609375	2	taste	foodImageDisplay	2	83	23	foodImage.46	FOODEEG_Images\0479.jpg	NY	Left	No	1.65135969989933	0	401645	252
786.5234375	1.65135969989933	taste	choicePhaseStart	2	83	23	foodImage.46	FOODEEG_Images\0479.jpg	NY	Left	No	1.65135969989933	0	402701	253
788.166015625	0	taste	response	2	83	23	foodImage.46	FOODEEG_Images\0479.jpg	NY	Left	No	1.65135969989933	0	403542	234
789.208984375	1	decision	trialStart	2	84	24	foodImage.86	FOODEEG_Images\0844.jpg	NY	Left	No	1.06708199996501	0	404076	251
790.26953125	2	decision	foodImageDisplay	2	84	24	foodImage.86	FOODEEG_Images\0844.jpg	NY	Left	No	1.06708199996501	0	404619	252
792.33203125	1.06708199996501	decision	choicePhaseStart	2	84	24	foodImage.86	FOODEEG_Images\0844.jpg	NY	Left	No	1.06708199996501	0	405675	253
793.390625	0	decision	response	2	84	24	foodImage.86	FOODEEG_Images\0844.jpg	NY	Left	No	1.06708199996501	0	406217	234
794.43359375	1	decision	trialStart	2	85	25	foodImage.39	FOODEEG_Images\0367.jpg	YN	Left	Yes	0.926714200060815	0	406751	251
795.474609375	2	decision	foodImageDisplay	2	85	25	foodImage.39	FOODEEG_Images\0367.jpg	YN	Left	Yes	0.926714200060815	0	407284	252
797.53515625	0.926714200060815	decision	choicePhaseStart	2	85	25	foodImage.39	FOODEEG_Images\0367.jpg	YN	Left	Yes	0.926714200060815	0	408339	253
798.453125	0	decision	response	2	85	25	foodImage.39	FOODEEG_Images\0367.jpg	YN	Left	Yes	0.926714200060815	0	408809	234
799.49609375	1	decision	trialStart	2	86	26	foodImage.96	FOODEEG_Images\0904.jpg	NY	Left	No	1.16105699981563	0	409343	251
800.53515625	2	decision	foodImageDisplay	2	86	26	foodImage.96	FOODEEG_Images\0904.jpg	NY	Left	No	1.16105699981563	0	409875	252
802.59765625	1.16105699981563	decision	choicePhaseStart	2	86	26	foodImage.96	FOODEEG_Images\0904.jpg	NY	Left	No	1.16105699981563	0	410931	253
803.75	0	decision	response	2	86	26	foodImage.96	FOODEEG_Images\0904.jpg	NY	Left	No	1.16105699981563	0	411521	234
804.79296875	1	decision	trialStart	2	87	27	foodImage.85	FOODEEG_Images\0841.jpg	NY	Left	No	0.868733200011775	0	412055	251
805.853515625	2	decision	foodImageDisplay	2	87	27	foodImage.85	FOODEEG_Images\0841.jpg	NY	Left	No	0.868733200011775	0	412598	252
807.9140625	0.868733200011775	decision	choicePhaseStart	2	87	27	foodImage.85	FOODEEG_Images\0841.jpg	NY	Left	No	0.868733200011775	0	413653	253
808.7734375	0	decision	response	2	87	27	foodImage.85	FOODEEG_Images\0841.jpg	NY	Left	No	0.868733200011775	0	414093	234
809.81640625	1	taste	trialStart	2	88	28	foodImage.89	FOODEEG_Images\0881.jpg	NY	Left	No	0.96683429996483	0	414627	251
810.87109375	2	taste	foodImageDisplay	2	88	28	foodImage.89	FOODEEG_Images\0881.jpg	NY	Left	No	0.96683429996483	0	415167	252
812.93359375	0.96683429996483	taste	choicePhaseStart	2	88	28	foodImage.89	FOODEEG_Images\0881.jpg	NY	Left	No	0.96683429996483	0	416223	253
813.892578125	0	taste	response	2	88	28	foodImage.89	FOODEEG_Images\0881.jpg	NY	Left	No	0.96683429996483	0	416714	234
814.935546875	1	health	trialStart	2	89	29	foodImage.99	FOODEEG_Images\0907.jpg	YN	Left	Yes	0.962754799984396	0	417248	251
815.97265625	2	health	foodImageDisplay	2	89	29	foodImage.99	FOODEEG_Images\0907.jpg	YN	Left	Yes	0.962754799984396	0	417779	252
818.03515625	0.962754799984396	health	choicePhaseStart	2	89	29	foodImage.99	FOODEEG_Images\0907.jpg	YN	Left	Yes	0.962754799984396	0	418835	253
818.98828125	0	health	response	2	89	29	foodImage.99	FOODEEG_Images\0907.jpg	YN	Left	Yes	0.962754799984396	0	419323	234
820.029296875	1	taste	trialStart	2	90	30	foodImage.110	FOODEEG_Images\0918.jpg	NY	Right	Yes	1.10712759988382	0	419856	251
821.06640625	2	taste	foodImageDisplay	2	90	30	foodImage.110	FOODEEG_Images\0918.jpg	NY	Right	Yes	1.10712759988382	0	420387	252
823.12890625	1.10712759988382	taste	choicePhaseStart	2	90	30	foodImage.110	FOODEEG_Images\0918.jpg	NY	Right	Yes	1.10712759988382	0	421443	253
824.228515625	0	taste	response	2	90	30	foodImage.110	FOODEEG_Images\0918.jpg	NY	Right	Yes	1.10712759988382	0	422006	235
825.271484375	1	health	trialStart	2	91	31	foodImage.104	FOODEEG_Images\0912.jpg	NY	Right	Yes	1.2807769998908	0	422540	251
826.310546875	2	health	foodImageDisplay	2	91	31	foodImage.104	FOODEEG_Images\0912.jpg	NY	Right	Yes	1.2807769998908	0	423072	252
828.373046875	1.2807769998908	health	choicePhaseStart	2	91	31	foodImage.104	FOODEEG_Images\0912.jpg	NY	Right	Yes	1.2807769998908	0	424128	253
829.64453125	0	health	response	2	91	31	foodImage.104	FOODEEG_Images\0912.jpg	NY	Right	Yes	1.2807769998908	0	424779	235
830.689453125	1	decision	trialStart	2	92	32	foodImage.48	FOODEEG_Images\0494.jpg	YN	Left	Yes	0.692391599994153	0	425314	251
831.73046875	2	decision	foodImageDisplay	2	92	32	foodImage.48	FOODEEG_Images\0494.jpg	YN	Left	Yes	0.692391599994153	0	425847	252
833.79296875	0.692391599994153	decision	choicePhaseStart	2	92	32	foodImage.48	FOODEEG_Images\0494.jpg	YN	Left	Yes	0.692391599994153	0	426903	253
834.4765625	0	decision	response	2	92	32	foodImage.48	FOODEEG_Images\0494.jpg	YN	Left	Yes	0.692391599994153	0	427253	234
835.51953125	1	health	trialStart	2	93	33	foodImage.17	FOODEEG_Images\0199.jpg	NY	Left	No	1.4924732001964	0	427787	251
836.560546875	2	health	foodImageDisplay	2	93	33	foodImage.17	FOODEEG_Images\0199.jpg	NY	Left	No	1.4924732001964	0	428320	252
838.625	1.4924732001964	health	choicePhaseStart	2	93	33	foodImage.17	FOODEEG_Images\0199.jpg	NY	Left	No	1.4924732001964	0	429377	253
840.107421875	0	health	response	2	93	33	foodImage.17	FOODEEG_Images\0199.jpg	NY	Left	No	1.4924732001964	0	430136	234
841.1484375	1	health	trialStart	2	94	34	foodImage.3	FOODEEG_Images\0046.jpg	YN	Left	Yes	0.713655499974266	0	430669	251
842.189453125	2	health	foodImageDisplay	2	94	34	foodImage.3	FOODEEG_Images\0046.jpg	YN	Left	Yes	0.713655499974266	0	431202	252
844.251953125	0.713655499974266	health	choicePhaseStart	2	94	34	foodImage.3	FOODEEG_Images\0046.jpg	YN	Left	Yes	0.713655499974266	0	432258	253
844.95703125	0	health	response	2	94	34	foodImage.3	FOODEEG_Images\0046.jpg	YN	Left	Yes	0.713655499974266	0	432619	234
845.998046875	1	decision	trialStart	2	95	35	foodImage.83	FOODEEG_Images\0827.jpg	NY	Left	No	1.04015840007924	0	433152	251
847.0546875	2	decision	foodImageDisplay	2	95	35	foodImage.83	FOODEEG_Images\0827.jpg	NY	Left	No	1.04015840007924	0	433693	252
849.1171875	1.04015840007924	decision	choicePhaseStart	2	95	35	foodImage.83	FOODEEG_Images\0827.jpg	NY	Left	No	1.04015840007924	0	434749	253
850.1484375	0	decision	response	2	95	35	foodImage.83	FOODEEG_Images\0827.jpg	NY	Left	No	1.04015840007924	0	435277	234
851.1875	1	health	trialStart	2	96	36	foodImage.7	FOODEEG_Images\0116.jpg	NY	Right	Yes	1.70394510007463	0	435809	251
852.23046875	2	health	foodImageDisplay	2	96	36	foodImage.7	FOODEEG_Images\0116.jpg	NY	Right	Yes	1.70394510007463	0	436343	252
854.291015625	1.70394510007463	health	choicePhaseStart	2	96	36	foodImage.7	FOODEEG_Images\0116.jpg	NY	Right	Yes	1.70394510007463	0	437398	253
855.98828125	0	health	response	2	96	36	foodImage.7	FOODEEG_Images\0116.jpg	NY	Right	Yes	1.70394510007463	0	438267	235
857.03125	1	health	trialStart	2	97	37	foodImage.76	FOODEEG_Images\0766.jpg	YN	Right	No	1.70659129996784	0	438801	251
858.076171875	2	health	foodImageDisplay	2	97	37	foodImage.76	FOODEEG_Images\0766.jpg	YN	Right	No	1.70659129996784	0	439336	252
860.138671875	1.70659129996784	health	choicePhaseStart	2	97	37	foodImage.76	FOODEEG_Images\0766.jpg	YN	Right	No	1.70659129996784	0	440392	253
861.8359375	0	health	response	2	97	37	foodImage.76	FOODEEG_Images\0766.jpg	YN	Right	No	1.70659129996784	0	441261	235
862.87890625	1	decision	trialStart	2	98	38	foodImage.89	FOODEEG_Images\0881.jpg	NY	Left	No	1.19102869997732	0	441795	251
863.935546875	2	decision	foodImageDisplay	2	98	38	foodImage.89	FOODEEG_Images\0881.jpg	NY	Left	No	1.19102869997732	0	442336	252
865.998046875	1.19102869997732	decision	choicePhaseStart	2	98	38	foodImage.89	FOODEEG_Images\0881.jpg	NY	Left	No	1.19102869997732	0	443392	253
867.1796875	0	decision	response	2	98	38	foodImage.89	FOODEEG_Images\0881.jpg	NY	Left	No	1.19102869997732	0	443997	234
868.220703125	1	taste	trialStart	2	99	39	foodImage.96	FOODEEG_Images\0904.jpg	NY	Left	No	1.4367236001417	0	444530	251
869.2578125	2	taste	foodImageDisplay	2	99	39	foodImage.96	FOODEEG_Images\0904.jpg	NY	Left	No	1.4367236001417	0	445061	252
871.3203125	1.4367236001417	taste	choicePhaseStart	2	99	39	foodImage.96	FOODEEG_Images\0904.jpg	NY	Left	No	1.4367236001417	0	446117	253
872.748046875	0	taste	response	2	99	39	foodImage.96	FOODEEG_Images\0904.jpg	NY	Left	No	1.4367236001417	0	446848	234
873.791015625	1	decision	trialStart	2	100	40	foodImage.9	FOODEEG_Images\0138.jpg	YN	Left	Yes	1.34929779986851	0	447382	251
874.849609375	2	decision	foodImageDisplay	2	100	40	foodImage.9	FOODEEG_Images\0138.jpg	YN	Left	Yes	1.34929779986851	0	447924	252
876.91015625	1.34929779986851	decision	choicePhaseStart	2	100	40	foodImage.9	FOODEEG_Images\0138.jpg	YN	Left	Yes	1.34929779986851	0	448979	253
878.25	0	decision	response	2	100	40	foodImage.9	FOODEEG_Images\0138.jpg	YN	Left	Yes	1.34929779986851	0	449665	234
879.294921875	1	decision	trialStart	2	101	41	foodImage.65	FOODEEG_Images\0658.jpg	NY	Right	Yes	1.87154610012658	0	450200	251
880.333984375	2	decision	foodImageDisplay	2	101	41	foodImage.65	FOODEEG_Images\0658.jpg	NY	Right	Yes	1.87154610012658	0	450732	252
882.396484375	1.87154610012658	decision	choicePhaseStart	2	101	41	foodImage.65	FOODEEG_Images\0658.jpg	NY	Right	Yes	1.87154610012658	0	451788	253
884.259765625	0	decision	response	2	101	41	foodImage.65	FOODEEG_Images\0658.jpg	NY	Right	Yes	1.87154610012658	0	452742	235
885.306640625	1	taste	trialStart	2	102	42	foodImage.90	FOODEEG_Images\0890.jpg	NY	Right	Yes	0.705308000091463	0	453278	251
886.36328125	2	taste	foodImageDisplay	2	102	42	foodImage.90	FOODEEG_Images\0890.jpg	NY	Right	Yes	0.705308000091463	0	453819	252
888.42578125	0.705308000091463	taste	choicePhaseStart	2	102	42	foodImage.90	FOODEEG_Images\0890.jpg	NY	Right	Yes	0.705308000091463	0	454875	253
889.123046875	0	taste	response	2	102	42	foodImage.90	FOODEEG_Images\0890.jpg	NY	Right	Yes	0.705308000091463	0	455232	235
890.166015625	1	decision	trialStart	2	103	43	foodImage.110	FOODEEG_Images\0918.jpg	NY	Right	Yes	1.20598239987157	0	455766	251
891.205078125	2	decision	foodImageDisplay	2	103	43	foodImage.110	FOODEEG_Images\0918.jpg	NY	Right	Yes	1.20598239987157	0	456298	252
893.267578125	1.20598239987157	decision	choicePhaseStart	2	103	43	foodImage.110	FOODEEG_Images\0918.jpg	NY	Right	Yes	1.20598239987157	0	457354	253
894.466796875	0	decision	response	2	103	43	foodImage.110	FOODEEG_Images\0918.jpg	NY	Right	Yes	1.20598239987157	0	457968	235
895.505859375	1	health	trialStart	2	104	44	foodImage.36	FOODEEG_Images\0352.jpg	NY	Left	No	0.90698550012894	0	458500	251
896.5625	2	health	foodImageDisplay	2	104	44	foodImage.36	FOODEEG_Images\0352.jpg	NY	Left	No	0.90698550012894	0	459041	252
898.625	0.90698550012894	health	choicePhaseStart	2	104	44	foodImage.36	FOODEEG_Images\0352.jpg	NY	Left	No	0.90698550012894	0	460097	253
899.521484375	0	health	response	2	104	44	foodImage.36	FOODEEG_Images\0352.jpg	NY	Left	No	0.90698550012894	0	460556	234
900.5625	1	taste	trialStart	2	105	45	foodImage.32	FOODEEG_Images\0319.jpg	YN	Left	Yes	0.895673499908298	0	461089	251
901.60546875	2	taste	foodImageDisplay	2	105	45	foodImage.32	FOODEEG_Images\0319.jpg	YN	Left	Yes	0.895673499908298	0	461623	252
903.666015625	0.895673499908298	taste	choicePhaseStart	2	105	45	foodImage.32	FOODEEG_Images\0319.jpg	YN	Left	Yes	0.895673499908298	0	462678	253
904.5546875	0	taste	response	2	105	45	foodImage.32	FOODEEG_Images\0319.jpg	YN	Left	Yes	0.895673499908298	0	463133	234
905.595703125	1	health	trialStart	2	106	46	foodImage.11	FOODEEG_Images\0180.jpg	YN	Left	Yes	0.596851199865341	0	463666	251
906.638671875	2	health	foodImageDisplay	2	106	46	foodImage.11	FOODEEG_Images\0180.jpg	YN	Left	Yes	0.596851199865341	0	464200	252
908.701171875	0.596851199865341	health	choicePhaseStart	2	106	46	foodImage.11	FOODEEG_Images\0180.jpg	YN	Left	Yes	0.596851199865341	0	465256	253
909.2890625	0	health	response	2	106	46	foodImage.11	FOODEEG_Images\0180.jpg	YN	Left	Yes	0.596851199865341	0	465557	234
910.337890625	1	health	trialStart	2	107	47	foodImage.44	FOODEEG_Images\0459.jpg	NY	Right	Yes	2.26123280008323	0	466094	251
911.3828125	2	health	foodImageDisplay	2	107	47	foodImage.44	FOODEEG_Images\0459.jpg	NY	Right	Yes	2.26123280008323	0	466629	252
913.4453125	2.26123280008323	health	choicePhaseStart	2	107	47	foodImage.44	FOODEEG_Images\0459.jpg	NY	Right	Yes	2.26123280008323	0	467685	253
915.697265625	0	health	response	2	107	47	foodImage.44	FOODEEG_Images\0459.jpg	NY	Right	Yes	2.26123280008323	0	468838	235
916.73828125	1	taste	trialStart	2	108	48	foodImage.5	FOODEEG_Images\0107.jpg	NY	Left	No	0.990849200170487	0	469371	251
917.796875	2	taste	foodImageDisplay	2	108	48	foodImage.5	FOODEEG_Images\0107.jpg	NY	Left	No	0.990849200170487	0	469913	252
919.859375	0.990849200170487	taste	choicePhaseStart	2	108	48	foodImage.5	FOODEEG_Images\0107.jpg	NY	Left	No	0.990849200170487	0	470969	253
920.841796875	0	taste	response	2	108	48	foodImage.5	FOODEEG_Images\0107.jpg	NY	Left	No	0.990849200170487	0	471472	234
921.884765625	1	health	trialStart	2	109	49	foodImage.78	FOODEEG_Images\0787.jpg	YN	Left	Yes	1.12579930014908	0	472006	251
922.9296875	2	health	foodImageDisplay	2	109	49	foodImage.78	FOODEEG_Images\0787.jpg	YN	Left	Yes	1.12579930014908	0	472541	252
924.99609375	1.12579930014908	health	choicePhaseStart	2	109	49	foodImage.78	FOODEEG_Images\0787.jpg	YN	Left	Yes	1.12579930014908	0	473599	253
926.11328125	0	health	response	2	109	49	foodImage.78	FOODEEG_Images\0787.jpg	YN	Left	Yes	1.12579930014908	0	474171	234
927.154296875	1	taste	trialStart	2	110	50	foodImage.30	FOODEEG_Images\0282.jpg	NY	Left	No	1.4551002997905	0	474704	251
928.197265625	2	taste	foodImageDisplay	2	110	50	foodImage.30	FOODEEG_Images\0282.jpg	NY	Left	No	1.4551002997905	0	475238	252
930.259765625	1.4551002997905	taste	choicePhaseStart	2	110	50	foodImage.30	FOODEEG_Images\0282.jpg	NY	Left	No	1.4551002997905	0	476294	253
931.705078125	0	taste	response	2	110	50	foodImage.30	FOODEEG_Images\0282.jpg	NY	Left	No	1.4551002997905	0	477034	234
932.748046875	1	health	trialStart	2	111	51	foodImage.39	FOODEEG_Images\0367.jpg	NY	Left	No	1.25118660018779	0	477568	251
933.787109375	2	health	foodImageDisplay	2	111	51	foodImage.39	FOODEEG_Images\0367.jpg	NY	Left	No	1.25118660018779	0	478100	252
935.853515625	1.25118660018779	health	choicePhaseStart	2	111	51	foodImage.39	FOODEEG_Images\0367.jpg	NY	Left	No	1.25118660018779	0	479158	253
937.095703125	0	health	response	2	111	51	foodImage.39	FOODEEG_Images\0367.jpg	NY	Left	No	1.25118660018779	0	479794	234
938.138671875	1	health	trialStart	2	112	52	foodImage.8	FOODEEG_Images\0136.jpg	NY	Left	No	0.447351800044999	0	480328	251
939.201171875	2	health	foodImageDisplay	2	112	52	foodImage.8	FOODEEG_Images\0136.jpg	NY	Left	No	0.447351800044999	0	480872	252
941.263671875	0.447351800044999	health	choicePhaseStart	2	112	52	foodImage.8	FOODEEG_Images\0136.jpg	NY	Left	No	0.447351800044999	0	481928	253
941.703125	0	health	response	2	112	52	foodImage.8	FOODEEG_Images\0136.jpg	NY	Left	No	0.447351800044999	0	482153	234
942.7421875	1	health	trialStart	2	113	53	foodImage.4	FOODEEG_Images\0065.jpg	YN	Right	No	0.986898200120777	0	482685	251
943.80078125	2	health	foodImageDisplay	2	113	53	foodImage.4	FOODEEG_Images\0065.jpg	YN	Right	No	0.986898200120777	0	483227	252
945.861328125	0.986898200120777	health	choicePhaseStart	2	113	53	foodImage.4	FOODEEG_Images\0065.jpg	YN	Right	No	0.986898200120777	0	484282	253
946.83984375	0	health	response	2	113	53	foodImage.4	FOODEEG_Images\0065.jpg	YN	Right	No	0.986898200120777	0	484783	235
947.880859375	1	decision	trialStart	2	114	54	foodImage.52	FOODEEG_Images\0539.jpg	NY	Left	No	0.994133400032297	0	485316	251
948.9375	2	decision	foodImageDisplay	2	114	54	foodImage.52	FOODEEG_Images\0539.jpg	NY	Left	No	0.994133400032297	0	485857	252
951	0.994133400032297	decision	choicePhaseStart	2	114	54	foodImage.52	FOODEEG_Images\0539.jpg	NY	Left	No	0.994133400032297	0	486913	253
951.984375	0	decision	response	2	114	54	foodImage.52	FOODEEG_Images\0539.jpg	NY	Left	No	0.994133400032297	0	487417	234
953.02734375	1	taste	trialStart	2	115	55	foodImage.64	FOODEEG_Images\0647.jpg	YN	Left	Yes	0.958197100088	0	487951	251
954.083984375	2	taste	foodImageDisplay	2	115	55	foodImage.64	FOODEEG_Images\0647.jpg	YN	Left	Yes	0.958197100088	0	488492	252
956.146484375	0.958197100088	taste	choicePhaseStart	2	115	55	foodImage.64	FOODEEG_Images\0647.jpg	YN	Left	Yes	0.958197100088	0	489548	253
957.095703125	0	taste	response	2	115	55	foodImage.64	FOODEEG_Images\0647.jpg	YN	Left	Yes	0.958197100088	0	490034	234
958.140625	1	decision	trialStart	2	116	56	foodImage.97	FOODEEG_Images\0905.jpg	NY	Left	No	0.985194699838758	0	490569	251
959.1796875	2	decision	foodImageDisplay	2	116	56	foodImage.97	FOODEEG_Images\0905.jpg	NY	Left	No	0.985194699838758	0	491101	252
961.24609375	0.985194699838758	decision	choicePhaseStart	2	116	56	foodImage.97	FOODEEG_Images\0905.jpg	NY	Left	No	0.985194699838758	0	492159	253
962.22265625	0	decision	response	2	116	56	foodImage.97	FOODEEG_Images\0905.jpg	NY	Left	No	0.985194699838758	0	492659	234
963.26953125	1	taste	trialStart	2	117	57	foodImage.99	FOODEEG_Images\0907.jpg	YN	Right	No	1.66279259999283	0	493195	251
964.306640625	2	taste	foodImageDisplay	2	117	57	foodImage.99	FOODEEG_Images\0907.jpg	YN	Right	No	1.66279259999283	0	493726	252
966.369140625	1.66279259999283	taste	choicePhaseStart	2	117	57	foodImage.99	FOODEEG_Images\0907.jpg	YN	Right	No	1.66279259999283	0	494782	253
968.0234375	0	taste	response	2	117	57	foodImage.99	FOODEEG_Images\0907.jpg	YN	Right	No	1.66279259999283	0	495629	235
969.068359375	1	taste	trialStart	2	118	58	foodImage.94	FOODEEG_Images\0902.jpg	YN	Left	Yes	1.08043860015459	0	496164	251
970.10546875	2	taste	foodImageDisplay	2	118	58	foodImage.94	FOODEEG_Images\0902.jpg	YN	Left	Yes	1.08043860015459	0	496695	252
972.16796875	1.08043860015459	taste	choicePhaseStart	2	118	58	foodImage.94	FOODEEG_Images\0902.jpg	YN	Left	Yes	1.08043860015459	0	497751	253
973.23828125	0	taste	response	2	118	58	foodImage.94	FOODEEG_Images\0902.jpg	YN	Left	Yes	1.08043860015459	0	498299	234
974.283203125	1	health	trialStart	2	119	59	foodImage.72	FOODEEG_Images\0714.jpg	YN	Right	No	1.54679129994474	0	498834	251
975.326171875	2	health	foodImageDisplay	2	119	59	foodImage.72	FOODEEG_Images\0714.jpg	YN	Right	No	1.54679129994474	0	499368	252
977.388671875	1.54679129994474	health	choicePhaseStart	2	119	59	foodImage.72	FOODEEG_Images\0714.jpg	YN	Right	No	1.54679129994474	0	500424	253
978.927734375	0	health	response	2	119	59	foodImage.72	FOODEEG_Images\0714.jpg	YN	Right	No	1.54679129994474	0	501212	235
979.966796875	1	health	trialStart	2	120	60	foodImage.14	FOODEEG_Images\0188.jpg	NY	Right	Yes	2.60862830001861	0	501744	251
981.0234375	2	health	foodImageDisplay	2	120	60	foodImage.14	FOODEEG_Images\0188.jpg	NY	Right	Yes	2.60862830001861	0	502285	252
983.0859375	2.60862830001861	health	choicePhaseStart	2	120	60	foodImage.14	FOODEEG_Images\0188.jpg	NY	Right	Yes	2.60862830001861	0	503341	253
985.685546875	0	health	response	2	120	60	foodImage.14	FOODEEG_Images\0188.jpg	NY	Right	Yes	2.60862830001861	0	504672	235
987.728515625	192.109375	n/a	blockEnd	n/a	n/a	n/a	n/a	n/a	n/a	n/a	n/a	n/a	n/a	505718	254
1179.837890625	2	n/a	blockStart	3	n/a	n/a	n/a	n/a	n/a	n/a	n/a	n/a	n/a	604078	250
1181.87109375	1	decision	trialStart	3	121	1	foodImage.66	FOODEEG_Images\0676.jpg	NY	Left	No	0.841313400072977	0	605119	251
1182.91796875	2	decision	foodImageDisplay	3	121	1	foodImage.66	FOODEEG_Images\0676.jpg	NY	Left	No	0.841313400072977	0	605655	252
1184.982421875	0.841313400072977	decision	choicePhaseStart	3	121	1	foodImage.66	FOODEEG_Images\0676.jpg	NY	Left	No	0.841313400072977	0	606712	253
1185.814453125	0	decision	response	3	121	1	foodImage.66	FOODEEG_Images\0676.jpg	NY	Left	No	0.841313400072977	0	607138	234
1186.859375	1	decision	trialStart	3	122	2	foodImage.80	FOODEEG_Images\0796.jpg	YN	Left	Yes	0.829655400011688	0	607673	251
1187.916015625	2	decision	foodImageDisplay	3	122	2	foodImage.80	FOODEEG_Images\0796.jpg	YN	Left	Yes	0.829655400011688	0	608214	252
1189.978515625	0.829655400011688	decision	choicePhaseStart	3	122	2	foodImage.80	FOODEEG_Images\0796.jpg	YN	Left	Yes	0.829655400011688	0	609270	253
1190.798828125	0	decision	response	3	122	2	foodImage.80	FOODEEG_Images\0796.jpg	YN	Left	Yes	0.829655400011688	0	609690	234
1191.841796875	1	decision	trialStart	3	123	3	foodImage.4	FOODEEG_Images\0065.jpg	NY	Left	No	0.744270199909806	0	610224	251
1192.896484375	2	decision	foodImageDisplay	3	123	3	foodImage.4	FOODEEG_Images\0065.jpg	NY	Left	No	0.744270199909806	0	610764	252
1194.958984375	0.744270199909806	decision	choicePhaseStart	3	123	3	foodImage.4	FOODEEG_Images\0065.jpg	NY	Left	No	0.744270199909806	0	611820	253
1195.6953125	0	decision	response	3	123	3	foodImage.4	FOODEEG_Images\0065.jpg	NY	Left	No	0.744270199909806	0	612197	234
1196.73828125	1	taste	trialStart	3	124	4	foodImage.103	FOODEEG_Images\0911.jpg	YN	Left	Yes	0.943850899813697	0	612731	251
1197.77734375	2	taste	foodImageDisplay	3	124	4	foodImage.103	FOODEEG_Images\0911.jpg	YN	Left	Yes	0.943850899813697	0	613263	252
1199.83984375	0.943850899813697	taste	choicePhaseStart	3	124	4	foodImage.103	FOODEEG_Images\0911.jpg	YN	Left	Yes	0.943850899813697	0	614319	253
1200.7734375	0	taste	response	3	124	4	foodImage.103	FOODEEG_Images\0911.jpg	YN	Left	Yes	0.943850899813697	0	614797	234
1201.814453125	1	taste	trialStart	3	125	5	foodImage.82	FOODEEG_Images\0805.jpg	YN	Left	Yes	0.768568999832496	0	615330	251
1202.87109375	2	taste	foodImageDisplay	3	125	5	foodImage.82	FOODEEG_Images\0805.jpg	YN	Left	Yes	0.768568999832496	0	615871	252
1204.93359375	0.768568999832496	taste	choicePhaseStart	3	125	5	foodImage.82	FOODEEG_Images\0805.jpg	YN	Left	Yes	0.768568999832496	0	616927	253
1205.693359375	0	taste	response	3	125	5	foodImage.82	FOODEEG_Images\0805.jpg	YN	Left	Yes	0.768568999832496	0	617316	234
1206.73828125	1	health	trialStart	3	126	6	foodImage.47	FOODEEG_Images\0488.jpg	NY	Left	No	1.30596250016242	0	617851	251
1207.783203125	2	health	foodImageDisplay	3	126	6	foodImage.47	FOODEEG_Images\0488.jpg	NY	Left	No	1.30596250016242	0	618386	252
1209.845703125	1.30596250016242	health	choicePhaseStart	3	126	6	foodImage.47	FOODEEG_Images\0488.jpg	NY	Left	No	1.30596250016242	0	619442	253
1211.142578125	0	health	response	3	126	6	foodImage.47	FOODEEG_Images\0488.jpg	NY	Left	No	1.30596250016242	0	620106	234
1212.185546875	1	decision	trialStart	3	127	7	foodImage.30	FOODEEG_Images\0282.jpg	YN	Left	Yes	1.77835789998062	0	620640	251
1213.228515625	2	decision	foodImageDisplay	3	127	7	foodImage.30	FOODEEG_Images\0282.jpg	YN	Left	Yes	1.77835789998062	0	621174	252
1215.291015625	1.77835789998062	decision	choicePhaseStart	3	127	7	foodImage.30	FOODEEG_Images\0282.jpg	YN	Left	Yes	1.77835789998062	0	622230	253
1217.060546875	0	decision	response	3	127	7	foodImage.30	FOODEEG_Images\0282.jpg	YN	Left	Yes	1.77835789998062	0	623136	234
1218.10546875	1	decision	trialStart	3	128	8	foodImage.94	FOODEEG_Images\0902.jpg	YN	Left	Yes	0.60151860001497	0	623671	251
1219.142578125	2	decision	foodImageDisplay	3	128	8	foodImage.94	FOODEEG_Images\0902.jpg	YN	Left	Yes	0.60151860001497	0	624202	252
1221.205078125	0.60151860001497	decision	choicePhaseStart	3	128	8	foodImage.94	FOODEEG_Images\0902.jpg	YN	Left	Yes	0.60151860001497	0	625258	253
1221.796875	0	decision	response	3	128	8	foodImage.94	FOODEEG_Images\0902.jpg	YN	Left	Yes	0.60151860001497	0	625561	234
1222.841796875	1	taste	trialStart	3	129	9	foodImage.2	FOODEEG_Images\0028.jpg	NY	Left	No	1.11566479993053	0	626096	251
1223.884765625	2	taste	foodImageDisplay	3	129	9	foodImage.2	FOODEEG_Images\0028.jpg	NY	Left	No	1.11566479993053	0	626630	252
1225.947265625	1.11566479993053	taste	choicePhaseStart	3	129	9	foodImage.2	FOODEEG_Images\0028.jpg	NY	Left	No	1.11566479993053	0	627686	253
1227.052734375	0	taste	response	3	129	9	foodImage.2	FOODEEG_Images\0028.jpg	NY	Left	No	1.11566479993053	0	628252	234
1228.099609375	1	taste	trialStart	3	130	10	foodImage.28	FOODEEG_Images\0273.jpg	NY	Left	No	1.43137970007956	0	628788	251
1229.14453125	2	taste	foodImageDisplay	3	130	10	foodImage.28	FOODEEG_Images\0273.jpg	NY	Left	No	1.43137970007956	0	629323	252
1231.20703125	1.43137970007956	taste	choicePhaseStart	3	130	10	foodImage.28	FOODEEG_Images\0273.jpg	NY	Left	No	1.43137970007956	0	630379	253
1232.62890625	0	taste	response	3	130	10	foodImage.28	FOODEEG_Images\0273.jpg	NY	Left	No	1.43137970007956	0	631107	234
1233.669921875	1	taste	trialStart	3	131	11	foodImage.118	FOODEEG_Images\0926.jpg	YN	Right	No	5.770235999953	1	631640	251
1234.708984375	2	taste	foodImageDisplay	3	131	11	foodImage.118	FOODEEG_Images\0926.jpg	YN	Right	No	5.770235999953	1	632172	252
1236.771484375	5.770235999953	taste	choicePhaseStart	3	131	11	foodImage.118	FOODEEG_Images\0926.jpg	YN	Right	No	5.770235999953	1	633228	253
1242.533203125	0	taste	response	3	131	11	foodImage.118	FOODEEG_Images\0926.jpg	YN	Right	No	5.770235999953	1	636178	235
1243.572265625	1	taste	trialStart	3	132	12	foodImage.92	FOODEEG_Images\0900.jpg	YN	Right	No	1.03616160014644	0	636710	251
1244.611328125	2	taste	foodImageDisplay	3	132	12	foodImage.92	FOODEEG_Images\0900.jpg	YN	Right	No	1.03616160014644	0	637242	252
1246.673828125	1.03616160014644	taste	choicePhaseStart	3	132	12	foodImage.92	FOODEEG_Images\0900.jpg	YN	Right	No	1.03616160014644	0	638298	253
1247.701171875	0	taste	response	3	132	12	foodImage.92	FOODEEG_Images\0900.jpg	YN	Right	No	1.03616160014644	0	638824	235
1248.74609375	1	taste	trialStart	3	133	13	foodImage.23	FOODEEG_Images\0244.jpg	YN	Left	Yes	1.2274529999122	0	639359	251
1249.787109375	2	taste	foodImageDisplay	3	133	13	foodImage.23	FOODEEG_Images\0244.jpg	YN	Left	Yes	1.2274529999122	0	639892	252
1251.849609375	1.2274529999122	taste	choicePhaseStart	3	133	13	foodImage.23	FOODEEG_Images\0244.jpg	YN	Left	Yes	1.2274529999122	0	640948	253
1253.068359375	0	taste	response	3	133	13	foodImage.23	FOODEEG_Images\0244.jpg	YN	Left	Yes	1.2274529999122	0	641572	234
1254.111328125	1	decision	trialStart	3	134	14	foodImage.90	FOODEEG_Images\0890.jpg	YN	Right	No	1.00136690004729	0	642106	251
1255.171875	2	decision	foodImageDisplay	3	134	14	foodImage.90	FOODEEG_Images\0890.jpg	YN	Right	No	1.00136690004729	0	642649	252
1257.234375	1.00136690004729	decision	choicePhaseStart	3	134	14	foodImage.90	FOODEEG_Images\0890.jpg	YN	Right	No	1.00136690004729	0	643705	253
1258.228515625	0	decision	response	3	134	14	foodImage.90	FOODEEG_Images\0890.jpg	YN	Right	No	1.00136690004729	0	644214	235
1259.271484375	1	taste	trialStart	3	135	15	foodImage.54	FOODEEG_Images\0560.jpg	NY	Left	No	0.682936200173572	0	644748	251
1260.330078125	2	taste	foodImageDisplay	3	135	15	foodImage.54	FOODEEG_Images\0560.jpg	NY	Left	No	0.682936200173572	0	645290	252
1262.392578125	0.682936200173572	taste	choicePhaseStart	3	135	15	foodImage.54	FOODEEG_Images\0560.jpg	NY	Left	No	0.682936200173572	0	646346	253
1263.068359375	0	taste	response	3	135	15	foodImage.54	FOODEEG_Images\0560.jpg	NY	Left	No	0.682936200173572	0	646692	234
1264.11328125	1	decision	trialStart	3	136	16	foodImage.49	FOODEEG_Images\0515.jpg	YN	Left	Yes	1.42694290005602	0	647227	251
1265.15625	2	decision	foodImageDisplay	3	136	16	foodImage.49	FOODEEG_Images\0515.jpg	YN	Left	Yes	1.42694290005602	0	647761	252
1267.21875	1.42694290005602	decision	choicePhaseStart	3	136	16	foodImage.49	FOODEEG_Images\0515.jpg	YN	Left	Yes	1.42694290005602	0	648817	253
1268.634765625	0	decision	response	3	136	16	foodImage.49	FOODEEG_Images\0515.jpg	YN	Left	Yes	1.42694290005602	0	649542	234
1269.67578125	1	decision	trialStart	3	137	17	foodImage.27	FOODEEG_Images\0263.jpg	YN	Left	Yes	0.769732200074941	0	650075	251
1270.732421875	2	decision	foodImageDisplay	3	137	17	foodImage.27	FOODEEG_Images\0263.jpg	YN	Left	Yes	0.769732200074941	0	650616	252
1272.794921875	0.769732200074941	decision	choicePhaseStart	3	137	17	foodImage.27	FOODEEG_Images\0263.jpg	YN	Left	Yes	0.769732200074941	0	651672	253
1273.5546875	0	decision	response	3	137	17	foodImage.27	FOODEEG_Images\0263.jpg	YN	Left	Yes	0.769732200074941	0	652061	234
1274.595703125	1	taste	trialStart	3	138	18	foodImage.56	FOODEEG_Images\0586.jpg	NY	Right	Yes	1.14563450007699	0	652594	251
1275.63671875	2	taste	foodImageDisplay	3	138	18	foodImage.56	FOODEEG_Images\0586.jpg	NY	Right	Yes	1.14563450007699	0	653127	252
1277.69921875	1.14563450007699	taste	choicePhaseStart	3	138	18	foodImage.56	FOODEEG_Images\0586.jpg	NY	Right	Yes	1.14563450007699	0	654183	253
1278.833984375	0	taste	response	3	138	18	foodImage.56	FOODEEG_Images\0586.jpg	NY	Right	Yes	1.14563450007699	0	654764	235
1279.876953125	1	health	trialStart	3	139	19	foodImage.26	FOODEEG_Images\0262.jpg	YN	Left	Yes	1.50186259998009	0	655298	251
1280.919921875	2	health	foodImageDisplay	3	139	19	foodImage.26	FOODEEG_Images\0262.jpg	YN	Left	Yes	1.50186259998009	0	655832	252
1282.982421875	1.50186259998009	health	choicePhaseStart	3	139	19	foodImage.26	FOODEEG_Images\0262.jpg	YN	Left	Yes	1.50186259998009	0	656888	253
1284.474609375	0	health	response	3	139	19	foodImage.26	FOODEEG_Images\0262.jpg	YN	Left	Yes	1.50186259998009	0	657652	234
1285.515625	1	health	trialStart	3	140	20	foodImage.50	FOODEEG_Images\0529.jpg	YN	Left	Yes	0.884058400057256	0	658185	251
1286.576171875	2	health	foodImageDisplay	3	140	20	foodImage.50	FOODEEG_Images\0529.jpg	YN	Left	Yes	0.884058400057256	0	658728	252
1288.63671875	0.884058400057256	health	choicePhaseStart	3	140	20	foodImage.50	FOODEEG_Images\0529.jpg	YN	Left	Yes	0.884058400057256	0	659783	253
1289.513671875	0	health	response	3	140	20	foodImage.50	FOODEEG_Images\0529.jpg	YN	Left	Yes	0.884058400057256	0	660232	234
1290.556640625	1	health	trialStart	3	141	21	foodImage.32	FOODEEG_Images\0319.jpg	YN	Left	Yes	0.771729999920353	0	660766	251
1291.599609375	2	health	foodImageDisplay	3	141	21	foodImage.32	FOODEEG_Images\0319.jpg	YN	Left	Yes	0.771729999920353	0	661300	252
1293.662109375	0.771729999920353	health	choicePhaseStart	3	141	21	foodImage.32	FOODEEG_Images\0319.jpg	YN	Left	Yes	0.771729999920353	0	662356	253
1294.42578125	0	health	response	3	141	21	foodImage.32	FOODEEG_Images\0319.jpg	YN	Left	Yes	0.771729999920353	0	662747	234
1295.47265625	1	taste	trialStart	3	142	22	foodImage.78	FOODEEG_Images\0787.jpg	NY	Left	No	2.07284359983169	0	663283	251
1296.515625	2	taste	foodImageDisplay	3	142	22	foodImage.78	FOODEEG_Images\0787.jpg	NY	Left	No	2.07284359983169	0	663817	252
1298.578125	2.07284359983169	taste	choicePhaseStart	3	142	22	foodImage.78	FOODEEG_Images\0787.jpg	NY	Left	No	2.07284359983169	0	664873	253
1300.642578125	0	taste	response	3	142	22	foodImage.78	FOODEEG_Images\0787.jpg	NY	Left	No	2.07284359983169	0	665930	234
1301.6875	1	health	trialStart	3	143	23	foodImage.86	FOODEEG_Images\0844.jpg	YN	Left	Yes	0.958356600021943	0	666465	251
1302.7421875	2	health	foodImageDisplay	3	143	23	foodImage.86	FOODEEG_Images\0844.jpg	YN	Left	Yes	0.958356600021943	0	667005	252
1304.8046875	0.958356600021943	health	choicePhaseStart	3	143	23	foodImage.86	FOODEEG_Images\0844.jpg	YN	Left	Yes	0.958356600021943	0	668061	253
1305.75390625	0	health	response	3	143	23	foodImage.86	FOODEEG_Images\0844.jpg	YN	Left	Yes	0.958356600021943	0	668547	234
1306.794921875	1	health	trialStart	3	144	24	foodImage.82	FOODEEG_Images\0805.jpg	YN	Left	Yes	0.794253499945626	0	669080	251
1307.845703125	2	health	foodImageDisplay	3	144	24	foodImage.82	FOODEEG_Images\0805.jpg	YN	Left	Yes	0.794253499945626	0	669618	252
1309.91015625	0.794253499945626	health	choicePhaseStart	3	144	24	foodImage.82	FOODEEG_Images\0805.jpg	YN	Left	Yes	0.794253499945626	0	670675	253
1310.697265625	0	health	response	3	144	24	foodImage.82	FOODEEG_Images\0805.jpg	YN	Left	Yes	0.794253499945626	0	671078	234
1311.7421875	1	taste	trialStart	3	145	25	foodImage.97	FOODEEG_Images\0905.jpg	NY	Left	No	0.786215099971741	0	671613	251
1312.779296875	2	taste	foodImageDisplay	3	145	25	foodImage.97	FOODEEG_Images\0905.jpg	NY	Left	No	0.786215099971741	0	672144	252
1314.83984375	0.786215099971741	taste	choicePhaseStart	3	145	25	foodImage.97	FOODEEG_Images\0905.jpg	NY	Left	No	0.786215099971741	0	673199	253
1315.6171875	0	taste	response	3	145	25	foodImage.97	FOODEEG_Images\0905.jpg	NY	Left	No	0.786215099971741	0	673597	234
1316.66015625	1	taste	trialStart	3	146	26	foodImage.35	FOODEEG_Images\0350.jpg	NY	Left	No	1.08555920002982	0	674131	251
1317.701171875	2	taste	foodImageDisplay	3	146	26	foodImage.35	FOODEEG_Images\0350.jpg	NY	Left	No	1.08555920002982	0	674664	252
1319.763671875	1.08555920002982	taste	choicePhaseStart	3	146	26	foodImage.35	FOODEEG_Images\0350.jpg	NY	Left	No	1.08555920002982	0	675720	253
1320.841796875	0	taste	response	3	146	26	foodImage.35	FOODEEG_Images\0350.jpg	NY	Left	No	1.08555920002982	0	676272	234
1321.880859375	1	taste	trialStart	3	147	27	foodImage.11	FOODEEG_Images\0180.jpg	YN	Left	Yes	0.699066099943593	0	676804	251
1322.919921875	2	taste	foodImageDisplay	3	147	27	foodImage.11	FOODEEG_Images\0180.jpg	YN	Left	Yes	0.699066099943593	0	677336	252
1324.982421875	0.699066099943593	taste	choicePhaseStart	3	147	27	foodImage.11	FOODEEG_Images\0180.jpg	YN	Left	Yes	0.699066099943593	0	678392	253
1325.673828125	0	taste	response	3	147	27	foodImage.11	FOODEEG_Images\0180.jpg	YN	Left	Yes	0.699066099943593	0	678746	234
1326.716796875	1	taste	trialStart	3	148	28	foodImage.63	FOODEEG_Images\0645.jpg	NY	Left	No	0.627740500029176	0	679280	251
1327.759765625	2	taste	foodImageDisplay	3	148	28	foodImage.63	FOODEEG_Images\0645.jpg	NY	Left	No	0.627740500029176	0	679814	252
1329.822265625	0.627740500029176	taste	choicePhaseStart	3	148	28	foodImage.63	FOODEEG_Images\0645.jpg	NY	Left	No	0.627740500029176	0	680870	253
1330.44140625	0	taste	response	3	148	28	foodImage.63	FOODEEG_Images\0645.jpg	NY	Left	No	0.627740500029176	0	681187	234
1331.484375	1	health	trialStart	3	149	29	foodImage.118	FOODEEG_Images\0926.jpg	NY	Right	Yes	1.36832340015098	0	681721	251
1332.5234375	2	health	foodImageDisplay	3	149	29	foodImage.118	FOODEEG_Images\0926.jpg	NY	Right	Yes	1.36832340015098	0	682253	252
1334.5859375	1.36832340015098	health	choicePhaseStart	3	149	29	foodImage.118	FOODEEG_Images\0926.jpg	NY	Right	Yes	1.36832340015098	0	683309	253
1335.9453125	0	health	response	3	149	29	foodImage.118	FOODEEG_Images\0926.jpg	NY	Right	Yes	1.36832340015098	0	684005	235
1336.986328125	1	taste	trialStart	3	150	30	foodImage.76	FOODEEG_Images\0766.jpg	YN	Right	No	1.25438749999739	0	684538	251
1338.029296875	2	taste	foodImageDisplay	3	150	30	foodImage.76	FOODEEG_Images\0766.jpg	YN	Right	No	1.25438749999739	0	685072	252
1340.091796875	1.25438749999739	taste	choicePhaseStart	3	150	30	foodImage.76	FOODEEG_Images\0766.jpg	YN	Right	No	1.25438749999739	0	686128	253
1341.3359375	0	taste	response	3	150	30	foodImage.76	FOODEEG_Images\0766.jpg	YN	Right	No	1.25438749999739	0	686765	235
1342.380859375	1	health	trialStart	3	151	31	foodImage.10	FOODEEG_Images\0145.jpg	NY	Left	No	1.35470380005427	0	687300	251
1343.44140625	2	health	foodImageDisplay	3	151	31	foodImage.10	FOODEEG_Images\0145.jpg	NY	Left	No	1.35470380005427	0	687843	252
1345.50390625	1.35470380005427	health	choicePhaseStart	3	151	31	foodImage.10	FOODEEG_Images\0145.jpg	NY	Left	No	1.35470380005427	0	688899	253
1346.84765625	0	health	response	3	151	31	foodImage.10	FOODEEG_Images\0145.jpg	NY	Left	No	1.35470380005427	0	689587	234
1347.890625	1	taste	trialStart	3	152	32	foodImage.50	FOODEEG_Images\0529.jpg	NY	Left	No	1.05384599999525	0	690121	251
1348.94921875	2	taste	foodImageDisplay	3	152	32	foodImage.50	FOODEEG_Images\0529.jpg	NY	Left	No	1.05384599999525	0	690663	252
1351.01171875	1.05384599999525	taste	choicePhaseStart	3	152	32	foodImage.50	FOODEEG_Images\0529.jpg	NY	Left	No	1.05384599999525	0	691719	253
1352.056640625	0	taste	response	3	152	32	foodImage.50	FOODEEG_Images\0529.jpg	NY	Left	No	1.05384599999525	0	692254	234
1353.09765625	1	health	trialStart	3	153	33	foodImage.79	FOODEEG_Images\0794.jpg	YN	Left	Yes	0.924070999957621	0	692787	251
1354.142578125	2	health	foodImageDisplay	3	153	33	foodImage.79	FOODEEG_Images\0794.jpg	YN	Left	Yes	0.924070999957621	0	693322	252
1356.205078125	0.924070999957621	health	choicePhaseStart	3	153	33	foodImage.79	FOODEEG_Images\0794.jpg	YN	Left	Yes	0.924070999957621	0	694378	253
1357.119140625	0	health	response	3	153	33	foodImage.79	FOODEEG_Images\0794.jpg	YN	Left	Yes	0.924070999957621	0	694846	234
1358.162109375	1	taste	trialStart	3	154	34	foodImage.12	FOODEEG_Images\0181.jpg	NY	Left	No	1.07016319991089	0	695380	251
1359.203125	2	taste	foodImageDisplay	3	154	34	foodImage.12	FOODEEG_Images\0181.jpg	NY	Left	No	1.07016319991089	0	695913	252
1361.265625	1.07016319991089	taste	choicePhaseStart	3	154	34	foodImage.12	FOODEEG_Images\0181.jpg	NY	Left	No	1.07016319991089	0	696969	253
1362.328125	0	taste	response	3	154	34	foodImage.12	FOODEEG_Images\0181.jpg	NY	Left	No	1.07016319991089	0	697513	234
1363.37109375	1	health	trialStart	3	155	35	foodImage.114	FOODEEG_Images\0922.jpg	NY	Right	Yes	0.544659199891612	0	698047	251
1364.41015625	2	health	foodImageDisplay	3	155	35	foodImage.114	FOODEEG_Images\0922.jpg	NY	Right	Yes	0.544659199891612	0	698579	252
1366.47265625	0.544659199891612	health	choicePhaseStart	3	155	35	foodImage.114	FOODEEG_Images\0922.jpg	NY	Right	Yes	0.544659199891612	0	699635	253
1367.0078125	0	health	response	3	155	35	foodImage.114	FOODEEG_Images\0922.jpg	NY	Right	Yes	0.544659199891612	0	699909	235
1368.048828125	1	taste	trialStart	3	156	36	foodImage.33	FOODEEG_Images\0329.jpg	YN	Left	Yes	0.75926459999755	0	700442	251
1369.08984375	2	taste	foodImageDisplay	3	156	36	foodImage.33	FOODEEG_Images\0329.jpg	YN	Left	Yes	0.75926459999755	0	700975	252
1371.15234375	0.75926459999755	taste	choicePhaseStart	3	156	36	foodImage.33	FOODEEG_Images\0329.jpg	YN	Left	Yes	0.75926459999755	0	702031	253
1371.904296875	0	taste	response	3	156	36	foodImage.33	FOODEEG_Images\0329.jpg	YN	Left	Yes	0.75926459999755	0	702416	234
1372.947265625	1	taste	trialStart	3	157	37	foodImage.116	FOODEEG_Images\0924.jpg	NY	Right	Yes	1.12794109992683	0	702950	251
1373.986328125	2	taste	foodImageDisplay	3	157	37	foodImage.116	FOODEEG_Images\0924.jpg	NY	Right	Yes	1.12794109992683	0	703482	252
1376.048828125	1.12794109992683	taste	choicePhaseStart	3	157	37	foodImage.116	FOODEEG_Images\0924.jpg	NY	Right	Yes	1.12794109992683	0	704538	253
1377.16796875	0	taste	response	3	157	37	foodImage.116	FOODEEG_Images\0924.jpg	NY	Right	Yes	1.12794109992683	0	705111	235
1378.208984375	1	taste	trialStart	3	158	38	foodImage.104	FOODEEG_Images\0912.jpg	YN	Right	No	1.18462640000507	0	705644	251
1379.248046875	2	taste	foodImageDisplay	3	158	38	foodImage.104	FOODEEG_Images\0912.jpg	YN	Right	No	1.18462640000507	0	706176	252
1381.310546875	1.18462640000507	taste	choicePhaseStart	3	158	38	foodImage.104	FOODEEG_Images\0912.jpg	YN	Right	No	1.18462640000507	0	707232	253
1382.486328125	0	taste	response	3	158	38	foodImage.104	FOODEEG_Images\0912.jpg	YN	Right	No	1.18462640000507	0	707834	235
1383.529296875	1	decision	trialStart	3	159	39	foodImage.41	FOODEEG_Images\0409.jpg	NY	Left	No	1.43320309999399	0	708368	251
1384.576171875	2	decision	foodImageDisplay	3	159	39	foodImage.41	FOODEEG_Images\0409.jpg	NY	Left	No	1.43320309999399	0	708904	252
1386.638671875	1.43320309999399	decision	choicePhaseStart	3	159	39	foodImage.41	FOODEEG_Images\0409.jpg	NY	Left	No	1.43320309999399	0	709960	253
1388.0625	0	decision	response	3	159	39	foodImage.41	FOODEEG_Images\0409.jpg	NY	Left	No	1.43320309999399	0	710689	234
1389.10546875	1	decision	trialStart	3	160	40	foodImage.45	FOODEEG_Images\0478.jpg	YN	Left	Yes	1.34747770009562	0	711223	251
1390.150390625	2	decision	foodImageDisplay	3	160	40	foodImage.45	FOODEEG_Images\0478.jpg	YN	Left	Yes	1.34747770009562	0	711758	252
1392.212890625	1.34747770009562	decision	choicePhaseStart	3	160	40	foodImage.45	FOODEEG_Images\0478.jpg	YN	Left	Yes	1.34747770009562	0	712814	253
1393.55078125	0	decision	response	3	160	40	foodImage.45	FOODEEG_Images\0478.jpg	YN	Left	Yes	1.34747770009562	0	713499	234
1394.591796875	1	decision	trialStart	3	161	41	foodImage.82	FOODEEG_Images\0805.jpg	YN	Left	Yes	1.38659529993311	0	714032	251
1395.646484375	2	decision	foodImageDisplay	3	161	41	foodImage.82	FOODEEG_Images\0805.jpg	YN	Left	Yes	1.38659529993311	0	714572	252
1397.708984375	1.38659529993311	decision	choicePhaseStart	3	161	41	foodImage.82	FOODEEG_Images\0805.jpg	YN	Left	Yes	1.38659529993311	0	715628	253
1399.0859375	0	decision	response	3	161	41	foodImage.82	FOODEEG_Images\0805.jpg	YN	Left	Yes	1.38659529993311	0	716333	234
1400.130859375	1	health	trialStart	3	162	42	foodImage.66	FOODEEG_Images\0676.jpg	YN	Left	Yes	0.792734100017697	0	716868	251
1401.18359375	2	health	foodImageDisplay	3	162	42	foodImage.66	FOODEEG_Images\0676.jpg	YN	Left	Yes	0.792734100017697	0	717407	252
1403.24609375	0.792734100017697	health	choicePhaseStart	3	162	42	foodImage.66	FOODEEG_Images\0676.jpg	YN	Left	Yes	0.792734100017697	0	718463	253
1404.029296875	0	health	response	3	162	42	foodImage.66	FOODEEG_Images\0676.jpg	YN	Left	Yes	0.792734100017697	0	718864	234
1405.07421875	1	decision	trialStart	3	163	43	foodImage.11	FOODEEG_Images\0180.jpg	YN	Left	Yes	0.731558799976483	0	719399	251
1406.115234375	2	decision	foodImageDisplay	3	163	43	foodImage.11	FOODEEG_Images\0180.jpg	YN	Left	Yes	0.731558799976483	0	719932	252
1408.177734375	0.731558799976483	decision	choicePhaseStart	3	163	43	foodImage.11	FOODEEG_Images\0180.jpg	YN	Left	Yes	0.731558799976483	0	720988	253
1408.90234375	0	decision	response	3	163	43	foodImage.11	FOODEEG_Images\0180.jpg	YN	Left	Yes	0.731558799976483	0	721359	234
1409.9453125	1	taste	trialStart	3	164	44	foodImage.81	FOODEEG_Images\0797.jpg	NY	Left	No	1.02011039992794	0	721893	251
1411.00390625	2	taste	foodImageDisplay	3	164	44	foodImage.81	FOODEEG_Images\0797.jpg	NY	Left	No	1.02011039992794	0	722435	252
1413.06640625	1.02011039992794	taste	choicePhaseStart	3	164	44	foodImage.81	FOODEEG_Images\0797.jpg	NY	Left	No	1.02011039992794	0	723491	253
1414.078125	0	taste	response	3	164	44	foodImage.81	FOODEEG_Images\0797.jpg	NY	Left	No	1.02011039992794	0	724009	234
1415.14453125	1	decision	trialStart	3	165	45	foodImage.42	FOODEEG_Images\0438.jpg	YN	Left	Yes	1.55520170019008	0	724555	251
1416.23046875	2	decision	foodImageDisplay	3	165	45	foodImage.42	FOODEEG_Images\0438.jpg	YN	Left	Yes	1.55520170019008	0	725111	252
1418.29296875	1.55520170019008	decision	choicePhaseStart	3	165	45	foodImage.42	FOODEEG_Images\0438.jpg	YN	Left	Yes	1.55520170019008	0	726167	253
1419.837890625	0	decision	response	3	165	45	foodImage.42	FOODEEG_Images\0438.jpg	YN	Left	Yes	1.55520170019008	0	726958	234
1420.880859375	1	health	trialStart	3	166	46	foodImage.71	FOODEEG_Images\0713.jpg	NY	Left	No	0.915131399873644	0	727492	251
1421.923828125	2	health	foodImageDisplay	3	166	46	foodImage.71	FOODEEG_Images\0713.jpg	NY	Left	No	0.915131399873644	0	728026	252
1423.98828125	0.915131399873644	health	choicePhaseStart	3	166	46	foodImage.71	FOODEEG_Images\0713.jpg	NY	Left	No	0.915131399873644	0	729083	253
1424.892578125	0	health	response	3	166	46	foodImage.71	FOODEEG_Images\0713.jpg	NY	Left	No	0.915131399873644	0	729546	234
1425.9375	1	decision	trialStart	3	167	47	foodImage.47	FOODEEG_Images\0488.jpg	YN	Left	Yes	0.693921500118449	0	730081	251
1426.978515625	2	decision	foodImageDisplay	3	167	47	foodImage.47	FOODEEG_Images\0488.jpg	YN	Left	Yes	0.693921500118449	0	730614	252
1429.041015625	0.693921500118449	decision	choicePhaseStart	3	167	47	foodImage.47	FOODEEG_Images\0488.jpg	YN	Left	Yes	0.693921500118449	0	731670	253
1429.724609375	0	decision	response	3	167	47	foodImage.47	FOODEEG_Images\0488.jpg	YN	Left	Yes	0.693921500118449	0	732020	234
1430.767578125	1	health	trialStart	3	168	48	foodImage.103	FOODEEG_Images\0911.jpg	YN	Right	No	1.36354660009965	0	732554	251
1431.8046875	2	health	foodImageDisplay	3	168	48	foodImage.103	FOODEEG_Images\0911.jpg	YN	Right	No	1.36354660009965	0	733085	252
1433.865234375	1.36354660009965	health	choicePhaseStart	3	168	48	foodImage.103	FOODEEG_Images\0911.jpg	YN	Right	No	1.36354660009965	0	734140	253
1435.220703125	0	health	response	3	168	48	foodImage.103	FOODEEG_Images\0911.jpg	YN	Right	No	1.36354660009965	0	734834	235
1436.263671875	1	decision	trialStart	3	169	49	foodImage.25	FOODEEG_Images\0261.jpg	YN	Left	Yes	0.699513699859381	0	735368	251
1437.306640625	2	decision	foodImageDisplay	3	169	49	foodImage.25	FOODEEG_Images\0261.jpg	YN	Left	Yes	0.699513699859381	0	735902	252
1439.369140625	0.699513699859381	decision	choicePhaseStart	3	169	49	foodImage.25	FOODEEG_Images\0261.jpg	YN	Left	Yes	0.699513699859381	0	736958	253
1440.060546875	0	decision	response	3	169	49	foodImage.25	FOODEEG_Images\0261.jpg	YN	Left	Yes	0.699513699859381	0	737312	234
1441.103515625	1	taste	trialStart	3	170	50	foodImage.27	FOODEEG_Images\0263.jpg	NY	Left	No	0.884606899926439	0	737846	251
1442.146484375	2	taste	foodImageDisplay	3	170	50	foodImage.27	FOODEEG_Images\0263.jpg	NY	Left	No	0.884606899926439	0	738380	252
1444.208984375	0.884606899926439	taste	choicePhaseStart	3	170	50	foodImage.27	FOODEEG_Images\0263.jpg	NY	Left	No	0.884606899926439	0	739436	253
1445.083984375	0	taste	response	3	170	50	foodImage.27	FOODEEG_Images\0263.jpg	NY	Left	No	0.884606899926439	0	739884	234
1446.126953125	1	decision	trialStart	3	171	51	foodImage.55	FOODEEG_Images\0567.jpg	YN	Left	Yes	1.97191179986112	0	740418	251
1447.1875	2	decision	foodImageDisplay	3	171	51	foodImage.55	FOODEEG_Images\0567.jpg	YN	Left	Yes	1.97191179986112	0	740961	252
1449.248046875	1.97191179986112	decision	choicePhaseStart	3	171	51	foodImage.55	FOODEEG_Images\0567.jpg	YN	Left	Yes	1.97191179986112	0	742016	253
1451.212890625	0	decision	response	3	171	51	foodImage.55	FOODEEG_Images\0567.jpg	YN	Left	Yes	1.97191179986112	0	743022	234
1452.255859375	1	health	trialStart	3	172	52	foodImage.81	FOODEEG_Images\0797.jpg	YN	Left	Yes	0.671925200149417	0	743556	251
1453.310546875	2	health	foodImageDisplay	3	172	52	foodImage.81	FOODEEG_Images\0797.jpg	YN	Left	Yes	0.671925200149417	0	744096	252
1455.373046875	0.671925200149417	health	choicePhaseStart	3	172	52	foodImage.81	FOODEEG_Images\0797.jpg	YN	Left	Yes	0.671925200149417	0	745152	253
1456.03515625	0	health	response	3	172	52	foodImage.81	FOODEEG_Images\0797.jpg	YN	Left	Yes	0.671925200149417	0	745491	234
1457.080078125	1	taste	trialStart	3	173	53	foodImage.39	FOODEEG_Images\0367.jpg	NY	Left	No	1.06394589995034	0	746026	251
1458.119140625	2	taste	foodImageDisplay	3	173	53	foodImage.39	FOODEEG_Images\0367.jpg	NY	Left	No	1.06394589995034	0	746558	252
1460.181640625	1.06394589995034	taste	choicePhaseStart	3	173	53	foodImage.39	FOODEEG_Images\0367.jpg	NY	Left	No	1.06394589995034	0	747614	253
1461.236328125	0	taste	response	3	173	53	foodImage.39	FOODEEG_Images\0367.jpg	NY	Left	No	1.06394589995034	0	748154	234
1462.279296875	1	taste	trialStart	3	174	54	foodImage.115	FOODEEG_Images\0923.jpg	YN	Right	No	0.735563999973238	0	748688	251
1463.318359375	2	taste	foodImageDisplay	3	174	54	foodImage.115	FOODEEG_Images\0923.jpg	YN	Right	No	0.735563999973238	0	749220	252
1465.380859375	0.735563999973238	taste	choicePhaseStart	3	174	54	foodImage.115	FOODEEG_Images\0923.jpg	YN	Right	No	0.735563999973238	0	750276	253
1466.107421875	0	taste	response	3	174	54	foodImage.115	FOODEEG_Images\0923.jpg	YN	Right	No	0.735563999973238	0	750648	235
1467.150390625	1	decision	trialStart	3	175	55	foodImage.5	FOODEEG_Images\0107.jpg	YN	Left	Yes	0.567677400074899	0	751182	251
1468.208984375	2	decision	foodImageDisplay	3	175	55	foodImage.5	FOODEEG_Images\0107.jpg	YN	Left	Yes	0.567677400074899	0	751724	252
1470.271484375	0.567677400074899	decision	choicePhaseStart	3	175	55	foodImage.5	FOODEEG_Images\0107.jpg	YN	Left	Yes	0.567677400074899	0	752780	253
1470.828125	0	decision	response	3	175	55	foodImage.5	FOODEEG_Images\0107.jpg	YN	Left	Yes	0.567677400074899	0	753065	234
1471.869140625	1	health	trialStart	3	176	56	foodImage.87	FOODEEG_Images\0873.jpg	NY	Left	No	1.25679030013271	0	753598	251
1472.923828125	2	health	foodImageDisplay	3	176	56	foodImage.87	FOODEEG_Images\0873.jpg	NY	Left	No	1.25679030013271	0	754138	252
1474.986328125	1.25679030013271	health	choicePhaseStart	3	176	56	foodImage.87	FOODEEG_Images\0873.jpg	NY	Left	No	1.25679030013271	0	755194	253
1476.236328125	0	health	response	3	176	56	foodImage.87	FOODEEG_Images\0873.jpg	NY	Left	No	1.25679030013271	0	755834	234
1477.27734375	1	decision	trialStart	3	177	57	foodImage.104	FOODEEG_Images\0912.jpg	YN	Left	Yes	2.2958340998739	0	756367	251
1478.318359375	2	decision	foodImageDisplay	3	177	57	foodImage.104	FOODEEG_Images\0912.jpg	YN	Left	Yes	2.2958340998739	0	756900	252
1480.380859375	2.2958340998739	decision	choicePhaseStart	3	177	57	foodImage.104	FOODEEG_Images\0912.jpg	YN	Left	Yes	2.2958340998739	0	757956	253
1482.66796875	0	decision	response	3	177	57	foodImage.104	FOODEEG_Images\0912.jpg	YN	Left	Yes	2.2958340998739	0	759127	234
1483.708984375	1	health	trialStart	3	178	58	foodImage.49	FOODEEG_Images\0515.jpg	NY	Left	No	1.58412979985587	0	759660	251
1484.75	2	health	foodImageDisplay	3	178	58	foodImage.49	FOODEEG_Images\0515.jpg	NY	Left	No	1.58412979985587	0	760193	252
1486.8125	1.58412979985587	health	choicePhaseStart	3	178	58	foodImage.49	FOODEEG_Images\0515.jpg	NY	Left	No	1.58412979985587	0	761249	253
1488.38671875	0	health	response	3	178	58	foodImage.49	FOODEEG_Images\0515.jpg	NY	Left	No	1.58412979985587	0	762055	234
1489.431640625	1	health	trialStart	3	179	59	foodImage.77	FOODEEG_Images\0771.jpg	NY	Left	No	1.09583580004983	0	762590	251
1490.4765625	2	health	foodImageDisplay	3	179	59	foodImage.77	FOODEEG_Images\0771.jpg	NY	Left	No	1.09583580004983	0	763125	252
1492.5390625	1.09583580004983	health	choicePhaseStart	3	179	59	foodImage.77	FOODEEG_Images\0771.jpg	NY	Left	No	1.09583580004983	0	764181	253
1493.626953125	0	health	response	3	179	59	foodImage.77	FOODEEG_Images\0771.jpg	NY	Left	No	1.09583580004983	0	764738	234
1494.669921875	1	decision	trialStart	3	180	60	foodImage.117	FOODEEG_Images\0925.jpg	YN	Left	Yes	1.03109930013306	0	765272	251
1495.708984375	2	decision	foodImageDisplay	3	180	60	foodImage.117	FOODEEG_Images\0925.jpg	YN	Left	Yes	1.03109930013306	0	765804	252
1497.771484375	1.03109930013306	decision	choicePhaseStart	3	180	60	foodImage.117	FOODEEG_Images\0925.jpg	YN	Left	Yes	1.03109930013306	0	766860	253
1498.794921875	0	decision	response	3	180	60	foodImage.117	FOODEEG_Images\0925.jpg	YN	Left	Yes	1.03109930013306	0	767384	234
1500.8359375	20.4453125	n/a	blockEnd	n/a	n/a	n/a	n/a	n/a	n/a	n/a	n/a	n/a	n/a	768429	254
1521.28125	2	n/a	blockStart	4	n/a	n/a	n/a	n/a	n/a	n/a	n/a	n/a	n/a	778897	250
1523.314453125	1	health	trialStart	4	181	1	foodImage.84	FOODEEG_Images\0830.jpg	NY	Left	No	0.946982600027695	0	779938	251
1524.376953125	2	health	foodImageDisplay	4	181	1	foodImage.84	FOODEEG_Images\0830.jpg	NY	Left	No	0.946982600027695	0	780482	252
1526.439453125	0.946982600027695	health	choicePhaseStart	4	181	1	foodImage.84	FOODEEG_Images\0830.jpg	NY	Left	No	0.946982600027695	0	781538	253
1527.376953125	0	health	response	4	181	1	foodImage.84	FOODEEG_Images\0830.jpg	NY	Left	No	0.946982600027695	0	782018	234
1528.421875	1	health	trialStart	4	182	2	foodImage.28	FOODEEG_Images\0273.jpg	YN	Left	Yes	0.93810739996843	0	782553	251
1529.46484375	2	health	foodImageDisplay	4	182	2	foodImage.28	FOODEEG_Images\0273.jpg	YN	Left	Yes	0.93810739996843	0	783087	252
1531.52734375	0.93810739996843	health	choicePhaseStart	4	182	2	foodImage.28	FOODEEG_Images\0273.jpg	YN	Left	Yes	0.93810739996843	0	784143	253
1532.45703125	0	health	response	4	182	2	foodImage.28	FOODEEG_Images\0273.jpg	YN	Left	Yes	0.93810739996843	0	784619	234
1533.501953125	1	health	trialStart	4	183	3	foodImage.70	FOODEEG_Images\0705.jpg	NY	Left	No	0.621982199838385	0	785154	251
1534.55859375	2	health	foodImageDisplay	4	183	3	foodImage.70	FOODEEG_Images\0705.jpg	NY	Left	No	0.621982199838385	0	785695	252
1536.62109375	0.621982199838385	health	choicePhaseStart	4	183	3	foodImage.70	FOODEEG_Images\0705.jpg	NY	Left	No	0.621982199838385	0	786751	253
1537.232421875	0	health	response	4	183	3	foodImage.70	FOODEEG_Images\0705.jpg	NY	Left	No	0.621982199838385	0	787064	234
1538.275390625	1	taste	trialStart	4	184	4	foodImage.68	FOODEEG_Images\0685.jpg	YN	Left	Yes	0.686581899877638	0	787598	251
1539.349609375	2	taste	foodImageDisplay	4	184	4	foodImage.68	FOODEEG_Images\0685.jpg	YN	Left	Yes	0.686581899877638	0	788148	252
1541.412109375	0.686581899877638	taste	choicePhaseStart	4	184	4	foodImage.68	FOODEEG_Images\0685.jpg	YN	Left	Yes	0.686581899877638	0	789204	253
1542.087890625	0	taste	response	4	184	4	foodImage.68	FOODEEG_Images\0685.jpg	YN	Left	Yes	0.686581899877638	0	789550	234
1543.1328125	1	decision	trialStart	4	185	5	foodImage.33	FOODEEG_Images\0329.jpg	YN	Left	Yes	0.606720699928701	0	790085	251
1544.171875	2	decision	foodImageDisplay	4	185	5	foodImage.33	FOODEEG_Images\0329.jpg	YN	Left	Yes	0.606720699928701	0	790617	252
1546.234375	0.606720699928701	decision	choicePhaseStart	4	185	5	foodImage.33	FOODEEG_Images\0329.jpg	YN	Left	Yes	0.606720699928701	0	791673	253
1546.83203125	0	decision	response	4	185	5	foodImage.33	FOODEEG_Images\0329.jpg	YN	Left	Yes	0.606720699928701	0	791979	234
1547.875	1	decision	trialStart	4	186	6	foodImage.68	FOODEEG_Images\0685.jpg	YN	Left	Yes	0.875324500026181	0	792513	251
1548.951171875	2	decision	foodImageDisplay	4	186	6	foodImage.68	FOODEEG_Images\0685.jpg	YN	Left	Yes	0.875324500026181	0	793064	252
1551.013671875	0.875324500026181	decision	choicePhaseStart	4	186	6	foodImage.68	FOODEEG_Images\0685.jpg	YN	Left	Yes	0.875324500026181	0	794120	253
1551.880859375	0	decision	response	4	186	6	foodImage.68	FOODEEG_Images\0685.jpg	YN	Left	Yes	0.875324500026181	0	794564	234
1552.923828125	1	decision	trialStart	4	187	7	foodImage.10	FOODEEG_Images\0145.jpg	YN	Left	Yes	1.0236428999342	0	795098	251
1553.986328125	2	decision	foodImageDisplay	4	187	7	foodImage.10	FOODEEG_Images\0145.jpg	YN	Left	Yes	1.0236428999342	0	795642	252
1556.048828125	1.0236428999342	decision	choicePhaseStart	4	187	7	foodImage.10	FOODEEG_Images\0145.jpg	YN	Left	Yes	1.0236428999342	0	796698	253
1557.064453125	0	decision	response	4	187	7	foodImage.10	FOODEEG_Images\0145.jpg	YN	Left	Yes	1.0236428999342	0	797218	234
1558.107421875	1	decision	trialStart	4	188	8	foodImage.28	FOODEEG_Images\0273.jpg	NY	Left	No	0.621266199974343	0	797752	251
1559.1484375	2	decision	foodImageDisplay	4	188	8	foodImage.28	FOODEEG_Images\0273.jpg	NY	Left	No	0.621266199974343	0	798285	252
1561.2109375	0.621266199974343	decision	choicePhaseStart	4	188	8	foodImage.28	FOODEEG_Images\0273.jpg	NY	Left	No	0.621266199974343	0	799341	253
1561.82421875	0	decision	response	4	188	8	foodImage.28	FOODEEG_Images\0273.jpg	NY	Left	No	0.621266199974343	0	799655	234
1562.8671875	1	decision	trialStart	4	189	9	foodImage.23	FOODEEG_Images\0244.jpg	YN	Left	Yes	0.789681799942628	0	800189	251
1563.908203125	2	decision	foodImageDisplay	4	189	9	foodImage.23	FOODEEG_Images\0244.jpg	YN	Left	Yes	0.789681799942628	0	800722	252
1565.96875	0.789681799942628	decision	choicePhaseStart	4	189	9	foodImage.23	FOODEEG_Images\0244.jpg	YN	Left	Yes	0.789681799942628	0	801777	253
1566.751953125	0	decision	response	4	189	9	foodImage.23	FOODEEG_Images\0244.jpg	YN	Left	Yes	0.789681799942628	0	802178	234
1567.796875	1	health	trialStart	4	190	10	foodImage.31	FOODEEG_Images\0294.jpg	NY	Right	Yes	1.27386739989743	0	802713	251
1568.83984375	2	health	foodImageDisplay	4	190	10	foodImage.31	FOODEEG_Images\0294.jpg	NY	Right	Yes	1.27386739989743	0	803247	252
1570.900390625	1.27386739989743	health	choicePhaseStart	4	190	10	foodImage.31	FOODEEG_Images\0294.jpg	NY	Right	Yes	1.27386739989743	0	804302	253
1572.16796875	0	health	response	4	190	10	foodImage.31	FOODEEG_Images\0294.jpg	NY	Right	Yes	1.27386739989743	0	804951	235
1573.2109375	1	taste	trialStart	4	191	11	foodImage.71	FOODEEG_Images\0713.jpg	NY	Left	No	1.19109500013292	0	805485	251
1574.251953125	2	taste	foodImageDisplay	4	191	11	foodImage.71	FOODEEG_Images\0713.jpg	NY	Left	No	1.19109500013292	0	806018	252
1576.314453125	1.19109500013292	taste	choicePhaseStart	4	191	11	foodImage.71	FOODEEG_Images\0713.jpg	NY	Left	No	1.19109500013292	0	807074	253
1577.49609375	0	taste	response	4	191	11	foodImage.71	FOODEEG_Images\0713.jpg	NY	Left	No	1.19109500013292	0	807679	234
1578.5390625	1	taste	trialStart	4	192	12	foodImage.55	FOODEEG_Images\0567.jpg	NY	Left	No	0.767715499969199	0	808213	251
1579.595703125	2	taste	foodImageDisplay	4	192	12	foodImage.55	FOODEEG_Images\0567.jpg	NY	Left	No	0.767715499969199	0	808754	252
1581.658203125	0.767715499969199	taste	choicePhaseStart	4	192	12	foodImage.55	FOODEEG_Images\0567.jpg	NY	Left	No	0.767715499969199	0	809810	253
1582.416015625	0	taste	response	4	192	12	foodImage.55	FOODEEG_Images\0567.jpg	NY	Left	No	0.767715499969199	0	810198	234
1583.455078125	1	decision	trialStart	4	193	13	foodImage.53	FOODEEG_Images\0547.jpg	YN	Left	Yes	1.31689719995484	0	810730	251
1584.509765625	2	decision	foodImageDisplay	4	193	13	foodImage.53	FOODEEG_Images\0547.jpg	YN	Left	Yes	1.31689719995484	0	811270	252
1586.572265625	1.31689719995484	decision	choicePhaseStart	4	193	13	foodImage.53	FOODEEG_Images\0547.jpg	YN	Left	Yes	1.31689719995484	0	812326	253
