onset	duration	trial_type	event_type	block	trial_total	trial_in_block	food_image_code	food_image_path	button_position	resp_position	resp_choice	choice_rt	resp_too_slow	sample	trigger
590.6640625	2	n/a	blockStart	1	n/a	n/a	n/a	n/a	n/a	n/a	n/a	n/a	n/a	302421	250
592.69921875	1	decision	trialStart	1	1	1	foodImage.55	FOODEEG_Images\0567.jpg	YN	Left	Yes	0.945565799949691	0	303463	251
593.7578125	2	decision	foodImageDisplay	1	1	1	foodImage.55	FOODEEG_Images\0567.jpg	YN	Left	Yes	0.945565799949691	0	304005	252
595.822265625	0.945565799949691	decision	choicePhaseStart	1	1	1	foodImage.55	FOODEEG_Images\0567.jpg	YN	Left	Yes	0.945565799949691	0	305062	253
596.76171875	0	decision	response	1	1	1	foodImage.55	FOODEEG_Images\0567.jpg	YN	Left	Yes	0.945565799949691	0	305543	234
597.857421875	1	decision	trialStart	1	2	2	foodImage.69	FOODEEG_Images\0693.jpg	YN	Left	Yes	0.800198999932036	0	306104	251
598.904296875	2	decision	foodImageDisplay	1	2	2	foodImage.69	FOODEEG_Images\0693.jpg	YN	Left	Yes	0.800198999932036	0	306640	252
600.966796875	0.800198999932036	decision	choicePhaseStart	1	2	2	foodImage.69	FOODEEG_Images\0693.jpg	YN	Left	Yes	0.800198999932036	0	307696	253
601.76171875	0	decision	response	1	2	2	foodImage.69	FOODEEG_Images\0693.jpg	YN	Left	Yes	0.800198999932036	0	308103	234
602.81640625	1	decision	trialStart	1	3	3	foodImage.64	FOODEEG_Images\0647.jpg	NY	Right	Yes	1.1092229001224	0	308643	251
603.875	2	decision	foodImageDisplay	1	3	3	foodImage.64	FOODEEG_Images\0647.jpg	NY	Right	Yes	1.1092229001224	0	309185	252
605.939453125	1.1092229001224	decision	choicePhaseStart	1	3	3	foodImage.64	FOODEEG_Images\0647.jpg	NY	Right	Yes	1.1092229001224	0	310242	253
607.041015625	0	decision	response	1	3	3	foodImage.64	FOODEEG_Images\0647.jpg	NY	Right	Yes	1.1092229001224	0	310806	235
608.083984375	1	taste	trialStart	1	4	4	foodImage.34	FOODEEG_Images\0339.jpg	NY	Right	Yes	2.08282849984244	0	311340	251
609.142578125	2	taste	foodImageDisplay	1	4	4	foodImage.34	FOODEEG_Images\0339.jpg	NY	Right	Yes	2.08282849984244	0	311882	252
611.20703125	2.08282849984244	taste	choicePhaseStart	1	4	4	foodImage.34	FOODEEG_Images\0339.jpg	NY	Right	Yes	2.08282849984244	0	312939	253
613.28125	0	taste	response	1	4	4	foodImage.34	FOODEEG_Images\0339.jpg	NY	Right	Yes	2.08282849984244	0	314001	235
614.322265625	1	taste	trialStart	1	5	5	foodImage.52	FOODEEG_Images\0539.jpg	NY	Right	Yes	1.67600960005075	0	314534	251
615.380859375	2	taste	foodImageDisplay	1	5	5	foodImage.52	FOODEEG_Images\0539.jpg	NY	Right	Yes	1.67600960005075	0	315076	252
617.4453125	1.67600960005075	taste	choicePhaseStart	1	5	5	foodImage.52	FOODEEG_Images\0539.jpg	NY	Right	Yes	1.67600960005075	0	316133	253
619.111328125	0	taste	response	1	5	5	foodImage.52	FOODEEG_Images\0539.jpg	NY	Right	Yes	1.67600960005075	0	316986	235
620.166015625	1	health	trialStart	1	6	6	foodImage.55	FOODEEG_Images\0567.jpg	YN	Left	Yes	0.847102700034156	0	317526	251
621.22265625	2	health	foodImageDisplay	1	6	6	foodImage.55	FOODEEG_Images\0567.jpg	YN	Left	Yes	0.847102700034156	0	318067	252
623.2890625	0.847102700034156	health	choicePhaseStart	1	6	6	foodImage.55	FOODEEG_Images\0567.jpg	YN	Left	Yes	0.847102700034156	0	319125	253
624.12890625	0	health	response	1	6	6	foodImage.55	FOODEEG_Images\0567.jpg	YN	Left	Yes	0.847102700034156	0	319555	234
625.171875	1	decision	trialStart	1	7	7	foodImage.37	FOODEEG_Images\0359.jpg	YN	Right	No	0.787503100000322	0	320089	251
626.21484375	2	decision	foodImageDisplay	1	7	7	foodImage.37	FOODEEG_Images\0359.jpg	YN	Right	No	0.787503100000322	0	320623	252
628.27734375	0.787503100000322	decision	choicePhaseStart	1	7	7	foodImage.37	FOODEEG_Images\0359.jpg	YN	Right	No	0.787503100000322	0	321679	253
629.0546875	0	decision	response	1	7	7	foodImage.37	FOODEEG_Images\0359.jpg	YN	Right	No	0.787503100000322	0	322077	235
630.09765625	1	taste	trialStart	1	8	8	foodImage.84	FOODEEG_Images\0830.jpg	YN	Left	Yes	0.918973400024697	0	322611	251
631.15234375	2	taste	foodImageDisplay	1	8	8	foodImage.84	FOODEEG_Images\0830.jpg	YN	Left	Yes	0.918973400024697	0	323151	252
633.216796875	0.918973400024697	taste	choicePhaseStart	1	8	8	foodImage.84	FOODEEG_Images\0830.jpg	YN	Left	Yes	0.918973400024697	0	324208	253
634.126953125	0	taste	response	1	8	8	foodImage.84	FOODEEG_Images\0830.jpg	YN	Left	Yes	0.918973400024697	0	324674	234
635.169921875	1	health	trialStart	1	9	9	foodImage.43	FOODEEG_Images\0445.jpg	NY	Right	Yes	0.767122199991718	0	325208	251
636.2265625	2	health	foodImageDisplay	1	9	9	foodImage.43	FOODEEG_Images\0445.jpg	NY	Right	Yes	0.767122199991718	0	325749	252
638.2890625	0.767122199991718	health	choicePhaseStart	1	9	9	foodImage.43	FOODEEG_Images\0445.jpg	NY	Right	Yes	0.767122199991718	0	326805	253
639.048828125	0	health	response	1	9	9	foodImage.43	FOODEEG_Images\0445.jpg	NY	Right	Yes	0.767122199991718	0	327194	235
640.091796875	1	taste	trialStart	1	10	10	foodImage.107	FOODEEG_Images\0915.jpg	YN	Left	Yes	2.06951220007613	0	327728	251
641.1328125	2	taste	foodImageDisplay	1	10	10	foodImage.107	FOODEEG_Images\0915.jpg	YN	Left	Yes	2.06951220007613	0	328261	252
643.1953125	2.06951220007613	taste	choicePhaseStart	1	10	10	foodImage.107	FOODEEG_Images\0915.jpg	YN	Left	Yes	2.06951220007613	0	329317	253
645.255859375	0	taste	response	1	10	10	foodImage.107	FOODEEG_Images\0915.jpg	YN	Left	Yes	2.06951220007613	0	330372	234
646.298828125	1	decision	trialStart	1	11	11	foodImage.38	FOODEEG_Images\0365.jpg	YN	Left	Yes	0.868766899919137	0	330906	251
647.337890625	2	decision	foodImageDisplay	1	11	11	foodImage.38	FOODEEG_Images\0365.jpg	YN	Left	Yes	0.868766899919137	0	331438	252
649.40234375	0.868766899919137	decision	choicePhaseStart	1	11	11	foodImage.38	FOODEEG_Images\0365.jpg	YN	Left	Yes	0.868766899919137	0	332495	253
650.263671875	0	decision	response	1	11	11	foodImage.38	FOODEEG_Images\0365.jpg	YN	Left	Yes	0.868766899919137	0	332936	234
651.3046875	1	health	trialStart	1	12	12	foodImage.91	FOODEEG_Images\0896.jpg	YN	Left	Yes	0.848365399986506	0	333469	251
652.361328125	2	health	foodImageDisplay	1	12	12	foodImage.91	FOODEEG_Images\0896.jpg	YN	Left	Yes	0.848365399986506	0	334010	252
654.423828125	0.848365399986506	health	choicePhaseStart	1	12	12	foodImage.91	FOODEEG_Images\0896.jpg	YN	Left	Yes	0.848365399986506	0	335066	253
655.26171875	0	health	response	1	12	12	foodImage.91	FOODEEG_Images\0896.jpg	YN	Left	Yes	0.848365399986506	0	335495	234
656.306640625	1	health	trialStart	1	13	13	foodImage.45	FOODEEG_Images\0478.jpg	YN	Left	Yes	1.13728010002524	0	336030	251
657.3515625	2	health	foodImageDisplay	1	13	13	foodImage.45	FOODEEG_Images\0478.jpg	YN	Left	Yes	1.13728010002524	0	336565	252
659.4140625	1.13728010002524	health	choicePhaseStart	1	13	13	foodImage.45	FOODEEG_Images\0478.jpg	YN	Left	Yes	1.13728010002524	0	337621	253
660.54296875	0	health	response	1	13	13	foodImage.45	FOODEEG_Images\0478.jpg	YN	Left	Yes	1.13728010002524	0	338199	234
661.5859375	1	decision	trialStart	1	14	14	foodImage.12	FOODEEG_Images\0181.jpg	NY	Left	No	1.1410709999036	0	338733	251
662.625	2	decision	foodImageDisplay	1	14	14	foodImage.12	FOODEEG_Images\0181.jpg	NY	Left	No	1.1410709999036	0	339265	252
664.6875	1.1410709999036	decision	choicePhaseStart	1	14	14	foodImage.12	FOODEEG_Images\0181.jpg	NY	Left	No	1.1410709999036	0	340321	253
665.822265625	0	decision	response	1	14	14	foodImage.12	FOODEEG_Images\0181.jpg	NY	Left	No	1.1410709999036	0	340902	234
666.8671875	1	taste	trialStart	1	15	15	foodImage.72	FOODEEG_Images\0714.jpg	NY	Left	No	1.19455819996074	0	341437	251
667.908203125	2	taste	foodImageDisplay	1	15	15	foodImage.72	FOODEEG_Images\0714.jpg	NY	Left	No	1.19455819996074	0	341970	252
669.970703125	1.19455819996074	taste	choicePhaseStart	1	15	15	foodImage.72	FOODEEG_Images\0714.jpg	NY	Left	No	1.19455819996074	0	343026	253
671.158203125	0	taste	response	1	15	15	foodImage.72	FOODEEG_Images\0714.jpg	NY	Left	No	1.19455819996074	0	343634	234
672.201171875	1	taste	trialStart	1	16	16	foodImage.63	FOODEEG_Images\0645.jpg	NY	Right	Yes	0.613440900109708	0	344168	251
673.2421875	2	taste	foodImageDisplay	1	16	16	foodImage.63	FOODEEG_Images\0645.jpg	NY	Right	Yes	0.613440900109708	0	344701	252
675.3046875	0.613440900109708	taste	choicePhaseStart	1	16	16	foodImage.63	FOODEEG_Images\0645.jpg	NY	Right	Yes	0.613440900109708	0	345757	253
675.91015625	0	taste	response	1	16	16	foodImage.63	FOODEEG_Images\0645.jpg	NY	Right	Yes	0.613440900109708	0	346067	235
676.951171875	1	health	trialStart	1	17	17	foodImage.37	FOODEEG_Images\0359.jpg	YN	Left	Yes	0.576302400091663	0	346600	251
677.9921875	2	health	foodImageDisplay	1	17	17	foodImage.37	FOODEEG_Images\0359.jpg	YN	Left	Yes	0.576302400091663	0	347133	252
680.0546875	0.576302400091663	health	choicePhaseStart	1	17	17	foodImage.37	FOODEEG_Images\0359.jpg	YN	Left	Yes	0.576302400091663	0	348189	253
680.62109375	0	health	response	1	17	17	foodImage.37	FOODEEG_Images\0359.jpg	YN	Left	Yes	0.576302400091663	0	348479	234
681.6640625	1	taste	trialStart	1	18	18	foodImage.99	FOODEEG_Images\0907.jpg	YN	Right	No	0.852266500005499	0	349013	251
682.701171875	2	taste	foodImageDisplay	1	18	18	foodImage.99	FOODEEG_Images\0907.jpg	YN	Right	No	0.852266500005499	0	349544	252
684.76171875	0.852266500005499	taste	choicePhaseStart	1	18	18	foodImage.99	FOODEEG_Images\0907.jpg	YN	Right	No	0.852266500005499	0	350599	253
685.60546875	0	taste	response	1	18	18	foodImage.99	FOODEEG_Images\0907.jpg	YN	Right	No	0.852266500005499	0	351031	235
686.6484375	1	decision	trialStart	1	19	19	foodImage.14	FOODEEG_Images\0188.jpg	NY	Right	Yes	0.710376899922267	0	351565	251
687.705078125	2	decision	foodImageDisplay	1	19	19	foodImage.14	FOODEEG_Images\0188.jpg	NY	Right	Yes	0.710376899922267	0	352106	252
689.767578125	0.710376899922267	decision	choicePhaseStart	1	19	19	foodImage.14	FOODEEG_Images\0188.jpg	NY	Right	Yes	0.710376899922267	0	353162	253
690.46875	0	decision	response	1	19	19	foodImage.14	FOODEEG_Images\0188.jpg	NY	Right	Yes	0.710376899922267	0	353521	235
691.51171875	1	health	trialStart	1	20	20	foodImage.21	FOODEEG_Images\0234.jpg	YN	Left	Yes	0.661368999863043	0	354055	251
692.568359375	2	health	foodImageDisplay	1	20	20	foodImage.21	FOODEEG_Images\0234.jpg	YN	Left	Yes	0.661368999863043	0	354596	252
694.630859375	0.661368999863043	health	choicePhaseStart	1	20	20	foodImage.21	FOODEEG_Images\0234.jpg	YN	Left	Yes	0.661368999863043	0	355652	253
695.28515625	0	health	response	1	20	20	foodImage.21	FOODEEG_Images\0234.jpg	YN	Left	Yes	0.661368999863043	0	355987	234
696.33203125	1	health	trialStart	1	21	21	foodImage.40	FOODEEG_Images\0373.jpg	YN	Right	No	0.843829599907622	0	356523	251
697.37109375	2	health	foodImageDisplay	1	21	21	foodImage.40	FOODEEG_Images\0373.jpg	YN	Right	No	0.843829599907622	0	357055	252
699.43359375	0.843829599907622	health	choicePhaseStart	1	21	21	foodImage.40	FOODEEG_Images\0373.jpg	YN	Right	No	0.843829599907622	0	358111	253
700.26953125	0	health	response	1	21	21	foodImage.40	FOODEEG_Images\0373.jpg	YN	Right	No	0.843829599907622	0	358539	235
701.3125	1	health	trialStart	1	22	22	foodImage.82	FOODEEG_Images\0805.jpg	NY	Right	Yes	1.02887499984354	0	359073	251
702.37109375	2	health	foodImageDisplay	1	22	22	foodImage.82	FOODEEG_Images\0805.jpg	NY	Right	Yes	1.02887499984354	0	359615	252
704.43359375	1.02887499984354	health	choicePhaseStart	1	22	22	foodImage.82	FOODEEG_Images\0805.jpg	NY	Right	Yes	1.02887499984354	0	360671	253
705.453125	0	health	response	1	22	22	foodImage.82	FOODEEG_Images\0805.jpg	NY	Right	Yes	1.02887499984354	0	361193	235
706.494140625	1	taste	trialStart	1	23	23	foodImage.19	FOODEEG_Images\0225.jpg	NY	Left	No	0.799057600088418	0	361726	251
707.53515625	2	taste	foodImageDisplay	1	23	23	foodImage.19	FOODEEG_Images\0225.jpg	NY	Left	No	0.799057600088418	0	362259	252
709.59765625	0.799057600088418	taste	choicePhaseStart	1	23	23	foodImage.19	FOODEEG_Images\0225.jpg	NY	Left	No	0.799057600088418	0	363315	253
710.388671875	0	taste	response	1	23	23	foodImage.19	FOODEEG_Images\0225.jpg	NY	Left	No	0.799057600088418	0	363720	234
711.431640625	1	taste	trialStart	1	24	24	foodImage.3	FOODEEG_Images\0046.jpg	NY	Right	Yes	1.08504499983974	0	364254	251
712.474609375	2	taste	foodImageDisplay	1	24	24	foodImage.3	FOODEEG_Images\0046.jpg	NY	Right	Yes	1.08504499983974	0	364788	252
714.537109375	1.08504499983974	taste	choicePhaseStart	1	24	24	foodImage.3	FOODEEG_Images\0046.jpg	NY	Right	Yes	1.08504499983974	0	365844	253
715.61328125	0	taste	response	1	24	24	foodImage.3	FOODEEG_Images\0046.jpg	NY	Right	Yes	1.08504499983974	0	366395	235
716.65625	1	taste	trialStart	1	25	25	foodImage.4	FOODEEG_Images\0065.jpg	NY	Right	Yes	0.942127699963748	0	366929	251
717.712890625	2	taste	foodImageDisplay	1	25	25	foodImage.4	FOODEEG_Images\0065.jpg	NY	Right	Yes	0.942127699963748	0	367470	252
719.7734375	0.942127699963748	taste	choicePhaseStart	1	25	25	foodImage.4	FOODEEG_Images\0065.jpg	NY	Right	Yes	0.942127699963748	0	368525	253
720.70703125	0	taste	response	1	25	25	foodImage.4	FOODEEG_Images\0065.jpg	NY	Right	Yes	0.942127699963748	0	369003	235
721.751953125	1	taste	trialStart	1	26	26	foodImage.120	FOODEEG_Images\0928.jpg	NY	Left	No	1.00053209997714	0	369538	251
722.7890625	2	taste	foodImageDisplay	1	26	26	foodImage.120	FOODEEG_Images\0928.jpg	NY	Left	No	1.00053209997714	0	370069	252
724.8515625	1.00053209997714	taste	choicePhaseStart	1	26	26	foodImage.120	FOODEEG_Images\0928.jpg	NY	Left	No	1.00053209997714	0	371125	253
725.84375	0	taste	response	1	26	26	foodImage.120	FOODEEG_Images\0928.jpg	NY	Left	No	1.00053209997714	0	371633	234
726.892578125	1	taste	trialStart	1	27	27	foodImage.93	FOODEEG_Images\0901.jpg	YN	Right	No	0.74612949998118	0	372170	251
727.931640625	2	taste	foodImageDisplay	1	27	27	foodImage.93	FOODEEG_Images\0901.jpg	YN	Right	No	0.74612949998118	0	372702	252
729.994140625	0.74612949998118	taste	choicePhaseStart	1	27	27	foodImage.93	FOODEEG_Images\0901.jpg	YN	Right	No	0.74612949998118	0	373758	253
730.732421875	0	taste	response	1	27	27	foodImage.93	FOODEEG_Images\0901.jpg	YN	Right	No	0.74612949998118	0	374136	235
731.7734375	1	health	trialStart	1	28	28	foodImage.2	FOODEEG_Images\0028.jpg	NY	Left	No	0.981477899942547	0	374669	251
732.81640625	2	health	foodImageDisplay	1	28	28	foodImage.2	FOODEEG_Images\0028.jpg	NY	Left	No	0.981477899942547	0	375203	252
734.87890625	0.981477899942547	health	choicePhaseStart	1	28	28	foodImage.2	FOODEEG_Images\0028.jpg	NY	Left	No	0.981477899942547	0	376259	253
735.8515625	0	health	response	1	28	28	foodImage.2	FOODEEG_Images\0028.jpg	NY	Left	No	0.981477899942547	0	376757	234
736.89453125	1	decision	trialStart	1	29	29	foodImage.96	FOODEEG_Images\0904.jpg	NY	Left	No	2.07229640008882	0	377291	251
737.93359375	2	decision	foodImageDisplay	1	29	29	foodImage.96	FOODEEG_Images\0904.jpg	NY	Left	No	2.07229640008882	0	377823	252
739.99609375	2.07229640008882	decision	choicePhaseStart	1	29	29	foodImage.96	FOODEEG_Images\0904.jpg	NY	Left	No	2.07229640008882	0	378879	253
742.05859375	0	decision	response	1	29	29	foodImage.96	FOODEEG_Images\0904.jpg	NY	Left	No	2.07229640008882	0	379935	234
743.1015625	1	taste	trialStart	1	30	30	foodImage.83	FOODEEG_Images\0827.jpg	YN	Left	Yes	1.12873750017025	0	380469	251
744.15625	2	taste	foodImageDisplay	1	30	30	foodImage.83	FOODEEG_Images\0827.jpg	YN	Left	Yes	1.12873750017025	0	381009	252
746.21875	1.12873750017025	taste	choicePhaseStart	1	30	30	foodImage.83	FOODEEG_Images\0827.jpg	YN	Left	Yes	1.12873750017025	0	382065	253
747.33984375	0	taste	response	1	30	30	foodImage.83	FOODEEG_Images\0827.jpg	YN	Left	Yes	1.12873750017025	0	382639	234
748.3828125	1	health	trialStart	1	31	31	foodImage.98	FOODEEG_Images\0906.jpg	YN	Left	Yes	3.63329759985209	0	383173	251
749.419921875	2	health	foodImageDisplay	1	31	31	foodImage.98	FOODEEG_Images\0906.jpg	YN	Left	Yes	3.63329759985209	0	383704	252
751.482421875	3.63329759985209	health	choicePhaseStart	1	31	31	foodImage.98	FOODEEG_Images\0906.jpg	YN	Left	Yes	3.63329759985209	0	384760	253
755.107421875	0	health	response	1	31	31	foodImage.98	FOODEEG_Images\0906.jpg	YN	Left	Yes	3.63329759985209	0	386616	234
756.1484375	1	decision	trialStart	1	32	32	foodImage.3	FOODEEG_Images\0046.jpg	NY	Right	Yes	0.69762140000239	0	387149	251
757.1875	2	decision	foodImageDisplay	1	32	32	foodImage.3	FOODEEG_Images\0046.jpg	NY	Right	Yes	0.69762140000239	0	387681	252
759.25	0.69762140000239	decision	choicePhaseStart	1	32	32	foodImage.3	FOODEEG_Images\0046.jpg	NY	Right	Yes	0.69762140000239	0	388737	253
759.939453125	0	decision	response	1	32	32	foodImage.3	FOODEEG_Images\0046.jpg	NY	Right	Yes	0.69762140000239	0	389090	235
760.986328125	1	decision	trialStart	1	33	33	foodImage.30	FOODEEG_Images\0282.jpg	YN	Left	Yes	0.95769269997254	0	389626	251
762.03125	2	decision	foodImageDisplay	1	33	33	foodImage.30	FOODEEG_Images\0282.jpg	YN	Left	Yes	0.95769269997254	0	390161	252
764.09375	0.95769269997254	decision	choicePhaseStart	1	33	33	foodImage.30	FOODEEG_Images\0282.jpg	YN	Left	Yes	0.95769269997254	0	391217	253
765.04296875	0	decision	response	1	33	33	foodImage.30	FOODEEG_Images\0282.jpg	YN	Left	Yes	0.95769269997254	0	391703	234
766.08984375	1	decision	trialStart	1	34	34	foodImage.98	FOODEEG_Images\0906.jpg	YN	Right	No	0.795194000005722	0	392239	251
767.130859375	2	decision	foodImageDisplay	1	34	34	foodImage.98	FOODEEG_Images\0906.jpg	YN	Right	No	0.795194000005722	0	392772	252
769.19140625	0.795194000005722	decision	choicePhaseStart	1	34	34	foodImage.98	FOODEEG_Images\0906.jpg	YN	Right	No	0.795194000005722	0	393827	253
769.978515625	0	decision	response	1	34	34	foodImage.98	FOODEEG_Images\0906.jpg	YN	Right	No	0.795194000005722	0	394230	235
771.021484375	1	taste	trialStart	1	35	35	foodImage.22	FOODEEG_Images\0236.jpg	NY	Right	Yes	1.57422519987449	0	394764	251
772.060546875	2	taste	foodImageDisplay	1	35	35	foodImage.22	FOODEEG_Images\0236.jpg	NY	Right	Yes	1.57422519987449	0	395296	252
774.125	1.57422519987449	taste	choicePhaseStart	1	35	35	foodImage.22	FOODEEG_Images\0236.jpg	NY	Right	Yes	1.57422519987449	0	396353	253
775.689453125	0	taste	response	1	35	35	foodImage.22	FOODEEG_Images\0236.jpg	NY	Right	Yes	1.57422519987449	0	397154	235
776.732421875	1	decision	trialStart	1	36	36	foodImage.32	FOODEEG_Images\0319.jpg	NY	Right	Yes	1.47496670018882	0	397688	251
777.77734375	2	decision	foodImageDisplay	1	36	36	foodImage.32	FOODEEG_Images\0319.jpg	NY	Right	Yes	1.47496670018882	0	398223	252
779.83984375	1.47496670018882	decision	choicePhaseStart	1	36	36	foodImage.32	FOODEEG_Images\0319.jpg	NY	Right	Yes	1.47496670018882	0	399279	253
781.3046875	0	decision	response	1	36	36	foodImage.32	FOODEEG_Images\0319.jpg	NY	Right	Yes	1.47496670018882	0	400029	235
782.345703125	1	health	trialStart	1	37	37	foodImage.61	FOODEEG_Images\0640.jpg	YN	Left	Yes	0.90627000015229	0	400562	251
783.38671875	2	health	foodImageDisplay	1	37	37	foodImage.61	FOODEEG_Images\0640.jpg	YN	Left	Yes	0.90627000015229	0	401095	252
785.44921875	0.90627000015229	health	choicePhaseStart	1	37	37	foodImage.61	FOODEEG_Images\0640.jpg	YN	Left	Yes	0.90627000015229	0	402151	253
786.345703125	0	health	response	1	37	37	foodImage.61	FOODEEG_Images\0640.jpg	YN	Left	Yes	0.90627000015229	0	402610	234
787.384765625	1	decision	trialStart	1	38	38	foodImage.13	FOODEEG_Images\0183.jpg	YN	Left	Yes	1.21791160013527	0	403142	251
788.42578125	2	decision	foodImageDisplay	1	38	38	foodImage.13	FOODEEG_Images\0183.jpg	YN	Left	Yes	1.21791160013527	0	403675	252
790.48828125	1.21791160013527	decision	choicePhaseStart	1	38	38	foodImage.13	FOODEEG_Images\0183.jpg	YN	Left	Yes	1.21791160013527	0	404731	253
791.697265625	0	decision	response	1	38	38	foodImage.13	FOODEEG_Images\0183.jpg	YN	Left	Yes	1.21791160013527	0	405350	234
792.740234375	1	taste	trialStart	1	39	39	foodImage.61	FOODEEG_Images\0640.jpg	YN	Left	Yes	1.04561959998682	0	405884	251
793.78125	2	taste	foodImageDisplay	1	39	39	foodImage.61	FOODEEG_Images\0640.jpg	YN	Left	Yes	1.04561959998682	0	406417	252
795.84375	1.04561959998682	taste	choicePhaseStart	1	39	39	foodImage.61	FOODEEG_Images\0640.jpg	YN	Left	Yes	1.04561959998682	0	407473	253
796.880859375	0	taste	response	1	39	39	foodImage.61	FOODEEG_Images\0640.jpg	YN	Left	Yes	1.04561959998682	0	408004	234
797.923828125	1	taste	trialStart	1	40	40	foodImage.58	FOODEEG_Images\0605.jpg	YN	Left	Yes	0.565216799965128	0	408538	251
798.982421875	2	taste	foodImageDisplay	1	40	40	foodImage.58	FOODEEG_Images\0605.jpg	YN	Left	Yes	0.565216799965128	0	409080	252
801.044921875	0.565216799965128	taste	choicePhaseStart	1	40	40	foodImage.58	FOODEEG_Images\0605.jpg	YN	Left	Yes	0.565216799965128	0	410136	253
801.6015625	0	taste	response	1	40	40	foodImage.58	FOODEEG_Images\0605.jpg	YN	Left	Yes	0.565216799965128	0	410421	234
802.642578125	1	health	trialStart	1	41	41	foodImage.52	FOODEEG_Images\0539.jpg	NY	Right	Yes	0.883803799981251	0	410954	251
803.728515625	2	health	foodImageDisplay	1	41	41	foodImage.52	FOODEEG_Images\0539.jpg	NY	Right	Yes	0.883803799981251	0	411510	252
805.791015625	0.883803799981251	health	choicePhaseStart	1	41	41	foodImage.52	FOODEEG_Images\0539.jpg	NY	Right	Yes	0.883803799981251	0	412566	253
806.6640625	0	health	response	1	41	41	foodImage.52	FOODEEG_Images\0539.jpg	NY	Right	Yes	0.883803799981251	0	413013	235
807.70703125	1	decision	trialStart	1	42	42	foodImage.63	FOODEEG_Images\0645.jpg	NY	Right	Yes	1.14029950019903	0	413547	251
808.75	2	decision	foodImageDisplay	1	42	42	foodImage.63	FOODEEG_Images\0645.jpg	NY	Right	Yes	1.14029950019903	0	414081	252
810.8125	1.14029950019903	decision	choicePhaseStart	1	42	42	foodImage.63	FOODEEG_Images\0645.jpg	NY	Right	Yes	1.14029950019903	0	415137	253
811.943359375	0	decision	response	1	42	42	foodImage.63	FOODEEG_Images\0645.jpg	NY	Right	Yes	1.14029950019903	0	415716	235
812.98828125	1	decision	trialStart	1	43	43	foodImage.89	FOODEEG_Images\0881.jpg	YN	Left	Yes	1.32593930000439	0	416251	251
814.044921875	2	decision	foodImageDisplay	1	43	43	foodImage.89	FOODEEG_Images\0881.jpg	YN	Left	Yes	1.32593930000439	0	416792	252
816.107421875	1.32593930000439	decision	choicePhaseStart	1	43	43	foodImage.89	FOODEEG_Images\0881.jpg	YN	Left	Yes	1.32593930000439	0	417848	253
817.423828125	0	decision	response	1	43	43	foodImage.89	FOODEEG_Images\0881.jpg	YN	Left	Yes	1.32593930000439	0	418522	234
818.462890625	1	health	trialStart	1	44	44	foodImage.41	FOODEEG_Images\0409.jpg	YN	Left	Yes	0.925760000012815	0	419054	251
819.5078125	2	health	foodImageDisplay	1	44	44	foodImage.41	FOODEEG_Images\0409.jpg	YN	Left	Yes	0.925760000012815	0	419589	252
821.5703125	0.925760000012815	health	choicePhaseStart	1	44	44	foodImage.41	FOODEEG_Images\0409.jpg	YN	Left	Yes	0.925760000012815	0	420645	253
822.48828125	0	health	response	1	44	44	foodImage.41	FOODEEG_Images\0409.jpg	YN	Left	Yes	0.925760000012815	0	421115	234
823.52734375	1	health	trialStart	1	45	45	foodImage.66	FOODEEG_Images\0676.jpg	NY	Left	No	0.920884900027886	0	421647	251
824.568359375	2	health	foodImageDisplay	1	45	45	foodImage.66	FOODEEG_Images\0676.jpg	NY	Left	No	0.920884900027886	0	422180	252
826.6328125	0.920884900027886	health	choicePhaseStart	1	45	45	foodImage.66	FOODEEG_Images\0676.jpg	NY	Left	No	0.920884900027886	0	423237	253
827.54296875	0	health	response	1	45	45	foodImage.66	FOODEEG_Images\0676.jpg	NY	Left	No	0.920884900027886	0	423703	234
828.583984375	1	health	trialStart	1	46	46	foodImage.120	FOODEEG_Images\0928.jpg	NY	Left	No	1.59049859992228	0	424236	251
829.623046875	2	health	foodImageDisplay	1	46	46	foodImage.120	FOODEEG_Images\0928.jpg	NY	Left	No	1.59049859992228	0	424768	252
831.689453125	1.59049859992228	health	choicePhaseStart	1	46	46	foodImage.120	FOODEEG_Images\0928.jpg	NY	Left	No	1.59049859992228	0	425826	253
833.271484375	0	health	response	1	46	46	foodImage.120	FOODEEG_Images\0928.jpg	NY	Left	No	1.59049859992228	0	426636	234
834.314453125	1	health	trialStart	1	47	47	foodImage.25	FOODEEG_Images\0261.jpg	NY	Right	Yes	0.80615930003114	0	427170	251
835.35546875	2	health	foodImageDisplay	1	47	47	foodImage.25	FOODEEG_Images\0261.jpg	NY	Right	Yes	0.80615930003114	0	427703	252
837.41796875	0.80615930003114	health	choicePhaseStart	1	47	47	foodImage.25	FOODEEG_Images\0261.jpg	NY	Right	Yes	0.80615930003114	0	428759	253
838.21484375	0	health	response	1	47	47	foodImage.25	FOODEEG_Images\0261.jpg	NY	Right	Yes	0.80615930003114	0	429167	235
839.2578125	1	taste	trialStart	1	48	48	foodImage.54	FOODEEG_Images\0560.jpg	NY	Right	Yes	0.996820600004867	0	429701	251
840.31640625	2	taste	foodImageDisplay	1	48	48	foodImage.54	FOODEEG_Images\0560.jpg	NY	Right	Yes	0.996820600004867	0	430243	252
842.37890625	0.996820600004867	taste	choicePhaseStart	1	48	48	foodImage.54	FOODEEG_Images\0560.jpg	NY	Right	Yes	0.996820600004867	0	431299	253
843.3671875	0	taste	response	1	48	48	foodImage.54	FOODEEG_Images\0560.jpg	NY	Right	Yes	0.996820600004867	0	431805	235
844.41015625	1	decision	trialStart	1	49	49	foodImage.5	FOODEEG_Images\0107.jpg	NY	Right	Yes	2.1417008000426	0	432339	251
845.46875	2	decision	foodImageDisplay	1	49	49	foodImage.5	FOODEEG_Images\0107.jpg	NY	Right	Yes	2.1417008000426	0	432881	252
847.53125	2.1417008000426	decision	choicePhaseStart	1	49	49	foodImage.5	FOODEEG_Images\0107.jpg	NY	Right	Yes	2.1417008000426	0	433937	253
849.662109375	0	decision	response	1	49	49	foodImage.5	FOODEEG_Images\0107.jpg	NY	Right	Yes	2.1417008000426	0	435028	235
850.703125	1	health	trialStart	1	50	50	foodImage.77	FOODEEG_Images\0771.jpg	NY	Right	Yes	0.912139399908483	0	435561	251
851.74609375	2	health	foodImageDisplay	1	50	50	foodImage.77	FOODEEG_Images\0771.jpg	NY	Right	Yes	0.912139399908483	0	436095	252
853.80859375	0.912139399908483	health	choicePhaseStart	1	50	50	foodImage.77	FOODEEG_Images\0771.jpg	NY	Right	Yes	0.912139399908483	0	437151	253
854.7109375	0	health	response	1	50	50	foodImage.77	FOODEEG_Images\0771.jpg	NY	Right	Yes	0.912139399908483	0	437613	235
855.75	1	decision	trialStart	1	51	51	foodImage.29	FOODEEG_Images\0278.jpg	YN	Right	No	2.00868449988775	0	438145	251
856.791015625	2	decision	foodImageDisplay	1	51	51	foodImage.29	FOODEEG_Images\0278.jpg	YN	Right	No	2.00868449988775	0	438678	252
858.853515625	2.00868449988775	decision	choicePhaseStart	1	51	51	foodImage.29	FOODEEG_Images\0278.jpg	YN	Right	No	2.00868449988775	0	439734	253
860.853515625	0	decision	response	1	51	51	foodImage.29	FOODEEG_Images\0278.jpg	YN	Right	No	2.00868449988775	0	440758	235
861.90234375	1	taste	trialStart	1	52	52	foodImage.86	FOODEEG_Images\0844.jpg	YN	Left	Yes	0.818398199975491	0	441295	251
862.958984375	2	taste	foodImageDisplay	1	52	52	foodImage.86	FOODEEG_Images\0844.jpg	YN	Left	Yes	0.818398199975491	0	441836	252
865.01953125	0.818398199975491	taste	choicePhaseStart	1	52	52	foodImage.86	FOODEEG_Images\0844.jpg	YN	Left	Yes	0.818398199975491	0	442891	253
865.830078125	0	taste	response	1	52	52	foodImage.86	FOODEEG_Images\0844.jpg	YN	Left	Yes	0.818398199975491	0	443306	234
866.890625	1	taste	trialStart	1	53	53	foodImage.62	FOODEEG_Images\0644.jpg	NY	Right	Yes	0.757653699954972	0	443849	251
867.947265625	2	taste	foodImageDisplay	1	53	53	foodImage.62	FOODEEG_Images\0644.jpg	NY	Right	Yes	0.757653699954972	0	444390	252
870.009765625	0.757653699954972	taste	choicePhaseStart	1	53	53	foodImage.62	FOODEEG_Images\0644.jpg	NY	Right	Yes	0.757653699954972	0	445446	253
870.7578125	0	taste	response	1	53	53	foodImage.62	FOODEEG_Images\0644.jpg	NY	Right	Yes	0.757653699954972	0	445829	235
871.796875	1	decision	trialStart	1	54	54	foodImage.114	FOODEEG_Images\0922.jpg	NY	Left	No	0.957719899946824	0	446361	251
872.849609375	2	decision	foodImageDisplay	1	54	54	foodImage.114	FOODEEG_Images\0922.jpg	NY	Left	No	0.957719899946824	0	446900	252
874.912109375	0.957719899946824	decision	choicePhaseStart	1	54	54	foodImage.114	FOODEEG_Images\0922.jpg	NY	Left	No	0.957719899946824	0	447956	253
875.861328125	0	decision	response	1	54	54	foodImage.114	FOODEEG_Images\0922.jpg	NY	Left	No	0.957719899946824	0	448442	234
876.904296875	1	decision	trialStart	1	55	55	foodImage.62	FOODEEG_Images\0644.jpg	NY	Right	Yes	0.805510099977255	0	448976	251
877.962890625	2	decision	foodImageDisplay	1	55	55	foodImage.62	FOODEEG_Images\0644.jpg	NY	Right	Yes	0.805510099977255	0	449518	252
880.025390625	0.805510099977255	decision	choicePhaseStart	1	55	55	foodImage.62	FOODEEG_Images\0644.jpg	NY	Right	Yes	0.805510099977255	0	450574	253
880.822265625	0	decision	response	1	55	55	foodImage.62	FOODEEG_Images\0644.jpg	NY	Right	Yes	0.805510099977255	0	450982	235
881.86328125	1	taste	trialStart	1	56	56	foodImage.68	FOODEEG_Images\0685.jpg	NY	Right	Yes	1.05511999991722	0	451515	251
882.9375	2	taste	foodImageDisplay	1	56	56	foodImage.68	FOODEEG_Images\0685.jpg	NY	Right	Yes	1.05511999991722	0	452065	252
885	1.05511999991722	taste	choicePhaseStart	1	56	56	foodImage.68	FOODEEG_Images\0685.jpg	NY	Right	Yes	1.05511999991722	0	453121	253
886.044921875	0	taste	response	1	56	56	foodImage.68	FOODEEG_Images\0685.jpg	NY	Right	Yes	1.05511999991722	0	453656	235
887.087890625	1	decision	trialStart	1	57	57	foodImage.65	FOODEEG_Images\0658.jpg	NY	Left	No	0.661934599978849	0	454190	251
888.12890625	2	decision	foodImageDisplay	1	57	57	foodImage.65	FOODEEG_Images\0658.jpg	NY	Left	No	0.661934599978849	0	454723	252
890.19140625	0.661934599978849	decision	choicePhaseStart	1	57	57	foodImage.65	FOODEEG_Images\0658.jpg	NY	Left	No	0.661934599978849	0	455779	253
890.845703125	0	decision	response	1	57	57	foodImage.65	FOODEEG_Images\0658.jpg	NY	Left	No	0.661934599978849	0	456114	234
891.884765625	1	decision	trialStart	1	58	58	foodImage.4	FOODEEG_Images\0065.jpg	YN	Left	Yes	0.905939900083467	0	456646	251
892.966796875	2	decision	foodImageDisplay	1	58	58	foodImage.4	FOODEEG_Images\0065.jpg	YN	Left	Yes	0.905939900083467	0	457200	252
895.029296875	0.905939900083467	decision	choicePhaseStart	1	58	58	foodImage.4	FOODEEG_Images\0065.jpg	YN	Left	Yes	0.905939900083467	0	458256	253
895.92578125	0	decision	response	1	58	58	foodImage.4	FOODEEG_Images\0065.jpg	YN	Left	Yes	0.905939900083467	0	458715	234
896.96484375	1	health	trialStart	1	59	59	foodImage.36	FOODEEG_Images\0352.jpg	NY	Right	Yes	1.08387690014206	0	459247	251
898.01953125	2	health	foodImageDisplay	1	59	59	foodImage.36	FOODEEG_Images\0352.jpg	NY	Right	Yes	1.08387690014206	0	459787	252
900.08203125	1.08387690014206	health	choicePhaseStart	1	59	59	foodImage.36	FOODEEG_Images\0352.jpg	NY	Right	Yes	1.08387690014206	0	460843	253
901.15625	0	health	response	1	59	59	foodImage.36	FOODEEG_Images\0352.jpg	NY	Right	Yes	1.08387690014206	0	461393	235
902.19921875	1	taste	trialStart	1	60	60	foodImage.45	FOODEEG_Images\0478.jpg	YN	Left	Yes	1.0896091000177	0	461927	251
903.24609375	2	taste	foodImageDisplay	1	60	60	foodImage.45	FOODEEG_Images\0478.jpg	YN	Left	Yes	1.0896091000177	0	462463	252
905.306640625	1.0896091000177	taste	choicePhaseStart	1	60	60	foodImage.45	FOODEEG_Images\0478.jpg	YN	Left	Yes	1.0896091000177	0	463518	253
906.388671875	0	taste	response	1	60	60	foodImage.45	FOODEEG_Images\0478.jpg	YN	Left	Yes	1.0896091000177	0	464072	234
908.431640625	8.44921875	n/a	blockEnd	n/a	n/a	n/a	n/a	n/a	n/a	n/a	n/a	n/a	n/a	465118	254
916.880859375	2	n/a	blockStart	2	n/a	n/a	n/a	n/a	n/a	n/a	n/a	n/a	n/a	469444	250
918.912109375	1	taste	trialStart	2	61	1	foodImage.60	FOODEEG_Images\0614.jpg	NY	Right	Yes	0.897202200023457	0	470484	251
919.978515625	2	taste	foodImageDisplay	2	61	1	foodImage.60	FOODEEG_Images\0614.jpg	NY	Right	Yes	0.897202200023457	0	471030	252
922.04296875	0.897202200023457	taste	choicePhaseStart	2	61	1	foodImage.60	FOODEEG_Images\0614.jpg	NY	Right	Yes	0.897202200023457	0	472087	253
922.931640625	0	taste	response	2	61	1	foodImage.60	FOODEEG_Images\0614.jpg	NY	Right	Yes	0.897202200023457	0	472542	235
923.970703125	1	decision	trialStart	2	62	2	foodImage.118	FOODEEG_Images\0926.jpg	NY	Left	No	0.749448799993843	0	473074	251
925.0078125	2	decision	foodImageDisplay	2	62	2	foodImage.118	FOODEEG_Images\0926.jpg	NY	Left	No	0.749448799993843	0	473605	252
927.0703125	0.749448799993843	decision	choicePhaseStart	2	62	2	foodImage.118	FOODEEG_Images\0926.jpg	NY	Left	No	0.749448799993843	0	474661	253
927.8125	0	decision	response	2	62	2	foodImage.118	FOODEEG_Images\0926.jpg	NY	Left	No	0.749448799993843	0	475041	234
928.865234375	1	taste	trialStart	2	63	3	foodImage.31	FOODEEG_Images\0294.jpg	YN	Left	Yes	0.69333599996753	0	475580	251
929.904296875	2	taste	foodImageDisplay	2	63	3	foodImage.31	FOODEEG_Images\0294.jpg	YN	Left	Yes	0.69333599996753	0	476112	252
931.966796875	0.69333599996753	taste	choicePhaseStart	2	63	3	foodImage.31	FOODEEG_Images\0294.jpg	YN	Left	Yes	0.69333599996753	0	477168	253
932.65234375	0	taste	response	2	63	3	foodImage.31	FOODEEG_Images\0294.jpg	YN	Left	Yes	0.69333599996753	0	477519	234
933.693359375	1	taste	trialStart	2	64	4	foodImage.32	FOODEEG_Images\0319.jpg	YN	Left	Yes	0.533276000060141	0	478052	251
934.736328125	2	taste	foodImageDisplay	2	64	4	foodImage.32	FOODEEG_Images\0319.jpg	YN	Left	Yes	0.533276000060141	0	478586	252
936.798828125	0.533276000060141	taste	choicePhaseStart	2	64	4	foodImage.32	FOODEEG_Images\0319.jpg	YN	Left	Yes	0.533276000060141	0	479642	253
937.32421875	0	taste	response	2	64	4	foodImage.32	FOODEEG_Images\0319.jpg	YN	Left	Yes	0.533276000060141	0	479911	234
938.3671875	1	health	trialStart	2	65	5	foodImage.104	FOODEEG_Images\0912.jpg	NY	Left	No	1.17794640013017	0	480445	251
939.404296875	2	health	foodImageDisplay	2	65	5	foodImage.104	FOODEEG_Images\0912.jpg	NY	Left	No	1.17794640013017	0	480976	252
941.47265625	1.17794640013017	health	choicePhaseStart	2	65	5	foodImage.104	FOODEEG_Images\0912.jpg	NY	Left	No	1.17794640013017	0	482035	253
942.642578125	0	health	response	2	65	5	foodImage.104	FOODEEG_Images\0912.jpg	NY	Left	No	1.17794640013017	0	482634	234
943.685546875	1	health	trialStart	2	66	6	foodImage.70	FOODEEG_Images\0705.jpg	YN	Right	No	2.06024679983966	0	483168	251
944.744140625	2	health	foodImageDisplay	2	66	6	foodImage.70	FOODEEG_Images\0705.jpg	YN	Right	No	2.06024679983966	0	483710	252
946.806640625	2.06024679983966	health	choicePhaseStart	2	66	6	foodImage.70	FOODEEG_Images\0705.jpg	YN	Right	No	2.06024679983966	0	484766	253
948.859375	0	health	response	2	66	6	foodImage.70	FOODEEG_Images\0705.jpg	YN	Right	No	2.06024679983966	0	485817	235
949.900390625	1	taste	trialStart	2	67	7	foodImage.40	FOODEEG_Images\0373.jpg	NY	Right	Yes	0.809206299949437	0	486350	251
950.94140625	2	taste	foodImageDisplay	2	67	7	foodImage.40	FOODEEG_Images\0373.jpg	NY	Right	Yes	0.809206299949437	0	486883	252
953.001953125	0.809206299949437	taste	choicePhaseStart	2	67	7	foodImage.40	FOODEEG_Images\0373.jpg	NY	Right	Yes	0.809206299949437	0	487938	253
953.802734375	0	taste	response	2	67	7	foodImage.40	FOODEEG_Images\0373.jpg	NY	Right	Yes	0.809206299949437	0	488348	235
954.845703125	1	taste	trialStart	2	68	8	foodImage.77	FOODEEG_Images\0771.jpg	NY	Right	Yes	0.787270899862051	0	488882	251
955.890625	2	taste	foodImageDisplay	2	68	8	foodImage.77	FOODEEG_Images\0771.jpg	NY	Right	Yes	0.787270899862051	0	489417	252
957.953125	0.787270899862051	taste	choicePhaseStart	2	68	8	foodImage.77	FOODEEG_Images\0771.jpg	NY	Right	Yes	0.787270899862051	0	490473	253
958.73046875	0	taste	response	2	68	8	foodImage.77	FOODEEG_Images\0771.jpg	NY	Right	Yes	0.787270899862051	0	490871	235
959.7734375	1	health	trialStart	2	69	9	foodImage.115	FOODEEG_Images\0923.jpg	YN	Left	Yes	1.19974029995501	0	491405	251
960.8125	2	health	foodImageDisplay	2	69	9	foodImage.115	FOODEEG_Images\0923.jpg	YN	Left	Yes	1.19974029995501	0	491937	252
962.875	1.19974029995501	health	choicePhaseStart	2	69	9	foodImage.115	FOODEEG_Images\0923.jpg	YN	Left	Yes	1.19974029995501	0	492993	253
964.06640625	0	health	response	2	69	9	foodImage.115	FOODEEG_Images\0923.jpg	YN	Left	Yes	1.19974029995501	0	493603	234
965.107421875	1	health	trialStart	2	70	10	foodImage.15	FOODEEG_Images\0189.jpg	YN	Right	No	1.02441180008464	0	494136	251
966.166015625	2	health	foodImageDisplay	2	70	10	foodImage.15	FOODEEG_Images\0189.jpg	YN	Right	No	1.02441180008464	0	494678	252
968.228515625	1.02441180008464	health	choicePhaseStart	2	70	10	foodImage.15	FOODEEG_Images\0189.jpg	YN	Right	No	1.02441180008464	0	495734	253
969.2421875	0	health	response	2	70	10	foodImage.15	FOODEEG_Images\0189.jpg	YN	Right	No	1.02441180008464	0	496253	235
970.28125	1	health	trialStart	2	71	11	foodImage.5	FOODEEG_Images\0107.jpg	NY	Left	No	0.739831399871036	0	496785	251
971.337890625	2	health	foodImageDisplay	2	71	11	foodImage.5	FOODEEG_Images\0107.jpg	NY	Left	No	0.739831399871036	0	497326	252
973.400390625	0.739831399871036	health	choicePhaseStart	2	71	11	foodImage.5	FOODEEG_Images\0107.jpg	NY	Left	No	0.739831399871036	0	498382	253
974.130859375	0	health	response	2	71	11	foodImage.5	FOODEEG_Images\0107.jpg	NY	Left	No	0.739831399871036	0	498756	234
975.173828125	1	taste	trialStart	2	72	12	foodImage.41	FOODEEG_Images\0409.jpg	NY	Right	Yes	0.752205300144851	0	499290	251
976.220703125	2	taste	foodImageDisplay	2	72	12	foodImage.41	FOODEEG_Images\0409.jpg	NY	Right	Yes	0.752205300144851	0	499826	252
978.283203125	0.752205300144851	taste	choicePhaseStart	2	72	12	foodImage.41	FOODEEG_Images\0409.jpg	NY	Right	Yes	0.752205300144851	0	500882	253
979.025390625	0	taste	response	2	72	12	foodImage.41	FOODEEG_Images\0409.jpg	NY	Right	Yes	0.752205300144851	0	501262	235
980.068359375	1	taste	trialStart	2	73	13	foodImage.100	FOODEEG_Images\0908.jpg	YN	Left	Yes	1.02528789988719	0	501796	251
981.107421875	2	taste	foodImageDisplay	2	73	13	foodImage.100	FOODEEG_Images\0908.jpg	YN	Left	Yes	1.02528789988719	0	502328	252
983.169921875	1.02528789988719	taste	choicePhaseStart	2	73	13	foodImage.100	FOODEEG_Images\0908.jpg	YN	Left	Yes	1.02528789988719	0	503384	253
984.185546875	0	taste	response	2	73	13	foodImage.100	FOODEEG_Images\0908.jpg	YN	Left	Yes	1.02528789988719	0	503904	234
985.228515625	1	decision	trialStart	2	74	14	foodImage.106	FOODEEG_Images\0914.jpg	YN	Right	No	2.01000969996676	0	504438	251
986.265625	2	decision	foodImageDisplay	2	74	14	foodImage.106	FOODEEG_Images\0914.jpg	YN	Right	No	2.01000969996676	0	504969	252
988.328125	2.01000969996676	decision	choicePhaseStart	2	74	14	foodImage.106	FOODEEG_Images\0914.jpg	YN	Right	No	2.01000969996676	0	506025	253
990.330078125	0	decision	response	2	74	14	foodImage.106	FOODEEG_Images\0914.jpg	YN	Right	No	2.01000969996676	0	507050	235
991.369140625	1	health	trialStart	2	75	15	foodImage.44	FOODEEG_Images\0459.jpg	NY	Right	Yes	1.93711659987457	0	507582	251
992.412109375	2	health	foodImageDisplay	2	75	15	foodImage.44	FOODEEG_Images\0459.jpg	NY	Right	Yes	1.93711659987457	0	508116	252
994.48046875	1.93711659987457	health	choicePhaseStart	2	75	15	foodImage.44	FOODEEG_Images\0459.jpg	NY	Right	Yes	1.93711659987457	0	509175	253
996.408203125	0	health	response	2	75	15	foodImage.44	FOODEEG_Images\0459.jpg	NY	Right	Yes	1.93711659987457	0	510162	235
997.44921875	1	decision	trialStart	2	76	16	foodImage.92	FOODEEG_Images\0900.jpg	YN	Right	No	0.663133699912578	0	510695	251
998.486328125	2	decision	foodImageDisplay	2	76	16	foodImage.92	FOODEEG_Images\0900.jpg	YN	Right	No	0.663133699912578	0	511226	252
1000.546875	0.663133699912578	decision	choicePhaseStart	2	76	16	foodImage.92	FOODEEG_Images\0900.jpg	YN	Right	No	0.663133699912578	0	512281	253
1001.203125	0	decision	response	2	76	16	foodImage.92	FOODEEG_Images\0900.jpg	YN	Right	No	0.663133699912578	0	512617	235
1002.24609375	1	health	trialStart	2	77	17	foodImage.13	FOODEEG_Images\0183.jpg	NY	Right	Yes	0.787859900156036	0	513151	251
1003.287109375	2	health	foodImageDisplay	2	77	17	foodImage.13	FOODEEG_Images\0183.jpg	NY	Right	Yes	0.787859900156036	0	513684	252
1005.349609375	0.787859900156036	health	choicePhaseStart	2	77	17	foodImage.13	FOODEEG_Images\0183.jpg	NY	Right	Yes	0.787859900156036	0	514740	253
1006.12890625	0	health	response	2	77	17	foodImage.13	FOODEEG_Images\0183.jpg	NY	Right	Yes	0.787859900156036	0	515139	235
1007.171875	1	taste	trialStart	2	78	18	foodImage.65	FOODEEG_Images\0658.jpg	YN	Right	No	1.5901069000829	0	515673	251
1008.212890625	2	taste	foodImageDisplay	2	78	18	foodImage.65	FOODEEG_Images\0658.jpg	YN	Right	No	1.5901069000829	0	516206	252
1010.275390625	1.5901069000829	taste	choicePhaseStart	2	78	18	foodImage.65	FOODEEG_Images\0658.jpg	YN	Right	No	1.5901069000829	0	517262	253
1011.857421875	0	taste	response	2	78	18	foodImage.65	FOODEEG_Images\0658.jpg	YN	Right	No	1.5901069000829	0	518072	235
1012.900390625	1	decision	trialStart	2	79	19	foodImage.18	FOODEEG_Images\0202.jpg	NY	Right	Yes	0.758143199840561	0	518606	251
1013.95703125	2	decision	foodImageDisplay	2	79	19	foodImage.18	FOODEEG_Images\0202.jpg	NY	Right	Yes	0.758143199840561	0	519147	252
1016.01953125	0.758143199840561	decision	choicePhaseStart	2	79	19	foodImage.18	FOODEEG_Images\0202.jpg	NY	Right	Yes	0.758143199840561	0	520203	253
1016.767578125	0	decision	response	2	79	19	foodImage.18	FOODEEG_Images\0202.jpg	NY	Right	Yes	0.758143199840561	0	520586	235
1017.810546875	1	taste	trialStart	2	80	20	foodImage.48	FOODEEG_Images\0494.jpg	YN	Left	Yes	0.725433700019494	0	521120	251
1018.853515625	2	taste	foodImageDisplay	2	80	20	foodImage.48	FOODEEG_Images\0494.jpg	YN	Left	Yes	0.725433700019494	0	521654	252
1020.916015625	0.725433700019494	taste	choicePhaseStart	2	80	20	foodImage.48	FOODEEG_Images\0494.jpg	YN	Left	Yes	0.725433700019494	0	522710	253
1021.6328125	0	taste	response	2	80	20	foodImage.48	FOODEEG_Images\0494.jpg	YN	Left	Yes	0.725433700019494	0	523077	234
1022.6796875	1	decision	trialStart	2	81	21	foodImage.58	FOODEEG_Images\0605.jpg	NY	Right	Yes	0.827073199907318	0	523613	251
1023.736328125	2	decision	foodImageDisplay	2	81	21	foodImage.58	FOODEEG_Images\0605.jpg	NY	Right	Yes	0.827073199907318	0	524154	252
1025.798828125	0.827073199907318	decision	choicePhaseStart	2	81	21	foodImage.58	FOODEEG_Images\0605.jpg	NY	Right	Yes	0.827073199907318	0	525210	253
1026.6171875	0	decision	response	2	81	21	foodImage.58	FOODEEG_Images\0605.jpg	NY	Right	Yes	0.827073199907318	0	525629	235
1027.662109375	1	taste	trialStart	2	82	22	foodImage.66	FOODEEG_Images\0676.jpg	YN	Left	Yes	0.996315399883315	0	526164	251
1028.703125	2	taste	foodImageDisplay	2	82	22	foodImage.66	FOODEEG_Images\0676.jpg	YN	Left	Yes	0.996315399883315	0	526697	252
1030.765625	0.996315399883315	taste	choicePhaseStart	2	82	22	foodImage.66	FOODEEG_Images\0676.jpg	YN	Left	Yes	0.996315399883315	0	527753	253
1031.751953125	0	taste	response	2	82	22	foodImage.66	FOODEEG_Images\0676.jpg	YN	Left	Yes	0.996315399883315	0	528258	234
1032.794921875	1	taste	trialStart	2	83	23	foodImage.92	FOODEEG_Images\0900.jpg	NY	Right	Yes	2.98362329998054	0	528792	251
1033.833984375	2	taste	foodImageDisplay	2	83	23	foodImage.92	FOODEEG_Images\0900.jpg	NY	Right	Yes	2.98362329998054	0	529324	252
1035.896484375	2.98362329998054	taste	choicePhaseStart	2	83	23	foodImage.92	FOODEEG_Images\0900.jpg	NY	Right	Yes	2.98362329998054	0	530380	253
1038.87109375	0	taste	response	2	83	23	foodImage.92	FOODEEG_Images\0900.jpg	NY	Right	Yes	2.98362329998054	0	531903	235
1039.9140625	1	taste	trialStart	2	84	24	foodImage.55	FOODEEG_Images\0567.jpg	NY	Right	Yes	1.34826280013658	0	532437	251
1040.97265625	2	taste	foodImageDisplay	2	84	24	foodImage.55	FOODEEG_Images\0567.jpg	NY	Right	Yes	1.34826280013658	0	532979	252
1043.03515625	1.34826280013658	taste	choicePhaseStart	2	84	24	foodImage.55	FOODEEG_Images\0567.jpg	NY	Right	Yes	1.34826280013658	0	534035	253
1044.375	0	taste	response	2	84	24	foodImage.55	FOODEEG_Images\0567.jpg	NY	Right	Yes	1.34826280013658	0	534721	235
1045.41796875	1	health	trialStart	2	85	25	foodImage.78	FOODEEG_Images\0787.jpg	YN	Left	Yes	2.11669709999114	0	535255	251
1046.4609375	2	health	foodImageDisplay	2	85	25	foodImage.78	FOODEEG_Images\0787.jpg	YN	Left	Yes	2.11669709999114	0	535789	252
1048.5234375	2.11669709999114	health	choicePhaseStart	2	85	25	foodImage.78	FOODEEG_Images\0787.jpg	YN	Left	Yes	2.11669709999114	0	536845	253
1050.630859375	0	health	response	2	85	25	foodImage.78	FOODEEG_Images\0787.jpg	YN	Left	Yes	2.11669709999114	0	537924	234
1051.671875	1	taste	trialStart	2	86	26	foodImage.74	FOODEEG_Images\0752.jpg	NY	Right	Yes	0.813256999943405	0	538457	251
1052.71484375	2	taste	foodImageDisplay	2	86	26	foodImage.74	FOODEEG_Images\0752.jpg	NY	Right	Yes	0.813256999943405	0	538991	252
1054.77734375	0.813256999943405	taste	choicePhaseStart	2	86	26	foodImage.74	FOODEEG_Images\0752.jpg	NY	Right	Yes	0.813256999943405	0	540047	253
1055.58203125	0	taste	response	2	86	26	foodImage.74	FOODEEG_Images\0752.jpg	NY	Right	Yes	0.813256999943405	0	540459	235
1056.623046875	1	health	trialStart	2	87	27	foodImage.99	FOODEEG_Images\0907.jpg	YN	Right	No	0.907348000211641	0	540992	251
1057.662109375	2	health	foodImageDisplay	2	87	27	foodImage.99	FOODEEG_Images\0907.jpg	YN	Right	No	0.907348000211641	0	541524	252
1059.724609375	0.907348000211641	health	choicePhaseStart	2	87	27	foodImage.99	FOODEEG_Images\0907.jpg	YN	Right	No	0.907348000211641	0	542580	253
1060.623046875	0	health	response	2	87	27	foodImage.99	FOODEEG_Images\0907.jpg	YN	Right	No	0.907348000211641	0	543040	235
1061.666015625	1	health	trialStart	2	88	28	foodImage.29	FOODEEG_Images\0278.jpg	NY	Right	Yes	0.952339900191873	0	543574	251
1062.705078125	2	health	foodImageDisplay	2	88	28	foodImage.29	FOODEEG_Images\0278.jpg	NY	Right	Yes	0.952339900191873	0	544106	252
1064.767578125	0.952339900191873	health	choicePhaseStart	2	88	28	foodImage.29	FOODEEG_Images\0278.jpg	NY	Right	Yes	0.952339900191873	0	545162	253
1065.7109375	0	health	response	2	88	28	foodImage.29	FOODEEG_Images\0278.jpg	NY	Right	Yes	0.952339900191873	0	545645	235
1066.751953125	1	decision	trialStart	2	89	29	foodImage.113	FOODEEG_Images\0921.jpg	YN	Left	Yes	2.1948613000568	0	546178	251
1067.7890625	2	decision	foodImageDisplay	2	89	29	foodImage.113	FOODEEG_Images\0921.jpg	YN	Left	Yes	2.1948613000568	0	546709	252
1069.8515625	2.1948613000568	decision	choicePhaseStart	2	89	29	foodImage.113	FOODEEG_Images\0921.jpg	YN	Left	Yes	2.1948613000568	0	547765	253
1072.0390625	0	decision	response	2	89	29	foodImage.113	FOODEEG_Images\0921.jpg	YN	Left	Yes	2.1948613000568	0	548885	234
1073.08203125	1	taste	trialStart	2	90	30	foodImage.17	FOODEEG_Images\0199.jpg	YN	Left	Yes	0.931602400029078	0	549419	251
1074.125	2	taste	foodImageDisplay	2	90	30	foodImage.17	FOODEEG_Images\0199.jpg	YN	Left	Yes	0.931602400029078	0	549953	252
1076.1875	0.931602400029078	taste	choicePhaseStart	2	90	30	foodImage.17	FOODEEG_Images\0199.jpg	YN	Left	Yes	0.931602400029078	0	551009	253
1077.109375	0	taste	response	2	90	30	foodImage.17	FOODEEG_Images\0199.jpg	YN	Left	Yes	0.931602400029078	0	551481	234
1078.15234375	1	taste	trialStart	2	91	31	foodImage.15	FOODEEG_Images\0189.jpg	NY	Right	Yes	1.71778810000978	0	552015	251
1079.2109375	2	taste	foodImageDisplay	2	91	31	foodImage.15	FOODEEG_Images\0189.jpg	NY	Right	Yes	1.71778810000978	0	552557	252
1081.2734375	1.71778810000978	taste	choicePhaseStart	2	91	31	foodImage.15	FOODEEG_Images\0189.jpg	NY	Right	Yes	1.71778810000978	0	553613	253
1082.982421875	0	taste	response	2	91	31	foodImage.15	FOODEEG_Images\0189.jpg	NY	Right	Yes	1.71778810000978	0	554488	235
1084.025390625	1	taste	trialStart	2	92	32	foodImage.24	FOODEEG_Images\0250.jpg	YN	Left	Yes	1.38885629992001	0	555022	251
1085.06640625	2	taste	foodImageDisplay	2	92	32	foodImage.24	FOODEEG_Images\0250.jpg	YN	Left	Yes	1.38885629992001	0	555555	252
1087.12890625	1.38885629992001	taste	choicePhaseStart	2	92	32	foodImage.24	FOODEEG_Images\0250.jpg	YN	Left	Yes	1.38885629992001	0	556611	253
1088.509765625	0	taste	response	2	92	32	foodImage.24	FOODEEG_Images\0250.jpg	YN	Left	Yes	1.38885629992001	0	557318	234
1089.552734375	1	health	trialStart	2	93	33	foodImage.56	FOODEEG_Images\0586.jpg	YN	Left	Yes	1.84460450010374	0	557852	251
1090.59375	2	health	foodImageDisplay	2	93	33	foodImage.56	FOODEEG_Images\0586.jpg	YN	Left	Yes	1.84460450010374	0	558385	252
1092.65625	1.84460450010374	health	choicePhaseStart	2	93	33	foodImage.56	FOODEEG_Images\0586.jpg	YN	Left	Yes	1.84460450010374	0	559441	253
1094.494140625	0	health	response	2	93	33	foodImage.56	FOODEEG_Images\0586.jpg	YN	Left	Yes	1.84460450010374	0	560382	234
1095.54296875	1	decision	trialStart	2	94	34	foodImage.93	FOODEEG_Images\0901.jpg	YN	Right	No	1.72265279991552	0	560919	251
1096.58203125	2	decision	foodImageDisplay	2	94	34	foodImage.93	FOODEEG_Images\0901.jpg	YN	Right	No	1.72265279991552	0	561451	252
1098.64453125	1.72265279991552	decision	choicePhaseStart	2	94	34	foodImage.93	FOODEEG_Images\0901.jpg	YN	Right	No	1.72265279991552	0	562507	253
1100.357421875	0	decision	response	2	94	34	foodImage.93	FOODEEG_Images\0901.jpg	YN	Right	No	1.72265279991552	0	563384	235
1101.40234375	1	taste	trialStart	2	95	35	foodImage.20	FOODEEG_Images\0226.jpg	NY	Right	Yes	2.44980669999495	0	563919	251
1102.4453125	2	taste	foodImageDisplay	2	95	35	foodImage.20	FOODEEG_Images\0226.jpg	NY	Right	Yes	2.44980669999495	0	564453	252
1104.5078125	2.44980669999495	taste	choicePhaseStart	2	95	35	foodImage.20	FOODEEG_Images\0226.jpg	NY	Right	Yes	2.44980669999495	0	565509	253
1106.94921875	0	taste	response	2	95	35	foodImage.20	FOODEEG_Images\0226.jpg	NY	Right	Yes	2.44980669999495	0	566759	235
1107.98828125	1	health	trialStart	2	96	36	foodImage.101	FOODEEG_Images\0909.jpg	NY	Left	No	1.17302950005978	0	567291	251
1109.025390625	2	health	foodImageDisplay	2	96	36	foodImage.101	FOODEEG_Images\0909.jpg	NY	Left	No	1.17302950005978	0	567822	252
1111.087890625	1.17302950005978	health	choicePhaseStart	2	96	36	foodImage.101	FOODEEG_Images\0909.jpg	NY	Left	No	1.17302950005978	0	568878	253
1112.251953125	0	health	response	2	96	36	foodImage.101	FOODEEG_Images\0909.jpg	NY	Left	No	1.17302950005978	0	569474	234
1113.294921875	1	decision	trialStart	2	97	37	foodImage.24	FOODEEG_Images\0250.jpg	NY	Right	Yes	0.697650800226256	0	570008	251
1114.33984375	2	decision	foodImageDisplay	2	97	37	foodImage.24	FOODEEG_Images\0250.jpg	NY	Right	Yes	0.697650800226256	0	570543	252
1116.40234375	0.697650800226256	decision	choicePhaseStart	2	97	37	foodImage.24	FOODEEG_Images\0250.jpg	NY	Right	Yes	0.697650800226256	0	571599	253
1117.091796875	0	decision	response	2	97	37	foodImage.24	FOODEEG_Images\0250.jpg	NY	Right	Yes	0.697650800226256	0	571952	235
1118.134765625	1	taste	trialStart	2	98	38	foodImage.104	FOODEEG_Images\0912.jpg	NY	Right	Yes	1.81022360012867	0	572486	251
1119.171875	2	taste	foodImageDisplay	2	98	38	foodImage.104	FOODEEG_Images\0912.jpg	NY	Right	Yes	1.81022360012867	0	573017	252
1121.234375	1.81022360012867	taste	choicePhaseStart	2	98	38	foodImage.104	FOODEEG_Images\0912.jpg	NY	Right	Yes	1.81022360012867	0	574073	253
1123.037109375	0	taste	response	2	98	38	foodImage.104	FOODEEG_Images\0912.jpg	NY	Right	Yes	1.81022360012867	0	574996	235
1124.076171875	1	decision	trialStart	2	99	39	foodImage.112	FOODEEG_Images\0920.jpg	YN	Right	No	0.62944020004943	0	575528	251
1125.11328125	2	decision	foodImageDisplay	2	99	39	foodImage.112	FOODEEG_Images\0920.jpg	YN	Right	No	0.62944020004943	0	576059	252
1127.17578125	0.62944020004943	decision	choicePhaseStart	2	99	39	foodImage.112	FOODEEG_Images\0920.jpg	YN	Right	No	0.62944020004943	0	577115	253
1127.796875	0	decision	response	2	99	39	foodImage.112	FOODEEG_Images\0920.jpg	YN	Right	No	0.62944020004943	0	577433	235
1128.83984375	1	taste	trialStart	2	100	40	foodImage.13	FOODEEG_Images\0183.jpg	YN	Left	Yes	0.888817100087181	0	577967	251
1129.880859375	2	taste	foodImageDisplay	2	100	40	foodImage.13	FOODEEG_Images\0183.jpg	YN	Left	Yes	0.888817100087181	0	578500	252
1131.947265625	0.888817100087181	taste	choicePhaseStart	2	100	40	foodImage.13	FOODEEG_Images\0183.jpg	YN	Left	Yes	0.888817100087181	0	579558	253
1132.828125	0	taste	response	2	100	40	foodImage.13	FOODEEG_Images\0183.jpg	YN	Left	Yes	0.888817100087181	0	580009	234
1133.869140625	1	health	trialStart	2	101	41	foodImage.69	FOODEEG_Images\0693.jpg	NY	Right	Yes	2.52272779983468	0	580542	251
1134.931640625	2	health	foodImageDisplay	2	101	41	foodImage.69	FOODEEG_Images\0693.jpg	NY	Right	Yes	2.52272779983468	0	581086	252
1136.994140625	2.52272779983468	health	choicePhaseStart	2	101	41	foodImage.69	FOODEEG_Images\0693.jpg	NY	Right	Yes	2.52272779983468	0	582142	253
1139.5078125	0	health	response	2	101	41	foodImage.69	FOODEEG_Images\0693.jpg	NY	Right	Yes	2.52272779983468	0	583429	235
1140.55078125	1	decision	trialStart	2	102	42	foodImage.101	FOODEEG_Images\0909.jpg	NY	Left	No	0.656762999948114	0	583963	251
1141.58984375	2	decision	foodImageDisplay	2	102	42	foodImage.101	FOODEEG_Images\0909.jpg	NY	Left	No	0.656762999948114	0	584495	252
1143.65234375	0.656762999948114	decision	choicePhaseStart	2	102	42	foodImage.101	FOODEEG_Images\0909.jpg	NY	Left	No	0.656762999948114	0	585551	253
1144.298828125	0	decision	response	2	102	42	foodImage.101	FOODEEG_Images\0909.jpg	NY	Left	No	0.656762999948114	0	585882	234
1145.341796875	1	taste	trialStart	2	103	43	foodImage.50	FOODEEG_Images\0529.jpg	YN	Right	No	1.15105740004219	0	586416	251
1146.3984375	2	taste	foodImageDisplay	2	103	43	foodImage.50	FOODEEG_Images\0529.jpg	YN	Right	No	1.15105740004219	0	586957	252
1148.4609375	1.15105740004219	taste	choicePhaseStart	2	103	43	foodImage.50	FOODEEG_Images\0529.jpg	YN	Right	No	1.15105740004219	0	588013	253
1149.603515625	0	taste	response	2	103	43	foodImage.50	FOODEEG_Images\0529.jpg	YN	Right	No	1.15105740004219	0	588598	235
1150.650390625	1	decision	trialStart	2	104	44	foodImage.80	FOODEEG_Images\0796.jpg	YN	Left	Yes	0.545278300065547	0	589134	251
1151.70703125	2	decision	foodImageDisplay	2	104	44	foodImage.80	FOODEEG_Images\0796.jpg	YN	Left	Yes	0.545278300065547	0	589675	252
1153.76953125	0.545278300065547	decision	choicePhaseStart	2	104	44	foodImage.80	FOODEEG_Images\0796.jpg	YN	Left	Yes	0.545278300065547	0	590731	253
1154.306640625	0	decision	response	2	104	44	foodImage.80	FOODEEG_Images\0796.jpg	YN	Left	Yes	0.545278300065547	0	591006	234
1155.349609375	1	taste	trialStart	2	105	45	foodImage.39	FOODEEG_Images\0367.jpg	NY	Right	Yes	0.761952300090343	0	591540	251
1156.38671875	2	taste	foodImageDisplay	2	105	45	foodImage.39	FOODEEG_Images\0367.jpg	NY	Right	Yes	0.761952300090343	0	592071	252
1158.44921875	0.761952300090343	taste	choicePhaseStart	2	105	45	foodImage.39	FOODEEG_Images\0367.jpg	NY	Right	Yes	0.761952300090343	0	593127	253
1159.203125	0	taste	response	2	105	45	foodImage.39	FOODEEG_Images\0367.jpg	NY	Right	Yes	0.761952300090343	0	593513	235
1160.24609375	1	health	trialStart	2	106	46	foodImage.112	FOODEEG_Images\0920.jpg	YN	Right	No	1.71293250005692	0	594047	251
1161.283203125	2	health	foodImageDisplay	2	106	46	foodImage.112	FOODEEG_Images\0920.jpg	YN	Right	No	1.71293250005692	0	594578	252
1163.345703125	1.71293250005692	health	choicePhaseStart	2	106	46	foodImage.112	FOODEEG_Images\0920.jpg	YN	Right	No	1.71293250005692	0	595634	253
1165.05078125	0	health	response	2	106	46	foodImage.112	FOODEEG_Images\0920.jpg	YN	Right	No	1.71293250005692	0	596507	235
1166.09375	1	health	trialStart	2	107	47	foodImage.76	FOODEEG_Images\0766.jpg	YN	Left	Yes	0.619415299966931	0	597041	251
1167.13671875	2	health	foodImageDisplay	2	107	47	foodImage.76	FOODEEG_Images\0766.jpg	YN	Left	Yes	0.619415299966931	0	597575	252
1169.19921875	0.619415299966931	health	choicePhaseStart	2	107	47	foodImage.76	FOODEEG_Images\0766.jpg	YN	Left	Yes	0.619415299966931	0	598631	253
1169.810546875	0	health	response	2	107	47	foodImage.76	FOODEEG_Images\0766.jpg	YN	Left	Yes	0.619415299966931	0	598944	234
1170.853515625	1	taste	trialStart	2	108	48	foodImage.37	FOODEEG_Images\0359.jpg	YN	Left	Yes	0.572167799808085	0	599478	251
1171.896484375	2	taste	foodImageDisplay	2	108	48	foodImage.37	FOODEEG_Images\0359.jpg	YN	Left	Yes	0.572167799808085	0	600012	252
1173.958984375	0.572167799808085	taste	choicePhaseStart	2	108	48	foodImage.37	FOODEEG_Images\0359.jpg	YN	Left	Yes	0.572167799808085	0	601068	253
1174.521484375	0	taste	response	2	108	48	foodImage.37	FOODEEG_Images\0359.jpg	YN	Left	Yes	0.572167799808085	0	601356	234
1175.56640625	1	decision	trialStart	2	109	49	foodImage.60	FOODEEG_Images\0614.jpg	YN	Left	Yes	0.93147710012272	0	601891	251
1176.623046875	2	decision	foodImageDisplay	2	109	49	foodImage.60	FOODEEG_Images\0614.jpg	YN	Left	Yes	0.93147710012272	0	602432	252
1178.685546875	0.93147710012272	decision	choicePhaseStart	2	109	49	foodImage.60	FOODEEG_Images\0614.jpg	YN	Left	Yes	0.93147710012272	0	603488	253
1179.609375	0	decision	response	2	109	49	foodImage.60	FOODEEG_Images\0614.jpg	YN	Left	Yes	0.93147710012272	0	603961	234
1180.654296875	1	decision	trialStart	2	110	50	foodImage.2	FOODEEG_Images\0028.jpg	YN	Left	Yes	0.563901299843565	0	604496	251
1181.697265625	2	decision	foodImageDisplay	2	110	50	foodImage.2	FOODEEG_Images\0028.jpg	YN	Left	Yes	0.563901299843565	0	605030	252
1183.759765625	0.563901299843565	decision	choicePhaseStart	2	110	50	foodImage.2	FOODEEG_Images\0028.jpg	YN	Left	Yes	0.563901299843565	0	606086	253
1184.314453125	0	decision	response	2	110	50	foodImage.2	FOODEEG_Images\0028.jpg	YN	Left	Yes	0.563901299843565	0	606370	234
1185.357421875	1	taste	trialStart	2	111	51	foodImage.18	FOODEEG_Images\0202.jpg	YN	Left	Yes	0.79076230013743	0	606904	251
1186.412109375	2	taste	foodImageDisplay	2	111	51	foodImage.18	FOODEEG_Images\0202.jpg	YN	Left	Yes	0.79076230013743	0	607444	252
1188.474609375	0.79076230013743	taste	choicePhaseStart	2	111	51	foodImage.18	FOODEEG_Images\0202.jpg	YN	Left	Yes	0.79076230013743	0	608500	253
1189.2578125	0	taste	response	2	111	51	foodImage.18	FOODEEG_Images\0202.jpg	YN	Left	Yes	0.79076230013743	0	608901	234
1190.30078125	1	health	trialStart	2	112	52	foodImage.4	FOODEEG_Images\0065.jpg	YN	Right	No	0.758556099841371	0	609435	251
1191.359375	2	health	foodImageDisplay	2	112	52	foodImage.4	FOODEEG_Images\0065.jpg	YN	Right	No	0.758556099841371	0	609977	252
1193.419921875	0.758556099841371	health	choicePhaseStart	2	112	52	foodImage.4	FOODEEG_Images\0065.jpg	YN	Right	No	0.758556099841371	0	611032	253
1194.169921875	0	health	response	2	112	52	foodImage.4	FOODEEG_Images\0065.jpg	YN	Right	No	0.758556099841371	0	611416	235
1195.212890625	1	decision	trialStart	2	113	53	foodImage.9	FOODEEG_Images\0138.jpg	YN	Right	No	1.42932230001315	0	611950	251
1196.26953125	2	decision	foodImageDisplay	2	113	53	foodImage.9	FOODEEG_Images\0138.jpg	YN	Right	No	1.42932230001315	0	612491	252
1198.33203125	1.42932230001315	decision	choicePhaseStart	2	113	53	foodImage.9	FOODEEG_Images\0138.jpg	YN	Right	No	1.42932230001315	0	613547	253
1199.75390625	0	decision	response	2	113	53	foodImage.9	FOODEEG_Images\0138.jpg	YN	Right	No	1.42932230001315	0	614275	235
1200.796875	1	taste	trialStart	2	114	54	foodImage.36	FOODEEG_Images\0352.jpg	NY	Right	Yes	1.5177577000577	0	614809	251
1201.853515625	2	taste	foodImageDisplay	2	114	54	foodImage.36	FOODEEG_Images\0352.jpg	NY	Right	Yes	1.5177577000577	0	615350	252
1203.916015625	1.5177577000577	taste	choicePhaseStart	2	114	54	foodImage.36	FOODEEG_Images\0352.jpg	NY	Right	Yes	1.5177577000577	0	616406	253
1205.423828125	0	taste	response	2	114	54	foodImage.36	FOODEEG_Images\0352.jpg	NY	Right	Yes	1.5177577000577	0	617178	235
1206.466796875	1	health	trialStart	2	115	55	foodImage.113	FOODEEG_Images\0921.jpg	NY	Right	Yes	0.609162000007927	0	617712	251
1207.505859375	2	health	foodImageDisplay	2	115	55	foodImage.113	FOODEEG_Images\0921.jpg	NY	Right	Yes	0.609162000007927	0	618244	252
1209.568359375	0.609162000007927	health	choicePhaseStart	2	115	55	foodImage.113	FOODEEG_Images\0921.jpg	NY	Right	Yes	0.609162000007927	0	619300	253
1210.169921875	0	health	response	2	115	55	foodImage.113	FOODEEG_Images\0921.jpg	NY	Right	Yes	0.609162000007927	0	619608	235
1211.212890625	1	decision	trialStart	2	116	56	foodImage.72	FOODEEG_Images\0714.jpg	YN	Left	Yes	1.20301389996894	0	620142	251
1212.25390625	2	decision	foodImageDisplay	2	116	56	foodImage.72	FOODEEG_Images\0714.jpg	YN	Left	Yes	1.20301389996894	0	620675	252
1214.318359375	1.20301389996894	decision	choicePhaseStart	2	116	56	foodImage.72	FOODEEG_Images\0714.jpg	YN	Left	Yes	1.20301389996894	0	621732	253
1215.513671875	0	decision	response	2	116	56	foodImage.72	FOODEEG_Images\0714.jpg	YN	Left	Yes	1.20301389996894	0	622344	234
1216.552734375	1	taste	trialStart	2	117	57	foodImage.79	FOODEEG_Images\0794.jpg	YN	Left	Yes	1.18120400002226	0	622876	251
1217.599609375	2	taste	foodImageDisplay	2	117	57	foodImage.79	FOODEEG_Images\0794.jpg	YN	Left	Yes	1.18120400002226	0	623412	252
1219.662109375	1.18120400002226	taste	choicePhaseStart	2	117	57	foodImage.79	FOODEEG_Images\0794.jpg	YN	Left	Yes	1.18120400002226	0	624468	253
1220.83203125	0	taste	response	2	117	57	foodImage.79	FOODEEG_Images\0794.jpg	YN	Left	Yes	1.18120400002226	0	625067	234
1221.876953125	1	decision	trialStart	2	118	58	foodImage.31	FOODEEG_Images\0294.jpg	YN	Left	Yes	0.613115099957213	0	625602	251
1222.91796875	2	decision	foodImageDisplay	2	118	58	foodImage.31	FOODEEG_Images\0294.jpg	YN	Left	Yes	0.613115099957213	0	626135	252
1224.98046875	0.613115099957213	decision	choicePhaseStart	2	118	58	foodImage.31	FOODEEG_Images\0294.jpg	YN	Left	Yes	0.613115099957213	0	627191	253
1225.583984375	0	decision	response	2	118	58	foodImage.31	FOODEEG_Images\0294.jpg	YN	Left	Yes	0.613115099957213	0	627500	234
1226.625	1	decision	trialStart	2	119	59	foodImage.25	FOODEEG_Images\0261.jpg	YN	Left	Yes	1.37783459993079	0	628033	251
1227.666015625	2	decision	foodImageDisplay	2	119	59	foodImage.25	FOODEEG_Images\0261.jpg	YN	Left	Yes	1.37783459993079	0	628566	252
1229.728515625	1.37783459993079	decision	choicePhaseStart	2	119	59	foodImage.25	FOODEEG_Images\0261.jpg	YN	Left	Yes	1.37783459993079	0	629622	253
1231.095703125	0	decision	response	2	119	59	foodImage.25	FOODEEG_Images\0261.jpg	YN	Left	Yes	1.37783459993079	0	630322	234
1232.138671875	1	decision	trialStart	2	120	60	foodImage.54	FOODEEG_Images\0560.jpg	YN	Left	Yes	1.53276370000094	0	630856	251
1233.197265625	2	decision	foodImageDisplay	2	120	60	foodImage.54	FOODEEG_Images\0560.jpg	YN	Left	Yes	1.53276370000094	0	631398	252
1235.259765625	1.53276370000094	decision	choicePhaseStart	2	120	60	foodImage.54	FOODEEG_Images\0560.jpg	YN	Left	Yes	1.53276370000094	0	632454	253
1236.783203125	0	decision	response	2	120	60	foodImage.54	FOODEEG_Images\0560.jpg	YN	Left	Yes	1.53276370000094	0	633234	234
1238.828125	5.017578125	n/a	blockEnd	n/a	n/a	n/a	n/a	n/a	n/a	n/a	n/a	n/a	n/a	634281	254
1243.845703125	2	n/a	blockStart	3	n/a	n/a	n/a	n/a	n/a	n/a	n/a	n/a	n/a	636850	250
1245.884765625	1	health	trialStart	3	121	1	foodImage.50	FOODEEG_Images\0529.jpg	YN	Left	Yes	0.745130800176412	0	637894	251
1246.9453125	2	health	foodImageDisplay	3	121	1	foodImage.50	FOODEEG_Images\0529.jpg	YN	Left	Yes	0.745130800176412	0	638437	252
1249.009765625	0.745130800176412	health	choicePhaseStart	3	121	1	foodImage.50	FOODEEG_Images\0529.jpg	YN	Left	Yes	0.745130800176412	0	639494	253
1249.751953125	0	health	response	3	121	1	foodImage.50	FOODEEG_Images\0529.jpg	YN	Left	Yes	0.745130800176412	0	639874	234
1250.79296875	1	decision	trialStart	3	122	2	foodImage.110	FOODEEG_Images\0918.jpg	YN	Right	No	0.745920700021088	0	640407	251
1251.830078125	2	decision	foodImageDisplay	3	122	2	foodImage.110	FOODEEG_Images\0918.jpg	YN	Right	No	0.745920700021088	0	640938	252
1253.892578125	0.745920700021088	decision	choicePhaseStart	3	122	2	foodImage.110	FOODEEG_Images\0918.jpg	YN	Right	No	0.745920700021088	0	641994	253
1254.630859375	0	decision	response	3	122	2	foodImage.110	FOODEEG_Images\0918.jpg	YN	Right	No	0.745920700021088	0	642372	235
1255.669921875	1	taste	trialStart	3	123	3	foodImage.115	FOODEEG_Images\0923.jpg	YN	Left	Yes	1.06850969977677	0	642904	251
1256.708984375	2	taste	foodImageDisplay	3	123	3	foodImage.115	FOODEEG_Images\0923.jpg	YN	Left	Yes	1.06850969977677	0	643436	252
1258.771484375	1.06850969977677	taste	choicePhaseStart	3	123	3	foodImage.115	FOODEEG_Images\0923.jpg	YN	Left	Yes	1.06850969977677	0	644492	253
1259.830078125	0	taste	response	3	123	3	foodImage.115	FOODEEG_Images\0923.jpg	YN	Left	Yes	1.06850969977677	0	645034	234
1260.873046875	1	decision	trialStart	3	124	4	foodImage.40	FOODEEG_Images\0373.jpg	YN	Left	Yes	0.805513200117275	0	645568	251
1261.9140625	2	decision	foodImageDisplay	3	124	4	foodImage.40	FOODEEG_Images\0373.jpg	YN	Left	Yes	0.805513200117275	0	646101	252
1263.9765625	0.805513200117275	decision	choicePhaseStart	3	124	4	foodImage.40	FOODEEG_Images\0373.jpg	YN	Left	Yes	0.805513200117275	0	647157	253
1264.775390625	0	decision	response	3	124	4	foodImage.40	FOODEEG_Images\0373.jpg	YN	Left	Yes	0.805513200117275	0	647566	234
1265.818359375	1	health	trialStart	3	125	5	foodImage.80	FOODEEG_Images\0796.jpg	NY	Right	Yes	1.22227509994991	0	648100	251
1266.875	2	health	foodImageDisplay	3	125	5	foodImage.80	FOODEEG_Images\0796.jpg	NY	Right	Yes	1.22227509994991	0	648641	252
1268.9375	1.22227509994991	health	choicePhaseStart	3	125	5	foodImage.80	FOODEEG_Images\0796.jpg	NY	Right	Yes	1.22227509994991	0	649697	253
1270.150390625	0	health	response	3	125	5	foodImage.80	FOODEEG_Images\0796.jpg	NY	Right	Yes	1.22227509994991	0	650318	235
1271.19921875	1	health	trialStart	3	126	6	foodImage.22	FOODEEG_Images\0236.jpg	NY	Right	Yes	1.99728119978681	0	650855	251
1272.240234375	2	health	foodImageDisplay	3	126	6	foodImage.22	FOODEEG_Images\0236.jpg	NY	Right	Yes	1.99728119978681	0	651388	252
1274.302734375	1.99728119978681	health	choicePhaseStart	3	126	6	foodImage.22	FOODEEG_Images\0236.jpg	NY	Right	Yes	1.99728119978681	0	652444	253
1276.294921875	0	health	response	3	126	6	foodImage.22	FOODEEG_Images\0236.jpg	NY	Right	Yes	1.99728119978681	0	653464	235
1277.337890625	1	health	trialStart	3	127	7	foodImage.19	FOODEEG_Images\0225.jpg	YN	Left	Yes	1.25708829984069	0	653998	251
1278.3984375	2	health	foodImageDisplay	3	127	7	foodImage.19	FOODEEG_Images\0225.jpg	YN	Left	Yes	1.25708829984069	0	654541	252
1280.462890625	1.25708829984069	health	choicePhaseStart	3	127	7	foodImage.19	FOODEEG_Images\0225.jpg	YN	Left	Yes	1.25708829984069	0	655598	253
1281.7109375	0	health	response	3	127	7	foodImage.19	FOODEEG_Images\0225.jpg	YN	Left	Yes	1.25708829984069	0	656237	234
1282.75390625	1	health	trialStart	3	128	8	foodImage.103	FOODEEG_Images\0911.jpg	YN	Right	No	2.22602800000459	0	656771	251
1283.791015625	2	health	foodImageDisplay	3	128	8	foodImage.103	FOODEEG_Images\0911.jpg	YN	Right	No	2.22602800000459	0	657302	252
1285.853515625	2.22602800000459	health	choicePhaseStart	3	128	8	foodImage.103	FOODEEG_Images\0911.jpg	YN	Right	No	2.22602800000459	0	658358	253
1288.0703125	0	health	response	3	128	8	foodImage.103	FOODEEG_Images\0911.jpg	YN	Right	No	2.22602800000459	0	659493	235
1289.11328125	1	health	trialStart	3	129	9	foodImage.59	FOODEEG_Images\0607.jpg	NY	Left	No	2.24713089992292	0	660027	251
1290.169921875	2	health	foodImageDisplay	3	129	9	foodImage.59	FOODEEG_Images\0607.jpg	NY	Left	No	2.24713089992292	0	660568	252
1292.232421875	2.24713089992292	health	choicePhaseStart	3	129	9	foodImage.59	FOODEEG_Images\0607.jpg	NY	Left	No	2.24713089992292	0	661624	253
1294.46875	0	health	response	3	129	9	foodImage.59	FOODEEG_Images\0607.jpg	NY	Left	No	2.24713089992292	0	662769	234
1295.513671875	1	health	trialStart	3	130	10	foodImage.85	FOODEEG_Images\0841.jpg	YN	Right	No	2.11743040010333	0	663304	251
1296.568359375	2	health	foodImageDisplay	3	130	10	foodImage.85	FOODEEG_Images\0841.jpg	YN	Right	No	2.11743040010333	0	663844	252
1298.630859375	2.11743040010333	health	choicePhaseStart	3	130	10	foodImage.85	FOODEEG_Images\0841.jpg	YN	Right	No	2.11743040010333	0	664900	253
1300.7421875	0	health	response	3	130	10	foodImage.85	FOODEEG_Images\0841.jpg	YN	Right	No	2.11743040010333	0	665981	235
1301.78515625	1	decision	trialStart	3	131	11	foodImage.117	FOODEEG_Images\0925.jpg	YN	Left	Yes	0.978030700003728	0	666515	251
1302.822265625	2	decision	foodImageDisplay	3	131	11	foodImage.117	FOODEEG_Images\0925.jpg	YN	Left	Yes	0.978030700003728	0	667046	252
1304.884765625	0.978030700003728	decision	choicePhaseStart	3	131	11	foodImage.117	FOODEEG_Images\0925.jpg	YN	Left	Yes	0.978030700003728	0	668102	253
1305.853515625	0	decision	response	3	131	11	foodImage.117	FOODEEG_Images\0925.jpg	YN	Left	Yes	0.978030700003728	0	668598	234
1306.892578125	1	taste	trialStart	3	132	12	foodImage.80	FOODEEG_Images\0796.jpg	YN	Left	Yes	0.943861400010064	0	669130	251
1307.951171875	2	taste	foodImageDisplay	3	132	12	foodImage.80	FOODEEG_Images\0796.jpg	YN	Left	Yes	0.943861400010064	0	669672	252
1310.013671875	0.943861400010064	taste	choicePhaseStart	3	132	12	foodImage.80	FOODEEG_Images\0796.jpg	YN	Left	Yes	0.943861400010064	0	670728	253
1310.94921875	0	taste	response	3	132	12	foodImage.80	FOODEEG_Images\0796.jpg	YN	Left	Yes	0.943861400010064	0	671207	234
1311.98828125	1	health	trialStart	3	133	13	foodImage.47	FOODEEG_Images\0488.jpg	YN	Right	No	0.897439499851316	0	671739	251
1313.029296875	2	health	foodImageDisplay	3	133	13	foodImage.47	FOODEEG_Images\0488.jpg	YN	Right	No	0.897439499851316	0	672272	252
1315.091796875	0.897439499851316	health	choicePhaseStart	3	133	13	foodImage.47	FOODEEG_Images\0488.jpg	YN	Right	No	0.897439499851316	0	673328	253
1315.98046875	0	health	response	3	133	13	foodImage.47	FOODEEG_Images\0488.jpg	YN	Right	No	0.897439499851316	0	673783	235
1317.025390625	1	health	trialStart	3	134	14	foodImage.42	FOODEEG_Images\0438.jpg	NY	Right	Yes	0.82995089981705	0	674318	251
1318.111328125	2	health	foodImageDisplay	3	134	14	foodImage.42	FOODEEG_Images\0438.jpg	NY	Right	Yes	0.82995089981705	0	674874	252
1320.17578125	0.82995089981705	health	choicePhaseStart	3	134	14	foodImage.42	FOODEEG_Images\0438.jpg	NY	Right	Yes	0.82995089981705	0	675931	253
1320.99609375	0	health	response	3	134	14	foodImage.42	FOODEEG_Images\0438.jpg	NY	Right	Yes	0.82995089981705	0	676351	235
1322.0390625	1	decision	trialStart	3	135	15	foodImage.83	FOODEEG_Images\0827.jpg	YN	Left	Yes	0.914691000012681	0	676885	251
1323.123046875	2	decision	foodImageDisplay	3	135	15	foodImage.83	FOODEEG_Images\0827.jpg	YN	Left	Yes	0.914691000012681	0	677440	252
1325.1875	0.914691000012681	decision	choicePhaseStart	3	135	15	foodImage.83	FOODEEG_Images\0827.jpg	YN	Left	Yes	0.914691000012681	0	678497	253
1326.091796875	0	decision	response	3	135	15	foodImage.83	FOODEEG_Images\0827.jpg	YN	Left	Yes	0.914691000012681	0	678960	234
1327.138671875	1	taste	trialStart	3	136	16	foodImage.27	FOODEEG_Images\0263.jpg	NY	Right	Yes	0.914580299984664	0	679496	251
1328.1796875	2	taste	foodImageDisplay	3	136	16	foodImage.27	FOODEEG_Images\0263.jpg	NY	Right	Yes	0.914580299984664	0	680029	252
1330.2421875	0.914580299984664	taste	choicePhaseStart	3	136	16	foodImage.27	FOODEEG_Images\0263.jpg	NY	Right	Yes	0.914580299984664	0	681085	253
1331.1484375	0	taste	response	3	136	16	foodImage.27	FOODEEG_Images\0263.jpg	NY	Right	Yes	0.914580299984664	0	681549	235
1332.189453125	1	decision	trialStart	3	137	17	foodImage.44	FOODEEG_Images\0459.jpg	YN	Left	Yes	1.41350639984012	0	682082	251
1333.232421875	2	decision	foodImageDisplay	3	137	17	foodImage.44	FOODEEG_Images\0459.jpg	YN	Left	Yes	1.41350639984012	0	682616	252
1335.294921875	1.41350639984012	decision	choicePhaseStart	3	137	17	foodImage.44	FOODEEG_Images\0459.jpg	YN	Left	Yes	1.41350639984012	0	683672	253
1336.69921875	0	decision	response	3	137	17	foodImage.44	FOODEEG_Images\0459.jpg	YN	Left	Yes	1.41350639984012	0	684391	234
1337.7421875	1	decision	trialStart	3	138	18	foodImage.33	FOODEEG_Images\0329.jpg	NY	Right	Yes	0.629984299885109	0	684925	251
1338.783203125	2	decision	foodImageDisplay	3	138	18	foodImage.33	FOODEEG_Images\0329.jpg	NY	Right	Yes	0.629984299885109	0	685458	252
1340.845703125	0.629984299885109	decision	choicePhaseStart	3	138	18	foodImage.33	FOODEEG_Images\0329.jpg	NY	Right	Yes	0.629984299885109	0	686514	253
1341.466796875	0	decision	response	3	138	18	foodImage.33	FOODEEG_Images\0329.jpg	NY	Right	Yes	0.629984299885109	0	686832	235
1342.51171875	1	decision	trialStart	3	139	19	foodImage.67	FOODEEG_Images\0679.jpg	YN	Left	Yes	1.98254269990139	0	687367	251
1343.568359375	2	decision	foodImageDisplay	3	139	19	foodImage.67	FOODEEG_Images\0679.jpg	YN	Left	Yes	1.98254269990139	0	687908	252
1345.630859375	1.98254269990139	decision	choicePhaseStart	3	139	19	foodImage.67	FOODEEG_Images\0679.jpg	YN	Left	Yes	1.98254269990139	0	688964	253
1347.603515625	0	decision	response	3	139	19	foodImage.67	FOODEEG_Images\0679.jpg	YN	Left	Yes	1.98254269990139	0	689974	234
1348.646484375	1	taste	trialStart	3	140	20	foodImage.81	FOODEEG_Images\0797.jpg	YN	Right	No	0.973029999993742	0	690508	251
1349.705078125	2	taste	foodImageDisplay	3	140	20	foodImage.81	FOODEEG_Images\0797.jpg	YN	Right	No	0.973029999993742	0	691050	252
1351.767578125	0.973029999993742	taste	choicePhaseStart	3	140	20	foodImage.81	FOODEEG_Images\0797.jpg	YN	Right	No	0.973029999993742	0	692106	253
1352.73046875	0	taste	response	3	140	20	foodImage.81	FOODEEG_Images\0797.jpg	YN	Right	No	0.973029999993742	0	692599	235
1353.775390625	1	health	trialStart	3	141	21	foodImage.34	FOODEEG_Images\0339.jpg	YN	Right	No	0.772998100146651	0	693134	251
1354.83203125	2	health	foodImageDisplay	3	141	21	foodImage.34	FOODEEG_Images\0339.jpg	YN	Right	No	0.772998100146651	0	693675	252
1356.89453125	0.772998100146651	health	choicePhaseStart	3	141	21	foodImage.34	FOODEEG_Images\0339.jpg	YN	Right	No	0.772998100146651	0	694731	253
1357.658203125	0	health	response	3	141	21	foodImage.34	FOODEEG_Images\0339.jpg	YN	Right	No	0.772998100146651	0	695122	235
1358.701171875	1	decision	trialStart	3	142	22	foodImage.35	FOODEEG_Images\0350.jpg	NY	Right	Yes	0.749042600160465	0	695656	251
1359.740234375	2	decision	foodImageDisplay	3	142	22	foodImage.35	FOODEEG_Images\0350.jpg	NY	Right	Yes	0.749042600160465	0	696188	252
1361.802734375	0.749042600160465	decision	choicePhaseStart	3	142	22	foodImage.35	FOODEEG_Images\0350.jpg	NY	Right	Yes	0.749042600160465	0	697244	253
1362.546875	0	decision	response	3	142	22	foodImage.35	FOODEEG_Images\0350.jpg	NY	Right	Yes	0.749042600160465	0	697625	235
1363.58984375	1	decision	trialStart	3	143	23	foodImage.49	FOODEEG_Images\0515.jpg	YN	Left	Yes	0.588923999806866	0	698159	251
1364.630859375	2	decision	foodImageDisplay	3	143	23	foodImage.49	FOODEEG_Images\0515.jpg	YN	Left	Yes	0.588923999806866	0	698692	252
1366.693359375	0.588923999806866	decision	choicePhaseStart	3	143	23	foodImage.49	FOODEEG_Images\0515.jpg	YN	Left	Yes	0.588923999806866	0	699748	253
1367.275390625	0	decision	response	3	143	23	foodImage.49	FOODEEG_Images\0515.jpg	YN	Left	Yes	0.588923999806866	0	700046	234
1368.314453125	1	decision	trialStart	3	144	24	foodImage.102	FOODEEG_Images\0910.jpg	YN	Right	No	0.63480110000819	0	700578	251
1369.353515625	2	decision	foodImageDisplay	3	144	24	foodImage.102	FOODEEG_Images\0910.jpg	YN	Right	No	0.63480110000819	0	701110	252
1371.416015625	0.63480110000819	decision	choicePhaseStart	3	144	24	foodImage.102	FOODEEG_Images\0910.jpg	YN	Right	No	0.63480110000819	0	702166	253
1372.04296875	0	decision	response	3	144	24	foodImage.102	FOODEEG_Images\0910.jpg	YN	Right	No	0.63480110000819	0	702487	235
1373.0859375	1	decision	trialStart	3	145	25	foodImage.27	FOODEEG_Images\0263.jpg	YN	Left	Yes	0.621089000022039	0	703021	251
1374.126953125	2	decision	foodImageDisplay	3	145	25	foodImage.27	FOODEEG_Images\0263.jpg	YN	Left	Yes	0.621089000022039	0	703554	252
1376.189453125	0.621089000022039	decision	choicePhaseStart	3	145	25	foodImage.27	FOODEEG_Images\0263.jpg	YN	Left	Yes	0.621089000022039	0	704610	253
1376.802734375	0	decision	response	3	145	25	foodImage.27	FOODEEG_Images\0263.jpg	YN	Left	Yes	0.621089000022039	0	704924	234
1377.845703125	1	decision	trialStart	3	146	26	foodImage.77	FOODEEG_Images\0771.jpg	YN	Left	Yes	0.790658499812707	0	705458	251
1378.890625	2	decision	foodImageDisplay	3	146	26	foodImage.77	FOODEEG_Images\0771.jpg	YN	Left	Yes	0.790658499812707	0	705993	252
1380.955078125	0.790658499812707	decision	choicePhaseStart	3	146	26	foodImage.77	FOODEEG_Images\0771.jpg	YN	Left	Yes	0.790658499812707	0	707050	253
1381.73828125	0	decision	response	3	146	26	foodImage.77	FOODEEG_Images\0771.jpg	YN	Left	Yes	0.790658499812707	0	707451	234
1382.779296875	1	decision	trialStart	3	147	27	foodImage.116	FOODEEG_Images\0924.jpg	YN	Right	No	0.600683799944818	0	707984	251
1383.818359375	2	decision	foodImageDisplay	3	147	27	foodImage.116	FOODEEG_Images\0924.jpg	YN	Right	No	0.600683799944818	0	708516	252
1385.8828125	0.600683799944818	decision	choicePhaseStart	3	147	27	foodImage.116	FOODEEG_Images\0924.jpg	YN	Right	No	0.600683799944818	0	709573	253
1386.474609375	0	decision	response	3	147	27	foodImage.116	FOODEEG_Images\0924.jpg	YN	Right	No	0.600683799944818	0	709876	235
1387.515625	1	health	trialStart	3	148	28	foodImage.31	FOODEEG_Images\0294.jpg	NY	Left	No	1.05499610002153	0	710409	251
1388.55859375	2	health	foodImageDisplay	3	148	28	foodImage.31	FOODEEG_Images\0294.jpg	NY	Left	No	1.05499610002153	0	710943	252
1390.619140625	1.05499610002153	health	choicePhaseStart	3	148	28	foodImage.31	FOODEEG_Images\0294.jpg	NY	Left	No	1.05499610002153	0	711998	253
1391.666015625	0	health	response	3	148	28	foodImage.31	FOODEEG_Images\0294.jpg	NY	Left	No	1.05499610002153	0	712534	234
1392.708984375	1	decision	trialStart	3	149	29	foodImage.56	FOODEEG_Images\0586.jpg	NY	Right	Yes	1.34860859997571	0	713068	251
1393.751953125	2	decision	foodImageDisplay	3	149	29	foodImage.56	FOODEEG_Images\0586.jpg	NY	Right	Yes	1.34860859997571	0	713602	252
1395.8125	1.34860859997571	decision	choicePhaseStart	3	149	29	foodImage.56	FOODEEG_Images\0586.jpg	NY	Right	Yes	1.34860859997571	0	714657	253
1397.154296875	0	decision	response	3	149	29	foodImage.56	FOODEEG_Images\0586.jpg	NY	Right	Yes	1.34860859997571	0	715344	235
1398.1953125	1	decision	trialStart	3	150	30	foodImage.84	FOODEEG_Images\0830.jpg	NY	Right	Yes	0.910551199922338	0	715877	251
1399.251953125	2	decision	foodImageDisplay	3	150	30	foodImage.84	FOODEEG_Images\0830.jpg	NY	Right	Yes	0.910551199922338	0	716418	252
1401.314453125	0.910551199922338	decision	choicePhaseStart	3	150	30	foodImage.84	FOODEEG_Images\0830.jpg	NY	Right	Yes	0.910551199922338	0	717474	253
1402.216796875	0	decision	response	3	150	30	foodImage.84	FOODEEG_Images\0830.jpg	NY	Right	Yes	0.910551199922338	0	717936	235
1403.259765625	1	health	trialStart	3	151	31	foodImage.6	FOODEEG_Images\0113.jpg	YN	Right	No	1.99677780014463	0	718470	251
1404.302734375	2	health	foodImageDisplay	3	151	31	foodImage.6	FOODEEG_Images\0113.jpg	YN	Right	No	1.99677780014463	0	719004	252
1406.365234375	1.99677780014463	health	choicePhaseStart	3	151	31	foodImage.6	FOODEEG_Images\0113.jpg	YN	Right	No	1.99677780014463	0	720060	253
1408.353515625	0	health	response	3	151	31	foodImage.6	FOODEEG_Images\0113.jpg	YN	Right	No	1.99677780014463	0	721078	235
1409.41796875	1	decision	trialStart	3	152	32	foodImage.8	FOODEEG_Images\0136.jpg	NY	Right	Yes	2.92932110000402	0	721623	251
1410.458984375	2	decision	foodImageDisplay	3	152	32	foodImage.8	FOODEEG_Images\0136.jpg	NY	Right	Yes	2.92932110000402	0	722156	252
1412.521484375	2.92932110000402	decision	choicePhaseStart	3	152	32	foodImage.8	FOODEEG_Images\0136.jpg	NY	Right	Yes	2.92932110000402	0	723212	253
1415.44140625	0	decision	response	3	152	32	foodImage.8	FOODEEG_Images\0136.jpg	NY	Right	Yes	2.92932110000402	0	724707	235
1416.484375	1	health	trialStart	3	153	33	foodImage.81	FOODEEG_Images\0797.jpg	YN	Left	Yes	1.3326469999738	0	725241	251
1417.541015625	2	health	foodImageDisplay	3	153	33	foodImage.81	FOODEEG_Images\0797.jpg	YN	Left	Yes	1.3326469999738	0	725782	252
1419.603515625	1.3326469999738	health	choicePhaseStart	3	153	33	foodImage.81	FOODEEG_Images\0797.jpg	YN	Left	Yes	1.3326469999738	0	726838	253
1420.927734375	0	health	response	3	153	33	foodImage.81	FOODEEG_Images\0797.jpg	YN	Left	Yes	1.3326469999738	0	727516	234
1421.97265625	1	decision	trialStart	3	154	34	foodImage.22	FOODEEG_Images\0236.jpg	NY	Right	Yes	0.694188400171697	0	728051	251
1423.01171875	2	decision	foodImageDisplay	3	154	34	foodImage.22	FOODEEG_Images\0236.jpg	NY	Right	Yes	0.694188400171697	0	728583	252
1425.07421875	0.694188400171697	decision	choicePhaseStart	3	154	34	foodImage.22	FOODEEG_Images\0236.jpg	NY	Right	Yes	0.694188400171697	0	729639	253
1425.759765625	0	decision	response	3	154	34	foodImage.22	FOODEEG_Images\0236.jpg	NY	Right	Yes	0.694188400171697	0	729990	235
1426.802734375	1	health	trialStart	3	155	35	foodImage.89	FOODEEG_Images\0881.jpg	NY	Right	Yes	0.8515017000027	0	730524	251
1427.85546875	2	health	foodImageDisplay	3	155	35	foodImage.89	FOODEEG_Images\0881.jpg	NY	Right	Yes	0.8515017000027	0	731063	252
1429.91796875	0.8515017000027	health	choicePhaseStart	3	155	35	foodImage.89	FOODEEG_Images\0881.jpg	NY	Right	Yes	0.8515017000027	0	732119	253
1430.759765625	0	health	response	3	155	35	foodImage.89	FOODEEG_Images\0881.jpg	NY	Right	Yes	0.8515017000027	0	732550	235
1431.802734375	1	health	trialStart	3	156	36	foodImage.102	FOODEEG_Images\0910.jpg	NY	Left	No	2.20883950009011	0	733084	251
1432.841796875	2	health	foodImageDisplay	3	156	36	foodImage.102	FOODEEG_Images\0910.jpg	NY	Left	No	2.20883950009011	0	733616	252
1434.904296875	2.20883950009011	health	choicePhaseStart	3	156	36	foodImage.102	FOODEEG_Images\0910.jpg	NY	Left	No	2.20883950009011	0	734672	253
1437.103515625	0	health	response	3	156	36	foodImage.102	FOODEEG_Images\0910.jpg	NY	Left	No	2.20883950009011	0	735798	234
1438.14453125	1	health	trialStart	3	157	37	foodImage.53	FOODEEG_Images\0547.jpg	NY	Left	No	0.678362499922514	0	736331	251
1439.203125	2	health	foodImageDisplay	3	157	37	foodImage.53	FOODEEG_Images\0547.jpg	NY	Left	No	0.678362499922514	0	736873	252
1441.265625	0.678362499922514	health	choicePhaseStart	3	157	37	foodImage.53	FOODEEG_Images\0547.jpg	NY	Left	No	0.678362499922514	0	737929	253
1441.935546875	0	health	response	3	157	37	foodImage.53	FOODEEG_Images\0547.jpg	NY	Left	No	0.678362499922514	0	738272	234
1442.978515625	1	decision	trialStart	3	158	38	foodImage.52	FOODEEG_Images\0539.jpg	NY	Right	Yes	0.971605699975044	0	738806	251
1444.037109375	2	decision	foodImageDisplay	3	158	38	foodImage.52	FOODEEG_Images\0539.jpg	NY	Right	Yes	0.971605699975044	0	739348	252
1446.1015625	0.971605699975044	decision	choicePhaseStart	3	158	38	foodImage.52	FOODEEG_Images\0539.jpg	NY	Right	Yes	0.971605699975044	0	740405	253
1447.0625	0	decision	response	3	158	38	foodImage.52	FOODEEG_Images\0539.jpg	NY	Right	Yes	0.971605699975044	0	740897	235
1448.10546875	1	health	trialStart	3	159	39	foodImage.46	FOODEEG_Images\0479.jpg	YN	Left	Yes	1.18146299989894	0	741431	251
1449.162109375	2	health	foodImageDisplay	3	159	39	foodImage.46	FOODEEG_Images\0479.jpg	YN	Left	Yes	1.18146299989894	0	741972	252
1451.224609375	1.18146299989894	health	choicePhaseStart	3	159	39	foodImage.46	FOODEEG_Images\0479.jpg	YN	Left	Yes	1.18146299989894	0	743028	253
1452.400390625	0	health	response	3	159	39	foodImage.46	FOODEEG_Images\0479.jpg	YN	Left	Yes	1.18146299989894	0	743630	234
1453.44140625	1	health	trialStart	3	160	40	foodImage.11	FOODEEG_Images\0180.jpg	YN	Left	Yes	0.790202399948612	0	744163	251
1454.482421875	2	health	foodImageDisplay	3	160	40	foodImage.11	FOODEEG_Images\0180.jpg	YN	Left	Yes	0.790202399948612	0	744696	252
1456.544921875	0.790202399948612	health	choicePhaseStart	3	160	40	foodImage.11	FOODEEG_Images\0180.jpg	YN	Left	Yes	0.790202399948612	0	745752	253
1457.326171875	0	health	response	3	160	40	foodImage.11	FOODEEG_Images\0180.jpg	YN	Left	Yes	0.790202399948612	0	746152	234
1458.369140625	1	taste	trialStart	3	161	41	foodImage.94	FOODEEG_Images\0902.jpg	YN	Left	Yes	1.22663949988782	0	746686	251
1459.408203125	2	taste	foodImageDisplay	3	161	41	foodImage.94	FOODEEG_Images\0902.jpg	YN	Left	Yes	1.22663949988782	0	747218	252
1461.46875	1.22663949988782	taste	choicePhaseStart	3	161	41	foodImage.94	FOODEEG_Images\0902.jpg	YN	Left	Yes	1.22663949988782	0	748273	253
1462.6875	0	taste	response	3	161	41	foodImage.94	FOODEEG_Images\0902.jpg	YN	Left	Yes	1.22663949988782	0	748897	234
1463.73046875	1	taste	trialStart	3	162	42	foodImage.73	FOODEEG_Images\0717.jpg	YN	Left	Yes	0.700267000123858	0	749431	251
1464.7890625	2	taste	foodImageDisplay	3	162	42	foodImage.73	FOODEEG_Images\0717.jpg	YN	Left	Yes	0.700267000123858	0	749973	252
1466.8515625	0.700267000123858	taste	choicePhaseStart	3	162	42	foodImage.73	FOODEEG_Images\0717.jpg	YN	Left	Yes	0.700267000123858	0	751029	253
1467.54296875	0	taste	response	3	162	42	foodImage.73	FOODEEG_Images\0717.jpg	YN	Left	Yes	0.700267000123858	0	751383	234
1468.5859375	1	health	trialStart	3	163	43	foodImage.1	FOODEEG_Images\0004.jpg	NY	Left	No	1.26749909995124	0	751917	251
1469.626953125	2	health	foodImageDisplay	3	163	43	foodImage.1	FOODEEG_Images\0004.jpg	NY	Left	No	1.26749909995124	0	752450	252
1471.69140625	1.26749909995124	health	choicePhaseStart	3	163	43	foodImage.1	FOODEEG_Images\0004.jpg	NY	Left	No	1.26749909995124	0	753507	253
1472.951171875	0	health	response	3	163	43	foodImage.1	FOODEEG_Images\0004.jpg	NY	Left	No	1.26749909995124	0	754152	234
1473.990234375	1	decision	trialStart	3	164	44	foodImage.99	FOODEEG_Images\0907.jpg	YN	Right	No	0.788148999912664	0	754684	251
1475.029296875	2	decision	foodImageDisplay	3	164	44	foodImage.99	FOODEEG_Images\0907.jpg	YN	Right	No	0.788148999912664	0	755216	252
1477.08984375	0.788148999912664	decision	choicePhaseStart	3	164	44	foodImage.99	FOODEEG_Images\0907.jpg	YN	Right	No	0.788148999912664	0	756271	253
1477.87109375	0	decision	response	3	164	44	foodImage.99	FOODEEG_Images\0907.jpg	YN	Right	No	0.788148999912664	0	756671	235
1478.912109375	1	taste	trialStart	3	165	45	foodImage.16	FOODEEG_Images\0196.jpg	YN	Left	Yes	1.08931669988669	0	757204	251
1479.96875	2	taste	foodImageDisplay	3	165	45	foodImage.16	FOODEEG_Images\0196.jpg	YN	Left	Yes	1.08931669988669	0	757745	252
1482.029296875	1.08931669988669	taste	choicePhaseStart	3	165	45	foodImage.16	FOODEEG_Images\0196.jpg	YN	Left	Yes	1.08931669988669	0	758800	253
1483.109375	0	taste	response	3	165	45	foodImage.16	FOODEEG_Images\0196.jpg	YN	Left	Yes	1.08931669988669	0	759353	234
1484.150390625	1	health	trialStart	3	166	46	foodImage.90	FOODEEG_Images\0890.jpg	YN	Right	No	1.08039609994739	0	759886	251
1485.20703125	2	health	foodImageDisplay	3	166	46	foodImage.90	FOODEEG_Images\0890.jpg	YN	Right	No	1.08039609994739	0	760427	252
1487.26953125	1.08039609994739	health	choicePhaseStart	3	166	46	foodImage.90	FOODEEG_Images\0890.jpg	YN	Right	No	1.08039609994739	0	761483	253
1488.341796875	0	health	response	3	166	46	foodImage.90	FOODEEG_Images\0890.jpg	YN	Right	No	1.08039609994739	0	762032	235
1489.384765625	1	taste	trialStart	3	167	47	foodImage.87	FOODEEG_Images\0873.jpg	YN	Left	Yes	2.37548479996622	0	762566	251
1490.439453125	2	taste	foodImageDisplay	3	167	47	foodImage.87	FOODEEG_Images\0873.jpg	YN	Left	Yes	2.37548479996622	0	763106	252
1492.501953125	2.37548479996622	taste	choicePhaseStart	3	167	47	foodImage.87	FOODEEG_Images\0873.jpg	YN	Left	Yes	2.37548479996622	0	764162	253
1494.869140625	0	taste	response	3	167	47	foodImage.87	FOODEEG_Images\0873.jpg	YN	Left	Yes	2.37548479996622	0	765374	234
1495.912109375	1	taste	trialStart	3	168	48	foodImage.113	FOODEEG_Images\0921.jpg	YN	Left	Yes	0.86678329994902	0	765908	251
1496.94921875	2	taste	foodImageDisplay	3	168	48	foodImage.113	FOODEEG_Images\0921.jpg	YN	Left	Yes	0.86678329994902	0	766439	252
1499.01171875	0.86678329994902	taste	choicePhaseStart	3	168	48	foodImage.113	FOODEEG_Images\0921.jpg	YN	Left	Yes	0.86678329994902	0	767495	253
1499.869140625	0	taste	response	3	168	48	foodImage.113	FOODEEG_Images\0921.jpg	YN	Left	Yes	0.86678329994902	0	767934	234
1500.912109375	1	decision	trialStart	3	169	49	foodImage.43	FOODEEG_Images\0445.jpg	NY	Right	Yes	1.81411010003649	0	768468	251
1501.970703125	2	decision	foodImageDisplay	3	169	49	foodImage.43	FOODEEG_Images\0445.jpg	NY	Right	Yes	1.81411010003649	0	769010	252
1504.03125	1.81411010003649	decision	choicePhaseStart	3	169	49	foodImage.43	FOODEEG_Images\0445.jpg	NY	Right	Yes	1.81411010003649	0	770065	253
1505.837890625	0	decision	response	3	169	49	foodImage.43	FOODEEG_Images\0445.jpg	NY	Right	Yes	1.81411010003649	0	770990	235
1506.880859375	1	taste	trialStart	3	170	50	foodImage.33	FOODEEG_Images\0329.jpg	YN	Left	Yes	1.25195710011758	0	771524	251
1507.923828125	2	taste	foodImageDisplay	3	170	50	foodImage.33	FOODEEG_Images\0329.jpg	YN	Left	Yes	1.25195710011758	0	772058	252
1509.986328125	1.25195710011758	taste	choicePhaseStart	3	170	50	foodImage.33	FOODEEG_Images\0329.jpg	YN	Left	Yes	1.25195710011758	0	773114	253
1511.228515625	0	taste	response	3	170	50	foodImage.33	FOODEEG_Images\0329.jpg	YN	Left	Yes	1.25195710011758	0	773750	234
1512.271484375	1	taste	trialStart	3	171	51	foodImage.28	FOODEEG_Images\0273.jpg	NY	Right	Yes	1.387846800033	0	774284	251
1513.314453125	2	taste	foodImageDisplay	3	171	51	foodImage.28	FOODEEG_Images\0273.jpg	NY	Right	Yes	1.387846800033	0	774818	252
1515.376953125	1.387846800033	taste	choicePhaseStart	3	171	51	foodImage.28	FOODEEG_Images\0273.jpg	NY	Right	Yes	1.387846800033	0	775874	253
1516.755859375	0	taste	response	3	171	51	foodImage.28	FOODEEG_Images\0273.jpg	NY	Right	Yes	1.387846800033	0	776580	235
1517.80078125	1	health	trialStart	3	172	52	foodImage.111	FOODEEG_Images\0919.jpg	YN	Right	No	3.31996539980173	0	777115	251
1518.83984375	2	health	foodImageDisplay	3	172	52	foodImage.111	FOODEEG_Images\0919.jpg	YN	Right	No	3.31996539980173	0	777647	252
1520.90234375	3.31996539980173	health	choicePhaseStart	3	172	52	foodImage.111	FOODEEG_Images\0919.jpg	YN	Right	No	3.31996539980173	0	778703	253
1524.212890625	0	health	response	3	172	52	foodImage.111	FOODEEG_Images\0919.jpg	YN	Right	No	3.31996539980173	0	780398	235
1525.25390625	1	decision	trialStart	3	173	53	foodImage.78	FOODEEG_Images\0787.jpg	YN	Right	No	0.877866100054234	0	780931	251
1526.296875	2	decision	foodImageDisplay	3	173	53	foodImage.78	FOODEEG_Images\0787.jpg	YN	Right	No	0.877866100054234	0	781465	252
1528.359375	0.877866100054234	decision	choicePhaseStart	3	173	53	foodImage.78	FOODEEG_Images\0787.jpg	YN	Right	No	0.877866100054234	0	782521	253
1529.228515625	0	decision	response	3	173	53	foodImage.78	FOODEEG_Images\0787.jpg	YN	Right	No	0.877866100054234	0	782966	235
1530.275390625	1	health	trialStart	3	174	54	foodImage.35	FOODEEG_Images\0350.jpg	NY	Left	No	1.39411440002732	0	783502	251
1531.32421875	2	health	foodImageDisplay	3	174	54	foodImage.35	FOODEEG_Images\0350.jpg	NY	Left	No	1.39411440002732	0	784039	252
1533.38671875	1.39411440002732	health	choicePhaseStart	3	174	54	foodImage.35	FOODEEG_Images\0350.jpg	NY	Left	No	1.39411440002732	0	785095	253
1534.771484375	0	health	response	3	174	54	foodImage.35	FOODEEG_Images\0350.jpg	NY	Left	No	1.39411440002732	0	785804	234
1535.81640625	1	taste	trialStart	3	175	55	foodImage.91	FOODEEG_Images\0896.jpg	YN	Left	Yes	0.836578600108624	0	786339	251
1536.873046875	2	taste	foodImageDisplay	3	175	55	foodImage.91	FOODEEG_Images\0896.jpg	YN	Left	Yes	0.836578600108624	0	786880	252
1538.935546875	0.836578600108624	taste	choicePhaseStart	3	175	55	foodImage.91	FOODEEG_Images\0896.jpg	YN	Left	Yes	0.836578600108624	0	787936	253
1539.763671875	0	taste	response	3	175	55	foodImage.91	FOODEEG_Images\0896.jpg	YN	Left	Yes	0.836578600108624	0	788360	234
1540.80859375	1	health	trialStart	3	176	56	foodImage.116	FOODEEG_Images\0924.jpg	YN	Right	No	1.07750350004062	0	788895	251
1541.84765625	2	health	foodImageDisplay	3	176	56	foodImage.116	FOODEEG_Images\0924.jpg	YN	Right	No	1.07750350004062	0	789427	252
1543.91015625	1.07750350004062	health	choicePhaseStart	3	176	56	foodImage.116	FOODEEG_Images\0924.jpg	YN	Right	No	1.07750350004062	0	790483	253
1544.978515625	0	health	response	3	176	56	foodImage.116	FOODEEG_Images\0924.jpg	YN	Right	No	1.07750350004062	0	791030	235
1546.0234375	1	decision	trialStart	3	177	57	foodImage.15	FOODEEG_Images\0189.jpg	NY	Right	Yes	1.23822969989851	0	791565	251
1547.080078125	2	decision	foodImageDisplay	3	177	57	foodImage.15	FOODEEG_Images\0189.jpg	NY	Right	Yes	1.23822969989851	0	792106	252
1549.142578125	1.23822969989851	decision	choicePhaseStart	3	177	57	foodImage.15	FOODEEG_Images\0189.jpg	NY	Right	Yes	1.23822969989851	0	793162	253
1550.37109375	0	decision	response	3	177	57	foodImage.15	FOODEEG_Images\0189.jpg	NY	Right	Yes	1.23822969989851	0	793791	235
1551.412109375	1	decision	trialStart	3	178	58	foodImage.46	FOODEEG_Images\0479.jpg	NY	Right	Yes	0.987979199970141	0	794324	251
1552.466796875	2	decision	foodImageDisplay	3	178	58	foodImage.46	FOODEEG_Images\0479.jpg	NY	Right	Yes	0.987979199970141	0	794864	252
1554.529296875	0.987979199970141	decision	choicePhaseStart	3	178	58	foodImage.46	FOODEEG_Images\0479.jpg	NY	Right	Yes	0.987979199970141	0	795920	253
1555.5078125	0	decision	response	3	178	58	foodImage.46	FOODEEG_Images\0479.jpg	NY	Right	Yes	0.987979199970141	0	796421	235
1556.548828125	1	decision	trialStart	3	179	59	foodImage.10	FOODEEG_Images\0145.jpg	YN	Left	Yes	0.984050699975342	0	796954	251
1557.60546875	2	decision	foodImageDisplay	3	179	59	foodImage.10	FOODEEG_Images\0145.jpg	YN	Left	Yes	0.984050699975342	0	797495	252
1559.66796875	0.984050699975342	decision	choicePhaseStart	3	179	59	foodImage.10	FOODEEG_Images\0145.jpg	YN	Left	Yes	0.984050699975342	0	798551	253
1560.642578125	0	decision	response	3	179	59	foodImage.10	FOODEEG_Images\0145.jpg	YN	Left	Yes	0.984050699975342	0	799050	234
1561.6875	1	health	trialStart	3	180	60	foodImage.14	FOODEEG_Images\0188.jpg	NY	Left	No	1.21799759985879	0	799585	251
1562.74609375	2	health	foodImageDisplay	3	180	60	foodImage.14	FOODEEG_Images\0188.jpg	NY	Left	No	1.21799759985879	0	800127	252
1564.80859375	1.21799759985879	health	choicePhaseStart	3	180	60	foodImage.14	FOODEEG_Images\0188.jpg	NY	Left	No	1.21799759985879	0	801183	253
1566.01953125	0	health	response	3	180	60	foodImage.14	FOODEEG_Images\0188.jpg	NY	Left	No	1.21799759985879	0	801803	234
1568.060546875	22.134765625	n/a	blockEnd	n/a	n/a	n/a	n/a	n/a	n/a	n/a	n/a	n/a	n/a	802848	254
1590.1953125	2	n/a	blockStart	4	n/a	n/a	n/a	n/a	n/a	n/a	n/a	n/a	n/a	814181	250
1592.2265625	1	decision	trialStart	4	181	1	foodImage.94	FOODEEG_Images\0902.jpg	NY	Right	Yes	1.10561770014465	0	815221	251
1593.265625	2	decision	foodImageDisplay	4	181	1	foodImage.94	FOODEEG_Images\0902.jpg	NY	Right	Yes	1.10561770014465	0	815753	252
1595.330078125	1.10561770014465	decision	choicePhaseStart	4	181	1	foodImage.94	FOODEEG_Images\0902.jpg	NY	Right	Yes	1.10561770014465	0	816810	253
1596.42578125	0	decision	response	4	181	1	foodImage.94	FOODEEG_Images\0902.jpg	NY	Right	Yes	1.10561770014465	0	817371	235
1597.46484375	1	health	trialStart	4	182	2	foodImage.118	FOODEEG_Images\0926.jpg	NY	Left	No	1.45227429992519	0	817903	251
1598.50390625	2	health	foodImageDisplay	4	182	2	foodImage.118	FOODEEG_Images\0926.jpg	NY	Left	No	1.45227429992519	0	818435	252
1600.56640625	1.45227429992519	health	choicePhaseStart	4	182	2	foodImage.118	FOODEEG_Images\0926.jpg	NY	Left	No	1.45227429992519	0	819491	253
1602.009765625	0	health	response	4	182	2	foodImage.118	FOODEEG_Images\0926.jpg	NY	Left	No	1.45227429992519	0	820230	234
1603.05078125	1	decision	trialStart	4	183	3	foodImage.36	FOODEEG_Images\0352.jpg	YN	Left	Yes	1.40474830009043	0	820763	251
1604.111328125	2	decision	foodImageDisplay	4	183	3	foodImage.36	FOODEEG_Images\0352.jpg	YN	Left	Yes	1.40474830009043	0	821306	252
1606.173828125	1.40474830009043	decision	choicePhaseStart	4	183	3	foodImage.36	FOODEEG_Images\0352.jpg	YN	Left	Yes	1.40474830009043	0	822362	253
1607.568359375	0	decision	response	4	183	3	foodImage.36	FOODEEG_Images\0352.jpg	YN	Left	Yes	1.40474830009043	0	823076	234
1608.611328125	1	decision	trialStart	4	184	4	foodImage.91	FOODEEG_Images\0896.jpg	YN	Left	Yes	0.93540389998816	0	823610	251
1609.66796875	2	decision	foodImageDisplay	4	184	4	foodImage.91	FOODEEG_Images\0896.jpg	YN	Left	Yes	0.93540389998816	0	824151	252
1611.73046875	0.93540389998816	decision	choicePhaseStart	4	184	4	foodImage.91	FOODEEG_Images\0896.jpg	YN	Left	Yes	0.93540389998816	0	825207	253
1612.65625	0	decision	response	4	184	4	foodImage.91	FOODEEG_Images\0896.jpg	YN	Left	Yes	0.93540389998816	0	825681	234
1613.701171875	1	taste	trialStart	4	185	5	foodImage.70	FOODEEG_Images\0705.jpg	YN	Left	Yes	0.83653139998205	0	826216	251
1614.759765625	2	taste	foodImageDisplay	4	185	5	foodImage.70	FOODEEG_Images\0705.jpg	YN	Left	Yes	0.83653139998205	0	826758	252
1616.822265625	0.83653139998205	taste	choicePhaseStart	4	185	5	foodImage.70	FOODEEG_Images\0705.jpg	YN	Left	Yes	0.83653139998205	0	827814	253
1617.6484375	0	taste	response	4	185	5	foodImage.70	FOODEEG_Images\0705.jpg	YN	Left	Yes	0.83653139998205	0	828237	234
1618.689453125	1	health	trialStart	4	186	6	foodImage.74	FOODEEG_Images\0752.jpg	YN	Left	Yes	0.766641800059006	0	828770	251
1619.734375	2	health	foodImageDisplay	4	186	6	foodImage.74	FOODEEG_Images\0752.jpg	YN	Left	Yes	0.766641800059006	0	829305	252
1621.796875	0.766641800059006	health	choicePhaseStart	4	186	6	foodImage.74	FOODEEG_Images\0752.jpg	YN	Left	Yes	0.766641800059006	0	830361	253
1622.552734375	0	health	response	4	186	6	foodImage.74	FOODEEG_Images\0752.jpg	YN	Left	Yes	0.766641800059006	0	830748	234
1623.59375	1	taste	trialStart	4	187	7	foodImage.71	FOODEEG_Images\0713.jpg	NY	Right	Yes	0.712793000042439	0	831281	251
1624.6328125	2	taste	foodImageDisplay	4	187	7	foodImage.71	FOODEEG_Images\0713.jpg	NY	Right	Yes	0.712793000042439	0	831813	252
1626.697265625	0.712793000042439	taste	choicePhaseStart	4	187	7	foodImage.71	FOODEEG_Images\0713.jpg	NY	Right	Yes	0.712793000042439	0	832870	253
1627.400390625	0	taste	response	4	187	7	foodImage.71	FOODEEG_Images\0713.jpg	NY	Right	Yes	0.712793000042439	0	833230	235
1628.443359375	1	taste	trialStart	4	188	8	foodImage.9	FOODEEG_Images\0138.jpg	NY	Right	Yes	1.97192010004073	0	833764	251
1629.501953125	2	taste	foodImageDisplay	4	188	8	foodImage.9	FOODEEG_Images\0138.jpg	NY	Right	Yes	1.97192010004073	0	834306	252
1631.564453125	1.97192010004073	taste	choicePhaseStart	4	188	8	foodImage.9	FOODEEG_Images\0138.jpg	NY	Right	Yes	1.97192010004073	0	835362	253
1633.52734375	0	taste	response	4	188	8	foodImage.9	FOODEEG_Images\0138.jpg	NY	Right	Yes	1.97192010004073	0	836367	235
1634.572265625	1	health	trialStart	4	189	9	foodImage.65	FOODEEG_Images\0658.jpg	YN	Right	No	2.1832608000841	0	836902	251
1635.61328125	2	health	foodImageDisplay	4	189	9	foodImage.65	FOODEEG_Images\0658.jpg	YN	Right	No	2.1832608000841	0	837435	252
1637.673828125	2.1832608000841	health	choicePhaseStart	4	189	9	foodImage.65	FOODEEG_Images\0658.jpg	YN	Right	No	2.1832608000841	0	838490	253
1639.84765625	0	health	response	4	189	9	foodImage.65	FOODEEG_Images\0658.jpg	YN	Right	No	2.1832608000841	0	839603	235
1640.888671875	1	taste	trialStart	4	190	10	foodImage.69	FOODEEG_Images\0693.jpg	NY	Right	Yes	1.12802519998513	0	840136	251
1641.931640625	2	taste	foodImageDisplay	4	190	10	foodImage.69	FOODEEG_Images\0693.jpg	NY	Right	Yes	1.12802519998513	0	840670	252
1643.994140625	1.12802519998513	taste	choicePhaseStart	4	190	10	foodImage.69	FOODEEG_Images\0693.jpg	NY	Right	Yes	1.12802519998513	0	841726	253
1645.11328125	0	taste	response	4	190	10	foodImage.69	FOODEEG_Images\0693.jpg	NY	Right	Yes	1.12802519998513	0	842299	235
1646.15625	1	taste	trialStart	4	191	11	foodImage.12	FOODEEG_Images\0181.jpg	NY	Right	Yes	1.12362070009112	0	842833	251
1647.197265625	2	taste	foodImageDisplay	4	191	11	foodImage.12	FOODEEG_Images\0181.jpg	NY	Right	Yes	1.12362070009112	0	843366	252
1649.259765625	1.12362070009112	taste	choicePhaseStart	4	191	11	foodImage.12	FOODEEG_Images\0181.jpg	NY	Right	Yes	1.12362070009112	0	844422	253
1650.375	0	taste	response	4	191	11	foodImage.12	FOODEEG_Images\0181.jpg	NY	Right	Yes	1.12362070009112	0	844993	235
1651.419921875	1	decision	trialStart	4	192	12	foodImage.51	FOODEEG_Images\0536.jpg	NY	Right	Yes	0.791705999989063	0	845528	251
1652.46484375	2	decision	foodImageDisplay	4	192	12	foodImage.51	FOODEEG_Images\0536.jpg	NY	Right	Yes	0.791705999989063	0	846063	252
1654.52734375	0.791705999989063	decision	choicePhaseStart	4	192	12	foodImage.51	FOODEEG_Images\0536.jpg	NY	Right	Yes	0.791705999989063	0	847119	253
1655.310546875	0	decision	response	4	192	12	foodImage.51	FOODEEG_Images\0536.jpg	NY	Right	Yes	0.791705999989063	0	847520	235
1656.357421875	1	decision	trialStart	4	193	13	foodImage.11	FOODEEG_Images\0180.jpg	NY	Left	No	1.66614670003764	0	848056	251
1657.3984375	2	decision	foodImageDisplay	4	193	13	foodImage.11	FOODEEG_Images\0180.jpg	NY	Left	No	1.66614670003764	0	848589	252
1659.4609375	1.66614670003764	decision	choicePhaseStart	4	193	13	foodImage.11	FOODEEG_Images\0180.jpg	NY	Left	No	1.66614670003764	0	849645	253
1661.119140625	0	decision	response	4	193	13	foodImage.11	FOODEEG_Images\0180.jpg	NY	Left	No	1.66614670003764	0	850494	234
1662.16015625	1	taste	trialStart	4	194	14	foodImage.56	FOODEEG_Images\0586.jpg	YN	Left	Yes	1.22152730007656	0	851027	251
