onset	duration	trial_type	event_type	block	trial_total	trial_in_block	food_image_code	food_image_path	button_position	resp_position	resp_choice	choice_rt	resp_too_slow	sample	trigger
220.07421875	2	n/a	blockStart	1	n/a	n/a	n/a	n/a	n/a	n/a	n/a	n/a	n/a	112679	250
222.111328125	1	health	trialStart	1	1	1	foodImage.91	FOODEEG_Images\0896.jpg	NY	Left	No	0.867273900003056	0	113722	251
223.169921875	2	health	foodImageDisplay	1	1	1	foodImage.91	FOODEEG_Images\0896.jpg	NY	Left	No	0.867273900003056	0	114264	252
225.234375	0.867273900003056	health	choicePhaseStart	1	1	1	foodImage.91	FOODEEG_Images\0896.jpg	NY	Left	No	0.867273900003056	0	115321	253
226.09375	0	health	response	1	1	1	foodImage.91	FOODEEG_Images\0896.jpg	NY	Left	No	0.867273900003056	0	115761	234
227.1796875	1	health	trialStart	1	2	2	foodImage.55	FOODEEG_Images\0567.jpg	YN	Left	Yes	0.993819800001802	0	116317	251
228.236328125	2	health	foodImageDisplay	1	2	2	foodImage.55	FOODEEG_Images\0567.jpg	YN	Left	Yes	0.993819800001802	0	116858	252
230.30078125	0.993819800001802	health	choicePhaseStart	1	2	2	foodImage.55	FOODEEG_Images\0567.jpg	YN	Left	Yes	0.993819800001802	0	117915	253
231.28515625	0	health	response	1	2	2	foodImage.55	FOODEEG_Images\0567.jpg	YN	Left	Yes	0.993819800001802	0	118419	234
232.337890625	1	health	trialStart	1	3	3	foodImage.76	FOODEEG_Images\0766.jpg	NY	Right	Yes	0.774007799998799	0	118958	251
233.3828125	2	health	foodImageDisplay	1	3	3	foodImage.76	FOODEEG_Images\0766.jpg	NY	Right	Yes	0.774007799998799	0	119493	252
235.447265625	0.774007799998799	health	choicePhaseStart	1	3	3	foodImage.76	FOODEEG_Images\0766.jpg	NY	Right	Yes	0.774007799998799	0	120550	253
236.212890625	0	health	response	1	3	3	foodImage.76	FOODEEG_Images\0766.jpg	NY	Right	Yes	0.774007799998799	0	120942	235
237.2578125	1	taste	trialStart	1	4	4	foodImage.21	FOODEEG_Images\0234.jpg	NY	Right	Yes	0.638335300001927	0	121477	251
238.314453125	2	taste	foodImageDisplay	1	4	4	foodImage.21	FOODEEG_Images\0234.jpg	NY	Right	Yes	0.638335300001927	0	122018	252
240.380859375	0.638335300001927	taste	choicePhaseStart	1	4	4	foodImage.21	FOODEEG_Images\0234.jpg	NY	Right	Yes	0.638335300001927	0	123076	253
241.013671875	0	taste	response	1	4	4	foodImage.21	FOODEEG_Images\0234.jpg	NY	Right	Yes	0.638335300001927	0	123400	235
242.0546875	1	taste	trialStart	1	5	5	foodImage.48	FOODEEG_Images\0494.jpg	NY	Left	No	1.06549680000171	0	123933	251
243.099609375	2	taste	foodImageDisplay	1	5	5	foodImage.48	FOODEEG_Images\0494.jpg	NY	Left	No	1.06549680000171	0	124468	252
245.1640625	1.06549680000171	taste	choicePhaseStart	1	5	5	foodImage.48	FOODEEG_Images\0494.jpg	NY	Left	No	1.06549680000171	0	125525	253
246.220703125	0	taste	response	1	5	5	foodImage.48	FOODEEG_Images\0494.jpg	NY	Left	No	1.06549680000171	0	126066	234
247.2734375	1	taste	trialStart	1	6	6	foodImage.50	FOODEEG_Images\0529.jpg	NY	Left	No	2.38559570000143	0	126605	251
248.333984375	2	taste	foodImageDisplay	1	6	6	foodImage.50	FOODEEG_Images\0529.jpg	NY	Left	No	2.38559570000143	0	127148	252
250.3984375	2.38559570000143	taste	choicePhaseStart	1	6	6	foodImage.50	FOODEEG_Images\0529.jpg	NY	Left	No	2.38559570000143	0	128205	253
252.78125	0	taste	response	1	6	6	foodImage.50	FOODEEG_Images\0529.jpg	NY	Left	No	2.38559570000143	0	129425	234
253.822265625	1	decision	trialStart	1	7	7	foodImage.28	FOODEEG_Images\0273.jpg	NY	Left	No	0.895182399999612	0	129958	251
254.861328125	2	decision	foodImageDisplay	1	7	7	foodImage.28	FOODEEG_Images\0273.jpg	NY	Left	No	0.895182399999612	0	130490	252
256.92578125	0.895182399999612	decision	choicePhaseStart	1	7	7	foodImage.28	FOODEEG_Images\0273.jpg	NY	Left	No	0.895182399999612	0	131547	253
257.8125	0	decision	response	1	7	7	foodImage.28	FOODEEG_Images\0273.jpg	NY	Left	No	0.895182399999612	0	132001	234
258.857421875	1	health	trialStart	1	8	8	foodImage.16	FOODEEG_Images\0196.jpg	NY	Right	Yes	0.626141400000051	0	132536	251
259.9140625	2	health	foodImageDisplay	1	8	8	foodImage.16	FOODEEG_Images\0196.jpg	NY	Right	Yes	0.626141400000051	0	133077	252
261.978515625	0.626141400000051	health	choicePhaseStart	1	8	8	foodImage.16	FOODEEG_Images\0196.jpg	NY	Right	Yes	0.626141400000051	0	134134	253
262.595703125	0	health	response	1	8	8	foodImage.16	FOODEEG_Images\0196.jpg	NY	Right	Yes	0.626141400000051	0	134450	235
263.640625	1	decision	trialStart	1	9	9	foodImage.65	FOODEEG_Images\0658.jpg	YN	Right	No	1.91592929999752	0	134985	251
264.681640625	2	decision	foodImageDisplay	1	9	9	foodImage.65	FOODEEG_Images\0658.jpg	YN	Right	No	1.91592929999752	0	135518	252
266.74609375	1.91592929999752	decision	choicePhaseStart	1	9	9	foodImage.65	FOODEEG_Images\0658.jpg	YN	Right	No	1.91592929999752	0	136575	253
268.65234375	0	decision	response	1	9	9	foodImage.65	FOODEEG_Images\0658.jpg	YN	Right	No	1.91592929999752	0	137551	235
269.6953125	1	decision	trialStart	1	10	10	foodImage.69	FOODEEG_Images\0693.jpg	NY	Left	No	1.07492260000072	0	138085	251
270.736328125	2	decision	foodImageDisplay	1	10	10	foodImage.69	FOODEEG_Images\0693.jpg	NY	Left	No	1.07492260000072	0	138618	252
272.80078125	1.07492260000072	decision	choicePhaseStart	1	10	10	foodImage.69	FOODEEG_Images\0693.jpg	NY	Left	No	1.07492260000072	0	139675	253
273.8671875	0	decision	response	1	10	10	foodImage.69	FOODEEG_Images\0693.jpg	NY	Left	No	1.07492260000072	0	140221	234
274.916015625	1	taste	trialStart	1	11	11	foodImage.56	FOODEEG_Images\0586.jpg	YN	Right	No	0.798917699998128	0	140758	251
275.95703125	2	taste	foodImageDisplay	1	11	11	foodImage.56	FOODEEG_Images\0586.jpg	YN	Right	No	0.798917699998128	0	141291	252
278.021484375	0.798917699998128	taste	choicePhaseStart	1	11	11	foodImage.56	FOODEEG_Images\0586.jpg	YN	Right	No	0.798917699998128	0	142348	253
278.8125	0	taste	response	1	11	11	foodImage.56	FOODEEG_Images\0586.jpg	YN	Right	No	0.798917699998128	0	142753	235
279.853515625	1	health	trialStart	1	12	12	foodImage.116	FOODEEG_Images\0924.jpg	YN	Right	No	0.891833400000905	0	143286	251
280.89453125	2	health	foodImageDisplay	1	12	12	foodImage.116	FOODEEG_Images\0924.jpg	YN	Right	No	0.891833400000905	0	143819	252
282.958984375	0.891833400000905	health	choicePhaseStart	1	12	12	foodImage.116	FOODEEG_Images\0924.jpg	YN	Right	No	0.891833400000905	0	144876	253
283.84375	0	health	response	1	12	12	foodImage.116	FOODEEG_Images\0924.jpg	YN	Right	No	0.891833400000905	0	145329	235
284.8828125	1	decision	trialStart	1	13	13	foodImage.30	FOODEEG_Images\0282.jpg	NY	Right	Yes	0.590567199997167	0	145861	251
285.92578125	2	decision	foodImageDisplay	1	13	13	foodImage.30	FOODEEG_Images\0282.jpg	NY	Right	Yes	0.590567199997167	0	146395	252
287.990234375	0.590567199997167	decision	choicePhaseStart	1	13	13	foodImage.30	FOODEEG_Images\0282.jpg	NY	Right	Yes	0.590567199997167	0	147452	253
288.5703125	0	decision	response	1	13	13	foodImage.30	FOODEEG_Images\0282.jpg	NY	Right	Yes	0.590567199997167	0	147749	235
289.615234375	1	taste	trialStart	1	14	14	foodImage.70	FOODEEG_Images\0705.jpg	YN	Left	Yes	0.618411200000992	0	148284	251
290.669921875	2	taste	foodImageDisplay	1	14	14	foodImage.70	FOODEEG_Images\0705.jpg	YN	Left	Yes	0.618411200000992	0	148824	252
292.734375	0.618411200000992	taste	choicePhaseStart	1	14	14	foodImage.70	FOODEEG_Images\0705.jpg	YN	Left	Yes	0.618411200000992	0	149881	253
293.345703125	0	taste	response	1	14	14	foodImage.70	FOODEEG_Images\0705.jpg	YN	Left	Yes	0.618411200000992	0	150194	234
294.388671875	1	taste	trialStart	1	15	15	foodImage.23	FOODEEG_Images\0244.jpg	YN	Left	Yes	0.641824600003019	0	150728	251
295.4296875	2	taste	foodImageDisplay	1	15	15	foodImage.23	FOODEEG_Images\0244.jpg	YN	Left	Yes	0.641824600003019	0	151261	252
297.49609375	0.641824600003019	taste	choicePhaseStart	1	15	15	foodImage.23	FOODEEG_Images\0244.jpg	YN	Left	Yes	0.641824600003019	0	152319	253
298.130859375	0	taste	response	1	15	15	foodImage.23	FOODEEG_Images\0244.jpg	YN	Left	Yes	0.641824600003019	0	152644	234
299.171875	1	decision	trialStart	1	16	16	foodImage.68	FOODEEG_Images\0685.jpg	YN	Left	Yes	0.77880709999954	0	153177	251
300.248046875	2	decision	foodImageDisplay	1	16	16	foodImage.68	FOODEEG_Images\0685.jpg	YN	Left	Yes	0.77880709999954	0	153728	252
302.3125	0.77880709999954	decision	choicePhaseStart	1	16	16	foodImage.68	FOODEEG_Images\0685.jpg	YN	Left	Yes	0.77880709999954	0	154785	253
303.08203125	0	decision	response	1	16	16	foodImage.68	FOODEEG_Images\0685.jpg	YN	Left	Yes	0.77880709999954	0	155179	234
304.123046875	1	taste	trialStart	1	17	17	foodImage.25	FOODEEG_Images\0261.jpg	NY	Right	Yes	0.792585600000166	0	155712	251
305.1640625	2	taste	foodImageDisplay	1	17	17	foodImage.25	FOODEEG_Images\0261.jpg	NY	Right	Yes	0.792585600000166	0	156245	252
307.2265625	0.792585600000166	taste	choicePhaseStart	1	17	17	foodImage.25	FOODEEG_Images\0261.jpg	NY	Right	Yes	0.792585600000166	0	157301	253
308.009765625	0	taste	response	1	17	17	foodImage.25	FOODEEG_Images\0261.jpg	NY	Right	Yes	0.792585600000166	0	157702	235
309.05078125	1	health	trialStart	1	18	18	foodImage.40	FOODEEG_Images\0373.jpg	NY	Left	No	0.870458900000813	0	158235	251
310.09375	2	health	foodImageDisplay	1	18	18	foodImage.40	FOODEEG_Images\0373.jpg	NY	Left	No	0.870458900000813	0	158769	252
312.158203125	0.870458900000813	health	choicePhaseStart	1	18	18	foodImage.40	FOODEEG_Images\0373.jpg	NY	Left	No	0.870458900000813	0	159826	253
313.017578125	0	health	response	1	18	18	foodImage.40	FOODEEG_Images\0373.jpg	NY	Left	No	0.870458900000813	0	160266	234
314.05859375	1	decision	trialStart	1	19	19	foodImage.20	FOODEEG_Images\0226.jpg	YN	Right	No	0.713902000003145	0	160799	251
315.099609375	2	decision	foodImageDisplay	1	19	19	foodImage.20	FOODEEG_Images\0226.jpg	YN	Right	No	0.713902000003145	0	161332	252
317.162109375	0.713902000003145	decision	choicePhaseStart	1	19	19	foodImage.20	FOODEEG_Images\0226.jpg	YN	Right	No	0.713902000003145	0	162388	253
317.865234375	0	decision	response	1	19	19	foodImage.20	FOODEEG_Images\0226.jpg	YN	Right	No	0.713902000003145	0	162748	235
318.90625	1	decision	trialStart	1	20	20	foodImage.83	FOODEEG_Images\0827.jpg	NY	Left	No	1.15460880000319	0	163281	251
319.9609375	2	decision	foodImageDisplay	1	20	20	foodImage.83	FOODEEG_Images\0827.jpg	NY	Left	No	1.15460880000319	0	163821	252
322.025390625	1.15460880000319	decision	choicePhaseStart	1	20	20	foodImage.83	FOODEEG_Images\0827.jpg	NY	Left	No	1.15460880000319	0	164878	253
323.169921875	0	decision	response	1	20	20	foodImage.83	FOODEEG_Images\0827.jpg	NY	Left	No	1.15460880000319	0	165464	234
324.2109375	1	taste	trialStart	1	21	21	foodImage.118	FOODEEG_Images\0926.jpg	NY	Left	No	0.812186300001486	0	165997	251
325.248046875	2	taste	foodImageDisplay	1	21	21	foodImage.118	FOODEEG_Images\0926.jpg	NY	Left	No	0.812186300001486	0	166528	252
327.310546875	0.812186300001486	taste	choicePhaseStart	1	21	21	foodImage.118	FOODEEG_Images\0926.jpg	NY	Left	No	0.812186300001486	0	167584	253
328.11328125	0	taste	response	1	21	21	foodImage.118	FOODEEG_Images\0926.jpg	NY	Left	No	0.812186300001486	0	167995	234
329.154296875	1	health	trialStart	1	22	22	foodImage.117	FOODEEG_Images\0925.jpg	YN	Right	No	1.22545159999936	0	168528	251
330.193359375	2	health	foodImageDisplay	1	22	22	foodImage.117	FOODEEG_Images\0925.jpg	YN	Right	No	1.22545159999936	0	169060	252
332.2578125	1.22545159999936	health	choicePhaseStart	1	22	22	foodImage.117	FOODEEG_Images\0925.jpg	YN	Right	No	1.22545159999936	0	170117	253
333.47265625	0	health	response	1	22	22	foodImage.117	FOODEEG_Images\0925.jpg	YN	Right	No	1.22545159999936	0	170739	235
334.515625	1	health	trialStart	1	23	23	foodImage.83	FOODEEG_Images\0827.jpg	NY	Right	Yes	1.19016290000218	0	171273	251
335.57421875	2	health	foodImageDisplay	1	23	23	foodImage.83	FOODEEG_Images\0827.jpg	NY	Right	Yes	1.19016290000218	0	171815	252
337.63671875	1.19016290000218	health	choicePhaseStart	1	23	23	foodImage.83	FOODEEG_Images\0827.jpg	NY	Right	Yes	1.19016290000218	0	172871	253
338.81640625	0	health	response	1	23	23	foodImage.83	FOODEEG_Images\0827.jpg	NY	Right	Yes	1.19016290000218	0	173475	235
339.857421875	1	decision	trialStart	1	24	24	foodImage.45	FOODEEG_Images\0478.jpg	YN	Right	No	1.50097240000105	0	174008	251
340.90234375	2	decision	foodImageDisplay	1	24	24	foodImage.45	FOODEEG_Images\0478.jpg	YN	Right	No	1.50097240000105	0	174543	252
342.966796875	1.50097240000105	decision	choicePhaseStart	1	24	24	foodImage.45	FOODEEG_Images\0478.jpg	YN	Right	No	1.50097240000105	0	175600	253
344.45703125	0	decision	response	1	24	24	foodImage.45	FOODEEG_Images\0478.jpg	YN	Right	No	1.50097240000105	0	176363	235
345.5	1	taste	trialStart	1	25	25	foodImage.49	FOODEEG_Images\0515.jpg	YN	Left	Yes	0.70224810000218	0	176897	251
346.541015625	2	taste	foodImageDisplay	1	25	25	foodImage.49	FOODEEG_Images\0515.jpg	YN	Left	Yes	0.70224810000218	0	177430	252
348.603515625	0.70224810000218	taste	choicePhaseStart	1	25	25	foodImage.49	FOODEEG_Images\0515.jpg	YN	Left	Yes	0.70224810000218	0	178486	253
349.296875	0	taste	response	1	25	25	foodImage.49	FOODEEG_Images\0515.jpg	YN	Left	Yes	0.70224810000218	0	178841	234
350.337890625	1	taste	trialStart	1	26	26	foodImage.34	FOODEEG_Images\0339.jpg	YN	Right	No	0.808822200000577	0	179374	251
351.39453125	2	taste	foodImageDisplay	1	26	26	foodImage.34	FOODEEG_Images\0339.jpg	YN	Right	No	0.808822200000577	0	179915	252
353.45703125	0.808822200000577	taste	choicePhaseStart	1	26	26	foodImage.34	FOODEEG_Images\0339.jpg	YN	Right	No	0.808822200000577	0	180971	253
354.255859375	0	taste	response	1	26	26	foodImage.34	FOODEEG_Images\0339.jpg	YN	Right	No	0.808822200000577	0	181380	235
355.296875	1	decision	trialStart	1	27	27	foodImage.56	FOODEEG_Images\0586.jpg	YN	Right	No	0.842772199997853	0	181913	251
356.337890625	2	decision	foodImageDisplay	1	27	27	foodImage.56	FOODEEG_Images\0586.jpg	YN	Right	No	0.842772199997853	0	182446	252
358.408203125	0.842772199997853	decision	choicePhaseStart	1	27	27	foodImage.56	FOODEEG_Images\0586.jpg	YN	Right	No	0.842772199997853	0	183506	253
359.240234375	0	decision	response	1	27	27	foodImage.56	FOODEEG_Images\0586.jpg	YN	Right	No	0.842772199997853	0	183932	235
360.283203125	1	decision	trialStart	1	28	28	foodImage.89	FOODEEG_Images\0881.jpg	YN	Left	Yes	0.535293100001581	0	184466	251
361.337890625	2	decision	foodImageDisplay	1	28	28	foodImage.89	FOODEEG_Images\0881.jpg	YN	Left	Yes	0.535293100001581	0	185006	252
363.40234375	0.535293100001581	decision	choicePhaseStart	1	28	28	foodImage.89	FOODEEG_Images\0881.jpg	YN	Left	Yes	0.535293100001581	0	186063	253
363.927734375	0	decision	response	1	28	28	foodImage.89	FOODEEG_Images\0881.jpg	YN	Left	Yes	0.535293100001581	0	186332	234
364.96875	1	decision	trialStart	1	29	29	foodImage.103	FOODEEG_Images\0911.jpg	YN	Right	No	0.689507900002354	0	186865	251
366.005859375	2	decision	foodImageDisplay	1	29	29	foodImage.103	FOODEEG_Images\0911.jpg	YN	Right	No	0.689507900002354	0	187396	252
368.0703125	0.689507900002354	decision	choicePhaseStart	1	29	29	foodImage.103	FOODEEG_Images\0911.jpg	YN	Right	No	0.689507900002354	0	188453	253
368.751953125	0	decision	response	1	29	29	foodImage.103	FOODEEG_Images\0911.jpg	YN	Right	No	0.689507900002354	0	188802	235
369.79296875	1	health	trialStart	1	30	30	foodImage.110	FOODEEG_Images\0918.jpg	NY	Left	No	1.65028430000166	0	189335	251
370.83203125	2	health	foodImageDisplay	1	30	30	foodImage.110	FOODEEG_Images\0918.jpg	NY	Left	No	1.65028430000166	0	189867	252
372.89453125	1.65028430000166	health	choicePhaseStart	1	30	30	foodImage.110	FOODEEG_Images\0918.jpg	NY	Left	No	1.65028430000166	0	190923	253
374.53515625	0	health	response	1	30	30	foodImage.110	FOODEEG_Images\0918.jpg	NY	Left	No	1.65028430000166	0	191763	234
375.576171875	1	health	trialStart	1	31	31	foodImage.13	FOODEEG_Images\0183.jpg	YN	Left	Yes	0.58438070000193	0	192296	251
376.6171875	2	health	foodImageDisplay	1	31	31	foodImage.13	FOODEEG_Images\0183.jpg	YN	Left	Yes	0.58438070000193	0	192829	252
378.6796875	0.58438070000193	health	choicePhaseStart	1	31	31	foodImage.13	FOODEEG_Images\0183.jpg	YN	Left	Yes	0.58438070000193	0	193885	253
379.255859375	0	health	response	1	31	31	foodImage.13	FOODEEG_Images\0183.jpg	YN	Left	Yes	0.58438070000193	0	194180	234
380.294921875	1	decision	trialStart	1	32	32	foodImage.23	FOODEEG_Images\0244.jpg	YN	Left	Yes	0.57300960000066	0	194712	251
381.3359375	2	decision	foodImageDisplay	1	32	32	foodImage.23	FOODEEG_Images\0244.jpg	YN	Left	Yes	0.57300960000066	0	195245	252
383.404296875	0.57300960000066	decision	choicePhaseStart	1	32	32	foodImage.23	FOODEEG_Images\0244.jpg	YN	Left	Yes	0.57300960000066	0	196304	253
383.966796875	0	decision	response	1	32	32	foodImage.23	FOODEEG_Images\0244.jpg	YN	Left	Yes	0.57300960000066	0	196592	234
385.0078125	1	health	trialStart	1	33	33	foodImage.101	FOODEEG_Images\0909.jpg	NY	Left	No	1.68907259999833	0	197125	251
386.046875	2	health	foodImageDisplay	1	33	33	foodImage.101	FOODEEG_Images\0909.jpg	NY	Left	No	1.68907259999833	0	197657	252
388.109375	1.68907259999833	health	choicePhaseStart	1	33	33	foodImage.101	FOODEEG_Images\0909.jpg	NY	Left	No	1.68907259999833	0	198713	253
389.791015625	0	health	response	1	33	33	foodImage.101	FOODEEG_Images\0909.jpg	NY	Left	No	1.68907259999833	0	199574	234
390.83203125	1	taste	trialStart	1	34	34	foodImage.111	FOODEEG_Images\0919.jpg	NY	Left	No	0.84900060000291	0	200107	251
391.87109375	2	taste	foodImageDisplay	1	34	34	foodImage.111	FOODEEG_Images\0919.jpg	NY	Left	No	0.84900060000291	0	200639	252
393.935546875	0.84900060000291	taste	choicePhaseStart	1	34	34	foodImage.111	FOODEEG_Images\0919.jpg	NY	Left	No	0.84900060000291	0	201696	253
394.775390625	0	taste	response	1	34	34	foodImage.111	FOODEEG_Images\0919.jpg	NY	Left	No	0.84900060000291	0	202126	234
395.818359375	1	taste	trialStart	1	35	35	foodImage.2	FOODEEG_Images\0028.jpg	NY	Right	Yes	0.540183299999626	0	202660	251
396.861328125	2	taste	foodImageDisplay	1	35	35	foodImage.2	FOODEEG_Images\0028.jpg	NY	Right	Yes	0.540183299999626	0	203194	252
398.923828125	0.540183299999626	taste	choicePhaseStart	1	35	35	foodImage.2	FOODEEG_Images\0028.jpg	NY	Right	Yes	0.540183299999626	0	204250	253
399.455078125	0	taste	response	1	35	35	foodImage.2	FOODEEG_Images\0028.jpg	NY	Right	Yes	0.540183299999626	0	204522	235
400.49609375	1	taste	trialStart	1	36	36	foodImage.55	FOODEEG_Images\0567.jpg	YN	Left	Yes	0.623298700000305	0	205055	251
401.552734375	2	taste	foodImageDisplay	1	36	36	foodImage.55	FOODEEG_Images\0567.jpg	YN	Left	Yes	0.623298700000305	0	205596	252
403.6171875	0.623298700000305	taste	choicePhaseStart	1	36	36	foodImage.55	FOODEEG_Images\0567.jpg	YN	Left	Yes	0.623298700000305	0	206653	253
404.23046875	0	taste	response	1	36	36	foodImage.55	FOODEEG_Images\0567.jpg	YN	Left	Yes	0.623298700000305	0	206967	234
405.271484375	1	taste	trialStart	1	37	37	foodImage.46	FOODEEG_Images\0479.jpg	YN	Left	Yes	0.540865900002245	0	207500	251
406.330078125	2	taste	foodImageDisplay	1	37	37	foodImage.46	FOODEEG_Images\0479.jpg	YN	Left	Yes	0.540865900002245	0	208042	252
408.39453125	0.540865900002245	taste	choicePhaseStart	1	37	37	foodImage.46	FOODEEG_Images\0479.jpg	YN	Left	Yes	0.540865900002245	0	209099	253
408.92578125	0	taste	response	1	37	37	foodImage.46	FOODEEG_Images\0479.jpg	YN	Left	Yes	0.540865900002245	0	209371	234
409.966796875	1	decision	trialStart	1	38	38	foodImage.25	FOODEEG_Images\0261.jpg	NY	Right	Yes	1.17677520000143	0	209904	251
411.0078125	2	decision	foodImageDisplay	1	38	38	foodImage.25	FOODEEG_Images\0261.jpg	NY	Right	Yes	1.17677520000143	0	210437	252
413.0703125	1.17677520000143	decision	choicePhaseStart	1	38	38	foodImage.25	FOODEEG_Images\0261.jpg	NY	Right	Yes	1.17677520000143	0	211493	253
414.23828125	0	decision	response	1	38	38	foodImage.25	FOODEEG_Images\0261.jpg	NY	Right	Yes	1.17677520000143	0	212091	235
415.279296875	1	decision	trialStart	1	39	39	foodImage.66	FOODEEG_Images\0676.jpg	YN	Right	No	1.11267560000124	0	212624	251
416.3203125	2	decision	foodImageDisplay	1	39	39	foodImage.66	FOODEEG_Images\0676.jpg	YN	Right	No	1.11267560000124	0	213157	252
418.3828125	1.11267560000124	decision	choicePhaseStart	1	39	39	foodImage.66	FOODEEG_Images\0676.jpg	YN	Right	No	1.11267560000124	0	214213	253
419.486328125	0	decision	response	1	39	39	foodImage.66	FOODEEG_Images\0676.jpg	YN	Right	No	1.11267560000124	0	214778	235
420.529296875	1	health	trialStart	1	40	40	foodImage.108	FOODEEG_Images\0916.jpg	NY	Left	No	1.48779040000227	0	215312	251
421.568359375	2	health	foodImageDisplay	1	40	40	foodImage.108	FOODEEG_Images\0916.jpg	NY	Left	No	1.48779040000227	0	215844	252
423.630859375	1.48779040000227	health	choicePhaseStart	1	40	40	foodImage.108	FOODEEG_Images\0916.jpg	NY	Left	No	1.48779040000227	0	216900	253
425.109375	0	health	response	1	40	40	foodImage.108	FOODEEG_Images\0916.jpg	NY	Left	No	1.48779040000227	0	217657	234
426.150390625	1	health	trialStart	1	41	41	foodImage.86	FOODEEG_Images\0844.jpg	YN	Right	No	0.62216830000034	0	218190	251
427.20703125	2	health	foodImageDisplay	1	41	41	foodImage.86	FOODEEG_Images\0844.jpg	YN	Right	No	0.62216830000034	0	218731	252
429.26953125	0.62216830000034	health	choicePhaseStart	1	41	41	foodImage.86	FOODEEG_Images\0844.jpg	YN	Right	No	0.62216830000034	0	219787	253
429.884765625	0	health	response	1	41	41	foodImage.86	FOODEEG_Images\0844.jpg	YN	Right	No	0.62216830000034	0	220102	235
430.927734375	1	health	trialStart	1	42	42	foodImage.87	FOODEEG_Images\0873.jpg	YN	Left	Yes	0.822599699997227	0	220636	251
431.984375	2	health	foodImageDisplay	1	42	42	foodImage.87	FOODEEG_Images\0873.jpg	YN	Left	Yes	0.822599699997227	0	221177	252
434.048828125	0.822599699997227	health	choicePhaseStart	1	42	42	foodImage.87	FOODEEG_Images\0873.jpg	YN	Left	Yes	0.822599699997227	0	222234	253
434.861328125	0	health	response	1	42	42	foodImage.87	FOODEEG_Images\0873.jpg	YN	Left	Yes	0.822599699997227	0	222650	234
435.90234375	1	health	trialStart	1	43	43	foodImage.95	FOODEEG_Images\0903.jpg	YN	Right	No	0.715478400001302	0	223183	251
436.94140625	2	health	foodImageDisplay	1	43	43	foodImage.95	FOODEEG_Images\0903.jpg	YN	Right	No	0.715478400001302	0	223715	252
439.001953125	0.715478400001302	health	choicePhaseStart	1	43	43	foodImage.95	FOODEEG_Images\0903.jpg	YN	Right	No	0.715478400001302	0	224770	253
439.708984375	0	health	response	1	43	43	foodImage.95	FOODEEG_Images\0903.jpg	YN	Right	No	0.715478400001302	0	225132	235
440.75	1	decision	trialStart	1	44	44	foodImage.116	FOODEEG_Images\0924.jpg	YN	Right	No	0.862575600000127	0	225665	251
441.791015625	2	decision	foodImageDisplay	1	44	44	foodImage.116	FOODEEG_Images\0924.jpg	YN	Right	No	0.862575600000127	0	226198	252
443.85546875	0.862575600000127	decision	choicePhaseStart	1	44	44	foodImage.116	FOODEEG_Images\0924.jpg	YN	Right	No	0.862575600000127	0	227255	253
444.708984375	0	decision	response	1	44	44	foodImage.116	FOODEEG_Images\0924.jpg	YN	Right	No	0.862575600000127	0	227692	235
445.751953125	1	taste	trialStart	1	45	45	foodImage.4	FOODEEG_Images\0065.jpg	NY	Left	No	1.03432059999977	0	228226	251
446.810546875	2	taste	foodImageDisplay	1	45	45	foodImage.4	FOODEEG_Images\0065.jpg	NY	Left	No	1.03432059999977	0	228768	252
448.875	1.03432059999977	taste	choicePhaseStart	1	45	45	foodImage.4	FOODEEG_Images\0065.jpg	NY	Left	No	1.03432059999977	0	229825	253
449.900390625	0	taste	response	1	45	45	foodImage.4	FOODEEG_Images\0065.jpg	NY	Left	No	1.03432059999977	0	230350	234
450.939453125	1	taste	trialStart	1	46	46	foodImage.8	FOODEEG_Images\0136.jpg	YN	Left	Yes	0.713071199999831	0	230882	251
451.982421875	2	taste	foodImageDisplay	1	46	46	foodImage.8	FOODEEG_Images\0136.jpg	YN	Left	Yes	0.713071199999831	0	231416	252
454.044921875	0.713071199999831	taste	choicePhaseStart	1	46	46	foodImage.8	FOODEEG_Images\0136.jpg	YN	Left	Yes	0.713071199999831	0	232472	253
454.748046875	0	taste	response	1	46	46	foodImage.8	FOODEEG_Images\0136.jpg	YN	Left	Yes	0.713071199999831	0	232832	234
455.79296875	1	health	trialStart	1	47	47	foodImage.64	FOODEEG_Images\0647.jpg	YN	Left	Yes	0.827601199998753	0	233367	251
456.8515625	2	health	foodImageDisplay	1	47	47	foodImage.64	FOODEEG_Images\0647.jpg	YN	Left	Yes	0.827601199998753	0	233909	252
458.9140625	0.827601199998753	health	choicePhaseStart	1	47	47	foodImage.64	FOODEEG_Images\0647.jpg	YN	Left	Yes	0.827601199998753	0	234965	253
459.732421875	0	health	response	1	47	47	foodImage.64	FOODEEG_Images\0647.jpg	YN	Left	Yes	0.827601199998753	0	235384	234
460.775390625	1	decision	trialStart	1	48	48	foodImage.57	FOODEEG_Images\0587.jpg	NY	Right	Yes	0.749824200000148	0	235918	251
461.8203125	2	decision	foodImageDisplay	1	48	48	foodImage.57	FOODEEG_Images\0587.jpg	NY	Right	Yes	0.749824200000148	0	236453	252
463.88671875	0.749824200000148	decision	choicePhaseStart	1	48	48	foodImage.57	FOODEEG_Images\0587.jpg	NY	Right	Yes	0.749824200000148	0	237511	253
464.62890625	0	decision	response	1	48	48	foodImage.57	FOODEEG_Images\0587.jpg	NY	Right	Yes	0.749824200000148	0	237891	235
465.669921875	1	health	trialStart	1	49	49	foodImage.93	FOODEEG_Images\0901.jpg	NY	Left	No	1.25142659999983	0	238424	251
466.70703125	2	health	foodImageDisplay	1	49	49	foodImage.93	FOODEEG_Images\0901.jpg	NY	Left	No	1.25142659999983	0	238955	252
468.76953125	1.25142659999983	health	choicePhaseStart	1	49	49	foodImage.93	FOODEEG_Images\0901.jpg	NY	Left	No	1.25142659999983	0	240011	253
470.01171875	0	health	response	1	49	49	foodImage.93	FOODEEG_Images\0901.jpg	NY	Left	No	1.25142659999983	0	240647	234
471.0546875	1	health	trialStart	1	50	50	foodImage.14	FOODEEG_Images\0188.jpg	YN	Right	No	0.629353100001026	0	241181	251
472.111328125	2	health	foodImageDisplay	1	50	50	foodImage.14	FOODEEG_Images\0188.jpg	YN	Right	No	0.629353100001026	0	241722	252
474.173828125	0.629353100001026	health	choicePhaseStart	1	50	50	foodImage.14	FOODEEG_Images\0188.jpg	YN	Right	No	0.629353100001026	0	242778	253
474.794921875	0	health	response	1	50	50	foodImage.14	FOODEEG_Images\0188.jpg	YN	Right	No	0.629353100001026	0	243096	235
475.837890625	1	health	trialStart	1	51	51	foodImage.37	FOODEEG_Images\0359.jpg	YN	Left	Yes	0.621135400000639	0	243630	251
476.880859375	2	health	foodImageDisplay	1	51	51	foodImage.37	FOODEEG_Images\0359.jpg	YN	Left	Yes	0.621135400000639	0	244164	252
478.943359375	0.621135400000639	health	choicePhaseStart	1	51	51	foodImage.37	FOODEEG_Images\0359.jpg	YN	Left	Yes	0.621135400000639	0	245220	253
479.5546875	0	health	response	1	51	51	foodImage.37	FOODEEG_Images\0359.jpg	YN	Left	Yes	0.621135400000639	0	245533	234
480.595703125	1	taste	trialStart	1	52	52	foodImage.102	FOODEEG_Images\0910.jpg	YN	Right	No	0.894137999999657	0	246066	251
481.65234375	2	taste	foodImageDisplay	1	52	52	foodImage.102	FOODEEG_Images\0910.jpg	YN	Right	No	0.894137999999657	0	246607	252
483.716796875	0.894137999999657	taste	choicePhaseStart	1	52	52	foodImage.102	FOODEEG_Images\0910.jpg	YN	Right	No	0.894137999999657	0	247664	253
484.603515625	0	taste	response	1	52	52	foodImage.102	FOODEEG_Images\0910.jpg	YN	Right	No	0.894137999999657	0	248118	235
485.64453125	1	health	trialStart	1	53	53	foodImage.26	FOODEEG_Images\0262.jpg	YN	Left	Yes	0.728668200001266	0	248651	251
486.685546875	2	health	foodImageDisplay	1	53	53	foodImage.26	FOODEEG_Images\0262.jpg	YN	Left	Yes	0.728668200001266	0	249184	252
488.748046875	0.728668200001266	health	choicePhaseStart	1	53	53	foodImage.26	FOODEEG_Images\0262.jpg	YN	Left	Yes	0.728668200001266	0	250240	253
489.466796875	0	health	response	1	53	53	foodImage.26	FOODEEG_Images\0262.jpg	YN	Left	Yes	0.728668200001266	0	250608	234
490.5078125	1	decision	trialStart	1	54	54	foodImage.91	FOODEEG_Images\0896.jpg	NY	Left	No	1.6473810000025	0	251141	251
491.56640625	2	decision	foodImageDisplay	1	54	54	foodImage.91	FOODEEG_Images\0896.jpg	NY	Left	No	1.6473810000025	0	251683	252
493.62890625	1.6473810000025	decision	choicePhaseStart	1	54	54	foodImage.91	FOODEEG_Images\0896.jpg	NY	Left	No	1.6473810000025	0	252739	253
495.267578125	0	decision	response	1	54	54	foodImage.91	FOODEEG_Images\0896.jpg	NY	Left	No	1.6473810000025	0	253578	234
496.310546875	1	taste	trialStart	1	55	55	foodImage.64	FOODEEG_Images\0647.jpg	NY	Right	Yes	1.93146559999877	0	254112	251
497.369140625	2	taste	foodImageDisplay	1	55	55	foodImage.64	FOODEEG_Images\0647.jpg	NY	Right	Yes	1.93146559999877	0	254654	252
499.43359375	1.93146559999877	taste	choicePhaseStart	1	55	55	foodImage.64	FOODEEG_Images\0647.jpg	NY	Right	Yes	1.93146559999877	0	255711	253
501.353515625	0	taste	response	1	55	55	foodImage.64	FOODEEG_Images\0647.jpg	NY	Right	Yes	1.93146559999877	0	256694	235
502.39453125	1	decision	trialStart	1	56	56	foodImage.18	FOODEEG_Images\0202.jpg	YN	Left	Yes	0.815903599999729	0	257227	251
503.453125	2	decision	foodImageDisplay	1	56	56	foodImage.18	FOODEEG_Images\0202.jpg	YN	Left	Yes	0.815903599999729	0	257769	252
505.515625	0.815903599999729	decision	choicePhaseStart	1	56	56	foodImage.18	FOODEEG_Images\0202.jpg	YN	Left	Yes	0.815903599999729	0	258825	253
506.322265625	0	decision	response	1	56	56	foodImage.18	FOODEEG_Images\0202.jpg	YN	Left	Yes	0.815903599999729	0	259238	234
507.365234375	1	taste	trialStart	1	57	57	foodImage.66	FOODEEG_Images\0676.jpg	YN	Right	No	0.764552900000126	0	259772	251
508.408203125	2	taste	foodImageDisplay	1	57	57	foodImage.66	FOODEEG_Images\0676.jpg	YN	Right	No	0.764552900000126	0	260306	252
510.470703125	0.764552900000126	taste	choicePhaseStart	1	57	57	foodImage.66	FOODEEG_Images\0676.jpg	YN	Right	No	0.764552900000126	0	261362	253
511.2265625	0	taste	response	1	57	57	foodImage.66	FOODEEG_Images\0676.jpg	YN	Right	No	0.764552900000126	0	261749	235
512.267578125	1	taste	trialStart	1	58	58	foodImage.5	FOODEEG_Images\0107.jpg	NY	Left	No	1.37793139999849	0	262282	251
513.322265625	2	taste	foodImageDisplay	1	58	58	foodImage.5	FOODEEG_Images\0107.jpg	NY	Left	No	1.37793139999849	0	262822	252
515.38671875	1.37793139999849	taste	choicePhaseStart	1	58	58	foodImage.5	FOODEEG_Images\0107.jpg	NY	Left	No	1.37793139999849	0	263879	253
516.75390625	0	taste	response	1	58	58	foodImage.5	FOODEEG_Images\0107.jpg	NY	Left	No	1.37793139999849	0	264579	234
517.796875	1	taste	trialStart	1	59	59	foodImage.11	FOODEEG_Images\0180.jpg	NY	Left	No	0.787322100000893	0	265113	251
518.83984375	2	taste	foodImageDisplay	1	59	59	foodImage.11	FOODEEG_Images\0180.jpg	NY	Left	No	0.787322100000893	0	265647	252
520.904296875	0.787322100000893	taste	choicePhaseStart	1	59	59	foodImage.11	FOODEEG_Images\0180.jpg	NY	Left	No	0.787322100000893	0	266704	253
521.681640625	0	taste	response	1	59	59	foodImage.11	FOODEEG_Images\0180.jpg	NY	Left	No	0.787322100000893	0	267102	234
522.724609375	1	taste	trialStart	1	60	60	foodImage.41	FOODEEG_Images\0409.jpg	NY	Right	Yes	0.568750300000829	0	267636	251
523.771484375	2	taste	foodImageDisplay	1	60	60	foodImage.41	FOODEEG_Images\0409.jpg	NY	Right	Yes	0.568750300000829	0	268172	252
525.833984375	0.568750300000829	taste	choicePhaseStart	1	60	60	foodImage.41	FOODEEG_Images\0409.jpg	NY	Right	Yes	0.568750300000829	0	269228	253
526.392578125	0	taste	response	1	60	60	foodImage.41	FOODEEG_Images\0409.jpg	NY	Right	Yes	0.568750300000829	0	269514	235
528.43359375	21.859375	n/a	blockEnd	n/a	n/a	n/a	n/a	n/a	n/a	n/a	n/a	n/a	n/a	270559	254
550.29296875	2	n/a	blockStart	2	n/a	n/a	n/a	n/a	n/a	n/a	n/a	n/a	n/a	281751	250
552.32421875	1	decision	trialStart	2	61	1	foodImage.63	FOODEEG_Images\0645.jpg	YN	Left	Yes	0.787821100002475	0	282791	251
553.365234375	2	decision	foodImageDisplay	2	61	1	foodImage.63	FOODEEG_Images\0645.jpg	YN	Left	Yes	0.787821100002475	0	283324	252
555.427734375	0.787821100002475	decision	choicePhaseStart	2	61	1	foodImage.63	FOODEEG_Images\0645.jpg	YN	Left	Yes	0.787821100002475	0	284380	253
556.208984375	0	decision	response	2	61	1	foodImage.63	FOODEEG_Images\0645.jpg	YN	Left	Yes	0.787821100002475	0	284780	234
557.25	1	decision	trialStart	2	62	2	foodImage.99	FOODEEG_Images\0907.jpg	NY	Left	No	1.32879150000008	0	285313	251
558.287109375	2	decision	foodImageDisplay	2	62	2	foodImage.99	FOODEEG_Images\0907.jpg	NY	Left	No	1.32879150000008	0	285844	252
560.349609375	1.32879150000008	decision	choicePhaseStart	2	62	2	foodImage.99	FOODEEG_Images\0907.jpg	NY	Left	No	1.32879150000008	0	286900	253
561.671875	0	decision	response	2	62	2	foodImage.99	FOODEEG_Images\0907.jpg	NY	Left	No	1.32879150000008	0	287577	234
562.71484375	1	health	trialStart	2	63	3	foodImage.67	FOODEEG_Images\0679.jpg	YN	Left	Yes	1.36530349999884	0	288111	251
563.771484375	2	health	foodImageDisplay	2	63	3	foodImage.67	FOODEEG_Images\0679.jpg	YN	Left	Yes	1.36530349999884	0	288652	252
565.833984375	1.36530349999884	health	choicePhaseStart	2	63	3	foodImage.67	FOODEEG_Images\0679.jpg	YN	Left	Yes	1.36530349999884	0	289708	253
567.19140625	0	health	response	2	63	3	foodImage.67	FOODEEG_Images\0679.jpg	YN	Left	Yes	1.36530349999884	0	290403	234
568.234375	1	health	trialStart	2	64	4	foodImage.47	FOODEEG_Images\0488.jpg	NY	Left	No	1.05681460000051	0	290937	251
569.28125	2	health	foodImageDisplay	2	64	4	foodImage.47	FOODEEG_Images\0488.jpg	NY	Left	No	1.05681460000051	0	291473	252
571.345703125	1.05681460000051	health	choicePhaseStart	2	64	4	foodImage.47	FOODEEG_Images\0488.jpg	NY	Left	No	1.05681460000051	0	292530	253
572.392578125	0	health	response	2	64	4	foodImage.47	FOODEEG_Images\0488.jpg	NY	Left	No	1.05681460000051	0	293066	234
573.435546875	1	taste	trialStart	2	65	5	foodImage.20	FOODEEG_Images\0226.jpg	YN	Right	No	1.07707709999886	0	293600	251
574.474609375	2	taste	foodImageDisplay	2	65	5	foodImage.20	FOODEEG_Images\0226.jpg	YN	Right	No	1.07707709999886	0	294132	252
576.5390625	1.07707709999886	taste	choicePhaseStart	2	65	5	foodImage.20	FOODEEG_Images\0226.jpg	YN	Right	No	1.07707709999886	0	295189	253
577.607421875	0	taste	response	2	65	5	foodImage.20	FOODEEG_Images\0226.jpg	YN	Right	No	1.07707709999886	0	295736	235
578.646484375	1	taste	trialStart	2	66	6	foodImage.105	FOODEEG_Images\0913.jpg	NY	Left	No	0.825857600000745	0	296268	251
579.685546875	2	taste	foodImageDisplay	2	66	6	foodImage.105	FOODEEG_Images\0913.jpg	NY	Left	No	0.825857600000745	0	296800	252
581.748046875	0.825857600000745	taste	choicePhaseStart	2	66	6	foodImage.105	FOODEEG_Images\0913.jpg	NY	Left	No	0.825857600000745	0	297856	253
582.568359375	0	taste	response	2	66	6	foodImage.105	FOODEEG_Images\0913.jpg	NY	Left	No	0.825857600000745	0	298276	234
583.607421875	1	taste	trialStart	2	67	7	foodImage.92	FOODEEG_Images\0900.jpg	NY	Left	No	0.707329900000332	0	298808	251
584.64453125	2	taste	foodImageDisplay	2	67	7	foodImage.92	FOODEEG_Images\0900.jpg	NY	Left	No	0.707329900000332	0	299339	252
586.708984375	0.707329900000332	taste	choicePhaseStart	2	67	7	foodImage.92	FOODEEG_Images\0900.jpg	NY	Left	No	0.707329900000332	0	300396	253
587.408203125	0	taste	response	2	67	7	foodImage.92	FOODEEG_Images\0900.jpg	NY	Left	No	0.707329900000332	0	300754	234
588.44921875	1	decision	trialStart	2	68	8	foodImage.105	FOODEEG_Images\0913.jpg	NY	Left	No	0.778254199998628	0	301287	251
589.48828125	2	decision	foodImageDisplay	2	68	8	foodImage.105	FOODEEG_Images\0913.jpg	NY	Left	No	0.778254199998628	0	301819	252
591.55078125	0.778254199998628	decision	choicePhaseStart	2	68	8	foodImage.105	FOODEEG_Images\0913.jpg	NY	Left	No	0.778254199998628	0	302875	253
592.318359375	0	decision	response	2	68	8	foodImage.105	FOODEEG_Images\0913.jpg	NY	Left	No	0.778254199998628	0	303268	234
593.361328125	1	decision	trialStart	2	69	9	foodImage.43	FOODEEG_Images\0445.jpg	YN	Left	Yes	0.573912500000006	0	303802	251
594.41796875	2	decision	foodImageDisplay	2	69	9	foodImage.43	FOODEEG_Images\0445.jpg	YN	Left	Yes	0.573912500000006	0	304343	252
596.482421875	0.573912500000006	decision	choicePhaseStart	2	69	9	foodImage.43	FOODEEG_Images\0445.jpg	YN	Left	Yes	0.573912500000006	0	305400	253
597.046875	0	decision	response	2	69	9	foodImage.43	FOODEEG_Images\0445.jpg	YN	Left	Yes	0.573912500000006	0	305689	234
598.087890625	1	health	trialStart	2	70	10	foodImage.112	FOODEEG_Images\0920.jpg	YN	Right	No	1.06426669999928	0	306222	251
599.126953125	2	health	foodImageDisplay	2	70	10	foodImage.112	FOODEEG_Images\0920.jpg	YN	Right	No	1.06426669999928	0	306754	252
601.19140625	1.06426669999928	health	choicePhaseStart	2	70	10	foodImage.112	FOODEEG_Images\0920.jpg	YN	Right	No	1.06426669999928	0	307811	253
602.24609375	0	health	response	2	70	10	foodImage.112	FOODEEG_Images\0920.jpg	YN	Right	No	1.06426669999928	0	308351	235
603.287109375	1	health	trialStart	2	71	11	foodImage.99	FOODEEG_Images\0907.jpg	YN	Right	No	0.595282800000859	0	308884	251
604.32421875	2	health	foodImageDisplay	2	71	11	foodImage.99	FOODEEG_Images\0907.jpg	YN	Right	No	0.595282800000859	0	309415	252
606.388671875	0.595282800000859	health	choicePhaseStart	2	71	11	foodImage.99	FOODEEG_Images\0907.jpg	YN	Right	No	0.595282800000859	0	310472	253
606.974609375	0	health	response	2	71	11	foodImage.99	FOODEEG_Images\0907.jpg	YN	Right	No	0.595282800000859	0	310772	235
608.013671875	1	decision	trialStart	2	72	12	foodImage.12	FOODEEG_Images\0181.jpg	YN	Right	No	2.16209359999993	0	311304	251
609.0546875	2	decision	foodImageDisplay	2	72	12	foodImage.12	FOODEEG_Images\0181.jpg	YN	Right	No	2.16209359999993	0	311837	252
611.119140625	2.16209359999993	decision	choicePhaseStart	2	72	12	foodImage.12	FOODEEG_Images\0181.jpg	YN	Right	No	2.16209359999993	0	312894	253
613.26953125	0	decision	response	2	72	12	foodImage.12	FOODEEG_Images\0181.jpg	YN	Right	No	2.16209359999993	0	313995	235
614.310546875	1	health	trialStart	2	73	13	foodImage.11	FOODEEG_Images\0180.jpg	YN	Left	Yes	1.12537259999954	0	314528	251
615.3515625	2	health	foodImageDisplay	2	73	13	foodImage.11	FOODEEG_Images\0180.jpg	YN	Left	Yes	1.12537259999954	0	315061	252
617.416015625	1.12537259999954	health	choicePhaseStart	2	73	13	foodImage.11	FOODEEG_Images\0180.jpg	YN	Left	Yes	1.12537259999954	0	316118	253
618.533203125	0	health	response	2	73	13	foodImage.11	FOODEEG_Images\0180.jpg	YN	Left	Yes	1.12537259999954	0	316690	234
619.576171875	1	decision	trialStart	2	74	14	foodImage.104	FOODEEG_Images\0912.jpg	NY	Right	Yes	0.691128800001025	0	317224	251
620.615234375	2	decision	foodImageDisplay	2	74	14	foodImage.104	FOODEEG_Images\0912.jpg	NY	Right	Yes	0.691128800001025	0	317756	252
622.68359375	0.691128800001025	decision	choicePhaseStart	2	74	14	foodImage.104	FOODEEG_Images\0912.jpg	NY	Right	Yes	0.691128800001025	0	318815	253
623.365234375	0	decision	response	2	74	14	foodImage.104	FOODEEG_Images\0912.jpg	NY	Right	Yes	0.691128800001025	0	319164	235
624.408203125	1	decision	trialStart	2	75	15	foodImage.3	FOODEEG_Images\0046.jpg	YN	Left	Yes	0.564159199999267	0	319698	251
625.451171875	2	decision	foodImageDisplay	2	75	15	foodImage.3	FOODEEG_Images\0046.jpg	YN	Left	Yes	0.564159199999267	0	320232	252
627.515625	0.564159199999267	decision	choicePhaseStart	2	75	15	foodImage.3	FOODEEG_Images\0046.jpg	YN	Left	Yes	0.564159199999267	0	321289	253
628.0703125	0	decision	response	2	75	15	foodImage.3	FOODEEG_Images\0046.jpg	YN	Left	Yes	0.564159199999267	0	321573	234
629.109375	1	health	trialStart	2	76	16	foodImage.104	FOODEEG_Images\0912.jpg	NY	Left	No	0.557262500002253	0	322105	251
630.146484375	2	health	foodImageDisplay	2	76	16	foodImage.104	FOODEEG_Images\0912.jpg	NY	Left	No	0.557262500002253	0	322636	252
632.2109375	0.557262500002253	health	choicePhaseStart	2	76	16	foodImage.104	FOODEEG_Images\0912.jpg	NY	Left	No	0.557262500002253	0	323693	253
632.7578125	0	health	response	2	76	16	foodImage.104	FOODEEG_Images\0912.jpg	NY	Left	No	0.557262500002253	0	323973	234
633.80078125	1	decision	trialStart	2	77	17	foodImage.60	FOODEEG_Images\0614.jpg	NY	Left	No	0.629245000000083	0	324507	251
634.857421875	2	decision	foodImageDisplay	2	77	17	foodImage.60	FOODEEG_Images\0614.jpg	NY	Left	No	0.629245000000083	0	325048	252
636.921875	0.629245000000083	decision	choicePhaseStart	2	77	17	foodImage.60	FOODEEG_Images\0614.jpg	NY	Left	No	0.629245000000083	0	326105	253
637.541015625	0	decision	response	2	77	17	foodImage.60	FOODEEG_Images\0614.jpg	NY	Left	No	0.629245000000083	0	326422	234
638.58203125	1	decision	trialStart	2	78	18	foodImage.50	FOODEEG_Images\0529.jpg	YN	Right	No	0.68094629999905	0	326955	251
639.638671875	2	decision	foodImageDisplay	2	78	18	foodImage.50	FOODEEG_Images\0529.jpg	YN	Right	No	0.68094629999905	0	327496	252
641.701171875	0.68094629999905	decision	choicePhaseStart	2	78	18	foodImage.50	FOODEEG_Images\0529.jpg	YN	Right	No	0.68094629999905	0	328552	253
642.373046875	0	decision	response	2	78	18	foodImage.50	FOODEEG_Images\0529.jpg	YN	Right	No	0.68094629999905	0	328896	235
643.4140625	1	decision	trialStart	2	79	19	foodImage.107	FOODEEG_Images\0915.jpg	NY	Left	No	0.641434500001196	0	329429	251
644.458984375	2	decision	foodImageDisplay	2	79	19	foodImage.107	FOODEEG_Images\0915.jpg	NY	Left	No	0.641434500001196	0	329964	252
646.5234375	0.641434500001196	decision	choicePhaseStart	2	79	19	foodImage.107	FOODEEG_Images\0915.jpg	NY	Left	No	0.641434500001196	0	331021	253
647.15625	0	decision	response	2	79	19	foodImage.107	FOODEEG_Images\0915.jpg	NY	Left	No	0.641434500001196	0	331345	234
648.19921875	1	health	trialStart	2	80	20	foodImage.97	FOODEEG_Images\0905.jpg	YN	Right	No	1.5666839000005	0	331879	251
649.23828125	2	health	foodImageDisplay	2	80	20	foodImage.97	FOODEEG_Images\0905.jpg	YN	Right	No	1.5666839000005	0	332411	252
651.302734375	1.5666839000005	health	choicePhaseStart	2	80	20	foodImage.97	FOODEEG_Images\0905.jpg	YN	Right	No	1.5666839000005	0	333468	253
652.861328125	0	health	response	2	80	20	foodImage.97	FOODEEG_Images\0905.jpg	YN	Right	No	1.5666839000005	0	334266	235
653.8984375	1	decision	trialStart	2	81	21	foodImage.115	FOODEEG_Images\0923.jpg	NY	Left	No	0.718388000001141	0	334797	251
654.9375	2	decision	foodImageDisplay	2	81	21	foodImage.115	FOODEEG_Images\0923.jpg	NY	Left	No	0.718388000001141	0	335329	252
656.998046875	0.718388000001141	decision	choicePhaseStart	2	81	21	foodImage.115	FOODEEG_Images\0923.jpg	NY	Left	No	0.718388000001141	0	336384	253
657.708984375	0	decision	response	2	81	21	foodImage.115	FOODEEG_Images\0923.jpg	NY	Left	No	0.718388000001141	0	336748	234
658.751953125	1	taste	trialStart	2	82	22	foodImage.97	FOODEEG_Images\0905.jpg	NY	Left	No	1.27271560000008	0	337282	251
659.791015625	2	taste	foodImageDisplay	2	82	22	foodImage.97	FOODEEG_Images\0905.jpg	NY	Left	No	1.27271560000008	0	337814	252
661.853515625	1.27271560000008	taste	choicePhaseStart	2	82	22	foodImage.97	FOODEEG_Images\0905.jpg	NY	Left	No	1.27271560000008	0	338870	253
663.1171875	0	taste	response	2	82	22	foodImage.97	FOODEEG_Images\0905.jpg	NY	Left	No	1.27271560000008	0	339517	234
664.158203125	1	health	trialStart	2	83	23	foodImage.70	FOODEEG_Images\0705.jpg	YN	Right	No	3.64226209999833	0	340050	251
665.216796875	2	health	foodImageDisplay	2	83	23	foodImage.70	FOODEEG_Images\0705.jpg	YN	Right	No	3.64226209999833	0	340592	252
667.279296875	3.64226209999833	health	choicePhaseStart	2	83	23	foodImage.70	FOODEEG_Images\0705.jpg	YN	Right	No	3.64226209999833	0	341648	253
670.916015625	0	health	response	2	83	23	foodImage.70	FOODEEG_Images\0705.jpg	YN	Right	No	3.64226209999833	0	343510	235
671.962890625	1	health	trialStart	2	84	24	foodImage.85	FOODEEG_Images\0841.jpg	NY	Left	No	1.51339100000041	0	344046	251
673.021484375	2	health	foodImageDisplay	2	84	24	foodImage.85	FOODEEG_Images\0841.jpg	NY	Left	No	1.51339100000041	0	344588	252
675.083984375	1.51339100000041	health	choicePhaseStart	2	84	24	foodImage.85	FOODEEG_Images\0841.jpg	NY	Left	No	1.51339100000041	0	345644	253
676.587890625	0	health	response	2	84	24	foodImage.85	FOODEEG_Images\0841.jpg	NY	Left	No	1.51339100000041	0	346414	234
677.62890625	1	taste	trialStart	2	85	25	foodImage.72	FOODEEG_Images\0714.jpg	YN	Left	Yes	1.13586360000045	0	346947	251
678.669921875	2	taste	foodImageDisplay	2	85	25	foodImage.72	FOODEEG_Images\0714.jpg	YN	Left	Yes	1.13586360000045	0	347480	252
680.734375	1.13586360000045	taste	choicePhaseStart	2	85	25	foodImage.72	FOODEEG_Images\0714.jpg	YN	Left	Yes	1.13586360000045	0	348537	253
681.859375	0	taste	response	2	85	25	foodImage.72	FOODEEG_Images\0714.jpg	YN	Left	Yes	1.13586360000045	0	349113	234
682.90234375	1	taste	trialStart	2	86	26	foodImage.7	FOODEEG_Images\0116.jpg	YN	Left	Yes	0.72024600000077	0	349647	251
683.9453125	2	taste	foodImageDisplay	2	86	26	foodImage.7	FOODEEG_Images\0116.jpg	YN	Left	Yes	0.72024600000077	0	350181	252
686.009765625	0.72024600000077	taste	choicePhaseStart	2	86	26	foodImage.7	FOODEEG_Images\0116.jpg	YN	Left	Yes	0.72024600000077	0	351238	253
686.72265625	0	taste	response	2	86	26	foodImage.7	FOODEEG_Images\0116.jpg	YN	Left	Yes	0.72024600000077	0	351603	234
687.763671875	1	health	trialStart	2	87	27	foodImage.20	FOODEEG_Images\0226.jpg	YN	Right	No	1.80090150000251	0	352136	251
688.8046875	2	health	foodImageDisplay	2	87	27	foodImage.20	FOODEEG_Images\0226.jpg	YN	Right	No	1.80090150000251	0	352669	252
690.8671875	1.80090150000251	health	choicePhaseStart	2	87	27	foodImage.20	FOODEEG_Images\0226.jpg	YN	Right	No	1.80090150000251	0	353725	253
692.66015625	0	health	response	2	87	27	foodImage.20	FOODEEG_Images\0226.jpg	YN	Right	No	1.80090150000251	0	354643	235
693.701171875	1	decision	trialStart	2	88	28	foodImage.75	FOODEEG_Images\0763.jpg	NY	Left	No	0.9219400999973	0	355176	251
694.74609375	2	decision	foodImageDisplay	2	88	28	foodImage.75	FOODEEG_Images\0763.jpg	NY	Left	No	0.9219400999973	0	355711	252
696.810546875	0.9219400999973	decision	choicePhaseStart	2	88	28	foodImage.75	FOODEEG_Images\0763.jpg	NY	Left	No	0.9219400999973	0	356768	253
697.72265625	0	decision	response	2	88	28	foodImage.75	FOODEEG_Images\0763.jpg	NY	Left	No	0.9219400999973	0	357235	234
698.763671875	1	taste	trialStart	2	89	29	foodImage.61	FOODEEG_Images\0640.jpg	NY	Left	No	1.19843580000088	0	357768	251
699.806640625	2	taste	foodImageDisplay	2	89	29	foodImage.61	FOODEEG_Images\0640.jpg	NY	Left	No	1.19843580000088	0	358302	252
701.869140625	1.19843580000088	taste	choicePhaseStart	2	89	29	foodImage.61	FOODEEG_Images\0640.jpg	NY	Left	No	1.19843580000088	0	359358	253
703.05859375	0	taste	response	2	89	29	foodImage.61	FOODEEG_Images\0640.jpg	NY	Left	No	1.19843580000088	0	359967	234
704.099609375	1	health	trialStart	2	90	30	foodImage.118	FOODEEG_Images\0926.jpg	NY	Left	No	1.16534839999804	0	360500	251
705.13671875	2	health	foodImageDisplay	2	90	30	foodImage.118	FOODEEG_Images\0926.jpg	NY	Left	No	1.16534839999804	0	361031	252
707.19921875	1.16534839999804	health	choicePhaseStart	2	90	30	foodImage.118	FOODEEG_Images\0926.jpg	NY	Left	No	1.16534839999804	0	362087	253
708.35546875	0	health	response	2	90	30	foodImage.118	FOODEEG_Images\0926.jpg	NY	Left	No	1.16534839999804	0	362679	234
709.396484375	1	health	trialStart	2	91	31	foodImage.106	FOODEEG_Images\0914.jpg	NY	Right	Yes	2.15239680000013	0	363212	251
710.435546875	2	health	foodImageDisplay	2	91	31	foodImage.106	FOODEEG_Images\0914.jpg	NY	Right	Yes	2.15239680000013	0	363744	252
712.5	2.15239680000013	health	choicePhaseStart	2	91	31	foodImage.106	FOODEEG_Images\0914.jpg	NY	Right	Yes	2.15239680000013	0	364801	253
714.642578125	0	health	response	2	91	31	foodImage.106	FOODEEG_Images\0914.jpg	NY	Right	Yes	2.15239680000013	0	365898	235
715.685546875	1	taste	trialStart	2	92	32	foodImage.104	FOODEEG_Images\0912.jpg	YN	Left	Yes	1.15288979999968	0	366432	251
716.724609375	2	taste	foodImageDisplay	2	92	32	foodImage.104	FOODEEG_Images\0912.jpg	YN	Left	Yes	1.15288979999968	0	366964	252
718.787109375	1.15288979999968	taste	choicePhaseStart	2	92	32	foodImage.104	FOODEEG_Images\0912.jpg	YN	Left	Yes	1.15288979999968	0	368020	253
719.9296875	0	taste	response	2	92	32	foodImage.104	FOODEEG_Images\0912.jpg	YN	Left	Yes	1.15288979999968	0	368605	234
720.970703125	1	taste	trialStart	2	93	33	foodImage.100	FOODEEG_Images\0908.jpg	NY	Right	Yes	0.75381489999927	0	369138	251
722.009765625	2	taste	foodImageDisplay	2	93	33	foodImage.100	FOODEEG_Images\0908.jpg	NY	Right	Yes	0.75381489999927	0	369670	252
724.072265625	0.75381489999927	taste	choicePhaseStart	2	93	33	foodImage.100	FOODEEG_Images\0908.jpg	NY	Right	Yes	0.75381489999927	0	370726	253
724.818359375	0	taste	response	2	93	33	foodImage.100	FOODEEG_Images\0908.jpg	NY	Right	Yes	0.75381489999927	0	371108	235
725.859375	1	taste	trialStart	2	94	34	foodImage.86	FOODEEG_Images\0844.jpg	YN	Left	Yes	0.556337000001804	0	371641	251
726.919921875	2	taste	foodImageDisplay	2	94	34	foodImage.86	FOODEEG_Images\0844.jpg	YN	Left	Yes	0.556337000001804	0	372184	252
728.982421875	0.556337000001804	taste	choicePhaseStart	2	94	34	foodImage.86	FOODEEG_Images\0844.jpg	YN	Left	Yes	0.556337000001804	0	373240	253
729.53125	0	taste	response	2	94	34	foodImage.86	FOODEEG_Images\0844.jpg	YN	Left	Yes	0.556337000001804	0	373521	234
730.5703125	1	taste	trialStart	2	95	35	foodImage.71	FOODEEG_Images\0713.jpg	NY	Left	No	1.14984779999941	0	374053	251
731.61328125	2	taste	foodImageDisplay	2	95	35	foodImage.71	FOODEEG_Images\0713.jpg	NY	Left	No	1.14984779999941	0	374587	252
733.677734375	1.14984779999941	taste	choicePhaseStart	2	95	35	foodImage.71	FOODEEG_Images\0713.jpg	NY	Left	No	1.14984779999941	0	375644	253
734.818359375	0	taste	response	2	95	35	foodImage.71	FOODEEG_Images\0713.jpg	NY	Left	No	1.14984779999941	0	376228	234
735.859375	1	health	trialStart	2	96	36	foodImage.23	FOODEEG_Images\0244.jpg	NY	Right	Yes	1.10344579999946	0	376761	251
736.900390625	2	health	foodImageDisplay	2	96	36	foodImage.23	FOODEEG_Images\0244.jpg	NY	Right	Yes	1.10344579999946	0	377294	252
738.962890625	1.10344579999946	health	choicePhaseStart	2	96	36	foodImage.23	FOODEEG_Images\0244.jpg	NY	Right	Yes	1.10344579999946	0	378350	253
740.056640625	0	health	response	2	96	36	foodImage.23	FOODEEG_Images\0244.jpg	NY	Right	Yes	1.10344579999946	0	378910	235
741.1015625	1	decision	trialStart	2	97	37	foodImage.108	FOODEEG_Images\0916.jpg	NY	Left	No	0.671698500002094	0	379445	251
742.140625	2	decision	foodImageDisplay	2	97	37	foodImage.108	FOODEEG_Images\0916.jpg	NY	Left	No	0.671698500002094	0	379977	252
744.203125	0.671698500002094	decision	choicePhaseStart	2	97	37	foodImage.108	FOODEEG_Images\0916.jpg	NY	Left	No	0.671698500002094	0	381033	253
744.865234375	0	decision	response	2	97	37	foodImage.108	FOODEEG_Images\0916.jpg	NY	Left	No	0.671698500002094	0	381372	234
745.90625	1	taste	trialStart	2	98	38	foodImage.57	FOODEEG_Images\0587.jpg	NY	Right	Yes	0.783150899998873	0	381905	251
746.9609375	2	taste	foodImageDisplay	2	98	38	foodImage.57	FOODEEG_Images\0587.jpg	NY	Right	Yes	0.783150899998873	0	382445	252
749.0234375	0.783150899998873	taste	choicePhaseStart	2	98	38	foodImage.57	FOODEEG_Images\0587.jpg	NY	Right	Yes	0.783150899998873	0	383501	253
749.80078125	0	taste	response	2	98	38	foodImage.57	FOODEEG_Images\0587.jpg	NY	Right	Yes	0.783150899998873	0	383899	235
750.841796875	1	decision	trialStart	2	99	39	foodImage.111	FOODEEG_Images\0919.jpg	YN	Right	No	1.04291880000164	0	384432	251
751.87890625	2	decision	foodImageDisplay	2	99	39	foodImage.111	FOODEEG_Images\0919.jpg	YN	Right	No	1.04291880000164	0	384963	252
753.943359375	1.04291880000164	decision	choicePhaseStart	2	99	39	foodImage.111	FOODEEG_Images\0919.jpg	YN	Right	No	1.04291880000164	0	386020	253
754.9765625	0	decision	response	2	99	39	foodImage.111	FOODEEG_Images\0919.jpg	YN	Right	No	1.04291880000164	0	386549	235
756.01953125	1	health	trialStart	2	100	40	foodImage.82	FOODEEG_Images\0805.jpg	NY	Right	Yes	0.704251499999373	0	387083	251
757.07421875	2	health	foodImageDisplay	2	100	40	foodImage.82	FOODEEG_Images\0805.jpg	NY	Right	Yes	0.704251499999373	0	387623	252
759.13671875	0.704251499999373	health	choicePhaseStart	2	100	40	foodImage.82	FOODEEG_Images\0805.jpg	NY	Right	Yes	0.704251499999373	0	388679	253
759.83203125	0	health	response	2	100	40	foodImage.82	FOODEEG_Images\0805.jpg	NY	Right	Yes	0.704251499999373	0	389035	235
760.873046875	1	taste	trialStart	2	101	41	foodImage.85	FOODEEG_Images\0841.jpg	NY	Right	Yes	0.664516400000139	0	389568	251
761.927734375	2	taste	foodImageDisplay	2	101	41	foodImage.85	FOODEEG_Images\0841.jpg	NY	Right	Yes	0.664516400000139	0	390108	252
763.9921875	0.664516400000139	taste	choicePhaseStart	2	101	41	foodImage.85	FOODEEG_Images\0841.jpg	NY	Right	Yes	0.664516400000139	0	391165	253
764.6484375	0	taste	response	2	101	41	foodImage.85	FOODEEG_Images\0841.jpg	NY	Right	Yes	0.664516400000139	0	391501	235
765.689453125	1	health	trialStart	2	102	42	foodImage.96	FOODEEG_Images\0904.jpg	NY	Right	Yes	1.74433660000068	0	392034	251
766.728515625	2	health	foodImageDisplay	2	102	42	foodImage.96	FOODEEG_Images\0904.jpg	NY	Right	Yes	1.74433660000068	0	392566	252
768.791015625	1.74433660000068	health	choicePhaseStart	2	102	42	foodImage.96	FOODEEG_Images\0904.jpg	NY	Right	Yes	1.74433660000068	0	393622	253
770.52734375	0	health	response	2	102	42	foodImage.96	FOODEEG_Images\0904.jpg	NY	Right	Yes	1.74433660000068	0	394511	235
771.5703125	1	decision	trialStart	2	103	43	foodImage.8	FOODEEG_Images\0136.jpg	YN	Left	Yes	1.35662740000043	0	395045	251
772.61328125	2	decision	foodImageDisplay	2	103	43	foodImage.8	FOODEEG_Images\0136.jpg	YN	Left	Yes	1.35662740000043	0	395579	252
774.677734375	1.35662740000043	decision	choicePhaseStart	2	103	43	foodImage.8	FOODEEG_Images\0136.jpg	YN	Left	Yes	1.35662740000043	0	396636	253
776.0234375	0	decision	response	2	103	43	foodImage.8	FOODEEG_Images\0136.jpg	YN	Left	Yes	1.35662740000043	0	397325	234
777.064453125	1	taste	trialStart	2	104	44	foodImage.13	FOODEEG_Images\0183.jpg	NY	Left	No	0.991700099999434	0	397858	251
778.10546875	2	taste	foodImageDisplay	2	104	44	foodImage.13	FOODEEG_Images\0183.jpg	NY	Left	No	0.991700099999434	0	398391	252
780.169921875	0.991700099999434	taste	choicePhaseStart	2	104	44	foodImage.13	FOODEEG_Images\0183.jpg	NY	Left	No	0.991700099999434	0	399448	253
781.15234375	0	taste	response	2	104	44	foodImage.13	FOODEEG_Images\0183.jpg	NY	Left	No	0.991700099999434	0	399951	234
782.193359375	1	decision	trialStart	2	105	45	foodImage.96	FOODEEG_Images\0904.jpg	NY	Right	Yes	0.592992000001686	0	400484	251
783.232421875	2	decision	foodImageDisplay	2	105	45	foodImage.96	FOODEEG_Images\0904.jpg	NY	Right	Yes	0.592992000001686	0	401016	252
785.296875	0.592992000001686	decision	choicePhaseStart	2	105	45	foodImage.96	FOODEEG_Images\0904.jpg	NY	Right	Yes	0.592992000001686	0	402073	253
785.87890625	0	decision	response	2	105	45	foodImage.96	FOODEEG_Images\0904.jpg	NY	Right	Yes	0.592992000001686	0	402371	235
786.921875	1	health	trialStart	2	106	46	foodImage.24	FOODEEG_Images\0250.jpg	NY	Right	Yes	0.853832600001624	0	402905	251
787.962890625	2	health	foodImageDisplay	2	106	46	foodImage.24	FOODEEG_Images\0250.jpg	NY	Right	Yes	0.853832600001624	0	403438	252
790.02734375	0.853832600001624	health	choicePhaseStart	2	106	46	foodImage.24	FOODEEG_Images\0250.jpg	NY	Right	Yes	0.853832600001624	0	404495	253
790.87109375	0	health	response	2	106	46	foodImage.24	FOODEEG_Images\0250.jpg	NY	Right	Yes	0.853832600001624	0	404927	235
791.9140625	1	health	trialStart	2	107	47	foodImage.27	FOODEEG_Images\0263.jpg	NY	Right	Yes	0.49652739999874	0	405461	251
792.955078125	2	health	foodImageDisplay	2	107	47	foodImage.27	FOODEEG_Images\0263.jpg	NY	Right	Yes	0.49652739999874	0	405994	252
795.0234375	0.49652739999874	health	choicePhaseStart	2	107	47	foodImage.27	FOODEEG_Images\0263.jpg	NY	Right	Yes	0.49652739999874	0	407053	253
795.51171875	0	health	response	2	107	47	foodImage.27	FOODEEG_Images\0263.jpg	NY	Right	Yes	0.49652739999874	0	407303	235
796.556640625	1	taste	trialStart	2	108	48	foodImage.30	FOODEEG_Images\0282.jpg	YN	Left	Yes	1.31489349999902	0	407838	251
797.599609375	2	taste	foodImageDisplay	2	108	48	foodImage.30	FOODEEG_Images\0282.jpg	YN	Left	Yes	1.31489349999902	0	408372	252
799.66796875	1.31489349999902	taste	choicePhaseStart	2	108	48	foodImage.30	FOODEEG_Images\0282.jpg	YN	Left	Yes	1.31489349999902	0	409431	253
800.974609375	0	taste	response	2	108	48	foodImage.30	FOODEEG_Images\0282.jpg	YN	Left	Yes	1.31489349999902	0	410100	234
802.017578125	1	taste	trialStart	2	109	49	foodImage.14	FOODEEG_Images\0188.jpg	NY	Right	Yes	0.651684000000387	0	410634	251
803.076171875	2	taste	foodImageDisplay	2	109	49	foodImage.14	FOODEEG_Images\0188.jpg	NY	Right	Yes	0.651684000000387	0	411176	252
805.140625	0.651684000000387	taste	choicePhaseStart	2	109	49	foodImage.14	FOODEEG_Images\0188.jpg	NY	Right	Yes	0.651684000000387	0	412233	253
805.783203125	0	taste	response	2	109	49	foodImage.14	FOODEEG_Images\0188.jpg	NY	Right	Yes	0.651684000000387	0	412562	235
806.826171875	1	health	trialStart	2	110	50	foodImage.29	FOODEEG_Images\0278.jpg	NY	Right	Yes	1.15744130000166	0	413096	251
807.8671875	2	health	foodImageDisplay	2	110	50	foodImage.29	FOODEEG_Images\0278.jpg	NY	Right	Yes	1.15744130000166	0	413629	252
809.9296875	1.15744130000166	health	choicePhaseStart	2	110	50	foodImage.29	FOODEEG_Images\0278.jpg	NY	Right	Yes	1.15744130000166	0	414685	253
811.078125	0	health	response	2	110	50	foodImage.29	FOODEEG_Images\0278.jpg	NY	Right	Yes	1.15744130000166	0	415273	235
812.12109375	1	health	trialStart	2	111	51	foodImage.44	FOODEEG_Images\0459.jpg	YN	Left	Yes	0.529024200001004	0	415807	251
813.166015625	2	health	foodImageDisplay	2	111	51	foodImage.44	FOODEEG_Images\0459.jpg	YN	Left	Yes	0.529024200001004	0	416342	252
815.23046875	0.529024200001004	health	choicePhaseStart	2	111	51	foodImage.44	FOODEEG_Images\0459.jpg	YN	Left	Yes	0.529024200001004	0	417399	253
815.75	0	health	response	2	111	51	foodImage.44	FOODEEG_Images\0459.jpg	YN	Left	Yes	0.529024200001004	0	417665	234
816.79296875	1	health	trialStart	2	112	52	foodImage.90	FOODEEG_Images\0890.jpg	NY	Right	Yes	0.582678200000373	0	418199	251
817.84765625	2	health	foodImageDisplay	2	112	52	foodImage.90	FOODEEG_Images\0890.jpg	NY	Right	Yes	0.582678200000373	0	418739	252
819.912109375	0.582678200000373	health	choicePhaseStart	2	112	52	foodImage.90	FOODEEG_Images\0890.jpg	NY	Right	Yes	0.582678200000373	0	419796	253
820.486328125	0	health	response	2	112	52	foodImage.90	FOODEEG_Images\0890.jpg	NY	Right	Yes	0.582678200000373	0	420090	235
821.529296875	1	health	trialStart	2	113	53	foodImage.94	FOODEEG_Images\0902.jpg	YN	Right	No	1.61656790000052	0	420624	251
822.56640625	2	health	foodImageDisplay	2	113	53	foodImage.94	FOODEEG_Images\0902.jpg	YN	Right	No	1.61656790000052	0	421155	252
824.630859375	1.61656790000052	health	choicePhaseStart	2	113	53	foodImage.94	FOODEEG_Images\0902.jpg	YN	Right	No	1.61656790000052	0	422212	253
826.23828125	0	health	response	2	113	53	foodImage.94	FOODEEG_Images\0902.jpg	YN	Right	No	1.61656790000052	0	423035	235
827.279296875	1	health	trialStart	2	114	54	foodImage.66	FOODEEG_Images\0676.jpg	YN	Right	No	0.822683500002313	0	423568	251
828.322265625	2	health	foodImageDisplay	2	114	54	foodImage.66	FOODEEG_Images\0676.jpg	YN	Right	No	0.822683500002313	0	424102	252
830.384765625	0.822683500002313	health	choicePhaseStart	2	114	54	foodImage.66	FOODEEG_Images\0676.jpg	YN	Right	No	0.822683500002313	0	425158	253
831.197265625	0	health	response	2	114	54	foodImage.66	FOODEEG_Images\0676.jpg	YN	Right	No	0.822683500002313	0	425574	235
832.240234375	1	taste	trialStart	2	115	55	foodImage.29	FOODEEG_Images\0278.jpg	YN	Right	No	0.910609500002465	0	426108	251
833.28125	2	taste	foodImageDisplay	2	115	55	foodImage.29	FOODEEG_Images\0278.jpg	YN	Right	No	0.910609500002465	0	426641	252
835.34375	0.910609500002465	taste	choicePhaseStart	2	115	55	foodImage.29	FOODEEG_Images\0278.jpg	YN	Right	No	0.910609500002465	0	427697	253
836.24609375	0	taste	response	2	115	55	foodImage.29	FOODEEG_Images\0278.jpg	YN	Right	No	0.910609500002465	0	428159	235
837.287109375	1	decision	trialStart	2	116	56	foodImage.94	FOODEEG_Images\0902.jpg	NY	Left	No	0.769224700001359	0	428692	251
838.32421875	2	decision	foodImageDisplay	2	116	56	foodImage.94	FOODEEG_Images\0902.jpg	NY	Left	No	0.769224700001359	0	429223	252
840.39453125	0.769224700001359	decision	choicePhaseStart	2	116	56	foodImage.94	FOODEEG_Images\0902.jpg	NY	Left	No	0.769224700001359	0	430283	253
841.158203125	0	decision	response	2	116	56	foodImage.94	FOODEEG_Images\0902.jpg	NY	Left	No	0.769224700001359	0	430674	234
842.201171875	1	decision	trialStart	2	117	57	foodImage.41	FOODEEG_Images\0409.jpg	NY	Right	Yes	0.733285900001647	0	431208	251
843.24609375	2	decision	foodImageDisplay	2	117	57	foodImage.41	FOODEEG_Images\0409.jpg	NY	Right	Yes	0.733285900001647	0	431743	252
845.3125	0.733285900001647	decision	choicePhaseStart	2	117	57	foodImage.41	FOODEEG_Images\0409.jpg	NY	Right	Yes	0.733285900001647	0	432801	253
846.037109375	0	decision	response	2	117	57	foodImage.41	FOODEEG_Images\0409.jpg	NY	Right	Yes	0.733285900001647	0	433172	235
847.080078125	1	decision	trialStart	2	118	58	foodImage.85	FOODEEG_Images\0841.jpg	NY	Right	Yes	0.717612299999018	0	433706	251
848.13671875	2	decision	foodImageDisplay	2	118	58	foodImage.85	FOODEEG_Images\0841.jpg	NY	Right	Yes	0.717612299999018	0	434247	252
850.201171875	0.717612299999018	decision	choicePhaseStart	2	118	58	foodImage.85	FOODEEG_Images\0841.jpg	NY	Right	Yes	0.717612299999018	0	435304	253
850.908203125	0	decision	response	2	118	58	foodImage.85	FOODEEG_Images\0841.jpg	NY	Right	Yes	0.717612299999018	0	435666	235
851.94921875	1	taste	trialStart	2	119	59	foodImage.76	FOODEEG_Images\0766.jpg	YN	Right	No	1.12604189999911	0	436199	251
852.9921875	2	taste	foodImageDisplay	2	119	59	foodImage.76	FOODEEG_Images\0766.jpg	YN	Right	No	1.12604189999911	0	436733	252
855.056640625	1.12604189999911	taste	choicePhaseStart	2	119	59	foodImage.76	FOODEEG_Images\0766.jpg	YN	Right	No	1.12604189999911	0	437790	253
856.173828125	0	taste	response	2	119	59	foodImage.76	FOODEEG_Images\0766.jpg	YN	Right	No	1.12604189999911	0	438362	235
857.212890625	1	taste	trialStart	2	120	60	foodImage.74	FOODEEG_Images\0752.jpg	NY	Right	Yes	0.99814139999944	0	438894	251
858.255859375	2	taste	foodImageDisplay	2	120	60	foodImage.74	FOODEEG_Images\0752.jpg	NY	Right	Yes	0.99814139999944	0	439428	252
860.3203125	0.99814139999944	taste	choicePhaseStart	2	120	60	foodImage.74	FOODEEG_Images\0752.jpg	NY	Right	Yes	0.99814139999944	0	440485	253
861.30859375	0	taste	response	2	120	60	foodImage.74	FOODEEG_Images\0752.jpg	NY	Right	Yes	0.99814139999944	0	440991	235
863.3515625	29.326171875	n/a	blockEnd	n/a	n/a	n/a	n/a	n/a	n/a	n/a	n/a	n/a	n/a	442037	254
892.677734375	2	n/a	blockStart	3	n/a	n/a	n/a	n/a	n/a	n/a	n/a	n/a	n/a	457052	250
894.716796875	1	taste	trialStart	3	121	1	foodImage.22	FOODEEG_Images\0236.jpg	NY	Left	No	0.805952800001251	0	458096	251
895.7578125	2	taste	foodImageDisplay	3	121	1	foodImage.22	FOODEEG_Images\0236.jpg	NY	Left	No	0.805952800001251	0	458629	252
897.822265625	0.805952800001251	taste	choicePhaseStart	3	121	1	foodImage.22	FOODEEG_Images\0236.jpg	NY	Left	No	0.805952800001251	0	459686	253
898.619140625	0	taste	response	3	121	1	foodImage.22	FOODEEG_Images\0236.jpg	NY	Left	No	0.805952800001251	0	460094	234
899.66015625	1	decision	trialStart	3	122	2	foodImage.59	FOODEEG_Images\0607.jpg	NY	Left	No	0.609738299997844	0	460627	251
900.70703125	2	decision	foodImageDisplay	3	122	2	foodImage.59	FOODEEG_Images\0607.jpg	NY	Left	No	0.609738299997844	0	461163	252
902.76953125	0.609738299997844	decision	choicePhaseStart	3	122	2	foodImage.59	FOODEEG_Images\0607.jpg	NY	Left	No	0.609738299997844	0	462219	253
903.37109375	0	decision	response	3	122	2	foodImage.59	FOODEEG_Images\0607.jpg	NY	Left	No	0.609738299997844	0	462527	234
904.4140625	1	decision	trialStart	3	123	3	foodImage.90	FOODEEG_Images\0890.jpg	NY	Left	No	0.415848799999367	0	463061	251
905.46875	2	decision	foodImageDisplay	3	123	3	foodImage.90	FOODEEG_Images\0890.jpg	NY	Left	No	0.415848799999367	0	463601	252
907.533203125	0.415848799999367	decision	choicePhaseStart	3	123	3	foodImage.90	FOODEEG_Images\0890.jpg	NY	Left	No	0.415848799999367	0	464658	253
907.9375	0	decision	response	3	123	3	foodImage.90	FOODEEG_Images\0890.jpg	NY	Left	No	0.415848799999367	0	464865	234
908.98046875	1	health	trialStart	3	124	4	foodImage.107	FOODEEG_Images\0915.jpg	NY	Right	Yes	2.00849139999991	0	465399	251
910.01953125	2	health	foodImageDisplay	3	124	4	foodImage.107	FOODEEG_Images\0915.jpg	NY	Right	Yes	2.00849139999991	0	465931	252
912.083984375	2.00849139999991	health	choicePhaseStart	3	124	4	foodImage.107	FOODEEG_Images\0915.jpg	NY	Right	Yes	2.00849139999991	0	466988	253
914.08203125	0	health	response	3	124	4	foodImage.107	FOODEEG_Images\0915.jpg	NY	Right	Yes	2.00849139999991	0	468011	235
915.125	1	decision	trialStart	3	125	5	foodImage.47	FOODEEG_Images\0488.jpg	NY	Right	Yes	0.739753499998187	0	468545	251
916.18359375	2	decision	foodImageDisplay	3	125	5	foodImage.47	FOODEEG_Images\0488.jpg	NY	Right	Yes	0.739753499998187	0	469087	252
918.248046875	0.739753499998187	decision	choicePhaseStart	3	125	5	foodImage.47	FOODEEG_Images\0488.jpg	NY	Right	Yes	0.739753499998187	0	470144	253
918.978515625	0	decision	response	3	125	5	foodImage.47	FOODEEG_Images\0488.jpg	NY	Right	Yes	0.739753499998187	0	470518	235
920.029296875	1	health	trialStart	3	126	6	foodImage.74	FOODEEG_Images\0752.jpg	YN	Left	Yes	1.05996260000029	0	471056	251
921.072265625	2	health	foodImageDisplay	3	126	6	foodImage.74	FOODEEG_Images\0752.jpg	YN	Left	Yes	1.05996260000029	0	471590	252
923.13671875	1.05996260000029	health	choicePhaseStart	3	126	6	foodImage.74	FOODEEG_Images\0752.jpg	YN	Left	Yes	1.05996260000029	0	472647	253
924.185546875	0	health	response	3	126	6	foodImage.74	FOODEEG_Images\0752.jpg	YN	Left	Yes	1.05996260000029	0	473184	234
925.228515625	1	decision	trialStart	3	127	7	foodImage.35	FOODEEG_Images\0350.jpg	NY	Right	Yes	0.68948889999956	0	473718	251
926.267578125	2	decision	foodImageDisplay	3	127	7	foodImage.35	FOODEEG_Images\0350.jpg	NY	Right	Yes	0.68948889999956	0	474250	252
928.330078125	0.68948889999956	decision	choicePhaseStart	3	127	7	foodImage.35	FOODEEG_Images\0350.jpg	NY	Right	Yes	0.68948889999956	0	475306	253
929.009765625	0	decision	response	3	127	7	foodImage.35	FOODEEG_Images\0350.jpg	NY	Right	Yes	0.68948889999956	0	475654	235
930.052734375	1	decision	trialStart	3	128	8	foodImage.76	FOODEEG_Images\0766.jpg	NY	Left	No	1.45695089999936	0	476188	251
931.09765625	2	decision	foodImageDisplay	3	128	8	foodImage.76	FOODEEG_Images\0766.jpg	NY	Left	No	1.45695089999936	0	476723	252
933.162109375	1.45695089999936	decision	choicePhaseStart	3	128	8	foodImage.76	FOODEEG_Images\0766.jpg	NY	Left	No	1.45695089999936	0	477780	253
934.609375	0	decision	response	3	128	8	foodImage.76	FOODEEG_Images\0766.jpg	NY	Left	No	1.45695089999936	0	478521	234
935.65234375	1	taste	trialStart	3	129	9	foodImage.62	FOODEEG_Images\0644.jpg	YN	Left	Yes	0.786216000000422	0	479055	251
936.708984375	2	taste	foodImageDisplay	3	129	9	foodImage.62	FOODEEG_Images\0644.jpg	YN	Left	Yes	0.786216000000422	0	479596	252
938.775390625	0.786216000000422	taste	choicePhaseStart	3	129	9	foodImage.62	FOODEEG_Images\0644.jpg	YN	Left	Yes	0.786216000000422	0	480654	253
939.552734375	0	taste	response	3	129	9	foodImage.62	FOODEEG_Images\0644.jpg	YN	Left	Yes	0.786216000000422	0	481052	234
940.59375	1	decision	trialStart	3	130	10	foodImage.101	FOODEEG_Images\0909.jpg	YN	Right	No	0.796156299998984	0	481585	251
941.638671875	2	decision	foodImageDisplay	3	130	10	foodImage.101	FOODEEG_Images\0909.jpg	YN	Right	No	0.796156299998984	0	482120	252
943.701171875	0.796156299998984	decision	choicePhaseStart	3	130	10	foodImage.101	FOODEEG_Images\0909.jpg	YN	Right	No	0.796156299998984	0	483176	253
944.490234375	0	decision	response	3	130	10	foodImage.101	FOODEEG_Images\0909.jpg	YN	Right	No	0.796156299998984	0	483580	235
945.53125	1	decision	trialStart	3	131	11	foodImage.79	FOODEEG_Images\0794.jpg	NY	Right	Yes	0.62019220000002	0	484113	251
946.57421875	2	decision	foodImageDisplay	3	131	11	foodImage.79	FOODEEG_Images\0794.jpg	NY	Right	Yes	0.62019220000002	0	484647	252
948.638671875	0.62019220000002	decision	choicePhaseStart	3	131	11	foodImage.79	FOODEEG_Images\0794.jpg	NY	Right	Yes	0.62019220000002	0	485704	253
949.25	0	decision	response	3	131	11	foodImage.79	FOODEEG_Images\0794.jpg	NY	Right	Yes	0.62019220000002	0	486017	235
950.291015625	1	taste	trialStart	3	132	12	foodImage.27	FOODEEG_Images\0263.jpg	YN	Left	Yes	1.27788570000121	0	486550	251
951.333984375	2	taste	foodImageDisplay	3	132	12	foodImage.27	FOODEEG_Images\0263.jpg	YN	Left	Yes	1.27788570000121	0	487084	252
953.396484375	1.27788570000121	taste	choicePhaseStart	3	132	12	foodImage.27	FOODEEG_Images\0263.jpg	YN	Left	Yes	1.27788570000121	0	488140	253
954.666015625	0	taste	response	3	132	12	foodImage.27	FOODEEG_Images\0263.jpg	YN	Left	Yes	1.27788570000121	0	488790	234
955.70703125	1	decision	trialStart	3	133	13	foodImage.11	FOODEEG_Images\0180.jpg	NY	Left	No	0.689960800002154	0	489323	251
956.75	2	decision	foodImageDisplay	3	133	13	foodImage.11	FOODEEG_Images\0180.jpg	NY	Left	No	0.689960800002154	0	489857	252
958.81640625	0.689960800002154	decision	choicePhaseStart	3	133	13	foodImage.11	FOODEEG_Images\0180.jpg	NY	Left	No	0.689960800002154	0	490915	253
959.49609375	0	decision	response	3	133	13	foodImage.11	FOODEEG_Images\0180.jpg	NY	Left	No	0.689960800002154	0	491263	234
960.537109375	1	taste	trialStart	3	134	14	foodImage.3	FOODEEG_Images\0046.jpg	YN	Left	Yes	0.663660599999275	0	491796	251
961.578125	2	taste	foodImageDisplay	3	134	14	foodImage.3	FOODEEG_Images\0046.jpg	YN	Left	Yes	0.663660599999275	0	492329	252
963.642578125	0.663660599999275	taste	choicePhaseStart	3	134	14	foodImage.3	FOODEEG_Images\0046.jpg	YN	Left	Yes	0.663660599999275	0	493386	253
964.296875	0	taste	response	3	134	14	foodImage.3	FOODEEG_Images\0046.jpg	YN	Left	Yes	0.663660599999275	0	493721	234
965.337890625	1	decision	trialStart	3	135	15	foodImage.77	FOODEEG_Images\0771.jpg	YN	Left	Yes	0.501013499997498	0	494254	251
966.380859375	2	decision	foodImageDisplay	3	135	15	foodImage.77	FOODEEG_Images\0771.jpg	YN	Left	Yes	0.501013499997498	0	494788	252
968.443359375	0.501013499997498	decision	choicePhaseStart	3	135	15	foodImage.77	FOODEEG_Images\0771.jpg	YN	Left	Yes	0.501013499997498	0	495844	253
968.935546875	0	decision	response	3	135	15	foodImage.77	FOODEEG_Images\0771.jpg	YN	Left	Yes	0.501013499997498	0	496096	234
969.978515625	1	taste	trialStart	3	136	16	foodImage.28	FOODEEG_Images\0273.jpg	YN	Right	No	0.961507600000914	0	496630	251
971.021484375	2	taste	foodImageDisplay	3	136	16	foodImage.28	FOODEEG_Images\0273.jpg	YN	Right	No	0.961507600000914	0	497164	252
973.0859375	0.961507600000914	taste	choicePhaseStart	3	136	16	foodImage.28	FOODEEG_Images\0273.jpg	YN	Right	No	0.961507600000914	0	498221	253
974.0390625	0	taste	response	3	136	16	foodImage.28	FOODEEG_Images\0273.jpg	YN	Right	No	0.961507600000914	0	498709	235
975.083984375	1	decision	trialStart	3	137	17	foodImage.13	FOODEEG_Images\0183.jpg	NY	Left	No	1.46857300000192	0	499244	251
976.125	2	decision	foodImageDisplay	3	137	17	foodImage.13	FOODEEG_Images\0183.jpg	NY	Left	No	1.46857300000192	0	499777	252
978.189453125	1.46857300000192	decision	choicePhaseStart	3	137	17	foodImage.13	FOODEEG_Images\0183.jpg	NY	Left	No	1.46857300000192	0	500834	253
979.6484375	0	decision	response	3	137	17	foodImage.13	FOODEEG_Images\0183.jpg	NY	Left	No	1.46857300000192	0	501581	234
980.69140625	1	taste	trialStart	3	138	18	foodImage.10	FOODEEG_Images\0145.jpg	YN	Left	Yes	0.55534439999974	0	502115	251
981.751953125	2	taste	foodImageDisplay	3	138	18	foodImage.10	FOODEEG_Images\0145.jpg	YN	Left	Yes	0.55534439999974	0	502658	252
983.814453125	0.55534439999974	taste	choicePhaseStart	3	138	18	foodImage.10	FOODEEG_Images\0145.jpg	YN	Left	Yes	0.55534439999974	0	503714	253
984.359375	0	taste	response	3	138	18	foodImage.10	FOODEEG_Images\0145.jpg	YN	Left	Yes	0.55534439999974	0	503993	234
985.404296875	1	decision	trialStart	3	139	19	foodImage.21	FOODEEG_Images\0234.jpg	NY	Right	Yes	0.787406800001918	0	504528	251
986.4609375	2	decision	foodImageDisplay	3	139	19	foodImage.21	FOODEEG_Images\0234.jpg	NY	Right	Yes	0.787406800001918	0	505069	252
988.525390625	0.787406800001918	decision	choicePhaseStart	3	139	19	foodImage.21	FOODEEG_Images\0234.jpg	NY	Right	Yes	0.787406800001918	0	506126	253
989.302734375	0	decision	response	3	139	19	foodImage.21	FOODEEG_Images\0234.jpg	NY	Right	Yes	0.787406800001918	0	506524	235
990.345703125	1	taste	trialStart	3	140	20	foodImage.99	FOODEEG_Images\0907.jpg	NY	Left	No	0.55556770000112	0	507058	251
991.384765625	2	taste	foodImageDisplay	3	140	20	foodImage.99	FOODEEG_Images\0907.jpg	NY	Left	No	0.55556770000112	0	507590	252
993.453125	0.55556770000112	taste	choicePhaseStart	3	140	20	foodImage.99	FOODEEG_Images\0907.jpg	NY	Left	No	0.55556770000112	0	508649	253
994	0	taste	response	3	140	20	foodImage.99	FOODEEG_Images\0907.jpg	NY	Left	No	0.55556770000112	0	508929	234
995.04296875	1	taste	trialStart	3	141	21	foodImage.19	FOODEEG_Images\0225.jpg	NY	Right	Yes	0.586558300001343	0	509463	251
996.0859375	2	taste	foodImageDisplay	3	141	21	foodImage.19	FOODEEG_Images\0225.jpg	NY	Right	Yes	0.586558300001343	0	509997	252
998.1484375	0.586558300001343	taste	choicePhaseStart	3	141	21	foodImage.19	FOODEEG_Images\0225.jpg	NY	Right	Yes	0.586558300001343	0	511053	253
998.7265625	0	taste	response	3	141	21	foodImage.19	FOODEEG_Images\0225.jpg	NY	Right	Yes	0.586558300001343	0	511349	235
999.76953125	1	health	trialStart	3	142	22	foodImage.53	FOODEEG_Images\0547.jpg	NY	Left	No	0.812391799998295	0	511883	251
1000.828125	2	health	foodImageDisplay	3	142	22	foodImage.53	FOODEEG_Images\0547.jpg	NY	Left	No	0.812391799998295	0	512425	252
1002.892578125	0.812391799998295	health	choicePhaseStart	3	142	22	foodImage.53	FOODEEG_Images\0547.jpg	NY	Left	No	0.812391799998295	0	513482	253
1003.6953125	0	health	response	3	142	22	foodImage.53	FOODEEG_Images\0547.jpg	NY	Left	No	0.812391799998295	0	513893	234
1004.73828125	1	decision	trialStart	3	143	23	foodImage.55	FOODEEG_Images\0567.jpg	NY	Right	Yes	0.963981500000955	0	514427	251
1005.796875	2	decision	foodImageDisplay	3	143	23	foodImage.55	FOODEEG_Images\0567.jpg	NY	Right	Yes	0.963981500000955	0	514969	252
1007.861328125	0.963981500000955	decision	choicePhaseStart	3	143	23	foodImage.55	FOODEEG_Images\0567.jpg	NY	Right	Yes	0.963981500000955	0	516026	253
1008.814453125	0	decision	response	3	143	23	foodImage.55	FOODEEG_Images\0567.jpg	NY	Right	Yes	0.963981500000955	0	516514	235
1009.857421875	1	health	trialStart	3	144	24	foodImage.120	FOODEEG_Images\0928.jpg	NY	Left	No	1.58829250000053	0	517048	251
1010.89453125	2	health	foodImageDisplay	3	144	24	foodImage.120	FOODEEG_Images\0928.jpg	NY	Left	No	1.58829250000053	0	517579	252
1012.96484375	1.58829250000053	health	choicePhaseStart	3	144	24	foodImage.120	FOODEEG_Images\0928.jpg	NY	Left	No	1.58829250000053	0	518639	253
1014.54296875	0	health	response	3	144	24	foodImage.120	FOODEEG_Images\0928.jpg	NY	Left	No	1.58829250000053	0	519447	234
1015.5859375	1	health	trialStart	3	145	25	foodImage.35	FOODEEG_Images\0350.jpg	YN	Right	No	1.20806470000025	0	519981	251
1016.625	2	health	foodImageDisplay	3	145	25	foodImage.35	FOODEEG_Images\0350.jpg	YN	Right	No	1.20806470000025	0	520513	252
1018.6875	1.20806470000025	health	choicePhaseStart	3	145	25	foodImage.35	FOODEEG_Images\0350.jpg	YN	Right	No	1.20806470000025	0	521569	253
1019.88671875	0	health	response	3	145	25	foodImage.35	FOODEEG_Images\0350.jpg	YN	Right	No	1.20806470000025	0	522183	235
1020.927734375	1	decision	trialStart	3	146	26	foodImage.119	FOODEEG_Images\0927.jpg	YN	Right	No	1.02358390000154	0	522716	251
1021.966796875	2	decision	foodImageDisplay	3	146	26	foodImage.119	FOODEEG_Images\0927.jpg	YN	Right	No	1.02358390000154	0	523248	252
1024.03125	1.02358390000154	decision	choicePhaseStart	3	146	26	foodImage.119	FOODEEG_Images\0927.jpg	YN	Right	No	1.02358390000154	0	524305	253
1025.046875	0	decision	response	3	146	26	foodImage.119	FOODEEG_Images\0927.jpg	YN	Right	No	1.02358390000154	0	524825	235
1026.08984375	1	health	trialStart	3	147	27	foodImage.22	FOODEEG_Images\0236.jpg	NY	Right	Yes	1.05121040000085	0	525359	251
1027.1328125	2	health	foodImageDisplay	3	147	27	foodImage.22	FOODEEG_Images\0236.jpg	NY	Right	Yes	1.05121040000085	0	525893	252
1029.1953125	1.05121040000085	health	choicePhaseStart	3	147	27	foodImage.22	FOODEEG_Images\0236.jpg	NY	Right	Yes	1.05121040000085	0	526949	253
1030.23828125	0	health	response	3	147	27	foodImage.22	FOODEEG_Images\0236.jpg	NY	Right	Yes	1.05121040000085	0	527483	235
1031.28125	1	taste	trialStart	3	148	28	foodImage.32	FOODEEG_Images\0319.jpg	YN	Left	Yes	0.640244999998686	0	528017	251
1032.328125	2	taste	foodImageDisplay	3	148	28	foodImage.32	FOODEEG_Images\0319.jpg	YN	Left	Yes	0.640244999998686	0	528553	252
1034.390625	0.640244999998686	taste	choicePhaseStart	3	148	28	foodImage.32	FOODEEG_Images\0319.jpg	YN	Left	Yes	0.640244999998686	0	529609	253
1035.021484375	0	taste	response	3	148	28	foodImage.32	FOODEEG_Images\0319.jpg	YN	Left	Yes	0.640244999998686	0	529932	234
1036.064453125	1	taste	trialStart	3	149	29	foodImage.36	FOODEEG_Images\0352.jpg	NY	Right	Yes	0.852054199996928	0	530466	251
1037.123046875	2	taste	foodImageDisplay	3	149	29	foodImage.36	FOODEEG_Images\0352.jpg	NY	Right	Yes	0.852054199996928	0	531008	252
1039.1875	0.852054199996928	taste	choicePhaseStart	3	149	29	foodImage.36	FOODEEG_Images\0352.jpg	NY	Right	Yes	0.852054199996928	0	532065	253
1040.029296875	0	taste	response	3	149	29	foodImage.36	FOODEEG_Images\0352.jpg	NY	Right	Yes	0.852054199996928	0	532496	235
1041.07421875	1	decision	trialStart	3	150	30	foodImage.24	FOODEEG_Images\0250.jpg	NY	Left	No	1.15446769999835	0	533031	251
1042.1171875	2	decision	foodImageDisplay	3	150	30	foodImage.24	FOODEEG_Images\0250.jpg	NY	Left	No	1.15446769999835	0	533565	252
1044.1796875	1.15446769999835	decision	choicePhaseStart	3	150	30	foodImage.24	FOODEEG_Images\0250.jpg	NY	Left	No	1.15446769999835	0	534621	253
1045.326171875	0	decision	response	3	150	30	foodImage.24	FOODEEG_Images\0250.jpg	NY	Left	No	1.15446769999835	0	535208	234
1046.3671875	1	decision	trialStart	3	151	31	foodImage.112	FOODEEG_Images\0920.jpg	YN	Right	No	0.811449300003005	0	535741	251
1047.404296875	2	decision	foodImageDisplay	3	151	31	foodImage.112	FOODEEG_Images\0920.jpg	YN	Right	No	0.811449300003005	0	536272	252
1049.466796875	0.811449300003005	decision	choicePhaseStart	3	151	31	foodImage.112	FOODEEG_Images\0920.jpg	YN	Right	No	0.811449300003005	0	537328	253
1050.26953125	0	decision	response	3	151	31	foodImage.112	FOODEEG_Images\0920.jpg	YN	Right	No	0.811449300003005	0	537739	235
1051.3125	1	taste	trialStart	3	152	32	foodImage.38	FOODEEG_Images\0365.jpg	YN	Left	Yes	1.16860430000088	0	538273	251
1052.349609375	2	taste	foodImageDisplay	3	152	32	foodImage.38	FOODEEG_Images\0365.jpg	YN	Left	Yes	1.16860430000088	0	538804	252
1054.4140625	1.16860430000088	taste	choicePhaseStart	3	152	32	foodImage.38	FOODEEG_Images\0365.jpg	YN	Left	Yes	1.16860430000088	0	539861	253
1055.572265625	0	taste	response	3	152	32	foodImage.38	FOODEEG_Images\0365.jpg	YN	Left	Yes	1.16860430000088	0	540454	234
1056.615234375	1	decision	trialStart	3	153	33	foodImage.15	FOODEEG_Images\0189.jpg	YN	Left	Yes	0.703357999998843	0	540988	251
1057.671875	2	decision	foodImageDisplay	3	153	33	foodImage.15	FOODEEG_Images\0189.jpg	YN	Left	Yes	0.703357999998843	0	541529	252
1059.736328125	0.703357999998843	decision	choicePhaseStart	3	153	33	foodImage.15	FOODEEG_Images\0189.jpg	YN	Left	Yes	0.703357999998843	0	542586	253
1060.4296875	0	decision	response	3	153	33	foodImage.15	FOODEEG_Images\0189.jpg	YN	Left	Yes	0.703357999998843	0	542941	234
1061.470703125	1	health	trialStart	3	154	34	foodImage.12	FOODEEG_Images\0181.jpg	NY	Right	Yes	1.75684519999777	0	543474	251
1062.513671875	2	health	foodImageDisplay	3	154	34	foodImage.12	FOODEEG_Images\0181.jpg	NY	Right	Yes	1.75684519999777	0	544008	252
1064.578125	1.75684519999777	health	choicePhaseStart	3	154	34	foodImage.12	FOODEEG_Images\0181.jpg	NY	Right	Yes	1.75684519999777	0	545065	253
1066.32421875	0	health	response	3	154	34	foodImage.12	FOODEEG_Images\0181.jpg	NY	Right	Yes	1.75684519999777	0	545959	235
1067.369140625	1	taste	trialStart	3	155	35	foodImage.54	FOODEEG_Images\0560.jpg	YN	Left	Yes	0.539202899999509	0	546494	251
1068.427734375	2	taste	foodImageDisplay	3	155	35	foodImage.54	FOODEEG_Images\0560.jpg	YN	Left	Yes	0.539202899999509	0	547036	252
1070.490234375	0.539202899999509	taste	choicePhaseStart	3	155	35	foodImage.54	FOODEEG_Images\0560.jpg	YN	Left	Yes	0.539202899999509	0	548092	253
1071.01953125	0	taste	response	3	155	35	foodImage.54	FOODEEG_Images\0560.jpg	YN	Left	Yes	0.539202899999509	0	548363	234
1072.060546875	1	taste	trialStart	3	156	36	foodImage.93	FOODEEG_Images\0901.jpg	NY	Left	No	0.831652900000336	0	548896	251
1073.111328125	2	taste	foodImageDisplay	3	156	36	foodImage.93	FOODEEG_Images\0901.jpg	NY	Left	No	0.831652900000336	0	549434	252
1075.173828125	0.831652900000336	taste	choicePhaseStart	3	156	36	foodImage.93	FOODEEG_Images\0901.jpg	NY	Left	No	0.831652900000336	0	550490	253
1075.99609375	0	taste	response	3	156	36	foodImage.93	FOODEEG_Images\0901.jpg	NY	Left	No	0.831652900000336	0	550911	234
1077.0390625	1	decision	trialStart	3	157	37	foodImage.46	FOODEEG_Images\0479.jpg	YN	Left	Yes	0.628291199998785	0	551445	251
1078.095703125	2	decision	foodImageDisplay	3	157	37	foodImage.46	FOODEEG_Images\0479.jpg	YN	Left	Yes	0.628291199998785	0	551986	252
1080.16015625	0.628291199998785	decision	choicePhaseStart	3	157	37	foodImage.46	FOODEEG_Images\0479.jpg	YN	Left	Yes	0.628291199998785	0	553043	253
1080.779296875	0	decision	response	3	157	37	foodImage.46	FOODEEG_Images\0479.jpg	YN	Left	Yes	0.628291199998785	0	553360	234
1081.822265625	1	decision	trialStart	3	158	38	foodImage.113	FOODEEG_Images\0921.jpg	YN	Right	No	1.26024859999961	0	553894	251
1082.861328125	2	decision	foodImageDisplay	3	158	38	foodImage.113	FOODEEG_Images\0921.jpg	YN	Right	No	1.26024859999961	0	554426	252
1084.92578125	1.26024859999961	decision	choicePhaseStart	3	158	38	foodImage.113	FOODEEG_Images\0921.jpg	YN	Right	No	1.26024859999961	0	555483	253
1086.1796875	0	decision	response	3	158	38	foodImage.113	FOODEEG_Images\0921.jpg	YN	Right	No	1.26024859999961	0	556125	235
1087.22265625	1	health	trialStart	3	159	39	foodImage.59	FOODEEG_Images\0607.jpg	YN	Right	No	1.59596370000145	0	556659	251
1088.267578125	2	health	foodImageDisplay	3	159	39	foodImage.59	FOODEEG_Images\0607.jpg	YN	Right	No	1.59596370000145	0	557194	252
1090.328125	1.59596370000145	health	choicePhaseStart	3	159	39	foodImage.59	FOODEEG_Images\0607.jpg	YN	Right	No	1.59596370000145	0	558249	253
1091.916015625	0	health	response	3	159	39	foodImage.59	FOODEEG_Images\0607.jpg	YN	Right	No	1.59596370000145	0	559062	235
1092.9609375	1	health	trialStart	3	160	40	foodImage.5	FOODEEG_Images\0107.jpg	YN	Right	No	0.948387000000366	0	559597	251
1094.017578125	2	health	foodImageDisplay	3	160	40	foodImage.5	FOODEEG_Images\0107.jpg	YN	Right	No	0.948387000000366	0	560138	252
1096.080078125	0.948387000000366	health	choicePhaseStart	3	160	40	foodImage.5	FOODEEG_Images\0107.jpg	YN	Right	No	0.948387000000366	0	561194	253
1097.01953125	0	health	response	3	160	40	foodImage.5	FOODEEG_Images\0107.jpg	YN	Right	No	0.948387000000366	0	561675	235
1098.0625	1	health	trialStart	3	161	41	foodImage.78	FOODEEG_Images\0787.jpg	YN	Left	Yes	0.908067299998947	0	562209	251
1099.10546875	2	health	foodImageDisplay	3	161	41	foodImage.78	FOODEEG_Images\0787.jpg	YN	Left	Yes	0.908067299998947	0	562743	252
1101.169921875	0.908067299998947	health	choicePhaseStart	3	161	41	foodImage.78	FOODEEG_Images\0787.jpg	YN	Left	Yes	0.908067299998947	0	563800	253
1102.068359375	0	health	response	3	161	41	foodImage.78	FOODEEG_Images\0787.jpg	YN	Left	Yes	0.908067299998947	0	564260	234
1103.109375	1	taste	trialStart	3	162	42	foodImage.31	FOODEEG_Images\0294.jpg	NY	Right	Yes	0.754716100000223	0	564793	251
1104.150390625	2	taste	foodImageDisplay	3	162	42	foodImage.31	FOODEEG_Images\0294.jpg	NY	Right	Yes	0.754716100000223	0	565326	252
1106.21484375	0.754716100000223	taste	choicePhaseStart	3	162	42	foodImage.31	FOODEEG_Images\0294.jpg	NY	Right	Yes	0.754716100000223	0	566383	253
1106.962890625	0	taste	response	3	162	42	foodImage.31	FOODEEG_Images\0294.jpg	NY	Right	Yes	0.754716100000223	0	566766	235
1108.00390625	1	decision	trialStart	3	163	43	foodImage.6	FOODEEG_Images\0113.jpg	YN	Left	Yes	0.630208499998844	0	567299	251
1109.046875	2	decision	foodImageDisplay	3	163	43	foodImage.6	FOODEEG_Images\0113.jpg	YN	Left	Yes	0.630208499998844	0	567833	252
1111.109375	0.630208499998844	decision	choicePhaseStart	3	163	43	foodImage.6	FOODEEG_Images\0113.jpg	YN	Left	Yes	0.630208499998844	0	568889	253
1111.73046875	0	decision	response	3	163	43	foodImage.6	FOODEEG_Images\0113.jpg	YN	Left	Yes	0.630208499998844	0	569207	234
1112.7734375	1	taste	trialStart	3	164	44	foodImage.45	FOODEEG_Images\0478.jpg	NY	Right	Yes	0.719511300001614	0	569741	251
1113.818359375	2	taste	foodImageDisplay	3	164	44	foodImage.45	FOODEEG_Images\0478.jpg	NY	Right	Yes	0.719511300001614	0	570276	252
1115.880859375	0.719511300001614	taste	choicePhaseStart	3	164	44	foodImage.45	FOODEEG_Images\0478.jpg	NY	Right	Yes	0.719511300001614	0	571332	253
1116.59375	0	taste	response	3	164	44	foodImage.45	FOODEEG_Images\0478.jpg	NY	Right	Yes	0.719511300001614	0	571697	235
1117.63671875	1	taste	trialStart	3	165	45	foodImage.107	FOODEEG_Images\0915.jpg	NY	Left	No	0.758881099998689	0	572231	251
1118.67578125	2	taste	foodImageDisplay	3	165	45	foodImage.107	FOODEEG_Images\0915.jpg	NY	Left	No	0.758881099998689	0	572763	252
1120.740234375	0.758881099998689	taste	choicePhaseStart	3	165	45	foodImage.107	FOODEEG_Images\0915.jpg	NY	Left	No	0.758881099998689	0	573820	253
1121.490234375	0	taste	response	3	165	45	foodImage.107	FOODEEG_Images\0915.jpg	NY	Left	No	0.758881099998689	0	574204	234
1122.529296875	1	health	trialStart	3	166	46	foodImage.25	FOODEEG_Images\0261.jpg	NY	Right	Yes	0.969211700001324	0	574736	251
1123.5703125	2	health	foodImageDisplay	3	166	46	foodImage.25	FOODEEG_Images\0261.jpg	NY	Right	Yes	0.969211700001324	0	575269	252
1125.634765625	0.969211700001324	health	choicePhaseStart	3	166	46	foodImage.25	FOODEEG_Images\0261.jpg	NY	Right	Yes	0.969211700001324	0	576326	253
1126.59375	0	health	response	3	166	46	foodImage.25	FOODEEG_Images\0261.jpg	NY	Right	Yes	0.969211700001324	0	576817	235
1127.634765625	1	taste	trialStart	3	167	47	foodImage.106	FOODEEG_Images\0914.jpg	YN	Left	Yes	0.594756700000289	0	577350	251
1128.673828125	2	taste	foodImageDisplay	3	167	47	foodImage.106	FOODEEG_Images\0914.jpg	YN	Left	Yes	0.594756700000289	0	577882	252
1130.736328125	0.594756700000289	taste	choicePhaseStart	3	167	47	foodImage.106	FOODEEG_Images\0914.jpg	YN	Left	Yes	0.594756700000289	0	578938	253
1131.322265625	0	taste	response	3	167	47	foodImage.106	FOODEEG_Images\0914.jpg	YN	Left	Yes	0.594756700000289	0	579238	234
1132.365234375	1	decision	trialStart	3	168	48	foodImage.4	FOODEEG_Images\0065.jpg	NY	Left	No	1.34385660000044	0	579772	251
1133.419921875	2	decision	foodImageDisplay	3	168	48	foodImage.4	FOODEEG_Images\0065.jpg	NY	Left	No	1.34385660000044	0	580312	252
1135.484375	1.34385660000044	decision	choicePhaseStart	3	168	48	foodImage.4	FOODEEG_Images\0065.jpg	NY	Left	No	1.34385660000044	0	581369	253
1136.818359375	0	decision	response	3	168	48	foodImage.4	FOODEEG_Images\0065.jpg	NY	Left	No	1.34385660000044	0	582052	234
1137.859375	1	decision	trialStart	3	169	49	foodImage.86	FOODEEG_Images\0844.jpg	NY	Left	No	1.51865879999968	0	582585	251
1138.916015625	2	decision	foodImageDisplay	3	169	49	foodImage.86	FOODEEG_Images\0844.jpg	NY	Left	No	1.51865879999968	0	583126	252
1140.98046875	1.51865879999968	decision	choicePhaseStart	3	169	49	foodImage.86	FOODEEG_Images\0844.jpg	NY	Left	No	1.51865879999968	0	584183	253
1142.490234375	0	decision	response	3	169	49	foodImage.86	FOODEEG_Images\0844.jpg	NY	Left	No	1.51865879999968	0	584956	234
1143.53125	1	decision	trialStart	3	170	50	foodImage.29	FOODEEG_Images\0278.jpg	NY	Left	No	0.799194100000022	0	585489	251
1144.572265625	2	decision	foodImageDisplay	3	170	50	foodImage.29	FOODEEG_Images\0278.jpg	NY	Left	No	0.799194100000022	0	586022	252
1146.634765625	0.799194100000022	decision	choicePhaseStart	3	170	50	foodImage.29	FOODEEG_Images\0278.jpg	NY	Left	No	0.799194100000022	0	587078	253
1147.42578125	0	decision	response	3	170	50	foodImage.29	FOODEEG_Images\0278.jpg	NY	Left	No	0.799194100000022	0	587483	234
1148.46484375	1	decision	trialStart	3	171	51	foodImage.114	FOODEEG_Images\0922.jpg	YN	Right	No	0.63485159999982	0	588015	251
1149.501953125	2	decision	foodImageDisplay	3	171	51	foodImage.114	FOODEEG_Images\0922.jpg	YN	Right	No	0.63485159999982	0	588546	252
1151.56640625	0.63485159999982	decision	choicePhaseStart	3	171	51	foodImage.114	FOODEEG_Images\0922.jpg	YN	Right	No	0.63485159999982	0	589603	253
1152.193359375	0	decision	response	3	171	51	foodImage.114	FOODEEG_Images\0922.jpg	YN	Right	No	0.63485159999982	0	589924	235
1153.234375	1	taste	trialStart	3	172	52	foodImage.52	FOODEEG_Images\0539.jpg	YN	Right	No	1.05430549999801	0	590457	251
1154.291015625	2	taste	foodImageDisplay	3	172	52	foodImage.52	FOODEEG_Images\0539.jpg	YN	Right	No	1.05430549999801	0	590998	252
1156.35546875	1.05430549999801	taste	choicePhaseStart	3	172	52	foodImage.52	FOODEEG_Images\0539.jpg	YN	Right	No	1.05430549999801	0	592055	253
1157.400390625	0	taste	response	3	172	52	foodImage.52	FOODEEG_Images\0539.jpg	YN	Right	No	1.05430549999801	0	592590	235
1158.4453125	1	taste	trialStart	3	173	53	foodImage.51	FOODEEG_Images\0536.jpg	YN	Left	Yes	0.539538000000903	0	593125	251
1159.48828125	2	taste	foodImageDisplay	3	173	53	foodImage.51	FOODEEG_Images\0536.jpg	YN	Left	Yes	0.539538000000903	0	593659	252
1161.55078125	0.539538000000903	taste	choicePhaseStart	3	173	53	foodImage.51	FOODEEG_Images\0536.jpg	YN	Left	Yes	0.539538000000903	0	594715	253
1162.080078125	0	taste	response	3	173	53	foodImage.51	FOODEEG_Images\0536.jpg	YN	Left	Yes	0.539538000000903	0	594986	234
1163.125	1	taste	trialStart	3	174	54	foodImage.83	FOODEEG_Images\0827.jpg	NY	Left	No	0.547195499999361	0	595521	251
1164.181640625	2	taste	foodImageDisplay	3	174	54	foodImage.83	FOODEEG_Images\0827.jpg	NY	Left	No	0.547195499999361	0	596062	252
1166.24609375	0.547195499999361	taste	choicePhaseStart	3	174	54	foodImage.83	FOODEEG_Images\0827.jpg	NY	Left	No	0.547195499999361	0	597119	253
1166.78515625	0	taste	response	3	174	54	foodImage.83	FOODEEG_Images\0827.jpg	NY	Left	No	0.547195499999361	0	597395	234
1167.826171875	1	health	trialStart	3	175	55	foodImage.100	FOODEEG_Images\0908.jpg	YN	Left	Yes	0.545973799999047	0	597928	251
1168.86328125	2	health	foodImageDisplay	3	175	55	foodImage.100	FOODEEG_Images\0908.jpg	YN	Left	Yes	0.545973799999047	0	598459	252
1170.927734375	0.545973799999047	health	choicePhaseStart	3	175	55	foodImage.100	FOODEEG_Images\0908.jpg	YN	Left	Yes	0.545973799999047	0	599516	253
1171.46484375	0	health	response	3	175	55	foodImage.100	FOODEEG_Images\0908.jpg	YN	Left	Yes	0.545973799999047	0	599791	234
1172.5078125	1	health	trialStart	3	176	56	foodImage.31	FOODEEG_Images\0294.jpg	YN	Right	No	1.62726300000213	0	600325	251
1173.55078125	2	health	foodImageDisplay	3	176	56	foodImage.31	FOODEEG_Images\0294.jpg	YN	Right	No	1.62726300000213	0	600859	252
1175.615234375	1.62726300000213	health	choicePhaseStart	3	176	56	foodImage.31	FOODEEG_Images\0294.jpg	YN	Right	No	1.62726300000213	0	601916	253
1177.232421875	0	health	response	3	176	56	foodImage.31	FOODEEG_Images\0294.jpg	YN	Right	No	1.62726300000213	0	602744	235
1178.2734375	1	decision	trialStart	3	177	57	foodImage.16	FOODEEG_Images\0196.jpg	NY	Left	No	1.07151789999989	0	603277	251
1179.330078125	2	decision	foodImageDisplay	3	177	57	foodImage.16	FOODEEG_Images\0196.jpg	NY	Left	No	1.07151789999989	0	603818	252
1181.39453125	1.07151789999989	decision	choicePhaseStart	3	177	57	foodImage.16	FOODEEG_Images\0196.jpg	NY	Left	No	1.07151789999989	0	604875	253
1182.455078125	0	decision	response	3	177	57	foodImage.16	FOODEEG_Images\0196.jpg	NY	Left	No	1.07151789999989	0	605418	234
1183.49609375	1	taste	trialStart	3	178	58	foodImage.78	FOODEEG_Images\0787.jpg	NY	Left	No	1.17240459999812	0	605951	251
1184.541015625	2	taste	foodImageDisplay	3	178	58	foodImage.78	FOODEEG_Images\0787.jpg	NY	Left	No	1.17240459999812	0	606486	252
1186.603515625	1.17240459999812	taste	choicePhaseStart	3	178	58	foodImage.78	FOODEEG_Images\0787.jpg	NY	Left	No	1.17240459999812	0	607542	253
1187.767578125	0	taste	response	3	178	58	foodImage.78	FOODEEG_Images\0787.jpg	NY	Left	No	1.17240459999812	0	608138	234
1188.80859375	1	taste	trialStart	3	179	59	foodImage.110	FOODEEG_Images\0918.jpg	NY	Left	No	0.657738899997639	0	608671	251
1189.845703125	2	taste	foodImageDisplay	3	179	59	foodImage.110	FOODEEG_Images\0918.jpg	NY	Left	No	0.657738899997639	0	609202	252
1191.908203125	0.657738899997639	taste	choicePhaseStart	3	179	59	foodImage.110	FOODEEG_Images\0918.jpg	NY	Left	No	0.657738899997639	0	610258	253
1192.560546875	0	taste	response	3	179	59	foodImage.110	FOODEEG_Images\0918.jpg	NY	Left	No	0.657738899997639	0	610592	234
1193.603515625	1	health	trialStart	3	180	60	foodImage.30	FOODEEG_Images\0282.jpg	YN	Left	Yes	0.828974299998663	0	611126	251
1194.64453125	2	health	foodImageDisplay	3	180	60	foodImage.30	FOODEEG_Images\0282.jpg	YN	Left	Yes	0.828974299998663	0	611659	252
1196.708984375	0.828974299998663	health	choicePhaseStart	3	180	60	foodImage.30	FOODEEG_Images\0282.jpg	YN	Left	Yes	0.828974299998663	0	612716	253
1197.52734375	0	health	response	3	180	60	foodImage.30	FOODEEG_Images\0282.jpg	YN	Left	Yes	0.828974299998663	0	613135	234
1199.5703125	43.20703125	n/a	blockEnd	n/a	n/a	n/a	n/a	n/a	n/a	n/a	n/a	n/a	n/a	614181	254
1242.77734375	2	n/a	blockStart	4	n/a	n/a	n/a	n/a	n/a	n/a	n/a	n/a	n/a	636303	250
1244.80859375	1	health	trialStart	4	181	1	foodImage.57	FOODEEG_Images\0587.jpg	YN	Right	No	0.738006899999164	0	637343	251
1245.853515625	2	health	foodImageDisplay	4	181	1	foodImage.57	FOODEEG_Images\0587.jpg	YN	Right	No	0.738006899999164	0	637878	252
1247.916015625	0.738006899999164	health	choicePhaseStart	4	181	1	foodImage.57	FOODEEG_Images\0587.jpg	YN	Right	No	0.738006899999164	0	638934	253
1248.64453125	0	health	response	4	181	1	foodImage.57	FOODEEG_Images\0587.jpg	YN	Right	No	0.738006899999164	0	639307	235
1249.685546875	1	decision	trialStart	4	182	2	foodImage.14	FOODEEG_Images\0188.jpg	YN	Left	Yes	0.584394400000747	0	639840	251
1250.7421875	2	decision	foodImageDisplay	4	182	2	foodImage.14	FOODEEG_Images\0188.jpg	YN	Left	Yes	0.584394400000747	0	640381	252
1252.806640625	0.584394400000747	decision	choicePhaseStart	4	182	2	foodImage.14	FOODEEG_Images\0188.jpg	YN	Left	Yes	0.584394400000747	0	641438	253
1253.380859375	0	decision	response	4	182	2	foodImage.14	FOODEEG_Images\0188.jpg	YN	Left	Yes	0.584394400000747	0	641732	234
1254.423828125	1	health	trialStart	4	183	3	foodImage.42	FOODEEG_Images\0438.jpg	NY	Right	Yes	1.02891799999998	0	642266	251
1255.51171875	2	health	foodImageDisplay	4	183	3	foodImage.42	FOODEEG_Images\0438.jpg	NY	Right	Yes	1.02891799999998	0	642823	252
1257.576171875	1.02891799999998	health	choicePhaseStart	4	183	3	foodImage.42	FOODEEG_Images\0438.jpg	NY	Right	Yes	1.02891799999998	0	643880	253
1258.595703125	0	health	response	4	183	3	foodImage.42	FOODEEG_Images\0438.jpg	NY	Right	Yes	1.02891799999998	0	644402	235
1259.63671875	1	decision	trialStart	4	184	4	foodImage.78	FOODEEG_Images\0787.jpg	NY	Left	No	0.843288399999437	0	644935	251
1260.68359375	2	decision	foodImageDisplay	4	184	4	foodImage.78	FOODEEG_Images\0787.jpg	NY	Left	No	0.843288399999437	0	645471	252
1262.748046875	0.843288399999437	decision	choicePhaseStart	4	184	4	foodImage.78	FOODEEG_Images\0787.jpg	NY	Left	No	0.843288399999437	0	646528	253
1263.580078125	0	decision	response	4	184	4	foodImage.78	FOODEEG_Images\0787.jpg	NY	Left	No	0.843288399999437	0	646954	234
1264.623046875	1	health	trialStart	4	185	5	foodImage.50	FOODEEG_Images\0529.jpg	NY	Right	Yes	1.22279019999769	0	647488	251
1265.6796875	2	health	foodImageDisplay	4	185	5	foodImage.50	FOODEEG_Images\0529.jpg	NY	Right	Yes	1.22279019999769	0	648029	252
1267.744140625	1.22279019999769	health	choicePhaseStart	4	185	5	foodImage.50	FOODEEG_Images\0529.jpg	NY	Right	Yes	1.22279019999769	0	649086	253
1268.95703125	0	health	response	4	185	5	foodImage.50	FOODEEG_Images\0529.jpg	NY	Right	Yes	1.22279019999769	0	649707	235
1269.99609375	1	decision	trialStart	4	186	6	foodImage.52	FOODEEG_Images\0539.jpg	NY	Left	No	0.773496699999669	0	650239	251
1271.072265625	2	decision	foodImageDisplay	4	186	6	foodImage.52	FOODEEG_Images\0539.jpg	NY	Left	No	0.773496699999669	0	650790	252
1273.13671875	0.773496699999669	decision	choicePhaseStart	4	186	6	foodImage.52	FOODEEG_Images\0539.jpg	NY	Left	No	0.773496699999669	0	651847	253
1273.900390625	0	decision	response	4	186	6	foodImage.52	FOODEEG_Images\0539.jpg	NY	Left	No	0.773496699999669	0	652238	234
1274.94140625	1	taste	trialStart	4	187	7	foodImage.43	FOODEEG_Images\0445.jpg	YN	Left	Yes	0.666227900001104	0	652771	251
1275.99609375	2	taste	foodImageDisplay	4	187	7	foodImage.43	FOODEEG_Images\0445.jpg	YN	Left	Yes	0.666227900001104	0	653311	252
1278.05859375	0.666227900001104	taste	choicePhaseStart	4	187	7	foodImage.43	FOODEEG_Images\0445.jpg	YN	Left	Yes	0.666227900001104	0	654367	253
1278.716796875	0	taste	response	4	187	7	foodImage.43	FOODEEG_Images\0445.jpg	YN	Left	Yes	0.666227900001104	0	654704	234
1279.7578125	1	health	trialStart	4	188	8	foodImage.105	FOODEEG_Images\0913.jpg	YN	Right	No	1.24186199999895	0	655237	251
1280.796875	2	health	foodImageDisplay	4	188	8	foodImage.105	FOODEEG_Images\0913.jpg	YN	Right	No	1.24186199999895	0	655769	252
1282.859375	1.24186199999895	health	choicePhaseStart	4	188	8	foodImage.105	FOODEEG_Images\0913.jpg	YN	Right	No	1.24186199999895	0	656825	253
1284.091796875	0	health	response	4	188	8	foodImage.105	FOODEEG_Images\0913.jpg	YN	Right	No	1.24186199999895	0	657456	235
1285.134765625	1	health	trialStart	4	189	9	foodImage.84	FOODEEG_Images\0830.jpg	YN	Left	Yes	1.14192270000058	0	657990	251
1286.189453125	2	health	foodImageDisplay	4	189	9	foodImage.84	FOODEEG_Images\0830.jpg	YN	Left	Yes	1.14192270000058	0	658530	252
1288.251953125	1.14192270000058	health	choicePhaseStart	4	189	9	foodImage.84	FOODEEG_Images\0830.jpg	YN	Left	Yes	1.14192270000058	0	659586	253
1289.38671875	0	health	response	4	189	9	foodImage.84	FOODEEG_Images\0830.jpg	YN	Left	Yes	1.14192270000058	0	660167	234
1290.43359375	1	taste	trialStart	4	190	10	foodImage.88	FOODEEG_Images\0878.jpg	NY	Right	Yes	0.686306100000365	0	660703	251
1291.486328125	2	taste	foodImageDisplay	4	190	10	foodImage.88	FOODEEG_Images\0878.jpg	NY	Right	Yes	0.686306100000365	0	661242	252
1293.55078125	0.686306100000365	taste	choicePhaseStart	4	190	10	foodImage.88	FOODEEG_Images\0878.jpg	NY	Right	Yes	0.686306100000365	0	662299	253
1294.2265625	0	taste	response	4	190	10	foodImage.88	FOODEEG_Images\0878.jpg	NY	Right	Yes	0.686306100000365	0	662645	235
1295.271484375	1	taste	trialStart	4	191	11	foodImage.73	FOODEEG_Images\0717.jpg	YN	Left	Yes	0.500977200001216	0	663180	251
1296.328125	2	taste	foodImageDisplay	4	191	11	foodImage.73	FOODEEG_Images\0717.jpg	YN	Left	Yes	0.500977200001216	0	663721	252
1298.392578125	0.500977200001216	taste	choicePhaseStart	4	191	11	foodImage.73	FOODEEG_Images\0717.jpg	YN	Left	Yes	0.500977200001216	0	664778	253
1298.8828125	0	taste	response	4	191	11	foodImage.73	FOODEEG_Images\0717.jpg	YN	Left	Yes	0.500977200001216	0	665029	234
1299.923828125	1	taste	trialStart	4	192	12	foodImage.117	FOODEEG_Images\0925.jpg	YN	Right	No	0.55371130000276	0	665562	251
1300.962890625	2	taste	foodImageDisplay	4	192	12	foodImage.117	FOODEEG_Images\0925.jpg	YN	Right	No	0.55371130000276	0	666094	252
1303.025390625	0.55371130000276	taste	choicePhaseStart	4	192	12	foodImage.117	FOODEEG_Images\0925.jpg	YN	Right	No	0.55371130000276	0	667150	253
1303.5703125	0	taste	response	4	192	12	foodImage.117	FOODEEG_Images\0925.jpg	YN	Right	No	0.55371130000276	0	667429	235
1304.61328125	1	taste	trialStart	4	193	13	foodImage.80	FOODEEG_Images\0796.jpg	NY	Right	Yes	0.905826300000626	0	667963	251
1305.671875	2	taste	foodImageDisplay	4	193	13	foodImage.80	FOODEEG_Images\0796.jpg	NY	Right	Yes	0.905826300000626	0	668505	252
