onset	duration	trial_type	event_type	block	trial_total	trial_in_block	food_image_code	food_image_path	button_position	resp_position	resp_choice	choice_rt	resp_too_slow	sample	trigger
308.068359375	2	n/a	blockStart	1	n/a	n/a	n/a	n/a	n/a	n/a	n/a	n/a	n/a	157732	250
310.107421875	1	decision	trialStart	1	1	1	foodImage.104	FOODEEG_Images\0912.jpg	NY	Left	No	3.22501740000007	0	158776	251
311.154296875	2	decision	foodImageDisplay	1	1	1	foodImage.104	FOODEEG_Images\0912.jpg	NY	Left	No	3.22501740000007	0	159312	252
313.21875	3.22501740000007	decision	choicePhaseStart	1	1	1	foodImage.104	FOODEEG_Images\0912.jpg	NY	Left	No	3.22501740000007	0	160369	253
316.435546875	0	decision	response	1	1	1	foodImage.104	FOODEEG_Images\0912.jpg	NY	Left	No	3.22501740000007	0	162016	234
317.525390625	1	taste	trialStart	1	2	2	foodImage.90	FOODEEG_Images\0890.jpg	NY	Right	Yes	1.98286049999933	0	162574	251
318.587890625	2	taste	foodImageDisplay	1	2	2	foodImage.90	FOODEEG_Images\0890.jpg	NY	Right	Yes	1.98286049999933	0	163118	252
320.65234375	1.98286049999933	taste	choicePhaseStart	1	2	2	foodImage.90	FOODEEG_Images\0890.jpg	NY	Right	Yes	1.98286049999933	0	164175	253
322.626953125	0	taste	response	1	2	2	foodImage.90	FOODEEG_Images\0890.jpg	NY	Right	Yes	1.98286049999933	0	165186	235
323.6796875	1	taste	trialStart	1	3	3	foodImage.110	FOODEEG_Images\0918.jpg	YN	Left	Yes	0.769581800000196	0	165725	251
324.720703125	2	taste	foodImageDisplay	1	3	3	foodImage.110	FOODEEG_Images\0918.jpg	YN	Left	Yes	0.769581800000196	0	166258	252
326.78515625	0.769581800000196	taste	choicePhaseStart	1	3	3	foodImage.110	FOODEEG_Images\0918.jpg	YN	Left	Yes	0.769581800000196	0	167315	253
327.546875	0	taste	response	1	3	3	foodImage.110	FOODEEG_Images\0918.jpg	YN	Left	Yes	0.769581800000196	0	167705	234
328.58984375	1	taste	trialStart	1	4	4	foodImage.105	FOODEEG_Images\0913.jpg	NY	Left	No	1.21267239999997	0	168239	251
329.62890625	2	taste	foodImageDisplay	1	4	4	foodImage.105	FOODEEG_Images\0913.jpg	NY	Left	No	1.21267239999997	0	168771	252
331.693359375	1.21267239999997	taste	choicePhaseStart	1	4	4	foodImage.105	FOODEEG_Images\0913.jpg	NY	Left	No	1.21267239999997	0	169828	253
332.8984375	0	taste	response	1	4	4	foodImage.105	FOODEEG_Images\0913.jpg	NY	Left	No	1.21267239999997	0	170445	234
333.939453125	1	decision	trialStart	1	5	5	foodImage.88	FOODEEG_Images\0878.jpg	NY	Right	Yes	1.04113560000042	0	170978	251
335	2	decision	foodImageDisplay	1	5	5	foodImage.88	FOODEEG_Images\0878.jpg	NY	Right	Yes	1.04113560000042	0	171521	252
337.06640625	1.04113560000042	decision	choicePhaseStart	1	5	5	foodImage.88	FOODEEG_Images\0878.jpg	NY	Right	Yes	1.04113560000042	0	172579	253
338.09765625	0	decision	response	1	5	5	foodImage.88	FOODEEG_Images\0878.jpg	NY	Right	Yes	1.04113560000042	0	173107	235
339.150390625	1	decision	trialStart	1	6	6	foodImage.119	FOODEEG_Images\0927.jpg	NY	Left	No	2.97005669999999	0	173646	251
340.189453125	2	decision	foodImageDisplay	1	6	6	foodImage.119	FOODEEG_Images\0927.jpg	NY	Left	No	2.97005669999999	0	174178	252
342.25390625	2.97005669999999	decision	choicePhaseStart	1	6	6	foodImage.119	FOODEEG_Images\0927.jpg	NY	Left	No	2.97005669999999	0	175235	253
345.216796875	0	decision	response	1	6	6	foodImage.119	FOODEEG_Images\0927.jpg	NY	Left	No	2.97005669999999	0	176752	234
346.259765625	1	taste	trialStart	1	7	7	foodImage.111	FOODEEG_Images\0919.jpg	YN	Left	Yes	1.0065082000001	0	177286	251
347.30078125	2	taste	foodImageDisplay	1	7	7	foodImage.111	FOODEEG_Images\0919.jpg	YN	Left	Yes	1.0065082000001	0	177819	252
349.36328125	1.0065082000001	taste	choicePhaseStart	1	7	7	foodImage.111	FOODEEG_Images\0919.jpg	YN	Left	Yes	1.0065082000001	0	178875	253
350.361328125	0	taste	response	1	7	7	foodImage.111	FOODEEG_Images\0919.jpg	YN	Left	Yes	1.0065082000001	0	179386	234
351.40625	1	health	trialStart	1	8	8	foodImage.73	FOODEEG_Images\0717.jpg	YN	Left	Yes	0.875050300000112	0	179921	251
352.462890625	2	health	foodImageDisplay	1	8	8	foodImage.73	FOODEEG_Images\0717.jpg	YN	Left	Yes	0.875050300000112	0	180462	252
354.52734375	0.875050300000112	health	choicePhaseStart	1	8	8	foodImage.73	FOODEEG_Images\0717.jpg	YN	Left	Yes	0.875050300000112	0	181519	253
355.392578125	0	health	response	1	8	8	foodImage.73	FOODEEG_Images\0717.jpg	YN	Left	Yes	0.875050300000112	0	181962	234
356.4375	1	health	trialStart	1	9	9	foodImage.37	FOODEEG_Images\0359.jpg	YN	Left	Yes	0.768294200000128	0	182497	251
357.48046875	2	health	foodImageDisplay	1	9	9	foodImage.37	FOODEEG_Images\0359.jpg	YN	Left	Yes	0.768294200000128	0	183031	252
359.544921875	0.768294200000128	health	choicePhaseStart	1	9	9	foodImage.37	FOODEEG_Images\0359.jpg	YN	Left	Yes	0.768294200000128	0	184088	253
360.3046875	0	health	response	1	9	9	foodImage.37	FOODEEG_Images\0359.jpg	YN	Left	Yes	0.768294200000128	0	184477	234
361.345703125	1	decision	trialStart	1	10	10	foodImage.1	FOODEEG_Images\0004.jpg	YN	Left	Yes	0.803017100000034	0	185010	251
362.388671875	2	decision	foodImageDisplay	1	10	10	foodImage.1	FOODEEG_Images\0004.jpg	YN	Left	Yes	0.803017100000034	0	185544	252
364.453125	0.803017100000034	decision	choicePhaseStart	1	10	10	foodImage.1	FOODEEG_Images\0004.jpg	YN	Left	Yes	0.803017100000034	0	186601	253
365.248046875	0	decision	response	1	10	10	foodImage.1	FOODEEG_Images\0004.jpg	YN	Left	Yes	0.803017100000034	0	187008	234
366.291015625	1	taste	trialStart	1	11	11	foodImage.20	FOODEEG_Images\0226.jpg	NY	Left	No	1.31050359999972	0	187542	251
367.333984375	2	taste	foodImageDisplay	1	11	11	foodImage.20	FOODEEG_Images\0226.jpg	NY	Left	No	1.31050359999972	0	188076	252
369.3984375	1.31050359999972	taste	choicePhaseStart	1	11	11	foodImage.20	FOODEEG_Images\0226.jpg	NY	Left	No	1.31050359999972	0	189133	253
370.705078125	0	taste	response	1	11	11	foodImage.20	FOODEEG_Images\0226.jpg	NY	Left	No	1.31050359999972	0	189802	234
371.74609375	1	decision	trialStart	1	12	12	foodImage.62	FOODEEG_Images\0644.jpg	YN	Left	Yes	0.783056600000236	0	190335	251
372.80078125	2	decision	foodImageDisplay	1	12	12	foodImage.62	FOODEEG_Images\0644.jpg	YN	Left	Yes	0.783056600000236	0	190875	252
374.865234375	0.783056600000236	decision	choicePhaseStart	1	12	12	foodImage.62	FOODEEG_Images\0644.jpg	YN	Left	Yes	0.783056600000236	0	191932	253
375.640625	0	decision	response	1	12	12	foodImage.62	FOODEEG_Images\0644.jpg	YN	Left	Yes	0.783056600000236	0	192329	234
376.681640625	1	taste	trialStart	1	13	13	foodImage.71	FOODEEG_Images\0713.jpg	NY	Right	Yes	1.12114750000001	0	192862	251
377.7265625	2	taste	foodImageDisplay	1	13	13	foodImage.71	FOODEEG_Images\0713.jpg	NY	Right	Yes	1.12114750000001	0	193397	252
379.79296875	1.12114750000001	taste	choicePhaseStart	1	13	13	foodImage.71	FOODEEG_Images\0713.jpg	NY	Right	Yes	1.12114750000001	0	194455	253
380.904296875	0	taste	response	1	13	13	foodImage.71	FOODEEG_Images\0713.jpg	NY	Right	Yes	1.12114750000001	0	195024	235
381.947265625	1	health	trialStart	1	14	14	foodImage.89	FOODEEG_Images\0881.jpg	YN	Left	Yes	1.09141739999995	0	195558	251
383.005859375	2	health	foodImageDisplay	1	14	14	foodImage.89	FOODEEG_Images\0881.jpg	YN	Left	Yes	1.09141739999995	0	196100	252
385.0703125	1.09141739999995	health	choicePhaseStart	1	14	14	foodImage.89	FOODEEG_Images\0881.jpg	YN	Left	Yes	1.09141739999995	0	197157	253
386.15234375	0	health	response	1	14	14	foodImage.89	FOODEEG_Images\0881.jpg	YN	Left	Yes	1.09141739999995	0	197711	234
387.1953125	1	health	trialStart	1	15	15	foodImage.50	FOODEEG_Images\0529.jpg	NY	Right	Yes	1.01285609999923	0	198245	251
388.251953125	2	health	foodImageDisplay	1	15	15	foodImage.50	FOODEEG_Images\0529.jpg	NY	Right	Yes	1.01285609999923	0	198786	252
390.31640625	1.01285609999923	health	choicePhaseStart	1	15	15	foodImage.50	FOODEEG_Images\0529.jpg	NY	Right	Yes	1.01285609999923	0	199843	253
391.3203125	0	health	response	1	15	15	foodImage.50	FOODEEG_Images\0529.jpg	NY	Right	Yes	1.01285609999923	0	200357	235
392.359375	1	health	trialStart	1	16	16	foodImage.87	FOODEEG_Images\0873.jpg	YN	Left	Yes	0.6676980000002	0	200889	251
393.416015625	2	health	foodImageDisplay	1	16	16	foodImage.87	FOODEEG_Images\0873.jpg	YN	Left	Yes	0.6676980000002	0	201430	252
395.48046875	0.6676980000002	health	choicePhaseStart	1	16	16	foodImage.87	FOODEEG_Images\0873.jpg	YN	Left	Yes	0.6676980000002	0	202487	253
396.142578125	0	health	response	1	16	16	foodImage.87	FOODEEG_Images\0873.jpg	YN	Left	Yes	0.6676980000002	0	202826	234
397.185546875	1	decision	trialStart	1	17	17	foodImage.46	FOODEEG_Images\0479.jpg	YN	Left	Yes	0.782572200000686	0	203360	251
398.2421875	2	decision	foodImageDisplay	1	17	17	foodImage.46	FOODEEG_Images\0479.jpg	YN	Left	Yes	0.782572200000686	0	203901	252
400.306640625	0.782572200000686	decision	choicePhaseStart	1	17	17	foodImage.46	FOODEEG_Images\0479.jpg	YN	Left	Yes	0.782572200000686	0	204958	253
401.080078125	0	decision	response	1	17	17	foodImage.46	FOODEEG_Images\0479.jpg	YN	Left	Yes	0.782572200000686	0	205354	234
402.119140625	1	taste	trialStart	1	18	18	foodImage.11	FOODEEG_Images\0180.jpg	NY	Right	Yes	1.14352579999922	0	205886	251
403.162109375	2	taste	foodImageDisplay	1	18	18	foodImage.11	FOODEEG_Images\0180.jpg	NY	Right	Yes	1.14352579999922	0	206420	252
405.224609375	1.14352579999922	taste	choicePhaseStart	1	18	18	foodImage.11	FOODEEG_Images\0180.jpg	NY	Right	Yes	1.14352579999922	0	207476	253
406.359375	0	taste	response	1	18	18	foodImage.11	FOODEEG_Images\0180.jpg	NY	Right	Yes	1.14352579999922	0	208057	235
407.40234375	1	health	trialStart	1	19	19	foodImage.62	FOODEEG_Images\0644.jpg	YN	Left	Yes	1.19631509999999	0	208591	251
408.458984375	2	health	foodImageDisplay	1	19	19	foodImage.62	FOODEEG_Images\0644.jpg	YN	Left	Yes	1.19631509999999	0	209132	252
410.5234375	1.19631509999999	health	choicePhaseStart	1	19	19	foodImage.62	FOODEEG_Images\0644.jpg	YN	Left	Yes	1.19631509999999	0	210189	253
411.7109375	0	health	response	1	19	19	foodImage.62	FOODEEG_Images\0644.jpg	YN	Left	Yes	1.19631509999999	0	210797	234
412.755859375	1	health	trialStart	1	20	20	foodImage.96	FOODEEG_Images\0904.jpg	NY	Right	Yes	0.747492100000272	0	211332	251
413.794921875	2	health	foodImageDisplay	1	20	20	foodImage.96	FOODEEG_Images\0904.jpg	NY	Right	Yes	0.747492100000272	0	211864	252
415.861328125	0.747492100000272	health	choicePhaseStart	1	20	20	foodImage.96	FOODEEG_Images\0904.jpg	NY	Right	Yes	0.747492100000272	0	212922	253
416.59765625	0	health	response	1	20	20	foodImage.96	FOODEEG_Images\0904.jpg	NY	Right	Yes	0.747492100000272	0	213299	235
417.642578125	1	health	trialStart	1	21	21	foodImage.33	FOODEEG_Images\0329.jpg	YN	Left	Yes	0.632448399999703	0	213834	251
418.685546875	2	health	foodImageDisplay	1	21	21	foodImage.33	FOODEEG_Images\0329.jpg	YN	Left	Yes	0.632448399999703	0	214368	252
420.75	0.632448399999703	health	choicePhaseStart	1	21	21	foodImage.33	FOODEEG_Images\0329.jpg	YN	Left	Yes	0.632448399999703	0	215425	253
421.375	0	health	response	1	21	21	foodImage.33	FOODEEG_Images\0329.jpg	YN	Left	Yes	0.632448399999703	0	215745	234
422.4140625	1	taste	trialStart	1	22	22	foodImage.60	FOODEEG_Images\0614.jpg	NY	Right	Yes	0.871470400000362	0	216277	251
423.470703125	2	taste	foodImageDisplay	1	22	22	foodImage.60	FOODEEG_Images\0614.jpg	NY	Right	Yes	0.871470400000362	0	216818	252
425.53515625	0.871470400000362	taste	choicePhaseStart	1	22	22	foodImage.60	FOODEEG_Images\0614.jpg	NY	Right	Yes	0.871470400000362	0	217875	253
426.3984375	0	taste	response	1	22	22	foodImage.60	FOODEEG_Images\0614.jpg	NY	Right	Yes	0.871470400000362	0	218317	235
427.439453125	1	taste	trialStart	1	23	23	foodImage.6	FOODEEG_Images\0113.jpg	YN	Left	Yes	1.02190619999965	0	218850	251
428.48046875	2	taste	foodImageDisplay	1	23	23	foodImage.6	FOODEEG_Images\0113.jpg	YN	Left	Yes	1.02190619999965	0	219383	252
430.544921875	1.02190619999965	taste	choicePhaseStart	1	23	23	foodImage.6	FOODEEG_Images\0113.jpg	YN	Left	Yes	1.02190619999965	0	220440	253
431.55859375	0	taste	response	1	23	23	foodImage.6	FOODEEG_Images\0113.jpg	YN	Left	Yes	1.02190619999965	0	220959	234
432.599609375	1	taste	trialStart	1	24	24	foodImage.38	FOODEEG_Images\0365.jpg	YN	Left	Yes	0.913195600000108	0	221492	251
433.638671875	2	taste	foodImageDisplay	1	24	24	foodImage.38	FOODEEG_Images\0365.jpg	YN	Left	Yes	0.913195600000108	0	222024	252
435.701171875	0.913195600000108	taste	choicePhaseStart	1	24	24	foodImage.38	FOODEEG_Images\0365.jpg	YN	Left	Yes	0.913195600000108	0	223080	253
436.60546875	0	taste	response	1	24	24	foodImage.38	FOODEEG_Images\0365.jpg	YN	Left	Yes	0.913195600000108	0	223543	234
437.6484375	1	taste	trialStart	1	25	25	foodImage.115	FOODEEG_Images\0923.jpg	YN	Right	No	0.754851300000155	0	224077	251
438.6875	2	taste	foodImageDisplay	1	25	25	foodImage.115	FOODEEG_Images\0923.jpg	YN	Right	No	0.754851300000155	0	224609	252
440.755859375	0.754851300000155	taste	choicePhaseStart	1	25	25	foodImage.115	FOODEEG_Images\0923.jpg	YN	Right	No	0.754851300000155	0	225668	253
441.501953125	0	taste	response	1	25	25	foodImage.115	FOODEEG_Images\0923.jpg	YN	Right	No	0.754851300000155	0	226050	235
442.544921875	1	health	trialStart	1	26	26	foodImage.102	FOODEEG_Images\0910.jpg	NY	Right	Yes	1.1938265000008	0	226584	251
443.583984375	2	health	foodImageDisplay	1	26	26	foodImage.102	FOODEEG_Images\0910.jpg	NY	Right	Yes	1.1938265000008	0	227116	252
445.65234375	1.1938265000008	health	choicePhaseStart	1	26	26	foodImage.102	FOODEEG_Images\0910.jpg	NY	Right	Yes	1.1938265000008	0	228175	253
446.837890625	0	health	response	1	26	26	foodImage.102	FOODEEG_Images\0910.jpg	NY	Right	Yes	1.1938265000008	0	228782	235
447.880859375	1	taste	trialStart	1	27	27	foodImage.10	FOODEEG_Images\0145.jpg	YN	Left	Yes	0.659010399999715	0	229316	251
448.939453125	2	taste	foodImageDisplay	1	27	27	foodImage.10	FOODEEG_Images\0145.jpg	YN	Left	Yes	0.659010399999715	0	229858	252
451.00390625	0.659010399999715	taste	choicePhaseStart	1	27	27	foodImage.10	FOODEEG_Images\0145.jpg	YN	Left	Yes	0.659010399999715	0	230915	253
451.65234375	0	taste	response	1	27	27	foodImage.10	FOODEEG_Images\0145.jpg	YN	Left	Yes	0.659010399999715	0	231247	234
452.697265625	1	health	trialStart	1	28	28	foodImage.64	FOODEEG_Images\0647.jpg	NY	Right	Yes	1.00973849999991	0	231782	251
453.755859375	2	health	foodImageDisplay	1	28	28	foodImage.64	FOODEEG_Images\0647.jpg	NY	Right	Yes	1.00973849999991	0	232324	252
455.8203125	1.00973849999991	health	choicePhaseStart	1	28	28	foodImage.64	FOODEEG_Images\0647.jpg	NY	Right	Yes	1.00973849999991	0	233381	253
456.8203125	0	health	response	1	28	28	foodImage.64	FOODEEG_Images\0647.jpg	NY	Right	Yes	1.00973849999991	0	233893	235
457.86328125	1	health	trialStart	1	29	29	foodImage.71	FOODEEG_Images\0713.jpg	NY	Left	No	1.09139390000018	0	234427	251
458.904296875	2	health	foodImageDisplay	1	29	29	foodImage.71	FOODEEG_Images\0713.jpg	NY	Left	No	1.09139390000018	0	234960	252
460.966796875	1.09139390000018	health	choicePhaseStart	1	29	29	foodImage.71	FOODEEG_Images\0713.jpg	NY	Left	No	1.09139390000018	0	236016	253
462.052734375	0	health	response	1	29	29	foodImage.71	FOODEEG_Images\0713.jpg	NY	Left	No	1.09139390000018	0	236572	234
463.095703125	1	taste	trialStart	1	30	30	foodImage.74	FOODEEG_Images\0752.jpg	YN	Left	Yes	0.885095000000547	0	237106	251
464.140625	2	taste	foodImageDisplay	1	30	30	foodImage.74	FOODEEG_Images\0752.jpg	YN	Left	Yes	0.885095000000547	0	237641	252
466.208984375	0.885095000000547	taste	choicePhaseStart	1	30	30	foodImage.74	FOODEEG_Images\0752.jpg	YN	Left	Yes	0.885095000000547	0	238700	253
467.083984375	0	taste	response	1	30	30	foodImage.74	FOODEEG_Images\0752.jpg	YN	Left	Yes	0.885095000000547	0	239148	234
468.12890625	1	health	trialStart	1	31	31	foodImage.9	FOODEEG_Images\0138.jpg	YN	Right	No	0.903494600000158	0	239683	251
469.1875	2	health	foodImageDisplay	1	31	31	foodImage.9	FOODEEG_Images\0138.jpg	YN	Right	No	0.903494600000158	0	240225	252
471.25390625	0.903494600000158	health	choicePhaseStart	1	31	31	foodImage.9	FOODEEG_Images\0138.jpg	YN	Right	No	0.903494600000158	0	241283	253
472.1484375	0	health	response	1	31	31	foodImage.9	FOODEEG_Images\0138.jpg	YN	Right	No	0.903494600000158	0	241741	235
473.19140625	1	decision	trialStart	1	32	32	foodImage.116	FOODEEG_Images\0924.jpg	NY	Left	No	1.45498580000003	0	242275	251
474.23046875	2	decision	foodImageDisplay	1	32	32	foodImage.116	FOODEEG_Images\0924.jpg	NY	Left	No	1.45498580000003	0	242807	252
476.30078125	1.45498580000003	decision	choicePhaseStart	1	32	32	foodImage.116	FOODEEG_Images\0924.jpg	NY	Left	No	1.45498580000003	0	243867	253
477.748046875	0	decision	response	1	32	32	foodImage.116	FOODEEG_Images\0924.jpg	NY	Left	No	1.45498580000003	0	244608	234
478.7890625	1	taste	trialStart	1	33	33	foodImage.22	FOODEEG_Images\0236.jpg	NY	Left	No	1.55079110000042	0	245141	251
479.83203125	2	taste	foodImageDisplay	1	33	33	foodImage.22	FOODEEG_Images\0236.jpg	NY	Left	No	1.55079110000042	0	245675	252
481.89453125	1.55079110000042	taste	choicePhaseStart	1	33	33	foodImage.22	FOODEEG_Images\0236.jpg	NY	Left	No	1.55079110000042	0	246731	253
483.435546875	0	taste	response	1	33	33	foodImage.22	FOODEEG_Images\0236.jpg	NY	Left	No	1.55079110000042	0	247520	234
484.478515625	1	taste	trialStart	1	34	34	foodImage.45	FOODEEG_Images\0478.jpg	NY	Right	Yes	1.26483480000024	0	248054	251
485.5234375	2	taste	foodImageDisplay	1	34	34	foodImage.45	FOODEEG_Images\0478.jpg	NY	Right	Yes	1.26483480000024	0	248589	252
487.587890625	1.26483480000024	taste	choicePhaseStart	1	34	34	foodImage.45	FOODEEG_Images\0478.jpg	NY	Right	Yes	1.26483480000024	0	249646	253
488.84375	0	taste	response	1	34	34	foodImage.45	FOODEEG_Images\0478.jpg	NY	Right	Yes	1.26483480000024	0	250289	235
489.88671875	1	decision	trialStart	1	35	35	foodImage.70	FOODEEG_Images\0705.jpg	NY	Right	Yes	0.93711119999989	0	250823	251
490.947265625	2	decision	foodImageDisplay	1	35	35	foodImage.70	FOODEEG_Images\0705.jpg	NY	Right	Yes	0.93711119999989	0	251366	252
493.009765625	0.93711119999989	decision	choicePhaseStart	1	35	35	foodImage.70	FOODEEG_Images\0705.jpg	NY	Right	Yes	0.93711119999989	0	252422	253
493.939453125	0	decision	response	1	35	35	foodImage.70	FOODEEG_Images\0705.jpg	NY	Right	Yes	0.93711119999989	0	252898	235
494.978515625	1	taste	trialStart	1	36	36	foodImage.12	FOODEEG_Images\0181.jpg	NY	Right	Yes	0.998949400000129	0	253430	251
496.021484375	2	taste	foodImageDisplay	1	36	36	foodImage.12	FOODEEG_Images\0181.jpg	NY	Right	Yes	0.998949400000129	0	253964	252
498.0859375	0.998949400000129	taste	choicePhaseStart	1	36	36	foodImage.12	FOODEEG_Images\0181.jpg	NY	Right	Yes	0.998949400000129	0	255021	253
499.07421875	0	taste	response	1	36	36	foodImage.12	FOODEEG_Images\0181.jpg	NY	Right	Yes	0.998949400000129	0	255527	235
500.119140625	1	taste	trialStart	1	37	37	foodImage.73	FOODEEG_Images\0717.jpg	YN	Left	Yes	0.843649299999925	0	256062	251
501.173828125	2	taste	foodImageDisplay	1	37	37	foodImage.73	FOODEEG_Images\0717.jpg	YN	Left	Yes	0.843649299999925	0	256602	252
503.23828125	0.843649299999925	taste	choicePhaseStart	1	37	37	foodImage.73	FOODEEG_Images\0717.jpg	YN	Left	Yes	0.843649299999925	0	257659	253
504.07421875	0	taste	response	1	37	37	foodImage.73	FOODEEG_Images\0717.jpg	YN	Left	Yes	0.843649299999925	0	258087	234
505.1171875	1	decision	trialStart	1	38	38	foodImage.115	FOODEEG_Images\0923.jpg	YN	Right	No	0.902169199999662	0	258621	251
506.15625	2	decision	foodImageDisplay	1	38	38	foodImage.115	FOODEEG_Images\0923.jpg	YN	Right	No	0.902169199999662	0	259153	252
508.21875	0.902169199999662	decision	choicePhaseStart	1	38	38	foodImage.115	FOODEEG_Images\0923.jpg	YN	Right	No	0.902169199999662	0	260209	253
509.115234375	0	decision	response	1	38	38	foodImage.115	FOODEEG_Images\0923.jpg	YN	Right	No	0.902169199999662	0	260668	235
510.158203125	1	taste	trialStart	1	39	39	foodImage.95	FOODEEG_Images\0903.jpg	NY	Left	No	1.06975919999968	0	261202	251
511.197265625	2	taste	foodImageDisplay	1	39	39	foodImage.95	FOODEEG_Images\0903.jpg	NY	Left	No	1.06975919999968	0	261734	252
513.26171875	1.06975919999968	taste	choicePhaseStart	1	39	39	foodImage.95	FOODEEG_Images\0903.jpg	NY	Left	No	1.06975919999968	0	262791	253
514.322265625	0	taste	response	1	39	39	foodImage.95	FOODEEG_Images\0903.jpg	NY	Left	No	1.06975919999968	0	263334	234
515.365234375	1	decision	trialStart	1	40	40	foodImage.118	FOODEEG_Images\0926.jpg	YN	Right	No	0.837452200000371	0	263868	251
516.40625	2	decision	foodImageDisplay	1	40	40	foodImage.118	FOODEEG_Images\0926.jpg	YN	Right	No	0.837452200000371	0	264401	252
518.46875	0.837452200000371	decision	choicePhaseStart	1	40	40	foodImage.118	FOODEEG_Images\0926.jpg	YN	Right	No	0.837452200000371	0	265457	253
519.298828125	0	decision	response	1	40	40	foodImage.118	FOODEEG_Images\0926.jpg	YN	Right	No	0.837452200000371	0	265882	235
520.34375	1	taste	trialStart	1	41	41	foodImage.5	FOODEEG_Images\0107.jpg	NY	Right	Yes	1.08988500000032	0	266417	251
521.400390625	2	taste	foodImageDisplay	1	41	41	foodImage.5	FOODEEG_Images\0107.jpg	NY	Right	Yes	1.08988500000032	0	266958	252
523.46484375	1.08988500000032	taste	choicePhaseStart	1	41	41	foodImage.5	FOODEEG_Images\0107.jpg	NY	Right	Yes	1.08988500000032	0	268015	253
524.546875	0	taste	response	1	41	41	foodImage.5	FOODEEG_Images\0107.jpg	NY	Right	Yes	1.08988500000032	0	268569	235
525.5859375	1	decision	trialStart	1	42	42	foodImage.35	FOODEEG_Images\0350.jpg	YN	Left	Yes	0.992523599999913	0	269101	251
526.626953125	2	decision	foodImageDisplay	1	42	42	foodImage.35	FOODEEG_Images\0350.jpg	YN	Left	Yes	0.992523599999913	0	269634	252
528.69140625	0.992523599999913	decision	choicePhaseStart	1	42	42	foodImage.35	FOODEEG_Images\0350.jpg	YN	Left	Yes	0.992523599999913	0	270691	253
529.673828125	0	decision	response	1	42	42	foodImage.35	FOODEEG_Images\0350.jpg	YN	Left	Yes	0.992523599999913	0	271194	234
530.716796875	1	decision	trialStart	1	43	43	foodImage.31	FOODEEG_Images\0294.jpg	YN	Left	Yes	1.11586939999961	0	271728	251
531.759765625	2	decision	foodImageDisplay	1	43	43	foodImage.31	FOODEEG_Images\0294.jpg	YN	Left	Yes	1.11586939999961	0	272262	252
533.82421875	1.11586939999961	decision	choicePhaseStart	1	43	43	foodImage.31	FOODEEG_Images\0294.jpg	YN	Left	Yes	1.11586939999961	0	273319	253
534.9296875	0	decision	response	1	43	43	foodImage.31	FOODEEG_Images\0294.jpg	YN	Left	Yes	1.11586939999961	0	273885	234
535.97265625	1	health	trialStart	1	44	44	foodImage.23	FOODEEG_Images\0244.jpg	NY	Left	No	1.58870000000024	0	274419	251
537.033203125	2	health	foodImageDisplay	1	44	44	foodImage.23	FOODEEG_Images\0244.jpg	NY	Left	No	1.58870000000024	0	274962	252
539.1015625	1.58870000000024	health	choicePhaseStart	1	44	44	foodImage.23	FOODEEG_Images\0244.jpg	NY	Left	No	1.58870000000024	0	276021	253
540.681640625	0	health	response	1	44	44	foodImage.23	FOODEEG_Images\0244.jpg	NY	Left	No	1.58870000000024	0	276830	234
541.72265625	1	health	trialStart	1	45	45	foodImage.14	FOODEEG_Images\0188.jpg	NY	Right	Yes	0.771590700000161	0	277363	251
542.783203125	2	health	foodImageDisplay	1	45	45	foodImage.14	FOODEEG_Images\0188.jpg	NY	Right	Yes	0.771590700000161	0	277906	252
544.84765625	0.771590700000161	health	choicePhaseStart	1	45	45	foodImage.14	FOODEEG_Images\0188.jpg	NY	Right	Yes	0.771590700000161	0	278963	253
545.609375	0	health	response	1	45	45	foodImage.14	FOODEEG_Images\0188.jpg	NY	Right	Yes	0.771590700000161	0	279353	235
546.6484375	1	taste	trialStart	1	46	46	foodImage.49	FOODEEG_Images\0515.jpg	NY	Right	Yes	1.31321419999949	0	279885	251
547.689453125	2	taste	foodImageDisplay	1	46	46	foodImage.49	FOODEEG_Images\0515.jpg	NY	Right	Yes	1.31321419999949	0	280418	252
549.75390625	1.31321419999949	taste	choicePhaseStart	1	46	46	foodImage.49	FOODEEG_Images\0515.jpg	NY	Right	Yes	1.31321419999949	0	281475	253
551.056640625	0	taste	response	1	46	46	foodImage.49	FOODEEG_Images\0515.jpg	NY	Right	Yes	1.31321419999949	0	282142	235
552.099609375	1	decision	trialStart	1	47	47	foodImage.112	FOODEEG_Images\0920.jpg	NY	Left	No	1.08036609999999	0	282676	251
553.138671875	2	decision	foodImageDisplay	1	47	47	foodImage.112	FOODEEG_Images\0920.jpg	NY	Left	No	1.08036609999999	0	283208	252
555.201171875	1.08036609999999	decision	choicePhaseStart	1	47	47	foodImage.112	FOODEEG_Images\0920.jpg	NY	Left	No	1.08036609999999	0	284264	253
556.2734375	0	decision	response	1	47	47	foodImage.112	FOODEEG_Images\0920.jpg	NY	Left	No	1.08036609999999	0	284813	234
557.314453125	1	health	trialStart	1	48	48	foodImage.84	FOODEEG_Images\0830.jpg	YN	Left	Yes	0.780671699999402	0	285346	251
558.373046875	2	health	foodImageDisplay	1	48	48	foodImage.84	FOODEEG_Images\0830.jpg	YN	Left	Yes	0.780671699999402	0	285888	252
560.4375	0.780671699999402	health	choicePhaseStart	1	48	48	foodImage.84	FOODEEG_Images\0830.jpg	YN	Left	Yes	0.780671699999402	0	286945	253
561.208984375	0	health	response	1	48	48	foodImage.84	FOODEEG_Images\0830.jpg	YN	Left	Yes	0.780671699999402	0	287340	234
562.248046875	1	health	trialStart	1	49	49	foodImage.47	FOODEEG_Images\0488.jpg	NY	Left	No	0.987629999999626	0	287872	251
563.287109375	2	health	foodImageDisplay	1	49	49	foodImage.47	FOODEEG_Images\0488.jpg	NY	Left	No	0.987629999999626	0	288404	252
565.349609375	0.987629999999626	health	choicePhaseStart	1	49	49	foodImage.47	FOODEEG_Images\0488.jpg	NY	Left	No	0.987629999999626	0	289460	253
566.328125	0	health	response	1	49	49	foodImage.47	FOODEEG_Images\0488.jpg	NY	Left	No	0.987629999999626	0	289961	234
567.375	1	health	trialStart	1	50	50	foodImage.26	FOODEEG_Images\0262.jpg	NY	Right	Yes	0.886098200000561	0	290497	251
568.41796875	2	health	foodImageDisplay	1	50	50	foodImage.26	FOODEEG_Images\0262.jpg	NY	Right	Yes	0.886098200000561	0	291031	252
570.482421875	0.886098200000561	health	choicePhaseStart	1	50	50	foodImage.26	FOODEEG_Images\0262.jpg	NY	Right	Yes	0.886098200000561	0	292088	253
571.359375	0	health	response	1	50	50	foodImage.26	FOODEEG_Images\0262.jpg	NY	Right	Yes	0.886098200000561	0	292537	235
572.400390625	1	taste	trialStart	1	51	51	foodImage.64	FOODEEG_Images\0647.jpg	YN	Left	Yes	0.841731399999844	0	293070	251
573.455078125	2	taste	foodImageDisplay	1	51	51	foodImage.64	FOODEEG_Images\0647.jpg	YN	Left	Yes	0.841731399999844	0	293610	252
575.51953125	0.841731399999844	taste	choicePhaseStart	1	51	51	foodImage.64	FOODEEG_Images\0647.jpg	YN	Left	Yes	0.841731399999844	0	294667	253
576.3515625	0	taste	response	1	51	51	foodImage.64	FOODEEG_Images\0647.jpg	YN	Left	Yes	0.841731399999844	0	295093	234
577.396484375	1	decision	trialStart	1	52	52	foodImage.9	FOODEEG_Images\0138.jpg	NY	Left	No	1.08207290000064	0	295628	251
578.453125	2	decision	foodImageDisplay	1	52	52	foodImage.9	FOODEEG_Images\0138.jpg	NY	Left	No	1.08207290000064	0	296169	252
580.517578125	1.08207290000064	decision	choicePhaseStart	1	52	52	foodImage.9	FOODEEG_Images\0138.jpg	NY	Left	No	1.08207290000064	0	297226	253
581.591796875	0	decision	response	1	52	52	foodImage.9	FOODEEG_Images\0138.jpg	NY	Left	No	1.08207290000064	0	297776	234
582.634765625	1	health	trialStart	1	53	53	foodImage.52	FOODEEG_Images\0539.jpg	NY	Right	Yes	0.892823399999543	0	298310	251
583.69140625	2	health	foodImageDisplay	1	53	53	foodImage.52	FOODEEG_Images\0539.jpg	NY	Right	Yes	0.892823399999543	0	298851	252
585.755859375	0.892823399999543	health	choicePhaseStart	1	53	53	foodImage.52	FOODEEG_Images\0539.jpg	NY	Right	Yes	0.892823399999543	0	299908	253
586.638671875	0	health	response	1	53	53	foodImage.52	FOODEEG_Images\0539.jpg	NY	Right	Yes	0.892823399999543	0	300360	235
587.681640625	1	decision	trialStart	1	54	54	foodImage.45	FOODEEG_Images\0478.jpg	NY	Right	Yes	0.975612499999443	0	300894	251
588.728515625	2	decision	foodImageDisplay	1	54	54	foodImage.45	FOODEEG_Images\0478.jpg	NY	Right	Yes	0.975612499999443	0	301430	252
590.79296875	0.975612499999443	decision	choicePhaseStart	1	54	54	foodImage.45	FOODEEG_Images\0478.jpg	NY	Right	Yes	0.975612499999443	0	302487	253
591.759765625	0	decision	response	1	54	54	foodImage.45	FOODEEG_Images\0478.jpg	NY	Right	Yes	0.975612499999443	0	302982	235
592.80078125	1	taste	trialStart	1	55	55	foodImage.8	FOODEEG_Images\0136.jpg	NY	Right	Yes	0.921295199999804	0	303515	251
593.845703125	2	taste	foodImageDisplay	1	55	55	foodImage.8	FOODEEG_Images\0136.jpg	NY	Right	Yes	0.921295199999804	0	304050	252
595.91015625	0.921295199999804	taste	choicePhaseStart	1	55	55	foodImage.8	FOODEEG_Images\0136.jpg	NY	Right	Yes	0.921295199999804	0	305107	253
596.822265625	0	taste	response	1	55	55	foodImage.8	FOODEEG_Images\0136.jpg	NY	Right	Yes	0.921295199999804	0	305574	235
597.86328125	1	health	trialStart	1	56	56	foodImage.7	FOODEEG_Images\0116.jpg	YN	Right	No	0.976622899999711	0	306107	251
598.904296875	2	health	foodImageDisplay	1	56	56	foodImage.7	FOODEEG_Images\0116.jpg	YN	Right	No	0.976622899999711	0	306640	252
600.96875	0.976622899999711	health	choicePhaseStart	1	56	56	foodImage.7	FOODEEG_Images\0116.jpg	YN	Right	No	0.976622899999711	0	307697	253
601.935546875	0	health	response	1	56	56	foodImage.7	FOODEEG_Images\0116.jpg	YN	Right	No	0.976622899999711	0	308192	235
602.978515625	1	health	trialStart	1	57	57	foodImage.32	FOODEEG_Images\0319.jpg	NY	Left	No	1.27455340000051	0	308726	251
604.0234375	2	health	foodImageDisplay	1	57	57	foodImage.32	FOODEEG_Images\0319.jpg	NY	Left	No	1.27455340000051	0	309261	252
606.0859375	1.27455340000051	health	choicePhaseStart	1	57	57	foodImage.32	FOODEEG_Images\0319.jpg	NY	Left	No	1.27455340000051	0	310317	253
607.3515625	0	health	response	1	57	57	foodImage.32	FOODEEG_Images\0319.jpg	NY	Left	No	1.27455340000051	0	310965	234
608.39453125	1	decision	trialStart	1	58	58	foodImage.107	FOODEEG_Images\0915.jpg	YN	Right	No	1.92030540000087	0	311499	251
609.43359375	2	decision	foodImageDisplay	1	58	58	foodImage.107	FOODEEG_Images\0915.jpg	YN	Right	No	1.92030540000087	0	312031	252
611.49609375	1.92030540000087	decision	choicePhaseStart	1	58	58	foodImage.107	FOODEEG_Images\0915.jpg	YN	Right	No	1.92030540000087	0	313087	253
613.40625	0	decision	response	1	58	58	foodImage.107	FOODEEG_Images\0915.jpg	YN	Right	No	1.92030540000087	0	314065	235
614.451171875	1	health	trialStart	1	59	59	foodImage.67	FOODEEG_Images\0679.jpg	YN	Right	No	1.38502590000007	0	314600	251
615.51171875	2	health	foodImageDisplay	1	59	59	foodImage.67	FOODEEG_Images\0679.jpg	YN	Right	No	1.38502590000007	0	315143	252
617.57421875	1.38502590000007	health	choicePhaseStart	1	59	59	foodImage.67	FOODEEG_Images\0679.jpg	YN	Right	No	1.38502590000007	0	316199	253
618.951171875	0	health	response	1	59	59	foodImage.67	FOODEEG_Images\0679.jpg	YN	Right	No	1.38502590000007	0	316904	235
619.9921875	1	taste	trialStart	1	60	60	foodImage.62	FOODEEG_Images\0644.jpg	NY	Right	Yes	1.09240060000047	0	317437	251
621.052734375	2	taste	foodImageDisplay	1	60	60	foodImage.62	FOODEEG_Images\0644.jpg	NY	Right	Yes	1.09240060000047	0	317980	252
623.115234375	1.09240060000047	taste	choicePhaseStart	1	60	60	foodImage.62	FOODEEG_Images\0644.jpg	NY	Right	Yes	1.09240060000047	0	319036	253
624.19921875	0	taste	response	1	60	60	foodImage.62	FOODEEG_Images\0644.jpg	NY	Right	Yes	1.09240060000047	0	319591	235
626.240234375	17.73828125	n/a	blockEnd	n/a	n/a	n/a	n/a	n/a	n/a	n/a	n/a	n/a	n/a	320636	254
643.978515625	2	n/a	blockStart	2	n/a	n/a	n/a	n/a	n/a	n/a	n/a	n/a	n/a	329718	250
646.01171875	1	decision	trialStart	2	61	1	foodImage.36	FOODEEG_Images\0352.jpg	NY	Right	Yes	1.21254580000004	0	330759	251
647.09765625	2	decision	foodImageDisplay	2	61	1	foodImage.36	FOODEEG_Images\0352.jpg	NY	Right	Yes	1.21254580000004	0	331315	252
649.16015625	1.21254580000004	decision	choicePhaseStart	2	61	1	foodImage.36	FOODEEG_Images\0352.jpg	NY	Right	Yes	1.21254580000004	0	332371	253
650.365234375	0	decision	response	2	61	1	foodImage.36	FOODEEG_Images\0352.jpg	NY	Right	Yes	1.21254580000004	0	332988	235
651.408203125	1	health	trialStart	2	62	2	foodImage.44	FOODEEG_Images\0459.jpg	YN	Left	Yes	0.806986599999618	0	333522	251
652.455078125	2	health	foodImageDisplay	2	62	2	foodImage.44	FOODEEG_Images\0459.jpg	YN	Left	Yes	0.806986599999618	0	334058	252
654.51953125	0.806986599999618	health	choicePhaseStart	2	62	2	foodImage.44	FOODEEG_Images\0459.jpg	YN	Left	Yes	0.806986599999618	0	335115	253
655.31640625	0	health	response	2	62	2	foodImage.44	FOODEEG_Images\0459.jpg	YN	Left	Yes	0.806986599999618	0	335523	234
656.359375	1	decision	trialStart	2	63	3	foodImage.17	FOODEEG_Images\0199.jpg	NY	Right	Yes	0.757626699999491	0	336057	251
657.400390625	2	decision	foodImageDisplay	2	63	3	foodImage.17	FOODEEG_Images\0199.jpg	NY	Right	Yes	0.757626699999491	0	336590	252
659.46484375	0.757626699999491	decision	choicePhaseStart	2	63	3	foodImage.17	FOODEEG_Images\0199.jpg	NY	Right	Yes	0.757626699999491	0	337647	253
660.212890625	0	decision	response	2	63	3	foodImage.17	FOODEEG_Images\0199.jpg	NY	Right	Yes	0.757626699999491	0	338030	235
661.2578125	1	taste	trialStart	2	64	4	foodImage.97	FOODEEG_Images\0905.jpg	YN	Right	No	0.990007499999592	0	338565	251
662.296875	2	taste	foodImageDisplay	2	64	4	foodImage.97	FOODEEG_Images\0905.jpg	YN	Right	No	0.990007499999592	0	339097	252
664.359375	0.990007499999592	taste	choicePhaseStart	2	64	4	foodImage.97	FOODEEG_Images\0905.jpg	YN	Right	No	0.990007499999592	0	340153	253
665.33984375	0	taste	response	2	64	4	foodImage.97	FOODEEG_Images\0905.jpg	YN	Right	No	0.990007499999592	0	340655	235
666.38671875	1	taste	trialStart	2	65	5	foodImage.31	FOODEEG_Images\0294.jpg	NY	Left	No	1.55439270000079	0	341191	251
667.427734375	2	taste	foodImageDisplay	2	65	5	foodImage.31	FOODEEG_Images\0294.jpg	NY	Left	No	1.55439270000079	0	341724	252
669.4921875	1.55439270000079	taste	choicePhaseStart	2	65	5	foodImage.31	FOODEEG_Images\0294.jpg	NY	Left	No	1.55439270000079	0	342781	253
671.037109375	0	taste	response	2	65	5	foodImage.31	FOODEEG_Images\0294.jpg	NY	Left	No	1.55439270000079	0	343572	234
672.078125	1	decision	trialStart	2	66	6	foodImage.38	FOODEEG_Images\0365.jpg	NY	Right	Yes	1.5305242000004	0	344105	251
673.115234375	2	decision	foodImageDisplay	2	66	6	foodImage.38	FOODEEG_Images\0365.jpg	NY	Right	Yes	1.5305242000004	0	344636	252
675.1796875	1.5305242000004	decision	choicePhaseStart	2	66	6	foodImage.38	FOODEEG_Images\0365.jpg	NY	Right	Yes	1.5305242000004	0	345693	253
676.701171875	0	decision	response	2	66	6	foodImage.38	FOODEEG_Images\0365.jpg	NY	Right	Yes	1.5305242000004	0	346472	235
677.740234375	1	taste	trialStart	2	67	7	foodImage.87	FOODEEG_Images\0873.jpg	NY	Right	Yes	1.45512109999981	0	347004	251
678.798828125	2	taste	foodImageDisplay	2	67	7	foodImage.87	FOODEEG_Images\0873.jpg	NY	Right	Yes	1.45512109999981	0	347546	252
680.861328125	1.45512109999981	taste	choicePhaseStart	2	67	7	foodImage.87	FOODEEG_Images\0873.jpg	NY	Right	Yes	1.45512109999981	0	348602	253
682.30859375	0	taste	response	2	67	7	foodImage.87	FOODEEG_Images\0873.jpg	NY	Right	Yes	1.45512109999981	0	349343	235
683.353515625	1	health	trialStart	2	68	8	foodImage.60	FOODEEG_Images\0614.jpg	YN	Left	Yes	0.954211799999939	0	349878	251
684.408203125	2	health	foodImageDisplay	2	68	8	foodImage.60	FOODEEG_Images\0614.jpg	YN	Left	Yes	0.954211799999939	0	350418	252
686.470703125	0.954211799999939	health	choicePhaseStart	2	68	8	foodImage.60	FOODEEG_Images\0614.jpg	YN	Left	Yes	0.954211799999939	0	351474	253
687.419921875	0	health	response	2	68	8	foodImage.60	FOODEEG_Images\0614.jpg	YN	Left	Yes	0.954211799999939	0	351960	234
688.462890625	1	health	trialStart	2	69	9	foodImage.56	FOODEEG_Images\0586.jpg	YN	Left	Yes	1.00149479999982	0	352494	251
689.505859375	2	health	foodImageDisplay	2	69	9	foodImage.56	FOODEEG_Images\0586.jpg	YN	Left	Yes	1.00149479999982	0	353028	252
691.5703125	1.00149479999982	health	choicePhaseStart	2	69	9	foodImage.56	FOODEEG_Images\0586.jpg	YN	Left	Yes	1.00149479999982	0	354085	253
692.564453125	0	health	response	2	69	9	foodImage.56	FOODEEG_Images\0586.jpg	YN	Left	Yes	1.00149479999982	0	354594	234
693.607421875	1	taste	trialStart	2	70	10	foodImage.89	FOODEEG_Images\0881.jpg	YN	Left	Yes	1.4117825000003	0	355128	251
694.6640625	2	taste	foodImageDisplay	2	70	10	foodImage.89	FOODEEG_Images\0881.jpg	YN	Left	Yes	1.4117825000003	0	355669	252
696.728515625	1.4117825000003	taste	choicePhaseStart	2	70	10	foodImage.89	FOODEEG_Images\0881.jpg	YN	Left	Yes	1.4117825000003	0	356726	253
698.130859375	0	taste	response	2	70	10	foodImage.89	FOODEEG_Images\0881.jpg	YN	Left	Yes	1.4117825000003	0	357444	234
699.171875	1	taste	trialStart	2	71	11	foodImage.63	FOODEEG_Images\0645.jpg	NY	Right	Yes	1.50477080000019	0	357977	251
700.21484375	2	taste	foodImageDisplay	2	71	11	foodImage.63	FOODEEG_Images\0645.jpg	NY	Right	Yes	1.50477080000019	0	358511	252
702.283203125	1.50477080000019	taste	choicePhaseStart	2	71	11	foodImage.63	FOODEEG_Images\0645.jpg	NY	Right	Yes	1.50477080000019	0	359570	253
703.779296875	0	taste	response	2	71	11	foodImage.63	FOODEEG_Images\0645.jpg	NY	Right	Yes	1.50477080000019	0	360336	235
704.822265625	1	decision	trialStart	2	72	12	foodImage.92	FOODEEG_Images\0900.jpg	YN	Right	No	1.07189589999962	0	360870	251
705.861328125	2	decision	foodImageDisplay	2	72	12	foodImage.92	FOODEEG_Images\0900.jpg	YN	Right	No	1.07189589999962	0	361402	252
707.9296875	1.07189589999962	decision	choicePhaseStart	2	72	12	foodImage.92	FOODEEG_Images\0900.jpg	YN	Right	No	1.07189589999962	0	362461	253
708.994140625	0	decision	response	2	72	12	foodImage.92	FOODEEG_Images\0900.jpg	YN	Right	No	1.07189589999962	0	363006	235
710.04296875	1	taste	trialStart	2	73	13	foodImage.70	FOODEEG_Images\0705.jpg	NY	Right	Yes	0.90557600000011	0	363543	251
711.099609375	2	taste	foodImageDisplay	2	73	13	foodImage.70	FOODEEG_Images\0705.jpg	NY	Right	Yes	0.90557600000011	0	364084	252
713.162109375	0.90557600000011	taste	choicePhaseStart	2	73	13	foodImage.70	FOODEEG_Images\0705.jpg	NY	Right	Yes	0.90557600000011	0	365140	253
714.05859375	0	taste	response	2	73	13	foodImage.70	FOODEEG_Images\0705.jpg	NY	Right	Yes	0.90557600000011	0	365599	235
715.1015625	1	decision	trialStart	2	74	14	foodImage.90	FOODEEG_Images\0890.jpg	NY	Right	Yes	0.988895800000137	0	366133	251
716.16015625	2	decision	foodImageDisplay	2	74	14	foodImage.90	FOODEEG_Images\0890.jpg	NY	Right	Yes	0.988895800000137	0	366675	252
718.22265625	0.988895800000137	decision	choicePhaseStart	2	74	14	foodImage.90	FOODEEG_Images\0890.jpg	NY	Right	Yes	0.988895800000137	0	367731	253
719.203125	0	decision	response	2	74	14	foodImage.90	FOODEEG_Images\0890.jpg	NY	Right	Yes	0.988895800000137	0	368233	235
720.24609375	1	health	trialStart	2	75	15	foodImage.94	FOODEEG_Images\0902.jpg	YN	Left	Yes	1.60634680000021	0	368767	251
721.28515625	2	health	foodImageDisplay	2	75	15	foodImage.94	FOODEEG_Images\0902.jpg	YN	Left	Yes	1.60634680000021	0	369299	252
723.34765625	1.60634680000021	health	choicePhaseStart	2	75	15	foodImage.94	FOODEEG_Images\0902.jpg	YN	Left	Yes	1.60634680000021	0	370355	253
724.947265625	0	health	response	2	75	15	foodImage.94	FOODEEG_Images\0902.jpg	YN	Left	Yes	1.60634680000021	0	371174	234
725.990234375	1	health	trialStart	2	76	16	foodImage.86	FOODEEG_Images\0844.jpg	YN	Right	No	1.00123099999928	0	371708	251
727.048828125	2	health	foodImageDisplay	2	76	16	foodImage.86	FOODEEG_Images\0844.jpg	YN	Right	No	1.00123099999928	0	372250	252
729.11328125	1.00123099999928	health	choicePhaseStart	2	76	16	foodImage.86	FOODEEG_Images\0844.jpg	YN	Right	No	1.00123099999928	0	373307	253
730.10546875	0	health	response	2	76	16	foodImage.86	FOODEEG_Images\0844.jpg	YN	Right	No	1.00123099999928	0	373815	235
731.1484375	1	decision	trialStart	2	77	17	foodImage.100	FOODEEG_Images\0908.jpg	YN	Left	Yes	1.0483605999998	0	374349	251
732.1875	2	decision	foodImageDisplay	2	77	17	foodImage.100	FOODEEG_Images\0908.jpg	YN	Left	Yes	1.0483605999998	0	374881	252
734.25	1.0483605999998	decision	choicePhaseStart	2	77	17	foodImage.100	FOODEEG_Images\0908.jpg	YN	Left	Yes	1.0483605999998	0	375937	253
735.2890625	0	decision	response	2	77	17	foodImage.100	FOODEEG_Images\0908.jpg	YN	Left	Yes	1.0483605999998	0	376469	234
736.33203125	1	taste	trialStart	2	78	18	foodImage.93	FOODEEG_Images\0901.jpg	NY	Left	No	1.23961060000056	0	377003	251
737.37109375	2	taste	foodImageDisplay	2	78	18	foodImage.93	FOODEEG_Images\0901.jpg	NY	Left	No	1.23961060000056	0	377535	252
739.435546875	1.23961060000056	taste	choicePhaseStart	2	78	18	foodImage.93	FOODEEG_Images\0901.jpg	NY	Left	No	1.23961060000056	0	378592	253
740.666015625	0	taste	response	2	78	18	foodImage.93	FOODEEG_Images\0901.jpg	NY	Left	No	1.23961060000056	0	379222	234
741.70703125	1	decision	trialStart	2	79	19	foodImage.48	FOODEEG_Images\0494.jpg	YN	Left	Yes	1.25950170000033	0	379755	251
742.75	2	decision	foodImageDisplay	2	79	19	foodImage.48	FOODEEG_Images\0494.jpg	YN	Left	Yes	1.25950170000033	0	380289	252
744.814453125	1.25950170000033	decision	choicePhaseStart	2	79	19	foodImage.48	FOODEEG_Images\0494.jpg	YN	Left	Yes	1.25950170000033	0	381346	253
746.064453125	0	decision	response	2	79	19	foodImage.48	FOODEEG_Images\0494.jpg	YN	Left	Yes	1.25950170000033	0	381986	234
747.119140625	1	decision	trialStart	2	80	20	foodImage.80	FOODEEG_Images\0796.jpg	NY	Right	Yes	1.34932770000069	0	382526	251
748.1796875	2	decision	foodImageDisplay	2	80	20	foodImage.80	FOODEEG_Images\0796.jpg	NY	Right	Yes	1.34932770000069	0	383069	252
750.244140625	1.34932770000069	decision	choicePhaseStart	2	80	20	foodImage.80	FOODEEG_Images\0796.jpg	NY	Right	Yes	1.34932770000069	0	384126	253
751.5859375	0	decision	response	2	80	20	foodImage.80	FOODEEG_Images\0796.jpg	NY	Right	Yes	1.34932770000069	0	384813	235
752.62890625	1	taste	trialStart	2	81	21	foodImage.33	FOODEEG_Images\0329.jpg	NY	Right	Yes	1.05298440000024	0	385347	251
753.669921875	2	taste	foodImageDisplay	2	81	21	foodImage.33	FOODEEG_Images\0329.jpg	NY	Right	Yes	1.05298440000024	0	385880	252
755.734375	1.05298440000024	taste	choicePhaseStart	2	81	21	foodImage.33	FOODEEG_Images\0329.jpg	NY	Right	Yes	1.05298440000024	0	386937	253
756.77734375	0	taste	response	2	81	21	foodImage.33	FOODEEG_Images\0329.jpg	NY	Right	Yes	1.05298440000024	0	387471	235
757.822265625	1	health	trialStart	2	82	22	foodImage.4	FOODEEG_Images\0065.jpg	NY	Left	No	0.861448399999972	0	388006	251
758.8828125	2	health	foodImageDisplay	2	82	22	foodImage.4	FOODEEG_Images\0065.jpg	NY	Left	No	0.861448399999972	0	388549	252
760.9453125	0.861448399999972	health	choicePhaseStart	2	82	22	foodImage.4	FOODEEG_Images\0065.jpg	NY	Left	No	0.861448399999972	0	389605	253
761.80078125	0	health	response	2	82	22	foodImage.4	FOODEEG_Images\0065.jpg	NY	Left	No	0.861448399999972	0	390043	234
762.84375	1	decision	trialStart	2	83	23	foodImage.66	FOODEEG_Images\0676.jpg	NY	Right	Yes	1.57132360000014	0	390577	251
763.88671875	2	decision	foodImageDisplay	2	83	23	foodImage.66	FOODEEG_Images\0676.jpg	NY	Right	Yes	1.57132360000014	0	391111	252
765.94921875	1.57132360000014	decision	choicePhaseStart	2	83	23	foodImage.66	FOODEEG_Images\0676.jpg	NY	Right	Yes	1.57132360000014	0	392167	253
767.51171875	0	decision	response	2	83	23	foodImage.66	FOODEEG_Images\0676.jpg	NY	Right	Yes	1.57132360000014	0	392967	235
768.5546875	1	health	trialStart	2	84	24	foodImage.120	FOODEEG_Images\0928.jpg	YN	Left	Yes	1.0560888	0	393501	251
769.595703125	2	health	foodImageDisplay	2	84	24	foodImage.120	FOODEEG_Images\0928.jpg	YN	Left	Yes	1.0560888	0	394034	252
771.658203125	1.0560888	health	choicePhaseStart	2	84	24	foodImage.120	FOODEEG_Images\0928.jpg	YN	Left	Yes	1.0560888	0	395090	253
772.705078125	0	health	response	2	84	24	foodImage.120	FOODEEG_Images\0928.jpg	YN	Left	Yes	1.0560888	0	395626	234
773.748046875	1	decision	trialStart	2	85	25	foodImage.76	FOODEEG_Images\0766.jpg	YN	Left	Yes	0.92870210000001	0	396160	251
774.79296875	2	decision	foodImageDisplay	2	85	25	foodImage.76	FOODEEG_Images\0766.jpg	YN	Left	Yes	0.92870210000001	0	396695	252
776.857421875	0.92870210000001	decision	choicePhaseStart	2	85	25	foodImage.76	FOODEEG_Images\0766.jpg	YN	Left	Yes	0.92870210000001	0	397752	253
777.775390625	0	decision	response	2	85	25	foodImage.76	FOODEEG_Images\0766.jpg	YN	Left	Yes	0.92870210000001	0	398222	234
778.818359375	1	health	trialStart	2	86	26	foodImage.117	FOODEEG_Images\0925.jpg	YN	Left	Yes	1.47448580000037	0	398756	251
779.859375	2	health	foodImageDisplay	2	86	26	foodImage.117	FOODEEG_Images\0925.jpg	YN	Left	Yes	1.47448580000037	0	399289	252
781.92578125	1.47448580000037	health	choicePhaseStart	2	86	26	foodImage.117	FOODEEG_Images\0925.jpg	YN	Left	Yes	1.47448580000037	0	400347	253
783.392578125	0	health	response	2	86	26	foodImage.117	FOODEEG_Images\0925.jpg	YN	Left	Yes	1.47448580000037	0	401098	234
784.435546875	1	health	trialStart	2	87	27	foodImage.40	FOODEEG_Images\0373.jpg	YN	Right	No	1.52586549999978	0	401632	251
785.484375	2	health	foodImageDisplay	2	87	27	foodImage.40	FOODEEG_Images\0373.jpg	YN	Right	No	1.52586549999978	0	402169	252
787.546875	1.52586549999978	health	choicePhaseStart	2	87	27	foodImage.40	FOODEEG_Images\0373.jpg	YN	Right	No	1.52586549999978	0	403225	253
789.064453125	0	health	response	2	87	27	foodImage.40	FOODEEG_Images\0373.jpg	YN	Right	No	1.52586549999978	0	404002	235
790.107421875	1	taste	trialStart	2	88	28	foodImage.41	FOODEEG_Images\0409.jpg	YN	Left	Yes	0.837323400000059	0	404536	251
791.15625	2	taste	foodImageDisplay	2	88	28	foodImage.41	FOODEEG_Images\0409.jpg	YN	Left	Yes	0.837323400000059	0	405073	252
793.21875	0.837323400000059	taste	choicePhaseStart	2	88	28	foodImage.41	FOODEEG_Images\0409.jpg	YN	Left	Yes	0.837323400000059	0	406129	253
794.046875	0	taste	response	2	88	28	foodImage.41	FOODEEG_Images\0409.jpg	YN	Left	Yes	0.837323400000059	0	406553	234
795.08984375	1	health	trialStart	2	89	29	foodImage.25	FOODEEG_Images\0261.jpg	NY	Right	Yes	0.988515400000324	0	407087	251
796.1328125	2	health	foodImageDisplay	2	89	29	foodImage.25	FOODEEG_Images\0261.jpg	NY	Right	Yes	0.988515400000324	0	407621	252
798.197265625	0.988515400000324	health	choicePhaseStart	2	89	29	foodImage.25	FOODEEG_Images\0261.jpg	NY	Right	Yes	0.988515400000324	0	408678	253
799.17578125	0	health	response	2	89	29	foodImage.25	FOODEEG_Images\0261.jpg	NY	Right	Yes	0.988515400000324	0	409179	235
800.21875	1	decision	trialStart	2	90	30	foodImage.37	FOODEEG_Images\0359.jpg	YN	Left	Yes	0.867773099999795	0	409713	251
801.259765625	2	decision	foodImageDisplay	2	90	30	foodImage.37	FOODEEG_Images\0359.jpg	YN	Left	Yes	0.867773099999795	0	410246	252
803.32421875	0.867773099999795	decision	choicePhaseStart	2	90	30	foodImage.37	FOODEEG_Images\0359.jpg	YN	Left	Yes	0.867773099999795	0	411303	253
804.18359375	0	decision	response	2	90	30	foodImage.37	FOODEEG_Images\0359.jpg	YN	Left	Yes	0.867773099999795	0	411743	234
805.2265625	1	health	trialStart	2	91	31	foodImage.36	FOODEEG_Images\0352.jpg	NY	Right	Yes	1.17503109999961	0	412277	251
806.28125	2	health	foodImageDisplay	2	91	31	foodImage.36	FOODEEG_Images\0352.jpg	NY	Right	Yes	1.17503109999961	0	412817	252
808.345703125	1.17503109999961	health	choicePhaseStart	2	91	31	foodImage.36	FOODEEG_Images\0352.jpg	NY	Right	Yes	1.17503109999961	0	413874	253
809.51171875	0	health	response	2	91	31	foodImage.36	FOODEEG_Images\0352.jpg	NY	Right	Yes	1.17503109999961	0	414471	235
810.552734375	1	decision	trialStart	2	92	32	foodImage.95	FOODEEG_Images\0903.jpg	NY	Left	No	1.03937609999957	0	415004	251
811.59375	2	decision	foodImageDisplay	2	92	32	foodImage.95	FOODEEG_Images\0903.jpg	NY	Left	No	1.03937609999957	0	415537	252
813.65625	1.03937609999957	decision	choicePhaseStart	2	92	32	foodImage.95	FOODEEG_Images\0903.jpg	NY	Left	No	1.03937609999957	0	416593	253
814.6875	0	decision	response	2	92	32	foodImage.95	FOODEEG_Images\0903.jpg	NY	Left	No	1.03937609999957	0	417121	234
815.728515625	1	health	trialStart	2	93	33	foodImage.48	FOODEEG_Images\0494.jpg	YN	Right	No	1.65991650000069	0	417654	251
816.76953125	2	health	foodImageDisplay	2	93	33	foodImage.48	FOODEEG_Images\0494.jpg	YN	Right	No	1.65991650000069	0	418187	252
818.8359375	1.65991650000069	health	choicePhaseStart	2	93	33	foodImage.48	FOODEEG_Images\0494.jpg	YN	Right	No	1.65991650000069	0	419245	253
820.486328125	0	health	response	2	93	33	foodImage.48	FOODEEG_Images\0494.jpg	YN	Right	No	1.65991650000069	0	420090	235
821.525390625	1	health	trialStart	2	94	34	foodImage.46	FOODEEG_Images\0479.jpg	NY	Right	Yes	0.749052500000289	0	420622	251
822.58203125	2	health	foodImageDisplay	2	94	34	foodImage.46	FOODEEG_Images\0479.jpg	NY	Right	Yes	0.749052500000289	0	421163	252
824.650390625	0.749052500000289	health	choicePhaseStart	2	94	34	foodImage.46	FOODEEG_Images\0479.jpg	NY	Right	Yes	0.749052500000289	0	422222	253
825.390625	0	health	response	2	94	34	foodImage.46	FOODEEG_Images\0479.jpg	NY	Right	Yes	0.749052500000289	0	422601	235
826.43359375	1	taste	trialStart	2	95	35	foodImage.117	FOODEEG_Images\0925.jpg	NY	Left	No	1.46459249999953	0	423135	251
827.470703125	2	taste	foodImageDisplay	2	95	35	foodImage.117	FOODEEG_Images\0925.jpg	NY	Left	No	1.46459249999953	0	423666	252
829.53515625	1.46459249999953	taste	choicePhaseStart	2	95	35	foodImage.117	FOODEEG_Images\0925.jpg	NY	Left	No	1.46459249999953	0	424723	253
830.990234375	0	taste	response	2	95	35	foodImage.117	FOODEEG_Images\0925.jpg	NY	Left	No	1.46459249999953	0	425468	234
832.033203125	1	taste	trialStart	2	96	36	foodImage.47	FOODEEG_Images\0488.jpg	YN	Left	Yes	0.924692399999913	0	426002	251
833.07421875	2	taste	foodImageDisplay	2	96	36	foodImage.47	FOODEEG_Images\0488.jpg	YN	Left	Yes	0.924692399999913	0	426535	252
835.138671875	0.924692399999913	taste	choicePhaseStart	2	96	36	foodImage.47	FOODEEG_Images\0488.jpg	YN	Left	Yes	0.924692399999913	0	427592	253
836.0546875	0	taste	response	2	96	36	foodImage.47	FOODEEG_Images\0488.jpg	YN	Left	Yes	0.924692399999913	0	428061	234
837.09765625	1	decision	trialStart	2	97	37	foodImage.89	FOODEEG_Images\0881.jpg	YN	Left	Yes	0.81469079999988	0	428595	251
838.15234375	2	decision	foodImageDisplay	2	97	37	foodImage.89	FOODEEG_Images\0881.jpg	YN	Left	Yes	0.81469079999988	0	429135	252
840.216796875	0.81469079999988	decision	choicePhaseStart	2	97	37	foodImage.89	FOODEEG_Images\0881.jpg	YN	Left	Yes	0.81469079999988	0	430192	253
841.021484375	0	decision	response	2	97	37	foodImage.89	FOODEEG_Images\0881.jpg	YN	Left	Yes	0.81469079999988	0	430604	234
842.0625	1	decision	trialStart	2	98	38	foodImage.106	FOODEEG_Images\0914.jpg	YN	Right	No	1.41743940000015	0	431137	251
843.1015625	2	decision	foodImageDisplay	2	98	38	foodImage.106	FOODEEG_Images\0914.jpg	YN	Right	No	1.41743940000015	0	431669	252
845.166015625	1.41743940000015	decision	choicePhaseStart	2	98	38	foodImage.106	FOODEEG_Images\0914.jpg	YN	Right	No	1.41743940000015	0	432726	253
846.57421875	0	decision	response	2	98	38	foodImage.106	FOODEEG_Images\0914.jpg	YN	Right	No	1.41743940000015	0	433447	235
847.6171875	1	health	trialStart	2	99	39	foodImage.20	FOODEEG_Images\0226.jpg	NY	Right	Yes	1.37727600000017	0	433981	251
848.658203125	2	health	foodImageDisplay	2	99	39	foodImage.20	FOODEEG_Images\0226.jpg	NY	Right	Yes	1.37727600000017	0	434514	252
850.724609375	1.37727600000017	health	choicePhaseStart	2	99	39	foodImage.20	FOODEEG_Images\0226.jpg	NY	Right	Yes	1.37727600000017	0	435572	253
852.09375	0	health	response	2	99	39	foodImage.20	FOODEEG_Images\0226.jpg	NY	Right	Yes	1.37727600000017	0	436273	235
853.13671875	1	health	trialStart	2	100	40	foodImage.109	FOODEEG_Images\0917.jpg	NY	Left	No	0.923328999999285	0	436807	251
854.173828125	2	health	foodImageDisplay	2	100	40	foodImage.109	FOODEEG_Images\0917.jpg	NY	Left	No	0.923328999999285	0	437338	252
856.2421875	0.923328999999285	health	choicePhaseStart	2	100	40	foodImage.109	FOODEEG_Images\0917.jpg	NY	Left	No	0.923328999999285	0	438397	253
857.15625	0	health	response	2	100	40	foodImage.109	FOODEEG_Images\0917.jpg	NY	Left	No	0.923328999999285	0	438865	234
858.201171875	1	taste	trialStart	2	101	41	foodImage.85	FOODEEG_Images\0841.jpg	NY	Right	Yes	1.00612759999967	0	439400	251
859.259765625	2	taste	foodImageDisplay	2	101	41	foodImage.85	FOODEEG_Images\0841.jpg	NY	Right	Yes	1.00612759999967	0	439942	252
861.326171875	1.00612759999967	taste	choicePhaseStart	2	101	41	foodImage.85	FOODEEG_Images\0841.jpg	NY	Right	Yes	1.00612759999967	0	441000	253
862.32421875	0	taste	response	2	101	41	foodImage.85	FOODEEG_Images\0841.jpg	NY	Right	Yes	1.00612759999967	0	441511	235
863.3671875	1	health	trialStart	2	102	42	foodImage.30	FOODEEG_Images\0282.jpg	YN	Left	Yes	0.715619399999923	0	442045	251
864.41015625	2	health	foodImageDisplay	2	102	42	foodImage.30	FOODEEG_Images\0282.jpg	YN	Left	Yes	0.715619399999923	0	442579	252
866.474609375	0.715619399999923	health	choicePhaseStart	2	102	42	foodImage.30	FOODEEG_Images\0282.jpg	YN	Left	Yes	0.715619399999923	0	443636	253
867.1796875	0	health	response	2	102	42	foodImage.30	FOODEEG_Images\0282.jpg	YN	Left	Yes	0.715619399999923	0	443997	234
868.220703125	1	taste	trialStart	2	103	43	foodImage.57	FOODEEG_Images\0587.jpg	YN	Left	Yes	0.925339000000349	0	444530	251
869.265625	2	taste	foodImageDisplay	2	103	43	foodImage.57	FOODEEG_Images\0587.jpg	YN	Left	Yes	0.925339000000349	0	445065	252
871.328125	0.925339000000349	taste	choicePhaseStart	2	103	43	foodImage.57	FOODEEG_Images\0587.jpg	YN	Left	Yes	0.925339000000349	0	446121	253
872.244140625	0	taste	response	2	103	43	foodImage.57	FOODEEG_Images\0587.jpg	YN	Left	Yes	0.925339000000349	0	446590	234
873.2890625	1	taste	trialStart	2	104	44	foodImage.68	FOODEEG_Images\0685.jpg	YN	Left	Yes	0.732581799999934	0	447125	251
874.369140625	2	taste	foodImageDisplay	2	104	44	foodImage.68	FOODEEG_Images\0685.jpg	YN	Left	Yes	0.732581799999934	0	447678	252
876.431640625	0.732581799999934	taste	choicePhaseStart	2	104	44	foodImage.68	FOODEEG_Images\0685.jpg	YN	Left	Yes	0.732581799999934	0	448734	253
877.15625	0	taste	response	2	104	44	foodImage.68	FOODEEG_Images\0685.jpg	YN	Left	Yes	0.732581799999934	0	449105	234
878.197265625	1	taste	trialStart	2	105	45	foodImage.112	FOODEEG_Images\0920.jpg	NY	Right	Yes	1.5939656999999	0	449638	251
879.236328125	2	taste	foodImageDisplay	2	105	45	foodImage.112	FOODEEG_Images\0920.jpg	NY	Right	Yes	1.5939656999999	0	450170	252
881.298828125	1.5939656999999	taste	choicePhaseStart	2	105	45	foodImage.112	FOODEEG_Images\0920.jpg	NY	Right	Yes	1.5939656999999	0	451226	253
882.884765625	0	taste	response	2	105	45	foodImage.112	FOODEEG_Images\0920.jpg	NY	Right	Yes	1.5939656999999	0	452038	235
883.927734375	1	decision	trialStart	2	106	46	foodImage.33	FOODEEG_Images\0329.jpg	YN	Left	Yes	0.70019609999963	0	452572	251
884.96875	2	decision	foodImageDisplay	2	106	46	foodImage.33	FOODEEG_Images\0329.jpg	YN	Left	Yes	0.70019609999963	0	453105	252
887.033203125	0.70019609999963	decision	choicePhaseStart	2	106	46	foodImage.33	FOODEEG_Images\0329.jpg	YN	Left	Yes	0.70019609999963	0	454162	253
887.724609375	0	decision	response	2	106	46	foodImage.33	FOODEEG_Images\0329.jpg	YN	Left	Yes	0.70019609999963	0	454516	234
888.765625	1	taste	trialStart	2	107	47	foodImage.50	FOODEEG_Images\0529.jpg	YN	Left	Yes	1.01329220000025	0	455049	251
889.82421875	2	taste	foodImageDisplay	2	107	47	foodImage.50	FOODEEG_Images\0529.jpg	YN	Left	Yes	1.01329220000025	0	455591	252
891.888671875	1.01329220000025	taste	choicePhaseStart	2	107	47	foodImage.50	FOODEEG_Images\0529.jpg	YN	Left	Yes	1.01329220000025	0	456648	253
892.892578125	0	taste	response	2	107	47	foodImage.50	FOODEEG_Images\0529.jpg	YN	Left	Yes	1.01329220000025	0	457162	234
893.935546875	1	decision	trialStart	2	108	48	foodImage.34	FOODEEG_Images\0339.jpg	YN	Left	Yes	1.09076339999956	0	457696	251
894.9921875	2	decision	foodImageDisplay	2	108	48	foodImage.34	FOODEEG_Images\0339.jpg	YN	Left	Yes	1.09076339999956	0	458237	252
897.056640625	1.09076339999956	decision	choicePhaseStart	2	108	48	foodImage.34	FOODEEG_Images\0339.jpg	YN	Left	Yes	1.09076339999956	0	459294	253
898.138671875	0	decision	response	2	108	48	foodImage.34	FOODEEG_Images\0339.jpg	YN	Left	Yes	1.09076339999956	0	459848	234
899.181640625	1	decision	trialStart	2	109	49	foodImage.56	FOODEEG_Images\0586.jpg	YN	Left	Yes	0.856764999999541	0	460382	251
900.2265625	2	decision	foodImageDisplay	2	109	49	foodImage.56	FOODEEG_Images\0586.jpg	YN	Left	Yes	0.856764999999541	0	460917	252
902.291015625	0.856764999999541	decision	choicePhaseStart	2	109	49	foodImage.56	FOODEEG_Images\0586.jpg	YN	Left	Yes	0.856764999999541	0	461974	253
903.138671875	0	decision	response	2	109	49	foodImage.56	FOODEEG_Images\0586.jpg	YN	Left	Yes	0.856764999999541	0	462408	234
904.181640625	1	decision	trialStart	2	110	50	foodImage.10	FOODEEG_Images\0145.jpg	YN	Left	Yes	0.671143800000209	0	462942	251
905.23828125	2	decision	foodImageDisplay	2	110	50	foodImage.10	FOODEEG_Images\0145.jpg	YN	Left	Yes	0.671143800000209	0	463483	252
907.306640625	0.671143800000209	decision	choicePhaseStart	2	110	50	foodImage.10	FOODEEG_Images\0145.jpg	YN	Left	Yes	0.671143800000209	0	464542	253
907.970703125	0	decision	response	2	110	50	foodImage.10	FOODEEG_Images\0145.jpg	YN	Left	Yes	0.671143800000209	0	464882	234
909.013671875	1	decision	trialStart	2	111	51	foodImage.13	FOODEEG_Images\0183.jpg	NY	Right	Yes	1.19013510000059	0	465416	251
910.0546875	2	decision	foodImageDisplay	2	111	51	foodImage.13	FOODEEG_Images\0183.jpg	NY	Right	Yes	1.19013510000059	0	465949	252
912.1171875	1.19013510000059	decision	choicePhaseStart	2	111	51	foodImage.13	FOODEEG_Images\0183.jpg	NY	Right	Yes	1.19013510000059	0	467005	253
913.298828125	0	decision	response	2	111	51	foodImage.13	FOODEEG_Images\0183.jpg	NY	Right	Yes	1.19013510000059	0	467610	235
914.341796875	1	taste	trialStart	2	112	52	foodImage.91	FOODEEG_Images\0896.jpg	NY	Right	Yes	0.875884099999894	0	468144	251
915.400390625	2	taste	foodImageDisplay	2	112	52	foodImage.91	FOODEEG_Images\0896.jpg	NY	Right	Yes	0.875884099999894	0	468686	252
917.46484375	0.875884099999894	taste	choicePhaseStart	2	112	52	foodImage.91	FOODEEG_Images\0896.jpg	NY	Right	Yes	0.875884099999894	0	469743	253
918.330078125	0	taste	response	2	112	52	foodImage.91	FOODEEG_Images\0896.jpg	NY	Right	Yes	0.875884099999894	0	470186	235
919.375	1	decision	trialStart	2	113	53	foodImage.65	FOODEEG_Images\0658.jpg	YN	Left	Yes	1.36318829999982	0	470721	251
920.41796875	2	decision	foodImageDisplay	2	113	53	foodImage.65	FOODEEG_Images\0658.jpg	YN	Left	Yes	1.36318829999982	0	471255	252
922.486328125	1.36318829999982	decision	choicePhaseStart	2	113	53	foodImage.65	FOODEEG_Images\0658.jpg	YN	Left	Yes	1.36318829999982	0	472314	253
923.841796875	0	decision	response	2	113	53	foodImage.65	FOODEEG_Images\0658.jpg	YN	Left	Yes	1.36318829999982	0	473008	234
924.884765625	1	health	trialStart	2	114	54	foodImage.61	FOODEEG_Images\0640.jpg	NY	Right	Yes	0.660653899999488	0	473542	251
925.927734375	2	health	foodImageDisplay	2	114	54	foodImage.61	FOODEEG_Images\0640.jpg	NY	Right	Yes	0.660653899999488	0	474076	252
927.990234375	0.660653899999488	health	choicePhaseStart	2	114	54	foodImage.61	FOODEEG_Images\0640.jpg	NY	Right	Yes	0.660653899999488	0	475132	253
928.642578125	0	health	response	2	114	54	foodImage.61	FOODEEG_Images\0640.jpg	NY	Right	Yes	0.660653899999488	0	475466	235
929.685546875	1	health	trialStart	2	115	55	foodImage.100	FOODEEG_Images\0908.jpg	NY	Left	No	1.25823390000005	0	476000	251
930.72265625	2	health	foodImageDisplay	2	115	55	foodImage.100	FOODEEG_Images\0908.jpg	NY	Left	No	1.25823390000005	0	476531	252
932.78515625	1.25823390000005	health	choicePhaseStart	2	115	55	foodImage.100	FOODEEG_Images\0908.jpg	NY	Left	No	1.25823390000005	0	477587	253
934.033203125	0	health	response	2	115	55	foodImage.100	FOODEEG_Images\0908.jpg	NY	Left	No	1.25823390000005	0	478226	234
935.078125	1	health	trialStart	2	116	56	foodImage.55	FOODEEG_Images\0567.jpg	YN	Left	Yes	1.61135710000053	0	478761	251
936.138671875	2	health	foodImageDisplay	2	116	56	foodImage.55	FOODEEG_Images\0567.jpg	YN	Left	Yes	1.61135710000053	0	479304	252
938.20703125	1.61135710000053	health	choicePhaseStart	2	116	56	foodImage.55	FOODEEG_Images\0567.jpg	YN	Left	Yes	1.61135710000053	0	480363	253
939.810546875	0	health	response	2	116	56	foodImage.55	FOODEEG_Images\0567.jpg	YN	Left	Yes	1.61135710000053	0	481184	234
940.853515625	1	decision	trialStart	2	117	57	foodImage.68	FOODEEG_Images\0685.jpg	YN	Left	Yes	1.03427250000004	0	481718	251
941.92578125	2	decision	foodImageDisplay	2	117	57	foodImage.68	FOODEEG_Images\0685.jpg	YN	Left	Yes	1.03427250000004	0	482267	252
943.990234375	1.03427250000004	decision	choicePhaseStart	2	117	57	foodImage.68	FOODEEG_Images\0685.jpg	YN	Left	Yes	1.03427250000004	0	483324	253
945.017578125	0	decision	response	2	117	57	foodImage.68	FOODEEG_Images\0685.jpg	YN	Left	Yes	1.03427250000004	0	483850	234
946.060546875	1	taste	trialStart	2	118	58	foodImage.103	FOODEEG_Images\0911.jpg	NY	Left	No	1.03222590000041	0	484384	251
947.099609375	2	taste	foodImageDisplay	2	118	58	foodImage.103	FOODEEG_Images\0911.jpg	NY	Left	No	1.03222590000041	0	484916	252
949.162109375	1.03222590000041	taste	choicePhaseStart	2	118	58	foodImage.103	FOODEEG_Images\0911.jpg	NY	Left	No	1.03222590000041	0	485972	253
950.185546875	0	taste	response	2	118	58	foodImage.103	FOODEEG_Images\0911.jpg	NY	Left	No	1.03222590000041	0	486496	234
951.228515625	1	health	trialStart	2	119	59	foodImage.115	FOODEEG_Images\0923.jpg	YN	Right	No	2.32660940000005	0	487030	251
952.267578125	2	health	foodImageDisplay	2	119	59	foodImage.115	FOODEEG_Images\0923.jpg	YN	Right	No	2.32660940000005	0	487562	252
954.33203125	2.32660940000005	health	choicePhaseStart	2	119	59	foodImage.115	FOODEEG_Images\0923.jpg	YN	Right	No	2.32660940000005	0	488619	253
956.6484375	0	health	response	2	119	59	foodImage.115	FOODEEG_Images\0923.jpg	YN	Right	No	2.32660940000005	0	489805	235
957.689453125	1	taste	trialStart	2	120	60	foodImage.17	FOODEEG_Images\0199.jpg	NY	Right	Yes	2.10474020000038	0	490338	251
958.73046875	2	taste	foodImageDisplay	2	120	60	foodImage.17	FOODEEG_Images\0199.jpg	NY	Right	Yes	2.10474020000038	0	490871	252
960.80078125	2.10474020000038	taste	choicePhaseStart	2	120	60	foodImage.17	FOODEEG_Images\0199.jpg	NY	Right	Yes	2.10474020000038	0	491931	253
962.896484375	0	taste	response	2	120	60	foodImage.17	FOODEEG_Images\0199.jpg	NY	Right	Yes	2.10474020000038	0	493004	235
964.939453125	14.267578125	n/a	blockEnd	n/a	n/a	n/a	n/a	n/a	n/a	n/a	n/a	n/a	n/a	494050	254
979.20703125	2	n/a	blockStart	3	n/a	n/a	n/a	n/a	n/a	n/a	n/a	n/a	n/a	501355	250
981.240234375	1	taste	trialStart	3	121	1	foodImage.30	FOODEEG_Images\0282.jpg	NY	Right	Yes	0.91736310000033	0	502396	251
982.283203125	2	taste	foodImageDisplay	3	121	1	foodImage.30	FOODEEG_Images\0282.jpg	NY	Right	Yes	0.91736310000033	0	502930	252
984.34765625	0.91736310000033	taste	choicePhaseStart	3	121	1	foodImage.30	FOODEEG_Images\0282.jpg	NY	Right	Yes	0.91736310000033	0	503987	253
985.255859375	0	taste	response	3	121	1	foodImage.30	FOODEEG_Images\0282.jpg	NY	Right	Yes	0.91736310000033	0	504452	235
986.298828125	1	decision	trialStart	3	122	2	foodImage.111	FOODEEG_Images\0919.jpg	NY	Left	No	1.0765078000004	0	504986	251
987.341796875	2	decision	foodImageDisplay	3	122	2	foodImage.111	FOODEEG_Images\0919.jpg	NY	Left	No	1.0765078000004	0	505520	252
989.404296875	1.0765078000004	decision	choicePhaseStart	3	122	2	foodImage.111	FOODEEG_Images\0919.jpg	NY	Left	No	1.0765078000004	0	506576	253
990.47265625	0	decision	response	3	122	2	foodImage.111	FOODEEG_Images\0919.jpg	NY	Left	No	1.0765078000004	0	507123	234
991.513671875	1	taste	trialStart	3	123	3	foodImage.51	FOODEEG_Images\0536.jpg	YN	Left	Yes	1.02607480000006	0	507656	251
992.560546875	2	taste	foodImageDisplay	3	123	3	foodImage.51	FOODEEG_Images\0536.jpg	YN	Left	Yes	1.02607480000006	0	508192	252
994.623046875	1.02607480000006	taste	choicePhaseStart	3	123	3	foodImage.51	FOODEEG_Images\0536.jpg	YN	Left	Yes	1.02607480000006	0	509248	253
995.640625	0	taste	response	3	123	3	foodImage.51	FOODEEG_Images\0536.jpg	YN	Left	Yes	1.02607480000006	0	509769	234
996.68359375	1	taste	trialStart	3	124	4	foodImage.25	FOODEEG_Images\0261.jpg	NY	Left	No	1.31827710000016	0	510303	251
997.72265625	2	taste	foodImageDisplay	3	124	4	foodImage.25	FOODEEG_Images\0261.jpg	NY	Left	No	1.31827710000016	0	510835	252
999.787109375	1.31827710000016	taste	choicePhaseStart	3	124	4	foodImage.25	FOODEEG_Images\0261.jpg	NY	Left	No	1.31827710000016	0	511892	253
1001.095703125	0	taste	response	3	124	4	foodImage.25	FOODEEG_Images\0261.jpg	NY	Left	No	1.31827710000016	0	512562	234
1002.13671875	1	health	trialStart	3	125	5	foodImage.66	FOODEEG_Images\0676.jpg	YN	Right	No	0.820261299999402	0	513095	251
1003.1796875	2	health	foodImageDisplay	3	125	5	foodImage.66	FOODEEG_Images\0676.jpg	YN	Right	No	0.820261299999402	0	513629	252
1005.2421875	0.820261299999402	health	choicePhaseStart	3	125	5	foodImage.66	FOODEEG_Images\0676.jpg	YN	Right	No	0.820261299999402	0	514685	253
1006.0546875	0	health	response	3	125	5	foodImage.66	FOODEEG_Images\0676.jpg	YN	Right	No	0.820261299999402	0	515101	235
1007.099609375	1	decision	trialStart	3	126	6	foodImage.41	FOODEEG_Images\0409.jpg	NY	Right	Yes	1.26241990000017	0	515636	251
1008.146484375	2	decision	foodImageDisplay	3	126	6	foodImage.41	FOODEEG_Images\0409.jpg	NY	Right	Yes	1.26241990000017	0	516172	252
1010.2109375	1.26241990000017	decision	choicePhaseStart	3	126	6	foodImage.41	FOODEEG_Images\0409.jpg	NY	Right	Yes	1.26241990000017	0	517229	253
1011.462890625	0	decision	response	3	126	6	foodImage.41	FOODEEG_Images\0409.jpg	NY	Right	Yes	1.26241990000017	0	517870	235
1012.505859375	1	taste	trialStart	3	127	7	foodImage.100	FOODEEG_Images\0908.jpg	YN	Left	Yes	1.48804709999968	0	518404	251
1013.544921875	2	taste	foodImageDisplay	3	127	7	foodImage.100	FOODEEG_Images\0908.jpg	YN	Left	Yes	1.48804709999968	0	518936	252
1015.607421875	1.48804709999968	taste	choicePhaseStart	3	127	7	foodImage.100	FOODEEG_Images\0908.jpg	YN	Left	Yes	1.48804709999968	0	519992	253
1017.0859375	0	taste	response	3	127	7	foodImage.100	FOODEEG_Images\0908.jpg	YN	Left	Yes	1.48804709999968	0	520749	234
1018.130859375	1	taste	trialStart	3	128	8	foodImage.46	FOODEEG_Images\0479.jpg	YN	Left	Yes	0.831631699999889	0	521284	251
1019.185546875	2	taste	foodImageDisplay	3	128	8	foodImage.46	FOODEEG_Images\0479.jpg	YN	Left	Yes	0.831631699999889	0	521824	252
1021.25390625	0.831631699999889	taste	choicePhaseStart	3	128	8	foodImage.46	FOODEEG_Images\0479.jpg	YN	Left	Yes	0.831631699999889	0	522883	253
1022.078125	0	taste	response	3	128	8	foodImage.46	FOODEEG_Images\0479.jpg	YN	Left	Yes	0.831631699999889	0	523305	234
1023.119140625	1	health	trialStart	3	129	9	foodImage.59	FOODEEG_Images\0607.jpg	NY	Right	Yes	1.40218039999945	0	523838	251
1024.166015625	2	health	foodImageDisplay	3	129	9	foodImage.59	FOODEEG_Images\0607.jpg	NY	Right	Yes	1.40218039999945	0	524374	252
1026.234375	1.40218039999945	health	choicePhaseStart	3	129	9	foodImage.59	FOODEEG_Images\0607.jpg	NY	Right	Yes	1.40218039999945	0	525433	253
1027.630859375	0	health	response	3	129	9	foodImage.59	FOODEEG_Images\0607.jpg	NY	Right	Yes	1.40218039999945	0	526148	235
1028.671875	1	taste	trialStart	3	130	10	foodImage.113	FOODEEG_Images\0921.jpg	YN	Left	Yes	0.945828200000506	0	526681	251
1029.7109375	2	taste	foodImageDisplay	3	130	10	foodImage.113	FOODEEG_Images\0921.jpg	YN	Left	Yes	0.945828200000506	0	527213	252
1031.7734375	0.945828200000506	taste	choicePhaseStart	3	130	10	foodImage.113	FOODEEG_Images\0921.jpg	YN	Left	Yes	0.945828200000506	0	528269	253
1032.708984375	0	taste	response	3	130	10	foodImage.113	FOODEEG_Images\0921.jpg	YN	Left	Yes	0.945828200000506	0	528748	234
1033.751953125	1	health	trialStart	3	131	11	foodImage.39	FOODEEG_Images\0367.jpg	YN	Right	No	1.46515660000023	0	529282	251
1034.791015625	2	health	foodImageDisplay	3	131	11	foodImage.39	FOODEEG_Images\0367.jpg	YN	Right	No	1.46515660000023	0	529814	252
1036.853515625	1.46515660000023	health	choicePhaseStart	3	131	11	foodImage.39	FOODEEG_Images\0367.jpg	YN	Right	No	1.46515660000023	0	530870	253
1038.310546875	0	health	response	3	131	11	foodImage.39	FOODEEG_Images\0367.jpg	YN	Right	No	1.46515660000023	0	531616	235
1039.3515625	1	taste	trialStart	3	132	12	foodImage.53	FOODEEG_Images\0547.jpg	YN	Left	Yes	1.1020797000001	0	532149	251
1040.41015625	2	taste	foodImageDisplay	3	132	12	foodImage.53	FOODEEG_Images\0547.jpg	YN	Left	Yes	1.1020797000001	0	532691	252
1042.47265625	1.1020797000001	taste	choicePhaseStart	3	132	12	foodImage.53	FOODEEG_Images\0547.jpg	YN	Left	Yes	1.1020797000001	0	533747	253
1043.56640625	0	taste	response	3	132	12	foodImage.53	FOODEEG_Images\0547.jpg	YN	Left	Yes	1.1020797000001	0	534307	234
1044.611328125	1	decision	trialStart	3	133	13	foodImage.74	FOODEEG_Images\0752.jpg	YN	Left	Yes	0.775365699999384	0	534842	251
1045.65625	2	decision	foodImageDisplay	3	133	13	foodImage.74	FOODEEG_Images\0752.jpg	YN	Left	Yes	0.775365699999384	0	535377	252
1047.71875	0.775365699999384	decision	choicePhaseStart	3	133	13	foodImage.74	FOODEEG_Images\0752.jpg	YN	Left	Yes	0.775365699999384	0	536433	253
1048.484375	0	decision	response	3	133	13	foodImage.74	FOODEEG_Images\0752.jpg	YN	Left	Yes	0.775365699999384	0	536825	234
1049.52734375	1	health	trialStart	3	134	14	foodImage.95	FOODEEG_Images\0903.jpg	YN	Right	No	1.13666419999936	0	537359	251
1050.564453125	2	health	foodImageDisplay	3	134	14	foodImage.95	FOODEEG_Images\0903.jpg	YN	Right	No	1.13666419999936	0	537890	252
1052.62890625	1.13666419999936	health	choicePhaseStart	3	134	14	foodImage.95	FOODEEG_Images\0903.jpg	YN	Right	No	1.13666419999936	0	538947	253
1053.7578125	0	health	response	3	134	14	foodImage.95	FOODEEG_Images\0903.jpg	YN	Right	No	1.13666419999936	0	539525	235
1054.80078125	1	decision	trialStart	3	135	15	foodImage.67	FOODEEG_Images\0679.jpg	YN	Left	Yes	0.661099699999795	0	540059	251
1055.857421875	2	decision	foodImageDisplay	3	135	15	foodImage.67	FOODEEG_Images\0679.jpg	YN	Left	Yes	0.661099699999795	0	540600	252
1057.919921875	0.661099699999795	decision	choicePhaseStart	3	135	15	foodImage.67	FOODEEG_Images\0679.jpg	YN	Left	Yes	0.661099699999795	0	541656	253
1058.572265625	0	decision	response	3	135	15	foodImage.67	FOODEEG_Images\0679.jpg	YN	Left	Yes	0.661099699999795	0	541990	234
1059.615234375	1	health	trialStart	3	136	16	foodImage.79	FOODEEG_Images\0794.jpg	NY	Right	Yes	1.13265560000036	0	542524	251
1060.658203125	2	health	foodImageDisplay	3	136	16	foodImage.79	FOODEEG_Images\0794.jpg	NY	Right	Yes	1.13265560000036	0	543058	252
1062.72265625	1.13265560000036	health	choicePhaseStart	3	136	16	foodImage.79	FOODEEG_Images\0794.jpg	NY	Right	Yes	1.13265560000036	0	544115	253
1063.84375	0	health	response	3	136	16	foodImage.79	FOODEEG_Images\0794.jpg	NY	Right	Yes	1.13265560000036	0	544689	235
1064.88671875	1	decision	trialStart	3	137	17	foodImage.60	FOODEEG_Images\0614.jpg	YN	Left	Yes	0.87649539999984	0	545223	251
1065.947265625	2	decision	foodImageDisplay	3	137	17	foodImage.60	FOODEEG_Images\0614.jpg	YN	Left	Yes	0.87649539999984	0	545766	252
1068.009765625	0.87649539999984	decision	choicePhaseStart	3	137	17	foodImage.60	FOODEEG_Images\0614.jpg	YN	Left	Yes	0.87649539999984	0	546822	253
1068.876953125	0	decision	response	3	137	17	foodImage.60	FOODEEG_Images\0614.jpg	YN	Left	Yes	0.87649539999984	0	547266	234
1069.919921875	1	decision	trialStart	3	138	18	foodImage.43	FOODEEG_Images\0445.jpg	NY	Left	No	1.30991940000058	0	547800	251
1070.9921875	2	decision	foodImageDisplay	3	138	18	foodImage.43	FOODEEG_Images\0445.jpg	NY	Left	No	1.30991940000058	0	548349	252
1073.0546875	1.30991940000058	decision	choicePhaseStart	3	138	18	foodImage.43	FOODEEG_Images\0445.jpg	NY	Left	No	1.30991940000058	0	549405	253
1074.357421875	0	decision	response	3	138	18	foodImage.43	FOODEEG_Images\0445.jpg	NY	Left	No	1.30991940000058	0	550072	234
1075.40234375	1	decision	trialStart	3	139	19	foodImage.55	FOODEEG_Images\0567.jpg	YN	Left	Yes	0.688381599999957	0	550607	251
1076.4609375	2	decision	foodImageDisplay	3	139	19	foodImage.55	FOODEEG_Images\0567.jpg	YN	Left	Yes	0.688381599999957	0	551149	252
1078.5234375	0.688381599999957	decision	choicePhaseStart	3	139	19	foodImage.55	FOODEEG_Images\0567.jpg	YN	Left	Yes	0.688381599999957	0	552205	253
1079.203125	0	decision	response	3	139	19	foodImage.55	FOODEEG_Images\0567.jpg	YN	Left	Yes	0.688381599999957	0	552553	234
1080.24609375	1	health	trialStart	3	140	20	foodImage.119	FOODEEG_Images\0927.jpg	YN	Right	No	1.27059009999994	0	553087	251
1081.28515625	2	health	foodImageDisplay	3	140	20	foodImage.119	FOODEEG_Images\0927.jpg	YN	Right	No	1.27059009999994	0	553619	252
1083.34765625	1.27059009999994	health	choicePhaseStart	3	140	20	foodImage.119	FOODEEG_Images\0927.jpg	YN	Right	No	1.27059009999994	0	554675	253
1084.611328125	0	health	response	3	140	20	foodImage.119	FOODEEG_Images\0927.jpg	YN	Right	No	1.27059009999994	0	555322	235
1085.654296875	1	taste	trialStart	3	141	21	foodImage.109	FOODEEG_Images\0917.jpg	NY	Right	Yes	1.22193330000027	0	555856	251
1086.703125	2	taste	foodImageDisplay	3	141	21	foodImage.109	FOODEEG_Images\0917.jpg	NY	Right	Yes	1.22193330000027	0	556393	252
1088.767578125	1.22193330000027	taste	choicePhaseStart	3	141	21	foodImage.109	FOODEEG_Images\0917.jpg	NY	Right	Yes	1.22193330000027	0	557450	253
1089.98046875	0	taste	response	3	141	21	foodImage.109	FOODEEG_Images\0917.jpg	NY	Right	Yes	1.22193330000027	0	558071	235
1091.0234375	1	decision	trialStart	3	142	22	foodImage.54	FOODEEG_Images\0560.jpg	YN	Left	Yes	1.37138189999951	0	558605	251
1092.08203125	2	decision	foodImageDisplay	3	142	22	foodImage.54	FOODEEG_Images\0560.jpg	YN	Left	Yes	1.37138189999951	0	559147	252
1094.146484375	1.37138189999951	decision	choicePhaseStart	3	142	22	foodImage.54	FOODEEG_Images\0560.jpg	YN	Left	Yes	1.37138189999951	0	560204	253
1095.5078125	0	decision	response	3	142	22	foodImage.54	FOODEEG_Images\0560.jpg	YN	Left	Yes	1.37138189999951	0	560901	234
1096.55078125	1	decision	trialStart	3	143	23	foodImage.120	FOODEEG_Images\0928.jpg	NY	Left	No	1.01285490000009	0	561435	251
1097.587890625	2	decision	foodImageDisplay	3	143	23	foodImage.120	FOODEEG_Images\0928.jpg	NY	Left	No	1.01285490000009	0	561966	252
1099.65234375	1.01285490000009	decision	choicePhaseStart	3	143	23	foodImage.120	FOODEEG_Images\0928.jpg	NY	Left	No	1.01285490000009	0	563023	253
1100.66015625	0	decision	response	3	143	23	foodImage.120	FOODEEG_Images\0928.jpg	NY	Left	No	1.01285490000009	0	563539	234
1101.701171875	1	decision	trialStart	3	144	24	foodImage.108	FOODEEG_Images\0916.jpg	NY	Left	No	1.00943540000026	0	564072	251
1102.740234375	2	decision	foodImageDisplay	3	144	24	foodImage.108	FOODEEG_Images\0916.jpg	NY	Left	No	1.00943540000026	0	564604	252
1104.802734375	1.00943540000026	decision	choicePhaseStart	3	144	24	foodImage.108	FOODEEG_Images\0916.jpg	NY	Left	No	1.00943540000026	0	565660	253
1105.802734375	0	decision	response	3	144	24	foodImage.108	FOODEEG_Images\0916.jpg	NY	Left	No	1.00943540000026	0	566172	234
1106.84765625	1	health	trialStart	3	145	25	foodImage.51	FOODEEG_Images\0536.jpg	NY	Left	No	1.84932089999984	0	566707	251
1107.892578125	2	health	foodImageDisplay	3	145	25	foodImage.51	FOODEEG_Images\0536.jpg	NY	Left	No	1.84932089999984	0	567242	252
1109.955078125	1.84932089999984	health	choicePhaseStart	3	145	25	foodImage.51	FOODEEG_Images\0536.jpg	NY	Left	No	1.84932089999984	0	568298	253
1111.794921875	0	health	response	3	145	25	foodImage.51	FOODEEG_Images\0536.jpg	NY	Left	No	1.84932089999984	0	569240	234
1112.837890625	1	health	trialStart	3	146	26	foodImage.28	FOODEEG_Images\0273.jpg	YN	Left	Yes	0.711889999999585	0	569774	251
1113.880859375	2	health	foodImageDisplay	3	146	26	foodImage.28	FOODEEG_Images\0273.jpg	YN	Left	Yes	0.711889999999585	0	570308	252
1115.94921875	0.711889999999585	health	choicePhaseStart	3	146	26	foodImage.28	FOODEEG_Images\0273.jpg	YN	Left	Yes	0.711889999999585	0	571367	253
1116.650390625	0	health	response	3	146	26	foodImage.28	FOODEEG_Images\0273.jpg	YN	Left	Yes	0.711889999999585	0	571726	234
1117.6953125	1	taste	trialStart	3	147	27	foodImage.92	FOODEEG_Images\0900.jpg	YN	Right	No	1.33521780000046	0	572261	251
1118.732421875	2	taste	foodImageDisplay	3	147	27	foodImage.92	FOODEEG_Images\0900.jpg	YN	Right	No	1.33521780000046	0	572792	252
1120.794921875	1.33521780000046	taste	choicePhaseStart	3	147	27	foodImage.92	FOODEEG_Images\0900.jpg	YN	Right	No	1.33521780000046	0	573848	253
1122.123046875	0	taste	response	3	147	27	foodImage.92	FOODEEG_Images\0900.jpg	YN	Right	No	1.33521780000046	0	574528	235
1123.166015625	1	decision	trialStart	3	148	28	foodImage.113	FOODEEG_Images\0921.jpg	NY	Right	Yes	1.37606139999934	0	575062	251
1124.220703125	2	decision	foodImageDisplay	3	148	28	foodImage.113	FOODEEG_Images\0921.jpg	NY	Right	Yes	1.37606139999934	0	575602	252
1126.28515625	1.37606139999934	decision	choicePhaseStart	3	148	28	foodImage.113	FOODEEG_Images\0921.jpg	NY	Right	Yes	1.37606139999934	0	576659	253
1127.650390625	0	decision	response	3	148	28	foodImage.113	FOODEEG_Images\0921.jpg	NY	Right	Yes	1.37606139999934	0	577358	235
1128.693359375	1	health	trialStart	3	149	29	foodImage.12	FOODEEG_Images\0181.jpg	YN	Left	Yes	0.798764199999823	0	577892	251
1129.734375	2	health	foodImageDisplay	3	149	29	foodImage.12	FOODEEG_Images\0181.jpg	YN	Left	Yes	0.798764199999823	0	578425	252
1131.796875	0.798764199999823	health	choicePhaseStart	3	149	29	foodImage.12	FOODEEG_Images\0181.jpg	YN	Left	Yes	0.798764199999823	0	579481	253
1132.5859375	0	health	response	3	149	29	foodImage.12	FOODEEG_Images\0181.jpg	YN	Left	Yes	0.798764199999823	0	579885	234
1133.62890625	1	health	trialStart	3	150	30	foodImage.75	FOODEEG_Images\0763.jpg	YN	Left	Yes	0.874361600000157	0	580419	251
1134.673828125	2	health	foodImageDisplay	3	150	30	foodImage.75	FOODEEG_Images\0763.jpg	YN	Left	Yes	0.874361600000157	0	580954	252
1136.736328125	0.874361600000157	health	choicePhaseStart	3	150	30	foodImage.75	FOODEEG_Images\0763.jpg	YN	Left	Yes	0.874361600000157	0	582010	253
1137.6015625	0	health	response	3	150	30	foodImage.75	FOODEEG_Images\0763.jpg	YN	Left	Yes	0.874361600000157	0	582453	234
1138.64453125	1	taste	trialStart	3	151	31	foodImage.78	FOODEEG_Images\0787.jpg	YN	Right	No	1.39400710000064	0	582987	251
1139.689453125	2	taste	foodImageDisplay	3	151	31	foodImage.78	FOODEEG_Images\0787.jpg	YN	Right	No	1.39400710000064	0	583522	252
1141.751953125	1.39400710000064	taste	choicePhaseStart	3	151	31	foodImage.78	FOODEEG_Images\0787.jpg	YN	Right	No	1.39400710000064	0	584578	253
1143.138671875	0	taste	response	3	151	31	foodImage.78	FOODEEG_Images\0787.jpg	YN	Right	No	1.39400710000064	0	585288	235
1144.185546875	1	decision	trialStart	3	152	32	foodImage.23	FOODEEG_Images\0244.jpg	NY	Left	No	1.56076479999956	0	585824	251
1145.236328125	2	decision	foodImageDisplay	3	152	32	foodImage.23	FOODEEG_Images\0244.jpg	NY	Left	No	1.56076479999956	0	586362	252
1147.3046875	1.56076479999956	decision	choicePhaseStart	3	152	32	foodImage.23	FOODEEG_Images\0244.jpg	NY	Left	No	1.56076479999956	0	587421	253
1148.857421875	0	decision	response	3	152	32	foodImage.23	FOODEEG_Images\0244.jpg	NY	Left	No	1.56076479999956	0	588216	234
1149.90234375	1	decision	trialStart	3	153	33	foodImage.51	FOODEEG_Images\0536.jpg	YN	Left	Yes	1.33563599999979	0	588751	251
1150.947265625	2	decision	foodImageDisplay	3	153	33	foodImage.51	FOODEEG_Images\0536.jpg	YN	Left	Yes	1.33563599999979	0	589286	252
1153.01171875	1.33563599999979	decision	choicePhaseStart	3	153	33	foodImage.51	FOODEEG_Images\0536.jpg	YN	Left	Yes	1.33563599999979	0	590343	253
1154.337890625	0	decision	response	3	153	33	foodImage.51	FOODEEG_Images\0536.jpg	YN	Left	Yes	1.33563599999979	0	591022	234
1155.37890625	1	taste	trialStart	3	154	34	foodImage.34	FOODEEG_Images\0339.jpg	NY	Right	Yes	1.1364367999995	0	591555	251
1156.44140625	2	taste	foodImageDisplay	3	154	34	foodImage.34	FOODEEG_Images\0339.jpg	NY	Right	Yes	1.1364367999995	0	592099	252
1158.505859375	1.1364367999995	taste	choicePhaseStart	3	154	34	foodImage.34	FOODEEG_Images\0339.jpg	NY	Right	Yes	1.1364367999995	0	593156	253
1159.6328125	0	taste	response	3	154	34	foodImage.34	FOODEEG_Images\0339.jpg	NY	Right	Yes	1.1364367999995	0	593733	235
1160.67578125	1	taste	trialStart	3	155	35	foodImage.58	FOODEEG_Images\0605.jpg	YN	Left	Yes	0.708077700000104	0	594267	251
1161.734375	2	taste	foodImageDisplay	3	155	35	foodImage.58	FOODEEG_Images\0605.jpg	YN	Left	Yes	0.708077700000104	0	594809	252
1163.798828125	0.708077700000104	taste	choicePhaseStart	3	155	35	foodImage.58	FOODEEG_Images\0605.jpg	YN	Left	Yes	0.708077700000104	0	595866	253
1164.49609375	0	taste	response	3	155	35	foodImage.58	FOODEEG_Images\0605.jpg	YN	Left	Yes	0.708077700000104	0	596223	234
1165.541015625	1	decision	trialStart	3	156	36	foodImage.22	FOODEEG_Images\0236.jpg	YN	Left	Yes	1.2501556999996	0	596758	251
1166.583984375	2	decision	foodImageDisplay	3	156	36	foodImage.22	FOODEEG_Images\0236.jpg	YN	Left	Yes	1.2501556999996	0	597292	252
1168.646484375	1.2501556999996	decision	choicePhaseStart	3	156	36	foodImage.22	FOODEEG_Images\0236.jpg	YN	Left	Yes	1.2501556999996	0	598348	253
1169.888671875	0	decision	response	3	156	36	foodImage.22	FOODEEG_Images\0236.jpg	YN	Left	Yes	1.2501556999996	0	598984	234
1170.931640625	1	health	trialStart	3	157	37	foodImage.78	FOODEEG_Images\0787.jpg	NY	Right	Yes	1.36512929999935	0	599518	251
1171.98046875	2	health	foodImageDisplay	3	157	37	foodImage.78	FOODEEG_Images\0787.jpg	NY	Right	Yes	1.36512929999935	0	600055	252
1174.04296875	1.36512929999935	health	choicePhaseStart	3	157	37	foodImage.78	FOODEEG_Images\0787.jpg	NY	Right	Yes	1.36512929999935	0	601111	253
1175.400390625	0	health	response	3	157	37	foodImage.78	FOODEEG_Images\0787.jpg	NY	Right	Yes	1.36512929999935	0	601806	235
1176.44921875	1	health	trialStart	3	158	38	foodImage.8	FOODEEG_Images\0136.jpg	NY	Left	No	0.814135999999962	0	602343	251
1177.4921875	2	health	foodImageDisplay	3	158	38	foodImage.8	FOODEEG_Images\0136.jpg	NY	Left	No	0.814135999999962	0	602877	252
1179.560546875	0.814135999999962	health	choicePhaseStart	3	158	38	foodImage.8	FOODEEG_Images\0136.jpg	NY	Left	No	0.814135999999962	0	603936	253
1180.369140625	0	health	response	3	158	38	foodImage.8	FOODEEG_Images\0136.jpg	NY	Left	No	0.814135999999962	0	604350	234
1181.4140625	1	taste	trialStart	3	159	39	foodImage.36	FOODEEG_Images\0352.jpg	YN	Right	No	1.80840259999968	0	604885	251
1182.47265625	2	taste	foodImageDisplay	3	159	39	foodImage.36	FOODEEG_Images\0352.jpg	YN	Right	No	1.80840259999968	0	605427	252
1184.537109375	1.80840259999968	taste	choicePhaseStart	3	159	39	foodImage.36	FOODEEG_Images\0352.jpg	YN	Right	No	1.80840259999968	0	606484	253
1186.3359375	0	taste	response	3	159	39	foodImage.36	FOODEEG_Images\0352.jpg	YN	Right	No	1.80840259999968	0	607405	235
1187.37890625	1	decision	trialStart	3	160	40	foodImage.59	FOODEEG_Images\0607.jpg	YN	Left	Yes	1.30634649999956	0	607939	251
1188.423828125	2	decision	foodImageDisplay	3	160	40	foodImage.59	FOODEEG_Images\0607.jpg	YN	Left	Yes	1.30634649999956	0	608474	252
1190.486328125	1.30634649999956	decision	choicePhaseStart	3	160	40	foodImage.59	FOODEEG_Images\0607.jpg	YN	Left	Yes	1.30634649999956	0	609530	253
1191.783203125	0	decision	response	3	160	40	foodImage.59	FOODEEG_Images\0607.jpg	YN	Left	Yes	1.30634649999956	0	610194	234
1192.826171875	1	decision	trialStart	3	161	41	foodImage.84	FOODEEG_Images\0830.jpg	YN	Left	Yes	1.1421808999994	0	610728	251
1193.8828125	2	decision	foodImageDisplay	3	161	41	foodImage.84	FOODEEG_Images\0830.jpg	YN	Left	Yes	1.1421808999994	0	611269	252
1195.947265625	1.1421808999994	decision	choicePhaseStart	3	161	41	foodImage.84	FOODEEG_Images\0830.jpg	YN	Left	Yes	1.1421808999994	0	612326	253
1197.080078125	0	decision	response	3	161	41	foodImage.84	FOODEEG_Images\0830.jpg	YN	Left	Yes	1.1421808999994	0	612906	234
1198.12109375	1	health	trialStart	3	162	42	foodImage.82	FOODEEG_Images\0805.jpg	NY	Right	Yes	0.987577400000191	0	613439	251
1199.1796875	2	health	foodImageDisplay	3	162	42	foodImage.82	FOODEEG_Images\0805.jpg	NY	Right	Yes	0.987577400000191	0	613981	252
1201.2421875	0.987577400000191	health	choicePhaseStart	3	162	42	foodImage.82	FOODEEG_Images\0805.jpg	NY	Right	Yes	0.987577400000191	0	615037	253
1202.22265625	0	health	response	3	162	42	foodImage.82	FOODEEG_Images\0805.jpg	NY	Right	Yes	0.987577400000191	0	615539	235
1203.271484375	1	health	trialStart	3	163	43	foodImage.17	FOODEEG_Images\0199.jpg	NY	Right	Yes	1.0742295	0	616076	251
1204.314453125	2	health	foodImageDisplay	3	163	43	foodImage.17	FOODEEG_Images\0199.jpg	NY	Right	Yes	1.0742295	0	616610	252
1206.380859375	1.0742295	health	choicePhaseStart	3	163	43	foodImage.17	FOODEEG_Images\0199.jpg	NY	Right	Yes	1.0742295	0	617668	253
1207.447265625	0	health	response	3	163	43	foodImage.17	FOODEEG_Images\0199.jpg	NY	Right	Yes	1.0742295	0	618214	235
1208.490234375	1	decision	trialStart	3	164	44	foodImage.20	FOODEEG_Images\0226.jpg	NY	Right	Yes	1.17033530000026	0	618748	251
1209.53125	2	decision	foodImageDisplay	3	164	44	foodImage.20	FOODEEG_Images\0226.jpg	NY	Right	Yes	1.17033530000026	0	619281	252
1211.595703125	1.17033530000026	decision	choicePhaseStart	3	164	44	foodImage.20	FOODEEG_Images\0226.jpg	NY	Right	Yes	1.17033530000026	0	620338	253
1212.759765625	0	decision	response	3	164	44	foodImage.20	FOODEEG_Images\0226.jpg	NY	Right	Yes	1.17033530000026	0	620934	235
1213.802734375	1	taste	trialStart	3	165	45	foodImage.39	FOODEEG_Images\0367.jpg	YN	Left	Yes	0.968214800000169	0	621468	251
1214.85546875	2	taste	foodImageDisplay	3	165	45	foodImage.39	FOODEEG_Images\0367.jpg	YN	Left	Yes	0.968214800000169	0	622007	252
1216.919921875	0.968214800000169	taste	choicePhaseStart	3	165	45	foodImage.39	FOODEEG_Images\0367.jpg	YN	Left	Yes	0.968214800000169	0	623064	253
1217.87890625	0	taste	response	3	165	45	foodImage.39	FOODEEG_Images\0367.jpg	YN	Left	Yes	0.968214800000169	0	623555	234
1218.921875	1	taste	trialStart	3	166	46	foodImage.114	FOODEEG_Images\0922.jpg	NY	Right	Yes	0.927844300000288	0	624089	251
1219.9609375	2	taste	foodImageDisplay	3	166	46	foodImage.114	FOODEEG_Images\0922.jpg	NY	Right	Yes	0.927844300000288	0	624621	252
1222.025390625	0.927844300000288	taste	choicePhaseStart	3	166	46	foodImage.114	FOODEEG_Images\0922.jpg	NY	Right	Yes	0.927844300000288	0	625678	253
1222.943359375	0	taste	response	3	166	46	foodImage.114	FOODEEG_Images\0922.jpg	NY	Right	Yes	0.927844300000288	0	626148	235
1223.984375	1	taste	trialStart	3	167	47	foodImage.102	FOODEEG_Images\0910.jpg	YN	Right	No	1.5363655000001	0	626681	251
1225.0234375	2	taste	foodImageDisplay	3	167	47	foodImage.102	FOODEEG_Images\0910.jpg	YN	Right	No	1.5363655000001	0	627213	252
1227.087890625	1.5363655000001	taste	choicePhaseStart	3	167	47	foodImage.102	FOODEEG_Images\0910.jpg	YN	Right	No	1.5363655000001	0	628270	253
1228.615234375	0	taste	response	3	167	47	foodImage.102	FOODEEG_Images\0910.jpg	YN	Right	No	1.5363655000001	0	629052	235
1229.658203125	1	decision	trialStart	3	168	48	foodImage.26	FOODEEG_Images\0262.jpg	NY	Right	Yes	1.12983199999962	0	629586	251
1230.69921875	2	decision	foodImageDisplay	3	168	48	foodImage.26	FOODEEG_Images\0262.jpg	NY	Right	Yes	1.12983199999962	0	630119	252
1232.763671875	1.12983199999962	decision	choicePhaseStart	3	168	48	foodImage.26	FOODEEG_Images\0262.jpg	NY	Right	Yes	1.12983199999962	0	631176	253
1233.88671875	0	decision	response	3	168	48	foodImage.26	FOODEEG_Images\0262.jpg	NY	Right	Yes	1.12983199999962	0	631751	235
1234.927734375	1	health	trialStart	3	169	49	foodImage.38	FOODEEG_Images\0365.jpg	NY	Right	Yes	0.967456700000184	0	632284	251
1235.966796875	2	health	foodImageDisplay	3	169	49	foodImage.38	FOODEEG_Images\0365.jpg	NY	Right	Yes	0.967456700000184	0	632816	252
1238.03125	0.967456700000184	health	choicePhaseStart	3	169	49	foodImage.38	FOODEEG_Images\0365.jpg	NY	Right	Yes	0.967456700000184	0	633873	253
1238.990234375	0	health	response	3	169	49	foodImage.38	FOODEEG_Images\0365.jpg	NY	Right	Yes	0.967456700000184	0	634364	235
1240.033203125	1	health	trialStart	3	170	50	foodImage.29	FOODEEG_Images\0278.jpg	NY	Right	Yes	0.978259900000012	0	634898	251
1241.076171875	2	health	foodImageDisplay	3	170	50	foodImage.29	FOODEEG_Images\0278.jpg	NY	Right	Yes	0.978259900000012	0	635432	252
1243.140625	0.978259900000012	health	choicePhaseStart	3	170	50	foodImage.29	FOODEEG_Images\0278.jpg	NY	Right	Yes	0.978259900000012	0	636489	253
1244.109375	0	health	response	3	170	50	foodImage.29	FOODEEG_Images\0278.jpg	NY	Right	Yes	0.978259900000012	0	636985	235
1245.15234375	1	taste	trialStart	3	171	51	foodImage.104	FOODEEG_Images\0912.jpg	YN	Left	Yes	1.50465459999941	0	637519	251
1246.189453125	2	taste	foodImageDisplay	3	171	51	foodImage.104	FOODEEG_Images\0912.jpg	YN	Left	Yes	1.50465459999941	0	638050	252
1248.25390625	1.50465459999941	taste	choicePhaseStart	3	171	51	foodImage.104	FOODEEG_Images\0912.jpg	YN	Left	Yes	1.50465459999941	0	639107	253
1249.75	0	taste	response	3	171	51	foodImage.104	FOODEEG_Images\0912.jpg	YN	Left	Yes	1.50465459999941	0	639873	234
1250.791015625	1	health	trialStart	3	172	52	foodImage.2	FOODEEG_Images\0028.jpg	NY	Left	No	0.978858399999808	0	640406	251
1251.8359375	2	health	foodImageDisplay	3	172	52	foodImage.2	FOODEEG_Images\0028.jpg	NY	Left	No	0.978858399999808	0	640941	252
1253.900390625	0.978858399999808	health	choicePhaseStart	3	172	52	foodImage.2	FOODEEG_Images\0028.jpg	NY	Left	No	0.978858399999808	0	641998	253
1254.869140625	0	health	response	3	172	52	foodImage.2	FOODEEG_Images\0028.jpg	NY	Left	No	0.978858399999808	0	642494	234
1255.912109375	1	decision	trialStart	3	173	53	foodImage.3	FOODEEG_Images\0046.jpg	YN	Left	Yes	0.96347120000064	0	643028	251
1256.955078125	2	decision	foodImageDisplay	3	173	53	foodImage.3	FOODEEG_Images\0046.jpg	YN	Left	Yes	0.96347120000064	0	643562	252
1259.01953125	0.96347120000064	decision	choicePhaseStart	3	173	53	foodImage.3	FOODEEG_Images\0046.jpg	YN	Left	Yes	0.96347120000064	0	644619	253
1259.97265625	0	decision	response	3	173	53	foodImage.3	FOODEEG_Images\0046.jpg	YN	Left	Yes	0.96347120000064	0	645107	234
1261.013671875	1	taste	trialStart	3	174	54	foodImage.21	FOODEEG_Images\0234.jpg	NY	Right	Yes	1.32260750000023	0	645640	251
1262.068359375	2	taste	foodImageDisplay	3	174	54	foodImage.21	FOODEEG_Images\0234.jpg	NY	Right	Yes	1.32260750000023	0	646180	252
1264.130859375	1.32260750000023	taste	choicePhaseStart	3	174	54	foodImage.21	FOODEEG_Images\0234.jpg	NY	Right	Yes	1.32260750000023	0	647236	253
1265.4453125	0	taste	response	3	174	54	foodImage.21	FOODEEG_Images\0234.jpg	NY	Right	Yes	1.32260750000023	0	647909	235
1266.490234375	1	decision	trialStart	3	175	55	foodImage.85	FOODEEG_Images\0841.jpg	NY	Right	Yes	1.05659579999974	0	648444	251
1267.548828125	2	decision	foodImageDisplay	3	175	55	foodImage.85	FOODEEG_Images\0841.jpg	NY	Right	Yes	1.05659579999974	0	648986	252
1269.61328125	1.05659579999974	decision	choicePhaseStart	3	175	55	foodImage.85	FOODEEG_Images\0841.jpg	NY	Right	Yes	1.05659579999974	0	650043	253
1270.66015625	0	decision	response	3	175	55	foodImage.85	FOODEEG_Images\0841.jpg	NY	Right	Yes	1.05659579999974	0	650579	235
1271.703125	1	health	trialStart	3	176	56	foodImage.42	FOODEEG_Images\0438.jpg	NY	Right	Yes	1.05145429999993	0	651113	251
1272.79296875	2	health	foodImageDisplay	3	176	56	foodImage.42	FOODEEG_Images\0438.jpg	NY	Right	Yes	1.05145429999993	0	651671	252
1274.85546875	1.05145429999993	health	choicePhaseStart	3	176	56	foodImage.42	FOODEEG_Images\0438.jpg	NY	Right	Yes	1.05145429999993	0	652727	253
1275.900390625	0	health	response	3	176	56	foodImage.42	FOODEEG_Images\0438.jpg	NY	Right	Yes	1.05145429999993	0	653262	235
1276.943359375	1	health	trialStart	3	177	57	foodImage.45	FOODEEG_Images\0478.jpg	NY	Right	Yes	1.53731169999992	0	653796	251
1277.998046875	2	health	foodImageDisplay	3	177	57	foodImage.45	FOODEEG_Images\0478.jpg	NY	Right	Yes	1.53731169999992	0	654336	252
1280.060546875	1.53731169999992	health	choicePhaseStart	3	177	57	foodImage.45	FOODEEG_Images\0478.jpg	NY	Right	Yes	1.53731169999992	0	655392	253
1281.587890625	0	health	response	3	177	57	foodImage.45	FOODEEG_Images\0478.jpg	NY	Right	Yes	1.53731169999992	0	656174	235
1282.630859375	1	decision	trialStart	3	178	58	foodImage.93	FOODEEG_Images\0901.jpg	YN	Left	Yes	0.863804300000083	0	656708	251
1283.66796875	2	decision	foodImageDisplay	3	178	58	foodImage.93	FOODEEG_Images\0901.jpg	YN	Left	Yes	0.863804300000083	0	657239	252
1285.732421875	0.863804300000083	decision	choicePhaseStart	3	178	58	foodImage.93	FOODEEG_Images\0901.jpg	YN	Left	Yes	0.863804300000083	0	658296	253
1286.587890625	0	decision	response	3	178	58	foodImage.93	FOODEEG_Images\0901.jpg	YN	Left	Yes	0.863804300000083	0	658734	234
1287.6328125	1	decision	trialStart	3	179	59	foodImage.87	FOODEEG_Images\0873.jpg	NY	Right	Yes	1.34535030000006	0	659269	251
1288.69140625	2	decision	foodImageDisplay	3	179	59	foodImage.87	FOODEEG_Images\0873.jpg	NY	Right	Yes	1.34535030000006	0	659811	252
1290.755859375	1.34535030000006	decision	choicePhaseStart	3	179	59	foodImage.87	FOODEEG_Images\0873.jpg	NY	Right	Yes	1.34535030000006	0	660868	253
1292.091796875	0	decision	response	3	179	59	foodImage.87	FOODEEG_Images\0873.jpg	NY	Right	Yes	1.34535030000006	0	661552	235
1293.134765625	1	health	trialStart	3	180	60	foodImage.88	FOODEEG_Images\0878.jpg	YN	Right	No	3.45215310000003	0	662086	251
1294.193359375	2	health	foodImageDisplay	3	180	60	foodImage.88	FOODEEG_Images\0878.jpg	YN	Right	No	3.45215310000003	0	662628	252
1296.255859375	3.45215310000003	health	choicePhaseStart	3	180	60	foodImage.88	FOODEEG_Images\0878.jpg	YN	Right	No	3.45215310000003	0	663684	253
1299.69921875	0	health	response	3	180	60	foodImage.88	FOODEEG_Images\0878.jpg	YN	Right	No	3.45215310000003	0	665447	235
1301.740234375	27.31640625	n/a	blockEnd	n/a	n/a	n/a	n/a	n/a	n/a	n/a	n/a	n/a	n/a	666492	254
1329.056640625	2	n/a	blockStart	4	n/a	n/a	n/a	n/a	n/a	n/a	n/a	n/a	n/a	680478	250
1331.08984375	1	health	trialStart	4	181	1	foodImage.34	FOODEEG_Images\0339.jpg	NY	Left	No	1.41178070000024	0	681519	251
1332.150390625	2	health	foodImageDisplay	4	181	1	foodImage.34	FOODEEG_Images\0339.jpg	NY	Left	No	1.41178070000024	0	682062	252
1334.212890625	1.41178070000024	health	choicePhaseStart	4	181	1	foodImage.34	FOODEEG_Images\0339.jpg	NY	Left	No	1.41178070000024	0	683118	253
1335.6171875	0	health	response	4	181	1	foodImage.34	FOODEEG_Images\0339.jpg	NY	Left	No	1.41178070000024	0	683837	234
1336.6640625	1	health	trialStart	4	182	2	foodImage.91	FOODEEG_Images\0896.jpg	NY	Right	Yes	2.02029039999979	0	684373	251
1337.71875	2	health	foodImageDisplay	4	182	2	foodImage.91	FOODEEG_Images\0896.jpg	NY	Right	Yes	2.02029039999979	0	684913	252
1339.783203125	2.02029039999979	health	choicePhaseStart	4	182	2	foodImage.91	FOODEEG_Images\0896.jpg	NY	Right	Yes	2.02029039999979	0	685970	253
1341.79296875	0	health	response	4	182	2	foodImage.91	FOODEEG_Images\0896.jpg	NY	Right	Yes	2.02029039999979	0	686999	235
1342.8359375	1	decision	trialStart	4	183	3	foodImage.50	FOODEEG_Images\0529.jpg	YN	Left	Yes	1.0527490000004	0	687533	251
1343.89453125	2	decision	foodImageDisplay	4	183	3	foodImage.50	FOODEEG_Images\0529.jpg	YN	Left	Yes	1.0527490000004	0	688075	252
1345.95703125	1.0527490000004	decision	choicePhaseStart	4	183	3	foodImage.50	FOODEEG_Images\0529.jpg	YN	Left	Yes	1.0527490000004	0	689131	253
1347.001953125	0	decision	response	4	183	3	foodImage.50	FOODEEG_Images\0529.jpg	YN	Left	Yes	1.0527490000004	0	689666	234
1348.044921875	1	decision	trialStart	4	184	4	foodImage.98	FOODEEG_Images\0906.jpg	NY	Right	Yes	0.999853000000257	0	690200	251
1349.083984375	2	decision	foodImageDisplay	4	184	4	foodImage.98	FOODEEG_Images\0906.jpg	NY	Right	Yes	0.999853000000257	0	690732	252
1351.146484375	0.999853000000257	decision	choicePhaseStart	4	184	4	foodImage.98	FOODEEG_Images\0906.jpg	NY	Right	Yes	0.999853000000257	0	691788	253
1352.13671875	0	decision	response	4	184	4	foodImage.98	FOODEEG_Images\0906.jpg	NY	Right	Yes	0.999853000000257	0	692295	235
1353.1796875	1	decision	trialStart	4	185	5	foodImage.72	FOODEEG_Images\0714.jpg	YN	Left	Yes	0.832146499999908	0	692829	251
1354.224609375	2	decision	foodImageDisplay	4	185	5	foodImage.72	FOODEEG_Images\0714.jpg	YN	Left	Yes	0.832146499999908	0	693364	252
1356.2890625	0.832146499999908	decision	choicePhaseStart	4	185	5	foodImage.72	FOODEEG_Images\0714.jpg	YN	Left	Yes	0.832146499999908	0	694421	253
1357.11328125	0	decision	response	4	185	5	foodImage.72	FOODEEG_Images\0714.jpg	YN	Left	Yes	0.832146499999908	0	694843	234
1358.15625	1	taste	trialStart	4	186	6	foodImage.98	FOODEEG_Images\0906.jpg	YN	Right	No	1.46321360000002	0	695377	251
1359.1953125	2	taste	foodImageDisplay	4	186	6	foodImage.98	FOODEEG_Images\0906.jpg	YN	Right	No	1.46321360000002	0	695909	252
1361.259765625	1.46321360000002	taste	choicePhaseStart	4	186	6	foodImage.98	FOODEEG_Images\0906.jpg	YN	Right	No	1.46321360000002	0	696966	253
1362.712890625	0	taste	response	4	186	6	foodImage.98	FOODEEG_Images\0906.jpg	YN	Right	No	1.46321360000002	0	697710	235
1363.755859375	1	taste	trialStart	4	187	7	foodImage.79	FOODEEG_Images\0794.jpg	YN	Left	Yes	0.843990000000304	0	698244	251
1364.814453125	2	taste	foodImageDisplay	4	187	7	foodImage.79	FOODEEG_Images\0794.jpg	YN	Left	Yes	0.843990000000304	0	698786	252
1366.87890625	0.843990000000304	taste	choicePhaseStart	4	187	7	foodImage.79	FOODEEG_Images\0794.jpg	YN	Left	Yes	0.843990000000304	0	699843	253
1367.712890625	0	taste	response	4	187	7	foodImage.79	FOODEEG_Images\0794.jpg	YN	Left	Yes	0.843990000000304	0	700270	234
1368.755859375	1	taste	trialStart	4	188	8	foodImage.80	FOODEEG_Images\0796.jpg	YN	Left	Yes	0.882654000000002	0	700804	251
1369.814453125	2	taste	foodImageDisplay	4	188	8	foodImage.80	FOODEEG_Images\0796.jpg	YN	Left	Yes	0.882654000000002	0	701346	252
1371.87890625	0.882654000000002	taste	choicePhaseStart	4	188	8	foodImage.80	FOODEEG_Images\0796.jpg	YN	Left	Yes	0.882654000000002	0	702403	253
1372.751953125	0	taste	response	4	188	8	foodImage.80	FOODEEG_Images\0796.jpg	YN	Left	Yes	0.882654000000002	0	702850	234
1373.794921875	1	taste	trialStart	4	189	9	foodImage.76	FOODEEG_Images\0766.jpg	YN	Left	Yes	1.52851920000012	0	703384	251
1374.83984375	2	taste	foodImageDisplay	4	189	9	foodImage.76	FOODEEG_Images\0766.jpg	YN	Left	Yes	1.52851920000012	0	703919	252
1376.90234375	1.52851920000012	taste	choicePhaseStart	4	189	9	foodImage.76	FOODEEG_Images\0766.jpg	YN	Left	Yes	1.52851920000012	0	704975	253
1378.423828125	0	taste	response	4	189	9	foodImage.76	FOODEEG_Images\0766.jpg	YN	Left	Yes	1.52851920000012	0	705754	234
1379.466796875	1	health	trialStart	4	190	10	foodImage.103	FOODEEG_Images\0911.jpg	YN	Left	Yes	1.24743779999972	0	706288	251
1380.505859375	2	health	foodImageDisplay	4	190	10	foodImage.103	FOODEEG_Images\0911.jpg	YN	Left	Yes	1.24743779999972	0	706820	252
1382.5703125	1.24743779999972	health	choicePhaseStart	4	190	10	foodImage.103	FOODEEG_Images\0911.jpg	YN	Left	Yes	1.24743779999972	0	707877	253
1383.80859375	0	health	response	4	190	10	foodImage.103	FOODEEG_Images\0911.jpg	YN	Left	Yes	1.24743779999972	0	708511	234
1384.8515625	1	taste	trialStart	4	191	11	foodImage.67	FOODEEG_Images\0679.jpg	YN	Left	Yes	0.962821999999505	0	709045	251
1385.91015625	2	taste	foodImageDisplay	4	191	11	foodImage.67	FOODEEG_Images\0679.jpg	YN	Left	Yes	0.962821999999505	0	709587	252
1387.974609375	0.962821999999505	taste	choicePhaseStart	4	191	11	foodImage.67	FOODEEG_Images\0679.jpg	YN	Left	Yes	0.962821999999505	0	710644	253
1388.9296875	0	taste	response	4	191	11	foodImage.67	FOODEEG_Images\0679.jpg	YN	Left	Yes	0.962821999999505	0	711133	234
1389.97265625	1	health	trialStart	4	192	12	foodImage.76	FOODEEG_Images\0766.jpg	NY	Right	Yes	1.0415224999997	0	711667	251
1391.015625	2	health	foodImageDisplay	4	192	12	foodImage.76	FOODEEG_Images\0766.jpg	NY	Right	Yes	1.0415224999997	0	712201	252
1393.080078125	1.0415224999997	health	choicePhaseStart	4	192	12	foodImage.76	FOODEEG_Images\0766.jpg	NY	Right	Yes	1.0415224999997	0	713258	253
1394.111328125	0	health	response	4	192	12	foodImage.76	FOODEEG_Images\0766.jpg	NY	Right	Yes	1.0415224999997	0	713786	235
1395.154296875	1	health	trialStart	4	193	13	foodImage.68	FOODEEG_Images\0685.jpg	NY	Right	Yes	1.63423379999949	0	714320	251
1396.23046875	2	health	foodImageDisplay	4	193	13	foodImage.68	FOODEEG_Images\0685.jpg	NY	Right	Yes	1.63423379999949	0	714871	252
1398.294921875	1.63423379999949	health	choicePhaseStart	4	193	13	foodImage.68	FOODEEG_Images\0685.jpg	NY	Right	Yes	1.63423379999949	0	715928	253
1399.919921875	0	health	response	4	193	13	foodImage.68	FOODEEG_Images\0685.jpg	NY	Right	Yes	1.63423379999949	0	716760	235
1400.9609375	1	decision	trialStart	4	194	14	foodImage.25	FOODEEG_Images\0261.jpg	NY	Right	Yes	1.58661499999926	0	717293	251
1402.013671875	2	decision	foodImageDisplay	4	194	14	foodImage.25	FOODEEG_Images\0261.jpg	NY	Right	Yes	1.58661499999926	0	717832	252
1404.078125	1.58661499999926	decision	choicePhaseStart	4	194	14	foodImage.25	FOODEEG_Images\0261.jpg	NY	Right	Yes	1.58661499999926	0	718889	253
1405.654296875	0	decision	response	4	194	14	foodImage.25	FOODEEG_Images\0261.jpg	NY	Right	Yes	1.58661499999926	0	719696	235
