onset	duration	trial_type	event_type	block	trial_total	trial_in_block	food_image_code	food_image_path	button_position	resp_position	resp_choice	choice_rt	resp_too_slow	sample	trigger
223.294921875	2	n/a	blockStart	1	n/a	n/a	n/a	n/a	n/a	n/a	n/a	n/a	n/a	114328	250
225.333984375	1	taste	trialStart	1	1	1	foodImage.97	FOODEEG_Images\0905.jpg	YN	Right	No	0.933561800000462	0	115372	251
226.37890625	2	taste	foodImageDisplay	1	1	1	foodImage.97	FOODEEG_Images\0905.jpg	YN	Right	No	0.933561800000462	0	115907	252
228.451171875	0.933561800000462	taste	choicePhaseStart	1	1	1	foodImage.97	FOODEEG_Images\0905.jpg	YN	Right	No	0.933561800000462	0	116968	253
229.37890625	0	taste	response	1	1	1	foodImage.97	FOODEEG_Images\0905.jpg	YN	Right	No	0.933561800000462	0	117443	235
230.466796875	1	health	trialStart	1	2	2	foodImage.73	FOODEEG_Images\0717.jpg	NY	Left	No	1.84617029999936	0	118000	251
231.5234375	2	health	foodImageDisplay	1	2	2	foodImage.73	FOODEEG_Images\0717.jpg	NY	Left	No	1.84617029999936	0	118541	252
233.587890625	1.84617029999936	health	choicePhaseStart	1	2	2	foodImage.73	FOODEEG_Images\0717.jpg	NY	Left	No	1.84617029999936	0	119598	253
235.42578125	0	health	response	1	2	2	foodImage.73	FOODEEG_Images\0717.jpg	NY	Left	No	1.84617029999936	0	120539	234
236.478515625	1	decision	trialStart	1	3	3	foodImage.37	FOODEEG_Images\0359.jpg	YN	Left	Yes	1.79562539999824	0	121078	251
237.53515625	2	decision	foodImageDisplay	1	3	3	foodImage.37	FOODEEG_Images\0359.jpg	YN	Left	Yes	1.79562539999824	0	121619	252
239.599609375	1.79562539999824	decision	choicePhaseStart	1	3	3	foodImage.37	FOODEEG_Images\0359.jpg	YN	Left	Yes	1.79562539999824	0	122676	253
241.384765625	0	decision	response	1	3	3	foodImage.37	FOODEEG_Images\0359.jpg	YN	Left	Yes	1.79562539999824	0	123590	234
242.4296875	1	decision	trialStart	1	4	4	foodImage.14	FOODEEG_Images\0188.jpg	YN	Left	Yes	2.34389670000019	0	124125	251
243.515625	2	decision	foodImageDisplay	1	4	4	foodImage.14	FOODEEG_Images\0188.jpg	YN	Left	Yes	2.34389670000019	0	124681	252
245.578125	2.34389670000019	decision	choicePhaseStart	1	4	4	foodImage.14	FOODEEG_Images\0188.jpg	YN	Left	Yes	2.34389670000019	0	125737	253
247.9140625	0	decision	response	1	4	4	foodImage.14	FOODEEG_Images\0188.jpg	YN	Left	Yes	2.34389670000019	0	126933	234
248.958984375	1	taste	trialStart	1	5	5	foodImage.13	FOODEEG_Images\0183.jpg	NY	Right	Yes	1.47424200000023	0	127468	251
250.025390625	2	taste	foodImageDisplay	1	5	5	foodImage.13	FOODEEG_Images\0183.jpg	NY	Right	Yes	1.47424200000023	0	128014	252
252.091796875	1.47424200000023	taste	choicePhaseStart	1	5	5	foodImage.13	FOODEEG_Images\0183.jpg	NY	Right	Yes	1.47424200000023	0	129072	253
253.560546875	0	taste	response	1	5	5	foodImage.13	FOODEEG_Images\0183.jpg	NY	Right	Yes	1.47424200000023	0	129824	235
254.609375	1	taste	trialStart	1	6	6	foodImage.48	FOODEEG_Images\0494.jpg	YN	Left	Yes	1.88502599999993	0	130361	251
255.654296875	2	taste	foodImageDisplay	1	6	6	foodImage.48	FOODEEG_Images\0494.jpg	YN	Left	Yes	1.88502599999993	0	130896	252
257.71875	1.88502599999993	taste	choicePhaseStart	1	6	6	foodImage.48	FOODEEG_Images\0494.jpg	YN	Left	Yes	1.88502599999993	0	131953	253
259.59375	0	taste	response	1	6	6	foodImage.48	FOODEEG_Images\0494.jpg	YN	Left	Yes	1.88502599999993	0	132913	234
260.6484375	1	decision	trialStart	1	7	7	foodImage.50	FOODEEG_Images\0529.jpg	YN	Left	Yes	1.38220830000137	0	133453	251
261.703125	2	decision	foodImageDisplay	1	7	7	foodImage.50	FOODEEG_Images\0529.jpg	YN	Left	Yes	1.38220830000137	0	133993	252
263.76953125	1.38220830000137	decision	choicePhaseStart	1	7	7	foodImage.50	FOODEEG_Images\0529.jpg	YN	Left	Yes	1.38220830000137	0	135051	253
265.14453125	0	decision	response	1	7	7	foodImage.50	FOODEEG_Images\0529.jpg	YN	Left	Yes	1.38220830000137	0	135755	234
266.1875	1	health	trialStart	1	8	8	foodImage.102	FOODEEG_Images\0910.jpg	YN	Right	No	2.23811679999926	0	136289	251
267.2265625	2	health	foodImageDisplay	1	8	8	foodImage.102	FOODEEG_Images\0910.jpg	YN	Right	No	2.23811679999926	0	136821	252
269.291015625	2.23811679999926	health	choicePhaseStart	1	8	8	foodImage.102	FOODEEG_Images\0910.jpg	YN	Right	No	2.23811679999926	0	137878	253
271.51953125	0	health	response	1	8	8	foodImage.102	FOODEEG_Images\0910.jpg	YN	Right	No	2.23811679999926	0	139019	235
272.5625	1	decision	trialStart	1	9	9	foodImage.101	FOODEEG_Images\0909.jpg	YN	Right	No	1.36441180000111	0	139553	251
273.603515625	2	decision	foodImageDisplay	1	9	9	foodImage.101	FOODEEG_Images\0909.jpg	YN	Right	No	1.36441180000111	0	140086	252
275.66796875	1.36441180000111	decision	choicePhaseStart	1	9	9	foodImage.101	FOODEEG_Images\0909.jpg	YN	Right	No	1.36441180000111	0	141143	253
277.0234375	0	decision	response	1	9	9	foodImage.101	FOODEEG_Images\0909.jpg	YN	Right	No	1.36441180000111	0	141837	235
278.06640625	1	decision	trialStart	1	10	10	foodImage.20	FOODEEG_Images\0226.jpg	NY	Right	Yes	2.08176630000162	0	142371	251
279.109375	2	decision	foodImageDisplay	1	10	10	foodImage.20	FOODEEG_Images\0226.jpg	NY	Right	Yes	2.08176630000162	0	142905	252
281.173828125	2.08176630000162	decision	choicePhaseStart	1	10	10	foodImage.20	FOODEEG_Images\0226.jpg	NY	Right	Yes	2.08176630000162	0	143962	253
283.248046875	0	decision	response	1	10	10	foodImage.20	FOODEEG_Images\0226.jpg	NY	Right	Yes	2.08176630000162	0	145024	235
284.291015625	1	decision	trialStart	1	11	11	foodImage.68	FOODEEG_Images\0685.jpg	NY	Right	Yes	1.72546160000275	0	145558	251
285.3671875	2	decision	foodImageDisplay	1	11	11	foodImage.68	FOODEEG_Images\0685.jpg	NY	Right	Yes	1.72546160000275	0	146109	252
287.43359375	1.72546160000275	decision	choicePhaseStart	1	11	11	foodImage.68	FOODEEG_Images\0685.jpg	NY	Right	Yes	1.72546160000275	0	147167	253
289.15234375	0	decision	response	1	11	11	foodImage.68	FOODEEG_Images\0685.jpg	NY	Right	Yes	1.72546160000275	0	148047	235
290.1953125	1	health	trialStart	1	12	12	foodImage.35	FOODEEG_Images\0350.jpg	YN	Right	No	2.30234360000031	0	148581	251
291.232421875	2	health	foodImageDisplay	1	12	12	foodImage.35	FOODEEG_Images\0350.jpg	YN	Right	No	2.30234360000031	0	149112	252
293.296875	2.30234360000031	health	choicePhaseStart	1	12	12	foodImage.35	FOODEEG_Images\0350.jpg	YN	Right	No	2.30234360000031	0	150169	253
295.591796875	0	health	response	1	12	12	foodImage.35	FOODEEG_Images\0350.jpg	YN	Right	No	2.30234360000031	0	151344	235
296.634765625	1	decision	trialStart	1	13	13	foodImage.109	FOODEEG_Images\0917.jpg	NY	Left	No	1.65203430000111	0	151878	251
297.673828125	2	decision	foodImageDisplay	1	13	13	foodImage.109	FOODEEG_Images\0917.jpg	NY	Left	No	1.65203430000111	0	152410	252
299.736328125	1.65203430000111	decision	choicePhaseStart	1	13	13	foodImage.109	FOODEEG_Images\0917.jpg	NY	Left	No	1.65203430000111	0	153466	253
301.3828125	0	decision	response	1	13	13	foodImage.109	FOODEEG_Images\0917.jpg	NY	Left	No	1.65203430000111	0	154309	234
302.42578125	1	decision	trialStart	1	14	14	foodImage.117	FOODEEG_Images\0925.jpg	YN	Right	No	1.25507549999747	0	154843	251
303.48046875	2	decision	foodImageDisplay	1	14	14	foodImage.117	FOODEEG_Images\0925.jpg	YN	Right	No	1.25507549999747	0	155383	252
305.544921875	1.25507549999747	decision	choicePhaseStart	1	14	14	foodImage.117	FOODEEG_Images\0925.jpg	YN	Right	No	1.25507549999747	0	156440	253
306.791015625	0	decision	response	1	14	14	foodImage.117	FOODEEG_Images\0925.jpg	YN	Right	No	1.25507549999747	0	157078	235
307.833984375	1	decision	trialStart	1	15	15	foodImage.77	FOODEEG_Images\0771.jpg	NY	Right	Yes	0.996835600002669	0	157612	251
308.900390625	2	decision	foodImageDisplay	1	15	15	foodImage.77	FOODEEG_Images\0771.jpg	NY	Right	Yes	0.996835600002669	0	158158	252
310.962890625	0.996835600002669	decision	choicePhaseStart	1	15	15	foodImage.77	FOODEEG_Images\0771.jpg	NY	Right	Yes	0.996835600002669	0	159214	253
311.951171875	0	decision	response	1	15	15	foodImage.77	FOODEEG_Images\0771.jpg	NY	Right	Yes	0.996835600002669	0	159720	235
312.994140625	1	decision	trialStart	1	16	16	foodImage.61	FOODEEG_Images\0640.jpg	NY	Right	Yes	1.04680680000092	0	160254	251
314.056640625	2	decision	foodImageDisplay	1	16	16	foodImage.61	FOODEEG_Images\0640.jpg	NY	Right	Yes	1.04680680000092	0	160798	252
316.12109375	1.04680680000092	decision	choicePhaseStart	1	16	16	foodImage.61	FOODEEG_Images\0640.jpg	NY	Right	Yes	1.04680680000092	0	161855	253
317.158203125	0	decision	response	1	16	16	foodImage.61	FOODEEG_Images\0640.jpg	NY	Right	Yes	1.04680680000092	0	162386	235
318.19921875	1	taste	trialStart	1	17	17	foodImage.80	FOODEEG_Images\0796.jpg	YN	Left	Yes	1.21066799999971	0	162919	251
319.255859375	2	taste	foodImageDisplay	1	17	17	foodImage.80	FOODEEG_Images\0796.jpg	YN	Left	Yes	1.21066799999971	0	163460	252
321.32421875	1.21066799999971	taste	choicePhaseStart	1	17	17	foodImage.80	FOODEEG_Images\0796.jpg	YN	Left	Yes	1.21066799999971	0	164519	253
322.525390625	0	taste	response	1	17	17	foodImage.80	FOODEEG_Images\0796.jpg	YN	Left	Yes	1.21066799999971	0	165134	234
323.568359375	1	health	trialStart	1	18	18	foodImage.13	FOODEEG_Images\0183.jpg	YN	Left	Yes	1.20330350000222	0	165668	251
324.6328125	2	health	foodImageDisplay	1	18	18	foodImage.13	FOODEEG_Images\0183.jpg	YN	Left	Yes	1.20330350000222	0	166213	252
326.697265625	1.20330350000222	health	choicePhaseStart	1	18	18	foodImage.13	FOODEEG_Images\0183.jpg	YN	Left	Yes	1.20330350000222	0	167270	253
327.89453125	0	health	response	1	18	18	foodImage.13	FOODEEG_Images\0183.jpg	YN	Left	Yes	1.20330350000222	0	167883	234
328.9375	1	decision	trialStart	1	19	19	foodImage.56	FOODEEG_Images\0586.jpg	NY	Right	Yes	2.3053977999989	0	168417	251
329.982421875	2	decision	foodImageDisplay	1	19	19	foodImage.56	FOODEEG_Images\0586.jpg	NY	Right	Yes	2.3053977999989	0	168952	252
332.044921875	2.3053977999989	decision	choicePhaseStart	1	19	19	foodImage.56	FOODEEG_Images\0586.jpg	NY	Right	Yes	2.3053977999989	0	170008	253
334.341796875	0	decision	response	1	19	19	foodImage.56	FOODEEG_Images\0586.jpg	NY	Right	Yes	2.3053977999989	0	171184	235
335.380859375	1	health	trialStart	1	20	20	foodImage.23	FOODEEG_Images\0244.jpg	YN	Left	Yes	1.15715640000053	0	171716	251
336.421875	2	health	foodImageDisplay	1	20	20	foodImage.23	FOODEEG_Images\0244.jpg	YN	Left	Yes	1.15715640000053	0	172249	252
338.48828125	1.15715640000053	health	choicePhaseStart	1	20	20	foodImage.23	FOODEEG_Images\0244.jpg	YN	Left	Yes	1.15715640000053	0	173307	253
339.63671875	0	health	response	1	20	20	foodImage.23	FOODEEG_Images\0244.jpg	YN	Left	Yes	1.15715640000053	0	173895	234
340.685546875	1	taste	trialStart	1	21	21	foodImage.5	FOODEEG_Images\0107.jpg	NY	Right	Yes	1.03720869999961	0	174432	251
341.767578125	2	taste	foodImageDisplay	1	21	21	foodImage.5	FOODEEG_Images\0107.jpg	NY	Right	Yes	1.03720869999961	0	174986	252
343.83203125	1.03720869999961	taste	choicePhaseStart	1	21	21	foodImage.5	FOODEEG_Images\0107.jpg	NY	Right	Yes	1.03720869999961	0	176043	253
344.861328125	0	taste	response	1	21	21	foodImage.5	FOODEEG_Images\0107.jpg	NY	Right	Yes	1.03720869999961	0	176570	235
345.904296875	1	taste	trialStart	1	22	22	foodImage.105	FOODEEG_Images\0913.jpg	NY	Right	Yes	1.67912050000086	0	177104	251
346.943359375	2	taste	foodImageDisplay	1	22	22	foodImage.105	FOODEEG_Images\0913.jpg	NY	Right	Yes	1.67912050000086	0	177636	252
349.005859375	1.67912050000086	taste	choicePhaseStart	1	22	22	foodImage.105	FOODEEG_Images\0913.jpg	NY	Right	Yes	1.67912050000086	0	178692	253
350.677734375	0	taste	response	1	22	22	foodImage.105	FOODEEG_Images\0913.jpg	NY	Right	Yes	1.67912050000086	0	179548	235
351.71875	1	health	trialStart	1	23	23	foodImage.93	FOODEEG_Images\0901.jpg	NY	Left	No	1.4896198000024	0	180081	251
352.755859375	2	health	foodImageDisplay	1	23	23	foodImage.93	FOODEEG_Images\0901.jpg	NY	Left	No	1.4896198000024	0	180612	252
354.8203125	1.4896198000024	health	choicePhaseStart	1	23	23	foodImage.93	FOODEEG_Images\0901.jpg	NY	Left	No	1.4896198000024	0	181669	253
356.30078125	0	health	response	1	23	23	foodImage.93	FOODEEG_Images\0901.jpg	NY	Left	No	1.4896198000024	0	182427	234
357.341796875	1	decision	trialStart	1	24	24	foodImage.57	FOODEEG_Images\0587.jpg	YN	Left	Yes	1.49931810000271	0	182960	251
358.38671875	2	decision	foodImageDisplay	1	24	24	foodImage.57	FOODEEG_Images\0587.jpg	YN	Left	Yes	1.49931810000271	0	183495	252
360.451171875	1.49931810000271	decision	choicePhaseStart	1	24	24	foodImage.57	FOODEEG_Images\0587.jpg	YN	Left	Yes	1.49931810000271	0	184552	253
361.94140625	0	decision	response	1	24	24	foodImage.57	FOODEEG_Images\0587.jpg	YN	Left	Yes	1.49931810000271	0	185315	234
362.984375	1	health	trialStart	1	25	25	foodImage.36	FOODEEG_Images\0352.jpg	YN	Right	No	2.14850529999967	0	185849	251
364.04296875	2	health	foodImageDisplay	1	25	25	foodImage.36	FOODEEG_Images\0352.jpg	YN	Right	No	2.14850529999967	0	186391	252
366.10546875	2.14850529999967	health	choicePhaseStart	1	25	25	foodImage.36	FOODEEG_Images\0352.jpg	YN	Right	No	2.14850529999967	0	187447	253
368.244140625	0	health	response	1	25	25	foodImage.36	FOODEEG_Images\0352.jpg	YN	Right	No	2.14850529999967	0	188542	235
369.291015625	1	health	trialStart	1	26	26	foodImage.85	FOODEEG_Images\0841.jpg	NY	Left	No	1.30219510000097	0	189078	251
370.345703125	2	health	foodImageDisplay	1	26	26	foodImage.85	FOODEEG_Images\0841.jpg	NY	Left	No	1.30219510000097	0	189618	252
372.408203125	1.30219510000097	health	choicePhaseStart	1	26	26	foodImage.85	FOODEEG_Images\0841.jpg	NY	Left	No	1.30219510000097	0	190674	253
373.69921875	0	health	response	1	26	26	foodImage.85	FOODEEG_Images\0841.jpg	NY	Left	No	1.30219510000097	0	191335	234
374.740234375	1	health	trialStart	1	27	27	foodImage.95	FOODEEG_Images\0903.jpg	NY	Left	No	1.38430299999891	0	191868	251
375.77734375	2	health	foodImageDisplay	1	27	27	foodImage.95	FOODEEG_Images\0903.jpg	NY	Left	No	1.38430299999891	0	192399	252
377.841796875	1.38430299999891	health	choicePhaseStart	1	27	27	foodImage.95	FOODEEG_Images\0903.jpg	NY	Left	No	1.38430299999891	0	193456	253
379.220703125	0	health	response	1	27	27	foodImage.95	FOODEEG_Images\0903.jpg	NY	Left	No	1.38430299999891	0	194162	234
380.263671875	1	taste	trialStart	1	28	28	foodImage.47	FOODEEG_Images\0488.jpg	YN	Left	Yes	0.94680789999984	0	194696	251
381.306640625	2	taste	foodImageDisplay	1	28	28	foodImage.47	FOODEEG_Images\0488.jpg	YN	Left	Yes	0.94680789999984	0	195230	252
383.37109375	0.94680789999984	taste	choicePhaseStart	1	28	28	foodImage.47	FOODEEG_Images\0488.jpg	YN	Left	Yes	0.94680789999984	0	196287	253
384.306640625	0	taste	response	1	28	28	foodImage.47	FOODEEG_Images\0488.jpg	YN	Left	Yes	0.94680789999984	0	196766	234
385.349609375	1	taste	trialStart	1	29	29	foodImage.78	FOODEEG_Images\0787.jpg	YN	Left	Yes	1.13823679999769	0	197300	251
386.39453125	2	taste	foodImageDisplay	1	29	29	foodImage.78	FOODEEG_Images\0787.jpg	YN	Left	Yes	1.13823679999769	0	197835	252
388.458984375	1.13823679999769	taste	choicePhaseStart	1	29	29	foodImage.78	FOODEEG_Images\0787.jpg	YN	Left	Yes	1.13823679999769	0	198892	253
389.587890625	0	taste	response	1	29	29	foodImage.78	FOODEEG_Images\0787.jpg	YN	Left	Yes	1.13823679999769	0	199470	234
390.630859375	1	taste	trialStart	1	30	30	foodImage.66	FOODEEG_Images\0676.jpg	YN	Left	Yes	0.889780699999392	0	200004	251
391.69140625	2	taste	foodImageDisplay	1	30	30	foodImage.66	FOODEEG_Images\0676.jpg	YN	Left	Yes	0.889780699999392	0	200547	252
393.75390625	0.889780699999392	taste	choicePhaseStart	1	30	30	foodImage.66	FOODEEG_Images\0676.jpg	YN	Left	Yes	0.889780699999392	0	201603	253
394.634765625	0	taste	response	1	30	30	foodImage.66	FOODEEG_Images\0676.jpg	YN	Left	Yes	0.889780699999392	0	202054	234
395.677734375	1	taste	trialStart	1	31	31	foodImage.59	FOODEEG_Images\0607.jpg	YN	Left	Yes	0.85571759999948	0	202588	251
396.724609375	2	taste	foodImageDisplay	1	31	31	foodImage.59	FOODEEG_Images\0607.jpg	YN	Left	Yes	0.85571759999948	0	203124	252
398.7890625	0.85571759999948	taste	choicePhaseStart	1	31	31	foodImage.59	FOODEEG_Images\0607.jpg	YN	Left	Yes	0.85571759999948	0	204181	253
399.634765625	0	taste	response	1	31	31	foodImage.59	FOODEEG_Images\0607.jpg	YN	Left	Yes	0.85571759999948	0	204614	234
400.677734375	1	taste	trialStart	1	32	32	foodImage.54	FOODEEG_Images\0560.jpg	NY	Right	Yes	1.06308770000032	0	205148	251
401.734375	2	taste	foodImageDisplay	1	32	32	foodImage.54	FOODEEG_Images\0560.jpg	NY	Right	Yes	1.06308770000032	0	205689	252
403.796875	1.06308770000032	taste	choicePhaseStart	1	32	32	foodImage.54	FOODEEG_Images\0560.jpg	NY	Right	Yes	1.06308770000032	0	206745	253
404.8515625	0	taste	response	1	32	32	foodImage.54	FOODEEG_Images\0560.jpg	NY	Right	Yes	1.06308770000032	0	207285	235
405.896484375	1	decision	trialStart	1	33	33	foodImage.46	FOODEEG_Images\0479.jpg	YN	Left	Yes	2.19421449999936	0	207820	251
406.955078125	2	decision	foodImageDisplay	1	33	33	foodImage.46	FOODEEG_Images\0479.jpg	YN	Left	Yes	2.19421449999936	0	208362	252
409.017578125	2.19421449999936	decision	choicePhaseStart	1	33	33	foodImage.46	FOODEEG_Images\0479.jpg	YN	Left	Yes	2.19421449999936	0	209418	253
411.203125	0	decision	response	1	33	33	foodImage.46	FOODEEG_Images\0479.jpg	YN	Left	Yes	2.19421449999936	0	210537	234
412.244140625	1	health	trialStart	1	34	34	foodImage.101	FOODEEG_Images\0909.jpg	NY	Left	No	1.40024339999945	0	211070	251
413.283203125	2	health	foodImageDisplay	1	34	34	foodImage.101	FOODEEG_Images\0909.jpg	NY	Left	No	1.40024339999945	0	211602	252
415.34765625	1.40024339999945	health	choicePhaseStart	1	34	34	foodImage.101	FOODEEG_Images\0909.jpg	NY	Left	No	1.40024339999945	0	212659	253
416.73828125	0	health	response	1	34	34	foodImage.101	FOODEEG_Images\0909.jpg	NY	Left	No	1.40024339999945	0	213371	234
417.78125	1	taste	trialStart	1	35	35	foodImage.94	FOODEEG_Images\0902.jpg	YN	Left	Yes	1.18179779999991	0	213905	251
418.818359375	2	taste	foodImageDisplay	1	35	35	foodImage.94	FOODEEG_Images\0902.jpg	YN	Left	Yes	1.18179779999991	0	214436	252
420.8828125	1.18179779999991	taste	choicePhaseStart	1	35	35	foodImage.94	FOODEEG_Images\0902.jpg	YN	Left	Yes	1.18179779999991	0	215493	253
422.05859375	0	taste	response	1	35	35	foodImage.94	FOODEEG_Images\0902.jpg	YN	Left	Yes	1.18179779999991	0	216095	234
423.099609375	1	taste	trialStart	1	36	36	foodImage.91	FOODEEG_Images\0896.jpg	NY	Right	Yes	1.05325630000152	0	216628	251
424.158203125	2	taste	foodImageDisplay	1	36	36	foodImage.91	FOODEEG_Images\0896.jpg	NY	Right	Yes	1.05325630000152	0	217170	252
426.220703125	1.05325630000152	taste	choicePhaseStart	1	36	36	foodImage.91	FOODEEG_Images\0896.jpg	NY	Right	Yes	1.05325630000152	0	218226	253
427.265625	0	taste	response	1	36	36	foodImage.91	FOODEEG_Images\0896.jpg	NY	Right	Yes	1.05325630000152	0	218761	235
428.30859375	1	taste	trialStart	1	37	37	foodImage.69	FOODEEG_Images\0693.jpg	YN	Left	Yes	1.13786909999908	0	219295	251
429.353515625	2	taste	foodImageDisplay	1	37	37	foodImage.69	FOODEEG_Images\0693.jpg	YN	Left	Yes	1.13786909999908	0	219830	252
431.416015625	1.13786909999908	taste	choicePhaseStart	1	37	37	foodImage.69	FOODEEG_Images\0693.jpg	YN	Left	Yes	1.13786909999908	0	220886	253
432.544921875	0	taste	response	1	37	37	foodImage.69	FOODEEG_Images\0693.jpg	YN	Left	Yes	1.13786909999908	0	221464	234
433.59375	1	taste	trialStart	1	38	38	foodImage.41	FOODEEG_Images\0409.jpg	NY	Right	Yes	0.94019230000049	0	222001	251
434.638671875	2	taste	foodImageDisplay	1	38	38	foodImage.41	FOODEEG_Images\0409.jpg	NY	Right	Yes	0.94019230000049	0	222536	252
436.703125	0.94019230000049	taste	choicePhaseStart	1	38	38	foodImage.41	FOODEEG_Images\0409.jpg	NY	Right	Yes	0.94019230000049	0	223593	253
437.6328125	0	taste	response	1	38	38	foodImage.41	FOODEEG_Images\0409.jpg	NY	Right	Yes	0.94019230000049	0	224069	235
438.685546875	1	taste	trialStart	1	39	39	foodImage.14	FOODEEG_Images\0188.jpg	YN	Left	Yes	1.12738940000054	0	224608	251
439.74609375	2	taste	foodImageDisplay	1	39	39	foodImage.14	FOODEEG_Images\0188.jpg	YN	Left	Yes	1.12738940000054	0	225151	252
441.810546875	1.12738940000054	taste	choicePhaseStart	1	39	39	foodImage.14	FOODEEG_Images\0188.jpg	YN	Left	Yes	1.12738940000054	0	226208	253
442.9296875	0	taste	response	1	39	39	foodImage.14	FOODEEG_Images\0188.jpg	YN	Left	Yes	1.12738940000054	0	226781	234
443.97265625	1	health	trialStart	1	40	40	foodImage.17	FOODEEG_Images\0199.jpg	YN	Left	Yes	1.4371461999981	0	227315	251
445.013671875	2	health	foodImageDisplay	1	40	40	foodImage.17	FOODEEG_Images\0199.jpg	YN	Left	Yes	1.4371461999981	0	227848	252
447.078125	1.4371461999981	health	choicePhaseStart	1	40	40	foodImage.17	FOODEEG_Images\0199.jpg	YN	Left	Yes	1.4371461999981	0	228905	253
448.505859375	0	health	response	1	40	40	foodImage.17	FOODEEG_Images\0199.jpg	YN	Left	Yes	1.4371461999981	0	229636	234
449.546875	1	taste	trialStart	1	41	41	foodImage.7	FOODEEG_Images\0116.jpg	YN	Left	Yes	0.757933099997899	0	230169	251
450.587890625	2	taste	foodImageDisplay	1	41	41	foodImage.7	FOODEEG_Images\0116.jpg	YN	Left	Yes	0.757933099997899	0	230702	252
452.65234375	0.757933099997899	taste	choicePhaseStart	1	41	41	foodImage.7	FOODEEG_Images\0116.jpg	YN	Left	Yes	0.757933099997899	0	231759	253
453.400390625	0	taste	response	1	41	41	foodImage.7	FOODEEG_Images\0116.jpg	YN	Left	Yes	0.757933099997899	0	232142	234
454.443359375	1	decision	trialStart	1	42	42	foodImage.38	FOODEEG_Images\0365.jpg	NY	Right	Yes	1.24060729999837	0	232676	251
455.482421875	2	decision	foodImageDisplay	1	42	42	foodImage.38	FOODEEG_Images\0365.jpg	NY	Right	Yes	1.24060729999837	0	233208	252
457.544921875	1.24060729999837	decision	choicePhaseStart	1	42	42	foodImage.38	FOODEEG_Images\0365.jpg	NY	Right	Yes	1.24060729999837	0	234264	253
458.77734375	0	decision	response	1	42	42	foodImage.38	FOODEEG_Images\0365.jpg	NY	Right	Yes	1.24060729999837	0	234895	235
459.82421875	1	health	trialStart	1	43	43	foodImage.91	FOODEEG_Images\0896.jpg	YN	Left	Yes	1.32798629999888	0	235431	251
460.8828125	2	health	foodImageDisplay	1	43	43	foodImage.91	FOODEEG_Images\0896.jpg	YN	Left	Yes	1.32798629999888	0	235973	252
462.9453125	1.32798629999888	health	choicePhaseStart	1	43	43	foodImage.91	FOODEEG_Images\0896.jpg	YN	Left	Yes	1.32798629999888	0	237029	253
464.263671875	0	health	response	1	43	43	foodImage.91	FOODEEG_Images\0896.jpg	YN	Left	Yes	1.32798629999888	0	237704	234
465.3125	1	taste	trialStart	1	44	44	foodImage.11	FOODEEG_Images\0180.jpg	NY	Right	Yes	1.72737360000247	0	238241	251
466.353515625	2	taste	foodImageDisplay	1	44	44	foodImage.11	FOODEEG_Images\0180.jpg	NY	Right	Yes	1.72737360000247	0	238774	252
468.41796875	1.72737360000247	taste	choicePhaseStart	1	44	44	foodImage.11	FOODEEG_Images\0180.jpg	NY	Right	Yes	1.72737360000247	0	239831	253
470.13671875	0	taste	response	1	44	44	foodImage.11	FOODEEG_Images\0180.jpg	NY	Right	Yes	1.72737360000247	0	240711	235
471.1796875	1	taste	trialStart	1	45	45	foodImage.115	FOODEEG_Images\0923.jpg	NY	Right	Yes	0.965029099999811	0	241245	251
472.21875	2	taste	foodImageDisplay	1	45	45	foodImage.115	FOODEEG_Images\0923.jpg	NY	Right	Yes	0.965029099999811	0	241777	252
474.283203125	0.965029099999811	taste	choicePhaseStart	1	45	45	foodImage.115	FOODEEG_Images\0923.jpg	NY	Right	Yes	0.965029099999811	0	242834	253
475.240234375	0	taste	response	1	45	45	foodImage.115	FOODEEG_Images\0923.jpg	NY	Right	Yes	0.965029099999811	0	243324	235
476.283203125	1	health	trialStart	1	46	46	foodImage.45	FOODEEG_Images\0478.jpg	NY	Right	Yes	1.03957979999905	0	243858	251
477.337890625	2	health	foodImageDisplay	1	46	46	foodImage.45	FOODEEG_Images\0478.jpg	NY	Right	Yes	1.03957979999905	0	244398	252
479.40234375	1.03957979999905	health	choicePhaseStart	1	46	46	foodImage.45	FOODEEG_Images\0478.jpg	NY	Right	Yes	1.03957979999905	0	245455	253
480.431640625	0	health	response	1	46	46	foodImage.45	FOODEEG_Images\0478.jpg	NY	Right	Yes	1.03957979999905	0	245982	235
481.474609375	1	taste	trialStart	1	47	47	foodImage.99	FOODEEG_Images\0907.jpg	YN	Right	No	1.66405640000085	0	246516	251
482.513671875	2	taste	foodImageDisplay	1	47	47	foodImage.99	FOODEEG_Images\0907.jpg	YN	Right	No	1.66405640000085	0	247048	252
484.576171875	1.66405640000085	taste	choicePhaseStart	1	47	47	foodImage.99	FOODEEG_Images\0907.jpg	YN	Right	No	1.66405640000085	0	248104	253
486.232421875	0	taste	response	1	47	47	foodImage.99	FOODEEG_Images\0907.jpg	YN	Right	No	1.66405640000085	0	248952	235
487.275390625	1	decision	trialStart	1	48	48	foodImage.112	FOODEEG_Images\0920.jpg	NY	Left	No	1.28705709999849	0	249486	251
488.314453125	2	decision	foodImageDisplay	1	48	48	foodImage.112	FOODEEG_Images\0920.jpg	NY	Left	No	1.28705709999849	0	250018	252
490.376953125	1.28705709999849	decision	choicePhaseStart	1	48	48	foodImage.112	FOODEEG_Images\0920.jpg	NY	Left	No	1.28705709999849	0	251074	253
491.65625	0	decision	response	1	48	48	foodImage.112	FOODEEG_Images\0920.jpg	NY	Left	No	1.28705709999849	0	251729	234
492.697265625	1	decision	trialStart	1	49	49	foodImage.92	FOODEEG_Images\0900.jpg	YN	Right	No	0.991868500001146	0	252262	251
493.736328125	2	decision	foodImageDisplay	1	49	49	foodImage.92	FOODEEG_Images\0900.jpg	YN	Right	No	0.991868500001146	0	252794	252
495.80078125	0.991868500001146	decision	choicePhaseStart	1	49	49	foodImage.92	FOODEEG_Images\0900.jpg	YN	Right	No	0.991868500001146	0	253851	253
496.783203125	0	decision	response	1	49	49	foodImage.92	FOODEEG_Images\0900.jpg	YN	Right	No	0.991868500001146	0	254354	235
497.826171875	1	decision	trialStart	1	50	50	foodImage.104	FOODEEG_Images\0912.jpg	YN	Left	Yes	0.959861700001056	0	254888	251
498.865234375	2	decision	foodImageDisplay	1	50	50	foodImage.104	FOODEEG_Images\0912.jpg	YN	Left	Yes	0.959861700001056	0	255420	252
500.9296875	0.959861700001056	decision	choicePhaseStart	1	50	50	foodImage.104	FOODEEG_Images\0912.jpg	YN	Left	Yes	0.959861700001056	0	256477	253
501.87890625	0	decision	response	1	50	50	foodImage.104	FOODEEG_Images\0912.jpg	YN	Left	Yes	0.959861700001056	0	256963	234
502.921875	1	decision	trialStart	1	51	51	foodImage.32	FOODEEG_Images\0319.jpg	YN	Right	No	1.50457359999928	0	257497	251
503.96484375	2	decision	foodImageDisplay	1	51	51	foodImage.32	FOODEEG_Images\0319.jpg	YN	Right	No	1.50457359999928	0	258031	252
506.029296875	1.50457359999928	decision	choicePhaseStart	1	51	51	foodImage.32	FOODEEG_Images\0319.jpg	YN	Right	No	1.50457359999928	0	259088	253
507.52734375	0	decision	response	1	51	51	foodImage.32	FOODEEG_Images\0319.jpg	YN	Right	No	1.50457359999928	0	259855	235
508.56640625	1	taste	trialStart	1	52	52	foodImage.23	FOODEEG_Images\0244.jpg	YN	Left	Yes	0.952997799999139	0	260387	251
509.60546875	2	taste	foodImageDisplay	1	52	52	foodImage.23	FOODEEG_Images\0244.jpg	YN	Left	Yes	0.952997799999139	0	260919	252
511.669921875	0.952997799999139	taste	choicePhaseStart	1	52	52	foodImage.23	FOODEEG_Images\0244.jpg	YN	Left	Yes	0.952997799999139	0	261976	253
512.615234375	0	taste	response	1	52	52	foodImage.23	FOODEEG_Images\0244.jpg	YN	Left	Yes	0.952997799999139	0	262460	234
513.65625	1	health	trialStart	1	53	53	foodImage.104	FOODEEG_Images\0912.jpg	YN	Right	No	1.15122850000262	0	262993	251
514.6953125	2	health	foodImageDisplay	1	53	53	foodImage.104	FOODEEG_Images\0912.jpg	YN	Right	No	1.15122850000262	0	263525	252
516.759765625	1.15122850000262	health	choicePhaseStart	1	53	53	foodImage.104	FOODEEG_Images\0912.jpg	YN	Right	No	1.15122850000262	0	264582	253
517.90234375	0	health	response	1	53	53	foodImage.104	FOODEEG_Images\0912.jpg	YN	Right	No	1.15122850000262	0	265167	235
518.943359375	1	taste	trialStart	1	54	54	foodImage.19	FOODEEG_Images\0225.jpg	YN	Left	Yes	0.87162299999909	0	265700	251
519.984375	2	taste	foodImageDisplay	1	54	54	foodImage.19	FOODEEG_Images\0225.jpg	YN	Left	Yes	0.87162299999909	0	266233	252
522.048828125	0.87162299999909	taste	choicePhaseStart	1	54	54	foodImage.19	FOODEEG_Images\0225.jpg	YN	Left	Yes	0.87162299999909	0	267290	253
522.91015625	0	taste	response	1	54	54	foodImage.19	FOODEEG_Images\0225.jpg	YN	Left	Yes	0.87162299999909	0	267731	234
523.953125	1	taste	trialStart	1	55	55	foodImage.68	FOODEEG_Images\0685.jpg	YN	Left	Yes	0.740069800001947	0	268265	251
525.05078125	2	taste	foodImageDisplay	1	55	55	foodImage.68	FOODEEG_Images\0685.jpg	YN	Left	Yes	0.740069800001947	0	268827	252
527.115234375	0.740069800001947	taste	choicePhaseStart	1	55	55	foodImage.68	FOODEEG_Images\0685.jpg	YN	Left	Yes	0.740069800001947	0	269884	253
527.845703125	0	taste	response	1	55	55	foodImage.68	FOODEEG_Images\0685.jpg	YN	Left	Yes	0.740069800001947	0	270258	234
528.888671875	1	taste	trialStart	1	56	56	foodImage.43	FOODEEG_Images\0445.jpg	YN	Left	Yes	1.39713819999815	0	270792	251
529.962890625	2	taste	foodImageDisplay	1	56	56	foodImage.43	FOODEEG_Images\0445.jpg	YN	Left	Yes	1.39713819999815	0	271342	252
532.025390625	1.39713819999815	taste	choicePhaseStart	1	56	56	foodImage.43	FOODEEG_Images\0445.jpg	YN	Left	Yes	1.39713819999815	0	272398	253
533.4140625	0	taste	response	1	56	56	foodImage.43	FOODEEG_Images\0445.jpg	YN	Left	Yes	1.39713819999815	0	273109	234
534.458984375	1	health	trialStart	1	57	57	foodImage.65	FOODEEG_Images\0658.jpg	NY	Left	No	2.86640360000092	0	273644	251
535.501953125	2	health	foodImageDisplay	1	57	57	foodImage.65	FOODEEG_Images\0658.jpg	NY	Left	No	2.86640360000092	0	274178	252
537.564453125	2.86640360000092	health	choicePhaseStart	1	57	57	foodImage.65	FOODEEG_Images\0658.jpg	NY	Left	No	2.86640360000092	0	275234	253
540.421875	0	health	response	1	57	57	foodImage.65	FOODEEG_Images\0658.jpg	NY	Left	No	2.86640360000092	0	276697	234
541.466796875	1	health	trialStart	1	58	58	foodImage.114	FOODEEG_Images\0922.jpg	YN	Right	No	1.70105459999832	0	277232	251
542.505859375	2	health	foodImageDisplay	1	58	58	foodImage.114	FOODEEG_Images\0922.jpg	YN	Right	No	1.70105459999832	0	277764	252
544.5703125	1.70105459999832	health	choicePhaseStart	1	58	58	foodImage.114	FOODEEG_Images\0922.jpg	YN	Right	No	1.70105459999832	0	278821	253
546.26171875	0	health	response	1	58	58	foodImage.114	FOODEEG_Images\0922.jpg	YN	Right	No	1.70105459999832	0	279687	235
547.3046875	1	decision	trialStart	1	59	59	foodImage.72	FOODEEG_Images\0714.jpg	NY	Left	No	1.77298660000088	0	280221	251
548.345703125	2	decision	foodImageDisplay	1	59	59	foodImage.72	FOODEEG_Images\0714.jpg	NY	Left	No	1.77298660000088	0	280754	252
550.4140625	1.77298660000088	decision	choicePhaseStart	1	59	59	foodImage.72	FOODEEG_Images\0714.jpg	NY	Left	No	1.77298660000088	0	281813	253
552.181640625	0	decision	response	1	59	59	foodImage.72	FOODEEG_Images\0714.jpg	NY	Left	No	1.77298660000088	0	282718	234
553.224609375	1	taste	trialStart	1	60	60	foodImage.39	FOODEEG_Images\0367.jpg	NY	Right	Yes	1.04619439999806	0	283252	251
554.263671875	2	taste	foodImageDisplay	1	60	60	foodImage.39	FOODEEG_Images\0367.jpg	NY	Right	Yes	1.04619439999806	0	283784	252
556.328125	1.04619439999806	taste	choicePhaseStart	1	60	60	foodImage.39	FOODEEG_Images\0367.jpg	NY	Right	Yes	1.04619439999806	0	284841	253
557.365234375	0	taste	response	1	60	60	foodImage.39	FOODEEG_Images\0367.jpg	NY	Right	Yes	1.04619439999806	0	285372	235
559.40625	11.099609375	n/a	blockEnd	n/a	n/a	n/a	n/a	n/a	n/a	n/a	n/a	n/a	n/a	286417	254
570.505859375	2	n/a	blockStart	2	n/a	n/a	n/a	n/a	n/a	n/a	n/a	n/a	n/a	292100	250
572.5390625	1	health	trialStart	2	61	1	foodImage.75	FOODEEG_Images\0763.jpg	YN	Left	Yes	0.774488300001394	0	293141	251
573.583984375	2	health	foodImageDisplay	2	61	1	foodImage.75	FOODEEG_Images\0763.jpg	YN	Left	Yes	0.774488300001394	0	293676	252
575.646484375	0.774488300001394	health	choicePhaseStart	2	61	1	foodImage.75	FOODEEG_Images\0763.jpg	YN	Left	Yes	0.774488300001394	0	294732	253
576.412109375	0	health	response	2	61	1	foodImage.75	FOODEEG_Images\0763.jpg	YN	Left	Yes	0.774488300001394	0	295124	234
577.45703125	1	taste	trialStart	2	62	2	foodImage.81	FOODEEG_Images\0797.jpg	YN	Left	Yes	1.33251849999942	0	295659	251
578.513671875	2	taste	foodImageDisplay	2	62	2	foodImage.81	FOODEEG_Images\0797.jpg	YN	Left	Yes	1.33251849999942	0	296200	252
580.576171875	1.33251849999942	taste	choicePhaseStart	2	62	2	foodImage.81	FOODEEG_Images\0797.jpg	YN	Left	Yes	1.33251849999942	0	297256	253
581.900390625	0	taste	response	2	62	2	foodImage.81	FOODEEG_Images\0797.jpg	YN	Left	Yes	1.33251849999942	0	297934	234
582.943359375	1	taste	trialStart	2	63	3	foodImage.24	FOODEEG_Images\0250.jpg	NY	Right	Yes	0.91643589999876	0	298468	251
583.986328125	2	taste	foodImageDisplay	2	63	3	foodImage.24	FOODEEG_Images\0250.jpg	NY	Right	Yes	0.91643589999876	0	299002	252
586.048828125	0.91643589999876	taste	choicePhaseStart	2	63	3	foodImage.24	FOODEEG_Images\0250.jpg	NY	Right	Yes	0.91643589999876	0	300058	253
586.955078125	0	taste	response	2	63	3	foodImage.24	FOODEEG_Images\0250.jpg	NY	Right	Yes	0.91643589999876	0	300522	235
587.998046875	1	decision	trialStart	2	64	4	foodImage.59	FOODEEG_Images\0607.jpg	NY	Right	Yes	1.3131622999972	0	301056	251
589.044921875	2	decision	foodImageDisplay	2	64	4	foodImage.59	FOODEEG_Images\0607.jpg	NY	Right	Yes	1.3131622999972	0	301592	252
591.107421875	1.3131622999972	decision	choicePhaseStart	2	64	4	foodImage.59	FOODEEG_Images\0607.jpg	NY	Right	Yes	1.3131622999972	0	302648	253
592.412109375	0	decision	response	2	64	4	foodImage.59	FOODEEG_Images\0607.jpg	NY	Right	Yes	1.3131622999972	0	303316	235
593.455078125	1	health	trialStart	2	65	5	foodImage.69	FOODEEG_Images\0693.jpg	NY	Right	Yes	1.32366639999964	0	303850	251
594.498046875	2	health	foodImageDisplay	2	65	5	foodImage.69	FOODEEG_Images\0693.jpg	NY	Right	Yes	1.32366639999964	0	304384	252
596.560546875	1.32366639999964	health	choicePhaseStart	2	65	5	foodImage.69	FOODEEG_Images\0693.jpg	NY	Right	Yes	1.32366639999964	0	305440	253
597.875	0	health	response	2	65	5	foodImage.69	FOODEEG_Images\0693.jpg	NY	Right	Yes	1.32366639999964	0	306113	235
598.91796875	1	decision	trialStart	2	66	6	foodImage.26	FOODEEG_Images\0262.jpg	NY	Left	No	1.51556940000228	0	306647	251
599.9609375	2	decision	foodImageDisplay	2	66	6	foodImage.26	FOODEEG_Images\0262.jpg	NY	Left	No	1.51556940000228	0	307181	252
602.025390625	1.51556940000228	decision	choicePhaseStart	2	66	6	foodImage.26	FOODEEG_Images\0262.jpg	NY	Left	No	1.51556940000228	0	308238	253
603.53125	0	decision	response	2	66	6	foodImage.26	FOODEEG_Images\0262.jpg	NY	Left	No	1.51556940000228	0	309009	234
604.57421875	1	decision	trialStart	2	67	7	foodImage.17	FOODEEG_Images\0199.jpg	NY	Right	Yes	0.946209599998838	0	309543	251
605.634765625	2	decision	foodImageDisplay	2	67	7	foodImage.17	FOODEEG_Images\0199.jpg	NY	Right	Yes	0.946209599998838	0	310086	252
607.697265625	0.946209599998838	decision	choicePhaseStart	2	67	7	foodImage.17	FOODEEG_Images\0199.jpg	NY	Right	Yes	0.946209599998838	0	311142	253
608.634765625	0	decision	response	2	67	7	foodImage.17	FOODEEG_Images\0199.jpg	NY	Right	Yes	0.946209599998838	0	311622	235
609.677734375	1	decision	trialStart	2	68	8	foodImage.66	FOODEEG_Images\0676.jpg	YN	Left	Yes	2.97482870000022	0	312156	251
610.734375	2	decision	foodImageDisplay	2	68	8	foodImage.66	FOODEEG_Images\0676.jpg	YN	Left	Yes	2.97482870000022	0	312697	252
612.796875	2.97482870000022	decision	choicePhaseStart	2	68	8	foodImage.66	FOODEEG_Images\0676.jpg	YN	Left	Yes	2.97482870000022	0	313753	253
615.76171875	0	decision	response	2	68	8	foodImage.66	FOODEEG_Images\0676.jpg	YN	Left	Yes	2.97482870000022	0	315271	234
616.8046875	1	decision	trialStart	2	69	9	foodImage.51	FOODEEG_Images\0536.jpg	YN	Left	Yes	1.21132159999979	0	315805	251
617.8515625	2	decision	foodImageDisplay	2	69	9	foodImage.51	FOODEEG_Images\0536.jpg	YN	Left	Yes	1.21132159999979	0	316341	252
619.919921875	1.21132159999979	decision	choicePhaseStart	2	69	9	foodImage.51	FOODEEG_Images\0536.jpg	YN	Left	Yes	1.21132159999979	0	317400	253
621.12109375	0	decision	response	2	69	9	foodImage.51	FOODEEG_Images\0536.jpg	YN	Left	Yes	1.21132159999979	0	318015	234
622.166015625	1	health	trialStart	2	70	10	foodImage.96	FOODEEG_Images\0904.jpg	NY	Right	Yes	1.70101779999823	0	318550	251
623.20703125	2	health	foodImageDisplay	2	70	10	foodImage.96	FOODEEG_Images\0904.jpg	NY	Right	Yes	1.70101779999823	0	319083	252
625.26953125	1.70101779999823	health	choicePhaseStart	2	70	10	foodImage.96	FOODEEG_Images\0904.jpg	NY	Right	Yes	1.70101779999823	0	320139	253
626.9609375	0	health	response	2	70	10	foodImage.96	FOODEEG_Images\0904.jpg	NY	Right	Yes	1.70101779999823	0	321005	235
628.001953125	1	health	trialStart	2	71	11	foodImage.58	FOODEEG_Images\0605.jpg	YN	Left	Yes	0.909544300000562	0	321538	251
629.0703125	2	health	foodImageDisplay	2	71	11	foodImage.58	FOODEEG_Images\0605.jpg	YN	Left	Yes	0.909544300000562	0	322085	252
631.1328125	0.909544300000562	health	choicePhaseStart	2	71	11	foodImage.58	FOODEEG_Images\0605.jpg	YN	Left	Yes	0.909544300000562	0	323141	253
632.033203125	0	health	response	2	71	11	foodImage.58	FOODEEG_Images\0605.jpg	YN	Left	Yes	0.909544300000562	0	323602	234
633.078125	1	health	trialStart	2	72	12	foodImage.84	FOODEEG_Images\0830.jpg	YN	Left	Yes	1.09180539999943	0	324137	251
634.16015625	2	health	foodImageDisplay	2	72	12	foodImage.84	FOODEEG_Images\0830.jpg	YN	Left	Yes	1.09180539999943	0	324691	252
636.22265625	1.09180539999943	health	choicePhaseStart	2	72	12	foodImage.84	FOODEEG_Images\0830.jpg	YN	Left	Yes	1.09180539999943	0	325747	253
637.306640625	0	health	response	2	72	12	foodImage.84	FOODEEG_Images\0830.jpg	YN	Left	Yes	1.09180539999943	0	326302	234
638.349609375	1	health	trialStart	2	73	13	foodImage.12	FOODEEG_Images\0181.jpg	NY	Right	Yes	1.07135180000114	0	326836	251
639.412109375	2	health	foodImageDisplay	2	73	13	foodImage.12	FOODEEG_Images\0181.jpg	NY	Right	Yes	1.07135180000114	0	327380	252
641.474609375	1.07135180000114	health	choicePhaseStart	2	73	13	foodImage.12	FOODEEG_Images\0181.jpg	NY	Right	Yes	1.07135180000114	0	328436	253
642.537109375	0	health	response	2	73	13	foodImage.12	FOODEEG_Images\0181.jpg	NY	Right	Yes	1.07135180000114	0	328980	235
643.580078125	1	decision	trialStart	2	74	14	foodImage.69	FOODEEG_Images\0693.jpg	YN	Left	Yes	1.3160418999978	0	329514	251
644.623046875	2	decision	foodImageDisplay	2	74	14	foodImage.69	FOODEEG_Images\0693.jpg	YN	Left	Yes	1.3160418999978	0	330048	252
646.685546875	1.3160418999978	decision	choicePhaseStart	2	74	14	foodImage.69	FOODEEG_Images\0693.jpg	YN	Left	Yes	1.3160418999978	0	331104	253
647.994140625	0	decision	response	2	74	14	foodImage.69	FOODEEG_Images\0693.jpg	YN	Left	Yes	1.3160418999978	0	331774	234
649.037109375	1	health	trialStart	2	75	15	foodImage.92	FOODEEG_Images\0900.jpg	YN	Right	No	1.59953859999951	0	332308	251
650.076171875	2	health	foodImageDisplay	2	75	15	foodImage.92	FOODEEG_Images\0900.jpg	YN	Right	No	1.59953859999951	0	332840	252
652.138671875	1.59953859999951	health	choicePhaseStart	2	75	15	foodImage.92	FOODEEG_Images\0900.jpg	YN	Right	No	1.59953859999951	0	333896	253
653.728515625	0	health	response	2	75	15	foodImage.92	FOODEEG_Images\0900.jpg	YN	Right	No	1.59953859999951	0	334710	235
654.7734375	1	taste	trialStart	2	76	16	foodImage.107	FOODEEG_Images\0915.jpg	YN	Left	Yes	1.15623100000084	0	335245	251
655.822265625	2	taste	foodImageDisplay	2	76	16	foodImage.107	FOODEEG_Images\0915.jpg	YN	Left	Yes	1.15623100000084	0	335782	252
657.88671875	1.15623100000084	taste	choicePhaseStart	2	76	16	foodImage.107	FOODEEG_Images\0915.jpg	YN	Left	Yes	1.15623100000084	0	336839	253
659.033203125	0	taste	response	2	76	16	foodImage.107	FOODEEG_Images\0915.jpg	YN	Left	Yes	1.15623100000084	0	337426	234
660.076171875	1	health	trialStart	2	77	17	foodImage.120	FOODEEG_Images\0928.jpg	NY	Right	Yes	1.15246720000141	0	337960	251
661.11328125	2	health	foodImageDisplay	2	77	17	foodImage.120	FOODEEG_Images\0928.jpg	NY	Right	Yes	1.15246720000141	0	338491	252
663.177734375	1.15246720000141	health	choicePhaseStart	2	77	17	foodImage.120	FOODEEG_Images\0928.jpg	NY	Right	Yes	1.15246720000141	0	339548	253
664.3203125	0	health	response	2	77	17	foodImage.120	FOODEEG_Images\0928.jpg	NY	Right	Yes	1.15246720000141	0	340133	235
665.36328125	1	taste	trialStart	2	78	18	foodImage.34	FOODEEG_Images\0339.jpg	YN	Left	Yes	1.05233940000107	0	340667	251
666.4296875	2	taste	foodImageDisplay	2	78	18	foodImage.34	FOODEEG_Images\0339.jpg	YN	Left	Yes	1.05233940000107	0	341213	252
668.494140625	1.05233940000107	taste	choicePhaseStart	2	78	18	foodImage.34	FOODEEG_Images\0339.jpg	YN	Left	Yes	1.05233940000107	0	342270	253
669.537109375	0	taste	response	2	78	18	foodImage.34	FOODEEG_Images\0339.jpg	YN	Left	Yes	1.05233940000107	0	342804	234
670.580078125	1	taste	trialStart	2	79	19	foodImage.60	FOODEEG_Images\0614.jpg	NY	Right	Yes	1.05624090000128	0	343338	251
671.642578125	2	taste	foodImageDisplay	2	79	19	foodImage.60	FOODEEG_Images\0614.jpg	NY	Right	Yes	1.05624090000128	0	343882	252
673.705078125	1.05624090000128	taste	choicePhaseStart	2	79	19	foodImage.60	FOODEEG_Images\0614.jpg	NY	Right	Yes	1.05624090000128	0	344938	253
674.751953125	0	taste	response	2	79	19	foodImage.60	FOODEEG_Images\0614.jpg	NY	Right	Yes	1.05624090000128	0	345474	235
675.794921875	1	taste	trialStart	2	80	20	foodImage.42	FOODEEG_Images\0438.jpg	YN	Left	Yes	0.994103000000905	0	346008	251
676.90234375	2	taste	foodImageDisplay	2	80	20	foodImage.42	FOODEEG_Images\0438.jpg	YN	Left	Yes	0.994103000000905	0	346575	252
678.96484375	0.994103000000905	taste	choicePhaseStart	2	80	20	foodImage.42	FOODEEG_Images\0438.jpg	YN	Left	Yes	0.994103000000905	0	347631	253
679.951171875	0	taste	response	2	80	20	foodImage.42	FOODEEG_Images\0438.jpg	YN	Left	Yes	0.994103000000905	0	348136	234
681	1	health	trialStart	2	81	21	foodImage.90	FOODEEG_Images\0890.jpg	YN	Right	No	1.66204730000027	0	348673	251
682.05859375	2	health	foodImageDisplay	2	81	21	foodImage.90	FOODEEG_Images\0890.jpg	YN	Right	No	1.66204730000027	0	349215	252
684.123046875	1.66204730000027	health	choicePhaseStart	2	81	21	foodImage.90	FOODEEG_Images\0890.jpg	YN	Right	No	1.66204730000027	0	350272	253
685.775390625	0	health	response	2	81	21	foodImage.90	FOODEEG_Images\0890.jpg	YN	Right	No	1.66204730000027	0	351118	235
686.818359375	1	decision	trialStart	2	82	22	foodImage.62	FOODEEG_Images\0644.jpg	YN	Right	No	1.45360409999921	0	351652	251
687.875	2	decision	foodImageDisplay	2	82	22	foodImage.62	FOODEEG_Images\0644.jpg	YN	Right	No	1.45360409999921	0	352193	252
689.939453125	1.45360409999921	decision	choicePhaseStart	2	82	22	foodImage.62	FOODEEG_Images\0644.jpg	YN	Right	No	1.45360409999921	0	353250	253
691.3828125	0	decision	response	2	82	22	foodImage.62	FOODEEG_Images\0644.jpg	YN	Right	No	1.45360409999921	0	353989	235
692.42578125	1	health	trialStart	2	83	23	foodImage.15	FOODEEG_Images\0189.jpg	NY	Left	No	1.28283079999892	0	354523	251
693.494140625	2	health	foodImageDisplay	2	83	23	foodImage.15	FOODEEG_Images\0189.jpg	NY	Left	No	1.28283079999892	0	355070	252
695.556640625	1.28283079999892	health	choicePhaseStart	2	83	23	foodImage.15	FOODEEG_Images\0189.jpg	NY	Left	No	1.28283079999892	0	356126	253
696.83203125	0	health	response	2	83	23	foodImage.15	FOODEEG_Images\0189.jpg	NY	Left	No	1.28283079999892	0	356779	234
697.875	1	health	trialStart	2	84	24	foodImage.48	FOODEEG_Images\0494.jpg	YN	Right	No	0.931851500001358	0	357313	251
698.927734375	2	health	foodImageDisplay	2	84	24	foodImage.48	FOODEEG_Images\0494.jpg	YN	Right	No	0.931851500001358	0	357852	252
700.99609375	0.931851500001358	health	choicePhaseStart	2	84	24	foodImage.48	FOODEEG_Images\0494.jpg	YN	Right	No	0.931851500001358	0	358911	253
701.91796875	0	health	response	2	84	24	foodImage.48	FOODEEG_Images\0494.jpg	YN	Right	No	0.931851500001358	0	359383	235
702.9609375	1	health	trialStart	2	85	25	foodImage.32	FOODEEG_Images\0319.jpg	YN	Left	Yes	1.21766469999784	0	359917	251
704.005859375	2	health	foodImageDisplay	2	85	25	foodImage.32	FOODEEG_Images\0319.jpg	YN	Left	Yes	1.21766469999784	0	360452	252
706.0703125	1.21766469999784	health	choicePhaseStart	2	85	25	foodImage.32	FOODEEG_Images\0319.jpg	YN	Left	Yes	1.21766469999784	0	361509	253
707.279296875	0	health	response	2	85	25	foodImage.32	FOODEEG_Images\0319.jpg	YN	Left	Yes	1.21766469999784	0	362128	234
708.322265625	1	health	trialStart	2	86	26	foodImage.86	FOODEEG_Images\0844.jpg	NY	Left	No	1.00359329999992	0	362662	251
709.380859375	2	health	foodImageDisplay	2	86	26	foodImage.86	FOODEEG_Images\0844.jpg	NY	Left	No	1.00359329999992	0	363204	252
711.4453125	1.00359329999992	health	choicePhaseStart	2	86	26	foodImage.86	FOODEEG_Images\0844.jpg	NY	Left	No	1.00359329999992	0	364261	253
712.439453125	0	health	response	2	86	26	foodImage.86	FOODEEG_Images\0844.jpg	NY	Left	No	1.00359329999992	0	364770	234
713.48046875	1	health	trialStart	2	87	27	foodImage.7	FOODEEG_Images\0116.jpg	YN	Right	No	1.78111600000193	0	365303	251
714.521484375	2	health	foodImageDisplay	2	87	27	foodImage.7	FOODEEG_Images\0116.jpg	YN	Right	No	1.78111600000193	0	365836	252
716.5859375	1.78111600000193	health	choicePhaseStart	2	87	27	foodImage.7	FOODEEG_Images\0116.jpg	YN	Right	No	1.78111600000193	0	366893	253
718.357421875	0	health	response	2	87	27	foodImage.7	FOODEEG_Images\0116.jpg	YN	Right	No	1.78111600000193	0	367800	235
719.400390625	1	decision	trialStart	2	88	28	foodImage.86	FOODEEG_Images\0844.jpg	NY	Right	Yes	1.15639670000019	0	368334	251
720.46875	2	decision	foodImageDisplay	2	88	28	foodImage.86	FOODEEG_Images\0844.jpg	NY	Right	Yes	1.15639670000019	0	368881	252
722.53125	1.15639670000019	decision	choicePhaseStart	2	88	28	foodImage.86	FOODEEG_Images\0844.jpg	NY	Right	Yes	1.15639670000019	0	369937	253
723.677734375	0	decision	response	2	88	28	foodImage.86	FOODEEG_Images\0844.jpg	NY	Right	Yes	1.15639670000019	0	370524	235
724.720703125	1	taste	trialStart	2	89	29	foodImage.92	FOODEEG_Images\0900.jpg	YN	Right	No	1.12073170000076	0	371058	251
725.7578125	2	taste	foodImageDisplay	2	89	29	foodImage.92	FOODEEG_Images\0900.jpg	YN	Right	No	1.12073170000076	0	371589	252
727.822265625	1.12073170000076	taste	choicePhaseStart	2	89	29	foodImage.92	FOODEEG_Images\0900.jpg	YN	Right	No	1.12073170000076	0	372646	253
728.93359375	0	taste	response	2	89	29	foodImage.92	FOODEEG_Images\0900.jpg	YN	Right	No	1.12073170000076	0	373215	235
729.978515625	1	health	trialStart	2	90	30	foodImage.4	FOODEEG_Images\0065.jpg	NY	Left	No	1.44047189999765	0	373750	251
731.0390625	2	health	foodImageDisplay	2	90	30	foodImage.4	FOODEEG_Images\0065.jpg	NY	Left	No	1.44047189999765	0	374293	252
733.103515625	1.44047189999765	health	choicePhaseStart	2	90	30	foodImage.4	FOODEEG_Images\0065.jpg	NY	Left	No	1.44047189999765	0	375350	253
734.533203125	0	health	response	2	90	30	foodImage.4	FOODEEG_Images\0065.jpg	NY	Left	No	1.44047189999765	0	376082	234
735.576171875	1	decision	trialStart	2	91	31	foodImage.113	FOODEEG_Images\0921.jpg	YN	Right	No	1.39985910000178	0	376616	251
736.630859375	2	decision	foodImageDisplay	2	91	31	foodImage.113	FOODEEG_Images\0921.jpg	YN	Right	No	1.39985910000178	0	377156	252
738.693359375	1.39985910000178	decision	choicePhaseStart	2	91	31	foodImage.113	FOODEEG_Images\0921.jpg	YN	Right	No	1.39985910000178	0	378212	253
740.0859375	0	decision	response	2	91	31	foodImage.113	FOODEEG_Images\0921.jpg	YN	Right	No	1.39985910000178	0	378925	235
741.13671875	1	health	trialStart	2	92	32	foodImage.37	FOODEEG_Images\0359.jpg	NY	Right	Yes	0.988169600001129	0	379463	251
742.177734375	2	health	foodImageDisplay	2	92	32	foodImage.37	FOODEEG_Images\0359.jpg	NY	Right	Yes	0.988169600001129	0	379996	252
744.2421875	0.988169600001129	health	choicePhaseStart	2	92	32	foodImage.37	FOODEEG_Images\0359.jpg	NY	Right	Yes	0.988169600001129	0	381053	253
745.220703125	0	health	response	2	92	32	foodImage.37	FOODEEG_Images\0359.jpg	NY	Right	Yes	0.988169600001129	0	381554	235
746.263671875	1	decision	trialStart	2	93	33	foodImage.80	FOODEEG_Images\0796.jpg	NY	Right	Yes	1.24927370000296	0	382088	251
747.322265625	2	decision	foodImageDisplay	2	93	33	foodImage.80	FOODEEG_Images\0796.jpg	NY	Right	Yes	1.24927370000296	0	382630	252
749.388671875	1.24927370000296	decision	choicePhaseStart	2	93	33	foodImage.80	FOODEEG_Images\0796.jpg	NY	Right	Yes	1.24927370000296	0	383688	253
750.62890625	0	decision	response	2	93	33	foodImage.80	FOODEEG_Images\0796.jpg	NY	Right	Yes	1.24927370000296	0	384323	235
751.671875	1	decision	trialStart	2	94	34	foodImage.18	FOODEEG_Images\0202.jpg	YN	Left	Yes	0.922922800000379	0	384857	251
752.73046875	2	decision	foodImageDisplay	2	94	34	foodImage.18	FOODEEG_Images\0202.jpg	YN	Left	Yes	0.922922800000379	0	385399	252
754.794921875	0.922922800000379	decision	choicePhaseStart	2	94	34	foodImage.18	FOODEEG_Images\0202.jpg	YN	Left	Yes	0.922922800000379	0	386456	253
755.708984375	0	decision	response	2	94	34	foodImage.18	FOODEEG_Images\0202.jpg	YN	Left	Yes	0.922922800000379	0	386924	234
756.75390625	1	health	trialStart	2	95	35	foodImage.46	FOODEEG_Images\0479.jpg	YN	Left	Yes	1.16368499999953	0	387459	251
757.82421875	2	health	foodImageDisplay	2	95	35	foodImage.46	FOODEEG_Images\0479.jpg	YN	Left	Yes	1.16368499999953	0	388007	252
759.888671875	1.16368499999953	health	choicePhaseStart	2	95	35	foodImage.46	FOODEEG_Images\0479.jpg	YN	Left	Yes	1.16368499999953	0	389064	253
761.044921875	0	health	response	2	95	35	foodImage.46	FOODEEG_Images\0479.jpg	YN	Left	Yes	1.16368499999953	0	389656	234
762.087890625	1	decision	trialStart	2	96	36	foodImage.6	FOODEEG_Images\0113.jpg	YN	Right	No	1.03013280000232	0	390190	251
763.140625	2	decision	foodImageDisplay	2	96	36	foodImage.6	FOODEEG_Images\0113.jpg	YN	Right	No	1.03013280000232	0	390729	252
765.20703125	1.03013280000232	decision	choicePhaseStart	2	96	36	foodImage.6	FOODEEG_Images\0113.jpg	YN	Right	No	1.03013280000232	0	391787	253
766.228515625	0	decision	response	2	96	36	foodImage.6	FOODEEG_Images\0113.jpg	YN	Right	No	1.03013280000232	0	392310	235
767.271484375	1	decision	trialStart	2	97	37	foodImage.94	FOODEEG_Images\0902.jpg	NY	Right	Yes	1.10209810000015	0	392844	251
768.326171875	2	decision	foodImageDisplay	2	97	37	foodImage.94	FOODEEG_Images\0902.jpg	NY	Right	Yes	1.10209810000015	0	393384	252
770.390625	1.10209810000015	decision	choicePhaseStart	2	97	37	foodImage.94	FOODEEG_Images\0902.jpg	NY	Right	Yes	1.10209810000015	0	394441	253
771.484375	0	decision	response	2	97	37	foodImage.94	FOODEEG_Images\0902.jpg	NY	Right	Yes	1.10209810000015	0	395001	235
772.529296875	1	decision	trialStart	2	98	38	foodImage.100	FOODEEG_Images\0908.jpg	YN	Right	No	1.35951310000019	0	395536	251
773.56640625	2	decision	foodImageDisplay	2	98	38	foodImage.100	FOODEEG_Images\0908.jpg	YN	Right	No	1.35951310000019	0	396067	252
775.630859375	1.35951310000019	decision	choicePhaseStart	2	98	38	foodImage.100	FOODEEG_Images\0908.jpg	YN	Right	No	1.35951310000019	0	397124	253
776.98046875	0	decision	response	2	98	38	foodImage.100	FOODEEG_Images\0908.jpg	YN	Right	No	1.35951310000019	0	397815	235
778.0234375	1	decision	trialStart	2	99	39	foodImage.15	FOODEEG_Images\0189.jpg	YN	Right	No	0.852075200000399	0	398349	251
779.0859375	2	decision	foodImageDisplay	2	99	39	foodImage.15	FOODEEG_Images\0189.jpg	YN	Right	No	0.852075200000399	0	398893	252
781.15234375	0.852075200000399	decision	choicePhaseStart	2	99	39	foodImage.15	FOODEEG_Images\0189.jpg	YN	Right	No	0.852075200000399	0	399951	253
781.99609375	0	decision	response	2	99	39	foodImage.15	FOODEEG_Images\0189.jpg	YN	Right	No	0.852075200000399	0	400383	235
783.0390625	1	health	trialStart	2	100	40	foodImage.99	FOODEEG_Images\0907.jpg	NY	Left	No	1.7432011000019	0	400917	251
784.0859375	2	health	foodImageDisplay	2	100	40	foodImage.99	FOODEEG_Images\0907.jpg	NY	Left	No	1.7432011000019	0	401453	252
786.150390625	1.7432011000019	health	choicePhaseStart	2	100	40	foodImage.99	FOODEEG_Images\0907.jpg	NY	Left	No	1.7432011000019	0	402510	253
787.8828125	0	health	response	2	100	40	foodImage.99	FOODEEG_Images\0907.jpg	NY	Left	No	1.7432011000019	0	403397	234
788.931640625	1	taste	trialStart	2	101	41	foodImage.77	FOODEEG_Images\0771.jpg	YN	Left	Yes	1.07214820000081	0	403934	251
789.97265625	2	taste	foodImageDisplay	2	101	41	foodImage.77	FOODEEG_Images\0771.jpg	YN	Left	Yes	1.07214820000081	0	404467	252
792.03515625	1.07214820000081	taste	choicePhaseStart	2	101	41	foodImage.77	FOODEEG_Images\0771.jpg	YN	Left	Yes	1.07214820000081	0	405523	253
793.099609375	0	taste	response	2	101	41	foodImage.77	FOODEEG_Images\0771.jpg	YN	Left	Yes	1.07214820000081	0	406068	234
794.14453125	1	health	trialStart	2	102	42	foodImage.109	FOODEEG_Images\0917.jpg	NY	Left	No	1.16510629999902	0	406603	251
795.18359375	2	health	foodImageDisplay	2	102	42	foodImage.109	FOODEEG_Images\0917.jpg	NY	Left	No	1.16510629999902	0	407135	252
797.24609375	1.16510629999902	health	choicePhaseStart	2	102	42	foodImage.109	FOODEEG_Images\0917.jpg	NY	Left	No	1.16510629999902	0	408191	253
798.40234375	0	health	response	2	102	42	foodImage.109	FOODEEG_Images\0917.jpg	NY	Left	No	1.16510629999902	0	408783	234
799.447265625	1	taste	trialStart	2	103	43	foodImage.100	FOODEEG_Images\0908.jpg	NY	Left	No	1.35038150000037	0	409318	251
800.486328125	2	taste	foodImageDisplay	2	103	43	foodImage.100	FOODEEG_Images\0908.jpg	NY	Left	No	1.35038150000037	0	409850	252
802.55078125	1.35038150000037	taste	choicePhaseStart	2	103	43	foodImage.100	FOODEEG_Images\0908.jpg	NY	Left	No	1.35038150000037	0	410907	253
803.890625	0	taste	response	2	103	43	foodImage.100	FOODEEG_Images\0908.jpg	NY	Left	No	1.35038150000037	0	411593	234
804.939453125	1	health	trialStart	2	104	44	foodImage.1	FOODEEG_Images\0004.jpg	NY	Left	No	2.25571870000203	0	412130	251
805.98046875	2	health	foodImageDisplay	2	104	44	foodImage.1	FOODEEG_Images\0004.jpg	NY	Left	No	2.25571870000203	0	412663	252
808.044921875	2.25571870000203	health	choicePhaseStart	2	104	44	foodImage.1	FOODEEG_Images\0004.jpg	NY	Left	No	2.25571870000203	0	413720	253
810.291015625	0	health	response	2	104	44	foodImage.1	FOODEEG_Images\0004.jpg	NY	Left	No	2.25571870000203	0	414870	234
811.333984375	1	taste	trialStart	2	105	45	foodImage.118	FOODEEG_Images\0926.jpg	NY	Left	No	1.28853139999774	0	415404	251
812.37109375	2	taste	foodImageDisplay	2	105	45	foodImage.118	FOODEEG_Images\0926.jpg	NY	Left	No	1.28853139999774	0	415935	252
814.435546875	1.28853139999774	taste	choicePhaseStart	2	105	45	foodImage.118	FOODEEG_Images\0926.jpg	NY	Left	No	1.28853139999774	0	416992	253
815.71484375	0	taste	response	2	105	45	foodImage.118	FOODEEG_Images\0926.jpg	NY	Left	No	1.28853139999774	0	417647	234
816.7578125	1	health	trialStart	2	106	46	foodImage.77	FOODEEG_Images\0771.jpg	YN	Left	Yes	0.962834800000564	0	418181	251
817.80078125	2	health	foodImageDisplay	2	106	46	foodImage.77	FOODEEG_Images\0771.jpg	YN	Left	Yes	0.962834800000564	0	418715	252
819.865234375	0.962834800000564	health	choicePhaseStart	2	106	46	foodImage.77	FOODEEG_Images\0771.jpg	YN	Left	Yes	0.962834800000564	0	419772	253
820.818359375	0	health	response	2	106	46	foodImage.77	FOODEEG_Images\0771.jpg	YN	Left	Yes	0.962834800000564	0	420260	234
821.861328125	1	decision	trialStart	2	107	47	foodImage.64	FOODEEG_Images\0647.jpg	NY	Right	Yes	1.23545820000072	0	420794	251
822.919921875	2	decision	foodImageDisplay	2	107	47	foodImage.64	FOODEEG_Images\0647.jpg	NY	Right	Yes	1.23545820000072	0	421336	252
824.984375	1.23545820000072	decision	choicePhaseStart	2	107	47	foodImage.64	FOODEEG_Images\0647.jpg	NY	Right	Yes	1.23545820000072	0	422393	253
826.208984375	0	decision	response	2	107	47	foodImage.64	FOODEEG_Images\0647.jpg	NY	Right	Yes	1.23545820000072	0	423020	235
827.251953125	1	taste	trialStart	2	108	48	foodImage.70	FOODEEG_Images\0705.jpg	NY	Right	Yes	1.18036939999729	0	423554	251
828.310546875	2	taste	foodImageDisplay	2	108	48	foodImage.70	FOODEEG_Images\0705.jpg	NY	Right	Yes	1.18036939999729	0	424096	252
830.375	1.18036939999729	taste	choicePhaseStart	2	108	48	foodImage.70	FOODEEG_Images\0705.jpg	NY	Right	Yes	1.18036939999729	0	425153	253
831.546875	0	taste	response	2	108	48	foodImage.70	FOODEEG_Images\0705.jpg	NY	Right	Yes	1.18036939999729	0	425753	235
832.587890625	1	decision	trialStart	2	109	49	foodImage.97	FOODEEG_Images\0905.jpg	YN	Right	No	1.34433229999922	0	426286	251
833.640625	2	decision	foodImageDisplay	2	109	49	foodImage.97	FOODEEG_Images\0905.jpg	YN	Right	No	1.34433229999922	0	426825	252
835.703125	1.34433229999922	decision	choicePhaseStart	2	109	49	foodImage.97	FOODEEG_Images\0905.jpg	YN	Right	No	1.34433229999922	0	427881	253
837.041015625	0	decision	response	2	109	49	foodImage.97	FOODEEG_Images\0905.jpg	YN	Right	No	1.34433229999922	0	428566	235
838.0859375	1	health	trialStart	2	110	50	foodImage.61	FOODEEG_Images\0640.jpg	NY	Right	Yes	0.969058299997414	0	429101	251
839.126953125	2	health	foodImageDisplay	2	110	50	foodImage.61	FOODEEG_Images\0640.jpg	NY	Right	Yes	0.969058299997414	0	429634	252
841.19140625	0.969058299997414	health	choicePhaseStart	2	110	50	foodImage.61	FOODEEG_Images\0640.jpg	NY	Right	Yes	0.969058299997414	0	430691	253
842.154296875	0	health	response	2	110	50	foodImage.61	FOODEEG_Images\0640.jpg	NY	Right	Yes	0.969058299997414	0	431184	235
843.197265625	1	taste	trialStart	2	111	51	foodImage.88	FOODEEG_Images\0878.jpg	NY	Right	Yes	2.35801100000026	0	431718	251
844.251953125	2	taste	foodImageDisplay	2	111	51	foodImage.88	FOODEEG_Images\0878.jpg	NY	Right	Yes	2.35801100000026	0	432258	252
846.31640625	2.35801100000026	taste	choicePhaseStart	2	111	51	foodImage.88	FOODEEG_Images\0878.jpg	NY	Right	Yes	2.35801100000026	0	433315	253
848.666015625	0	taste	response	2	111	51	foodImage.88	FOODEEG_Images\0878.jpg	NY	Right	Yes	2.35801100000026	0	434518	235
849.705078125	1	taste	trialStart	2	112	52	foodImage.73	FOODEEG_Images\0717.jpg	YN	Left	Yes	1.05508010000267	0	435050	251
850.763671875	2	taste	foodImageDisplay	2	112	52	foodImage.73	FOODEEG_Images\0717.jpg	YN	Left	Yes	1.05508010000267	0	435592	252
852.826171875	1.05508010000267	taste	choicePhaseStart	2	112	52	foodImage.73	FOODEEG_Images\0717.jpg	YN	Left	Yes	1.05508010000267	0	436648	253
853.873046875	0	taste	response	2	112	52	foodImage.73	FOODEEG_Images\0717.jpg	YN	Left	Yes	1.05508010000267	0	437184	234
854.916015625	1	taste	trialStart	2	113	53	foodImage.6	FOODEEG_Images\0113.jpg	NY	Right	Yes	0.988660200000595	0	437718	251
855.958984375	2	taste	foodImageDisplay	2	113	53	foodImage.6	FOODEEG_Images\0113.jpg	NY	Right	Yes	0.988660200000595	0	438252	252
858.021484375	0.988660200000595	taste	choicePhaseStart	2	113	53	foodImage.6	FOODEEG_Images\0113.jpg	NY	Right	Yes	0.988660200000595	0	439308	253
859	0	taste	response	2	113	53	foodImage.6	FOODEEG_Images\0113.jpg	NY	Right	Yes	0.988660200000595	0	439809	235
860.04296875	1	taste	trialStart	2	114	54	foodImage.3	FOODEEG_Images\0046.jpg	YN	Left	Yes	0.859078299999965	0	440343	251
861.087890625	2	taste	foodImageDisplay	2	114	54	foodImage.3	FOODEEG_Images\0046.jpg	YN	Left	Yes	0.859078299999965	0	440878	252
863.150390625	0.859078299999965	taste	choicePhaseStart	2	114	54	foodImage.3	FOODEEG_Images\0046.jpg	YN	Left	Yes	0.859078299999965	0	441934	253
864	0	taste	response	2	114	54	foodImage.3	FOODEEG_Images\0046.jpg	YN	Left	Yes	0.859078299999965	0	442369	234
865.04296875	1	health	trialStart	2	115	55	foodImage.44	FOODEEG_Images\0459.jpg	YN	Left	Yes	0.880948300000455	0	442903	251
866.087890625	2	health	foodImageDisplay	2	115	55	foodImage.44	FOODEEG_Images\0459.jpg	YN	Left	Yes	0.880948300000455	0	443438	252
868.15234375	0.880948300000455	health	choicePhaseStart	2	115	55	foodImage.44	FOODEEG_Images\0459.jpg	YN	Left	Yes	0.880948300000455	0	444495	253
869.025390625	0	health	response	2	115	55	foodImage.44	FOODEEG_Images\0459.jpg	YN	Left	Yes	0.880948300000455	0	444942	234
870.068359375	1	health	trialStart	2	116	56	foodImage.38	FOODEEG_Images\0365.jpg	NY	Right	Yes	0.948824700000841	0	445476	251
871.107421875	2	health	foodImageDisplay	2	116	56	foodImage.38	FOODEEG_Images\0365.jpg	NY	Right	Yes	0.948824700000841	0	446008	252
873.17578125	0.948824700000841	health	choicePhaseStart	2	116	56	foodImage.38	FOODEEG_Images\0365.jpg	NY	Right	Yes	0.948824700000841	0	447067	253
874.119140625	0	health	response	2	116	56	foodImage.38	FOODEEG_Images\0365.jpg	NY	Right	Yes	0.948824700000841	0	447550	235
875.166015625	1	taste	trialStart	2	117	57	foodImage.61	FOODEEG_Images\0640.jpg	YN	Left	Yes	1.58081500000117	0	448086	251
876.208984375	2	taste	foodImageDisplay	2	117	57	foodImage.61	FOODEEG_Images\0640.jpg	YN	Left	Yes	1.58081500000117	0	448620	252
878.2734375	1.58081500000117	taste	choicePhaseStart	2	117	57	foodImage.61	FOODEEG_Images\0640.jpg	YN	Left	Yes	1.58081500000117	0	449677	253
879.84765625	0	taste	response	2	117	57	foodImage.61	FOODEEG_Images\0640.jpg	YN	Left	Yes	1.58081500000117	0	450483	234
880.890625	1	taste	trialStart	2	118	58	foodImage.113	FOODEEG_Images\0921.jpg	NY	Left	No	1.79948969999896	0	451017	251
881.9453125	2	taste	foodImageDisplay	2	118	58	foodImage.113	FOODEEG_Images\0921.jpg	NY	Left	No	1.79948969999896	0	451557	252
884.009765625	1.79948969999896	taste	choicePhaseStart	2	118	58	foodImage.113	FOODEEG_Images\0921.jpg	NY	Left	No	1.79948969999896	0	452614	253
885.80078125	0	taste	response	2	118	58	foodImage.113	FOODEEG_Images\0921.jpg	NY	Left	No	1.79948969999896	0	453531	234
886.84375	1	taste	trialStart	2	119	59	foodImage.85	FOODEEG_Images\0841.jpg	YN	Left	Yes	0.951870200002304	0	454065	251
887.904296875	2	taste	foodImageDisplay	2	119	59	foodImage.85	FOODEEG_Images\0841.jpg	YN	Left	Yes	0.951870200002304	0	454608	252
889.96875	0.951870200002304	taste	choicePhaseStart	2	119	59	foodImage.85	FOODEEG_Images\0841.jpg	YN	Left	Yes	0.951870200002304	0	455665	253
890.912109375	0	taste	response	2	119	59	foodImage.85	FOODEEG_Images\0841.jpg	YN	Left	Yes	0.951870200002304	0	456148	234
891.955078125	1	health	trialStart	2	120	60	foodImage.107	FOODEEG_Images\0915.jpg	NY	Right	Yes	1.31961550000051	0	456682	251
892.9921875	2	health	foodImageDisplay	2	120	60	foodImage.107	FOODEEG_Images\0915.jpg	NY	Right	Yes	1.31961550000051	0	457213	252
895.056640625	1.31961550000051	health	choicePhaseStart	2	120	60	foodImage.107	FOODEEG_Images\0915.jpg	NY	Right	Yes	1.31961550000051	0	458270	253
896.3671875	0	health	response	2	120	60	foodImage.107	FOODEEG_Images\0915.jpg	NY	Right	Yes	1.31961550000051	0	458941	235
898.408203125	11.82421875	n/a	blockEnd	n/a	n/a	n/a	n/a	n/a	n/a	n/a	n/a	n/a	n/a	459986	254
910.232421875	2	n/a	blockStart	3	n/a	n/a	n/a	n/a	n/a	n/a	n/a	n/a	n/a	466040	250
912.265625	1	health	trialStart	3	121	1	foodImage.10	FOODEEG_Images\0145.jpg	YN	Right	No	1.7131008000033	0	467081	251
913.32421875	2	health	foodImageDisplay	3	121	1	foodImage.10	FOODEEG_Images\0145.jpg	YN	Right	No	1.7131008000033	0	467623	252
915.390625	1.7131008000033	health	choicePhaseStart	3	121	1	foodImage.10	FOODEEG_Images\0145.jpg	YN	Right	No	1.7131008000033	0	468681	253
917.09375	0	health	response	3	121	1	foodImage.10	FOODEEG_Images\0145.jpg	YN	Right	No	1.7131008000033	0	469553	235
918.13671875	1	decision	trialStart	3	122	2	foodImage.9	FOODEEG_Images\0138.jpg	NY	Left	No	1.59109640000315	0	470087	251
919.1953125	2	decision	foodImageDisplay	3	122	2	foodImage.9	FOODEEG_Images\0138.jpg	NY	Left	No	1.59109640000315	0	470629	252
921.263671875	1.59109640000315	decision	choicePhaseStart	3	122	2	foodImage.9	FOODEEG_Images\0138.jpg	NY	Left	No	1.59109640000315	0	471688	253
922.845703125	0	decision	response	3	122	2	foodImage.9	FOODEEG_Images\0138.jpg	NY	Left	No	1.59109640000315	0	472498	234
923.890625	1	health	trialStart	3	123	3	foodImage.26	FOODEEG_Images\0262.jpg	NY	Right	Yes	0.866840900001989	0	473033	251
924.931640625	2	health	foodImageDisplay	3	123	3	foodImage.26	FOODEEG_Images\0262.jpg	NY	Right	Yes	0.866840900001989	0	473566	252
926.99609375	0.866840900001989	health	choicePhaseStart	3	123	3	foodImage.26	FOODEEG_Images\0262.jpg	NY	Right	Yes	0.866840900001989	0	474623	253
927.853515625	0	health	response	3	123	3	foodImage.26	FOODEEG_Images\0262.jpg	NY	Right	Yes	0.866840900001989	0	475062	235
928.90234375	1	taste	trialStart	3	124	4	foodImage.30	FOODEEG_Images\0282.jpg	NY	Right	Yes	1.01222720000078	0	475599	251
929.9453125	2	taste	foodImageDisplay	3	124	4	foodImage.30	FOODEEG_Images\0282.jpg	NY	Right	Yes	1.01222720000078	0	476133	252
932.009765625	1.01222720000078	taste	choicePhaseStart	3	124	4	foodImage.30	FOODEEG_Images\0282.jpg	NY	Right	Yes	1.01222720000078	0	477190	253
933.015625	0	taste	response	3	124	4	foodImage.30	FOODEEG_Images\0282.jpg	NY	Right	Yes	1.01222720000078	0	477705	235
934.05859375	1	taste	trialStart	3	125	5	foodImage.21	FOODEEG_Images\0234.jpg	NY	Right	Yes	0.761310500001855	0	478239	251
935.1171875	2	taste	foodImageDisplay	3	125	5	foodImage.21	FOODEEG_Images\0234.jpg	NY	Right	Yes	0.761310500001855	0	478781	252
937.181640625	0.761310500001855	taste	choicePhaseStart	3	125	5	foodImage.21	FOODEEG_Images\0234.jpg	NY	Right	Yes	0.761310500001855	0	479838	253
937.93359375	0	taste	response	3	125	5	foodImage.21	FOODEEG_Images\0234.jpg	NY	Right	Yes	0.761310500001855	0	480223	235
938.984375	1	health	trialStart	3	126	6	foodImage.6	FOODEEG_Images\0113.jpg	YN	Right	No	1.11564960000032	0	480761	251
940.02734375	2	health	foodImageDisplay	3	126	6	foodImage.6	FOODEEG_Images\0113.jpg	YN	Right	No	1.11564960000032	0	481295	252
942.091796875	1.11564960000032	health	choicePhaseStart	3	126	6	foodImage.6	FOODEEG_Images\0113.jpg	YN	Right	No	1.11564960000032	0	482352	253
943.197265625	0	health	response	3	126	6	foodImage.6	FOODEEG_Images\0113.jpg	YN	Right	No	1.11564960000032	0	482918	235
944.240234375	1	health	trialStart	3	127	7	foodImage.52	FOODEEG_Images\0539.jpg	YN	Left	Yes	0.939306399999623	0	483452	251
945.30078125	2	health	foodImageDisplay	3	127	7	foodImage.52	FOODEEG_Images\0539.jpg	YN	Left	Yes	0.939306399999623	0	483995	252
947.36328125	0.939306399999623	health	choicePhaseStart	3	127	7	foodImage.52	FOODEEG_Images\0539.jpg	YN	Left	Yes	0.939306399999623	0	485051	253
948.29296875	0	health	response	3	127	7	foodImage.52	FOODEEG_Images\0539.jpg	YN	Left	Yes	0.939306399999623	0	485527	234
949.3359375	1	health	trialStart	3	128	8	foodImage.66	FOODEEG_Images\0676.jpg	YN	Right	No	0.972939499999484	0	486061	251
950.376953125	2	health	foodImageDisplay	3	128	8	foodImage.66	FOODEEG_Images\0676.jpg	YN	Right	No	0.972939499999484	0	486594	252
952.44140625	0.972939499999484	health	choicePhaseStart	3	128	8	foodImage.66	FOODEEG_Images\0676.jpg	YN	Right	No	0.972939499999484	0	487651	253
953.404296875	0	health	response	3	128	8	foodImage.66	FOODEEG_Images\0676.jpg	YN	Right	No	0.972939499999484	0	488144	235
954.451171875	1	health	trialStart	3	129	9	foodImage.21	FOODEEG_Images\0234.jpg	NY	Right	Yes	0.985137100000429	0	488680	251
955.509765625	2	health	foodImageDisplay	3	129	9	foodImage.21	FOODEEG_Images\0234.jpg	NY	Right	Yes	0.985137100000429	0	489222	252
957.572265625	0.985137100000429	health	choicePhaseStart	3	129	9	foodImage.21	FOODEEG_Images\0234.jpg	NY	Right	Yes	0.985137100000429	0	490278	253
958.548828125	0	health	response	3	129	9	foodImage.21	FOODEEG_Images\0234.jpg	NY	Right	Yes	0.985137100000429	0	490778	235
959.591796875	1	decision	trialStart	3	130	10	foodImage.33	FOODEEG_Images\0329.jpg	NY	Right	Yes	1.89421930000026	0	491312	251
960.6328125	2	decision	foodImageDisplay	3	130	10	foodImage.33	FOODEEG_Images\0329.jpg	NY	Right	Yes	1.89421930000026	0	491845	252
962.6953125	1.89421930000026	decision	choicePhaseStart	3	130	10	foodImage.33	FOODEEG_Images\0329.jpg	NY	Right	Yes	1.89421930000026	0	492901	253
964.580078125	0	decision	response	3	130	10	foodImage.33	FOODEEG_Images\0329.jpg	NY	Right	Yes	1.89421930000026	0	493866	235
965.62109375	1	taste	trialStart	3	131	11	foodImage.74	FOODEEG_Images\0752.jpg	YN	Left	Yes	1.71104660000128	0	494399	251
966.6640625	2	taste	foodImageDisplay	3	131	11	foodImage.74	FOODEEG_Images\0752.jpg	YN	Left	Yes	1.71104660000128	0	494933	252
968.7265625	1.71104660000128	taste	choicePhaseStart	3	131	11	foodImage.74	FOODEEG_Images\0752.jpg	YN	Left	Yes	1.71104660000128	0	495989	253
970.427734375	0	taste	response	3	131	11	foodImage.74	FOODEEG_Images\0752.jpg	YN	Left	Yes	1.71104660000128	0	496860	234
971.470703125	1	taste	trialStart	3	132	12	foodImage.32	FOODEEG_Images\0319.jpg	NY	Right	Yes	0.931048700000247	0	497394	251
972.515625	2	taste	foodImageDisplay	3	132	12	foodImage.32	FOODEEG_Images\0319.jpg	NY	Right	Yes	0.931048700000247	0	497929	252
974.578125	0.931048700000247	taste	choicePhaseStart	3	132	12	foodImage.32	FOODEEG_Images\0319.jpg	NY	Right	Yes	0.931048700000247	0	498985	253
975.5	0	taste	response	3	132	12	foodImage.32	FOODEEG_Images\0319.jpg	NY	Right	Yes	0.931048700000247	0	499457	235
976.54296875	1	health	trialStart	3	133	13	foodImage.14	FOODEEG_Images\0188.jpg	NY	Right	Yes	1.42507450000267	0	499991	251
977.6015625	2	health	foodImageDisplay	3	133	13	foodImage.14	FOODEEG_Images\0188.jpg	NY	Right	Yes	1.42507450000267	0	500533	252
979.66796875	1.42507450000267	health	choicePhaseStart	3	133	13	foodImage.14	FOODEEG_Images\0188.jpg	NY	Right	Yes	1.42507450000267	0	501591	253
981.083984375	0	health	response	3	133	13	foodImage.14	FOODEEG_Images\0188.jpg	NY	Right	Yes	1.42507450000267	0	502316	235
982.126953125	1	health	trialStart	3	134	14	foodImage.74	FOODEEG_Images\0752.jpg	NY	Right	Yes	1.62494750000042	0	502850	251
983.171875	2	health	foodImageDisplay	3	134	14	foodImage.74	FOODEEG_Images\0752.jpg	NY	Right	Yes	1.62494750000042	0	503385	252
985.236328125	1.62494750000042	health	choicePhaseStart	3	134	14	foodImage.74	FOODEEG_Images\0752.jpg	NY	Right	Yes	1.62494750000042	0	504442	253
986.8515625	0	health	response	3	134	14	foodImage.74	FOODEEG_Images\0752.jpg	NY	Right	Yes	1.62494750000042	0	505269	235
987.896484375	1	health	trialStart	3	135	15	foodImage.39	FOODEEG_Images\0367.jpg	NY	Left	No	1.08970650000265	0	505804	251
988.93359375	2	health	foodImageDisplay	3	135	15	foodImage.39	FOODEEG_Images\0367.jpg	NY	Left	No	1.08970650000265	0	506335	252
990.99609375	1.08970650000265	health	choicePhaseStart	3	135	15	foodImage.39	FOODEEG_Images\0367.jpg	NY	Left	No	1.08970650000265	0	507391	253
992.076171875	0	health	response	3	135	15	foodImage.39	FOODEEG_Images\0367.jpg	NY	Left	No	1.08970650000265	0	507944	234
993.115234375	1	taste	trialStart	3	136	16	foodImage.40	FOODEEG_Images\0373.jpg	YN	Left	Yes	1.24229269999705	0	508476	251
994.154296875	2	taste	foodImageDisplay	3	136	16	foodImage.40	FOODEEG_Images\0373.jpg	YN	Left	Yes	1.24229269999705	0	509008	252
996.21875	1.24229269999705	taste	choicePhaseStart	3	136	16	foodImage.40	FOODEEG_Images\0373.jpg	YN	Left	Yes	1.24229269999705	0	510065	253
997.451171875	0	taste	response	3	136	16	foodImage.40	FOODEEG_Images\0373.jpg	YN	Left	Yes	1.24229269999705	0	510696	234
998.49609375	1	taste	trialStart	3	137	17	foodImage.96	FOODEEG_Images\0904.jpg	YN	Left	Yes	0.939552499999991	0	511231	251
999.53515625	2	taste	foodImageDisplay	3	137	17	foodImage.96	FOODEEG_Images\0904.jpg	YN	Left	Yes	0.939552499999991	0	511763	252
1001.59765625	0.939552499999991	taste	choicePhaseStart	3	137	17	foodImage.96	FOODEEG_Images\0904.jpg	YN	Left	Yes	0.939552499999991	0	512819	253
1002.53125	0	taste	response	3	137	17	foodImage.96	FOODEEG_Images\0904.jpg	YN	Left	Yes	0.939552499999991	0	513297	234
1003.57421875	1	health	trialStart	3	138	18	foodImage.60	FOODEEG_Images\0614.jpg	NY	Right	Yes	1.79046519999974	0	513831	251
1004.630859375	2	health	foodImageDisplay	3	138	18	foodImage.60	FOODEEG_Images\0614.jpg	NY	Right	Yes	1.79046519999974	0	514372	252
1006.693359375	1.79046519999974	health	choicePhaseStart	3	138	18	foodImage.60	FOODEEG_Images\0614.jpg	NY	Right	Yes	1.79046519999974	0	515428	253
1008.474609375	0	health	response	3	138	18	foodImage.60	FOODEEG_Images\0614.jpg	NY	Right	Yes	1.79046519999974	0	516340	235
1009.51953125	1	decision	trialStart	3	139	19	foodImage.99	FOODEEG_Images\0907.jpg	YN	Right	No	1.35531210000045	0	516875	251
1010.55859375	2	decision	foodImageDisplay	3	139	19	foodImage.99	FOODEEG_Images\0907.jpg	YN	Right	No	1.35531210000045	0	517407	252
1012.625	1.35531210000045	decision	choicePhaseStart	3	139	19	foodImage.99	FOODEEG_Images\0907.jpg	YN	Right	No	1.35531210000045	0	518465	253
1013.970703125	0	decision	response	3	139	19	foodImage.99	FOODEEG_Images\0907.jpg	YN	Right	No	1.35531210000045	0	519154	235
1015.013671875	1	health	trialStart	3	140	20	foodImage.97	FOODEEG_Images\0905.jpg	NY	Left	No	1.67319710000083	0	519688	251
1016.05078125	2	health	foodImageDisplay	3	140	20	foodImage.97	FOODEEG_Images\0905.jpg	NY	Left	No	1.67319710000083	0	520219	252
1018.115234375	1.67319710000083	health	choicePhaseStart	3	140	20	foodImage.97	FOODEEG_Images\0905.jpg	NY	Left	No	1.67319710000083	0	521276	253
1019.77734375	0	health	response	3	140	20	foodImage.97	FOODEEG_Images\0905.jpg	NY	Left	No	1.67319710000083	0	522127	234
1020.8203125	1	decision	trialStart	3	141	21	foodImage.118	FOODEEG_Images\0926.jpg	YN	Right	No	1.26543859999947	0	522661	251
1021.859375	2	decision	foodImageDisplay	3	141	21	foodImage.118	FOODEEG_Images\0926.jpg	YN	Right	No	1.26543859999947	0	523193	252
1023.921875	1.26543859999947	decision	choicePhaseStart	3	141	21	foodImage.118	FOODEEG_Images\0926.jpg	YN	Right	No	1.26543859999947	0	524249	253
1025.177734375	0	decision	response	3	141	21	foodImage.118	FOODEEG_Images\0926.jpg	YN	Right	No	1.26543859999947	0	524892	235
1026.220703125	1	decision	trialStart	3	142	22	foodImage.91	FOODEEG_Images\0896.jpg	YN	Left	Yes	1.25843189999796	0	525426	251
1027.28125	2	decision	foodImageDisplay	3	142	22	foodImage.91	FOODEEG_Images\0896.jpg	YN	Left	Yes	1.25843189999796	0	525969	252
1029.345703125	1.25843189999796	decision	choicePhaseStart	3	142	22	foodImage.91	FOODEEG_Images\0896.jpg	YN	Left	Yes	1.25843189999796	0	527026	253
1030.59375	0	decision	response	3	142	22	foodImage.91	FOODEEG_Images\0896.jpg	YN	Left	Yes	1.25843189999796	0	527665	234
1031.638671875	1	health	trialStart	3	143	23	foodImage.18	FOODEEG_Images\0202.jpg	YN	Left	Yes	0.918032599998696	0	528200	251
1032.693359375	2	health	foodImageDisplay	3	143	23	foodImage.18	FOODEEG_Images\0202.jpg	YN	Left	Yes	0.918032599998696	0	528740	252
1034.755859375	0.918032599998696	health	choicePhaseStart	3	143	23	foodImage.18	FOODEEG_Images\0202.jpg	YN	Left	Yes	0.918032599998696	0	529796	253
1035.666015625	0	health	response	3	143	23	foodImage.18	FOODEEG_Images\0202.jpg	YN	Left	Yes	0.918032599998696	0	530262	234
1036.708984375	1	health	trialStart	3	144	24	foodImage.110	FOODEEG_Images\0918.jpg	YN	Right	No	1.29498240000248	0	530796	251
1037.748046875	2	health	foodImageDisplay	3	144	24	foodImage.110	FOODEEG_Images\0918.jpg	YN	Right	No	1.29498240000248	0	531328	252
1039.8125	1.29498240000248	health	choicePhaseStart	3	144	24	foodImage.110	FOODEEG_Images\0918.jpg	YN	Right	No	1.29498240000248	0	532385	253
1041.09765625	0	health	response	3	144	24	foodImage.110	FOODEEG_Images\0918.jpg	YN	Right	No	1.29498240000248	0	533043	235
1042.140625	1	health	trialStart	3	145	25	foodImage.79	FOODEEG_Images\0794.jpg	NY	Right	Yes	1.57195720000163	0	533577	251
1043.193359375	2	health	foodImageDisplay	3	145	25	foodImage.79	FOODEEG_Images\0794.jpg	NY	Right	Yes	1.57195720000163	0	534116	252
1045.255859375	1.57195720000163	health	choicePhaseStart	3	145	25	foodImage.79	FOODEEG_Images\0794.jpg	NY	Right	Yes	1.57195720000163	0	535172	253
1046.818359375	0	health	response	3	145	25	foodImage.79	FOODEEG_Images\0794.jpg	NY	Right	Yes	1.57195720000163	0	535972	235
1047.861328125	1	health	trialStart	3	146	26	foodImage.8	FOODEEG_Images\0136.jpg	NY	Left	No	1.08052300000054	0	536506	251
1048.90234375	2	health	foodImageDisplay	3	146	26	foodImage.8	FOODEEG_Images\0136.jpg	NY	Left	No	1.08052300000054	0	537039	252
1050.970703125	1.08052300000054	health	choicePhaseStart	3	146	26	foodImage.8	FOODEEG_Images\0136.jpg	NY	Left	No	1.08052300000054	0	538098	253
1052.041015625	0	health	response	3	146	26	foodImage.8	FOODEEG_Images\0136.jpg	NY	Left	No	1.08052300000054	0	538646	234
1053.083984375	1	decision	trialStart	3	147	27	foodImage.7	FOODEEG_Images\0116.jpg	NY	Right	Yes	1.04197399999975	0	539180	251
1054.125	2	decision	foodImageDisplay	3	147	27	foodImage.7	FOODEEG_Images\0116.jpg	NY	Right	Yes	1.04197399999975	0	539713	252
1056.189453125	1.04197399999975	decision	choicePhaseStart	3	147	27	foodImage.7	FOODEEG_Images\0116.jpg	NY	Right	Yes	1.04197399999975	0	540770	253
1057.224609375	0	decision	response	3	147	27	foodImage.7	FOODEEG_Images\0116.jpg	NY	Right	Yes	1.04197399999975	0	541300	235
1058.267578125	1	decision	trialStart	3	148	28	foodImage.13	FOODEEG_Images\0183.jpg	NY	Right	Yes	1.08280450000166	0	541834	251
1059.310546875	2	decision	foodImageDisplay	3	148	28	foodImage.13	FOODEEG_Images\0183.jpg	NY	Right	Yes	1.08280450000166	0	542368	252
1061.375	1.08280450000166	decision	choicePhaseStart	3	148	28	foodImage.13	FOODEEG_Images\0183.jpg	NY	Right	Yes	1.08280450000166	0	543425	253
1062.44921875	0	decision	response	3	148	28	foodImage.13	FOODEEG_Images\0183.jpg	NY	Right	Yes	1.08280450000166	0	543975	235
1063.4921875	1	taste	trialStart	3	149	29	foodImage.9	FOODEEG_Images\0138.jpg	NY	Left	No	3.41214240000045	0	544509	251
1064.55859375	2	taste	foodImageDisplay	3	149	29	foodImage.9	FOODEEG_Images\0138.jpg	NY	Left	No	3.41214240000045	0	545055	252
1066.62109375	3.41214240000045	taste	choicePhaseStart	3	149	29	foodImage.9	FOODEEG_Images\0138.jpg	NY	Left	No	3.41214240000045	0	546111	253
1070.025390625	0	taste	response	3	149	29	foodImage.9	FOODEEG_Images\0138.jpg	NY	Left	No	3.41214240000045	0	547854	234
1071.068359375	1	taste	trialStart	3	150	30	foodImage.101	FOODEEG_Images\0909.jpg	YN	Right	No	1.17476360000001	0	548388	251
1072.10546875	2	taste	foodImageDisplay	3	150	30	foodImage.101	FOODEEG_Images\0909.jpg	YN	Right	No	1.17476360000001	0	548919	252
1074.169921875	1.17476360000001	taste	choicePhaseStart	3	150	30	foodImage.101	FOODEEG_Images\0909.jpg	YN	Right	No	1.17476360000001	0	549976	253
1075.3359375	0	taste	response	3	150	30	foodImage.101	FOODEEG_Images\0909.jpg	YN	Right	No	1.17476360000001	0	550573	235
1076.37890625	1	health	trialStart	3	151	31	foodImage.28	FOODEEG_Images\0273.jpg	YN	Left	Yes	0.958044399998471	0	551107	251
1077.427734375	2	health	foodImageDisplay	3	151	31	foodImage.28	FOODEEG_Images\0273.jpg	YN	Left	Yes	0.958044399998471	0	551644	252
1079.490234375	0.958044399998471	health	choicePhaseStart	3	151	31	foodImage.28	FOODEEG_Images\0273.jpg	YN	Left	Yes	0.958044399998471	0	552700	253
1080.439453125	0	health	response	3	151	31	foodImage.28	FOODEEG_Images\0273.jpg	YN	Left	Yes	0.958044399998471	0	553186	234
1081.48828125	1	taste	trialStart	3	152	32	foodImage.67	FOODEEG_Images\0679.jpg	YN	Left	Yes	0.830883800001175	0	553723	251
1082.546875	2	taste	foodImageDisplay	3	152	32	foodImage.67	FOODEEG_Images\0679.jpg	YN	Left	Yes	0.830883800001175	0	554265	252
1084.609375	0.830883800001175	taste	choicePhaseStart	3	152	32	foodImage.67	FOODEEG_Images\0679.jpg	YN	Left	Yes	0.830883800001175	0	555321	253
1085.431640625	0	taste	response	3	152	32	foodImage.67	FOODEEG_Images\0679.jpg	YN	Left	Yes	0.830883800001175	0	555742	234
1086.474609375	1	decision	trialStart	3	153	33	foodImage.95	FOODEEG_Images\0903.jpg	YN	Right	No	0.888806300001306	0	556276	251
1087.51171875	2	decision	foodImageDisplay	3	153	33	foodImage.95	FOODEEG_Images\0903.jpg	YN	Right	No	0.888806300001306	0	556807	252
1089.576171875	0.888806300001306	decision	choicePhaseStart	3	153	33	foodImage.95	FOODEEG_Images\0903.jpg	YN	Right	No	0.888806300001306	0	557864	253
1090.455078125	0	decision	response	3	153	33	foodImage.95	FOODEEG_Images\0903.jpg	YN	Right	No	0.888806300001306	0	558314	235
1091.50390625	1	decision	trialStart	3	154	34	foodImage.11	FOODEEG_Images\0180.jpg	NY	Left	No	1.01028060000317	0	558851	251
1092.546875	2	decision	foodImageDisplay	3	154	34	foodImage.11	FOODEEG_Images\0180.jpg	NY	Left	No	1.01028060000317	0	559385	252
1094.61328125	1.01028060000317	decision	choicePhaseStart	3	154	34	foodImage.11	FOODEEG_Images\0180.jpg	NY	Left	No	1.01028060000317	0	560443	253
1095.615234375	0	decision	response	3	154	34	foodImage.11	FOODEEG_Images\0180.jpg	NY	Left	No	1.01028060000317	0	560956	234
1096.66015625	1	decision	trialStart	3	155	35	foodImage.90	FOODEEG_Images\0890.jpg	NY	Right	Yes	2.00926059999983	0	561491	251
1097.720703125	2	decision	foodImageDisplay	3	155	35	foodImage.90	FOODEEG_Images\0890.jpg	NY	Right	Yes	2.00926059999983	0	562034	252
1099.783203125	2.00926059999983	decision	choicePhaseStart	3	155	35	foodImage.90	FOODEEG_Images\0890.jpg	NY	Right	Yes	2.00926059999983	0	563090	253
1101.783203125	0	decision	response	3	155	35	foodImage.90	FOODEEG_Images\0890.jpg	NY	Right	Yes	2.00926059999983	0	564114	235
1102.826171875	1	health	trialStart	3	156	36	foodImage.111	FOODEEG_Images\0919.jpg	YN	Right	No	1.36853490000067	0	564648	251
1103.86328125	2	health	foodImageDisplay	3	156	36	foodImage.111	FOODEEG_Images\0919.jpg	YN	Right	No	1.36853490000067	0	565179	252
1105.927734375	1.36853490000067	health	choicePhaseStart	3	156	36	foodImage.111	FOODEEG_Images\0919.jpg	YN	Right	No	1.36853490000067	0	566236	253
1107.287109375	0	health	response	3	156	36	foodImage.111	FOODEEG_Images\0919.jpg	YN	Right	No	1.36853490000067	0	566932	235
1108.330078125	1	decision	trialStart	3	157	37	foodImage.44	FOODEEG_Images\0459.jpg	YN	Left	Yes	1.00201129999914	0	567466	251
1109.375	2	decision	foodImageDisplay	3	157	37	foodImage.44	FOODEEG_Images\0459.jpg	YN	Left	Yes	1.00201129999914	0	568001	252
1111.4375	1.00201129999914	decision	choicePhaseStart	3	157	37	foodImage.44	FOODEEG_Images\0459.jpg	YN	Left	Yes	1.00201129999914	0	569057	253
1112.431640625	0	decision	response	3	157	37	foodImage.44	FOODEEG_Images\0459.jpg	YN	Left	Yes	1.00201129999914	0	569566	234
1113.474609375	1	taste	trialStart	3	158	38	foodImage.15	FOODEEG_Images\0189.jpg	NY	Right	Yes	1.20162190000337	0	570100	251
1114.53515625	2	taste	foodImageDisplay	3	158	38	foodImage.15	FOODEEG_Images\0189.jpg	NY	Right	Yes	1.20162190000337	0	570643	252
1116.59765625	1.20162190000337	taste	choicePhaseStart	3	158	38	foodImage.15	FOODEEG_Images\0189.jpg	NY	Right	Yes	1.20162190000337	0	571699	253
1117.791015625	0	taste	response	3	158	38	foodImage.15	FOODEEG_Images\0189.jpg	NY	Right	Yes	1.20162190000337	0	572310	235
1118.8359375	1	health	trialStart	3	159	39	foodImage.29	FOODEEG_Images\0278.jpg	NY	Right	Yes	0.851043499998923	0	572845	251
1119.876953125	2	health	foodImageDisplay	3	159	39	foodImage.29	FOODEEG_Images\0278.jpg	NY	Right	Yes	0.851043499998923	0	573378	252
1121.94140625	0.851043499998923	health	choicePhaseStart	3	159	39	foodImage.29	FOODEEG_Images\0278.jpg	NY	Right	Yes	0.851043499998923	0	574435	253
1122.783203125	0	health	response	3	159	39	foodImage.29	FOODEEG_Images\0278.jpg	NY	Right	Yes	0.851043499998923	0	574866	235
1123.82421875	1	taste	trialStart	3	160	40	foodImage.35	FOODEEG_Images\0350.jpg	NY	Right	Yes	1.77308510000148	0	575399	251
1124.865234375	2	taste	foodImageDisplay	3	160	40	foodImage.35	FOODEEG_Images\0350.jpg	NY	Right	Yes	1.77308510000148	0	575932	252
1126.9296875	1.77308510000148	taste	choicePhaseStart	3	160	40	foodImage.35	FOODEEG_Images\0350.jpg	NY	Right	Yes	1.77308510000148	0	576989	253
1128.693359375	0	taste	response	3	160	40	foodImage.35	FOODEEG_Images\0350.jpg	NY	Right	Yes	1.77308510000148	0	577892	235
1129.73828125	1	health	trialStart	3	161	41	foodImage.27	FOODEEG_Images\0263.jpg	YN	Left	Yes	1.24172840000028	0	578427	251
1130.779296875	2	health	foodImageDisplay	3	161	41	foodImage.27	FOODEEG_Images\0263.jpg	YN	Left	Yes	1.24172840000028	0	578960	252
1132.84375	1.24172840000028	health	choicePhaseStart	3	161	41	foodImage.27	FOODEEG_Images\0263.jpg	YN	Left	Yes	1.24172840000028	0	580017	253
1134.078125	0	health	response	3	161	41	foodImage.27	FOODEEG_Images\0263.jpg	YN	Left	Yes	1.24172840000028	0	580649	234
1135.123046875	1	taste	trialStart	3	162	42	foodImage.98	FOODEEG_Images\0906.jpg	YN	Right	No	1.26160789999994	0	581184	251
1136.162109375	2	taste	foodImageDisplay	3	162	42	foodImage.98	FOODEEG_Images\0906.jpg	YN	Right	No	1.26160789999994	0	581716	252
1138.224609375	1.26160789999994	taste	choicePhaseStart	3	162	42	foodImage.98	FOODEEG_Images\0906.jpg	YN	Right	No	1.26160789999994	0	582772	253
1139.478515625	0	taste	response	3	162	42	foodImage.98	FOODEEG_Images\0906.jpg	YN	Right	No	1.26160789999994	0	583414	235
1140.521484375	1	taste	trialStart	3	163	43	foodImage.52	FOODEEG_Images\0539.jpg	YN	Left	Yes	0.819432500000403	0	583948	251
1141.580078125	2	taste	foodImageDisplay	3	163	43	foodImage.52	FOODEEG_Images\0539.jpg	YN	Left	Yes	0.819432500000403	0	584490	252
1143.642578125	0.819432500000403	taste	choicePhaseStart	3	163	43	foodImage.52	FOODEEG_Images\0539.jpg	YN	Left	Yes	0.819432500000403	0	585546	253
1144.453125	0	taste	response	3	163	43	foodImage.52	FOODEEG_Images\0539.jpg	YN	Left	Yes	0.819432500000403	0	585961	234
1145.498046875	1	health	trialStart	3	164	44	foodImage.33	FOODEEG_Images\0329.jpg	NY	Right	Yes	1.14660490000097	0	586496	251
1146.5390625	2	health	foodImageDisplay	3	164	44	foodImage.33	FOODEEG_Images\0329.jpg	NY	Right	Yes	1.14660490000097	0	587029	252
1148.603515625	1.14660490000097	health	choicePhaseStart	3	164	44	foodImage.33	FOODEEG_Images\0329.jpg	NY	Right	Yes	1.14660490000097	0	588086	253
1149.740234375	0	health	response	3	164	44	foodImage.33	FOODEEG_Images\0329.jpg	NY	Right	Yes	1.14660490000097	0	588668	235
1150.78515625	1	health	trialStart	3	165	45	foodImage.51	FOODEEG_Images\0536.jpg	YN	Right	No	1.13709459999882	0	589203	251
1151.830078125	2	health	foodImageDisplay	3	165	45	foodImage.51	FOODEEG_Images\0536.jpg	YN	Right	No	1.13709459999882	0	589738	252
1153.892578125	1.13709459999882	health	choicePhaseStart	3	165	45	foodImage.51	FOODEEG_Images\0536.jpg	YN	Right	No	1.13709459999882	0	590794	253
1155.021484375	0	health	response	3	165	45	foodImage.51	FOODEEG_Images\0536.jpg	YN	Right	No	1.13709459999882	0	591372	235
1156.068359375	1	decision	trialStart	3	166	46	foodImage.84	FOODEEG_Images\0830.jpg	YN	Left	Yes	1.00278170000092	0	591908	251
1157.125	2	decision	foodImageDisplay	3	166	46	foodImage.84	FOODEEG_Images\0830.jpg	YN	Left	Yes	1.00278170000092	0	592449	252
1159.193359375	1.00278170000092	decision	choicePhaseStart	3	166	46	foodImage.84	FOODEEG_Images\0830.jpg	YN	Left	Yes	1.00278170000092	0	593508	253
1160.189453125	0	decision	response	3	166	46	foodImage.84	FOODEEG_Images\0830.jpg	YN	Left	Yes	1.00278170000092	0	594018	234
1161.232421875	1	health	trialStart	3	167	47	foodImage.80	FOODEEG_Images\0796.jpg	YN	Left	Yes	0.88852659999975	0	594552	251
1162.287109375	2	health	foodImageDisplay	3	167	47	foodImage.80	FOODEEG_Images\0796.jpg	YN	Left	Yes	0.88852659999975	0	595092	252
1164.349609375	0.88852659999975	health	choicePhaseStart	3	167	47	foodImage.80	FOODEEG_Images\0796.jpg	YN	Left	Yes	0.88852659999975	0	596148	253
1165.228515625	0	health	response	3	167	47	foodImage.80	FOODEEG_Images\0796.jpg	YN	Left	Yes	0.88852659999975	0	596598	234
1166.271484375	1	decision	trialStart	3	168	48	foodImage.120	FOODEEG_Images\0928.jpg	YN	Right	No	0.831731300000683	0	597132	251
1167.310546875	2	decision	foodImageDisplay	3	168	48	foodImage.120	FOODEEG_Images\0928.jpg	YN	Right	No	0.831731300000683	0	597664	252
1169.373046875	0.831731300000683	decision	choicePhaseStart	3	168	48	foodImage.120	FOODEEG_Images\0928.jpg	YN	Right	No	0.831731300000683	0	598720	253
1170.1953125	0	decision	response	3	168	48	foodImage.120	FOODEEG_Images\0928.jpg	YN	Right	No	0.831731300000683	0	599141	235
1171.240234375	1	decision	trialStart	3	169	49	foodImage.73	FOODEEG_Images\0717.jpg	NY	Right	Yes	1.28928489999817	0	599676	251
1172.298828125	2	decision	foodImageDisplay	3	169	49	foodImage.73	FOODEEG_Images\0717.jpg	NY	Right	Yes	1.28928489999817	0	600218	252
1174.365234375	1.28928489999817	decision	choicePhaseStart	3	169	49	foodImage.73	FOODEEG_Images\0717.jpg	NY	Right	Yes	1.28928489999817	0	601276	253
1175.64453125	0	decision	response	3	169	49	foodImage.73	FOODEEG_Images\0717.jpg	NY	Right	Yes	1.28928489999817	0	601931	235
1176.685546875	1	taste	trialStart	3	170	50	foodImage.58	FOODEEG_Images\0605.jpg	YN	Left	Yes	1.18941819999964	0	602464	251
1177.744140625	2	taste	foodImageDisplay	3	170	50	foodImage.58	FOODEEG_Images\0605.jpg	YN	Left	Yes	1.18941819999964	0	603006	252
1179.80859375	1.18941819999964	taste	choicePhaseStart	3	170	50	foodImage.58	FOODEEG_Images\0605.jpg	YN	Left	Yes	1.18941819999964	0	604063	253
1180.98828125	0	taste	response	3	170	50	foodImage.58	FOODEEG_Images\0605.jpg	YN	Left	Yes	1.18941819999964	0	604667	234
1182.03125	1	decision	trialStart	3	171	51	foodImage.19	FOODEEG_Images\0225.jpg	YN	Left	Yes	1.09290770000007	0	605201	251
1183.072265625	2	decision	foodImageDisplay	3	171	51	foodImage.19	FOODEEG_Images\0225.jpg	YN	Left	Yes	1.09290770000007	0	605734	252
1185.13671875	1.09290770000007	decision	choicePhaseStart	3	171	51	foodImage.19	FOODEEG_Images\0225.jpg	YN	Left	Yes	1.09290770000007	0	606791	253
1186.21875	0	decision	response	3	171	51	foodImage.19	FOODEEG_Images\0225.jpg	YN	Left	Yes	1.09290770000007	0	607345	234
1187.271484375	1	decision	trialStart	3	172	52	foodImage.88	FOODEEG_Images\0878.jpg	NY	Right	Yes	1.28584599999886	0	607884	251
1188.328125	2	decision	foodImageDisplay	3	172	52	foodImage.88	FOODEEG_Images\0878.jpg	NY	Right	Yes	1.28584599999886	0	608425	252
1190.390625	1.28584599999886	decision	choicePhaseStart	3	172	52	foodImage.88	FOODEEG_Images\0878.jpg	NY	Right	Yes	1.28584599999886	0	609481	253
1191.66796875	0	decision	response	3	172	52	foodImage.88	FOODEEG_Images\0878.jpg	NY	Right	Yes	1.28584599999886	0	610135	235
1192.7109375	1	decision	trialStart	3	173	53	foodImage.115	FOODEEG_Images\0923.jpg	NY	Left	No	1.16883170000074	0	610669	251
1193.755859375	2	decision	foodImageDisplay	3	173	53	foodImage.115	FOODEEG_Images\0923.jpg	NY	Left	No	1.16883170000074	0	611204	252
1195.8203125	1.16883170000074	decision	choicePhaseStart	3	173	53	foodImage.115	FOODEEG_Images\0923.jpg	NY	Left	No	1.16883170000074	0	612261	253
1196.978515625	0	decision	response	3	173	53	foodImage.115	FOODEEG_Images\0923.jpg	NY	Left	No	1.16883170000074	0	612854	234
1198.025390625	1	decision	trialStart	3	174	54	foodImage.85	FOODEEG_Images\0841.jpg	YN	Left	Yes	1.79232609999963	0	613390	251
1199.08984375	2	decision	foodImageDisplay	3	174	54	foodImage.85	FOODEEG_Images\0841.jpg	YN	Left	Yes	1.79232609999963	0	613935	252
1201.154296875	1.79232609999963	decision	choicePhaseStart	3	174	54	foodImage.85	FOODEEG_Images\0841.jpg	YN	Left	Yes	1.79232609999963	0	614992	253
1202.939453125	0	decision	response	3	174	54	foodImage.85	FOODEEG_Images\0841.jpg	YN	Left	Yes	1.79232609999963	0	615906	234
1203.982421875	1	health	trialStart	3	175	55	foodImage.106	FOODEEG_Images\0914.jpg	YN	Right	No	1.3539294000002	0	616440	251
1205.02734375	2	health	foodImageDisplay	3	175	55	foodImage.106	FOODEEG_Images\0914.jpg	YN	Right	No	1.3539294000002	0	616975	252
1207.08984375	1.3539294000002	health	choicePhaseStart	3	175	55	foodImage.106	FOODEEG_Images\0914.jpg	YN	Right	No	1.3539294000002	0	618031	253
1208.435546875	0	health	response	3	175	55	foodImage.106	FOODEEG_Images\0914.jpg	YN	Right	No	1.3539294000002	0	618720	235
1209.4765625	1	taste	trialStart	3	176	56	foodImage.72	FOODEEG_Images\0714.jpg	YN	Left	Yes	1.75713629999882	0	619253	251
1210.51953125	2	taste	foodImageDisplay	3	176	56	foodImage.72	FOODEEG_Images\0714.jpg	YN	Left	Yes	1.75713629999882	0	619787	252
1212.58203125	1.75713629999882	taste	choicePhaseStart	3	176	56	foodImage.72	FOODEEG_Images\0714.jpg	YN	Left	Yes	1.75713629999882	0	620843	253
1214.330078125	0	taste	response	3	176	56	foodImage.72	FOODEEG_Images\0714.jpg	YN	Left	Yes	1.75713629999882	0	621738	234
1215.375	1	health	trialStart	3	177	57	foodImage.87	FOODEEG_Images\0873.jpg	NY	Right	Yes	0.947635299999092	0	622273	251
1216.43359375	2	health	foodImageDisplay	3	177	57	foodImage.87	FOODEEG_Images\0873.jpg	NY	Right	Yes	0.947635299999092	0	622815	252
1218.49609375	0.947635299999092	health	choicePhaseStart	3	177	57	foodImage.87	FOODEEG_Images\0873.jpg	NY	Right	Yes	0.947635299999092	0	623871	253
1219.43359375	0	health	response	3	177	57	foodImage.87	FOODEEG_Images\0873.jpg	NY	Right	Yes	0.947635299999092	0	624351	235
1220.4765625	1	health	trialStart	3	178	58	foodImage.11	FOODEEG_Images\0180.jpg	NY	Right	Yes	1.42893309999999	0	624885	251
1221.51953125	2	health	foodImageDisplay	3	178	58	foodImage.11	FOODEEG_Images\0180.jpg	NY	Right	Yes	1.42893309999999	0	625419	252
1223.583984375	1.42893309999999	health	choicePhaseStart	3	178	58	foodImage.11	FOODEEG_Images\0180.jpg	NY	Right	Yes	1.42893309999999	0	626476	253
1225.001953125	0	health	response	3	178	58	foodImage.11	FOODEEG_Images\0180.jpg	NY	Right	Yes	1.42893309999999	0	627202	235
1226.044921875	1	decision	trialStart	3	179	59	foodImage.30	FOODEEG_Images\0282.jpg	NY	Right	Yes	1.19729789999838	0	627736	251
1227.087890625	2	decision	foodImageDisplay	3	179	59	foodImage.30	FOODEEG_Images\0282.jpg	NY	Right	Yes	1.19729789999838	0	628270	252
1229.15625	1.19729789999838	decision	choicePhaseStart	3	179	59	foodImage.30	FOODEEG_Images\0282.jpg	NY	Right	Yes	1.19729789999838	0	629329	253
1230.345703125	0	decision	response	3	179	59	foodImage.30	FOODEEG_Images\0282.jpg	NY	Right	Yes	1.19729789999838	0	629938	235
1231.39453125	1	taste	trialStart	3	180	60	foodImage.86	FOODEEG_Images\0844.jpg	NY	Right	Yes	0.98297630000161	0	630475	251
1232.453125	2	taste	foodImageDisplay	3	180	60	foodImage.86	FOODEEG_Images\0844.jpg	NY	Right	Yes	0.98297630000161	0	631017	252
1234.515625	0.98297630000161	taste	choicePhaseStart	3	180	60	foodImage.86	FOODEEG_Images\0844.jpg	NY	Right	Yes	0.98297630000161	0	632073	253
1235.490234375	0	taste	response	3	180	60	foodImage.86	FOODEEG_Images\0844.jpg	NY	Right	Yes	0.98297630000161	0	632572	235
1237.537109375	17.61328125	n/a	blockEnd	n/a	n/a	n/a	n/a	n/a	n/a	n/a	n/a	n/a	n/a	633620	254
1255.150390625	2	n/a	blockStart	4	n/a	n/a	n/a	n/a	n/a	n/a	n/a	n/a	n/a	642638	250
1257.181640625	1	taste	trialStart	4	181	1	foodImage.102	FOODEEG_Images\0910.jpg	YN	Right	No	1.14920820000043	0	643678	251
1258.22265625	2	taste	foodImageDisplay	4	181	1	foodImage.102	FOODEEG_Images\0910.jpg	YN	Right	No	1.14920820000043	0	644211	252
1260.29296875	1.14920820000043	taste	choicePhaseStart	4	181	1	foodImage.102	FOODEEG_Images\0910.jpg	YN	Right	No	1.14920820000043	0	645271	253
1261.43359375	0	taste	response	4	181	1	foodImage.102	FOODEEG_Images\0910.jpg	YN	Right	No	1.14920820000043	0	645855	235
1262.4765625	1	taste	trialStart	4	182	2	foodImage.87	FOODEEG_Images\0873.jpg	YN	Left	Yes	0.708617700001923	0	646389	251
1263.533203125	2	taste	foodImageDisplay	4	182	2	foodImage.87	FOODEEG_Images\0873.jpg	YN	Left	Yes	0.708617700001923	0	646930	252
1265.595703125	0.708617700001923	taste	choicePhaseStart	4	182	2	foodImage.87	FOODEEG_Images\0873.jpg	YN	Left	Yes	0.708617700001923	0	647986	253
1266.296875	0	taste	response	4	182	2	foodImage.87	FOODEEG_Images\0873.jpg	YN	Left	Yes	0.708617700001923	0	648345	234
1267.33984375	1	health	trialStart	4	183	3	foodImage.24	FOODEEG_Images\0250.jpg	NY	Right	Yes	0.912895599998592	0	648879	251
1268.38671875	2	health	foodImageDisplay	4	183	3	foodImage.24	FOODEEG_Images\0250.jpg	NY	Right	Yes	0.912895599998592	0	649415	252
1270.44921875	0.912895599998592	health	choicePhaseStart	4	183	3	foodImage.24	FOODEEG_Images\0250.jpg	NY	Right	Yes	0.912895599998592	0	650471	253
1271.3515625	0	health	response	4	183	3	foodImage.24	FOODEEG_Images\0250.jpg	NY	Right	Yes	0.912895599998592	0	650933	235
1272.396484375	1	taste	trialStart	4	184	4	foodImage.111	FOODEEG_Images\0919.jpg	NY	Left	No	0.962665999999444	0	651468	251
1273.43359375	2	taste	foodImageDisplay	4	184	4	foodImage.111	FOODEEG_Images\0919.jpg	NY	Left	No	0.962665999999444	0	651999	252
1275.50390625	0.962665999999444	taste	choicePhaseStart	4	184	4	foodImage.111	FOODEEG_Images\0919.jpg	NY	Left	No	0.962665999999444	0	653059	253
1276.45703125	0	taste	response	4	184	4	foodImage.111	FOODEEG_Images\0919.jpg	NY	Left	No	0.962665999999444	0	653547	234
1277.5	1	decision	trialStart	4	185	5	foodImage.25	FOODEEG_Images\0261.jpg	YN	Left	Yes	1.02042160000201	0	654081	251
1278.541015625	2	decision	foodImageDisplay	4	185	5	foodImage.25	FOODEEG_Images\0261.jpg	YN	Left	Yes	1.02042160000201	0	654614	252
1280.60546875	1.02042160000201	decision	choicePhaseStart	4	185	5	foodImage.25	FOODEEG_Images\0261.jpg	YN	Left	Yes	1.02042160000201	0	655671	253
1281.615234375	0	decision	response	4	185	5	foodImage.25	FOODEEG_Images\0261.jpg	YN	Left	Yes	1.02042160000201	0	656188	234
1282.658203125	1	taste	trialStart	4	186	6	foodImage.49	FOODEEG_Images\0515.jpg	NY	Right	Yes	1.02159010000105	0	656722	251
1283.69921875	2	taste	foodImageDisplay	4	186	6	foodImage.49	FOODEEG_Images\0515.jpg	NY	Right	Yes	1.02159010000105	0	657255	252
1285.763671875	1.02159010000105	taste	choicePhaseStart	4	186	6	foodImage.49	FOODEEG_Images\0515.jpg	NY	Right	Yes	1.02159010000105	0	658312	253
1286.775390625	0	taste	response	4	186	6	foodImage.49	FOODEEG_Images\0515.jpg	NY	Right	Yes	1.02159010000105	0	658830	235
1287.818359375	1	decision	trialStart	4	187	7	foodImage.21	FOODEEG_Images\0234.jpg	NY	Right	Yes	1.13084119999985	0	659364	251
1288.87890625	2	decision	foodImageDisplay	4	187	7	foodImage.21	FOODEEG_Images\0234.jpg	NY	Right	Yes	1.13084119999985	0	659907	252
1290.94140625	1.13084119999985	decision	choicePhaseStart	4	187	7	foodImage.21	FOODEEG_Images\0234.jpg	NY	Right	Yes	1.13084119999985	0	660963	253
1292.064453125	0	decision	response	4	187	7	foodImage.21	FOODEEG_Images\0234.jpg	NY	Right	Yes	1.13084119999985	0	661538	235
1293.10546875	1	taste	trialStart	4	188	8	foodImage.82	FOODEEG_Images\0805.jpg	NY	Left	No	2.14030920000005	0	662071	251
1294.16015625	2	taste	foodImageDisplay	4	188	8	foodImage.82	FOODEEG_Images\0805.jpg	NY	Left	No	2.14030920000005	0	662611	252
1296.2265625	2.14030920000005	taste	choicePhaseStart	4	188	8	foodImage.82	FOODEEG_Images\0805.jpg	NY	Left	No	2.14030920000005	0	663669	253
1298.359375	0	taste	response	4	188	8	foodImage.82	FOODEEG_Images\0805.jpg	NY	Left	No	2.14030920000005	0	664761	234
1299.40234375	1	health	trialStart	4	189	9	foodImage.54	FOODEEG_Images\0560.jpg	NY	Right	Yes	1.22359910000159	0	665295	251
1300.45703125	2	health	foodImageDisplay	4	189	9	foodImage.54	FOODEEG_Images\0560.jpg	NY	Right	Yes	1.22359910000159	0	665835	252
1302.521484375	1.22359910000159	health	choicePhaseStart	4	189	9	foodImage.54	FOODEEG_Images\0560.jpg	NY	Right	Yes	1.22359910000159	0	666892	253
1303.734375	0	health	response	4	189	9	foodImage.54	FOODEEG_Images\0560.jpg	NY	Right	Yes	1.22359910000159	0	667513	235
1304.779296875	1	health	trialStart	4	190	10	foodImage.113	FOODEEG_Images\0921.jpg	YN	Left	Yes	0.967972100002953	0	668048	251
1305.81640625	2	health	foodImageDisplay	4	190	10	foodImage.113	FOODEEG_Images\0921.jpg	YN	Left	Yes	0.967972100002953	0	668579	252
1307.880859375	0.967972100002953	health	choicePhaseStart	4	190	10	foodImage.113	FOODEEG_Images\0921.jpg	YN	Left	Yes	0.967972100002953	0	669636	253
1308.83984375	0	health	response	4	190	10	foodImage.113	FOODEEG_Images\0921.jpg	YN	Left	Yes	0.967972100002953	0	670127	234
1309.8828125	1	health	trialStart	4	191	11	foodImage.72	FOODEEG_Images\0714.jpg	NY	Right	Yes	0.793076999998448	0	670661	251
1310.927734375	2	health	foodImageDisplay	4	191	11	foodImage.72	FOODEEG_Images\0714.jpg	NY	Right	Yes	0.793076999998448	0	671196	252
1312.990234375	0.793076999998448	health	choicePhaseStart	4	191	11	foodImage.72	FOODEEG_Images\0714.jpg	NY	Right	Yes	0.793076999998448	0	672252	253
1313.775390625	0	health	response	4	191	11	foodImage.72	FOODEEG_Images\0714.jpg	NY	Right	Yes	0.793076999998448	0	672654	235
1314.8203125	1	taste	trialStart	4	192	12	foodImage.27	FOODEEG_Images\0263.jpg	YN	Left	Yes	0.848973299998761	0	673189	251
1315.86328125	2	taste	foodImageDisplay	4	192	12	foodImage.27	FOODEEG_Images\0263.jpg	YN	Left	Yes	0.848973299998761	0	673723	252
1317.92578125	0.848973299998761	taste	choicePhaseStart	4	192	12	foodImage.27	FOODEEG_Images\0263.jpg	YN	Left	Yes	0.848973299998761	0	674779	253
1318.767578125	0	taste	response	4	192	12	foodImage.27	FOODEEG_Images\0263.jpg	YN	Left	Yes	0.848973299998761	0	675210	234
1319.80859375	1	health	trialStart	4	193	13	foodImage.56	FOODEEG_Images\0586.jpg	NY	Right	Yes	1.21387269999832	0	675743	251
1320.8515625	2	health	foodImageDisplay	4	193	13	foodImage.56	FOODEEG_Images\0586.jpg	NY	Right	Yes	1.21387269999832	0	676277	252
1322.9140625	1.21387269999832	health	choicePhaseStart	4	193	13	foodImage.56	FOODEEG_Images\0586.jpg	NY	Right	Yes	1.21387269999832	0	677333	253
