onset	duration	trial_type	event_type	block	trial_total	trial_in_block	food_image_code	food_image_path	button_position	resp_position	resp_choice	choice_rt	resp_too_slow	sample	trigger
282.275390625	2	n/a	blockStart	1	n/a	n/a	n/a	n/a	n/a	n/a	n/a	n/a	n/a	144526	250
284.3125	1	decision	trialStart	1	1	1	foodImage.17	FOODEEG_Images\0199.jpg	NY	Right	Yes	0.963613099884242	0	145569	251
285.359375	2	decision	foodImageDisplay	1	1	1	foodImage.17	FOODEEG_Images\0199.jpg	NY	Right	Yes	0.963613099884242	0	146105	252
287.423828125	0.963613099884242	decision	choicePhaseStart	1	1	1	foodImage.17	FOODEEG_Images\0199.jpg	NY	Right	Yes	0.963613099884242	0	147162	253
288.37890625	0	decision	response	1	1	1	foodImage.17	FOODEEG_Images\0199.jpg	NY	Right	Yes	0.963613099884242	0	147651	235
289.521484375	1	health	trialStart	1	2	2	foodImage.114	FOODEEG_Images\0922.jpg	NY	Left	No	1.31335350009613	0	148236	251
290.5625	2	health	foodImageDisplay	1	2	2	foodImage.114	FOODEEG_Images\0922.jpg	NY	Left	No	1.31335350009613	0	148769	252
292.625	1.31335350009613	health	choicePhaseStart	1	2	2	foodImage.114	FOODEEG_Images\0922.jpg	NY	Left	No	1.31335350009613	0	149825	253
293.9296875	0	health	response	1	2	2	foodImage.114	FOODEEG_Images\0922.jpg	NY	Left	No	1.31335350009613	0	150493	234
294.986328125	1	decision	trialStart	1	3	3	foodImage.79	FOODEEG_Images\0794.jpg	NY	Right	Yes	0.979960599914193	0	151034	251
296.03125	2	decision	foodImageDisplay	1	3	3	foodImage.79	FOODEEG_Images\0794.jpg	NY	Right	Yes	0.979960599914193	0	151569	252
298.095703125	0.979960599914193	decision	choicePhaseStart	1	3	3	foodImage.79	FOODEEG_Images\0794.jpg	NY	Right	Yes	0.979960599914193	0	152626	253
299.06640625	0	decision	response	1	3	3	foodImage.79	FOODEEG_Images\0794.jpg	NY	Right	Yes	0.979960599914193	0	153123	235
300.11328125	1	taste	trialStart	1	4	4	foodImage.72	FOODEEG_Images\0714.jpg	YN	Right	No	0.986376099986956	0	153659	251
301.16015625	2	taste	foodImageDisplay	1	4	4	foodImage.72	FOODEEG_Images\0714.jpg	YN	Right	No	0.986376099986956	0	154195	252
303.224609375	0.986376099986956	taste	choicePhaseStart	1	4	4	foodImage.72	FOODEEG_Images\0714.jpg	YN	Right	No	0.986376099986956	0	155252	253
304.201171875	0	taste	response	1	4	4	foodImage.72	FOODEEG_Images\0714.jpg	YN	Right	No	0.986376099986956	0	155752	235
305.248046875	1	taste	trialStart	1	5	5	foodImage.25	FOODEEG_Images\0261.jpg	YN	Left	Yes	1.34540200000629	0	156288	251
306.294921875	2	taste	foodImageDisplay	1	5	5	foodImage.25	FOODEEG_Images\0261.jpg	YN	Left	Yes	1.34540200000629	0	156824	252
308.359375	1.34540200000629	taste	choicePhaseStart	1	5	5	foodImage.25	FOODEEG_Images\0261.jpg	YN	Left	Yes	1.34540200000629	0	157881	253
309.697265625	0	taste	response	1	5	5	foodImage.25	FOODEEG_Images\0261.jpg	YN	Left	Yes	1.34540200000629	0	158566	234
310.748046875	1	decision	trialStart	1	6	6	foodImage.6	FOODEEG_Images\0113.jpg	NY	Right	Yes	0.874943200033158	0	159104	251
311.791015625	2	decision	foodImageDisplay	1	6	6	foodImage.6	FOODEEG_Images\0113.jpg	NY	Right	Yes	0.874943200033158	0	159638	252
313.85546875	0.874943200033158	decision	choicePhaseStart	1	6	6	foodImage.6	FOODEEG_Images\0113.jpg	NY	Right	Yes	0.874943200033158	0	160695	253
314.720703125	0	decision	response	1	6	6	foodImage.6	FOODEEG_Images\0113.jpg	NY	Right	Yes	0.874943200033158	0	161138	235
315.765625	1	decision	trialStart	1	7	7	foodImage.31	FOODEEG_Images\0294.jpg	NY	Right	Yes	1.03265350009315	0	161673	251
316.810546875	2	decision	foodImageDisplay	1	7	7	foodImage.31	FOODEEG_Images\0294.jpg	NY	Right	Yes	1.03265350009315	0	162208	252
318.873046875	1.03265350009315	decision	choicePhaseStart	1	7	7	foodImage.31	FOODEEG_Images\0294.jpg	NY	Right	Yes	1.03265350009315	0	163264	253
319.8984375	0	decision	response	1	7	7	foodImage.31	FOODEEG_Images\0294.jpg	NY	Right	Yes	1.03265350009315	0	163789	235
320.94140625	1	health	trialStart	1	8	8	foodImage.45	FOODEEG_Images\0478.jpg	NY	Right	Yes	0.741655300138518	0	164323	251
321.98828125	2	health	foodImageDisplay	1	8	8	foodImage.45	FOODEEG_Images\0478.jpg	NY	Right	Yes	0.741655300138518	0	164859	252
324.052734375	0.741655300138518	health	choicePhaseStart	1	8	8	foodImage.45	FOODEEG_Images\0478.jpg	NY	Right	Yes	0.741655300138518	0	165916	253
324.78515625	0	health	response	1	8	8	foodImage.45	FOODEEG_Images\0478.jpg	NY	Right	Yes	0.741655300138518	0	166291	235
325.828125	1	taste	trialStart	1	9	9	foodImage.38	FOODEEG_Images\0365.jpg	NY	Right	Yes	0.791342600015923	0	166825	251
326.8671875	2	taste	foodImageDisplay	1	9	9	foodImage.38	FOODEEG_Images\0365.jpg	NY	Right	Yes	0.791342600015923	0	167357	252
328.9296875	0.791342600015923	taste	choicePhaseStart	1	9	9	foodImage.38	FOODEEG_Images\0365.jpg	NY	Right	Yes	0.791342600015923	0	168413	253
329.712890625	0	taste	response	1	9	9	foodImage.38	FOODEEG_Images\0365.jpg	NY	Right	Yes	0.791342600015923	0	168814	235
330.755859375	1	decision	trialStart	1	10	10	foodImage.20	FOODEEG_Images\0226.jpg	NY	Right	Yes	0.772600299911574	0	169348	251
331.796875	2	decision	foodImageDisplay	1	10	10	foodImage.20	FOODEEG_Images\0226.jpg	NY	Right	Yes	0.772600299911574	0	169881	252
333.861328125	0.772600299911574	decision	choicePhaseStart	1	10	10	foodImage.20	FOODEEG_Images\0226.jpg	NY	Right	Yes	0.772600299911574	0	170938	253
334.625	0	decision	response	1	10	10	foodImage.20	FOODEEG_Images\0226.jpg	NY	Right	Yes	0.772600299911574	0	171329	235
335.666015625	1	taste	trialStart	1	11	11	foodImage.44	FOODEEG_Images\0459.jpg	NY	Right	Yes	0.980722599895671	0	171862	251
336.7109375	2	taste	foodImageDisplay	1	11	11	foodImage.44	FOODEEG_Images\0459.jpg	NY	Right	Yes	0.980722599895671	0	172397	252
338.7734375	0.980722599895671	taste	choicePhaseStart	1	11	11	foodImage.44	FOODEEG_Images\0459.jpg	NY	Right	Yes	0.980722599895671	0	173453	253
339.744140625	0	taste	response	1	11	11	foodImage.44	FOODEEG_Images\0459.jpg	NY	Right	Yes	0.980722599895671	0	173950	235
340.787109375	1	taste	trialStart	1	12	12	foodImage.93	FOODEEG_Images\0901.jpg	NY	Right	Yes	0.671551899984479	0	174484	251
341.826171875	2	taste	foodImageDisplay	1	12	12	foodImage.93	FOODEEG_Images\0901.jpg	NY	Right	Yes	0.671551899984479	0	175016	252
343.888671875	0.671551899984479	taste	choicePhaseStart	1	12	12	foodImage.93	FOODEEG_Images\0901.jpg	NY	Right	Yes	0.671551899984479	0	176072	253
344.552734375	0	taste	response	1	12	12	foodImage.93	FOODEEG_Images\0901.jpg	NY	Right	Yes	0.671551899984479	0	176412	235
345.591796875	1	decision	trialStart	1	13	13	foodImage.67	FOODEEG_Images\0679.jpg	YN	Left	Yes	1.1613944999408	0	176944	251
346.6484375	2	decision	foodImageDisplay	1	13	13	foodImage.67	FOODEEG_Images\0679.jpg	YN	Left	Yes	1.1613944999408	0	177485	252
348.7109375	1.1613944999408	decision	choicePhaseStart	1	13	13	foodImage.67	FOODEEG_Images\0679.jpg	YN	Left	Yes	1.1613944999408	0	178541	253
349.86328125	0	decision	response	1	13	13	foodImage.67	FOODEEG_Images\0679.jpg	YN	Left	Yes	1.1613944999408	0	179131	234
350.90625	1	taste	trialStart	1	14	14	foodImage.117	FOODEEG_Images\0925.jpg	YN	Right	No	0.942871799925342	0	179665	251
351.947265625	2	taste	foodImageDisplay	1	14	14	foodImage.117	FOODEEG_Images\0925.jpg	YN	Right	No	0.942871799925342	0	180198	252
354.009765625	0.942871799925342	taste	choicePhaseStart	1	14	14	foodImage.117	FOODEEG_Images\0925.jpg	YN	Right	No	0.942871799925342	0	181254	253
354.943359375	0	taste	response	1	14	14	foodImage.117	FOODEEG_Images\0925.jpg	YN	Right	No	0.942871799925342	0	181732	235
355.98828125	1	taste	trialStart	1	15	15	foodImage.60	FOODEEG_Images\0614.jpg	NY	Right	Yes	0.969249699963257	0	182267	251
357.048828125	2	taste	foodImageDisplay	1	15	15	foodImage.60	FOODEEG_Images\0614.jpg	NY	Right	Yes	0.969249699963257	0	182810	252
359.111328125	0.969249699963257	taste	choicePhaseStart	1	15	15	foodImage.60	FOODEEG_Images\0614.jpg	NY	Right	Yes	0.969249699963257	0	183866	253
360.072265625	0	taste	response	1	15	15	foodImage.60	FOODEEG_Images\0614.jpg	NY	Right	Yes	0.969249699963257	0	184358	235
361.11328125	1	taste	trialStart	1	16	16	foodImage.115	FOODEEG_Images\0923.jpg	NY	Left	No	0.759020199999213	0	184891	251
362.154296875	2	taste	foodImageDisplay	1	16	16	foodImage.115	FOODEEG_Images\0923.jpg	NY	Left	No	0.759020199999213	0	185424	252
364.216796875	0.759020199999213	taste	choicePhaseStart	1	16	16	foodImage.115	FOODEEG_Images\0923.jpg	NY	Left	No	0.759020199999213	0	186480	253
364.966796875	0	taste	response	1	16	16	foodImage.115	FOODEEG_Images\0923.jpg	NY	Left	No	0.759020199999213	0	186864	234
366.009765625	1	decision	trialStart	1	17	17	foodImage.83	FOODEEG_Images\0827.jpg	NY	Right	Yes	1.34325290005654	0	187398	251
367.064453125	2	decision	foodImageDisplay	1	17	17	foodImage.83	FOODEEG_Images\0827.jpg	NY	Right	Yes	1.34325290005654	0	187938	252
369.126953125	1.34325290005654	decision	choicePhaseStart	1	17	17	foodImage.83	FOODEEG_Images\0827.jpg	NY	Right	Yes	1.34325290005654	0	188994	253
370.462890625	0	decision	response	1	17	17	foodImage.83	FOODEEG_Images\0827.jpg	NY	Right	Yes	1.34325290005654	0	189678	235
371.505859375	1	decision	trialStart	1	18	18	foodImage.18	FOODEEG_Images\0202.jpg	NY	Right	Yes	1.04789829999208	0	190212	251
372.568359375	2	decision	foodImageDisplay	1	18	18	foodImage.18	FOODEEG_Images\0202.jpg	NY	Right	Yes	1.04789829999208	0	190756	252
374.630859375	1.04789829999208	decision	choicePhaseStart	1	18	18	foodImage.18	FOODEEG_Images\0202.jpg	NY	Right	Yes	1.04789829999208	0	191812	253
375.669921875	0	decision	response	1	18	18	foodImage.18	FOODEEG_Images\0202.jpg	NY	Right	Yes	1.04789829999208	0	192344	235
376.7109375	1	health	trialStart	1	19	19	foodImage.60	FOODEEG_Images\0614.jpg	NY	Right	Yes	0.769199700094759	0	192877	251
377.765625	2	health	foodImageDisplay	1	19	19	foodImage.60	FOODEEG_Images\0614.jpg	NY	Right	Yes	0.769199700094759	0	193417	252
379.830078125	0.769199700094759	health	choicePhaseStart	1	19	19	foodImage.60	FOODEEG_Images\0614.jpg	NY	Right	Yes	0.769199700094759	0	194474	253
380.58984375	0	health	response	1	19	19	foodImage.60	FOODEEG_Images\0614.jpg	NY	Right	Yes	0.769199700094759	0	194863	235
381.630859375	1	decision	trialStart	1	20	20	foodImage.80	FOODEEG_Images\0796.jpg	YN	Left	Yes	0.832847600104287	0	195396	251
382.685546875	2	decision	foodImageDisplay	1	20	20	foodImage.80	FOODEEG_Images\0796.jpg	YN	Left	Yes	0.832847600104287	0	195936	252
384.748046875	0.832847600104287	decision	choicePhaseStart	1	20	20	foodImage.80	FOODEEG_Images\0796.jpg	YN	Left	Yes	0.832847600104287	0	196992	253
385.57421875	0	decision	response	1	20	20	foodImage.80	FOODEEG_Images\0796.jpg	YN	Left	Yes	0.832847600104287	0	197415	234
386.6171875	1	taste	trialStart	1	21	21	foodImage.10	FOODEEG_Images\0145.jpg	NY	Right	Yes	0.925924199866131	0	197949	251
387.67578125	2	taste	foodImageDisplay	1	21	21	foodImage.10	FOODEEG_Images\0145.jpg	NY	Right	Yes	0.925924199866131	0	198491	252
389.73828125	0.925924199866131	taste	choicePhaseStart	1	21	21	foodImage.10	FOODEEG_Images\0145.jpg	NY	Right	Yes	0.925924199866131	0	199547	253
390.654296875	0	taste	response	1	21	21	foodImage.10	FOODEEG_Images\0145.jpg	NY	Right	Yes	0.925924199866131	0	200016	235
391.69921875	1	decision	trialStart	1	22	22	foodImage.113	FOODEEG_Images\0921.jpg	NY	Left	No	0.9056861998979	0	200551	251
392.736328125	2	decision	foodImageDisplay	1	22	22	foodImage.113	FOODEEG_Images\0921.jpg	NY	Left	No	0.9056861998979	0	201082	252
394.796875	0.9056861998979	decision	choicePhaseStart	1	22	22	foodImage.113	FOODEEG_Images\0921.jpg	NY	Left	No	0.9056861998979	0	202137	253
395.693359375	0	decision	response	1	22	22	foodImage.113	FOODEEG_Images\0921.jpg	NY	Left	No	0.9056861998979	0	202596	234
396.73828125	1	decision	trialStart	1	23	23	foodImage.66	FOODEEG_Images\0676.jpg	YN	Left	Yes	0.749800099991262	0	203131	251
397.779296875	2	decision	foodImageDisplay	1	23	23	foodImage.66	FOODEEG_Images\0676.jpg	YN	Left	Yes	0.749800099991262	0	203664	252
399.83984375	0.749800099991262	decision	choicePhaseStart	1	23	23	foodImage.66	FOODEEG_Images\0676.jpg	YN	Left	Yes	0.749800099991262	0	204719	253
400.58203125	0	decision	response	1	23	23	foodImage.66	FOODEEG_Images\0676.jpg	YN	Left	Yes	0.749800099991262	0	205099	234
401.625	1	taste	trialStart	1	24	24	foodImage.108	FOODEEG_Images\0916.jpg	NY	Left	No	0.746610900154337	0	205633	251
402.662109375	2	taste	foodImageDisplay	1	24	24	foodImage.108	FOODEEG_Images\0916.jpg	NY	Left	No	0.746610900154337	0	206164	252
404.724609375	0.746610900154337	taste	choicePhaseStart	1	24	24	foodImage.108	FOODEEG_Images\0916.jpg	NY	Left	No	0.746610900154337	0	207220	253
405.462890625	0	taste	response	1	24	24	foodImage.108	FOODEEG_Images\0916.jpg	NY	Left	No	0.746610900154337	0	207598	234
406.50390625	1	health	trialStart	1	25	25	foodImage.52	FOODEEG_Images\0539.jpg	NY	Right	Yes	0.932603300083429	0	208131	251
407.5625	2	health	foodImageDisplay	1	25	25	foodImage.52	FOODEEG_Images\0539.jpg	NY	Right	Yes	0.932603300083429	0	208673	252
409.625	0.932603300083429	health	choicePhaseStart	1	25	25	foodImage.52	FOODEEG_Images\0539.jpg	NY	Right	Yes	0.932603300083429	0	209729	253
410.548828125	0	health	response	1	25	25	foodImage.52	FOODEEG_Images\0539.jpg	NY	Right	Yes	0.932603300083429	0	210202	235
411.591796875	1	health	trialStart	1	26	26	foodImage.101	FOODEEG_Images\0909.jpg	YN	Right	No	1.08503090008162	0	210736	251
412.6328125	2	health	foodImageDisplay	1	26	26	foodImage.101	FOODEEG_Images\0909.jpg	YN	Right	No	1.08503090008162	0	211269	252
414.697265625	1.08503090008162	health	choicePhaseStart	1	26	26	foodImage.101	FOODEEG_Images\0909.jpg	YN	Right	No	1.08503090008162	0	212326	253
415.7734375	0	health	response	1	26	26	foodImage.101	FOODEEG_Images\0909.jpg	YN	Right	No	1.08503090008162	0	212877	235
416.81640625	1	decision	trialStart	1	27	27	foodImage.8	FOODEEG_Images\0136.jpg	NY	Right	Yes	1.07547420007177	0	213411	251
417.859375	2	decision	foodImageDisplay	1	27	27	foodImage.8	FOODEEG_Images\0136.jpg	NY	Right	Yes	1.07547420007177	0	213945	252
419.921875	1.07547420007177	decision	choicePhaseStart	1	27	27	foodImage.8	FOODEEG_Images\0136.jpg	NY	Right	Yes	1.07547420007177	0	215001	253
420.98828125	0	decision	response	1	27	27	foodImage.8	FOODEEG_Images\0136.jpg	NY	Right	Yes	1.07547420007177	0	215547	235
422.029296875	1	decision	trialStart	1	28	28	foodImage.73	FOODEEG_Images\0717.jpg	NY	Right	Yes	0.859385899966583	0	216080	251
423.0859375	2	decision	foodImageDisplay	1	28	28	foodImage.73	FOODEEG_Images\0717.jpg	NY	Right	Yes	0.859385899966583	0	216621	252
425.154296875	0.859385899966583	decision	choicePhaseStart	1	28	28	foodImage.73	FOODEEG_Images\0717.jpg	NY	Right	Yes	0.859385899966583	0	217680	253
426.00390625	0	decision	response	1	28	28	foodImage.73	FOODEEG_Images\0717.jpg	NY	Right	Yes	0.859385899966583	0	218115	235
427.044921875	1	decision	trialStart	1	29	29	foodImage.91	FOODEEG_Images\0896.jpg	NY	Right	Yes	0.800624399911612	0	218648	251
428.1015625	2	decision	foodImageDisplay	1	29	29	foodImage.91	FOODEEG_Images\0896.jpg	NY	Right	Yes	0.800624399911612	0	219189	252
430.1640625	0.800624399911612	decision	choicePhaseStart	1	29	29	foodImage.91	FOODEEG_Images\0896.jpg	NY	Right	Yes	0.800624399911612	0	220245	253
430.95703125	0	decision	response	1	29	29	foodImage.91	FOODEEG_Images\0896.jpg	NY	Right	Yes	0.800624399911612	0	220651	235
431.998046875	1	decision	trialStart	1	30	30	foodImage.30	FOODEEG_Images\0282.jpg	YN	Left	Yes	1.35992439999245	0	221184	251
433.037109375	2	decision	foodImageDisplay	1	30	30	foodImage.30	FOODEEG_Images\0282.jpg	YN	Left	Yes	1.35992439999245	0	221716	252
435.099609375	1.35992439999245	decision	choicePhaseStart	1	30	30	foodImage.30	FOODEEG_Images\0282.jpg	YN	Left	Yes	1.35992439999245	0	222772	253
436.453125	0	decision	response	1	30	30	foodImage.30	FOODEEG_Images\0282.jpg	YN	Left	Yes	1.35992439999245	0	223465	234
437.494140625	1	decision	trialStart	1	31	31	foodImage.10	FOODEEG_Images\0145.jpg	NY	Right	Yes	0.86549250013195	0	223998	251
438.55078125	2	decision	foodImageDisplay	1	31	31	foodImage.10	FOODEEG_Images\0145.jpg	NY	Right	Yes	0.86549250013195	0	224539	252
440.61328125	0.86549250013195	decision	choicePhaseStart	1	31	31	foodImage.10	FOODEEG_Images\0145.jpg	NY	Right	Yes	0.86549250013195	0	225595	253
441.46875	0	decision	response	1	31	31	foodImage.10	FOODEEG_Images\0145.jpg	NY	Right	Yes	0.86549250013195	0	226033	235
442.51171875	1	health	trialStart	1	32	32	foodImage.56	FOODEEG_Images\0586.jpg	NY	Left	No	1.45634800009429	0	226567	251
443.55859375	2	health	foodImageDisplay	1	32	32	foodImage.56	FOODEEG_Images\0586.jpg	NY	Left	No	1.45634800009429	0	227103	252
445.62109375	1.45634800009429	health	choicePhaseStart	1	32	32	foodImage.56	FOODEEG_Images\0586.jpg	NY	Left	No	1.45634800009429	0	228159	253
447.068359375	0	health	response	1	32	32	foodImage.56	FOODEEG_Images\0586.jpg	NY	Left	No	1.45634800009429	0	228900	234
448.109375	1	decision	trialStart	1	33	33	foodImage.19	FOODEEG_Images\0225.jpg	YN	Left	Yes	0.784642900107428	0	229433	251
449.150390625	2	decision	foodImageDisplay	1	33	33	foodImage.19	FOODEEG_Images\0225.jpg	YN	Left	Yes	0.784642900107428	0	229966	252
451.212890625	0.784642900107428	decision	choicePhaseStart	1	33	33	foodImage.19	FOODEEG_Images\0225.jpg	YN	Left	Yes	0.784642900107428	0	231022	253
451.98828125	0	decision	response	1	33	33	foodImage.19	FOODEEG_Images\0225.jpg	YN	Left	Yes	0.784642900107428	0	231419	234
453.03125	1	taste	trialStart	1	34	34	foodImage.37	FOODEEG_Images\0359.jpg	YN	Right	No	1.02619900018908	0	231953	251
454.08203125	2	taste	foodImageDisplay	1	34	34	foodImage.37	FOODEEG_Images\0359.jpg	YN	Right	No	1.02619900018908	0	232491	252
456.14453125	1.02619900018908	taste	choicePhaseStart	1	34	34	foodImage.37	FOODEEG_Images\0359.jpg	YN	Right	No	1.02619900018908	0	233547	253
457.1640625	0	taste	response	1	34	34	foodImage.37	FOODEEG_Images\0359.jpg	YN	Right	No	1.02619900018908	0	234069	235
458.203125	1	decision	trialStart	1	35	35	foodImage.35	FOODEEG_Images\0350.jpg	NY	Right	Yes	0.941668800078332	0	234601	251
459.240234375	2	decision	foodImageDisplay	1	35	35	foodImage.35	FOODEEG_Images\0350.jpg	NY	Right	Yes	0.941668800078332	0	235132	252
461.302734375	0.941668800078332	decision	choicePhaseStart	1	35	35	foodImage.35	FOODEEG_Images\0350.jpg	NY	Right	Yes	0.941668800078332	0	236188	253
462.236328125	0	decision	response	1	35	35	foodImage.35	FOODEEG_Images\0350.jpg	NY	Right	Yes	0.941668800078332	0	236666	235
463.275390625	1	decision	trialStart	1	36	36	foodImage.115	FOODEEG_Images\0923.jpg	NY	Left	No	0.915349600138143	0	237198	251
464.314453125	2	decision	foodImageDisplay	1	36	36	foodImage.115	FOODEEG_Images\0923.jpg	NY	Left	No	0.915349600138143	0	237730	252
466.376953125	0.915349600138143	decision	choicePhaseStart	1	36	36	foodImage.115	FOODEEG_Images\0923.jpg	NY	Left	No	0.915349600138143	0	238786	253
467.283203125	0	decision	response	1	36	36	foodImage.115	FOODEEG_Images\0923.jpg	NY	Left	No	0.915349600138143	0	239250	234
468.32421875	1	taste	trialStart	1	37	37	foodImage.103	FOODEEG_Images\0911.jpg	NY	Left	No	0.748034800169989	0	239783	251
469.361328125	2	taste	foodImageDisplay	1	37	37	foodImage.103	FOODEEG_Images\0911.jpg	NY	Left	No	0.748034800169989	0	240314	252
471.423828125	0.748034800169989	taste	choicePhaseStart	1	37	37	foodImage.103	FOODEEG_Images\0911.jpg	NY	Left	No	0.748034800169989	0	241370	253
472.162109375	0	taste	response	1	37	37	foodImage.103	FOODEEG_Images\0911.jpg	NY	Left	No	0.748034800169989	0	241748	234
473.203125	1	taste	trialStart	1	38	38	foodImage.112	FOODEEG_Images\0920.jpg	YN	Right	No	0.909182599978521	0	242281	251
474.240234375	2	taste	foodImageDisplay	1	38	38	foodImage.112	FOODEEG_Images\0920.jpg	YN	Right	No	0.909182599978521	0	242812	252
476.302734375	0.909182599978521	taste	choicePhaseStart	1	38	38	foodImage.112	FOODEEG_Images\0920.jpg	YN	Right	No	0.909182599978521	0	243868	253
477.203125	0	taste	response	1	38	38	foodImage.112	FOODEEG_Images\0920.jpg	YN	Right	No	0.909182599978521	0	244329	235
478.244140625	1	taste	trialStart	1	39	39	foodImage.94	FOODEEG_Images\0902.jpg	YN	Right	No	1.0444100999739	0	244862	251
479.28125	2	taste	foodImageDisplay	1	39	39	foodImage.94	FOODEEG_Images\0902.jpg	YN	Right	No	1.0444100999739	0	245393	252
481.34375	1.0444100999739	taste	choicePhaseStart	1	39	39	foodImage.94	FOODEEG_Images\0902.jpg	YN	Right	No	1.0444100999739	0	246449	253
482.37890625	0	taste	response	1	39	39	foodImage.94	FOODEEG_Images\0902.jpg	YN	Right	No	1.0444100999739	0	246979	235
483.41796875	1	taste	trialStart	1	40	40	foodImage.68	FOODEEG_Images\0685.jpg	YN	Left	Yes	0.660718700150028	0	247511	251
484.498046875	2	taste	foodImageDisplay	1	40	40	foodImage.68	FOODEEG_Images\0685.jpg	YN	Left	Yes	0.660718700150028	0	248064	252
486.55859375	0.660718700150028	taste	choicePhaseStart	1	40	40	foodImage.68	FOODEEG_Images\0685.jpg	YN	Left	Yes	0.660718700150028	0	249119	253
487.2109375	0	taste	response	1	40	40	foodImage.68	FOODEEG_Images\0685.jpg	YN	Left	Yes	0.660718700150028	0	249453	234
488.255859375	1	health	trialStart	1	41	41	foodImage.81	FOODEEG_Images\0797.jpg	NY	Right	Yes	1.40534870000556	0	249988	251
489.310546875	2	health	foodImageDisplay	1	41	41	foodImage.81	FOODEEG_Images\0797.jpg	NY	Right	Yes	1.40534870000556	0	250528	252
491.373046875	1.40534870000556	health	choicePhaseStart	1	41	41	foodImage.81	FOODEEG_Images\0797.jpg	NY	Right	Yes	1.40534870000556	0	251584	253
492.76953125	0	health	response	1	41	41	foodImage.81	FOODEEG_Images\0797.jpg	NY	Right	Yes	1.40534870000556	0	252299	235
493.8125	1	taste	trialStart	1	42	42	foodImage.107	FOODEEG_Images\0915.jpg	NY	Left	No	0.84086690004915	0	252833	251
494.8515625	2	taste	foodImageDisplay	1	42	42	foodImage.107	FOODEEG_Images\0915.jpg	NY	Left	No	0.84086690004915	0	253365	252
496.9140625	0.84086690004915	taste	choicePhaseStart	1	42	42	foodImage.107	FOODEEG_Images\0915.jpg	NY	Left	No	0.84086690004915	0	254421	253
497.74609375	0	taste	response	1	42	42	foodImage.107	FOODEEG_Images\0915.jpg	NY	Left	No	0.84086690004915	0	254847	234
498.7890625	1	decision	trialStart	1	43	43	foodImage.54	FOODEEG_Images\0560.jpg	YN	Left	Yes	0.851027499884367	0	255381	251
499.849609375	2	decision	foodImageDisplay	1	43	43	foodImage.54	FOODEEG_Images\0560.jpg	YN	Left	Yes	0.851027499884367	0	255924	252
501.912109375	0.851027499884367	decision	choicePhaseStart	1	43	43	foodImage.54	FOODEEG_Images\0560.jpg	YN	Left	Yes	0.851027499884367	0	256980	253
502.75390625	0	decision	response	1	43	43	foodImage.54	FOODEEG_Images\0560.jpg	YN	Left	Yes	0.851027499884367	0	257411	234
503.798828125	1	taste	trialStart	1	44	44	foodImage.82	FOODEEG_Images\0805.jpg	YN	Right	No	1.13523950008675	0	257946	251
504.853515625	2	taste	foodImageDisplay	1	44	44	foodImage.82	FOODEEG_Images\0805.jpg	YN	Right	No	1.13523950008675	0	258486	252
506.916015625	1.13523950008675	taste	choicePhaseStart	1	44	44	foodImage.82	FOODEEG_Images\0805.jpg	YN	Right	No	1.13523950008675	0	259542	253
508.041015625	0	taste	response	1	44	44	foodImage.82	FOODEEG_Images\0805.jpg	YN	Right	No	1.13523950008675	0	260118	235
509.083984375	1	taste	trialStart	1	45	45	foodImage.67	FOODEEG_Images\0679.jpg	YN	Left	Yes	1.07725060009398	0	260652	251
510.142578125	2	taste	foodImageDisplay	1	45	45	foodImage.67	FOODEEG_Images\0679.jpg	YN	Left	Yes	1.07725060009398	0	261194	252
512.205078125	1.07725060009398	taste	choicePhaseStart	1	45	45	foodImage.67	FOODEEG_Images\0679.jpg	YN	Left	Yes	1.07725060009398	0	262250	253
513.2734375	0	taste	response	1	45	45	foodImage.67	FOODEEG_Images\0679.jpg	YN	Left	Yes	1.07725060009398	0	262797	234
514.318359375	1	health	trialStart	1	46	46	foodImage.28	FOODEEG_Images\0273.jpg	YN	Left	Yes	0.824060099897906	0	263332	251
515.361328125	2	health	foodImageDisplay	1	46	46	foodImage.28	FOODEEG_Images\0273.jpg	YN	Left	Yes	0.824060099897906	0	263866	252
517.42578125	0.824060099897906	health	choicePhaseStart	1	46	46	foodImage.28	FOODEEG_Images\0273.jpg	YN	Left	Yes	0.824060099897906	0	264923	253
518.240234375	0	health	response	1	46	46	foodImage.28	FOODEEG_Images\0273.jpg	YN	Left	Yes	0.824060099897906	0	265340	234
519.283203125	1	health	trialStart	1	47	47	foodImage.116	FOODEEG_Images\0924.jpg	NY	Left	No	1.04400629992597	0	265874	251
520.32421875	2	health	foodImageDisplay	1	47	47	foodImage.116	FOODEEG_Images\0924.jpg	NY	Left	No	1.04400629992597	0	266407	252
522.390625	1.04400629992597	health	choicePhaseStart	1	47	47	foodImage.116	FOODEEG_Images\0924.jpg	NY	Left	No	1.04400629992597	0	267465	253
523.42578125	0	health	response	1	47	47	foodImage.116	FOODEEG_Images\0924.jpg	NY	Left	No	1.04400629992597	0	267995	234
524.466796875	1	health	trialStart	1	48	48	foodImage.14	FOODEEG_Images\0188.jpg	NY	Left	No	1.21221639984287	0	268528	251
525.525390625	2	health	foodImageDisplay	1	48	48	foodImage.14	FOODEEG_Images\0188.jpg	NY	Left	No	1.21221639984287	0	269070	252
527.587890625	1.21221639984287	health	choicePhaseStart	1	48	48	foodImage.14	FOODEEG_Images\0188.jpg	NY	Left	No	1.21221639984287	0	270126	253
528.79296875	0	health	response	1	48	48	foodImage.14	FOODEEG_Images\0188.jpg	NY	Left	No	1.21221639984287	0	270743	234
529.833984375	1	health	trialStart	1	49	49	foodImage.108	FOODEEG_Images\0916.jpg	NY	Left	No	0.997043799841776	0	271276	251
530.87109375	2	health	foodImageDisplay	1	49	49	foodImage.108	FOODEEG_Images\0916.jpg	NY	Left	No	0.997043799841776	0	271807	252
532.93359375	0.997043799841776	health	choicePhaseStart	1	49	49	foodImage.108	FOODEEG_Images\0916.jpg	NY	Left	No	0.997043799841776	0	272863	253
533.919921875	0	health	response	1	49	49	foodImage.108	FOODEEG_Images\0916.jpg	NY	Left	No	0.997043799841776	0	273368	234
534.962890625	1	taste	trialStart	1	50	50	foodImage.36	FOODEEG_Images\0352.jpg	NY	Right	Yes	0.899722000118345	0	273902	251
536.0234375	2	taste	foodImageDisplay	1	50	50	foodImage.36	FOODEEG_Images\0352.jpg	NY	Right	Yes	0.899722000118345	0	274445	252
538.0859375	0.899722000118345	taste	choicePhaseStart	1	50	50	foodImage.36	FOODEEG_Images\0352.jpg	NY	Right	Yes	0.899722000118345	0	275501	253
538.9765625	0	taste	response	1	50	50	foodImage.36	FOODEEG_Images\0352.jpg	NY	Right	Yes	0.899722000118345	0	275957	235
540.01953125	1	taste	trialStart	1	51	51	foodImage.99	FOODEEG_Images\0907.jpg	NY	Left	No	0.771039700135589	0	276491	251
541.0625	2	taste	foodImageDisplay	1	51	51	foodImage.99	FOODEEG_Images\0907.jpg	NY	Left	No	0.771039700135589	0	277025	252
543.125	0.771039700135589	taste	choicePhaseStart	1	51	51	foodImage.99	FOODEEG_Images\0907.jpg	NY	Left	No	0.771039700135589	0	278081	253
543.888671875	0	taste	response	1	51	51	foodImage.99	FOODEEG_Images\0907.jpg	NY	Left	No	0.771039700135589	0	278472	234
544.931640625	1	taste	trialStart	1	52	52	foodImage.106	FOODEEG_Images\0914.jpg	YN	Right	No	1.01707339985296	0	279006	251
545.970703125	2	taste	foodImageDisplay	1	52	52	foodImage.106	FOODEEG_Images\0914.jpg	YN	Right	No	1.01707339985296	0	279538	252
548.0390625	1.01707339985296	taste	choicePhaseStart	1	52	52	foodImage.106	FOODEEG_Images\0914.jpg	YN	Right	No	1.01707339985296	0	280597	253
549.048828125	0	taste	response	1	52	52	foodImage.106	FOODEEG_Images\0914.jpg	YN	Right	No	1.01707339985296	0	281114	235
550.08984375	1	taste	trialStart	1	53	53	foodImage.98	FOODEEG_Images\0906.jpg	NY	Left	No	0.71221509994939	0	281647	251
551.130859375	2	taste	foodImageDisplay	1	53	53	foodImage.98	FOODEEG_Images\0906.jpg	NY	Left	No	0.71221509994939	0	282180	252
553.193359375	0.71221509994939	taste	choicePhaseStart	1	53	53	foodImage.98	FOODEEG_Images\0906.jpg	NY	Left	No	0.71221509994939	0	283236	253
553.896484375	0	taste	response	1	53	53	foodImage.98	FOODEEG_Images\0906.jpg	NY	Left	No	0.71221509994939	0	283596	234
554.9375	1	decision	trialStart	1	54	54	foodImage.106	FOODEEG_Images\0914.jpg	NY	Left	No	0.842838700162247	0	284129	251
555.9765625	2	decision	foodImageDisplay	1	54	54	foodImage.106	FOODEEG_Images\0914.jpg	NY	Left	No	0.842838700162247	0	284661	252
558.037109375	0.842838700162247	decision	choicePhaseStart	1	54	54	foodImage.106	FOODEEG_Images\0914.jpg	NY	Left	No	0.842838700162247	0	285716	253
558.87109375	0	decision	response	1	54	54	foodImage.106	FOODEEG_Images\0914.jpg	NY	Left	No	0.842838700162247	0	286143	234
559.912109375	1	health	trialStart	1	55	55	foodImage.5	FOODEEG_Images\0107.jpg	NY	Left	No	0.71381919994019	0	286676	251
560.96875	2	health	foodImageDisplay	1	55	55	foodImage.5	FOODEEG_Images\0107.jpg	NY	Left	No	0.71381919994019	0	287217	252
563.029296875	0.71381919994019	health	choicePhaseStart	1	55	55	foodImage.5	FOODEEG_Images\0107.jpg	NY	Left	No	0.71381919994019	0	288272	253
563.734375	0	health	response	1	55	55	foodImage.5	FOODEEG_Images\0107.jpg	NY	Left	No	0.71381919994019	0	288633	234
564.775390625	1	decision	trialStart	1	56	56	foodImage.93	FOODEEG_Images\0901.jpg	NY	Right	Yes	0.989219899987802	0	289166	251
565.8125	2	decision	foodImageDisplay	1	56	56	foodImage.93	FOODEEG_Images\0901.jpg	NY	Right	Yes	0.989219899987802	0	289697	252
567.875	0.989219899987802	decision	choicePhaseStart	1	56	56	foodImage.93	FOODEEG_Images\0901.jpg	NY	Right	Yes	0.989219899987802	0	290753	253
568.85546875	0	decision	response	1	56	56	foodImage.93	FOODEEG_Images\0901.jpg	NY	Right	Yes	0.989219899987802	0	291255	235
569.89453125	1	taste	trialStart	1	57	57	foodImage.90	FOODEEG_Images\0890.jpg	YN	Right	No	1.84138040011749	0	291787	251
570.953125	2	taste	foodImageDisplay	1	57	57	foodImage.90	FOODEEG_Images\0890.jpg	YN	Right	No	1.84138040011749	0	292329	252
573.015625	1.84138040011749	taste	choicePhaseStart	1	57	57	foodImage.90	FOODEEG_Images\0890.jpg	YN	Right	No	1.84138040011749	0	293385	253
574.84765625	0	taste	response	1	57	57	foodImage.90	FOODEEG_Images\0890.jpg	YN	Right	No	1.84138040011749	0	294323	235
575.88671875	1	health	trialStart	1	58	58	foodImage.105	FOODEEG_Images\0913.jpg	NY	Left	No	1.14979539997876	0	294855	251
576.923828125	2	health	foodImageDisplay	1	58	58	foodImage.105	FOODEEG_Images\0913.jpg	NY	Left	No	1.14979539997876	0	295386	252
578.986328125	1.14979539997876	health	choicePhaseStart	1	58	58	foodImage.105	FOODEEG_Images\0913.jpg	NY	Left	No	1.14979539997876	0	296442	253
580.126953125	0	health	response	1	58	58	foodImage.105	FOODEEG_Images\0913.jpg	NY	Left	No	1.14979539997876	0	297026	234
581.171875	1	taste	trialStart	1	59	59	foodImage.30	FOODEEG_Images\0282.jpg	YN	Left	Yes	1.80353470006958	0	297561	251
582.212890625	2	taste	foodImageDisplay	1	59	59	foodImage.30	FOODEEG_Images\0282.jpg	YN	Left	Yes	1.80353470006958	0	298094	252
584.275390625	1.80353470006958	taste	choicePhaseStart	1	59	59	foodImage.30	FOODEEG_Images\0282.jpg	YN	Left	Yes	1.80353470006958	0	299150	253
586.0703125	0	taste	response	1	59	59	foodImage.30	FOODEEG_Images\0282.jpg	YN	Left	Yes	1.80353470006958	0	300069	234
587.11328125	1	taste	trialStart	1	60	60	foodImage.35	FOODEEG_Images\0350.jpg	NY	Right	Yes	0.80675350013189	0	300603	251
588.154296875	2	taste	foodImageDisplay	1	60	60	foodImage.35	FOODEEG_Images\0350.jpg	NY	Right	Yes	0.80675350013189	0	301136	252
590.216796875	0.80675350013189	taste	choicePhaseStart	1	60	60	foodImage.35	FOODEEG_Images\0350.jpg	NY	Right	Yes	0.80675350013189	0	302192	253
591.013671875	0	taste	response	1	60	60	foodImage.35	FOODEEG_Images\0350.jpg	NY	Right	Yes	0.80675350013189	0	302600	235
593.0546875	10.0390625	n/a	blockEnd	n/a	n/a	n/a	n/a	n/a	n/a	n/a	n/a	n/a	n/a	303645	254
603.09375	2	n/a	blockStart	2	n/a	n/a	n/a	n/a	n/a	n/a	n/a	n/a	n/a	308785	250
605.126953125	1	taste	trialStart	2	61	1	foodImage.17	FOODEEG_Images\0199.jpg	NY	Right	Yes	0.855628299992532	0	309826	251
606.169921875	2	taste	foodImageDisplay	2	61	1	foodImage.17	FOODEEG_Images\0199.jpg	NY	Right	Yes	0.855628299992532	0	310360	252
608.232421875	0.855628299992532	taste	choicePhaseStart	2	61	1	foodImage.17	FOODEEG_Images\0199.jpg	NY	Right	Yes	0.855628299992532	0	311416	253
609.0859375	0	taste	response	2	61	1	foodImage.17	FOODEEG_Images\0199.jpg	NY	Right	Yes	0.855628299992532	0	311853	235
610.125	1	decision	trialStart	2	62	2	foodImage.82	FOODEEG_Images\0805.jpg	NY	Left	No	0.981922599952668	0	312385	251
611.177734375	2	decision	foodImageDisplay	2	62	2	foodImage.82	FOODEEG_Images\0805.jpg	NY	Left	No	0.981922599952668	0	312924	252
613.240234375	0.981922599952668	decision	choicePhaseStart	2	62	2	foodImage.82	FOODEEG_Images\0805.jpg	NY	Left	No	0.981922599952668	0	313980	253
614.212890625	0	decision	response	2	62	2	foodImage.82	FOODEEG_Images\0805.jpg	NY	Left	No	0.981922599952668	0	314478	234
615.255859375	1	decision	trialStart	2	63	3	foodImage.108	FOODEEG_Images\0916.jpg	NY	Left	No	0.792927200207487	0	315012	251
616.30078125	2	decision	foodImageDisplay	2	63	3	foodImage.108	FOODEEG_Images\0916.jpg	NY	Left	No	0.792927200207487	0	315547	252
618.365234375	0.792927200207487	decision	choicePhaseStart	2	63	3	foodImage.108	FOODEEG_Images\0916.jpg	NY	Left	No	0.792927200207487	0	316604	253
619.1484375	0	decision	response	2	63	3	foodImage.108	FOODEEG_Images\0916.jpg	NY	Left	No	0.792927200207487	0	317005	234
620.189453125	1	decision	trialStart	2	64	4	foodImage.27	FOODEEG_Images\0263.jpg	YN	Left	Yes	0.928168599959463	0	317538	251
621.232421875	2	decision	foodImageDisplay	2	64	4	foodImage.27	FOODEEG_Images\0263.jpg	YN	Left	Yes	0.928168599959463	0	318072	252
623.29296875	0.928168599959463	decision	choicePhaseStart	2	64	4	foodImage.27	FOODEEG_Images\0263.jpg	YN	Left	Yes	0.928168599959463	0	319127	253
624.212890625	0	decision	response	2	64	4	foodImage.27	FOODEEG_Images\0263.jpg	YN	Left	Yes	0.928168599959463	0	319598	234
625.255859375	1	taste	trialStart	2	65	5	foodImage.111	FOODEEG_Images\0919.jpg	NY	Left	No	0.72161959996447	0	320132	251
626.29296875	2	taste	foodImageDisplay	2	65	5	foodImage.111	FOODEEG_Images\0919.jpg	NY	Left	No	0.72161959996447	0	320663	252
628.35546875	0.72161959996447	taste	choicePhaseStart	2	65	5	foodImage.111	FOODEEG_Images\0919.jpg	NY	Left	No	0.72161959996447	0	321719	253
629.068359375	0	taste	response	2	65	5	foodImage.111	FOODEEG_Images\0919.jpg	NY	Left	No	0.72161959996447	0	322084	234
630.107421875	1	taste	trialStart	2	66	6	foodImage.12	FOODEEG_Images\0181.jpg	NY	Right	Yes	1.04125360003673	0	322616	251
631.1484375	2	taste	foodImageDisplay	2	66	6	foodImage.12	FOODEEG_Images\0181.jpg	NY	Right	Yes	1.04125360003673	0	323149	252
633.2109375	1.04125360003673	taste	choicePhaseStart	2	66	6	foodImage.12	FOODEEG_Images\0181.jpg	NY	Right	Yes	1.04125360003673	0	324205	253
634.244140625	0	taste	response	2	66	6	foodImage.12	FOODEEG_Images\0181.jpg	NY	Right	Yes	1.04125360003673	0	324734	235
635.287109375	1	taste	trialStart	2	67	7	foodImage.113	FOODEEG_Images\0921.jpg	YN	Right	No	0.928887299960479	0	325268	251
636.326171875	2	taste	foodImageDisplay	2	67	7	foodImage.113	FOODEEG_Images\0921.jpg	YN	Right	No	0.928887299960479	0	325800	252
638.388671875	0.928887299960479	taste	choicePhaseStart	2	67	7	foodImage.113	FOODEEG_Images\0921.jpg	YN	Right	No	0.928887299960479	0	326856	253
639.30859375	0	taste	response	2	67	7	foodImage.113	FOODEEG_Images\0921.jpg	YN	Right	No	0.928887299960479	0	327327	235
640.3515625	1	health	trialStart	2	68	8	foodImage.26	FOODEEG_Images\0262.jpg	NY	Right	Yes	1.20736070000567	0	327861	251
641.392578125	2	health	foodImageDisplay	2	68	8	foodImage.26	FOODEEG_Images\0262.jpg	NY	Right	Yes	1.20736070000567	0	328394	252
643.4609375	1.20736070000567	health	choicePhaseStart	2	68	8	foodImage.26	FOODEEG_Images\0262.jpg	NY	Right	Yes	1.20736070000567	0	329453	253
644.66015625	0	health	response	2	68	8	foodImage.26	FOODEEG_Images\0262.jpg	NY	Right	Yes	1.20736070000567	0	330067	235
645.708984375	1	health	trialStart	2	69	9	foodImage.13	FOODEEG_Images\0183.jpg	YN	Left	Yes	1.24534970009699	0	330604	251
646.751953125	2	health	foodImageDisplay	2	69	9	foodImage.13	FOODEEG_Images\0183.jpg	YN	Left	Yes	1.24534970009699	0	331138	252
648.814453125	1.24534970009699	health	choicePhaseStart	2	69	9	foodImage.13	FOODEEG_Images\0183.jpg	YN	Left	Yes	1.24534970009699	0	332194	253
650.052734375	0	health	response	2	69	9	foodImage.13	FOODEEG_Images\0183.jpg	YN	Left	Yes	1.24534970009699	0	332828	234
651.09375	1	decision	trialStart	2	70	10	foodImage.69	FOODEEG_Images\0693.jpg	YN	Left	Yes	1.36730510019697	0	333361	251
652.134765625	2	decision	foodImageDisplay	2	70	10	foodImage.69	FOODEEG_Images\0693.jpg	YN	Left	Yes	1.36730510019697	0	333894	252
654.197265625	1.36730510019697	decision	choicePhaseStart	2	70	10	foodImage.69	FOODEEG_Images\0693.jpg	YN	Left	Yes	1.36730510019697	0	334950	253
655.556640625	0	decision	response	2	70	10	foodImage.69	FOODEEG_Images\0693.jpg	YN	Left	Yes	1.36730510019697	0	335646	234
656.599609375	1	taste	trialStart	2	71	11	foodImage.20	FOODEEG_Images\0226.jpg	NY	Right	Yes	1.23036380019039	0	336180	251
657.640625	2	taste	foodImageDisplay	2	71	11	foodImage.20	FOODEEG_Images\0226.jpg	NY	Right	Yes	1.23036380019039	0	336713	252
659.701171875	1.23036380019039	taste	choicePhaseStart	2	71	11	foodImage.20	FOODEEG_Images\0226.jpg	NY	Right	Yes	1.23036380019039	0	337768	253
660.923828125	0	taste	response	2	71	11	foodImage.20	FOODEEG_Images\0226.jpg	NY	Right	Yes	1.23036380019039	0	338394	235
661.96484375	1	health	trialStart	2	72	12	foodImage.18	FOODEEG_Images\0202.jpg	YN	Left	Yes	1.11707319994457	0	338927	251
663.0234375	2	health	foodImageDisplay	2	72	12	foodImage.18	FOODEEG_Images\0202.jpg	YN	Left	Yes	1.11707319994457	0	339469	252
665.0859375	1.11707319994457	health	choicePhaseStart	2	72	12	foodImage.18	FOODEEG_Images\0202.jpg	YN	Left	Yes	1.11707319994457	0	340525	253
666.1953125	0	health	response	2	72	12	foodImage.18	FOODEEG_Images\0202.jpg	YN	Left	Yes	1.11707319994457	0	341093	234
667.234375	1	taste	trialStart	2	73	13	foodImage.91	FOODEEG_Images\0896.jpg	NY	Right	Yes	0.987745299935341	0	341625	251
668.2890625	2	taste	foodImageDisplay	2	73	13	foodImage.91	FOODEEG_Images\0896.jpg	NY	Right	Yes	0.987745299935341	0	342165	252
670.3515625	0.987745299935341	taste	choicePhaseStart	2	73	13	foodImage.91	FOODEEG_Images\0896.jpg	NY	Right	Yes	0.987745299935341	0	343221	253
671.330078125	0	taste	response	2	73	13	foodImage.91	FOODEEG_Images\0896.jpg	NY	Right	Yes	0.987745299935341	0	343722	235
672.37109375	1	taste	trialStart	2	74	14	foodImage.26	FOODEEG_Images\0262.jpg	NY	Left	No	1.39306799997576	0	344255	251
673.4140625	2	taste	foodImageDisplay	2	74	14	foodImage.26	FOODEEG_Images\0262.jpg	NY	Left	No	1.39306799997576	0	344789	252
675.4765625	1.39306799997576	taste	choicePhaseStart	2	74	14	foodImage.26	FOODEEG_Images\0262.jpg	NY	Left	No	1.39306799997576	0	345845	253
676.859375	0	taste	response	2	74	14	foodImage.26	FOODEEG_Images\0262.jpg	NY	Left	No	1.39306799997576	0	346553	234
677.90234375	1	health	trialStart	2	75	15	foodImage.10	FOODEEG_Images\0145.jpg	NY	Left	No	1.30634679994546	0	347087	251
678.962890625	2	health	foodImageDisplay	2	75	15	foodImage.10	FOODEEG_Images\0145.jpg	NY	Left	No	1.30634679994546	0	347630	252
681.025390625	1.30634679994546	health	choicePhaseStart	2	75	15	foodImage.10	FOODEEG_Images\0145.jpg	NY	Left	No	1.30634679994546	0	348686	253
682.322265625	0	health	response	2	75	15	foodImage.10	FOODEEG_Images\0145.jpg	NY	Left	No	1.30634679994546	0	349350	234
683.361328125	1	taste	trialStart	2	76	16	foodImage.81	FOODEEG_Images\0797.jpg	NY	Left	No	1.01960570015945	0	349882	251
684.41796875	2	taste	foodImageDisplay	2	76	16	foodImage.81	FOODEEG_Images\0797.jpg	NY	Left	No	1.01960570015945	0	350423	252
686.48046875	1.01960570015945	taste	choicePhaseStart	2	76	16	foodImage.81	FOODEEG_Images\0797.jpg	NY	Left	No	1.01960570015945	0	351479	253
687.490234375	0	taste	response	2	76	16	foodImage.81	FOODEEG_Images\0797.jpg	NY	Left	No	1.01960570015945	0	351996	234
688.533203125	1	decision	trialStart	2	77	17	foodImage.46	FOODEEG_Images\0479.jpg	NY	Right	Yes	1.07510169991292	0	352530	251
689.58984375	2	decision	foodImageDisplay	2	77	17	foodImage.46	FOODEEG_Images\0479.jpg	NY	Right	Yes	1.07510169991292	0	353071	252
691.654296875	1.07510169991292	decision	choicePhaseStart	2	77	17	foodImage.46	FOODEEG_Images\0479.jpg	NY	Right	Yes	1.07510169991292	0	354128	253
692.72265625	0	decision	response	2	77	17	foodImage.46	FOODEEG_Images\0479.jpg	NY	Right	Yes	1.07510169991292	0	354675	235
693.765625	1	decision	trialStart	2	78	18	foodImage.68	FOODEEG_Images\0685.jpg	NY	Right	Yes	1.3215985998977	0	355209	251
694.84375	2	decision	foodImageDisplay	2	78	18	foodImage.68	FOODEEG_Images\0685.jpg	NY	Right	Yes	1.3215985998977	0	355761	252
696.90625	1.3215985998977	decision	choicePhaseStart	2	78	18	foodImage.68	FOODEEG_Images\0685.jpg	NY	Right	Yes	1.3215985998977	0	356817	253
698.21875	0	decision	response	2	78	18	foodImage.68	FOODEEG_Images\0685.jpg	NY	Right	Yes	1.3215985998977	0	357489	235
699.26171875	1	health	trialStart	2	79	19	foodImage.70	FOODEEG_Images\0705.jpg	NY	Left	No	1.08361060009338	0	358023	251
700.322265625	2	health	foodImageDisplay	2	79	19	foodImage.70	FOODEEG_Images\0705.jpg	NY	Left	No	1.08361060009338	0	358566	252
702.384765625	1.08361060009338	health	choicePhaseStart	2	79	19	foodImage.70	FOODEEG_Images\0705.jpg	NY	Left	No	1.08361060009338	0	359622	253
703.45703125	0	health	response	2	79	19	foodImage.70	FOODEEG_Images\0705.jpg	NY	Left	No	1.08361060009338	0	360171	234
704.5	1	health	trialStart	2	80	20	foodImage.54	FOODEEG_Images\0560.jpg	YN	Left	Yes	1.26408910006285	0	360705	251
705.5546875	2	health	foodImageDisplay	2	80	20	foodImage.54	FOODEEG_Images\0560.jpg	YN	Left	Yes	1.26408910006285	0	361245	252
707.6171875	1.26408910006285	health	choicePhaseStart	2	80	20	foodImage.54	FOODEEG_Images\0560.jpg	YN	Left	Yes	1.26408910006285	0	362301	253
708.873046875	0	health	response	2	80	20	foodImage.54	FOODEEG_Images\0560.jpg	YN	Left	Yes	1.26408910006285	0	362944	234
709.916015625	1	taste	trialStart	2	81	21	foodImage.16	FOODEEG_Images\0196.jpg	NY	Left	No	1.09632989997044	0	363478	251
710.98046875	2	taste	foodImageDisplay	2	81	21	foodImage.16	FOODEEG_Images\0196.jpg	NY	Left	No	1.09632989997044	0	364023	252
713.04296875	1.09632989997044	taste	choicePhaseStart	2	81	21	foodImage.16	FOODEEG_Images\0196.jpg	NY	Left	No	1.09632989997044	0	365079	253
714.12890625	0	taste	response	2	81	21	foodImage.16	FOODEEG_Images\0196.jpg	NY	Left	No	1.09632989997044	0	365635	234
715.173828125	1	taste	trialStart	2	82	22	foodImage.118	FOODEEG_Images\0926.jpg	NY	Left	No	0.806183600099757	0	366170	251
716.212890625	2	taste	foodImageDisplay	2	82	22	foodImage.118	FOODEEG_Images\0926.jpg	NY	Left	No	0.806183600099757	0	366702	252
718.275390625	0.806183600099757	taste	choicePhaseStart	2	82	22	foodImage.118	FOODEEG_Images\0926.jpg	NY	Left	No	0.806183600099757	0	367758	253
719.07421875	0	taste	response	2	82	22	foodImage.118	FOODEEG_Images\0926.jpg	NY	Left	No	0.806183600099757	0	368167	234
720.115234375	1	taste	trialStart	2	83	23	foodImage.8	FOODEEG_Images\0136.jpg	NY	Right	Yes	0.845923600019887	0	368700	251
721.158203125	2	taste	foodImageDisplay	2	83	23	foodImage.8	FOODEEG_Images\0136.jpg	NY	Right	Yes	0.845923600019887	0	369234	252
723.220703125	0.845923600019887	taste	choicePhaseStart	2	83	23	foodImage.8	FOODEEG_Images\0136.jpg	NY	Right	Yes	0.845923600019887	0	370290	253
724.056640625	0	taste	response	2	83	23	foodImage.8	FOODEEG_Images\0136.jpg	NY	Right	Yes	0.845923600019887	0	370718	235
725.099609375	1	taste	trialStart	2	84	24	foodImage.43	FOODEEG_Images\0445.jpg	YN	Right	No	0.993796000024304	0	371252	251
726.162109375	2	taste	foodImageDisplay	2	84	24	foodImage.43	FOODEEG_Images\0445.jpg	YN	Right	No	0.993796000024304	0	371796	252
728.224609375	0.993796000024304	taste	choicePhaseStart	2	84	24	foodImage.43	FOODEEG_Images\0445.jpg	YN	Right	No	0.993796000024304	0	372852	253
729.208984375	0	taste	response	2	84	24	foodImage.43	FOODEEG_Images\0445.jpg	YN	Right	No	0.993796000024304	0	373356	235
730.25	1	taste	trialStart	2	85	25	foodImage.69	FOODEEG_Images\0693.jpg	NY	Right	Yes	0.807988199871033	0	373889	251
731.291015625	2	taste	foodImageDisplay	2	85	25	foodImage.69	FOODEEG_Images\0693.jpg	NY	Right	Yes	0.807988199871033	0	374422	252
733.353515625	0.807988199871033	taste	choicePhaseStart	2	85	25	foodImage.69	FOODEEG_Images\0693.jpg	NY	Right	Yes	0.807988199871033	0	375478	253
734.15234375	0	taste	response	2	85	25	foodImage.69	FOODEEG_Images\0693.jpg	NY	Right	Yes	0.807988199871033	0	375887	235
735.1953125	1	taste	trialStart	2	86	26	foodImage.76	FOODEEG_Images\0766.jpg	NY	Right	Yes	0.923460999969393	0	376421	251
736.240234375	2	taste	foodImageDisplay	2	86	26	foodImage.76	FOODEEG_Images\0766.jpg	NY	Right	Yes	0.923460999969393	0	376956	252
738.302734375	0.923460999969393	taste	choicePhaseStart	2	86	26	foodImage.76	FOODEEG_Images\0766.jpg	NY	Right	Yes	0.923460999969393	0	378012	253
739.216796875	0	taste	response	2	86	26	foodImage.76	FOODEEG_Images\0766.jpg	NY	Right	Yes	0.923460999969393	0	378480	235
740.259765625	1	health	trialStart	2	87	27	foodImage.88	FOODEEG_Images\0878.jpg	NY	Left	No	0.908051200211048	0	379014	251
741.318359375	2	health	foodImageDisplay	2	87	27	foodImage.88	FOODEEG_Images\0878.jpg	NY	Left	No	0.908051200211048	0	379556	252
743.380859375	0.908051200211048	health	choicePhaseStart	2	87	27	foodImage.88	FOODEEG_Images\0878.jpg	NY	Left	No	0.908051200211048	0	380612	253
744.279296875	0	health	response	2	87	27	foodImage.88	FOODEEG_Images\0878.jpg	NY	Left	No	0.908051200211048	0	381072	234
745.328125	1	decision	trialStart	2	88	28	foodImage.89	FOODEEG_Images\0881.jpg	YN	Left	Yes	1.16902310005389	0	381609	251
746.384765625	2	decision	foodImageDisplay	2	88	28	foodImage.89	FOODEEG_Images\0881.jpg	YN	Left	Yes	1.16902310005389	0	382150	252
748.447265625	1.16902310005389	decision	choicePhaseStart	2	88	28	foodImage.89	FOODEEG_Images\0881.jpg	YN	Left	Yes	1.16902310005389	0	383206	253
749.607421875	0	decision	response	2	88	28	foodImage.89	FOODEEG_Images\0881.jpg	YN	Left	Yes	1.16902310005389	0	383800	234
750.6484375	1	taste	trialStart	2	89	29	foodImage.27	FOODEEG_Images\0263.jpg	NY	Right	Yes	2.09615310002118	0	384333	251
751.689453125	2	taste	foodImageDisplay	2	89	29	foodImage.27	FOODEEG_Images\0263.jpg	NY	Right	Yes	2.09615310002118	0	384866	252
753.751953125	2.09615310002118	taste	choicePhaseStart	2	89	29	foodImage.27	FOODEEG_Images\0263.jpg	NY	Right	Yes	2.09615310002118	0	385922	253
755.83984375	0	taste	response	2	89	29	foodImage.27	FOODEEG_Images\0263.jpg	NY	Right	Yes	2.09615310002118	0	386991	235
756.8828125	1	health	trialStart	2	90	30	foodImage.4	FOODEEG_Images\0065.jpg	YN	Right	No	1.25108449999243	0	387525	251
757.94140625	2	health	foodImageDisplay	2	90	30	foodImage.4	FOODEEG_Images\0065.jpg	YN	Right	No	1.25108449999243	0	388067	252
760.00390625	1.25108449999243	health	choicePhaseStart	2	90	30	foodImage.4	FOODEEG_Images\0065.jpg	YN	Right	No	1.25108449999243	0	389123	253
761.248046875	0	health	response	2	90	30	foodImage.4	FOODEEG_Images\0065.jpg	YN	Right	No	1.25108449999243	0	389760	235
762.291015625	1	taste	trialStart	2	91	31	foodImage.104	FOODEEG_Images\0912.jpg	NY	Right	Yes	1.61614529998042	0	390294	251
763.337890625	2	taste	foodImageDisplay	2	91	31	foodImage.104	FOODEEG_Images\0912.jpg	NY	Right	Yes	1.61614529998042	0	390830	252
765.400390625	1.61614529998042	taste	choicePhaseStart	2	91	31	foodImage.104	FOODEEG_Images\0912.jpg	NY	Right	Yes	1.61614529998042	0	391886	253
767.0078125	0	taste	response	2	91	31	foodImage.104	FOODEEG_Images\0912.jpg	NY	Right	Yes	1.61614529998042	0	392709	235
768.05078125	1	decision	trialStart	2	92	32	foodImage.34	FOODEEG_Images\0339.jpg	YN	Right	No	1.48860480007716	0	393243	251
769.10546875	2	decision	foodImageDisplay	2	92	32	foodImage.34	FOODEEG_Images\0339.jpg	YN	Right	No	1.48860480007716	0	393783	252
771.166015625	1.48860480007716	decision	choicePhaseStart	2	92	32	foodImage.34	FOODEEG_Images\0339.jpg	YN	Right	No	1.48860480007716	0	394838	253
772.646484375	0	decision	response	2	92	32	foodImage.34	FOODEEG_Images\0339.jpg	YN	Right	No	1.48860480007716	0	395596	235
773.689453125	1	taste	trialStart	2	93	33	foodImage.64	FOODEEG_Images\0647.jpg	NY	Left	No	1.5205711000599	0	396130	251
774.744140625	2	taste	foodImageDisplay	2	93	33	foodImage.64	FOODEEG_Images\0647.jpg	NY	Left	No	1.5205711000599	0	396670	252
776.806640625	1.5205711000599	taste	choicePhaseStart	2	93	33	foodImage.64	FOODEEG_Images\0647.jpg	NY	Left	No	1.5205711000599	0	397726	253
778.318359375	0	taste	response	2	93	33	foodImage.64	FOODEEG_Images\0647.jpg	NY	Left	No	1.5205711000599	0	398500	234
779.361328125	1	taste	trialStart	2	94	34	foodImage.19	FOODEEG_Images\0225.jpg	NY	Right	Yes	0.795669600134715	0	399034	251
780.404296875	2	taste	foodImageDisplay	2	94	34	foodImage.19	FOODEEG_Images\0225.jpg	NY	Right	Yes	0.795669600134715	0	399568	252
782.46875	0.795669600134715	taste	choicePhaseStart	2	94	34	foodImage.19	FOODEEG_Images\0225.jpg	NY	Right	Yes	0.795669600134715	0	400625	253
783.25390625	0	taste	response	2	94	34	foodImage.19	FOODEEG_Images\0225.jpg	NY	Right	Yes	0.795669600134715	0	401027	235
784.296875	1	health	trialStart	2	95	35	foodImage.119	FOODEEG_Images\0927.jpg	YN	Right	No	0.825338300084695	0	401561	251
785.3359375	2	health	foodImageDisplay	2	95	35	foodImage.119	FOODEEG_Images\0927.jpg	YN	Right	No	0.825338300084695	0	402093	252
787.3984375	0.825338300084695	health	choicePhaseStart	2	95	35	foodImage.119	FOODEEG_Images\0927.jpg	YN	Right	No	0.825338300084695	0	403149	253
788.21484375	0	health	response	2	95	35	foodImage.119	FOODEEG_Images\0927.jpg	YN	Right	No	0.825338300084695	0	403567	235
789.2578125	1	health	trialStart	2	96	36	foodImage.92	FOODEEG_Images\0900.jpg	NY	Left	No	0.926997300004587	0	404101	251
790.296875	2	health	foodImageDisplay	2	96	36	foodImage.92	FOODEEG_Images\0900.jpg	NY	Left	No	0.926997300004587	0	404633	252
792.361328125	0.926997300004587	health	choicePhaseStart	2	96	36	foodImage.92	FOODEEG_Images\0900.jpg	NY	Left	No	0.926997300004587	0	405690	253
793.279296875	0	health	response	2	96	36	foodImage.92	FOODEEG_Images\0900.jpg	NY	Left	No	0.926997300004587	0	406160	234
794.322265625	1	taste	trialStart	2	97	37	foodImage.4	FOODEEG_Images\0065.jpg	NY	Left	No	1.90806050016545	0	406694	251
795.380859375	2	taste	foodImageDisplay	2	97	37	foodImage.4	FOODEEG_Images\0065.jpg	NY	Left	No	1.90806050016545	0	407236	252
797.443359375	1.90806050016545	taste	choicePhaseStart	2	97	37	foodImage.4	FOODEEG_Images\0065.jpg	NY	Left	No	1.90806050016545	0	408292	253
799.341796875	0	taste	response	2	97	37	foodImage.4	FOODEEG_Images\0065.jpg	NY	Left	No	1.90806050016545	0	409264	234
800.384765625	1	taste	trialStart	2	98	38	foodImage.52	FOODEEG_Images\0539.jpg	YN	Left	Yes	1.088245900115	0	409798	251
801.44140625	2	taste	foodImageDisplay	2	98	38	foodImage.52	FOODEEG_Images\0539.jpg	YN	Left	Yes	1.088245900115	0	410339	252
803.50390625	1.088245900115	taste	choicePhaseStart	2	98	38	foodImage.52	FOODEEG_Images\0539.jpg	YN	Left	Yes	1.088245900115	0	411395	253
804.58203125	0	taste	response	2	98	38	foodImage.52	FOODEEG_Images\0539.jpg	YN	Left	Yes	1.088245900115	0	411947	234
805.623046875	1	taste	trialStart	2	99	39	foodImage.75	FOODEEG_Images\0763.jpg	YN	Left	Yes	1.27454090001993	0	412480	251
806.669921875	2	taste	foodImageDisplay	2	99	39	foodImage.75	FOODEEG_Images\0763.jpg	YN	Left	Yes	1.27454090001993	0	413016	252
808.732421875	1.27454090001993	taste	choicePhaseStart	2	99	39	foodImage.75	FOODEEG_Images\0763.jpg	YN	Left	Yes	1.27454090001993	0	414072	253
809.998046875	0	taste	response	2	99	39	foodImage.75	FOODEEG_Images\0763.jpg	YN	Left	Yes	1.27454090001993	0	414720	234
811.037109375	1	taste	trialStart	2	100	40	foodImage.54	FOODEEG_Images\0560.jpg	NY	Right	Yes	1.51575789996423	0	415252	251
812.091796875	2	taste	foodImageDisplay	2	100	40	foodImage.54	FOODEEG_Images\0560.jpg	NY	Right	Yes	1.51575789996423	0	415792	252
814.154296875	1.51575789996423	taste	choicePhaseStart	2	100	40	foodImage.54	FOODEEG_Images\0560.jpg	NY	Right	Yes	1.51575789996423	0	416848	253
815.662109375	0	taste	response	2	100	40	foodImage.54	FOODEEG_Images\0560.jpg	NY	Right	Yes	1.51575789996423	0	417620	235
816.703125	1	health	trialStart	2	101	41	foodImage.80	FOODEEG_Images\0796.jpg	NY	Right	Yes	1.16418659989722	0	418153	251
817.763671875	2	health	foodImageDisplay	2	101	41	foodImage.80	FOODEEG_Images\0796.jpg	NY	Right	Yes	1.16418659989722	0	418696	252
819.82421875	1.16418659989722	health	choicePhaseStart	2	101	41	foodImage.80	FOODEEG_Images\0796.jpg	NY	Right	Yes	1.16418659989722	0	419751	253
820.98046875	0	health	response	2	101	41	foodImage.80	FOODEEG_Images\0796.jpg	NY	Right	Yes	1.16418659989722	0	420343	235
822.025390625	1	health	trialStart	2	102	42	foodImage.110	FOODEEG_Images\0918.jpg	NY	Left	No	1.07415400003083	0	420878	251
823.0625	2	health	foodImageDisplay	2	102	42	foodImage.110	FOODEEG_Images\0918.jpg	NY	Left	No	1.07415400003083	0	421409	252
825.123046875	1.07415400003083	health	choicePhaseStart	2	102	42	foodImage.110	FOODEEG_Images\0918.jpg	NY	Left	No	1.07415400003083	0	422464	253
826.189453125	0	health	response	2	102	42	foodImage.110	FOODEEG_Images\0918.jpg	NY	Left	No	1.07415400003083	0	423010	234
827.228515625	1	decision	trialStart	2	103	43	foodImage.5	FOODEEG_Images\0107.jpg	YN	Left	Yes	1.46741000004113	0	423542	251
828.28515625	2	decision	foodImageDisplay	2	103	43	foodImage.5	FOODEEG_Images\0107.jpg	YN	Left	Yes	1.46741000004113	0	424083	252
830.345703125	1.46741000004113	decision	choicePhaseStart	2	103	43	foodImage.5	FOODEEG_Images\0107.jpg	YN	Left	Yes	1.46741000004113	0	425138	253
831.8046875	0	decision	response	2	103	43	foodImage.5	FOODEEG_Images\0107.jpg	YN	Left	Yes	1.46741000004113	0	425885	234
832.84765625	1	decision	trialStart	2	104	44	foodImage.74	FOODEEG_Images\0752.jpg	YN	Left	Yes	1.21213010000065	0	426419	251
833.892578125	2	decision	foodImageDisplay	2	104	44	foodImage.74	FOODEEG_Images\0752.jpg	YN	Left	Yes	1.21213010000065	0	426954	252
835.953125	1.21213010000065	decision	choicePhaseStart	2	104	44	foodImage.74	FOODEEG_Images\0752.jpg	YN	Left	Yes	1.21213010000065	0	428009	253
837.15625	0	decision	response	2	104	44	foodImage.74	FOODEEG_Images\0752.jpg	YN	Left	Yes	1.21213010000065	0	428625	234
838.1953125	1	health	trialStart	2	105	45	foodImage.94	FOODEEG_Images\0902.jpg	NY	Left	No	1.49404400005005	0	429157	251
839.232421875	2	health	foodImageDisplay	2	105	45	foodImage.94	FOODEEG_Images\0902.jpg	NY	Left	No	1.49404400005005	0	429688	252
841.294921875	1.49404400005005	health	choicePhaseStart	2	105	45	foodImage.94	FOODEEG_Images\0902.jpg	NY	Left	No	1.49404400005005	0	430744	253
842.78125	0	health	response	2	105	45	foodImage.94	FOODEEG_Images\0902.jpg	NY	Left	No	1.49404400005005	0	431505	234
843.82421875	1	decision	trialStart	2	106	46	foodImage.40	FOODEEG_Images\0373.jpg	NY	Right	Yes	1.06845899997279	0	432039	251
844.8671875	2	decision	foodImageDisplay	2	106	46	foodImage.40	FOODEEG_Images\0373.jpg	NY	Right	Yes	1.06845899997279	0	432573	252
846.927734375	1.06845899997279	decision	choicePhaseStart	2	106	46	foodImage.40	FOODEEG_Images\0373.jpg	NY	Right	Yes	1.06845899997279	0	433628	253
847.98828125	0	decision	response	2	106	46	foodImage.40	FOODEEG_Images\0373.jpg	NY	Right	Yes	1.06845899997279	0	434171	235
849.03125	1	health	trialStart	2	107	47	foodImage.85	FOODEEG_Images\0841.jpg	NY	Left	No	0.9450181000866	0	434705	251
850.09375	2	health	foodImageDisplay	2	107	47	foodImage.85	FOODEEG_Images\0841.jpg	NY	Left	No	0.9450181000866	0	435249	252
852.15625	0.9450181000866	health	choicePhaseStart	2	107	47	foodImage.85	FOODEEG_Images\0841.jpg	NY	Left	No	0.9450181000866	0	436305	253
853.091796875	0	health	response	2	107	47	foodImage.85	FOODEEG_Images\0841.jpg	NY	Left	No	0.9450181000866	0	436784	234
854.134765625	1	decision	trialStart	2	108	48	foodImage.84	FOODEEG_Images\0830.jpg	NY	Right	Yes	2.77030860004015	0	437318	251
855.1953125	2	decision	foodImageDisplay	2	108	48	foodImage.84	FOODEEG_Images\0830.jpg	NY	Right	Yes	2.77030860004015	0	437861	252
857.2578125	2.77030860004015	decision	choicePhaseStart	2	108	48	foodImage.84	FOODEEG_Images\0830.jpg	NY	Right	Yes	2.77030860004015	0	438917	253
860.01953125	0	decision	response	2	108	48	foodImage.84	FOODEEG_Images\0830.jpg	NY	Right	Yes	2.77030860004015	0	440331	235
861.068359375	1	health	trialStart	2	109	49	foodImage.100	FOODEEG_Images\0908.jpg	NY	Left	No	1.13891400001012	0	440868	251
862.115234375	2	health	foodImageDisplay	2	109	49	foodImage.100	FOODEEG_Images\0908.jpg	NY	Left	No	1.13891400001012	0	441404	252
864.177734375	1.13891400001012	health	choicePhaseStart	2	109	49	foodImage.100	FOODEEG_Images\0908.jpg	NY	Left	No	1.13891400001012	0	442460	253
865.306640625	0	health	response	2	109	49	foodImage.100	FOODEEG_Images\0908.jpg	NY	Left	No	1.13891400001012	0	443038	234
866.3515625	1	health	trialStart	2	110	50	foodImage.113	FOODEEG_Images\0921.jpg	YN	Right	No	0.87259959988296	0	443573	251
867.388671875	2	health	foodImageDisplay	2	110	50	foodImage.113	FOODEEG_Images\0921.jpg	YN	Right	No	0.87259959988296	0	444104	252
869.451171875	0.87259959988296	health	choicePhaseStart	2	110	50	foodImage.113	FOODEEG_Images\0921.jpg	YN	Right	No	0.87259959988296	0	445160	253
870.31640625	0	health	response	2	110	50	foodImage.113	FOODEEG_Images\0921.jpg	YN	Right	No	0.87259959988296	0	445603	235
871.35546875	1	taste	trialStart	2	111	51	foodImage.21	FOODEEG_Images\0234.jpg	NY	Right	Yes	1.1774983999785	0	446135	251
872.412109375	2	taste	foodImageDisplay	2	111	51	foodImage.21	FOODEEG_Images\0234.jpg	NY	Right	Yes	1.1774983999785	0	446676	252
874.47265625	1.1774983999785	taste	choicePhaseStart	2	111	51	foodImage.21	FOODEEG_Images\0234.jpg	NY	Right	Yes	1.1774983999785	0	447731	253
875.642578125	0	taste	response	2	111	51	foodImage.21	FOODEEG_Images\0234.jpg	NY	Right	Yes	1.1774983999785	0	448330	235
876.6875	1	health	trialStart	2	112	52	foodImage.76	FOODEEG_Images\0766.jpg	YN	Left	Yes	0.993485799990594	0	448865	251
877.73046875	2	health	foodImageDisplay	2	112	52	foodImage.76	FOODEEG_Images\0766.jpg	YN	Left	Yes	0.993485799990594	0	449399	252
879.79296875	0.993485799990594	health	choicePhaseStart	2	112	52	foodImage.76	FOODEEG_Images\0766.jpg	YN	Left	Yes	0.993485799990594	0	450455	253
880.779296875	0	health	response	2	112	52	foodImage.76	FOODEEG_Images\0766.jpg	YN	Left	Yes	0.993485799990594	0	450960	234
881.822265625	1	taste	trialStart	2	113	53	foodImage.100	FOODEEG_Images\0908.jpg	YN	Right	No	2.5871538000647	0	451494	251
882.859375	2	taste	foodImageDisplay	2	113	53	foodImage.100	FOODEEG_Images\0908.jpg	YN	Right	No	2.5871538000647	0	452025	252
884.927734375	2.5871538000647	taste	choicePhaseStart	2	113	53	foodImage.100	FOODEEG_Images\0908.jpg	YN	Right	No	2.5871538000647	0	453084	253
887.505859375	0	taste	response	2	113	53	foodImage.100	FOODEEG_Images\0908.jpg	YN	Right	No	2.5871538000647	0	454404	235
888.548828125	1	taste	trialStart	2	114	54	foodImage.34	FOODEEG_Images\0339.jpg	NY	Right	Yes	2.35135440016165	0	454938	251
889.603515625	2	taste	foodImageDisplay	2	114	54	foodImage.34	FOODEEG_Images\0339.jpg	NY	Right	Yes	2.35135440016165	0	455478	252
891.66796875	2.35135440016165	taste	choicePhaseStart	2	114	54	foodImage.34	FOODEEG_Images\0339.jpg	NY	Right	Yes	2.35135440016165	0	456535	253
894.009765625	0	taste	response	2	114	54	foodImage.34	FOODEEG_Images\0339.jpg	NY	Right	Yes	2.35135440016165	0	457734	235
895.052734375	1	taste	trialStart	2	115	55	foodImage.96	FOODEEG_Images\0904.jpg	YN	Right	No	1.31960729998536	0	458268	251
896.091796875	2	taste	foodImageDisplay	2	115	55	foodImage.96	FOODEEG_Images\0904.jpg	YN	Right	No	1.31960729998536	0	458800	252
898.154296875	1.31960729998536	taste	choicePhaseStart	2	115	55	foodImage.96	FOODEEG_Images\0904.jpg	YN	Right	No	1.31960729998536	0	459856	253
899.466796875	0	taste	response	2	115	55	foodImage.96	FOODEEG_Images\0904.jpg	YN	Right	No	1.31960729998536	0	460528	235
900.505859375	1	health	trialStart	2	116	56	foodImage.107	FOODEEG_Images\0915.jpg	NY	Right	Yes	2.09249070007354	0	461060	251
901.54296875	2	health	foodImageDisplay	2	116	56	foodImage.107	FOODEEG_Images\0915.jpg	NY	Right	Yes	2.09249070007354	0	461591	252
903.60546875	2.09249070007354	health	choicePhaseStart	2	116	56	foodImage.107	FOODEEG_Images\0915.jpg	NY	Right	Yes	2.09249070007354	0	462647	253
905.689453125	0	health	response	2	116	56	foodImage.107	FOODEEG_Images\0915.jpg	NY	Right	Yes	2.09249070007354	0	463714	235
906.734375	1	decision	trialStart	2	117	57	foodImage.37	FOODEEG_Images\0359.jpg	NY	Left	No	1.15073709981516	0	464249	251
907.7734375	2	decision	foodImageDisplay	2	117	57	foodImage.37	FOODEEG_Images\0359.jpg	NY	Left	No	1.15073709981516	0	464781	252
909.8359375	1.15073709981516	decision	choicePhaseStart	2	117	57	foodImage.37	FOODEEG_Images\0359.jpg	NY	Left	No	1.15073709981516	0	465837	253
910.978515625	0	decision	response	2	117	57	foodImage.37	FOODEEG_Images\0359.jpg	NY	Left	No	1.15073709981516	0	466422	234
912.021484375	1	health	trialStart	2	118	58	foodImage.78	FOODEEG_Images\0787.jpg	NY	Right	Yes	0.935345599893481	0	466956	251
913.06640625	2	health	foodImageDisplay	2	118	58	foodImage.78	FOODEEG_Images\0787.jpg	NY	Right	Yes	0.935345599893481	0	467491	252
915.130859375	0.935345599893481	health	choicePhaseStart	2	118	58	foodImage.78	FOODEEG_Images\0787.jpg	NY	Right	Yes	0.935345599893481	0	468548	253
916.056640625	0	health	response	2	118	58	foodImage.78	FOODEEG_Images\0787.jpg	NY	Right	Yes	0.935345599893481	0	469022	235
917.099609375	1	health	trialStart	2	119	59	foodImage.50	FOODEEG_Images\0529.jpg	YN	Left	Yes	0.881534300046042	0	469556	251
918.162109375	2	health	foodImageDisplay	2	119	59	foodImage.50	FOODEEG_Images\0529.jpg	YN	Left	Yes	0.881534300046042	0	470100	252
920.224609375	0.881534300046042	health	choicePhaseStart	2	119	59	foodImage.50	FOODEEG_Images\0529.jpg	YN	Left	Yes	0.881534300046042	0	471156	253
921.09765625	0	health	response	2	119	59	foodImage.50	FOODEEG_Images\0529.jpg	YN	Left	Yes	0.881534300046042	0	471603	234
922.140625	1	decision	trialStart	2	120	60	foodImage.105	FOODEEG_Images\0913.jpg	NY	Left	No	1.01556610013358	0	472137	251
923.1796875	2	decision	foodImageDisplay	2	120	60	foodImage.105	FOODEEG_Images\0913.jpg	NY	Left	No	1.01556610013358	0	472669	252
925.2421875	1.01556610013358	decision	choicePhaseStart	2	120	60	foodImage.105	FOODEEG_Images\0913.jpg	NY	Left	No	1.01556610013358	0	473725	253
926.25	0	decision	response	2	120	60	foodImage.105	FOODEEG_Images\0913.jpg	NY	Left	No	1.01556610013358	0	474241	234
928.291015625	10.14453125	n/a	blockEnd	n/a	n/a	n/a	n/a	n/a	n/a	n/a	n/a	n/a	n/a	475286	254
938.435546875	2	n/a	blockStart	3	n/a	n/a	n/a	n/a	n/a	n/a	n/a	n/a	n/a	480480	250
940.466796875	1	decision	trialStart	3	121	1	foodImage.32	FOODEEG_Images\0319.jpg	YN	Right	No	1.36077950010076	0	481520	251
941.513671875	2	decision	foodImageDisplay	3	121	1	foodImage.32	FOODEEG_Images\0319.jpg	YN	Right	No	1.36077950010076	0	482056	252
943.576171875	1.36077950010076	decision	choicePhaseStart	3	121	1	foodImage.32	FOODEEG_Images\0319.jpg	YN	Right	No	1.36077950010076	0	483112	253
944.927734375	0	decision	response	3	121	1	foodImage.32	FOODEEG_Images\0319.jpg	YN	Right	No	1.36077950010076	0	483804	235
945.970703125	1	decision	trialStart	3	122	2	foodImage.77	FOODEEG_Images\0771.jpg	NY	Right	Yes	1.14804399991408	0	484338	251
947.015625	2	decision	foodImageDisplay	3	122	2	foodImage.77	FOODEEG_Images\0771.jpg	NY	Right	Yes	1.14804399991408	0	484873	252
949.078125	1.14804399991408	decision	choicePhaseStart	3	122	2	foodImage.77	FOODEEG_Images\0771.jpg	NY	Right	Yes	1.14804399991408	0	485929	253
950.216796875	0	decision	response	3	122	2	foodImage.77	FOODEEG_Images\0771.jpg	NY	Right	Yes	1.14804399991408	0	486512	235
951.259765625	1	decision	trialStart	3	123	3	foodImage.103	FOODEEG_Images\0911.jpg	YN	Right	No	1.44346170010976	0	487046	251
952.296875	2	decision	foodImageDisplay	3	123	3	foodImage.103	FOODEEG_Images\0911.jpg	YN	Right	No	1.44346170010976	0	487577	252
954.36328125	1.44346170010976	decision	choicePhaseStart	3	123	3	foodImage.103	FOODEEG_Images\0911.jpg	YN	Right	No	1.44346170010976	0	488635	253
955.80078125	0	decision	response	3	123	3	foodImage.103	FOODEEG_Images\0911.jpg	YN	Right	No	1.44346170010976	0	489371	235
956.83984375	1	decision	trialStart	3	124	4	foodImage.72	FOODEEG_Images\0714.jpg	YN	Right	No	0.93719350011088	0	489903	251
957.880859375	2	decision	foodImageDisplay	3	124	4	foodImage.72	FOODEEG_Images\0714.jpg	YN	Right	No	0.93719350011088	0	490436	252
959.943359375	0.93719350011088	decision	choicePhaseStart	3	124	4	foodImage.72	FOODEEG_Images\0714.jpg	YN	Right	No	0.93719350011088	0	491492	253
960.87109375	0	decision	response	3	124	4	foodImage.72	FOODEEG_Images\0714.jpg	YN	Right	No	0.93719350011088	0	491967	235
961.9140625	1	health	trialStart	3	125	5	foodImage.39	FOODEEG_Images\0367.jpg	YN	Right	No	0.966760799987242	0	492501	251
962.955078125	2	health	foodImageDisplay	3	125	5	foodImage.39	FOODEEG_Images\0367.jpg	YN	Right	No	0.966760799987242	0	493034	252
965.017578125	0.966760799987242	health	choicePhaseStart	3	125	5	foodImage.39	FOODEEG_Images\0367.jpg	YN	Right	No	0.966760799987242	0	494090	253
965.974609375	0	health	response	3	125	5	foodImage.39	FOODEEG_Images\0367.jpg	YN	Right	No	0.966760799987242	0	494580	235
967.017578125	1	health	trialStart	3	126	6	foodImage.111	FOODEEG_Images\0919.jpg	YN	Right	No	0.825885399943218	0	495114	251
968.056640625	2	health	foodImageDisplay	3	126	6	foodImage.111	FOODEEG_Images\0919.jpg	YN	Right	No	0.825885399943218	0	495646	252
970.119140625	0.825885399943218	health	choicePhaseStart	3	126	6	foodImage.111	FOODEEG_Images\0919.jpg	YN	Right	No	0.825885399943218	0	496702	253
970.935546875	0	health	response	3	126	6	foodImage.111	FOODEEG_Images\0919.jpg	YN	Right	No	0.825885399943218	0	497120	235
971.978515625	1	health	trialStart	3	127	7	foodImage.3	FOODEEG_Images\0046.jpg	NY	Left	No	0.788263499969617	0	497654	251
973.021484375	2	health	foodImageDisplay	3	127	7	foodImage.3	FOODEEG_Images\0046.jpg	NY	Left	No	0.788263499969617	0	498188	252
975.083984375	0.788263499969617	health	choicePhaseStart	3	127	7	foodImage.3	FOODEEG_Images\0046.jpg	NY	Left	No	0.788263499969617	0	499244	253
975.86328125	0	health	response	3	127	7	foodImage.3	FOODEEG_Images\0046.jpg	NY	Left	No	0.788263499969617	0	499643	234
976.904296875	1	health	trialStart	3	128	8	foodImage.73	FOODEEG_Images\0717.jpg	YN	Right	No	1.20963339996524	0	500176	251
977.958984375	2	health	foodImageDisplay	3	128	8	foodImage.73	FOODEEG_Images\0717.jpg	YN	Right	No	1.20963339996524	0	500716	252
980.021484375	1.20963339996524	health	choicePhaseStart	3	128	8	foodImage.73	FOODEEG_Images\0717.jpg	YN	Right	No	1.20963339996524	0	501772	253
981.22265625	0	health	response	3	128	8	foodImage.73	FOODEEG_Images\0717.jpg	YN	Right	No	1.20963339996524	0	502387	235
982.271484375	1	decision	trialStart	3	129	9	foodImage.45	FOODEEG_Images\0478.jpg	YN	Left	Yes	1.21283919992857	0	502924	251
983.31640625	2	decision	foodImageDisplay	3	129	9	foodImage.45	FOODEEG_Images\0478.jpg	YN	Left	Yes	1.21283919992857	0	503459	252
985.37890625	1.21283919992857	decision	choicePhaseStart	3	129	9	foodImage.45	FOODEEG_Images\0478.jpg	YN	Left	Yes	1.21283919992857	0	504515	253
986.58203125	0	decision	response	3	129	9	foodImage.45	FOODEEG_Images\0478.jpg	YN	Left	Yes	1.21283919992857	0	505131	234
987.625	1	health	trialStart	3	130	10	foodImage.84	FOODEEG_Images\0830.jpg	YN	Left	Yes	0.865646500140429	0	505665	251
988.681640625	2	health	foodImageDisplay	3	130	10	foodImage.84	FOODEEG_Images\0830.jpg	YN	Left	Yes	0.865646500140429	0	506206	252
990.7421875	0.865646500140429	health	choicePhaseStart	3	130	10	foodImage.84	FOODEEG_Images\0830.jpg	YN	Left	Yes	0.865646500140429	0	507261	253
991.599609375	0	health	response	3	130	10	foodImage.84	FOODEEG_Images\0830.jpg	YN	Left	Yes	0.865646500140429	0	507700	234
992.6484375	1	decision	trialStart	3	131	11	foodImage.63	FOODEEG_Images\0645.jpg	YN	Left	Yes	0.892000199994072	0	508237	251
993.69140625	2	decision	foodImageDisplay	3	131	11	foodImage.63	FOODEEG_Images\0645.jpg	YN	Left	Yes	0.892000199994072	0	508771	252
995.75390625	0.892000199994072	decision	choicePhaseStart	3	131	11	foodImage.63	FOODEEG_Images\0645.jpg	YN	Left	Yes	0.892000199994072	0	509827	253
996.638671875	0	decision	response	3	131	11	foodImage.63	FOODEEG_Images\0645.jpg	YN	Left	Yes	0.892000199994072	0	510280	234
997.681640625	1	taste	trialStart	3	132	12	foodImage.15	FOODEEG_Images\0189.jpg	YN	Left	Yes	0.909430600004271	0	510814	251
998.740234375	2	taste	foodImageDisplay	3	132	12	foodImage.15	FOODEEG_Images\0189.jpg	YN	Left	Yes	0.909430600004271	0	511356	252
1000.802734375	0.909430600004271	taste	choicePhaseStart	3	132	12	foodImage.15	FOODEEG_Images\0189.jpg	YN	Left	Yes	0.909430600004271	0	512412	253
1001.703125	0	taste	response	3	132	12	foodImage.15	FOODEEG_Images\0189.jpg	YN	Left	Yes	0.909430600004271	0	512873	234
1002.748046875	1	health	trialStart	3	133	13	foodImage.11	FOODEEG_Images\0180.jpg	NY	Right	Yes	1.81199899991043	0	513408	251
1003.791015625	2	health	foodImageDisplay	3	133	13	foodImage.11	FOODEEG_Images\0180.jpg	NY	Right	Yes	1.81199899991043	0	513942	252
1005.857421875	1.81199899991043	health	choicePhaseStart	3	133	13	foodImage.11	FOODEEG_Images\0180.jpg	NY	Right	Yes	1.81199899991043	0	515000	253
1007.662109375	0	health	response	3	133	13	foodImage.11	FOODEEG_Images\0180.jpg	NY	Right	Yes	1.81199899991043	0	515924	235
1008.705078125	1	health	trialStart	3	134	14	foodImage.34	FOODEEG_Images\0339.jpg	NY	Left	No	1.07745760004036	0	516458	251
1009.763671875	2	health	foodImageDisplay	3	134	14	foodImage.34	FOODEEG_Images\0339.jpg	NY	Left	No	1.07745760004036	0	517000	252
1011.82421875	1.07745760004036	health	choicePhaseStart	3	134	14	foodImage.34	FOODEEG_Images\0339.jpg	NY	Left	No	1.07745760004036	0	518055	253
1012.89453125	0	health	response	3	134	14	foodImage.34	FOODEEG_Images\0339.jpg	NY	Left	No	1.07745760004036	0	518603	234
1013.93359375	1	taste	trialStart	3	135	15	foodImage.18	FOODEEG_Images\0202.jpg	NY	Right	Yes	1.1318393999245	0	519135	251
1014.98828125	2	taste	foodImageDisplay	3	135	15	foodImage.18	FOODEEG_Images\0202.jpg	NY	Right	Yes	1.1318393999245	0	519675	252
1017.05078125	1.1318393999245	taste	choicePhaseStart	3	135	15	foodImage.18	FOODEEG_Images\0202.jpg	NY	Right	Yes	1.1318393999245	0	520731	253
1018.173828125	0	taste	response	3	135	15	foodImage.18	FOODEEG_Images\0202.jpg	NY	Right	Yes	1.1318393999245	0	521306	235
1019.212890625	1	decision	trialStart	3	136	16	foodImage.51	FOODEEG_Images\0536.jpg	NY	Left	No	1.47220720001496	0	521838	251
1020.255859375	2	decision	foodImageDisplay	3	136	16	foodImage.51	FOODEEG_Images\0536.jpg	NY	Left	No	1.47220720001496	0	522372	252
1022.318359375	1.47220720001496	decision	choicePhaseStart	3	136	16	foodImage.51	FOODEEG_Images\0536.jpg	NY	Left	No	1.47220720001496	0	523428	253
1023.78125	0	decision	response	3	136	16	foodImage.51	FOODEEG_Images\0536.jpg	NY	Left	No	1.47220720001496	0	524177	234
1024.82421875	1	decision	trialStart	3	137	17	foodImage.100	FOODEEG_Images\0908.jpg	YN	Right	No	0.931770300026983	0	524711	251
1025.869140625	2	decision	foodImageDisplay	3	137	17	foodImage.100	FOODEEG_Images\0908.jpg	YN	Right	No	0.931770300026983	0	525246	252
1027.931640625	0.931770300026983	decision	choicePhaseStart	3	137	17	foodImage.100	FOODEEG_Images\0908.jpg	YN	Right	No	0.931770300026983	0	526302	253
1028.853515625	0	decision	response	3	137	17	foodImage.100	FOODEEG_Images\0908.jpg	YN	Right	No	0.931770300026983	0	526774	235
1029.896484375	1	decision	trialStart	3	138	18	foodImage.33	FOODEEG_Images\0329.jpg	NY	Right	Yes	2.48260820005089	0	527308	251
1030.94140625	2	decision	foodImageDisplay	3	138	18	foodImage.33	FOODEEG_Images\0329.jpg	NY	Right	Yes	2.48260820005089	0	527843	252
1033.00390625	2.48260820005089	decision	choicePhaseStart	3	138	18	foodImage.33	FOODEEG_Images\0329.jpg	NY	Right	Yes	2.48260820005089	0	528899	253
1035.4765625	0	decision	response	3	138	18	foodImage.33	FOODEEG_Images\0329.jpg	NY	Right	Yes	2.48260820005089	0	530165	235
1036.521484375	1	health	trialStart	3	139	19	foodImage.17	FOODEEG_Images\0199.jpg	YN	Left	Yes	0.878624799894169	0	530700	251
1037.560546875	2	health	foodImageDisplay	3	139	19	foodImage.17	FOODEEG_Images\0199.jpg	YN	Left	Yes	0.878624799894169	0	531232	252
1039.623046875	0.878624799894169	health	choicePhaseStart	3	139	19	foodImage.17	FOODEEG_Images\0199.jpg	YN	Left	Yes	0.878624799894169	0	532288	253
1040.4921875	0	health	response	3	139	19	foodImage.17	FOODEEG_Images\0199.jpg	YN	Left	Yes	0.878624799894169	0	532733	234
1041.53515625	1	health	trialStart	3	140	20	foodImage.97	FOODEEG_Images\0905.jpg	YN	Right	No	0.919886699877679	0	533267	251
1042.576171875	2	health	foodImageDisplay	3	140	20	foodImage.97	FOODEEG_Images\0905.jpg	YN	Right	No	0.919886699877679	0	533800	252
1044.638671875	0.919886699877679	health	choicePhaseStart	3	140	20	foodImage.97	FOODEEG_Images\0905.jpg	YN	Right	No	0.919886699877679	0	534856	253
1045.548828125	0	health	response	3	140	20	foodImage.97	FOODEEG_Images\0905.jpg	YN	Right	No	0.919886699877679	0	535322	235
1046.591796875	1	health	trialStart	3	141	21	foodImage.1	FOODEEG_Images\0004.jpg	NY	Left	No	1.04587360005826	0	535856	251
1047.6328125	2	health	foodImageDisplay	3	141	21	foodImage.1	FOODEEG_Images\0004.jpg	NY	Left	No	1.04587360005826	0	536389	252
1049.6953125	1.04587360005826	health	choicePhaseStart	3	141	21	foodImage.1	FOODEEG_Images\0004.jpg	NY	Left	No	1.04587360005826	0	537445	253
1050.732421875	0	health	response	3	141	21	foodImage.1	FOODEEG_Images\0004.jpg	NY	Left	No	1.04587360005826	0	537976	234
1051.775390625	1	taste	trialStart	3	142	22	foodImage.22	FOODEEG_Images\0236.jpg	YN	Right	No	1.5485773999244	0	538510	251
1052.818359375	2	taste	foodImageDisplay	3	142	22	foodImage.22	FOODEEG_Images\0236.jpg	YN	Right	No	1.5485773999244	0	539044	252
1054.880859375	1.5485773999244	taste	choicePhaseStart	3	142	22	foodImage.22	FOODEEG_Images\0236.jpg	YN	Right	No	1.5485773999244	0	540100	253
1056.419921875	0	taste	response	3	142	22	foodImage.22	FOODEEG_Images\0236.jpg	YN	Right	No	1.5485773999244	0	540888	235
1057.462890625	1	health	trialStart	3	143	23	foodImage.31	FOODEEG_Images\0294.jpg	NY	Right	Yes	1.67459999979474	0	541422	251
1058.5078125	2	health	foodImageDisplay	3	143	23	foodImage.31	FOODEEG_Images\0294.jpg	NY	Right	Yes	1.67459999979474	0	541957	252
1060.5703125	1.67459999979474	health	choicePhaseStart	3	143	23	foodImage.31	FOODEEG_Images\0294.jpg	NY	Right	Yes	1.67459999979474	0	543013	253
1062.236328125	0	health	response	3	143	23	foodImage.31	FOODEEG_Images\0294.jpg	NY	Right	Yes	1.67459999979474	0	543866	235
1063.283203125	1	health	trialStart	3	144	24	foodImage.69	FOODEEG_Images\0693.jpg	YN	Left	Yes	1.1865736998152	0	544402	251
1064.32421875	2	health	foodImageDisplay	3	144	24	foodImage.69	FOODEEG_Images\0693.jpg	YN	Left	Yes	1.1865736998152	0	544935	252
1066.38671875	1.1865736998152	health	choicePhaseStart	3	144	24	foodImage.69	FOODEEG_Images\0693.jpg	YN	Left	Yes	1.1865736998152	0	545991	253
1067.564453125	0	health	response	3	144	24	foodImage.69	FOODEEG_Images\0693.jpg	YN	Left	Yes	1.1865736998152	0	546594	234
1068.60546875	1	health	trialStart	3	145	25	foodImage.68	FOODEEG_Images\0685.jpg	NY	Left	No	0.817102300003171	0	547127	251
1069.685546875	2	health	foodImageDisplay	3	145	25	foodImage.68	FOODEEG_Images\0685.jpg	NY	Left	No	0.817102300003171	0	547680	252
1071.748046875	0.817102300003171	health	choicePhaseStart	3	145	25	foodImage.68	FOODEEG_Images\0685.jpg	NY	Left	No	0.817102300003171	0	548736	253
1072.5546875	0	health	response	3	145	25	foodImage.68	FOODEEG_Images\0685.jpg	NY	Left	No	0.817102300003171	0	549149	234
1073.59765625	1	taste	trialStart	3	146	26	foodImage.49	FOODEEG_Images\0515.jpg	YN	Left	Yes	0.990003099897876	0	549683	251
1074.640625	2	taste	foodImageDisplay	3	146	26	foodImage.49	FOODEEG_Images\0515.jpg	YN	Left	Yes	0.990003099897876	0	550217	252
1076.703125	0.990003099897876	taste	choicePhaseStart	3	146	26	foodImage.49	FOODEEG_Images\0515.jpg	YN	Left	Yes	0.990003099897876	0	551273	253
1077.68359375	0	taste	response	3	146	26	foodImage.49	FOODEEG_Images\0515.jpg	YN	Left	Yes	0.990003099897876	0	551775	234
1078.7265625	1	health	trialStart	3	147	27	foodImage.89	FOODEEG_Images\0881.jpg	NY	Right	Yes	1.04956600000151	0	552309	251
1079.779296875	2	health	foodImageDisplay	3	147	27	foodImage.89	FOODEEG_Images\0881.jpg	NY	Right	Yes	1.04956600000151	0	552848	252
1081.841796875	1.04956600000151	health	choicePhaseStart	3	147	27	foodImage.89	FOODEEG_Images\0881.jpg	NY	Right	Yes	1.04956600000151	0	553904	253
1082.8828125	0	health	response	3	147	27	foodImage.89	FOODEEG_Images\0881.jpg	NY	Right	Yes	1.04956600000151	0	554437	235
1083.92578125	1	taste	trialStart	3	148	28	foodImage.85	FOODEEG_Images\0841.jpg	NY	Right	Yes	0.708055200055242	0	554971	251
1085.0078125	2	taste	foodImageDisplay	3	148	28	foodImage.85	FOODEEG_Images\0841.jpg	NY	Right	Yes	0.708055200055242	0	555525	252
1087.0703125	0.708055200055242	taste	choicePhaseStart	3	148	28	foodImage.85	FOODEEG_Images\0841.jpg	NY	Right	Yes	0.708055200055242	0	556581	253
1087.771484375	0	taste	response	3	148	28	foodImage.85	FOODEEG_Images\0841.jpg	NY	Right	Yes	0.708055200055242	0	556940	235
1088.814453125	1	health	trialStart	3	149	29	foodImage.57	FOODEEG_Images\0587.jpg	YN	Right	No	0.900082899956033	0	557474	251
1089.857421875	2	health	foodImageDisplay	3	149	29	foodImage.57	FOODEEG_Images\0587.jpg	YN	Right	No	0.900082899956033	0	558008	252
1091.919921875	0.900082899956033	health	choicePhaseStart	3	149	29	foodImage.57	FOODEEG_Images\0587.jpg	YN	Right	No	0.900082899956033	0	559064	253
1092.810546875	0	health	response	3	149	29	foodImage.57	FOODEEG_Images\0587.jpg	YN	Right	No	0.900082899956033	0	559520	235
1093.853515625	1	taste	trialStart	3	150	30	foodImage.33	FOODEEG_Images\0329.jpg	YN	Left	Yes	0.914743000175804	0	560054	251
1094.896484375	2	taste	foodImageDisplay	3	150	30	foodImage.33	FOODEEG_Images\0329.jpg	YN	Left	Yes	0.914743000175804	0	560588	252
1096.9609375	0.914743000175804	taste	choicePhaseStart	3	150	30	foodImage.33	FOODEEG_Images\0329.jpg	YN	Left	Yes	0.914743000175804	0	561645	253
1097.8671875	0	taste	response	3	150	30	foodImage.33	FOODEEG_Images\0329.jpg	YN	Left	Yes	0.914743000175804	0	562109	234
1098.91015625	1	taste	trialStart	3	151	31	foodImage.120	FOODEEG_Images\0928.jpg	NY	Left	No	0.815864200005308	0	562643	251
1099.94921875	2	taste	foodImageDisplay	3	151	31	foodImage.120	FOODEEG_Images\0928.jpg	NY	Left	No	0.815864200005308	0	563175	252
1102.01171875	0.815864200005308	taste	choicePhaseStart	3	151	31	foodImage.120	FOODEEG_Images\0928.jpg	NY	Left	No	0.815864200005308	0	564231	253
1102.818359375	0	taste	response	3	151	31	foodImage.120	FOODEEG_Images\0928.jpg	NY	Left	No	0.815864200005308	0	564644	234
1103.861328125	1	decision	trialStart	3	152	32	foodImage.104	FOODEEG_Images\0912.jpg	NY	Right	Yes	0.83385349996388	0	565178	251
1104.8984375	2	decision	foodImageDisplay	3	152	32	foodImage.104	FOODEEG_Images\0912.jpg	NY	Right	Yes	0.83385349996388	0	565709	252
1106.9609375	0.83385349996388	decision	choicePhaseStart	3	152	32	foodImage.104	FOODEEG_Images\0912.jpg	NY	Right	Yes	0.83385349996388	0	566765	253
1107.787109375	0	decision	response	3	152	32	foodImage.104	FOODEEG_Images\0912.jpg	NY	Right	Yes	0.83385349996388	0	567188	235
1108.830078125	1	decision	trialStart	3	153	33	foodImage.43	FOODEEG_Images\0445.jpg	NY	Left	No	0.59744150005281	0	567722	251
1109.88671875	2	decision	foodImageDisplay	3	153	33	foodImage.43	FOODEEG_Images\0445.jpg	NY	Left	No	0.59744150005281	0	568263	252
1111.94921875	0.59744150005281	decision	choicePhaseStart	3	153	33	foodImage.43	FOODEEG_Images\0445.jpg	NY	Left	No	0.59744150005281	0	569319	253
1112.537109375	0	decision	response	3	153	33	foodImage.43	FOODEEG_Images\0445.jpg	NY	Left	No	0.59744150005281	0	569620	234
1113.580078125	1	taste	trialStart	3	154	34	foodImage.58	FOODEEG_Images\0605.jpg	NY	Left	No	0.937073200009763	0	570154	251
1114.640625	2	taste	foodImageDisplay	3	154	34	foodImage.58	FOODEEG_Images\0605.jpg	NY	Left	No	0.937073200009763	0	570697	252
1116.703125	0.937073200009763	taste	choicePhaseStart	3	154	34	foodImage.58	FOODEEG_Images\0605.jpg	NY	Left	No	0.937073200009763	0	571753	253
1117.6328125	0	taste	response	3	154	34	foodImage.58	FOODEEG_Images\0605.jpg	NY	Left	No	0.937073200009763	0	572229	234
1118.677734375	1	health	trialStart	3	155	35	foodImage.95	FOODEEG_Images\0903.jpg	NY	Left	No	0.871057000011206	0	572764	251
1119.716796875	2	health	foodImageDisplay	3	155	35	foodImage.95	FOODEEG_Images\0903.jpg	NY	Left	No	0.871057000011206	0	573296	252
1121.779296875	0.871057000011206	health	choicePhaseStart	3	155	35	foodImage.95	FOODEEG_Images\0903.jpg	NY	Left	No	0.871057000011206	0	574352	253
1122.640625	0	health	response	3	155	35	foodImage.95	FOODEEG_Images\0903.jpg	NY	Left	No	0.871057000011206	0	574793	234
1123.68359375	1	decision	trialStart	3	156	36	foodImage.59	FOODEEG_Images\0607.jpg	NY	Right	Yes	0.811899100197479	0	575327	251
1124.728515625	2	decision	foodImageDisplay	3	156	36	foodImage.59	FOODEEG_Images\0607.jpg	NY	Right	Yes	0.811899100197479	0	575862	252
1126.791015625	0.811899100197479	decision	choicePhaseStart	3	156	36	foodImage.59	FOODEEG_Images\0607.jpg	NY	Right	Yes	0.811899100197479	0	576918	253
1127.59375	0	decision	response	3	156	36	foodImage.59	FOODEEG_Images\0607.jpg	NY	Right	Yes	0.811899100197479	0	577329	235
1128.634765625	1	decision	trialStart	3	157	37	foodImage.11	FOODEEG_Images\0180.jpg	NY	Right	Yes	0.67301239981316	0	577862	251
1129.67578125	2	decision	foodImageDisplay	3	157	37	foodImage.11	FOODEEG_Images\0180.jpg	NY	Right	Yes	0.67301239981316	0	578395	252
1131.73828125	0.67301239981316	decision	choicePhaseStart	3	157	37	foodImage.11	FOODEEG_Images\0180.jpg	NY	Right	Yes	0.67301239981316	0	579451	253
1132.400390625	0	decision	response	3	157	37	foodImage.11	FOODEEG_Images\0180.jpg	NY	Right	Yes	0.67301239981316	0	579790	235
1133.443359375	1	health	trialStart	3	158	38	foodImage.104	FOODEEG_Images\0912.jpg	NY	Left	No	0.644672400085256	0	580324	251
1134.48046875	2	health	foodImageDisplay	3	158	38	foodImage.104	FOODEEG_Images\0912.jpg	NY	Left	No	0.644672400085256	0	580855	252
1136.541015625	0.644672400085256	health	choicePhaseStart	3	158	38	foodImage.104	FOODEEG_Images\0912.jpg	NY	Left	No	0.644672400085256	0	581910	253
1137.177734375	0	health	response	3	158	38	foodImage.104	FOODEEG_Images\0912.jpg	NY	Left	No	0.644672400085256	0	582236	234
1138.220703125	1	health	trialStart	3	159	39	foodImage.40	FOODEEG_Images\0373.jpg	NY	Left	No	0.749768600100651	0	582770	251
1139.26171875	2	health	foodImageDisplay	3	159	39	foodImage.40	FOODEEG_Images\0373.jpg	NY	Left	No	0.749768600100651	0	583303	252
1141.32421875	0.749768600100651	health	choicePhaseStart	3	159	39	foodImage.40	FOODEEG_Images\0373.jpg	NY	Left	No	0.749768600100651	0	584359	253
1142.064453125	0	health	response	3	159	39	foodImage.40	FOODEEG_Images\0373.jpg	NY	Left	No	0.749768600100651	0	584738	234
1143.107421875	1	health	trialStart	3	160	40	foodImage.48	FOODEEG_Images\0494.jpg	NY	Left	No	0.588068400043994	0	585272	251
1144.150390625	2	health	foodImageDisplay	3	160	40	foodImage.48	FOODEEG_Images\0494.jpg	NY	Left	No	0.588068400043994	0	585806	252
1146.212890625	0.588068400043994	health	choicePhaseStart	3	160	40	foodImage.48	FOODEEG_Images\0494.jpg	NY	Left	No	0.588068400043994	0	586862	253
1146.79296875	0	health	response	3	160	40	foodImage.48	FOODEEG_Images\0494.jpg	NY	Left	No	0.588068400043994	0	587159	234
1147.833984375	1	taste	trialStart	3	161	41	foodImage.55	FOODEEG_Images\0567.jpg	YN	Left	Yes	0.880501799983904	0	587692	251
1148.890625	2	taste	foodImageDisplay	3	161	41	foodImage.55	FOODEEG_Images\0567.jpg	YN	Left	Yes	0.880501799983904	0	588233	252
1150.951171875	0.880501799983904	taste	choicePhaseStart	3	161	41	foodImage.55	FOODEEG_Images\0567.jpg	YN	Left	Yes	0.880501799983904	0	589288	253
1151.82421875	0	taste	response	3	161	41	foodImage.55	FOODEEG_Images\0567.jpg	YN	Left	Yes	0.880501799983904	0	589735	234
1152.87109375	1	health	trialStart	3	162	42	foodImage.32	FOODEEG_Images\0319.jpg	NY	Left	No	1.17566460021771	0	590271	251
1153.9140625	2	health	foodImageDisplay	3	162	42	foodImage.32	FOODEEG_Images\0319.jpg	NY	Left	No	1.17566460021771	0	590805	252
1155.9765625	1.17566460021771	health	choicePhaseStart	3	162	42	foodImage.32	FOODEEG_Images\0319.jpg	NY	Left	No	1.17566460021771	0	591861	253
1157.14453125	0	health	response	3	162	42	foodImage.32	FOODEEG_Images\0319.jpg	NY	Left	No	1.17566460021771	0	592459	234
1158.1875	1	health	trialStart	3	163	43	foodImage.83	FOODEEG_Images\0827.jpg	NY	Right	Yes	0.773868100019172	0	592993	251
1159.244140625	2	health	foodImageDisplay	3	163	43	foodImage.83	FOODEEG_Images\0827.jpg	NY	Right	Yes	0.773868100019172	0	593534	252
1161.306640625	0.773868100019172	health	choicePhaseStart	3	163	43	foodImage.83	FOODEEG_Images\0827.jpg	NY	Right	Yes	0.773868100019172	0	594590	253
1162.072265625	0	health	response	3	163	43	foodImage.83	FOODEEG_Images\0827.jpg	NY	Right	Yes	0.773868100019172	0	594982	235
1163.115234375	1	decision	trialStart	3	164	44	foodImage.95	FOODEEG_Images\0903.jpg	YN	Right	No	0.832899000030011	0	595516	251
1164.154296875	2	decision	foodImageDisplay	3	164	44	foodImage.95	FOODEEG_Images\0903.jpg	YN	Right	No	0.832899000030011	0	596048	252
1166.21484375	0.832899000030011	decision	choicePhaseStart	3	164	44	foodImage.95	FOODEEG_Images\0903.jpg	YN	Right	No	0.832899000030011	0	597103	253
1167.0390625	0	decision	response	3	164	44	foodImage.95	FOODEEG_Images\0903.jpg	YN	Right	No	0.832899000030011	0	597525	235
1168.083984375	1	taste	trialStart	3	165	45	foodImage.45	FOODEEG_Images\0478.jpg	YN	Left	Yes	0.849223100114614	0	598060	251
1169.12890625	2	taste	foodImageDisplay	3	165	45	foodImage.45	FOODEEG_Images\0478.jpg	YN	Left	Yes	0.849223100114614	0	598595	252
1171.19140625	0.849223100114614	taste	choicePhaseStart	3	165	45	foodImage.45	FOODEEG_Images\0478.jpg	YN	Left	Yes	0.849223100114614	0	599651	253
1172.03125	0	taste	response	3	165	45	foodImage.45	FOODEEG_Images\0478.jpg	YN	Left	Yes	0.849223100114614	0	600081	234
1173.076171875	1	taste	trialStart	3	166	46	foodImage.59	FOODEEG_Images\0607.jpg	NY	Right	Yes	1.02264979993924	0	600616	251
1174.123046875	2	taste	foodImageDisplay	3	166	46	foodImage.59	FOODEEG_Images\0607.jpg	NY	Right	Yes	1.02264979993924	0	601152	252
1176.185546875	1.02264979993924	taste	choicePhaseStart	3	166	46	foodImage.59	FOODEEG_Images\0607.jpg	NY	Right	Yes	1.02264979993924	0	602208	253
1177.19921875	0	taste	response	3	166	46	foodImage.59	FOODEEG_Images\0607.jpg	NY	Right	Yes	1.02264979993924	0	602727	235
1178.248046875	1	decision	trialStart	3	167	47	foodImage.4	FOODEEG_Images\0065.jpg	YN	Left	Yes	0.747074500191957	0	603264	251
1179.310546875	2	decision	foodImageDisplay	3	167	47	foodImage.4	FOODEEG_Images\0065.jpg	YN	Left	Yes	0.747074500191957	0	603808	252
1181.373046875	0.747074500191957	decision	choicePhaseStart	3	167	47	foodImage.4	FOODEEG_Images\0065.jpg	YN	Left	Yes	0.747074500191957	0	604864	253
1182.111328125	0	decision	response	3	167	47	foodImage.4	FOODEEG_Images\0065.jpg	YN	Left	Yes	0.747074500191957	0	605242	234
1183.154296875	1	decision	trialStart	3	168	48	foodImage.29	FOODEEG_Images\0278.jpg	NY	Left	No	0.889283100143075	0	605776	251
1184.19921875	2	decision	foodImageDisplay	3	168	48	foodImage.29	FOODEEG_Images\0278.jpg	NY	Left	No	0.889283100143075	0	606311	252
1186.26171875	0.889283100143075	decision	choicePhaseStart	3	168	48	foodImage.29	FOODEEG_Images\0278.jpg	NY	Left	No	0.889283100143075	0	607367	253
1187.142578125	0	decision	response	3	168	48	foodImage.29	FOODEEG_Images\0278.jpg	NY	Left	No	0.889283100143075	0	607818	234
1188.19140625	1	taste	trialStart	3	169	49	foodImage.87	FOODEEG_Images\0873.jpg	YN	Right	No	0.768938000081107	0	608355	251
1189.248046875	2	taste	foodImageDisplay	3	169	49	foodImage.87	FOODEEG_Images\0873.jpg	YN	Right	No	0.768938000081107	0	608896	252
1191.310546875	0.768938000081107	taste	choicePhaseStart	3	169	49	foodImage.87	FOODEEG_Images\0873.jpg	YN	Right	No	0.768938000081107	0	609952	253
1192.0703125	0	taste	response	3	169	49	foodImage.87	FOODEEG_Images\0873.jpg	YN	Right	No	0.768938000081107	0	610341	235
1193.11328125	1	decision	trialStart	3	170	50	foodImage.26	FOODEEG_Images\0262.jpg	NY	Left	No	0.718693600036204	0	610875	251
1194.154296875	2	decision	foodImageDisplay	3	170	50	foodImage.26	FOODEEG_Images\0262.jpg	NY	Left	No	0.718693600036204	0	611408	252
1196.216796875	0.718693600036204	decision	choicePhaseStart	3	170	50	foodImage.26	FOODEEG_Images\0262.jpg	NY	Left	No	0.718693600036204	0	612464	253
1196.92578125	0	decision	response	3	170	50	foodImage.26	FOODEEG_Images\0262.jpg	NY	Left	No	0.718693600036204	0	612827	234
1197.9765625	1	health	trialStart	3	171	51	foodImage.62	FOODEEG_Images\0644.jpg	NY	Right	Yes	0.959610600024462	0	613365	251
1199.033203125	2	health	foodImageDisplay	3	171	51	foodImage.62	FOODEEG_Images\0644.jpg	NY	Right	Yes	0.959610600024462	0	613906	252
1201.095703125	0.959610600024462	health	choicePhaseStart	3	171	51	foodImage.62	FOODEEG_Images\0644.jpg	NY	Right	Yes	0.959610600024462	0	614962	253
1202.046875	0	health	response	3	171	51	foodImage.62	FOODEEG_Images\0644.jpg	NY	Right	Yes	0.959610600024462	0	615449	235
1203.08984375	1	health	trialStart	3	172	52	foodImage.99	FOODEEG_Images\0907.jpg	YN	Right	No	0.833570600021631	0	615983	251
1204.126953125	2	health	foodImageDisplay	3	172	52	foodImage.99	FOODEEG_Images\0907.jpg	YN	Right	No	0.833570600021631	0	616514	252
1206.189453125	0.833570600021631	health	choicePhaseStart	3	172	52	foodImage.99	FOODEEG_Images\0907.jpg	YN	Right	No	0.833570600021631	0	617570	253
1207.013671875	0	health	response	3	172	52	foodImage.99	FOODEEG_Images\0907.jpg	YN	Right	No	0.833570600021631	0	617992	235
1208.056640625	1	health	trialStart	3	173	53	foodImage.25	FOODEEG_Images\0261.jpg	YN	Left	Yes	0.661578699946404	0	618526	251
1209.099609375	2	health	foodImageDisplay	3	173	53	foodImage.25	FOODEEG_Images\0261.jpg	YN	Left	Yes	0.661578699946404	0	619060	252
1211.162109375	0.661578699946404	health	choicePhaseStart	3	173	53	foodImage.25	FOODEEG_Images\0261.jpg	YN	Left	Yes	0.661578699946404	0	620116	253
1211.814453125	0	health	response	3	173	53	foodImage.25	FOODEEG_Images\0261.jpg	YN	Left	Yes	0.661578699946404	0	620450	234
1212.85546875	1	taste	trialStart	3	174	54	foodImage.74	FOODEEG_Images\0752.jpg	NY	Right	Yes	0.837155299959704	0	620983	251
1213.8984375	2	taste	foodImageDisplay	3	174	54	foodImage.74	FOODEEG_Images\0752.jpg	NY	Right	Yes	0.837155299959704	0	621517	252
1215.9609375	0.837155299959704	taste	choicePhaseStart	3	174	54	foodImage.74	FOODEEG_Images\0752.jpg	NY	Right	Yes	0.837155299959704	0	622573	253
1216.7890625	0	taste	response	3	174	54	foodImage.74	FOODEEG_Images\0752.jpg	NY	Right	Yes	0.837155299959704	0	622997	235
1217.833984375	1	decision	trialStart	3	175	55	foodImage.36	FOODEEG_Images\0352.jpg	NY	Right	Yes	0.758025800110772	0	623532	251
1218.890625	2	decision	foodImageDisplay	3	175	55	foodImage.36	FOODEEG_Images\0352.jpg	NY	Right	Yes	0.758025800110772	0	624073	252
1220.953125	0.758025800110772	decision	choicePhaseStart	3	175	55	foodImage.36	FOODEEG_Images\0352.jpg	NY	Right	Yes	0.758025800110772	0	625129	253
1221.701171875	0	decision	response	3	175	55	foodImage.36	FOODEEG_Images\0352.jpg	NY	Right	Yes	0.758025800110772	0	625512	235
1222.744140625	1	health	trialStart	3	176	56	foodImage.27	FOODEEG_Images\0263.jpg	YN	Left	Yes	0.648156500188634	0	626046	251
1223.787109375	2	health	foodImageDisplay	3	176	56	foodImage.27	FOODEEG_Images\0263.jpg	YN	Left	Yes	0.648156500188634	0	626580	252
1225.853515625	0.648156500188634	health	choicePhaseStart	3	176	56	foodImage.27	FOODEEG_Images\0263.jpg	YN	Left	Yes	0.648156500188634	0	627638	253
1226.494140625	0	health	response	3	176	56	foodImage.27	FOODEEG_Images\0263.jpg	YN	Left	Yes	0.648156500188634	0	627966	234
1227.537109375	1	health	trialStart	3	177	57	foodImage.91	FOODEEG_Images\0896.jpg	NY	Right	Yes	0.965910299913958	0	628500	251
1228.59375	2	health	foodImageDisplay	3	177	57	foodImage.91	FOODEEG_Images\0896.jpg	NY	Right	Yes	0.965910299913958	0	629041	252
1230.658203125	0.965910299913958	health	choicePhaseStart	3	177	57	foodImage.91	FOODEEG_Images\0896.jpg	NY	Right	Yes	0.965910299913958	0	630098	253
1231.61328125	0	health	response	3	177	57	foodImage.91	FOODEEG_Images\0896.jpg	NY	Right	Yes	0.965910299913958	0	630587	235
1232.65234375	1	decision	trialStart	3	178	58	foodImage.109	FOODEEG_Images\0917.jpg	NY	Left	No	0.698968299897388	0	631119	251
1233.69140625	2	decision	foodImageDisplay	3	178	58	foodImage.109	FOODEEG_Images\0917.jpg	NY	Left	No	0.698968299897388	0	631651	252
1235.755859375	0.698968299897388	decision	choicePhaseStart	3	178	58	foodImage.109	FOODEEG_Images\0917.jpg	NY	Left	No	0.698968299897388	0	632708	253
1236.4453125	0	decision	response	3	178	58	foodImage.109	FOODEEG_Images\0917.jpg	NY	Left	No	0.698968299897388	0	633061	234
1237.48828125	1	taste	trialStart	3	179	59	foodImage.42	FOODEEG_Images\0438.jpg	NY	Left	No	1.25300649995916	0	633595	251
1238.578125	2	taste	foodImageDisplay	3	179	59	foodImage.42	FOODEEG_Images\0438.jpg	NY	Left	No	1.25300649995916	0	634153	252
1240.640625	1.25300649995916	taste	choicePhaseStart	3	179	59	foodImage.42	FOODEEG_Images\0438.jpg	NY	Left	No	1.25300649995916	0	635209	253
1241.884765625	0	taste	response	3	179	59	foodImage.42	FOODEEG_Images\0438.jpg	NY	Left	No	1.25300649995916	0	635846	234
1242.927734375	1	taste	trialStart	3	180	60	foodImage.101	FOODEEG_Images\0909.jpg	YN	Right	No	0.913606100017205	0	636380	251
1243.96484375	2	taste	foodImageDisplay	3	180	60	foodImage.101	FOODEEG_Images\0909.jpg	YN	Right	No	0.913606100017205	0	636911	252
1246.02734375	0.913606100017205	taste	choicePhaseStart	3	180	60	foodImage.101	FOODEEG_Images\0909.jpg	YN	Right	No	0.913606100017205	0	637967	253
1246.931640625	0	taste	response	3	180	60	foodImage.101	FOODEEG_Images\0909.jpg	YN	Right	No	0.913606100017205	0	638430	235
1248.97265625	11.38671875	n/a	blockEnd	n/a	n/a	n/a	n/a	n/a	n/a	n/a	n/a	n/a	n/a	639475	254
1260.359375	2	n/a	blockStart	4	n/a	n/a	n/a	n/a	n/a	n/a	n/a	n/a	n/a	645305	250
1262.390625	1	health	trialStart	4	181	1	foodImage.23	FOODEEG_Images\0244.jpg	YN	Left	Yes	0.769202699884772	0	646345	251
1263.435546875	2	health	foodImageDisplay	4	181	1	foodImage.23	FOODEEG_Images\0244.jpg	YN	Left	Yes	0.769202699884772	0	646880	252
1265.5	0.769202699884772	health	choicePhaseStart	4	181	1	foodImage.23	FOODEEG_Images\0244.jpg	YN	Left	Yes	0.769202699884772	0	647937	253
1266.259765625	0	health	response	4	181	1	foodImage.23	FOODEEG_Images\0244.jpg	YN	Left	Yes	0.769202699884772	0	648326	234
1267.302734375	1	decision	trialStart	4	182	2	foodImage.44	FOODEEG_Images\0459.jpg	NY	Right	Yes	1.01714090001769	0	648860	251
1268.365234375	2	decision	foodImageDisplay	4	182	2	foodImage.44	FOODEEG_Images\0459.jpg	NY	Right	Yes	1.01714090001769	0	649404	252
1270.427734375	1.01714090001769	decision	choicePhaseStart	4	182	2	foodImage.44	FOODEEG_Images\0459.jpg	NY	Right	Yes	1.01714090001769	0	650460	253
1271.435546875	0	decision	response	4	182	2	foodImage.44	FOODEEG_Images\0459.jpg	NY	Right	Yes	1.01714090001769	0	650976	235
1272.478515625	1	decision	trialStart	4	183	3	foodImage.41	FOODEEG_Images\0409.jpg	YN	Left	Yes	0.99229359999299	0	651510	251
1273.525390625	2	decision	foodImageDisplay	4	183	3	foodImage.41	FOODEEG_Images\0409.jpg	YN	Left	Yes	0.99229359999299	0	652046	252
1275.587890625	0.99229359999299	decision	choicePhaseStart	4	183	3	foodImage.41	FOODEEG_Images\0409.jpg	YN	Left	Yes	0.99229359999299	0	653102	253
1276.572265625	0	decision	response	4	183	3	foodImage.41	FOODEEG_Images\0409.jpg	YN	Left	Yes	0.99229359999299	0	653606	234
1277.61328125	1	decision	trialStart	4	184	4	foodImage.99	FOODEEG_Images\0907.jpg	NY	Left	No	0.628097499953583	0	654139	251
1278.650390625	2	decision	foodImageDisplay	4	184	4	foodImage.99	FOODEEG_Images\0907.jpg	NY	Left	No	0.628097499953583	0	654670	252
1280.712890625	0.628097499953583	decision	choicePhaseStart	4	184	4	foodImage.99	FOODEEG_Images\0907.jpg	NY	Left	No	0.628097499953583	0	655726	253
1281.33203125	0	decision	response	4	184	4	foodImage.99	FOODEEG_Images\0907.jpg	NY	Left	No	0.628097499953583	0	656043	234
1282.37109375	1	decision	trialStart	4	185	5	foodImage.2	FOODEEG_Images\0028.jpg	YN	Left	Yes	0.743941399967298	0	656575	251
1283.4140625	2	decision	foodImageDisplay	4	185	5	foodImage.2	FOODEEG_Images\0028.jpg	YN	Left	Yes	0.743941399967298	0	657109	252
1285.4765625	0.743941399967298	decision	choicePhaseStart	4	185	5	foodImage.2	FOODEEG_Images\0028.jpg	YN	Left	Yes	0.743941399967298	0	658165	253
1286.2109375	0	decision	response	4	185	5	foodImage.2	FOODEEG_Images\0028.jpg	YN	Left	Yes	0.743941399967298	0	658541	234
1287.25	1	decision	trialStart	4	186	6	foodImage.23	FOODEEG_Images\0244.jpg	YN	Left	Yes	1.03538780007511	0	659073	251
1288.291015625	2	decision	foodImageDisplay	4	186	6	foodImage.23	FOODEEG_Images\0244.jpg	YN	Left	Yes	1.03538780007511	0	659606	252
1290.353515625	1.03538780007511	decision	choicePhaseStart	4	186	6	foodImage.23	FOODEEG_Images\0244.jpg	YN	Left	Yes	1.03538780007511	0	660662	253
1291.37890625	0	decision	response	4	186	6	foodImage.23	FOODEEG_Images\0244.jpg	YN	Left	Yes	1.03538780007511	0	661187	234
1292.41796875	1	decision	trialStart	4	187	7	foodImage.114	FOODEEG_Images\0922.jpg	NY	Left	No	0.829270199872553	0	661719	251
1293.455078125	2	decision	foodImageDisplay	4	187	7	foodImage.114	FOODEEG_Images\0922.jpg	NY	Left	No	0.829270199872553	0	662250	252
1295.517578125	0.829270199872553	decision	choicePhaseStart	4	187	7	foodImage.114	FOODEEG_Images\0922.jpg	NY	Left	No	0.829270199872553	0	663306	253
1296.337890625	0	decision	response	4	187	7	foodImage.114	FOODEEG_Images\0922.jpg	NY	Left	No	0.829270199872553	0	663726	234
1297.37890625	1	taste	trialStart	4	188	8	foodImage.79	FOODEEG_Images\0794.jpg	YN	Left	Yes	0.911273800069466	0	664259	251
1298.421875	2	taste	foodImageDisplay	4	188	8	foodImage.79	FOODEEG_Images\0794.jpg	YN	Left	Yes	0.911273800069466	0	664793	252
1300.484375	0.911273800069466	taste	choicePhaseStart	4	188	8	foodImage.79	FOODEEG_Images\0794.jpg	YN	Left	Yes	0.911273800069466	0	665849	253
1301.38671875	0	taste	response	4	188	8	foodImage.79	FOODEEG_Images\0794.jpg	YN	Left	Yes	0.911273800069466	0	666311	234
1302.4296875	1	health	trialStart	4	189	9	foodImage.66	FOODEEG_Images\0676.jpg	YN	Right	No	1.02928740018979	0	666845	251
1303.470703125	2	health	foodImageDisplay	4	189	9	foodImage.66	FOODEEG_Images\0676.jpg	YN	Right	No	1.02928740018979	0	667378	252
1305.533203125	1.02928740018979	health	choicePhaseStart	4	189	9	foodImage.66	FOODEEG_Images\0676.jpg	YN	Right	No	1.02928740018979	0	668434	253
1306.5546875	0	health	response	4	189	9	foodImage.66	FOODEEG_Images\0676.jpg	YN	Right	No	1.02928740018979	0	668957	235
1307.59765625	1	decision	trialStart	4	190	10	foodImage.14	FOODEEG_Images\0188.jpg	YN	Left	Yes	0.941134799970314	0	669491	251
1308.654296875	2	decision	foodImageDisplay	4	190	10	foodImage.14	FOODEEG_Images\0188.jpg	YN	Left	Yes	0.941134799970314	0	670032	252
1310.716796875	0.941134799970314	decision	choicePhaseStart	4	190	10	foodImage.14	FOODEEG_Images\0188.jpg	YN	Left	Yes	0.941134799970314	0	671088	253
1311.650390625	0	decision	response	4	190	10	foodImage.14	FOODEEG_Images\0188.jpg	YN	Left	Yes	0.941134799970314	0	671566	234
1312.716796875	1	taste	trialStart	4	191	11	foodImage.41	FOODEEG_Images\0409.jpg	NY	Right	Yes	1.51316410000436	0	672112	251
1313.763671875	2	taste	foodImageDisplay	4	191	11	foodImage.41	FOODEEG_Images\0409.jpg	NY	Right	Yes	1.51316410000436	0	672648	252
1315.826171875	1.51316410000436	taste	choicePhaseStart	4	191	11	foodImage.41	FOODEEG_Images\0409.jpg	NY	Right	Yes	1.51316410000436	0	673704	253
1317.330078125	0	taste	response	4	191	11	foodImage.41	FOODEEG_Images\0409.jpg	NY	Right	Yes	1.51316410000436	0	674474	235
1318.369140625	1	taste	trialStart	4	192	12	foodImage.84	FOODEEG_Images\0830.jpg	YN	Left	Yes	1.17631000000983	0	675006	251
1319.427734375	2	taste	foodImageDisplay	4	192	12	foodImage.84	FOODEEG_Images\0830.jpg	YN	Left	Yes	1.17631000000983	0	675548	252
1321.490234375	1.17631000000983	taste	choicePhaseStart	4	192	12	foodImage.84	FOODEEG_Images\0830.jpg	YN	Left	Yes	1.17631000000983	0	676604	253
1322.658203125	0	taste	response	4	192	12	foodImage.84	FOODEEG_Images\0830.jpg	YN	Left	Yes	1.17631000000983	0	677202	234
1323.701171875	1	health	trialStart	4	193	13	foodImage.77	FOODEEG_Images\0771.jpg	NY	Right	Yes	0.970536899985746	0	677736	251
