onset	duration	trial_type	event_type	block	trial_total	trial_in_block	food_image_code	food_image_path	button_position	resp_position	resp_choice	choice_rt	resp_too_slow	sample	trigger
342.84765625	2	n/a	blockStart	1	n/a	n/a	n/a	n/a	n/a	n/a	n/a	n/a	n/a	175539	250
344.884765625	1	health	trialStart	1	1	1	foodImage.76	FOODEEG_Images\0766.jpg	YN	Left	Yes	0.794808599632233	0	176582	251
345.931640625	2	health	foodImageDisplay	1	1	1	foodImage.76	FOODEEG_Images\0766.jpg	YN	Left	Yes	0.794808599632233	0	177118	252
347.99609375	0.794808599632233	health	choicePhaseStart	1	1	1	foodImage.76	FOODEEG_Images\0766.jpg	YN	Left	Yes	0.794808599632233	0	178175	253
348.783203125	0	health	response	1	1	1	foodImage.76	FOODEEG_Images\0766.jpg	YN	Left	Yes	0.794808599632233	0	178578	234
349.87109375	1	taste	trialStart	1	2	2	foodImage.4	FOODEEG_Images\0065.jpg	YN	Left	Yes	0.884591300040483	0	179135	251
350.9296875	2	taste	foodImageDisplay	1	2	2	foodImage.4	FOODEEG_Images\0065.jpg	YN	Left	Yes	0.884591300040483	0	179677	252
352.9921875	0.884591300040483	taste	choicePhaseStart	1	2	2	foodImage.4	FOODEEG_Images\0065.jpg	YN	Left	Yes	0.884591300040483	0	180733	253
353.87109375	0	taste	response	1	2	2	foodImage.4	FOODEEG_Images\0065.jpg	YN	Left	Yes	0.884591300040483	0	181183	234
354.921875	1	decision	trialStart	1	3	3	foodImage.113	FOODEEG_Images\0921.jpg	YN	Left	Yes	2.09699130011722	0	181721	251
355.966796875	2	decision	foodImageDisplay	1	3	3	foodImage.113	FOODEEG_Images\0921.jpg	YN	Left	Yes	2.09699130011722	0	182256	252
358.037109375	2.09699130011722	decision	choicePhaseStart	1	3	3	foodImage.113	FOODEEG_Images\0921.jpg	YN	Left	Yes	2.09699130011722	0	183316	253
360.126953125	0	decision	response	1	3	3	foodImage.113	FOODEEG_Images\0921.jpg	YN	Left	Yes	2.09699130011722	0	184386	234
361.16796875	1	health	trialStart	1	4	4	foodImage.10	FOODEEG_Images\0145.jpg	YN	Left	Yes	1.21417870000005	0	184919	251
362.232421875	2	health	foodImageDisplay	1	4	4	foodImage.10	FOODEEG_Images\0145.jpg	YN	Left	Yes	1.21417870000005	0	185464	252
364.294921875	1.21417870000005	health	choicePhaseStart	1	4	4	foodImage.10	FOODEEG_Images\0145.jpg	YN	Left	Yes	1.21417870000005	0	186520	253
365.501953125	0	health	response	1	4	4	foodImage.10	FOODEEG_Images\0145.jpg	YN	Left	Yes	1.21417870000005	0	187138	234
366.556640625	1	decision	trialStart	1	5	5	foodImage.62	FOODEEG_Images\0644.jpg	NY	Left	No	1.31659159995615	0	187678	251
367.615234375	2	decision	foodImageDisplay	1	5	5	foodImage.62	FOODEEG_Images\0644.jpg	NY	Left	No	1.31659159995615	0	188220	252
369.6796875	1.31659159995615	decision	choicePhaseStart	1	5	5	foodImage.62	FOODEEG_Images\0644.jpg	NY	Left	No	1.31659159995615	0	189277	253
370.990234375	0	decision	response	1	5	5	foodImage.62	FOODEEG_Images\0644.jpg	NY	Left	No	1.31659159995615	0	189948	234
372.041015625	1	health	trialStart	1	6	6	foodImage.38	FOODEEG_Images\0365.jpg	YN	Left	Yes	0.743571300059557	0	190486	251
373.0859375	2	health	foodImageDisplay	1	6	6	foodImage.38	FOODEEG_Images\0365.jpg	YN	Left	Yes	0.743571300059557	0	191021	252
375.150390625	0.743571300059557	health	choicePhaseStart	1	6	6	foodImage.38	FOODEEG_Images\0365.jpg	YN	Left	Yes	0.743571300059557	0	192078	253
375.88671875	0	health	response	1	6	6	foodImage.38	FOODEEG_Images\0365.jpg	YN	Left	Yes	0.743571300059557	0	192455	234
376.931640625	1	decision	trialStart	1	7	7	foodImage.117	FOODEEG_Images\0925.jpg	NY	Left	No	0.799074400216341	0	192990	251
377.96875	2	decision	foodImageDisplay	1	7	7	foodImage.117	FOODEEG_Images\0925.jpg	NY	Left	No	0.799074400216341	0	193521	252
380.03125	0.799074400216341	decision	choicePhaseStart	1	7	7	foodImage.117	FOODEEG_Images\0925.jpg	NY	Left	No	0.799074400216341	0	194577	253
380.8203125	0	decision	response	1	7	7	foodImage.117	FOODEEG_Images\0925.jpg	NY	Left	No	0.799074400216341	0	194981	234
381.865234375	1	taste	trialStart	1	8	8	foodImage.109	FOODEEG_Images\0917.jpg	YN	Right	No	1.00673299981281	0	195516	251
382.904296875	2	taste	foodImageDisplay	1	8	8	foodImage.109	FOODEEG_Images\0917.jpg	YN	Right	No	1.00673299981281	0	196048	252
384.966796875	1.00673299981281	taste	choicePhaseStart	1	8	8	foodImage.109	FOODEEG_Images\0917.jpg	YN	Right	No	1.00673299981281	0	197104	253
385.96484375	0	taste	response	1	8	8	foodImage.109	FOODEEG_Images\0917.jpg	YN	Right	No	1.00673299981281	0	197615	235
387.0078125	1	decision	trialStart	1	9	9	foodImage.94	FOODEEG_Images\0902.jpg	YN	Right	No	0.922302999999374	0	198149	251
388.044921875	2	decision	foodImageDisplay	1	9	9	foodImage.94	FOODEEG_Images\0902.jpg	YN	Right	No	0.922302999999374	0	198680	252
390.107421875	0.922302999999374	decision	choicePhaseStart	1	9	9	foodImage.94	FOODEEG_Images\0902.jpg	YN	Right	No	0.922302999999374	0	199736	253
391.021484375	0	decision	response	1	9	9	foodImage.94	FOODEEG_Images\0902.jpg	YN	Right	No	0.922302999999374	0	200204	235
392.064453125	1	taste	trialStart	1	10	10	foodImage.86	FOODEEG_Images\0844.jpg	YN	Left	Yes	0.791217199992388	0	200738	251
393.119140625	2	taste	foodImageDisplay	1	10	10	foodImage.86	FOODEEG_Images\0844.jpg	YN	Left	Yes	0.791217199992388	0	201278	252
395.181640625	0.791217199992388	taste	choicePhaseStart	1	10	10	foodImage.86	FOODEEG_Images\0844.jpg	YN	Left	Yes	0.791217199992388	0	202334	253
395.96484375	0	taste	response	1	10	10	foodImage.86	FOODEEG_Images\0844.jpg	YN	Left	Yes	0.791217199992388	0	202735	234
397.0078125	1	decision	trialStart	1	11	11	foodImage.100	FOODEEG_Images\0908.jpg	NY	Left	No	0.97382939979434	0	203269	251
398.046875	2	decision	foodImageDisplay	1	11	11	foodImage.100	FOODEEG_Images\0908.jpg	NY	Left	No	0.97382939979434	0	203801	252
400.111328125	0.97382939979434	decision	choicePhaseStart	1	11	11	foodImage.100	FOODEEG_Images\0908.jpg	NY	Left	No	0.97382939979434	0	204858	253
401.076171875	0	decision	response	1	11	11	foodImage.100	FOODEEG_Images\0908.jpg	NY	Left	No	0.97382939979434	0	205352	234
402.12109375	1	health	trialStart	1	12	12	foodImage.119	FOODEEG_Images\0927.jpg	YN	Right	No	1.44239309988916	0	205887	251
403.15625	2	health	foodImageDisplay	1	12	12	foodImage.119	FOODEEG_Images\0927.jpg	YN	Right	No	1.44239309988916	0	206417	252
405.21875	1.44239309988916	health	choicePhaseStart	1	12	12	foodImage.119	FOODEEG_Images\0927.jpg	YN	Right	No	1.44239309988916	0	207473	253
406.65234375	0	health	response	1	12	12	foodImage.119	FOODEEG_Images\0927.jpg	YN	Right	No	1.44239309988916	0	208207	235
407.72265625	1	health	trialStart	1	13	13	foodImage.94	FOODEEG_Images\0902.jpg	YN	Right	No	1.28518290026113	0	208755	251
408.775390625	2	health	foodImageDisplay	1	13	13	foodImage.94	FOODEEG_Images\0902.jpg	YN	Right	No	1.28518290026113	0	209294	252
410.83984375	1.28518290026113	health	choicePhaseStart	1	13	13	foodImage.94	FOODEEG_Images\0902.jpg	YN	Right	No	1.28518290026113	0	210351	253
412.115234375	0	health	response	1	13	13	foodImage.94	FOODEEG_Images\0902.jpg	YN	Right	No	1.28518290026113	0	211004	235
413.16015625	1	decision	trialStart	1	14	14	foodImage.45	FOODEEG_Images\0478.jpg	NY	Right	Yes	0.962823700159788	0	211539	251
414.203125	2	decision	foodImageDisplay	1	14	14	foodImage.45	FOODEEG_Images\0478.jpg	NY	Right	Yes	0.962823700159788	0	212073	252
416.265625	0.962823700159788	decision	choicePhaseStart	1	14	14	foodImage.45	FOODEEG_Images\0478.jpg	NY	Right	Yes	0.962823700159788	0	213129	253
417.220703125	0	decision	response	1	14	14	foodImage.45	FOODEEG_Images\0478.jpg	NY	Right	Yes	0.962823700159788	0	213618	235
418.26171875	1	health	trialStart	1	15	15	foodImage.116	FOODEEG_Images\0924.jpg	YN	Left	Yes	0.98813599999994	0	214151	251
419.298828125	2	health	foodImageDisplay	1	15	15	foodImage.116	FOODEEG_Images\0924.jpg	YN	Left	Yes	0.98813599999994	0	214682	252
421.361328125	0.98813599999994	health	choicePhaseStart	1	15	15	foodImage.116	FOODEEG_Images\0924.jpg	YN	Left	Yes	0.98813599999994	0	215738	253
422.33984375	0	health	response	1	15	15	foodImage.116	FOODEEG_Images\0924.jpg	YN	Left	Yes	0.98813599999994	0	216239	234
423.37890625	1	taste	trialStart	1	16	16	foodImage.19	FOODEEG_Images\0225.jpg	YN	Right	No	1.68431620020419	0	216771	251
424.44140625	2	taste	foodImageDisplay	1	16	16	foodImage.19	FOODEEG_Images\0225.jpg	YN	Right	No	1.68431620020419	0	217315	252
426.50390625	1.68431620020419	taste	choicePhaseStart	1	16	16	foodImage.19	FOODEEG_Images\0225.jpg	YN	Right	No	1.68431620020419	0	218371	253
428.1796875	0	taste	response	1	16	16	foodImage.19	FOODEEG_Images\0225.jpg	YN	Right	No	1.68431620020419	0	219229	235
429.22265625	1	health	trialStart	1	17	17	foodImage.52	FOODEEG_Images\0539.jpg	YN	Left	Yes	1.09988630004227	0	219763	251
430.28125	2	health	foodImageDisplay	1	17	17	foodImage.52	FOODEEG_Images\0539.jpg	YN	Left	Yes	1.09988630004227	0	220305	252
432.34375	1.09988630004227	health	choicePhaseStart	1	17	17	foodImage.52	FOODEEG_Images\0539.jpg	YN	Left	Yes	1.09988630004227	0	221361	253
433.435546875	0	health	response	1	17	17	foodImage.52	FOODEEG_Images\0539.jpg	YN	Left	Yes	1.09988630004227	0	221920	234
434.4765625	1	taste	trialStart	1	18	18	foodImage.116	FOODEEG_Images\0924.jpg	NY	Right	Yes	1.40632650023326	0	222453	251
435.515625	2	taste	foodImageDisplay	1	18	18	foodImage.116	FOODEEG_Images\0924.jpg	NY	Right	Yes	1.40632650023326	0	222985	252
437.580078125	1.40632650023326	taste	choicePhaseStart	1	18	18	foodImage.116	FOODEEG_Images\0924.jpg	NY	Right	Yes	1.40632650023326	0	224042	253
438.978515625	0	taste	response	1	18	18	foodImage.116	FOODEEG_Images\0924.jpg	NY	Right	Yes	1.40632650023326	0	224758	235
440.021484375	1	health	trialStart	1	19	19	foodImage.20	FOODEEG_Images\0226.jpg	NY	Right	Yes	1.5013219001703	0	225292	251
441.064453125	2	health	foodImageDisplay	1	19	19	foodImage.20	FOODEEG_Images\0226.jpg	NY	Right	Yes	1.5013219001703	0	225826	252
443.126953125	1.5013219001703	health	choicePhaseStart	1	19	19	foodImage.20	FOODEEG_Images\0226.jpg	NY	Right	Yes	1.5013219001703	0	226882	253
444.619140625	0	health	response	1	19	19	foodImage.20	FOODEEG_Images\0226.jpg	NY	Right	Yes	1.5013219001703	0	227646	235
445.66015625	1	decision	trialStart	1	20	20	foodImage.30	FOODEEG_Images\0282.jpg	YN	Left	Yes	0.947800199966878	0	228179	251
446.701171875	2	decision	foodImageDisplay	1	20	20	foodImage.30	FOODEEG_Images\0282.jpg	YN	Left	Yes	0.947800199966878	0	228712	252
448.765625	0.947800199966878	decision	choicePhaseStart	1	20	20	foodImage.30	FOODEEG_Images\0282.jpg	YN	Left	Yes	0.947800199966878	0	229769	253
449.70703125	0	decision	response	1	20	20	foodImage.30	FOODEEG_Images\0282.jpg	YN	Left	Yes	0.947800199966878	0	230251	234
450.75	1	decision	trialStart	1	21	21	foodImage.78	FOODEEG_Images\0787.jpg	NY	Left	No	1.29200079990551	0	230785	251
451.79296875	2	decision	foodImageDisplay	1	21	21	foodImage.78	FOODEEG_Images\0787.jpg	NY	Left	No	1.29200079990551	0	231319	252
453.85546875	1.29200079990551	decision	choicePhaseStart	1	21	21	foodImage.78	FOODEEG_Images\0787.jpg	NY	Left	No	1.29200079990551	0	232375	253
455.138671875	0	decision	response	1	21	21	foodImage.78	FOODEEG_Images\0787.jpg	NY	Left	No	1.29200079990551	0	233032	234
456.181640625	1	decision	trialStart	1	22	22	foodImage.26	FOODEEG_Images\0262.jpg	YN	Left	Yes	1.56642459984869	0	233566	251
457.22265625	2	decision	foodImageDisplay	1	22	22	foodImage.26	FOODEEG_Images\0262.jpg	YN	Left	Yes	1.56642459984869	0	234099	252
459.28515625	1.56642459984869	decision	choicePhaseStart	1	22	22	foodImage.26	FOODEEG_Images\0262.jpg	YN	Left	Yes	1.56642459984869	0	235155	253
460.841796875	0	decision	response	1	22	22	foodImage.26	FOODEEG_Images\0262.jpg	YN	Left	Yes	1.56642459984869	0	235952	234
461.884765625	1	health	trialStart	1	23	23	foodImage.115	FOODEEG_Images\0923.jpg	YN	Left	Yes	1.16616980032995	0	236486	251
462.923828125	2	health	foodImageDisplay	1	23	23	foodImage.115	FOODEEG_Images\0923.jpg	YN	Left	Yes	1.16616980032995	0	237018	252
464.98828125	1.16616980032995	health	choicePhaseStart	1	23	23	foodImage.115	FOODEEG_Images\0923.jpg	YN	Left	Yes	1.16616980032995	0	238075	253
466.146484375	0	health	response	1	23	23	foodImage.115	FOODEEG_Images\0923.jpg	YN	Left	Yes	1.16616980032995	0	238668	234
467.189453125	1	health	trialStart	1	24	24	foodImage.112	FOODEEG_Images\0920.jpg	YN	Right	No	1.99549179989845	0	239202	251
468.232421875	2	health	foodImageDisplay	1	24	24	foodImage.112	FOODEEG_Images\0920.jpg	YN	Right	No	1.99549179989845	0	239736	252
470.294921875	1.99549179989845	health	choicePhaseStart	1	24	24	foodImage.112	FOODEEG_Images\0920.jpg	YN	Right	No	1.99549179989845	0	240792	253
472.28125	0	health	response	1	24	24	foodImage.112	FOODEEG_Images\0920.jpg	YN	Right	No	1.99549179989845	0	241809	235
473.32421875	1	health	trialStart	1	25	25	foodImage.55	FOODEEG_Images\0567.jpg	YN	Left	Yes	0.947987999767065	0	242343	251
474.384765625	2	health	foodImageDisplay	1	25	25	foodImage.55	FOODEEG_Images\0567.jpg	YN	Left	Yes	0.947987999767065	0	242886	252
476.447265625	0.947987999767065	health	choicePhaseStart	1	25	25	foodImage.55	FOODEEG_Images\0567.jpg	YN	Left	Yes	0.947987999767065	0	243942	253
477.384765625	0	health	response	1	25	25	foodImage.55	FOODEEG_Images\0567.jpg	YN	Left	Yes	0.947987999767065	0	244422	234
478.427734375	1	decision	trialStart	1	26	26	foodImage.40	FOODEEG_Images\0373.jpg	YN	Left	Yes	1.02052719984204	0	244956	251
479.478515625	2	decision	foodImageDisplay	1	26	26	foodImage.40	FOODEEG_Images\0373.jpg	YN	Left	Yes	1.02052719984204	0	245494	252
481.541015625	1.02052719984204	decision	choicePhaseStart	1	26	26	foodImage.40	FOODEEG_Images\0373.jpg	YN	Left	Yes	1.02052719984204	0	246550	253
482.552734375	0	decision	response	1	26	26	foodImage.40	FOODEEG_Images\0373.jpg	YN	Left	Yes	1.02052719984204	0	247068	234
483.59765625	1	decision	trialStart	1	27	27	foodImage.15	FOODEEG_Images\0189.jpg	YN	Left	Yes	1.31227719970047	0	247603	251
484.65234375	2	decision	foodImageDisplay	1	27	27	foodImage.15	FOODEEG_Images\0189.jpg	YN	Left	Yes	1.31227719970047	0	248143	252
486.712890625	1.31227719970047	decision	choicePhaseStart	1	27	27	foodImage.15	FOODEEG_Images\0189.jpg	YN	Left	Yes	1.31227719970047	0	249198	253
488.017578125	0	decision	response	1	27	27	foodImage.15	FOODEEG_Images\0189.jpg	YN	Left	Yes	1.31227719970047	0	249866	234
489.060546875	1	taste	trialStart	1	28	28	foodImage.46	FOODEEG_Images\0479.jpg	YN	Left	Yes	1.18727470003068	0	250400	251
490.119140625	2	taste	foodImageDisplay	1	28	28	foodImage.46	FOODEEG_Images\0479.jpg	YN	Left	Yes	1.18727470003068	0	250942	252
492.181640625	1.18727470003068	taste	choicePhaseStart	1	28	28	foodImage.46	FOODEEG_Images\0479.jpg	YN	Left	Yes	1.18727470003068	0	251998	253
493.361328125	0	taste	response	1	28	28	foodImage.46	FOODEEG_Images\0479.jpg	YN	Left	Yes	1.18727470003068	0	252602	234
494.404296875	1	decision	trialStart	1	29	29	foodImage.68	FOODEEG_Images\0685.jpg	YN	Left	Yes	0.894506200216711	0	253136	251
495.501953125	2	decision	foodImageDisplay	1	29	29	foodImage.68	FOODEEG_Images\0685.jpg	YN	Left	Yes	0.894506200216711	0	253698	252
497.564453125	0.894506200216711	decision	choicePhaseStart	1	29	29	foodImage.68	FOODEEG_Images\0685.jpg	YN	Left	Yes	0.894506200216711	0	254754	253
498.44921875	0	decision	response	1	29	29	foodImage.68	FOODEEG_Images\0685.jpg	YN	Left	Yes	0.894506200216711	0	255207	234
499.494140625	1	health	trialStart	1	30	30	foodImage.80	FOODEEG_Images\0796.jpg	YN	Left	Yes	1.11402850039303	0	255742	251
500.552734375	2	health	foodImageDisplay	1	30	30	foodImage.80	FOODEEG_Images\0796.jpg	YN	Left	Yes	1.11402850039303	0	256284	252
502.615234375	1.11402850039303	health	choicePhaseStart	1	30	30	foodImage.80	FOODEEG_Images\0796.jpg	YN	Left	Yes	1.11402850039303	0	257340	253
503.720703125	0	health	response	1	30	30	foodImage.80	FOODEEG_Images\0796.jpg	YN	Left	Yes	1.11402850039303	0	257906	234
504.763671875	1	health	trialStart	1	31	31	foodImage.39	FOODEEG_Images\0367.jpg	NY	Left	No	2.07632229989395	0	258440	251
505.80078125	2	health	foodImageDisplay	1	31	31	foodImage.39	FOODEEG_Images\0367.jpg	NY	Left	No	2.07632229989395	0	258971	252
507.861328125	2.07632229989395	health	choicePhaseStart	1	31	31	foodImage.39	FOODEEG_Images\0367.jpg	NY	Left	No	2.07632229989395	0	260026	253
509.927734375	0	health	response	1	31	31	foodImage.39	FOODEEG_Images\0367.jpg	NY	Left	No	2.07632229989395	0	261084	234
510.96875	1	decision	trialStart	1	32	32	foodImage.108	FOODEEG_Images\0916.jpg	YN	Right	No	1.13932830002159	0	261617	251
512.0078125	2	decision	foodImageDisplay	1	32	32	foodImage.108	FOODEEG_Images\0916.jpg	YN	Right	No	1.13932830002159	0	262149	252
514.0703125	1.13932830002159	decision	choicePhaseStart	1	32	32	foodImage.108	FOODEEG_Images\0916.jpg	YN	Right	No	1.13932830002159	0	263205	253
515.201171875	0	decision	response	1	32	32	foodImage.108	FOODEEG_Images\0916.jpg	YN	Right	No	1.13932830002159	0	263784	235
516.2421875	1	health	trialStart	1	33	33	foodImage.17	FOODEEG_Images\0199.jpg	YN	Left	Yes	0.874998500104994	0	264317	251
517.294921875	2	health	foodImageDisplay	1	33	33	foodImage.17	FOODEEG_Images\0199.jpg	YN	Left	Yes	0.874998500104994	0	264856	252
519.357421875	0.874998500104994	health	choicePhaseStart	1	33	33	foodImage.17	FOODEEG_Images\0199.jpg	YN	Left	Yes	0.874998500104994	0	265912	253
520.224609375	0	health	response	1	33	33	foodImage.17	FOODEEG_Images\0199.jpg	YN	Left	Yes	0.874998500104994	0	266356	234
521.267578125	1	health	trialStart	1	34	34	foodImage.62	FOODEEG_Images\0644.jpg	NY	Right	Yes	1.62187730008736	0	266890	251
522.32421875	2	health	foodImageDisplay	1	34	34	foodImage.62	FOODEEG_Images\0644.jpg	NY	Right	Yes	1.62187730008736	0	267431	252
524.38671875	1.62187730008736	health	choicePhaseStart	1	34	34	foodImage.62	FOODEEG_Images\0644.jpg	NY	Right	Yes	1.62187730008736	0	268487	253
526	0	health	response	1	34	34	foodImage.62	FOODEEG_Images\0644.jpg	NY	Right	Yes	1.62187730008736	0	269313	235
527.052734375	1	decision	trialStart	1	35	35	foodImage.97	FOODEEG_Images\0905.jpg	YN	Right	No	1.15804179990664	0	269852	251
528.107421875	2	decision	foodImageDisplay	1	35	35	foodImage.97	FOODEEG_Images\0905.jpg	YN	Right	No	1.15804179990664	0	270392	252
530.169921875	1.15804179990664	decision	choicePhaseStart	1	35	35	foodImage.97	FOODEEG_Images\0905.jpg	YN	Right	No	1.15804179990664	0	271448	253
531.3203125	0	decision	response	1	35	35	foodImage.97	FOODEEG_Images\0905.jpg	YN	Right	No	1.15804179990664	0	272037	235
532.3671875	1	health	trialStart	1	36	36	foodImage.77	FOODEEG_Images\0771.jpg	YN	Left	Yes	0.86293559987098	0	272573	251
533.41015625	2	health	foodImageDisplay	1	36	36	foodImage.77	FOODEEG_Images\0771.jpg	YN	Left	Yes	0.86293559987098	0	273107	252
535.47265625	0.86293559987098	health	choicePhaseStart	1	36	36	foodImage.77	FOODEEG_Images\0771.jpg	YN	Left	Yes	0.86293559987098	0	274163	253
536.328125	0	health	response	1	36	36	foodImage.77	FOODEEG_Images\0771.jpg	YN	Left	Yes	0.86293559987098	0	274601	234
537.37109375	1	taste	trialStart	1	37	37	foodImage.115	FOODEEG_Images\0923.jpg	NY	Left	No	1.43890189984813	0	275135	251
538.41015625	2	taste	foodImageDisplay	1	37	37	foodImage.115	FOODEEG_Images\0923.jpg	NY	Left	No	1.43890189984813	0	275667	252
540.47265625	1.43890189984813	taste	choicePhaseStart	1	37	37	foodImage.115	FOODEEG_Images\0923.jpg	NY	Left	No	1.43890189984813	0	276723	253
541.90234375	0	taste	response	1	37	37	foodImage.115	FOODEEG_Images\0923.jpg	NY	Left	No	1.43890189984813	0	277455	234
542.9453125	1	decision	trialStart	1	38	38	foodImage.1	FOODEEG_Images\0004.jpg	NY	Right	Yes	1.03284629993141	0	277989	251
543.984375	2	decision	foodImageDisplay	1	38	38	foodImage.1	FOODEEG_Images\0004.jpg	NY	Right	Yes	1.03284629993141	0	278521	252
546.046875	1.03284629993141	decision	choicePhaseStart	1	38	38	foodImage.1	FOODEEG_Images\0004.jpg	NY	Right	Yes	1.03284629993141	0	279577	253
547.0703125	0	decision	response	1	38	38	foodImage.1	FOODEEG_Images\0004.jpg	NY	Right	Yes	1.03284629993141	0	280101	235
548.111328125	1	taste	trialStart	1	39	39	foodImage.98	FOODEEG_Images\0906.jpg	YN	Left	Yes	1.18107709987089	0	280634	251
549.1484375	2	taste	foodImageDisplay	1	39	39	foodImage.98	FOODEEG_Images\0906.jpg	YN	Left	Yes	1.18107709987089	0	281165	252
551.2109375	1.18107709987089	taste	choicePhaseStart	1	39	39	foodImage.98	FOODEEG_Images\0906.jpg	YN	Left	Yes	1.18107709987089	0	282221	253
552.3828125	0	taste	response	1	39	39	foodImage.98	FOODEEG_Images\0906.jpg	YN	Left	Yes	1.18107709987089	0	282821	234
553.451171875	1	health	trialStart	1	40	40	foodImage.61	FOODEEG_Images\0640.jpg	YN	Left	Yes	0.867335599847138	0	283368	251
554.494140625	2	health	foodImageDisplay	1	40	40	foodImage.61	FOODEEG_Images\0640.jpg	YN	Left	Yes	0.867335599847138	0	283902	252
556.556640625	0.867335599847138	health	choicePhaseStart	1	40	40	foodImage.61	FOODEEG_Images\0640.jpg	YN	Left	Yes	0.867335599847138	0	284958	253
557.4140625	0	health	response	1	40	40	foodImage.61	FOODEEG_Images\0640.jpg	YN	Left	Yes	0.867335599847138	0	285397	234
558.45703125	1	taste	trialStart	1	41	41	foodImage.48	FOODEEG_Images\0494.jpg	YN	Left	Yes	1.90181889990345	0	285931	251
559.515625	2	taste	foodImageDisplay	1	41	41	foodImage.48	FOODEEG_Images\0494.jpg	YN	Left	Yes	1.90181889990345	0	286473	252
561.578125	1.90181889990345	taste	choicePhaseStart	1	41	41	foodImage.48	FOODEEG_Images\0494.jpg	YN	Left	Yes	1.90181889990345	0	287529	253
563.470703125	0	taste	response	1	41	41	foodImage.48	FOODEEG_Images\0494.jpg	YN	Left	Yes	1.90181889990345	0	288498	234
564.513671875	1	decision	trialStart	1	42	42	foodImage.91	FOODEEG_Images\0896.jpg	YN	Right	No	1.38862970005721	0	289032	251
565.572265625	2	decision	foodImageDisplay	1	42	42	foodImage.91	FOODEEG_Images\0896.jpg	YN	Right	No	1.38862970005721	0	289574	252
567.634765625	1.38862970005721	decision	choicePhaseStart	1	42	42	foodImage.91	FOODEEG_Images\0896.jpg	YN	Right	No	1.38862970005721	0	290630	253
569.013671875	0	decision	response	1	42	42	foodImage.91	FOODEEG_Images\0896.jpg	YN	Right	No	1.38862970005721	0	291336	235
570.056640625	1	taste	trialStart	1	43	43	foodImage.56	FOODEEG_Images\0586.jpg	YN	Right	No	0.905902700033039	0	291870	251
571.119140625	2	taste	foodImageDisplay	1	43	43	foodImage.56	FOODEEG_Images\0586.jpg	YN	Right	No	0.905902700033039	0	292414	252
573.181640625	0.905902700033039	taste	choicePhaseStart	1	43	43	foodImage.56	FOODEEG_Images\0586.jpg	YN	Right	No	0.905902700033039	0	293470	253
574.078125	0	taste	response	1	43	43	foodImage.56	FOODEEG_Images\0586.jpg	YN	Right	No	0.905902700033039	0	293929	235
575.12109375	1	health	trialStart	1	44	44	foodImage.58	FOODEEG_Images\0605.jpg	NY	Right	Yes	1.41937420004979	0	294463	251
576.197265625	2	health	foodImageDisplay	1	44	44	foodImage.58	FOODEEG_Images\0605.jpg	NY	Right	Yes	1.41937420004979	0	295014	252
578.259765625	1.41937420004979	health	choicePhaseStart	1	44	44	foodImage.58	FOODEEG_Images\0605.jpg	NY	Right	Yes	1.41937420004979	0	296070	253
579.669921875	0	health	response	1	44	44	foodImage.58	FOODEEG_Images\0605.jpg	NY	Right	Yes	1.41937420004979	0	296792	235
580.71875	1	taste	trialStart	1	45	45	foodImage.104	FOODEEG_Images\0912.jpg	YN	Left	Yes	1.91580389998853	0	297329	251
581.7578125	2	taste	foodImageDisplay	1	45	45	foodImage.104	FOODEEG_Images\0912.jpg	YN	Left	Yes	1.91580389998853	0	297861	252
583.818359375	1.91580389998853	taste	choicePhaseStart	1	45	45	foodImage.104	FOODEEG_Images\0912.jpg	YN	Left	Yes	1.91580389998853	0	298916	253
585.724609375	0	taste	response	1	45	45	foodImage.104	FOODEEG_Images\0912.jpg	YN	Left	Yes	1.91580389998853	0	299892	234
586.76953125	1	decision	trialStart	1	46	46	foodImage.107	FOODEEG_Images\0915.jpg	YN	Right	No	1.13610359979793	0	300427	251
587.806640625	2	decision	foodImageDisplay	1	46	46	foodImage.107	FOODEEG_Images\0915.jpg	YN	Right	No	1.13610359979793	0	300958	252
589.869140625	1.13610359979793	decision	choicePhaseStart	1	46	46	foodImage.107	FOODEEG_Images\0915.jpg	YN	Right	No	1.13610359979793	0	302014	253
590.998046875	0	decision	response	1	46	46	foodImage.107	FOODEEG_Images\0915.jpg	YN	Right	No	1.13610359979793	0	302592	235
592.041015625	1	taste	trialStart	1	47	47	foodImage.63	FOODEEG_Images\0645.jpg	NY	Right	Yes	1.07600860018283	0	303126	251
593.08203125	2	taste	foodImageDisplay	1	47	47	foodImage.63	FOODEEG_Images\0645.jpg	NY	Right	Yes	1.07600860018283	0	303659	252
595.14453125	1.07600860018283	taste	choicePhaseStart	1	47	47	foodImage.63	FOODEEG_Images\0645.jpg	NY	Right	Yes	1.07600860018283	0	304715	253
596.212890625	0	taste	response	1	47	47	foodImage.63	FOODEEG_Images\0645.jpg	NY	Right	Yes	1.07600860018283	0	305262	235
597.255859375	1	decision	trialStart	1	48	48	foodImage.72	FOODEEG_Images\0714.jpg	NY	Left	No	1.14817399997264	0	305796	251
598.298828125	2	decision	foodImageDisplay	1	48	48	foodImage.72	FOODEEG_Images\0714.jpg	NY	Left	No	1.14817399997264	0	306330	252
600.36328125	1.14817399997264	decision	choicePhaseStart	1	48	48	foodImage.72	FOODEEG_Images\0714.jpg	NY	Left	No	1.14817399997264	0	307387	253
601.5	0	decision	response	1	48	48	foodImage.72	FOODEEG_Images\0714.jpg	NY	Left	No	1.14817399997264	0	307969	234
602.54296875	1	health	trialStart	1	49	49	foodImage.35	FOODEEG_Images\0350.jpg	NY	Right	Yes	1.29783480009064	0	308503	251
603.58203125	2	health	foodImageDisplay	1	49	49	foodImage.35	FOODEEG_Images\0350.jpg	NY	Right	Yes	1.29783480009064	0	309035	252
605.64453125	1.29783480009064	health	choicePhaseStart	1	49	49	foodImage.35	FOODEEG_Images\0350.jpg	NY	Right	Yes	1.29783480009064	0	310091	253
606.93359375	0	health	response	1	49	49	foodImage.35	FOODEEG_Images\0350.jpg	NY	Right	Yes	1.29783480009064	0	310751	235
607.9765625	1	health	trialStart	1	50	50	foodImage.64	FOODEEG_Images\0647.jpg	YN	Right	No	1.12628250010312	0	311285	251
609.033203125	2	health	foodImageDisplay	1	50	50	foodImage.64	FOODEEG_Images\0647.jpg	YN	Right	No	1.12628250010312	0	311826	252
611.09375	1.12628250010312	health	choicePhaseStart	1	50	50	foodImage.64	FOODEEG_Images\0647.jpg	YN	Right	No	1.12628250010312	0	312881	253
612.212890625	0	health	response	1	50	50	foodImage.64	FOODEEG_Images\0647.jpg	YN	Right	No	1.12628250010312	0	313454	235
613.255859375	1	taste	trialStart	1	51	51	foodImage.108	FOODEEG_Images\0916.jpg	YN	Right	No	0.937505000270903	0	313988	251
614.30078125	2	taste	foodImageDisplay	1	51	51	foodImage.108	FOODEEG_Images\0916.jpg	YN	Right	No	0.937505000270903	0	314523	252
616.36328125	0.937505000270903	taste	choicePhaseStart	1	51	51	foodImage.108	FOODEEG_Images\0916.jpg	YN	Right	No	0.937505000270903	0	315579	253
617.291015625	0	taste	response	1	51	51	foodImage.108	FOODEEG_Images\0916.jpg	YN	Right	No	0.937505000270903	0	316054	235
618.333984375	1	taste	trialStart	1	52	52	foodImage.106	FOODEEG_Images\0914.jpg	YN	Right	No	1.13717829994857	0	316588	251
619.373046875	2	taste	foodImageDisplay	1	52	52	foodImage.106	FOODEEG_Images\0914.jpg	YN	Right	No	1.13717829994857	0	317120	252
621.435546875	1.13717829994857	taste	choicePhaseStart	1	52	52	foodImage.106	FOODEEG_Images\0914.jpg	YN	Right	No	1.13717829994857	0	318176	253
622.564453125	0	taste	response	1	52	52	foodImage.106	FOODEEG_Images\0914.jpg	YN	Right	No	1.13717829994857	0	318754	235
623.603515625	1	taste	trialStart	1	53	53	foodImage.74	FOODEEG_Images\0752.jpg	NY	Right	Yes	1.12743479991332	0	319286	251
624.646484375	2	taste	foodImageDisplay	1	53	53	foodImage.74	FOODEEG_Images\0752.jpg	NY	Right	Yes	1.12743479991332	0	319820	252
626.708984375	1.12743479991332	taste	choicePhaseStart	1	53	53	foodImage.74	FOODEEG_Images\0752.jpg	NY	Right	Yes	1.12743479991332	0	320876	253
627.828125	0	taste	response	1	53	53	foodImage.74	FOODEEG_Images\0752.jpg	NY	Right	Yes	1.12743479991332	0	321449	235
628.880859375	1	decision	trialStart	1	54	54	foodImage.114	FOODEEG_Images\0922.jpg	NY	Left	No	1.50306929973885	0	321988	251
629.91796875	2	decision	foodImageDisplay	1	54	54	foodImage.114	FOODEEG_Images\0922.jpg	NY	Left	No	1.50306929973885	0	322519	252
631.982421875	1.50306929973885	decision	choicePhaseStart	1	54	54	foodImage.114	FOODEEG_Images\0922.jpg	NY	Left	No	1.50306929973885	0	323576	253
633.474609375	0	decision	response	1	54	54	foodImage.114	FOODEEG_Images\0922.jpg	NY	Left	No	1.50306929973885	0	324340	234
634.521484375	1	taste	trialStart	1	55	55	foodImage.95	FOODEEG_Images\0903.jpg	YN	Right	No	1.18560720002279	0	324876	251
635.564453125	2	taste	foodImageDisplay	1	55	55	foodImage.95	FOODEEG_Images\0903.jpg	YN	Right	No	1.18560720002279	0	325410	252
637.626953125	1.18560720002279	taste	choicePhaseStart	1	55	55	foodImage.95	FOODEEG_Images\0903.jpg	YN	Right	No	1.18560720002279	0	326466	253
638.802734375	0	taste	response	1	55	55	foodImage.95	FOODEEG_Images\0903.jpg	YN	Right	No	1.18560720002279	0	327068	235
639.845703125	1	taste	trialStart	1	56	56	foodImage.30	FOODEEG_Images\0282.jpg	NY	Right	Yes	0.938370500225574	0	327602	251
640.890625	2	taste	foodImageDisplay	1	56	56	foodImage.30	FOODEEG_Images\0282.jpg	NY	Right	Yes	0.938370500225574	0	328137	252
642.955078125	0.938370500225574	taste	choicePhaseStart	1	56	56	foodImage.30	FOODEEG_Images\0282.jpg	NY	Right	Yes	0.938370500225574	0	329194	253
643.8828125	0	taste	response	1	56	56	foodImage.30	FOODEEG_Images\0282.jpg	NY	Right	Yes	0.938370500225574	0	329669	235
644.927734375	1	decision	trialStart	1	57	57	foodImage.28	FOODEEG_Images\0273.jpg	YN	Left	Yes	0.879419999662787	0	330204	251
645.97265625	2	decision	foodImageDisplay	1	57	57	foodImage.28	FOODEEG_Images\0273.jpg	YN	Left	Yes	0.879419999662787	0	330739	252
648.03515625	0.879419999662787	decision	choicePhaseStart	1	57	57	foodImage.28	FOODEEG_Images\0273.jpg	YN	Left	Yes	0.879419999662787	0	331795	253
648.90625	0	decision	response	1	57	57	foodImage.28	FOODEEG_Images\0273.jpg	YN	Left	Yes	0.879419999662787	0	332241	234
649.951171875	1	taste	trialStart	1	58	58	foodImage.53	FOODEEG_Images\0547.jpg	YN	Left	Yes	0.878481700085104	0	332776	251
651.0078125	2	taste	foodImageDisplay	1	58	58	foodImage.53	FOODEEG_Images\0547.jpg	YN	Left	Yes	0.878481700085104	0	333317	252
653.0703125	0.878481700085104	taste	choicePhaseStart	1	58	58	foodImage.53	FOODEEG_Images\0547.jpg	YN	Left	Yes	0.878481700085104	0	334373	253
653.939453125	0	taste	response	1	58	58	foodImage.53	FOODEEG_Images\0547.jpg	YN	Left	Yes	0.878481700085104	0	334818	234
654.98046875	1	taste	trialStart	1	59	59	foodImage.58	FOODEEG_Images\0605.jpg	YN	Left	Yes	0.691635500174016	0	335351	251
656.041015625	2	taste	foodImageDisplay	1	59	59	foodImage.58	FOODEEG_Images\0605.jpg	YN	Left	Yes	0.691635500174016	0	335894	252
658.103515625	0.691635500174016	taste	choicePhaseStart	1	59	59	foodImage.58	FOODEEG_Images\0605.jpg	YN	Left	Yes	0.691635500174016	0	336950	253
658.787109375	0	taste	response	1	59	59	foodImage.58	FOODEEG_Images\0605.jpg	YN	Left	Yes	0.691635500174016	0	337300	234
659.826171875	1	health	trialStart	1	60	60	foodImage.30	FOODEEG_Images\0282.jpg	YN	Left	Yes	0.891148299910128	0	337832	251
660.8671875	2	health	foodImageDisplay	1	60	60	foodImage.30	FOODEEG_Images\0282.jpg	YN	Left	Yes	0.891148299910128	0	338365	252
662.927734375	0.891148299910128	health	choicePhaseStart	1	60	60	foodImage.30	FOODEEG_Images\0282.jpg	YN	Left	Yes	0.891148299910128	0	339420	253
663.810546875	0	health	response	1	60	60	foodImage.30	FOODEEG_Images\0282.jpg	YN	Left	Yes	0.891148299910128	0	339872	234
665.849609375	47.55078125	n/a	blockEnd	n/a	n/a	n/a	n/a	n/a	n/a	n/a	n/a	n/a	n/a	340916	254
713.400390625	2	n/a	blockStart	2	n/a	n/a	n/a	n/a	n/a	n/a	n/a	n/a	n/a	365262	250
715.431640625	1	taste	trialStart	2	61	1	foodImage.120	FOODEEG_Images\0928.jpg	YN	Right	No	1.03912549978122	0	366302	251
716.470703125	2	taste	foodImageDisplay	2	61	1	foodImage.120	FOODEEG_Images\0928.jpg	YN	Right	No	1.03912549978122	0	366834	252
718.537109375	1.03912549978122	taste	choicePhaseStart	2	61	1	foodImage.120	FOODEEG_Images\0928.jpg	YN	Right	No	1.03912549978122	0	367892	253
719.568359375	0	taste	response	2	61	1	foodImage.120	FOODEEG_Images\0928.jpg	YN	Right	No	1.03912549978122	0	368420	235
720.6328125	1	taste	trialStart	2	62	2	foodImage.34	FOODEEG_Images\0339.jpg	YN	Left	Yes	0.771090100053698	0	368965	251
721.703125	2	taste	foodImageDisplay	2	62	2	foodImage.34	FOODEEG_Images\0339.jpg	YN	Left	Yes	0.771090100053698	0	369513	252
723.765625	0.771090100053698	taste	choicePhaseStart	2	62	2	foodImage.34	FOODEEG_Images\0339.jpg	YN	Left	Yes	0.771090100053698	0	370569	253
724.52734375	0	taste	response	2	62	2	foodImage.34	FOODEEG_Images\0339.jpg	YN	Left	Yes	0.771090100053698	0	370959	234
725.576171875	1	taste	trialStart	2	63	3	foodImage.21	FOODEEG_Images\0234.jpg	NY	Right	Yes	1.19487540004775	0	371496	251
726.630859375	2	taste	foodImageDisplay	2	63	3	foodImage.21	FOODEEG_Images\0234.jpg	NY	Right	Yes	1.19487540004775	0	372036	252
728.693359375	1.19487540004775	taste	choicePhaseStart	2	63	3	foodImage.21	FOODEEG_Images\0234.jpg	NY	Right	Yes	1.19487540004775	0	373092	253
729.880859375	0	taste	response	2	63	3	foodImage.21	FOODEEG_Images\0234.jpg	NY	Right	Yes	1.19487540004775	0	373700	235
730.923828125	1	taste	trialStart	2	64	4	foodImage.79	FOODEEG_Images\0794.jpg	NY	Right	Yes	1.28337329998612	0	374234	251
731.966796875	2	taste	foodImageDisplay	2	64	4	foodImage.79	FOODEEG_Images\0794.jpg	NY	Right	Yes	1.28337329998612	0	374768	252
734.029296875	1.28337329998612	taste	choicePhaseStart	2	64	4	foodImage.79	FOODEEG_Images\0794.jpg	NY	Right	Yes	1.28337329998612	0	375824	253
735.3046875	0	taste	response	2	64	4	foodImage.79	FOODEEG_Images\0794.jpg	NY	Right	Yes	1.28337329998612	0	376477	235
736.34375	1	taste	trialStart	2	65	5	foodImage.1	FOODEEG_Images\0004.jpg	NY	Right	Yes	0.829653600230813	0	377009	251
737.384765625	2	taste	foodImageDisplay	2	65	5	foodImage.1	FOODEEG_Images\0004.jpg	NY	Right	Yes	0.829653600230813	0	377542	252
739.451171875	0.829653600230813	taste	choicePhaseStart	2	65	5	foodImage.1	FOODEEG_Images\0004.jpg	NY	Right	Yes	0.829653600230813	0	378600	253
740.271484375	0	taste	response	2	65	5	foodImage.1	FOODEEG_Images\0004.jpg	NY	Right	Yes	0.829653600230813	0	379020	235
741.314453125	1	taste	trialStart	2	66	6	foodImage.41	FOODEEG_Images\0409.jpg	NY	Right	Yes	1.69116069981828	0	379554	251
742.359375	2	taste	foodImageDisplay	2	66	6	foodImage.41	FOODEEG_Images\0409.jpg	NY	Right	Yes	1.69116069981828	0	380089	252
744.421875	1.69116069981828	taste	choicePhaseStart	2	66	6	foodImage.41	FOODEEG_Images\0409.jpg	NY	Right	Yes	1.69116069981828	0	381145	253
746.103515625	0	taste	response	2	66	6	foodImage.41	FOODEEG_Images\0409.jpg	NY	Right	Yes	1.69116069981828	0	382006	235
747.146484375	1	taste	trialStart	2	67	7	foodImage.15	FOODEEG_Images\0189.jpg	NY	Right	Yes	0.90252080000937	0	382540	251
748.203125	2	taste	foodImageDisplay	2	67	7	foodImage.15	FOODEEG_Images\0189.jpg	NY	Right	Yes	0.90252080000937	0	383081	252
750.265625	0.90252080000937	taste	choicePhaseStart	2	67	7	foodImage.15	FOODEEG_Images\0189.jpg	NY	Right	Yes	0.90252080000937	0	384137	253
751.158203125	0	taste	response	2	67	7	foodImage.15	FOODEEG_Images\0189.jpg	NY	Right	Yes	0.90252080000937	0	384594	235
752.205078125	1	taste	trialStart	2	68	8	foodImage.80	FOODEEG_Images\0796.jpg	YN	Left	Yes	0.920900200027972	0	385130	251
753.263671875	2	taste	foodImageDisplay	2	68	8	foodImage.80	FOODEEG_Images\0796.jpg	YN	Left	Yes	0.920900200027972	0	385672	252
755.326171875	0.920900200027972	taste	choicePhaseStart	2	68	8	foodImage.80	FOODEEG_Images\0796.jpg	YN	Left	Yes	0.920900200027972	0	386728	253
756.23828125	0	taste	response	2	68	8	foodImage.80	FOODEEG_Images\0796.jpg	YN	Left	Yes	0.920900200027972	0	387195	234
757.28515625	1	health	trialStart	2	69	9	foodImage.37	FOODEEG_Images\0359.jpg	NY	Right	Yes	1.18150439998135	0	387731	251
758.33203125	2	health	foodImageDisplay	2	69	9	foodImage.37	FOODEEG_Images\0359.jpg	NY	Right	Yes	1.18150439998135	0	388267	252
760.39453125	1.18150439998135	health	choicePhaseStart	2	69	9	foodImage.37	FOODEEG_Images\0359.jpg	NY	Right	Yes	1.18150439998135	0	389323	253
761.56640625	0	health	response	2	69	9	foodImage.37	FOODEEG_Images\0359.jpg	NY	Right	Yes	1.18150439998135	0	389923	235
762.607421875	1	health	trialStart	2	70	10	foodImage.44	FOODEEG_Images\0459.jpg	NY	Right	Yes	1.01893660007045	0	390456	251
763.65234375	2	health	foodImageDisplay	2	70	10	foodImage.44	FOODEEG_Images\0459.jpg	NY	Right	Yes	1.01893660007045	0	390991	252
765.71484375	1.01893660007045	health	choicePhaseStart	2	70	10	foodImage.44	FOODEEG_Images\0459.jpg	NY	Right	Yes	1.01893660007045	0	392047	253
766.7265625	0	health	response	2	70	10	foodImage.44	FOODEEG_Images\0459.jpg	NY	Right	Yes	1.01893660007045	0	392565	235
767.76953125	1	decision	trialStart	2	71	11	foodImage.3	FOODEEG_Images\0046.jpg	NY	Right	Yes	1.18242600001395	0	393099	251
768.826171875	2	decision	foodImageDisplay	2	71	11	foodImage.3	FOODEEG_Images\0046.jpg	NY	Right	Yes	1.18242600001395	0	393640	252
770.888671875	1.18242600001395	decision	choicePhaseStart	2	71	11	foodImage.3	FOODEEG_Images\0046.jpg	NY	Right	Yes	1.18242600001395	0	394696	253
772.0625	0	decision	response	2	71	11	foodImage.3	FOODEEG_Images\0046.jpg	NY	Right	Yes	1.18242600001395	0	395297	235
773.10546875	1	health	trialStart	2	72	12	foodImage.42	FOODEEG_Images\0438.jpg	YN	Right	No	1.14624010026455	0	395831	251
774.197265625	2	health	foodImageDisplay	2	72	12	foodImage.42	FOODEEG_Images\0438.jpg	YN	Right	No	1.14624010026455	0	396390	252
776.259765625	1.14624010026455	health	choicePhaseStart	2	72	12	foodImage.42	FOODEEG_Images\0438.jpg	YN	Right	No	1.14624010026455	0	397446	253
777.3984375	0	health	response	2	72	12	foodImage.42	FOODEEG_Images\0438.jpg	YN	Right	No	1.14624010026455	0	398029	235
778.44140625	1	taste	trialStart	2	73	13	foodImage.83	FOODEEG_Images\0827.jpg	NY	Right	Yes	1.26531999977306	0	398563	251
779.49609375	2	taste	foodImageDisplay	2	73	13	foodImage.83	FOODEEG_Images\0827.jpg	NY	Right	Yes	1.26531999977306	0	399103	252
781.55859375	1.26531999977306	taste	choicePhaseStart	2	73	13	foodImage.83	FOODEEG_Images\0827.jpg	NY	Right	Yes	1.26531999977306	0	400159	253
782.814453125	0	taste	response	2	73	13	foodImage.83	FOODEEG_Images\0827.jpg	NY	Right	Yes	1.26531999977306	0	400802	235
783.857421875	1	health	trialStart	2	74	14	foodImage.6	FOODEEG_Images\0113.jpg	NY	Left	No	1.54628170002252	0	401336	251
784.91796875	2	health	foodImageDisplay	2	74	14	foodImage.6	FOODEEG_Images\0113.jpg	NY	Left	No	1.54628170002252	0	401879	252
786.98046875	1.54628170002252	health	choicePhaseStart	2	74	14	foodImage.6	FOODEEG_Images\0113.jpg	NY	Left	No	1.54628170002252	0	402935	253
788.517578125	0	health	response	2	74	14	foodImage.6	FOODEEG_Images\0113.jpg	NY	Left	No	1.54628170002252	0	403722	234
789.55859375	1	taste	trialStart	2	75	15	foodImage.61	FOODEEG_Images\0640.jpg	NY	Right	Yes	1.18406850006431	0	404255	251
790.599609375	2	taste	foodImageDisplay	2	75	15	foodImage.61	FOODEEG_Images\0640.jpg	NY	Right	Yes	1.18406850006431	0	404788	252
792.662109375	1.18406850006431	taste	choicePhaseStart	2	75	15	foodImage.61	FOODEEG_Images\0640.jpg	NY	Right	Yes	1.18406850006431	0	405844	253
793.837890625	0	taste	response	2	75	15	foodImage.61	FOODEEG_Images\0640.jpg	NY	Right	Yes	1.18406850006431	0	406446	235
794.87890625	1	decision	trialStart	2	76	16	foodImage.73	FOODEEG_Images\0717.jpg	NY	Right	Yes	1.07236830005422	0	406979	251
795.94140625	2	decision	foodImageDisplay	2	76	16	foodImage.73	FOODEEG_Images\0717.jpg	NY	Right	Yes	1.07236830005422	0	407523	252
798.00390625	1.07236830005422	decision	choicePhaseStart	2	76	16	foodImage.73	FOODEEG_Images\0717.jpg	NY	Right	Yes	1.07236830005422	0	408579	253
799.068359375	0	decision	response	2	76	16	foodImage.73	FOODEEG_Images\0717.jpg	NY	Right	Yes	1.07236830005422	0	409124	235
800.115234375	1	decision	trialStart	2	77	17	foodImage.8	FOODEEG_Images\0136.jpg	NY	Right	Yes	1.02677660016343	0	409660	251
801.15625	2	decision	foodImageDisplay	2	77	17	foodImage.8	FOODEEG_Images\0136.jpg	NY	Right	Yes	1.02677660016343	0	410193	252
803.21875	1.02677660016343	decision	choicePhaseStart	2	77	17	foodImage.8	FOODEEG_Images\0136.jpg	NY	Right	Yes	1.02677660016343	0	411249	253
804.236328125	0	decision	response	2	77	17	foodImage.8	FOODEEG_Images\0136.jpg	NY	Right	Yes	1.02677660016343	0	411770	235
805.279296875	1	taste	trialStart	2	78	18	foodImage.32	FOODEEG_Images\0319.jpg	NY	Right	Yes	1.56574869994074	0	412304	251
806.328125	2	taste	foodImageDisplay	2	78	18	foodImage.32	FOODEEG_Images\0319.jpg	NY	Right	Yes	1.56574869994074	0	412841	252
808.390625	1.56574869994074	taste	choicePhaseStart	2	78	18	foodImage.32	FOODEEG_Images\0319.jpg	NY	Right	Yes	1.56574869994074	0	413897	253
809.94921875	0	taste	response	2	78	18	foodImage.32	FOODEEG_Images\0319.jpg	NY	Right	Yes	1.56574869994074	0	414695	235
811.001953125	1	taste	trialStart	2	79	19	foodImage.43	FOODEEG_Images\0445.jpg	NY	Right	Yes	1.14017370017245	0	415234	251
812.05859375	2	taste	foodImageDisplay	2	79	19	foodImage.43	FOODEEG_Images\0445.jpg	NY	Right	Yes	1.14017370017245	0	415775	252
814.12109375	1.14017370017245	taste	choicePhaseStart	2	79	19	foodImage.43	FOODEEG_Images\0445.jpg	NY	Right	Yes	1.14017370017245	0	416831	253
815.251953125	0	taste	response	2	79	19	foodImage.43	FOODEEG_Images\0445.jpg	NY	Right	Yes	1.14017370017245	0	417410	235
816.294921875	1	taste	trialStart	2	80	20	foodImage.68	FOODEEG_Images\0685.jpg	NY	Right	Yes	0.873036399949342	0	417944	251
817.380859375	2	taste	foodImageDisplay	2	80	20	foodImage.68	FOODEEG_Images\0685.jpg	NY	Right	Yes	0.873036399949342	0	418500	252
819.443359375	0.873036399949342	taste	choicePhaseStart	2	80	20	foodImage.68	FOODEEG_Images\0685.jpg	NY	Right	Yes	0.873036399949342	0	419556	253
820.30859375	0	taste	response	2	80	20	foodImage.68	FOODEEG_Images\0685.jpg	NY	Right	Yes	0.873036399949342	0	419999	235
821.3515625	1	decision	trialStart	2	81	21	foodImage.69	FOODEEG_Images\0693.jpg	YN	Left	Yes	1.13251869985834	0	420533	251
822.39453125	2	decision	foodImageDisplay	2	81	21	foodImage.69	FOODEEG_Images\0693.jpg	YN	Left	Yes	1.13251869985834	0	421067	252
824.45703125	1.13251869985834	decision	choicePhaseStart	2	81	21	foodImage.69	FOODEEG_Images\0693.jpg	YN	Left	Yes	1.13251869985834	0	422123	253
825.580078125	0	decision	response	2	81	21	foodImage.69	FOODEEG_Images\0693.jpg	YN	Left	Yes	1.13251869985834	0	422698	234
826.625	1	decision	trialStart	2	82	22	foodImage.87	FOODEEG_Images\0873.jpg	NY	Right	Yes	1.32662319997326	0	423233	251
827.6953125	2	decision	foodImageDisplay	2	82	22	foodImage.87	FOODEEG_Images\0873.jpg	NY	Right	Yes	1.32662319997326	0	423781	252
829.7578125	1.32662319997326	decision	choicePhaseStart	2	82	22	foodImage.87	FOODEEG_Images\0873.jpg	NY	Right	Yes	1.32662319997326	0	424837	253
831.076171875	0	decision	response	2	82	22	foodImage.87	FOODEEG_Images\0873.jpg	NY	Right	Yes	1.32662319997326	0	425512	235
832.1328125	1	decision	trialStart	2	83	23	foodImage.103	FOODEEG_Images\0911.jpg	YN	Right	No	0.858340100385249	0	426053	251
833.171875	2	decision	foodImageDisplay	2	83	23	foodImage.103	FOODEEG_Images\0911.jpg	YN	Right	No	0.858340100385249	0	426585	252
835.234375	0.858340100385249	decision	choicePhaseStart	2	83	23	foodImage.103	FOODEEG_Images\0911.jpg	YN	Right	No	0.858340100385249	0	427641	253
836.083984375	0	decision	response	2	83	23	foodImage.103	FOODEEG_Images\0911.jpg	YN	Right	No	0.858340100385249	0	428076	235
837.125	1	decision	trialStart	2	84	24	foodImage.2	FOODEEG_Images\0028.jpg	YN	Left	Yes	0.778123999945819	0	428609	251
838.1796875	2	decision	foodImageDisplay	2	84	24	foodImage.2	FOODEEG_Images\0028.jpg	YN	Left	Yes	0.778123999945819	0	429149	252
840.2421875	0.778123999945819	decision	choicePhaseStart	2	84	24	foodImage.2	FOODEEG_Images\0028.jpg	YN	Left	Yes	0.778123999945819	0	430205	253
841.01171875	0	decision	response	2	84	24	foodImage.2	FOODEEG_Images\0028.jpg	YN	Left	Yes	0.778123999945819	0	430599	234
842.0546875	1	taste	trialStart	2	85	25	foodImage.90	FOODEEG_Images\0890.jpg	NY	Right	Yes	1.31428950000554	0	431133	251
843.125	2	taste	foodImageDisplay	2	85	25	foodImage.90	FOODEEG_Images\0890.jpg	NY	Right	Yes	1.31428950000554	0	431681	252
845.1875	1.31428950000554	taste	choicePhaseStart	2	85	25	foodImage.90	FOODEEG_Images\0890.jpg	NY	Right	Yes	1.31428950000554	0	432737	253
846.4921875	0	taste	response	2	85	25	foodImage.90	FOODEEG_Images\0890.jpg	NY	Right	Yes	1.31428950000554	0	433405	235
847.53515625	1	decision	trialStart	2	86	26	foodImage.34	FOODEEG_Images\0339.jpg	NY	Right	Yes	0.883615700062364	0	433939	251
848.59375	2	decision	foodImageDisplay	2	86	26	foodImage.34	FOODEEG_Images\0339.jpg	NY	Right	Yes	0.883615700062364	0	434481	252
850.65625	0.883615700062364	decision	choicePhaseStart	2	86	26	foodImage.34	FOODEEG_Images\0339.jpg	NY	Right	Yes	0.883615700062364	0	435537	253
851.53125	0	decision	response	2	86	26	foodImage.34	FOODEEG_Images\0339.jpg	NY	Right	Yes	0.883615700062364	0	435985	235
852.57421875	1	health	trialStart	2	87	27	foodImage.92	FOODEEG_Images\0900.jpg	YN	Left	Yes	1.48722370015457	0	436519	251
853.61328125	2	health	foodImageDisplay	2	87	27	foodImage.92	FOODEEG_Images\0900.jpg	YN	Left	Yes	1.48722370015457	0	437051	252
855.67578125	1.48722370015457	health	choicePhaseStart	2	87	27	foodImage.92	FOODEEG_Images\0900.jpg	YN	Left	Yes	1.48722370015457	0	438107	253
857.154296875	0	health	response	2	87	27	foodImage.92	FOODEEG_Images\0900.jpg	YN	Left	Yes	1.48722370015457	0	438864	234
858.197265625	1	decision	trialStart	2	88	28	foodImage.93	FOODEEG_Images\0901.jpg	YN	Right	No	1.24901240039617	0	439398	251
859.236328125	2	decision	foodImageDisplay	2	88	28	foodImage.93	FOODEEG_Images\0901.jpg	YN	Right	No	1.24901240039617	0	439930	252
861.298828125	1.24901240039617	decision	choicePhaseStart	2	88	28	foodImage.93	FOODEEG_Images\0901.jpg	YN	Right	No	1.24901240039617	0	440986	253
862.5390625	0	decision	response	2	88	28	foodImage.93	FOODEEG_Images\0901.jpg	YN	Right	No	1.24901240039617	0	441621	235
863.58203125	1	taste	trialStart	2	89	29	foodImage.84	FOODEEG_Images\0830.jpg	NY	Right	Yes	1.21949339983985	0	442155	251
864.6484375	2	taste	foodImageDisplay	2	89	29	foodImage.84	FOODEEG_Images\0830.jpg	NY	Right	Yes	1.21949339983985	0	442701	252
866.7109375	1.21949339983985	taste	choicePhaseStart	2	89	29	foodImage.84	FOODEEG_Images\0830.jpg	NY	Right	Yes	1.21949339983985	0	443757	253
867.921875	0	taste	response	2	89	29	foodImage.84	FOODEEG_Images\0830.jpg	NY	Right	Yes	1.21949339983985	0	444377	235
868.966796875	1	decision	trialStart	2	90	30	foodImage.111	FOODEEG_Images\0919.jpg	YN	Right	No	0.866372900083661	0	444912	251
870.00390625	2	decision	foodImageDisplay	2	90	30	foodImage.111	FOODEEG_Images\0919.jpg	YN	Right	No	0.866372900083661	0	445443	252
872.064453125	0.866372900083661	decision	choicePhaseStart	2	90	30	foodImage.111	FOODEEG_Images\0919.jpg	YN	Right	No	0.866372900083661	0	446498	253
872.921875	0	decision	response	2	90	30	foodImage.111	FOODEEG_Images\0919.jpg	YN	Right	No	0.866372900083661	0	446937	235
873.96484375	1	decision	trialStart	2	91	31	foodImage.63	FOODEEG_Images\0645.jpg	NY	Right	Yes	0.767105900216848	0	447471	251
875.005859375	2	decision	foodImageDisplay	2	91	31	foodImage.63	FOODEEG_Images\0645.jpg	NY	Right	Yes	0.767105900216848	0	448004	252
877.068359375	0.767105900216848	decision	choicePhaseStart	2	91	31	foodImage.63	FOODEEG_Images\0645.jpg	NY	Right	Yes	0.767105900216848	0	449060	253
877.826171875	0	decision	response	2	91	31	foodImage.63	FOODEEG_Images\0645.jpg	NY	Right	Yes	0.767105900216848	0	449448	235
878.869140625	1	decision	trialStart	2	92	32	foodImage.66	FOODEEG_Images\0676.jpg	YN	Left	Yes	0.951097900047898	0	449982	251
879.91015625	2	decision	foodImageDisplay	2	92	32	foodImage.66	FOODEEG_Images\0676.jpg	YN	Left	Yes	0.951097900047898	0	450515	252
881.97265625	0.951097900047898	decision	choicePhaseStart	2	92	32	foodImage.66	FOODEEG_Images\0676.jpg	YN	Left	Yes	0.951097900047898	0	451571	253
882.9140625	0	decision	response	2	92	32	foodImage.66	FOODEEG_Images\0676.jpg	YN	Left	Yes	0.951097900047898	0	452053	234
883.95703125	1	health	trialStart	2	93	33	foodImage.88	FOODEEG_Images\0878.jpg	YN	Right	No	1.31120530003682	0	452587	251
885.013671875	2	health	foodImageDisplay	2	93	33	foodImage.88	FOODEEG_Images\0878.jpg	YN	Right	No	1.31120530003682	0	453128	252
887.076171875	1.31120530003682	health	choicePhaseStart	2	93	33	foodImage.88	FOODEEG_Images\0878.jpg	YN	Right	No	1.31120530003682	0	454184	253
888.37890625	0	health	response	2	93	33	foodImage.88	FOODEEG_Images\0878.jpg	YN	Right	No	1.31120530003682	0	454851	235
889.4375	1	health	trialStart	2	94	34	foodImage.51	FOODEEG_Images\0536.jpg	NY	Left	No	1.58683529961854	0	455393	251
890.48046875	2	health	foodImageDisplay	2	94	34	foodImage.51	FOODEEG_Images\0536.jpg	NY	Left	No	1.58683529961854	0	455927	252
892.54296875	1.58683529961854	health	choicePhaseStart	2	94	34	foodImage.51	FOODEEG_Images\0536.jpg	NY	Left	No	1.58683529961854	0	456983	253
894.12109375	0	health	response	2	94	34	foodImage.51	FOODEEG_Images\0536.jpg	NY	Left	No	1.58683529961854	0	457791	234
895.162109375	1	decision	trialStart	2	95	35	foodImage.31	FOODEEG_Images\0294.jpg	NY	Right	Yes	1.02548780012876	0	458324	251
896.203125	2	decision	foodImageDisplay	2	95	35	foodImage.31	FOODEEG_Images\0294.jpg	NY	Right	Yes	1.02548780012876	0	458857	252
898.265625	1.02548780012876	decision	choicePhaseStart	2	95	35	foodImage.31	FOODEEG_Images\0294.jpg	NY	Right	Yes	1.02548780012876	0	459913	253
899.28125	0	decision	response	2	95	35	foodImage.31	FOODEEG_Images\0294.jpg	NY	Right	Yes	1.02548780012876	0	460433	235
900.322265625	1	health	trialStart	2	96	36	foodImage.66	FOODEEG_Images\0676.jpg	NY	Right	Yes	1.53619410004467	0	460966	251
901.36328125	2	health	foodImageDisplay	2	96	36	foodImage.66	FOODEEG_Images\0676.jpg	NY	Right	Yes	1.53619410004467	0	461499	252
903.42578125	1.53619410004467	health	choicePhaseStart	2	96	36	foodImage.66	FOODEEG_Images\0676.jpg	NY	Right	Yes	1.53619410004467	0	462555	253
904.953125	0	health	response	2	96	36	foodImage.66	FOODEEG_Images\0676.jpg	NY	Right	Yes	1.53619410004467	0	463337	235
905.99609375	1	decision	trialStart	2	97	37	foodImage.71	FOODEEG_Images\0713.jpg	NY	Right	Yes	0.906956100370735	0	463871	251
907.041015625	2	decision	foodImageDisplay	2	97	37	foodImage.71	FOODEEG_Images\0713.jpg	NY	Right	Yes	0.906956100370735	0	464406	252
909.103515625	0.906956100370735	decision	choicePhaseStart	2	97	37	foodImage.71	FOODEEG_Images\0713.jpg	NY	Right	Yes	0.906956100370735	0	465462	253
910	0	decision	response	2	97	37	foodImage.71	FOODEEG_Images\0713.jpg	NY	Right	Yes	0.906956100370735	0	465921	235
911.04296875	1	decision	trialStart	2	98	38	foodImage.7	FOODEEG_Images\0116.jpg	NY	Right	Yes	2.74267870001495	0	466455	251
912.083984375	2	decision	foodImageDisplay	2	98	38	foodImage.7	FOODEEG_Images\0116.jpg	NY	Right	Yes	2.74267870001495	0	466988	252
914.146484375	2.74267870001495	decision	choicePhaseStart	2	98	38	foodImage.7	FOODEEG_Images\0116.jpg	NY	Right	Yes	2.74267870001495	0	468044	253
916.880859375	0	decision	response	2	98	38	foodImage.7	FOODEEG_Images\0116.jpg	NY	Right	Yes	2.74267870001495	0	469444	235
917.923828125	1	decision	trialStart	2	99	39	foodImage.20	FOODEEG_Images\0226.jpg	NY	Right	Yes	1.15837919991463	0	469978	251
918.96484375	2	decision	foodImageDisplay	2	99	39	foodImage.20	FOODEEG_Images\0226.jpg	NY	Right	Yes	1.15837919991463	0	470511	252
921.02734375	1.15837919991463	decision	choicePhaseStart	2	99	39	foodImage.20	FOODEEG_Images\0226.jpg	NY	Right	Yes	1.15837919991463	0	471567	253
922.17578125	0	decision	response	2	99	39	foodImage.20	FOODEEG_Images\0226.jpg	NY	Right	Yes	1.15837919991463	0	472155	235
923.220703125	1	health	trialStart	2	100	40	foodImage.79	FOODEEG_Images\0794.jpg	YN	Left	Yes	1.2896734001115	0	472690	251
924.265625	2	health	foodImageDisplay	2	100	40	foodImage.79	FOODEEG_Images\0794.jpg	YN	Left	Yes	1.2896734001115	0	473225	252
926.328125	1.2896734001115	health	choicePhaseStart	2	100	40	foodImage.79	FOODEEG_Images\0794.jpg	YN	Left	Yes	1.2896734001115	0	474281	253
927.609375	0	health	response	2	100	40	foodImage.79	FOODEEG_Images\0794.jpg	YN	Left	Yes	1.2896734001115	0	474937	234
928.654296875	1	taste	trialStart	2	101	41	foodImage.12	FOODEEG_Images\0181.jpg	YN	Left	Yes	0.87932930001989	0	475472	251
929.6953125	2	taste	foodImageDisplay	2	101	41	foodImage.12	FOODEEG_Images\0181.jpg	YN	Left	Yes	0.87932930001989	0	476005	252
931.76171875	0.87932930001989	taste	choicePhaseStart	2	101	41	foodImage.12	FOODEEG_Images\0181.jpg	YN	Left	Yes	0.87932930001989	0	477063	253
932.630859375	0	taste	response	2	101	41	foodImage.12	FOODEEG_Images\0181.jpg	YN	Left	Yes	0.87932930001989	0	477508	234
933.671875	1	decision	trialStart	2	102	42	foodImage.57	FOODEEG_Images\0587.jpg	NY	Right	Yes	0.837714499793947	0	478041	251
934.716796875	2	decision	foodImageDisplay	2	102	42	foodImage.57	FOODEEG_Images\0587.jpg	NY	Right	Yes	0.837714499793947	0	478576	252
936.779296875	0.837714499793947	decision	choicePhaseStart	2	102	42	foodImage.57	FOODEEG_Images\0587.jpg	NY	Right	Yes	0.837714499793947	0	479632	253
937.607421875	0	decision	response	2	102	42	foodImage.57	FOODEEG_Images\0587.jpg	NY	Right	Yes	0.837714499793947	0	480056	235
938.650390625	1	taste	trialStart	2	103	43	foodImage.49	FOODEEG_Images\0515.jpg	NY	Right	Yes	1.01516330009326	0	480590	251
939.69140625	2	taste	foodImageDisplay	2	103	43	foodImage.49	FOODEEG_Images\0515.jpg	NY	Right	Yes	1.01516330009326	0	481123	252
941.75390625	1.01516330009326	taste	choicePhaseStart	2	103	43	foodImage.49	FOODEEG_Images\0515.jpg	NY	Right	Yes	1.01516330009326	0	482179	253
942.759765625	0	taste	response	2	103	43	foodImage.49	FOODEEG_Images\0515.jpg	NY	Right	Yes	1.01516330009326	0	482694	235
943.80859375	1	decision	trialStart	2	104	44	foodImage.38	FOODEEG_Images\0365.jpg	NY	Right	Yes	0.791773700155318	0	483231	251
944.845703125	2	decision	foodImageDisplay	2	104	44	foodImage.38	FOODEEG_Images\0365.jpg	NY	Right	Yes	0.791773700155318	0	483762	252
946.912109375	0.791773700155318	decision	choicePhaseStart	2	104	44	foodImage.38	FOODEEG_Images\0365.jpg	NY	Right	Yes	0.791773700155318	0	484820	253
947.6953125	0	decision	response	2	104	44	foodImage.38	FOODEEG_Images\0365.jpg	NY	Right	Yes	0.791773700155318	0	485221	235
948.73828125	1	decision	trialStart	2	105	45	foodImage.110	FOODEEG_Images\0918.jpg	NY	Right	Yes	0.657950200140476	0	485755	251
949.775390625	2	decision	foodImageDisplay	2	105	45	foodImage.110	FOODEEG_Images\0918.jpg	NY	Right	Yes	0.657950200140476	0	486286	252
951.837890625	0.657950200140476	decision	choicePhaseStart	2	105	45	foodImage.110	FOODEEG_Images\0918.jpg	NY	Right	Yes	0.657950200140476	0	487342	253
952.486328125	0	decision	response	2	105	45	foodImage.110	FOODEEG_Images\0918.jpg	NY	Right	Yes	0.657950200140476	0	487674	235
953.529296875	1	decision	trialStart	2	106	46	foodImage.79	FOODEEG_Images\0794.jpg	YN	Left	Yes	1.01404999988154	0	488208	251
954.5703125	2	decision	foodImageDisplay	2	106	46	foodImage.79	FOODEEG_Images\0794.jpg	YN	Left	Yes	1.01404999988154	0	488741	252
956.6328125	1.01404999988154	decision	choicePhaseStart	2	106	46	foodImage.79	FOODEEG_Images\0794.jpg	YN	Left	Yes	1.01404999988154	0	489797	253
957.638671875	0	decision	response	2	106	46	foodImage.79	FOODEEG_Images\0794.jpg	YN	Left	Yes	1.01404999988154	0	490312	234
958.6796875	1	decision	trialStart	2	107	47	foodImage.74	FOODEEG_Images\0752.jpg	NY	Right	Yes	0.74329510005191	0	490845	251
959.720703125	2	decision	foodImageDisplay	2	107	47	foodImage.74	FOODEEG_Images\0752.jpg	NY	Right	Yes	0.74329510005191	0	491378	252
961.78515625	0.74329510005191	decision	choicePhaseStart	2	107	47	foodImage.74	FOODEEG_Images\0752.jpg	NY	Right	Yes	0.74329510005191	0	492435	253
962.51953125	0	decision	response	2	107	47	foodImage.74	FOODEEG_Images\0752.jpg	NY	Right	Yes	0.74329510005191	0	492811	235
963.5625	1	decision	trialStart	2	108	48	foodImage.90	FOODEEG_Images\0890.jpg	YN	Left	Yes	1.26171559980139	0	493345	251
964.62109375	2	decision	foodImageDisplay	2	108	48	foodImage.90	FOODEEG_Images\0890.jpg	YN	Left	Yes	1.26171559980139	0	493887	252
966.681640625	1.26171559980139	decision	choicePhaseStart	2	108	48	foodImage.90	FOODEEG_Images\0890.jpg	YN	Left	Yes	1.26171559980139	0	494942	253
967.935546875	0	decision	response	2	108	48	foodImage.90	FOODEEG_Images\0890.jpg	YN	Left	Yes	1.26171559980139	0	495584	234
968.984375	1	decision	trialStart	2	109	49	foodImage.61	FOODEEG_Images\0640.jpg	YN	Left	Yes	0.958564199972898	0	496121	251
970.025390625	2	decision	foodImageDisplay	2	109	49	foodImage.61	FOODEEG_Images\0640.jpg	YN	Left	Yes	0.958564199972898	0	496654	252
972.087890625	0.958564199972898	decision	choicePhaseStart	2	109	49	foodImage.61	FOODEEG_Images\0640.jpg	YN	Left	Yes	0.958564199972898	0	497710	253
973.0390625	0	decision	response	2	109	49	foodImage.61	FOODEEG_Images\0640.jpg	YN	Left	Yes	0.958564199972898	0	498197	234
974.10546875	1	health	trialStart	2	110	50	foodImage.86	FOODEEG_Images\0844.jpg	YN	Left	Yes	1.06889609992504	0	498743	251
975.1640625	2	health	foodImageDisplay	2	110	50	foodImage.86	FOODEEG_Images\0844.jpg	YN	Left	Yes	1.06889609992504	0	499285	252
977.2265625	1.06889609992504	health	choicePhaseStart	2	110	50	foodImage.86	FOODEEG_Images\0844.jpg	YN	Left	Yes	1.06889609992504	0	500341	253
978.287109375	0	health	response	2	110	50	foodImage.86	FOODEEG_Images\0844.jpg	YN	Left	Yes	1.06889609992504	0	500884	234
979.328125	1	taste	trialStart	2	111	51	foodImage.36	FOODEEG_Images\0352.jpg	NY	Right	Yes	1.08418169990182	0	501417	251
980.388671875	2	taste	foodImageDisplay	2	111	51	foodImage.36	FOODEEG_Images\0352.jpg	NY	Right	Yes	1.08418169990182	0	501960	252
982.451171875	1.08418169990182	taste	choicePhaseStart	2	111	51	foodImage.36	FOODEEG_Images\0352.jpg	NY	Right	Yes	1.08418169990182	0	503016	253
983.525390625	0	taste	response	2	111	51	foodImage.36	FOODEEG_Images\0352.jpg	NY	Right	Yes	1.08418169990182	0	503566	235
984.5703125	1	taste	trialStart	2	112	52	foodImage.117	FOODEEG_Images\0925.jpg	NY	Left	No	0.735290900338441	0	504101	251
985.609375	2	taste	foodImageDisplay	2	112	52	foodImage.117	FOODEEG_Images\0925.jpg	NY	Left	No	0.735290900338441	0	504633	252
987.671875	0.735290900338441	taste	choicePhaseStart	2	112	52	foodImage.117	FOODEEG_Images\0925.jpg	NY	Left	No	0.735290900338441	0	505689	253
988.3984375	0	taste	response	2	112	52	foodImage.117	FOODEEG_Images\0925.jpg	NY	Left	No	0.735290900338441	0	506061	234
989.44140625	1	decision	trialStart	2	113	53	foodImage.109	FOODEEG_Images\0917.jpg	NY	Left	No	1.45377739984542	0	506595	251
990.482421875	2	decision	foodImageDisplay	2	113	53	foodImage.109	FOODEEG_Images\0917.jpg	NY	Left	No	1.45377739984542	0	507128	252
992.544921875	1.45377739984542	decision	choicePhaseStart	2	113	53	foodImage.109	FOODEEG_Images\0917.jpg	NY	Left	No	1.45377739984542	0	508184	253
993.990234375	0	decision	response	2	113	53	foodImage.109	FOODEEG_Images\0917.jpg	NY	Left	No	1.45377739984542	0	508924	234
995.041015625	1	taste	trialStart	2	114	54	foodImage.11	FOODEEG_Images\0180.jpg	YN	Left	Yes	0.945982199627906	0	509462	251
996.08203125	2	taste	foodImageDisplay	2	114	54	foodImage.11	FOODEEG_Images\0180.jpg	YN	Left	Yes	0.945982199627906	0	509995	252
998.1484375	0.945982199627906	taste	choicePhaseStart	2	114	54	foodImage.11	FOODEEG_Images\0180.jpg	YN	Left	Yes	0.945982199627906	0	511053	253
999.0859375	0	taste	response	2	114	54	foodImage.11	FOODEEG_Images\0180.jpg	YN	Left	Yes	0.945982199627906	0	511533	234
1000.12890625	1	health	trialStart	2	115	55	foodImage.90	FOODEEG_Images\0890.jpg	YN	Left	Yes	1.63021920016035	0	512067	251
1001.185546875	2	health	foodImageDisplay	2	115	55	foodImage.90	FOODEEG_Images\0890.jpg	YN	Left	Yes	1.63021920016035	0	512608	252
1003.248046875	1.63021920016035	health	choicePhaseStart	2	115	55	foodImage.90	FOODEEG_Images\0890.jpg	YN	Left	Yes	1.63021920016035	0	513664	253
1004.869140625	0	health	response	2	115	55	foodImage.90	FOODEEG_Images\0890.jpg	YN	Left	Yes	1.63021920016035	0	514494	234
1005.908203125	1	taste	trialStart	2	116	56	foodImage.2	FOODEEG_Images\0028.jpg	NY	Right	Yes	1.30406299978495	0	515026	251
1006.94921875	2	taste	foodImageDisplay	2	116	56	foodImage.2	FOODEEG_Images\0028.jpg	NY	Right	Yes	1.30406299978495	0	515559	252
1009.013671875	1.30406299978495	taste	choicePhaseStart	2	116	56	foodImage.2	FOODEEG_Images\0028.jpg	NY	Right	Yes	1.30406299978495	0	516616	253
1010.30859375	0	taste	response	2	116	56	foodImage.2	FOODEEG_Images\0028.jpg	NY	Right	Yes	1.30406299978495	0	517279	235
1011.375	1	decision	trialStart	2	117	57	foodImage.85	FOODEEG_Images\0841.jpg	NY	Right	Yes	1.58105729985982	0	517825	251
1012.43359375	2	decision	foodImageDisplay	2	117	57	foodImage.85	FOODEEG_Images\0841.jpg	NY	Right	Yes	1.58105729985982	0	518367	252
1014.49609375	1.58105729985982	decision	choicePhaseStart	2	117	57	foodImage.85	FOODEEG_Images\0841.jpg	NY	Right	Yes	1.58105729985982	0	519423	253
1016.068359375	0	decision	response	2	117	57	foodImage.85	FOODEEG_Images\0841.jpg	NY	Right	Yes	1.58105729985982	0	520228	235
1017.109375	1	decision	trialStart	2	118	58	foodImage.49	FOODEEG_Images\0515.jpg	NY	Right	Yes	0.970131800044328	0	520761	251
1018.150390625	2	decision	foodImageDisplay	2	118	58	foodImage.49	FOODEEG_Images\0515.jpg	NY	Right	Yes	0.970131800044328	0	521294	252
1020.212890625	0.970131800044328	decision	choicePhaseStart	2	118	58	foodImage.49	FOODEEG_Images\0515.jpg	NY	Right	Yes	0.970131800044328	0	522350	253
1021.173828125	0	decision	response	2	118	58	foodImage.49	FOODEEG_Images\0515.jpg	NY	Right	Yes	0.970131800044328	0	522842	235
1022.220703125	1	taste	trialStart	2	119	59	foodImage.70	FOODEEG_Images\0705.jpg	YN	Left	Yes	0.832875499967486	0	523378	251
1023.28515625	2	taste	foodImageDisplay	2	119	59	foodImage.70	FOODEEG_Images\0705.jpg	YN	Left	Yes	0.832875499967486	0	523923	252
1025.34765625	0.832875499967486	taste	choicePhaseStart	2	119	59	foodImage.70	FOODEEG_Images\0705.jpg	YN	Left	Yes	0.832875499967486	0	524979	253
1026.171875	0	taste	response	2	119	59	foodImage.70	FOODEEG_Images\0705.jpg	YN	Left	Yes	0.832875499967486	0	525401	234
1027.21484375	1	health	trialStart	2	120	60	foodImage.99	FOODEEG_Images\0907.jpg	YN	Left	Yes	0.962072900030762	0	525935	251
1028.25390625	2	health	foodImageDisplay	2	120	60	foodImage.99	FOODEEG_Images\0907.jpg	YN	Left	Yes	0.962072900030762	0	526467	252
1030.31640625	0.962072900030762	health	choicePhaseStart	2	120	60	foodImage.99	FOODEEG_Images\0907.jpg	YN	Left	Yes	0.962072900030762	0	527523	253
1031.267578125	0	health	response	2	120	60	foodImage.99	FOODEEG_Images\0907.jpg	YN	Left	Yes	0.962072900030762	0	528010	234
1033.318359375	10.927734375	n/a	blockEnd	n/a	n/a	n/a	n/a	n/a	n/a	n/a	n/a	n/a	n/a	529060	254
1044.24609375	2	n/a	blockStart	3	n/a	n/a	n/a	n/a	n/a	n/a	n/a	n/a	n/a	534655	250
1046.27734375	1	decision	trialStart	3	121	1	foodImage.86	FOODEEG_Images\0844.jpg	YN	Left	Yes	0.814313599839807	0	535695	251
1047.337890625	2	decision	foodImageDisplay	3	121	1	foodImage.86	FOODEEG_Images\0844.jpg	YN	Left	Yes	0.814313599839807	0	536238	252
1049.404296875	0.814313599839807	decision	choicePhaseStart	3	121	1	foodImage.86	FOODEEG_Images\0844.jpg	YN	Left	Yes	0.814313599839807	0	537296	253
1050.2109375	0	decision	response	3	121	1	foodImage.86	FOODEEG_Images\0844.jpg	YN	Left	Yes	0.814313599839807	0	537709	234
1051.25390625	1	health	trialStart	3	122	2	foodImage.23	FOODEEG_Images\0244.jpg	YN	Right	No	1.34060329990461	0	538243	251
1052.296875	2	health	foodImageDisplay	3	122	2	foodImage.23	FOODEEG_Images\0244.jpg	YN	Right	No	1.34060329990461	0	538777	252
1054.359375	1.34060329990461	health	choicePhaseStart	3	122	2	foodImage.23	FOODEEG_Images\0244.jpg	YN	Right	No	1.34060329990461	0	539833	253
1055.69140625	0	health	response	3	122	2	foodImage.23	FOODEEG_Images\0244.jpg	YN	Right	No	1.34060329990461	0	540515	235
1056.736328125	1	health	trialStart	3	123	3	foodImage.118	FOODEEG_Images\0926.jpg	NY	Right	Yes	1.06114149978384	0	541050	251
1057.77734375	2	health	foodImageDisplay	3	123	3	foodImage.118	FOODEEG_Images\0926.jpg	NY	Right	Yes	1.06114149978384	0	541583	252
1059.83984375	1.06114149978384	health	choicePhaseStart	3	123	3	foodImage.118	FOODEEG_Images\0926.jpg	NY	Right	Yes	1.06114149978384	0	542639	253
1060.890625	0	health	response	3	123	3	foodImage.118	FOODEEG_Images\0926.jpg	NY	Right	Yes	1.06114149978384	0	543177	235
1061.935546875	1	health	trialStart	3	124	4	foodImage.36	FOODEEG_Images\0352.jpg	NY	Right	Yes	0.858671700116247	0	543712	251
1062.994140625	2	health	foodImageDisplay	3	124	4	foodImage.36	FOODEEG_Images\0352.jpg	NY	Right	Yes	0.858671700116247	0	544254	252
1065.056640625	0.858671700116247	health	choicePhaseStart	3	124	4	foodImage.36	FOODEEG_Images\0352.jpg	NY	Right	Yes	0.858671700116247	0	545310	253
1065.90625	0	health	response	3	124	4	foodImage.36	FOODEEG_Images\0352.jpg	NY	Right	Yes	0.858671700116247	0	545745	235
1066.951171875	1	health	trialStart	3	125	5	foodImage.68	FOODEEG_Images\0685.jpg	YN	Right	No	0.954307999927551	0	546280	251
1068.02734375	2	health	foodImageDisplay	3	125	5	foodImage.68	FOODEEG_Images\0685.jpg	YN	Right	No	0.954307999927551	0	546831	252
1070.08984375	0.954307999927551	health	choicePhaseStart	3	125	5	foodImage.68	FOODEEG_Images\0685.jpg	YN	Right	No	0.954307999927551	0	547887	253
1071.03515625	0	health	response	3	125	5	foodImage.68	FOODEEG_Images\0685.jpg	YN	Right	No	0.954307999927551	0	548371	235
1072.078125	1	taste	trialStart	3	126	6	foodImage.59	FOODEEG_Images\0607.jpg	YN	Left	Yes	2.06322050001472	0	548905	251
1073.126953125	2	taste	foodImageDisplay	3	126	6	foodImage.59	FOODEEG_Images\0607.jpg	YN	Left	Yes	2.06322050001472	0	549442	252
1075.189453125	2.06322050001472	taste	choicePhaseStart	3	126	6	foodImage.59	FOODEEG_Images\0607.jpg	YN	Left	Yes	2.06322050001472	0	550498	253
1077.2421875	0	taste	response	3	126	6	foodImage.59	FOODEEG_Images\0607.jpg	YN	Left	Yes	2.06322050001472	0	551549	234
1078.28515625	1	health	trialStart	3	127	7	foodImage.75	FOODEEG_Images\0763.jpg	YN	Left	Yes	0.622063599992543	0	552083	251
1079.326171875	2	health	foodImageDisplay	3	127	7	foodImage.75	FOODEEG_Images\0763.jpg	YN	Left	Yes	0.622063599992543	0	552616	252
1081.390625	0.622063599992543	health	choicePhaseStart	3	127	7	foodImage.75	FOODEEG_Images\0763.jpg	YN	Left	Yes	0.622063599992543	0	553673	253
1082.001953125	0	health	response	3	127	7	foodImage.75	FOODEEG_Images\0763.jpg	YN	Left	Yes	0.622063599992543	0	553986	234
1083.046875	1	decision	trialStart	3	128	8	foodImage.64	FOODEEG_Images\0647.jpg	NY	Right	Yes	1.15454789996147	0	554521	251
1084.10546875	2	decision	foodImageDisplay	3	128	8	foodImage.64	FOODEEG_Images\0647.jpg	NY	Right	Yes	1.15454789996147	0	555063	252
1086.169921875	1.15454789996147	decision	choicePhaseStart	3	128	8	foodImage.64	FOODEEG_Images\0647.jpg	NY	Right	Yes	1.15454789996147	0	556120	253
1087.314453125	0	decision	response	3	128	8	foodImage.64	FOODEEG_Images\0647.jpg	NY	Right	Yes	1.15454789996147	0	556706	235
1088.357421875	1	decision	trialStart	3	129	9	foodImage.22	FOODEEG_Images\0236.jpg	NY	Right	Yes	0.84011030010879	0	557240	251
1089.396484375	2	decision	foodImageDisplay	3	129	9	foodImage.22	FOODEEG_Images\0236.jpg	NY	Right	Yes	0.84011030010879	0	557772	252
1091.458984375	0.84011030010879	decision	choicePhaseStart	3	129	9	foodImage.22	FOODEEG_Images\0236.jpg	NY	Right	Yes	0.84011030010879	0	558828	253
1092.2890625	0	decision	response	3	129	9	foodImage.22	FOODEEG_Images\0236.jpg	NY	Right	Yes	0.84011030010879	0	559253	235
1093.333984375	1	taste	trialStart	3	130	10	foodImage.62	FOODEEG_Images\0644.jpg	NY	Right	Yes	1.02329550031573	0	559788	251
1094.390625	2	taste	foodImageDisplay	3	130	10	foodImage.62	FOODEEG_Images\0644.jpg	NY	Right	Yes	1.02329550031573	0	560329	252
1096.451171875	1.02329550031573	taste	choicePhaseStart	3	130	10	foodImage.62	FOODEEG_Images\0644.jpg	NY	Right	Yes	1.02329550031573	0	561384	253
1097.466796875	0	taste	response	3	130	10	foodImage.62	FOODEEG_Images\0644.jpg	NY	Right	Yes	1.02329550031573	0	561904	235
1098.505859375	1	health	trialStart	3	131	11	foodImage.46	FOODEEG_Images\0479.jpg	YN	Left	Yes	0.930240099783987	0	562436	251
1099.5625	2	health	foodImageDisplay	3	131	11	foodImage.46	FOODEEG_Images\0479.jpg	YN	Left	Yes	0.930240099783987	0	562977	252
1101.623046875	0.930240099783987	health	choicePhaseStart	3	131	11	foodImage.46	FOODEEG_Images\0479.jpg	YN	Left	Yes	0.930240099783987	0	564032	253
1102.544921875	0	health	response	3	131	11	foodImage.46	FOODEEG_Images\0479.jpg	YN	Left	Yes	0.930240099783987	0	564504	234
1103.587890625	1	decision	trialStart	3	132	12	foodImage.21	FOODEEG_Images\0234.jpg	NY	Right	Yes	0.60965450014919	0	565038	251
1104.642578125	2	decision	foodImageDisplay	3	132	12	foodImage.21	FOODEEG_Images\0234.jpg	NY	Right	Yes	0.60965450014919	0	565578	252
1106.705078125	0.60965450014919	decision	choicePhaseStart	3	132	12	foodImage.21	FOODEEG_Images\0234.jpg	NY	Right	Yes	0.60965450014919	0	566634	253
1107.3046875	0	decision	response	3	132	12	foodImage.21	FOODEEG_Images\0234.jpg	NY	Right	Yes	0.60965450014919	0	566941	235
1108.349609375	1	decision	trialStart	3	133	13	foodImage.51	FOODEEG_Images\0536.jpg	YN	Left	Yes	0.879123999737203	0	567476	251
1109.396484375	2	decision	foodImageDisplay	3	133	13	foodImage.51	FOODEEG_Images\0536.jpg	YN	Left	Yes	0.879123999737203	0	568012	252
1111.458984375	0.879123999737203	decision	choicePhaseStart	3	133	13	foodImage.51	FOODEEG_Images\0536.jpg	YN	Left	Yes	0.879123999737203	0	569068	253
1112.330078125	0	decision	response	3	133	13	foodImage.51	FOODEEG_Images\0536.jpg	YN	Left	Yes	0.879123999737203	0	569514	234
1113.373046875	1	taste	trialStart	3	134	14	foodImage.57	FOODEEG_Images\0587.jpg	NY	Right	Yes	0.891204399988055	0	570048	251
1114.416015625	2	taste	foodImageDisplay	3	134	14	foodImage.57	FOODEEG_Images\0587.jpg	NY	Right	Yes	0.891204399988055	0	570582	252
1116.478515625	0.891204399988055	taste	choicePhaseStart	3	134	14	foodImage.57	FOODEEG_Images\0587.jpg	NY	Right	Yes	0.891204399988055	0	571638	253
1117.361328125	0	taste	response	3	134	14	foodImage.57	FOODEEG_Images\0587.jpg	NY	Right	Yes	0.891204399988055	0	572090	235
1118.404296875	1	taste	trialStart	3	135	15	foodImage.47	FOODEEG_Images\0488.jpg	NY	Right	Yes	0.892178599722683	0	572624	251
1119.4453125	2	taste	foodImageDisplay	3	135	15	foodImage.47	FOODEEG_Images\0488.jpg	NY	Right	Yes	0.892178599722683	0	573157	252
1121.509765625	0.892178599722683	taste	choicePhaseStart	3	135	15	foodImage.47	FOODEEG_Images\0488.jpg	NY	Right	Yes	0.892178599722683	0	574214	253
1122.392578125	0	taste	response	3	135	15	foodImage.47	FOODEEG_Images\0488.jpg	NY	Right	Yes	0.892178599722683	0	574666	235
1123.435546875	1	taste	trialStart	3	136	16	foodImage.54	FOODEEG_Images\0560.jpg	NY	Right	Yes	0.756947199814022	0	575200	251
1124.494140625	2	taste	foodImageDisplay	3	136	16	foodImage.54	FOODEEG_Images\0560.jpg	NY	Right	Yes	0.756947199814022	0	575742	252
1126.556640625	0.756947199814022	taste	choicePhaseStart	3	136	16	foodImage.54	FOODEEG_Images\0560.jpg	NY	Right	Yes	0.756947199814022	0	576798	253
1127.3046875	0	taste	response	3	136	16	foodImage.54	FOODEEG_Images\0560.jpg	NY	Right	Yes	0.756947199814022	0	577181	235
1128.353515625	1	health	trialStart	3	137	17	foodImage.108	FOODEEG_Images\0916.jpg	NY	Right	Yes	1.12153830006719	0	577718	251
1129.392578125	2	health	foodImageDisplay	3	137	17	foodImage.108	FOODEEG_Images\0916.jpg	NY	Right	Yes	1.12153830006719	0	578250	252
1131.455078125	1.12153830006719	health	choicePhaseStart	3	137	17	foodImage.108	FOODEEG_Images\0916.jpg	NY	Right	Yes	1.12153830006719	0	579306	253
1132.568359375	0	health	response	3	137	17	foodImage.108	FOODEEG_Images\0916.jpg	NY	Right	Yes	1.12153830006719	0	579876	235
1133.61328125	1	decision	trialStart	3	138	18	foodImage.39	FOODEEG_Images\0367.jpg	NY	Right	Yes	0.687739800196141	0	580411	251
1134.65234375	2	decision	foodImageDisplay	3	138	18	foodImage.39	FOODEEG_Images\0367.jpg	NY	Right	Yes	0.687739800196141	0	580943	252
1136.712890625	0.687739800196141	decision	choicePhaseStart	3	138	18	foodImage.39	FOODEEG_Images\0367.jpg	NY	Right	Yes	0.687739800196141	0	581998	253
1137.392578125	0	decision	response	3	138	18	foodImage.39	FOODEEG_Images\0367.jpg	NY	Right	Yes	0.687739800196141	0	582346	235
1138.4375	1	decision	trialStart	3	139	19	foodImage.56	FOODEEG_Images\0586.jpg	NY	Right	Yes	1.08100369991735	0	582881	251
1139.482421875	2	decision	foodImageDisplay	3	139	19	foodImage.56	FOODEEG_Images\0586.jpg	NY	Right	Yes	1.08100369991735	0	583416	252
1141.544921875	1.08100369991735	decision	choicePhaseStart	3	139	19	foodImage.56	FOODEEG_Images\0586.jpg	NY	Right	Yes	1.08100369991735	0	584472	253
1142.615234375	0	decision	response	3	139	19	foodImage.56	FOODEEG_Images\0586.jpg	NY	Right	Yes	1.08100369991735	0	585020	235
1143.658203125	1	health	trialStart	3	140	20	foodImage.82	FOODEEG_Images\0805.jpg	NY	Right	Yes	1.44984069978818	0	585554	251
1144.712890625	2	health	foodImageDisplay	3	140	20	foodImage.82	FOODEEG_Images\0805.jpg	NY	Right	Yes	1.44984069978818	0	586094	252
1146.775390625	1.44984069978818	health	choicePhaseStart	3	140	20	foodImage.82	FOODEEG_Images\0805.jpg	NY	Right	Yes	1.44984069978818	0	587150	253
1148.21484375	0	health	response	3	140	20	foodImage.82	FOODEEG_Images\0805.jpg	NY	Right	Yes	1.44984069978818	0	587887	235
1149.255859375	1	decision	trialStart	3	141	21	foodImage.16	FOODEEG_Images\0196.jpg	YN	Left	Yes	1.54953260021284	0	588420	251
1150.31640625	2	decision	foodImageDisplay	3	141	21	foodImage.16	FOODEEG_Images\0196.jpg	YN	Left	Yes	1.54953260021284	0	588963	252
1152.37890625	1.54953260021284	decision	choicePhaseStart	3	141	21	foodImage.16	FOODEEG_Images\0196.jpg	YN	Left	Yes	1.54953260021284	0	590019	253
1153.919921875	0	decision	response	3	141	21	foodImage.16	FOODEEG_Images\0196.jpg	YN	Left	Yes	1.54953260021284	0	590808	234
1154.958984375	1	decision	trialStart	3	142	22	foodImage.42	FOODEEG_Images\0438.jpg	NY	Right	Yes	1.19518180005252	0	591340	251
1156.0625	2	decision	foodImageDisplay	3	142	22	foodImage.42	FOODEEG_Images\0438.jpg	NY	Right	Yes	1.19518180005252	0	591905	252
1158.125	1.19518180005252	decision	choicePhaseStart	3	142	22	foodImage.42	FOODEEG_Images\0438.jpg	NY	Right	Yes	1.19518180005252	0	592961	253
1159.310546875	0	decision	response	3	142	22	foodImage.42	FOODEEG_Images\0438.jpg	NY	Right	Yes	1.19518180005252	0	593568	235
1160.35546875	1	taste	trialStart	3	143	23	foodImage.7	FOODEEG_Images\0116.jpg	NY	Right	Yes	0.867695600260049	0	594103	251
1161.396484375	2	taste	foodImageDisplay	3	143	23	foodImage.7	FOODEEG_Images\0116.jpg	NY	Right	Yes	0.867695600260049	0	594636	252
1163.4609375	0.867695600260049	taste	choicePhaseStart	3	143	23	foodImage.7	FOODEEG_Images\0116.jpg	NY	Right	Yes	0.867695600260049	0	595693	253
1164.318359375	0	taste	response	3	143	23	foodImage.7	FOODEEG_Images\0116.jpg	NY	Right	Yes	0.867695600260049	0	596132	235
1165.36328125	1	health	trialStart	3	144	24	foodImage.67	FOODEEG_Images\0679.jpg	NY	Right	Yes	1.17830620007589	0	596667	251
1166.421875	2	health	foodImageDisplay	3	144	24	foodImage.67	FOODEEG_Images\0679.jpg	NY	Right	Yes	1.17830620007589	0	597209	252
1168.484375	1.17830620007589	health	choicePhaseStart	3	144	24	foodImage.67	FOODEEG_Images\0679.jpg	NY	Right	Yes	1.17830620007589	0	598265	253
1169.654296875	0	health	response	3	144	24	foodImage.67	FOODEEG_Images\0679.jpg	NY	Right	Yes	1.17830620007589	0	598864	235
1170.697265625	1	decision	trialStart	3	145	25	foodImage.9	FOODEEG_Images\0138.jpg	NY	Right	Yes	1.47832860006019	0	599398	251
1171.755859375	2	decision	foodImageDisplay	3	145	25	foodImage.9	FOODEEG_Images\0138.jpg	NY	Right	Yes	1.47832860006019	0	599940	252
1173.818359375	1.47832860006019	decision	choicePhaseStart	3	145	25	foodImage.9	FOODEEG_Images\0138.jpg	NY	Right	Yes	1.47832860006019	0	600996	253
1175.287109375	0	decision	response	3	145	25	foodImage.9	FOODEEG_Images\0138.jpg	NY	Right	Yes	1.47832860006019	0	601748	235
1176.330078125	1	decision	trialStart	3	146	26	foodImage.65	FOODEEG_Images\0658.jpg	NY	Right	Yes	1.24506130022928	0	602282	251
1177.37109375	2	decision	foodImageDisplay	3	146	26	foodImage.65	FOODEEG_Images\0658.jpg	NY	Right	Yes	1.24506130022928	0	602815	252
1179.43359375	1.24506130022928	decision	choicePhaseStart	3	146	26	foodImage.65	FOODEEG_Images\0658.jpg	NY	Right	Yes	1.24506130022928	0	603871	253
1180.669921875	0	decision	response	3	146	26	foodImage.65	FOODEEG_Images\0658.jpg	NY	Right	Yes	1.24506130022928	0	604504	235
1181.716796875	1	decision	trialStart	3	147	27	foodImage.120	FOODEEG_Images\0928.jpg	YN	Right	No	0.887046399991959	0	605040	251
1182.755859375	2	decision	foodImageDisplay	3	147	27	foodImage.120	FOODEEG_Images\0928.jpg	YN	Right	No	0.887046399991959	0	605572	252
1184.82421875	0.887046399991959	decision	choicePhaseStart	3	147	27	foodImage.120	FOODEEG_Images\0928.jpg	YN	Right	No	0.887046399991959	0	606631	253
1185.703125	0	decision	response	3	147	27	foodImage.120	FOODEEG_Images\0928.jpg	YN	Right	No	0.887046399991959	0	607081	235
1186.74609375	1	health	trialStart	3	148	28	foodImage.83	FOODEEG_Images\0827.jpg	NY	Right	Yes	0.898811699822545	0	607615	251
1187.8046875	2	health	foodImageDisplay	3	148	28	foodImage.83	FOODEEG_Images\0827.jpg	NY	Right	Yes	0.898811699822545	0	608157	252
1189.869140625	0.898811699822545	health	choicePhaseStart	3	148	28	foodImage.83	FOODEEG_Images\0827.jpg	NY	Right	Yes	0.898811699822545	0	609214	253
1190.7578125	0	health	response	3	148	28	foodImage.83	FOODEEG_Images\0827.jpg	NY	Right	Yes	0.898811699822545	0	609669	235
1191.802734375	1	taste	trialStart	3	149	29	foodImage.71	FOODEEG_Images\0713.jpg	NY	Right	Yes	0.86747909989208	0	610204	251
1192.845703125	2	taste	foodImageDisplay	3	149	29	foodImage.71	FOODEEG_Images\0713.jpg	NY	Right	Yes	0.86747909989208	0	610738	252
1194.908203125	0.86747909989208	taste	choicePhaseStart	3	149	29	foodImage.71	FOODEEG_Images\0713.jpg	NY	Right	Yes	0.86747909989208	0	611794	253
1195.765625	0	taste	response	3	149	29	foodImage.71	FOODEEG_Images\0713.jpg	NY	Right	Yes	0.86747909989208	0	612233	235
1196.80859375	1	health	trialStart	3	150	30	foodImage.24	FOODEEG_Images\0250.jpg	YN	Left	Yes	1.90024980017915	0	612767	251
1197.8671875	2	health	foodImageDisplay	3	150	30	foodImage.24	FOODEEG_Images\0250.jpg	YN	Left	Yes	1.90024980017915	0	613309	252
1199.9296875	1.90024980017915	health	choicePhaseStart	3	150	30	foodImage.24	FOODEEG_Images\0250.jpg	YN	Left	Yes	1.90024980017915	0	614365	253
1201.822265625	0	health	response	3	150	30	foodImage.24	FOODEEG_Images\0250.jpg	YN	Left	Yes	1.90024980017915	0	615334	234
1202.865234375	1	health	trialStart	3	151	31	foodImage.22	FOODEEG_Images\0236.jpg	NY	Right	Yes	0.89573230035603	0	615868	251
1203.90625	2	health	foodImageDisplay	3	151	31	foodImage.22	FOODEEG_Images\0236.jpg	NY	Right	Yes	0.89573230035603	0	616401	252
1205.974609375	0.89573230035603	health	choicePhaseStart	3	151	31	foodImage.22	FOODEEG_Images\0236.jpg	NY	Right	Yes	0.89573230035603	0	617460	253
1206.861328125	0	health	response	3	151	31	foodImage.22	FOODEEG_Images\0236.jpg	NY	Right	Yes	0.89573230035603	0	617914	235
1207.90625	1	decision	trialStart	3	152	32	foodImage.18	FOODEEG_Images\0202.jpg	NY	Right	Yes	0.92326349997893	0	618449	251
1208.96484375	2	decision	foodImageDisplay	3	152	32	foodImage.18	FOODEEG_Images\0202.jpg	NY	Right	Yes	0.92326349997893	0	618991	252
1211.02734375	0.92326349997893	decision	choicePhaseStart	3	152	32	foodImage.18	FOODEEG_Images\0202.jpg	NY	Right	Yes	0.92326349997893	0	620047	253
1211.94140625	0	decision	response	3	152	32	foodImage.18	FOODEEG_Images\0202.jpg	NY	Right	Yes	0.92326349997893	0	620515	235
1212.986328125	1	decision	trialStart	3	153	33	foodImage.29	FOODEEG_Images\0278.jpg	YN	Left	Yes	0.748513499740511	0	621050	251
1214.02734375	2	decision	foodImageDisplay	3	153	33	foodImage.29	FOODEEG_Images\0278.jpg	YN	Left	Yes	0.748513499740511	0	621583	252
1216.087890625	0.748513499740511	decision	choicePhaseStart	3	153	33	foodImage.29	FOODEEG_Images\0278.jpg	YN	Left	Yes	0.748513499740511	0	622638	253
1216.830078125	0	decision	response	3	153	33	foodImage.29	FOODEEG_Images\0278.jpg	YN	Left	Yes	0.748513499740511	0	623018	234
1217.873046875	1	health	trialStart	3	154	34	foodImage.95	FOODEEG_Images\0903.jpg	YN	Right	No	1.39013089984655	0	623552	251
1218.912109375	2	health	foodImageDisplay	3	154	34	foodImage.95	FOODEEG_Images\0903.jpg	YN	Right	No	1.39013089984655	0	624084	252
1220.974609375	1.39013089984655	health	choicePhaseStart	3	154	34	foodImage.95	FOODEEG_Images\0903.jpg	YN	Right	No	1.39013089984655	0	625140	253
1222.357421875	0	health	response	3	154	34	foodImage.95	FOODEEG_Images\0903.jpg	YN	Right	No	1.39013089984655	0	625848	235
1223.3984375	1	decision	trialStart	3	155	35	foodImage.59	FOODEEG_Images\0607.jpg	NY	Right	Yes	0.72337679984048	0	626381	251
1224.443359375	2	decision	foodImageDisplay	3	155	35	foodImage.59	FOODEEG_Images\0607.jpg	NY	Right	Yes	0.72337679984048	0	626916	252
1226.505859375	0.72337679984048	decision	choicePhaseStart	3	155	35	foodImage.59	FOODEEG_Images\0607.jpg	NY	Right	Yes	0.72337679984048	0	627972	253
1227.220703125	0	decision	response	3	155	35	foodImage.59	FOODEEG_Images\0607.jpg	NY	Right	Yes	0.72337679984048	0	628338	235
1228.263671875	1	taste	trialStart	3	156	36	foodImage.45	FOODEEG_Images\0478.jpg	YN	Left	Yes	0.812400800175965	0	628872	251
1229.306640625	2	taste	foodImageDisplay	3	156	36	foodImage.45	FOODEEG_Images\0478.jpg	YN	Left	Yes	0.812400800175965	0	629406	252
1231.369140625	0.812400800175965	taste	choicePhaseStart	3	156	36	foodImage.45	FOODEEG_Images\0478.jpg	YN	Left	Yes	0.812400800175965	0	630462	253
1232.171875	0	taste	response	3	156	36	foodImage.45	FOODEEG_Images\0478.jpg	YN	Left	Yes	0.812400800175965	0	630873	234
1233.21484375	1	health	trialStart	3	157	37	foodImage.5	FOODEEG_Images\0107.jpg	NY	Left	No	1.00105640012771	0	631407	251
1234.27734375	2	health	foodImageDisplay	3	157	37	foodImage.5	FOODEEG_Images\0107.jpg	NY	Left	No	1.00105640012771	0	631951	252
1236.33984375	1.00105640012771	health	choicePhaseStart	3	157	37	foodImage.5	FOODEEG_Images\0107.jpg	NY	Left	No	1.00105640012771	0	633007	253
1237.33203125	0	health	response	3	157	37	foodImage.5	FOODEEG_Images\0107.jpg	NY	Left	No	1.00105640012771	0	633515	234
1238.375	1	taste	trialStart	3	158	38	foodImage.22	FOODEEG_Images\0236.jpg	NY	Right	Yes	1.13875290006399	0	634049	251
1239.4140625	2	taste	foodImageDisplay	3	158	38	foodImage.22	FOODEEG_Images\0236.jpg	NY	Right	Yes	1.13875290006399	0	634581	252
1241.474609375	1.13875290006399	taste	choicePhaseStart	3	158	38	foodImage.22	FOODEEG_Images\0236.jpg	NY	Right	Yes	1.13875290006399	0	635636	253
1242.603515625	0	taste	response	3	158	38	foodImage.22	FOODEEG_Images\0236.jpg	NY	Right	Yes	1.13875290006399	0	636214	235
1243.646484375	1	taste	trialStart	3	159	39	foodImage.23	FOODEEG_Images\0244.jpg	YN	Left	Yes	0.815830199979246	0	636748	251
1244.685546875	2	taste	foodImageDisplay	3	159	39	foodImage.23	FOODEEG_Images\0244.jpg	YN	Left	Yes	0.815830199979246	0	637280	252
1246.748046875	0.815830199979246	taste	choicePhaseStart	3	159	39	foodImage.23	FOODEEG_Images\0244.jpg	YN	Left	Yes	0.815830199979246	0	638336	253
1247.556640625	0	taste	response	3	159	39	foodImage.23	FOODEEG_Images\0244.jpg	YN	Left	Yes	0.815830199979246	0	638750	234
1248.595703125	1	taste	trialStart	3	160	40	foodImage.102	FOODEEG_Images\0910.jpg	NY	Left	No	1.76387330004945	0	639282	251
1249.634765625	2	taste	foodImageDisplay	3	160	40	foodImage.102	FOODEEG_Images\0910.jpg	NY	Left	No	1.76387330004945	0	639814	252
1251.6953125	1.76387330004945	taste	choicePhaseStart	3	160	40	foodImage.102	FOODEEG_Images\0910.jpg	NY	Left	No	1.76387330004945	0	640869	253
1253.451171875	0	taste	response	3	160	40	foodImage.102	FOODEEG_Images\0910.jpg	NY	Left	No	1.76387330004945	0	641768	234
1254.49609375	1	decision	trialStart	3	161	41	foodImage.14	FOODEEG_Images\0188.jpg	YN	Left	Yes	0.835341100115329	0	642303	251
1255.5546875	2	decision	foodImageDisplay	3	161	41	foodImage.14	FOODEEG_Images\0188.jpg	YN	Left	Yes	0.835341100115329	0	642845	252
1257.6171875	0.835341100115329	decision	choicePhaseStart	3	161	41	foodImage.14	FOODEEG_Images\0188.jpg	YN	Left	Yes	0.835341100115329	0	643901	253
1258.443359375	0	decision	response	3	161	41	foodImage.14	FOODEEG_Images\0188.jpg	YN	Left	Yes	0.835341100115329	0	644324	234
1259.486328125	1	taste	trialStart	3	162	42	foodImage.50	FOODEEG_Images\0529.jpg	YN	Left	Yes	0.94344269996509	0	644858	251
1260.55859375	2	taste	foodImageDisplay	3	162	42	foodImage.50	FOODEEG_Images\0529.jpg	YN	Left	Yes	0.94344269996509	0	645407	252
1262.62109375	0.94344269996509	taste	choicePhaseStart	3	162	42	foodImage.50	FOODEEG_Images\0529.jpg	YN	Left	Yes	0.94344269996509	0	646463	253
1263.5546875	0	taste	response	3	162	42	foodImage.50	FOODEEG_Images\0529.jpg	YN	Left	Yes	0.94344269996509	0	646941	234
1264.59765625	1	decision	trialStart	3	163	43	foodImage.53	FOODEEG_Images\0547.jpg	NY	Right	Yes	1.12291319994256	0	647475	251
1265.65234375	2	decision	foodImageDisplay	3	163	43	foodImage.53	FOODEEG_Images\0547.jpg	NY	Right	Yes	1.12291319994256	0	648015	252
1267.71484375	1.12291319994256	decision	choicePhaseStart	3	163	43	foodImage.53	FOODEEG_Images\0547.jpg	NY	Right	Yes	1.12291319994256	0	649071	253
1268.828125	0	decision	response	3	163	43	foodImage.53	FOODEEG_Images\0547.jpg	NY	Right	Yes	1.12291319994256	0	649641	235
1269.869140625	1	taste	trialStart	3	164	44	foodImage.55	FOODEEG_Images\0567.jpg	NY	Right	Yes	0.904309300240129	0	650174	251
1270.92578125	2	taste	foodImageDisplay	3	164	44	foodImage.55	FOODEEG_Images\0567.jpg	NY	Right	Yes	0.904309300240129	0	650715	252
1272.98828125	0.904309300240129	taste	choicePhaseStart	3	164	44	foodImage.55	FOODEEG_Images\0567.jpg	NY	Right	Yes	0.904309300240129	0	651771	253
1273.8828125	0	taste	response	3	164	44	foodImage.55	FOODEEG_Images\0567.jpg	NY	Right	Yes	0.904309300240129	0	652229	235
1274.92578125	1	taste	trialStart	3	165	45	foodImage.110	FOODEEG_Images\0918.jpg	YN	Left	Yes	0.976132499985397	0	652763	251
1275.96484375	2	taste	foodImageDisplay	3	165	45	foodImage.110	FOODEEG_Images\0918.jpg	YN	Left	Yes	0.976132499985397	0	653295	252
1278.02734375	0.976132499985397	taste	choicePhaseStart	3	165	45	foodImage.110	FOODEEG_Images\0918.jpg	YN	Left	Yes	0.976132499985397	0	654351	253
1278.994140625	0	taste	response	3	165	45	foodImage.110	FOODEEG_Images\0918.jpg	YN	Left	Yes	0.976132499985397	0	654846	234
1280.037109375	1	decision	trialStart	3	166	46	foodImage.48	FOODEEG_Images\0494.jpg	YN	Left	Yes	1.02080069994554	0	655380	251
1281.080078125	2	decision	foodImageDisplay	3	166	46	foodImage.48	FOODEEG_Images\0494.jpg	YN	Left	Yes	1.02080069994554	0	655914	252
1283.142578125	1.02080069994554	decision	choicePhaseStart	3	166	46	foodImage.48	FOODEEG_Images\0494.jpg	YN	Left	Yes	1.02080069994554	0	656970	253
1284.154296875	0	decision	response	3	166	46	foodImage.48	FOODEEG_Images\0494.jpg	YN	Left	Yes	1.02080069994554	0	657488	234
1285.197265625	1	health	trialStart	3	167	47	foodImage.110	FOODEEG_Images\0918.jpg	YN	Left	Yes	1.58975769998506	0	658022	251
1286.23828125	2	health	foodImageDisplay	3	167	47	foodImage.110	FOODEEG_Images\0918.jpg	YN	Left	Yes	1.58975769998506	0	658555	252
1288.30078125	1.58975769998506	health	choicePhaseStart	3	167	47	foodImage.110	FOODEEG_Images\0918.jpg	YN	Left	Yes	1.58975769998506	0	659611	253
1289.8828125	0	health	response	3	167	47	foodImage.110	FOODEEG_Images\0918.jpg	YN	Left	Yes	1.58975769998506	0	660421	234
1290.923828125	1	taste	trialStart	3	168	48	foodImage.17	FOODEEG_Images\0199.jpg	NY	Right	Yes	1.08610640000552	0	660954	251
1291.966796875	2	taste	foodImageDisplay	3	168	48	foodImage.17	FOODEEG_Images\0199.jpg	NY	Right	Yes	1.08610640000552	0	661488	252
1294.029296875	1.08610640000552	taste	choicePhaseStart	3	168	48	foodImage.17	FOODEEG_Images\0199.jpg	NY	Right	Yes	1.08610640000552	0	662544	253
1295.10546875	0	taste	response	3	168	48	foodImage.17	FOODEEG_Images\0199.jpg	NY	Right	Yes	1.08610640000552	0	663095	235
1296.150390625	1	taste	trialStart	3	169	49	foodImage.78	FOODEEG_Images\0787.jpg	YN	Left	Yes	1.21675920020789	0	663630	251
1297.1953125	2	taste	foodImageDisplay	3	169	49	foodImage.78	FOODEEG_Images\0787.jpg	YN	Left	Yes	1.21675920020789	0	664165	252
1299.2578125	1.21675920020789	taste	choicePhaseStart	3	169	49	foodImage.78	FOODEEG_Images\0787.jpg	YN	Left	Yes	1.21675920020789	0	665221	253
1300.46484375	0	taste	response	3	169	49	foodImage.78	FOODEEG_Images\0787.jpg	YN	Left	Yes	1.21675920020789	0	665839	234
1301.509765625	1	health	trialStart	3	170	50	foodImage.57	FOODEEG_Images\0587.jpg	YN	Left	Yes	0.630567300133407	0	666374	251
1302.552734375	2	health	foodImageDisplay	3	170	50	foodImage.57	FOODEEG_Images\0587.jpg	YN	Left	Yes	0.630567300133407	0	666908	252
1304.619140625	0.630567300133407	health	choicePhaseStart	3	170	50	foodImage.57	FOODEEG_Images\0587.jpg	YN	Left	Yes	0.630567300133407	0	667966	253
1305.2421875	0	health	response	3	170	50	foodImage.57	FOODEEG_Images\0587.jpg	YN	Left	Yes	0.630567300133407	0	668285	234
1306.28515625	1	health	trialStart	3	171	51	foodImage.111	FOODEEG_Images\0919.jpg	YN	Left	Yes	1.21750249993056	0	668819	251
1307.322265625	2	health	foodImageDisplay	3	171	51	foodImage.111	FOODEEG_Images\0919.jpg	YN	Left	Yes	1.21750249993056	0	669350	252
1309.384765625	1.21750249993056	health	choicePhaseStart	3	171	51	foodImage.111	FOODEEG_Images\0919.jpg	YN	Left	Yes	1.21750249993056	0	670406	253
1310.59375	0	health	response	3	171	51	foodImage.111	FOODEEG_Images\0919.jpg	YN	Left	Yes	1.21750249993056	0	671025	234
1311.642578125	1	decision	trialStart	3	172	52	foodImage.35	FOODEEG_Images\0350.jpg	YN	Left	Yes	0.753662699833512	0	671562	251
1312.681640625	2	decision	foodImageDisplay	3	172	52	foodImage.35	FOODEEG_Images\0350.jpg	YN	Left	Yes	0.753662699833512	0	672094	252
1314.744140625	0.753662699833512	decision	choicePhaseStart	3	172	52	foodImage.35	FOODEEG_Images\0350.jpg	YN	Left	Yes	0.753662699833512	0	673150	253
1315.490234375	0	decision	response	3	172	52	foodImage.35	FOODEEG_Images\0350.jpg	YN	Left	Yes	0.753662699833512	0	673532	234
1316.53515625	1	health	trialStart	3	173	53	foodImage.11	FOODEEG_Images\0180.jpg	NY	Right	Yes	1.27529400028288	0	674067	251
1317.576171875	2	health	foodImageDisplay	3	173	53	foodImage.11	FOODEEG_Images\0180.jpg	NY	Right	Yes	1.27529400028288	0	674600	252
1319.638671875	1.27529400028288	health	choicePhaseStart	3	173	53	foodImage.11	FOODEEG_Images\0180.jpg	NY	Right	Yes	1.27529400028288	0	675656	253
1320.904296875	0	health	response	3	173	53	foodImage.11	FOODEEG_Images\0180.jpg	NY	Right	Yes	1.27529400028288	0	676304	235
1321.947265625	1	taste	trialStart	3	174	54	foodImage.94	FOODEEG_Images\0902.jpg	NY	Right	Yes	0.948179600294679	0	676838	251
1322.984375	2	taste	foodImageDisplay	3	174	54	foodImage.94	FOODEEG_Images\0902.jpg	NY	Right	Yes	0.948179600294679	0	677369	252
1325.046875	0.948179600294679	taste	choicePhaseStart	3	174	54	foodImage.94	FOODEEG_Images\0902.jpg	NY	Right	Yes	0.948179600294679	0	678425	253
1325.984375	0	taste	response	3	174	54	foodImage.94	FOODEEG_Images\0902.jpg	NY	Right	Yes	0.948179600294679	0	678905	235
1327.025390625	1	health	trialStart	3	175	55	foodImage.54	FOODEEG_Images\0560.jpg	NY	Right	Yes	1.49052929971367	0	679438	251
1328.080078125	2	health	foodImageDisplay	3	175	55	foodImage.54	FOODEEG_Images\0560.jpg	NY	Right	Yes	1.49052929971367	0	679978	252
1330.140625	1.49052929971367	health	choicePhaseStart	3	175	55	foodImage.54	FOODEEG_Images\0560.jpg	NY	Right	Yes	1.49052929971367	0	681033	253
1331.625	0	health	response	3	175	55	foodImage.54	FOODEEG_Images\0560.jpg	NY	Right	Yes	1.49052929971367	0	681793	235
1332.66796875	1	taste	trialStart	3	176	56	foodImage.91	FOODEEG_Images\0896.jpg	YN	Left	Yes	0.881982599850744	0	682327	251
1333.728515625	2	taste	foodImageDisplay	3	176	56	foodImage.91	FOODEEG_Images\0896.jpg	YN	Left	Yes	0.881982599850744	0	682870	252
1335.791015625	0.881982599850744	taste	choicePhaseStart	3	176	56	foodImage.91	FOODEEG_Images\0896.jpg	YN	Left	Yes	0.881982599850744	0	683926	253
1336.6640625	0	taste	response	3	176	56	foodImage.91	FOODEEG_Images\0896.jpg	YN	Left	Yes	0.881982599850744	0	684373	234
1337.708984375	1	taste	trialStart	3	177	57	foodImage.85	FOODEEG_Images\0841.jpg	NY	Right	Yes	0.765458200126886	0	684908	251
1338.765625	2	taste	foodImageDisplay	3	177	57	foodImage.85	FOODEEG_Images\0841.jpg	NY	Right	Yes	0.765458200126886	0	685449	252
1340.828125	0.765458200126886	taste	choicePhaseStart	3	177	57	foodImage.85	FOODEEG_Images\0841.jpg	NY	Right	Yes	0.765458200126886	0	686505	253
1341.583984375	0	taste	response	3	177	57	foodImage.85	FOODEEG_Images\0841.jpg	NY	Right	Yes	0.765458200126886	0	686892	235
1342.626953125	1	health	trialStart	3	178	58	foodImage.3	FOODEEG_Images\0046.jpg	NY	Right	Yes	0.947346200235188	0	687426	251
1343.669921875	2	health	foodImageDisplay	3	178	58	foodImage.3	FOODEEG_Images\0046.jpg	NY	Right	Yes	0.947346200235188	0	687960	252
1345.732421875	0.947346200235188	health	choicePhaseStart	3	178	58	foodImage.3	FOODEEG_Images\0046.jpg	NY	Right	Yes	0.947346200235188	0	689016	253
1346.671875	0	health	response	3	178	58	foodImage.3	FOODEEG_Images\0046.jpg	NY	Right	Yes	0.947346200235188	0	689497	235
1347.716796875	1	decision	trialStart	3	179	59	foodImage.67	FOODEEG_Images\0679.jpg	YN	Left	Yes	0.94733460014686	0	690032	251
1348.775390625	2	decision	foodImageDisplay	3	179	59	foodImage.67	FOODEEG_Images\0679.jpg	YN	Left	Yes	0.94733460014686	0	690574	252
1350.8359375	0.94733460014686	decision	choicePhaseStart	3	179	59	foodImage.67	FOODEEG_Images\0679.jpg	YN	Left	Yes	0.94733460014686	0	691629	253
1351.775390625	0	decision	response	3	179	59	foodImage.67	FOODEEG_Images\0679.jpg	YN	Left	Yes	0.94733460014686	0	692110	234
1352.818359375	1	taste	trialStart	3	180	60	foodImage.38	FOODEEG_Images\0365.jpg	YN	Left	Yes	1.14156629983336	0	692644	251
1353.869140625	2	taste	foodImageDisplay	3	180	60	foodImage.38	FOODEEG_Images\0365.jpg	YN	Left	Yes	1.14156629983336	0	693182	252
1355.931640625	1.14156629983336	taste	choicePhaseStart	3	180	60	foodImage.38	FOODEEG_Images\0365.jpg	YN	Left	Yes	1.14156629983336	0	694238	253
1357.064453125	0	taste	response	3	180	60	foodImage.38	FOODEEG_Images\0365.jpg	YN	Left	Yes	1.14156629983336	0	694818	234
1359.109375	15.158203125	n/a	blockEnd	n/a	n/a	n/a	n/a	n/a	n/a	n/a	n/a	n/a	n/a	695865	254
1374.267578125	2	n/a	blockStart	4	n/a	n/a	n/a	n/a	n/a	n/a	n/a	n/a	n/a	703626	250
1376.296875	1	decision	trialStart	4	181	1	foodImage.101	FOODEEG_Images\0909.jpg	YN	Right	No	1.02327449992299	0	704665	251
1377.3359375	2	decision	foodImageDisplay	4	181	1	foodImage.101	FOODEEG_Images\0909.jpg	YN	Right	No	1.02327449992299	0	705197	252
1379.3984375	1.02327449992299	decision	choicePhaseStart	4	181	1	foodImage.101	FOODEEG_Images\0909.jpg	YN	Right	No	1.02327449992299	0	706253	253
1380.4140625	0	decision	response	4	181	1	foodImage.101	FOODEEG_Images\0909.jpg	YN	Right	No	1.02327449992299	0	706773	235
1381.455078125	1	taste	trialStart	4	182	2	foodImage.82	FOODEEG_Images\0805.jpg	NY	Right	Yes	0.7781893000938	0	707306	251
1382.509765625	2	taste	foodImageDisplay	4	182	2	foodImage.82	FOODEEG_Images\0805.jpg	NY	Right	Yes	0.7781893000938	0	707846	252
1384.572265625	0.7781893000938	taste	choicePhaseStart	4	182	2	foodImage.82	FOODEEG_Images\0805.jpg	NY	Right	Yes	0.7781893000938	0	708902	253
1385.341796875	0	taste	response	4	182	2	foodImage.82	FOODEEG_Images\0805.jpg	NY	Right	Yes	0.7781893000938	0	709296	235
1386.384765625	1	health	trialStart	4	183	3	foodImage.84	FOODEEG_Images\0830.jpg	NY	Right	Yes	1.36307680001482	0	709830	251
1387.439453125	2	health	foodImageDisplay	4	183	3	foodImage.84	FOODEEG_Images\0830.jpg	NY	Right	Yes	1.36307680001482	0	710370	252
1389.501953125	1.36307680001482	health	choicePhaseStart	4	183	3	foodImage.84	FOODEEG_Images\0830.jpg	NY	Right	Yes	1.36307680001482	0	711426	253
1390.85546875	0	health	response	4	183	3	foodImage.84	FOODEEG_Images\0830.jpg	NY	Right	Yes	1.36307680001482	0	712119	235
1391.896484375	1	decision	trialStart	4	184	4	foodImage.37	FOODEEG_Images\0359.jpg	YN	Right	No	0.887941500172019	0	712652	251
1392.9375	2	decision	foodImageDisplay	4	184	4	foodImage.37	FOODEEG_Images\0359.jpg	YN	Right	No	0.887941500172019	0	713185	252
1395	0.887941500172019	decision	choicePhaseStart	4	184	4	foodImage.37	FOODEEG_Images\0359.jpg	YN	Right	No	0.887941500172019	0	714241	253
1395.87890625	0	decision	response	4	184	4	foodImage.37	FOODEEG_Images\0359.jpg	YN	Right	No	0.887941500172019	0	714691	235
1396.921875	1	taste	trialStart	4	185	5	foodImage.87	FOODEEG_Images\0873.jpg	YN	Left	Yes	1.15570409968495	0	715225	251
1397.98046875	2	taste	foodImageDisplay	4	185	5	foodImage.87	FOODEEG_Images\0873.jpg	YN	Left	Yes	1.15570409968495	0	715767	252
1400.04296875	1.15570409968495	taste	choicePhaseStart	4	185	5	foodImage.87	FOODEEG_Images\0873.jpg	YN	Left	Yes	1.15570409968495	0	716823	253
1401.189453125	0	taste	response	4	185	5	foodImage.87	FOODEEG_Images\0873.jpg	YN	Left	Yes	1.15570409968495	0	717410	234
1402.23046875	1	taste	trialStart	4	186	6	foodImage.14	FOODEEG_Images\0188.jpg	YN	Left	Yes	1.21842580009252	0	717943	251
1403.287109375	2	taste	foodImageDisplay	4	186	6	foodImage.14	FOODEEG_Images\0188.jpg	YN	Left	Yes	1.21842580009252	0	718484	252
1405.349609375	1.21842580009252	taste	choicePhaseStart	4	186	6	foodImage.14	FOODEEG_Images\0188.jpg	YN	Left	Yes	1.21842580009252	0	719540	253
1406.55859375	0	taste	response	4	186	6	foodImage.14	FOODEEG_Images\0188.jpg	YN	Left	Yes	1.21842580009252	0	720159	234
1407.59765625	1	decision	trialStart	4	187	7	foodImage.54	FOODEEG_Images\0560.jpg	NY	Right	Yes	0.896220600232482	0	720691	251
1408.654296875	2	decision	foodImageDisplay	4	187	7	foodImage.54	FOODEEG_Images\0560.jpg	NY	Right	Yes	0.896220600232482	0	721232	252
1410.71875	0.896220600232482	decision	choicePhaseStart	4	187	7	foodImage.54	FOODEEG_Images\0560.jpg	NY	Right	Yes	0.896220600232482	0	722289	253
1411.60546875	0	decision	response	4	187	7	foodImage.54	FOODEEG_Images\0560.jpg	NY	Right	Yes	0.896220600232482	0	722743	235
1412.646484375	1	decision	trialStart	4	188	8	foodImage.77	FOODEEG_Images\0771.jpg	YN	Left	Yes	0.734084999654442	0	723276	251
1413.689453125	2	decision	foodImageDisplay	4	188	8	foodImage.77	FOODEEG_Images\0771.jpg	YN	Left	Yes	0.734084999654442	0	723810	252
1415.751953125	0.734084999654442	decision	choicePhaseStart	4	188	8	foodImage.77	FOODEEG_Images\0771.jpg	YN	Left	Yes	0.734084999654442	0	724866	253
1416.478515625	0	decision	response	4	188	8	foodImage.77	FOODEEG_Images\0771.jpg	YN	Left	Yes	0.734084999654442	0	725238	234
1417.521484375	1	health	trialStart	4	189	9	foodImage.73	FOODEEG_Images\0717.jpg	NY	Right	Yes	1.19061440043151	0	725772	251
1418.578125	2	health	foodImageDisplay	4	189	9	foodImage.73	FOODEEG_Images\0717.jpg	NY	Right	Yes	1.19061440043151	0	726313	252
1420.638671875	1.19061440043151	health	choicePhaseStart	4	189	9	foodImage.73	FOODEEG_Images\0717.jpg	NY	Right	Yes	1.19061440043151	0	727368	253
1421.822265625	0	health	response	4	189	9	foodImage.73	FOODEEG_Images\0717.jpg	NY	Right	Yes	1.19061440043151	0	727974	235
1422.865234375	1	health	trialStart	4	190	10	foodImage.107	FOODEEG_Images\0915.jpg	NY	Left	No	1.13568740012124	0	728508	251
1423.90234375	2	health	foodImageDisplay	4	190	10	foodImage.107	FOODEEG_Images\0915.jpg	NY	Left	No	1.13568740012124	0	729039	252
1425.96484375	1.13568740012124	health	choicePhaseStart	4	190	10	foodImage.107	FOODEEG_Images\0915.jpg	NY	Left	No	1.13568740012124	0	730095	253
1427.09375	0	health	response	4	190	10	foodImage.107	FOODEEG_Images\0915.jpg	NY	Left	No	1.13568740012124	0	730673	234
1428.13671875	1	health	trialStart	4	191	11	foodImage.89	FOODEEG_Images\0881.jpg	YN	Left	Yes	1.41275070002303	0	731207	251
1429.193359375	2	health	foodImageDisplay	4	191	11	foodImage.89	FOODEEG_Images\0881.jpg	YN	Left	Yes	1.41275070002303	0	731748	252
1431.255859375	1.41275070002303	health	choicePhaseStart	4	191	11	foodImage.89	FOODEEG_Images\0881.jpg	YN	Left	Yes	1.41275070002303	0	732804	253
1432.66015625	0	health	response	4	191	11	foodImage.89	FOODEEG_Images\0881.jpg	YN	Left	Yes	1.41275070002303	0	733523	234
1433.701171875	1	taste	trialStart	4	192	12	foodImage.42	FOODEEG_Images\0438.jpg	YN	Right	No	0.71813330007717	0	734056	251
1434.78515625	2	taste	foodImageDisplay	4	192	12	foodImage.42	FOODEEG_Images\0438.jpg	YN	Right	No	0.71813330007717	0	734611	252
1436.84765625	0.71813330007717	taste	choicePhaseStart	4	192	12	foodImage.42	FOODEEG_Images\0438.jpg	YN	Right	No	0.71813330007717	0	735667	253
1437.556640625	0	taste	response	4	192	12	foodImage.42	FOODEEG_Images\0438.jpg	YN	Right	No	0.71813330007717	0	736030	235
1438.599609375	1	decision	trialStart	4	193	13	foodImage.27	FOODEEG_Images\0263.jpg	YN	Left	Yes	1.19369189999998	0	736564	251
1439.646484375	2	decision	foodImageDisplay	4	193	13	foodImage.27	FOODEEG_Images\0263.jpg	YN	Left	Yes	1.19369189999998	0	737100	252
1441.708984375	1.19369189999998	decision	choicePhaseStart	4	193	13	foodImage.27	FOODEEG_Images\0263.jpg	YN	Left	Yes	1.19369189999998	0	738156	253
1442.892578125	0	decision	response	4	193	13	foodImage.27	FOODEEG_Images\0263.jpg	YN	Left	Yes	1.19369189999998	0	738762	234
1443.935546875	1	decision	trialStart	4	194	14	foodImage.11	FOODEEG_Images\0180.jpg	YN	Left	Yes	1.4726907000877	0	739296	251
1444.974609375	2	decision	foodImageDisplay	4	194	14	foodImage.11	FOODEEG_Images\0180.jpg	YN	Left	Yes	1.4726907000877	0	739828	252
