onset	duration	trial_type	event_type	block	trial_total	trial_in_block	food_image_code	food_image_path	button_position	resp_position	resp_choice	choice_rt	resp_too_slow	sample	trigger
282.09375	2	n/a	blockStart	1	n/a	n/a	n/a	n/a	n/a	n/a	n/a	n/a	n/a	144433	250
284.12890625	1	health	trialStart	1	1	1	foodImage.69	FOODEEG_Images\0693.jpg	NY	Right	Yes	1.38294939999469	0	145475	251
285.17578125	2	health	foodImageDisplay	1	1	1	foodImage.69	FOODEEG_Images\0693.jpg	NY	Right	Yes	1.38294939999469	0	146011	252
287.240234375	1.38294939999469	health	choicePhaseStart	1	1	1	foodImage.69	FOODEEG_Images\0693.jpg	NY	Right	Yes	1.38294939999469	0	147068	253
288.615234375	0	health	response	1	1	1	foodImage.69	FOODEEG_Images\0693.jpg	NY	Right	Yes	1.38294939999469	0	147772	235
289.703125	1	health	trialStart	1	2	2	foodImage.72	FOODEEG_Images\0714.jpg	YN	Left	Yes	1.1820326000452	0	148329	251
290.74609375	2	health	foodImageDisplay	1	2	2	foodImage.72	FOODEEG_Images\0714.jpg	YN	Left	Yes	1.1820326000452	0	148863	252
292.810546875	1.1820326000452	health	choicePhaseStart	1	2	2	foodImage.72	FOODEEG_Images\0714.jpg	YN	Left	Yes	1.1820326000452	0	149920	253
293.982421875	0	health	response	1	2	2	foodImage.72	FOODEEG_Images\0714.jpg	YN	Left	Yes	1.1820326000452	0	150520	234
295.0390625	1	taste	trialStart	1	3	3	foodImage.28	FOODEEG_Images\0273.jpg	NY	Right	Yes	1.23010980011895	0	151061	251
296.080078125	2	taste	foodImageDisplay	1	3	3	foodImage.28	FOODEEG_Images\0273.jpg	NY	Right	Yes	1.23010980011895	0	151594	252
298.146484375	1.23010980011895	taste	choicePhaseStart	1	3	3	foodImage.28	FOODEEG_Images\0273.jpg	NY	Right	Yes	1.23010980011895	0	152652	253
299.3671875	0	taste	response	1	3	3	foodImage.28	FOODEEG_Images\0273.jpg	NY	Right	Yes	1.23010980011895	0	153277	235
300.408203125	1	taste	trialStart	1	4	4	foodImage.103	FOODEEG_Images\0911.jpg	NY	Left	No	0.994089300045744	0	153810	251
301.447265625	2	taste	foodImageDisplay	1	4	4	foodImage.103	FOODEEG_Images\0911.jpg	NY	Left	No	0.994089300045744	0	154342	252
303.509765625	0.994089300045744	taste	choicePhaseStart	1	4	4	foodImage.103	FOODEEG_Images\0911.jpg	NY	Left	No	0.994089300045744	0	155398	253
304.494140625	0	taste	response	1	4	4	foodImage.103	FOODEEG_Images\0911.jpg	NY	Left	No	0.994089300045744	0	155902	234
305.541015625	1	taste	trialStart	1	5	5	foodImage.50	FOODEEG_Images\0529.jpg	NY	Right	Yes	1.80585730005987	0	156438	251
306.6015625	2	taste	foodImageDisplay	1	5	5	foodImage.50	FOODEEG_Images\0529.jpg	NY	Right	Yes	1.80585730005987	0	156981	252
308.666015625	1.80585730005987	taste	choicePhaseStart	1	5	5	foodImage.50	FOODEEG_Images\0529.jpg	NY	Right	Yes	1.80585730005987	0	158038	253
310.462890625	0	taste	response	1	5	5	foodImage.50	FOODEEG_Images\0529.jpg	NY	Right	Yes	1.80585730005987	0	158958	235
311.537109375	1	health	trialStart	1	6	6	foodImage.91	FOODEEG_Images\0896.jpg	YN	Left	Yes	1.96525999996811	0	159508	251
312.59375	2	health	foodImageDisplay	1	6	6	foodImage.91	FOODEEG_Images\0896.jpg	YN	Left	Yes	1.96525999996811	0	160049	252
314.658203125	1.96525999996811	health	choicePhaseStart	1	6	6	foodImage.91	FOODEEG_Images\0896.jpg	YN	Left	Yes	1.96525999996811	0	161106	253
316.61328125	0	health	response	1	6	6	foodImage.91	FOODEEG_Images\0896.jpg	YN	Left	Yes	1.96525999996811	0	162107	234
317.66015625	1	taste	trialStart	1	7	7	foodImage.8	FOODEEG_Images\0136.jpg	YN	Right	No	1.4988681001123	0	162643	251
318.701171875	2	taste	foodImageDisplay	1	7	7	foodImage.8	FOODEEG_Images\0136.jpg	YN	Right	No	1.4988681001123	0	163176	252
320.763671875	1.4988681001123	taste	choicePhaseStart	1	7	7	foodImage.8	FOODEEG_Images\0136.jpg	YN	Right	No	1.4988681001123	0	164232	253
322.25390625	0	taste	response	1	7	7	foodImage.8	FOODEEG_Images\0136.jpg	YN	Right	No	1.4988681001123	0	164995	235
323.294921875	1	taste	trialStart	1	8	8	foodImage.85	FOODEEG_Images\0841.jpg	YN	Left	Yes	0.812827200163156	0	165528	251
324.3515625	2	taste	foodImageDisplay	1	8	8	foodImage.85	FOODEEG_Images\0841.jpg	YN	Left	Yes	0.812827200163156	0	166069	252
326.416015625	0.812827200163156	taste	choicePhaseStart	1	8	8	foodImage.85	FOODEEG_Images\0841.jpg	YN	Left	Yes	0.812827200163156	0	167126	253
327.22265625	0	taste	response	1	8	8	foodImage.85	FOODEEG_Images\0841.jpg	YN	Left	Yes	0.812827200163156	0	167539	234
328.265625	1	taste	trialStart	1	9	9	foodImage.87	FOODEEG_Images\0873.jpg	NY	Left	No	1.6044670001138	0	168073	251
329.322265625	2	taste	foodImageDisplay	1	9	9	foodImage.87	FOODEEG_Images\0873.jpg	NY	Left	No	1.6044670001138	0	168614	252
331.384765625	1.6044670001138	taste	choicePhaseStart	1	9	9	foodImage.87	FOODEEG_Images\0873.jpg	NY	Left	No	1.6044670001138	0	169670	253
332.982421875	0	taste	response	1	9	9	foodImage.87	FOODEEG_Images\0873.jpg	NY	Left	No	1.6044670001138	0	170488	234
334.02734375	1	decision	trialStart	1	10	10	foodImage.43	FOODEEG_Images\0445.jpg	NY	Right	Yes	0.796701699960977	0	171023	251
335.08203125	2	decision	foodImageDisplay	1	10	10	foodImage.43	FOODEEG_Images\0445.jpg	NY	Right	Yes	0.796701699960977	0	171563	252
337.14453125	0.796701699960977	decision	choicePhaseStart	1	10	10	foodImage.43	FOODEEG_Images\0445.jpg	NY	Right	Yes	0.796701699960977	0	172619	253
337.93359375	0	decision	response	1	10	10	foodImage.43	FOODEEG_Images\0445.jpg	NY	Right	Yes	0.796701699960977	0	173023	235
338.978515625	1	decision	trialStart	1	11	11	foodImage.1	FOODEEG_Images\0004.jpg	NY	Left	No	0.798968900227919	0	173558	251
340.0234375	2	decision	foodImageDisplay	1	11	11	foodImage.1	FOODEEG_Images\0004.jpg	NY	Left	No	0.798968900227919	0	174093	252
342.0859375	0.798968900227919	decision	choicePhaseStart	1	11	11	foodImage.1	FOODEEG_Images\0004.jpg	NY	Left	No	0.798968900227919	0	175149	253
342.876953125	0	decision	response	1	11	11	foodImage.1	FOODEEG_Images\0004.jpg	NY	Left	No	0.798968900227919	0	175554	234
343.919921875	1	taste	trialStart	1	12	12	foodImage.91	FOODEEG_Images\0896.jpg	YN	Left	Yes	0.870840599993244	0	176088	251
344.974609375	2	taste	foodImageDisplay	1	12	12	foodImage.91	FOODEEG_Images\0896.jpg	YN	Left	Yes	0.870840599993244	0	176628	252
347.037109375	0.870840599993244	taste	choicePhaseStart	1	12	12	foodImage.91	FOODEEG_Images\0896.jpg	YN	Left	Yes	0.870840599993244	0	177684	253
347.900390625	0	taste	response	1	12	12	foodImage.91	FOODEEG_Images\0896.jpg	YN	Left	Yes	0.870840599993244	0	178126	234
348.9453125	1	health	trialStart	1	13	13	foodImage.99	FOODEEG_Images\0907.jpg	NY	Left	No	1.11043489980511	0	178661	251
349.984375	2	health	foodImageDisplay	1	13	13	foodImage.99	FOODEEG_Images\0907.jpg	NY	Left	No	1.11043489980511	0	179193	252
352.046875	1.11043489980511	health	choicePhaseStart	1	13	13	foodImage.99	FOODEEG_Images\0907.jpg	NY	Left	No	1.11043489980511	0	180249	253
353.1484375	0	health	response	1	13	13	foodImage.99	FOODEEG_Images\0907.jpg	NY	Left	No	1.11043489980511	0	180813	234
354.193359375	1	taste	trialStart	1	14	14	foodImage.102	FOODEEG_Images\0910.jpg	NY	Left	No	1.04126299987547	0	181348	251
355.23046875	2	taste	foodImageDisplay	1	14	14	foodImage.102	FOODEEG_Images\0910.jpg	NY	Left	No	1.04126299987547	0	181879	252
357.29296875	1.04126299987547	taste	choicePhaseStart	1	14	14	foodImage.102	FOODEEG_Images\0910.jpg	NY	Left	No	1.04126299987547	0	182935	253
358.32421875	0	taste	response	1	14	14	foodImage.102	FOODEEG_Images\0910.jpg	NY	Left	No	1.04126299987547	0	183463	234
359.373046875	1	taste	trialStart	1	15	15	foodImage.55	FOODEEG_Images\0567.jpg	YN	Right	No	2.45642590010539	0	184000	251
360.4296875	2	taste	foodImageDisplay	1	15	15	foodImage.55	FOODEEG_Images\0567.jpg	YN	Right	No	2.45642590010539	0	184541	252
362.4921875	2.45642590010539	taste	choicePhaseStart	1	15	15	foodImage.55	FOODEEG_Images\0567.jpg	YN	Right	No	2.45642590010539	0	185597	253
364.939453125	0	taste	response	1	15	15	foodImage.55	FOODEEG_Images\0567.jpg	YN	Right	No	2.45642590010539	0	186850	235
365.98046875	1	health	trialStart	1	16	16	foodImage.8	FOODEEG_Images\0136.jpg	NY	Left	No	1.10428930004127	0	187383	251
367.021484375	2	health	foodImageDisplay	1	16	16	foodImage.8	FOODEEG_Images\0136.jpg	NY	Left	No	1.10428930004127	0	187916	252
369.083984375	1.10428930004127	health	choicePhaseStart	1	16	16	foodImage.8	FOODEEG_Images\0136.jpg	NY	Left	No	1.10428930004127	0	188972	253
370.1796875	0	health	response	1	16	16	foodImage.8	FOODEEG_Images\0136.jpg	NY	Left	No	1.10428930004127	0	189533	234
371.220703125	1	health	trialStart	1	17	17	foodImage.87	FOODEEG_Images\0873.jpg	NY	Right	Yes	0.672168899793178	0	190066	251
372.27734375	2	health	foodImageDisplay	1	17	17	foodImage.87	FOODEEG_Images\0873.jpg	NY	Right	Yes	0.672168899793178	0	190607	252
374.33984375	0.672168899793178	health	choicePhaseStart	1	17	17	foodImage.87	FOODEEG_Images\0873.jpg	NY	Right	Yes	0.672168899793178	0	191663	253
375.00390625	0	health	response	1	17	17	foodImage.87	FOODEEG_Images\0873.jpg	NY	Right	Yes	0.672168899793178	0	192003	235
376.046875	1	health	trialStart	1	18	18	foodImage.77	FOODEEG_Images\0771.jpg	YN	Left	Yes	0.777541600167751	0	192537	251
377.091796875	2	health	foodImageDisplay	1	18	18	foodImage.77	FOODEEG_Images\0771.jpg	YN	Left	Yes	0.777541600167751	0	193072	252
379.154296875	0.777541600167751	health	choicePhaseStart	1	18	18	foodImage.77	FOODEEG_Images\0771.jpg	YN	Left	Yes	0.777541600167751	0	194128	253
379.923828125	0	health	response	1	18	18	foodImage.77	FOODEEG_Images\0771.jpg	YN	Left	Yes	0.777541600167751	0	194522	234
380.9609375	1	health	trialStart	1	19	19	foodImage.30	FOODEEG_Images\0282.jpg	NY	Right	Yes	0.801658699987456	0	195053	251
382.001953125	2	health	foodImageDisplay	1	19	19	foodImage.30	FOODEEG_Images\0282.jpg	NY	Right	Yes	0.801658699987456	0	195586	252
384.06640625	0.801658699987456	health	choicePhaseStart	1	19	19	foodImage.30	FOODEEG_Images\0282.jpg	NY	Right	Yes	0.801658699987456	0	196643	253
384.859375	0	health	response	1	19	19	foodImage.30	FOODEEG_Images\0282.jpg	NY	Right	Yes	0.801658699987456	0	197049	235
385.900390625	1	taste	trialStart	1	20	20	foodImage.15	FOODEEG_Images\0189.jpg	YN	Left	Yes	1.39258059998974	0	197582	251
386.955078125	2	taste	foodImageDisplay	1	20	20	foodImage.15	FOODEEG_Images\0189.jpg	YN	Left	Yes	1.39258059998974	0	198122	252
389.017578125	1.39258059998974	taste	choicePhaseStart	1	20	20	foodImage.15	FOODEEG_Images\0189.jpg	YN	Left	Yes	1.39258059998974	0	199178	253
390.40234375	0	taste	response	1	20	20	foodImage.15	FOODEEG_Images\0189.jpg	YN	Left	Yes	1.39258059998974	0	199887	234
391.443359375	1	taste	trialStart	1	21	21	foodImage.115	FOODEEG_Images\0923.jpg	NY	Left	No	1.21248170011677	0	200420	251
392.482421875	2	taste	foodImageDisplay	1	21	21	foodImage.115	FOODEEG_Images\0923.jpg	NY	Left	No	1.21248170011677	0	200952	252
394.544921875	1.21248170011677	taste	choicePhaseStart	1	21	21	foodImage.115	FOODEEG_Images\0923.jpg	NY	Left	No	1.21248170011677	0	202008	253
395.748046875	0	taste	response	1	21	21	foodImage.115	FOODEEG_Images\0923.jpg	NY	Left	No	1.21248170011677	0	202624	234
396.80078125	1	taste	trialStart	1	22	22	foodImage.68	FOODEEG_Images\0685.jpg	NY	Right	Yes	0.926120799966156	0	203163	251
397.904296875	2	taste	foodImageDisplay	1	22	22	foodImage.68	FOODEEG_Images\0685.jpg	NY	Right	Yes	0.926120799966156	0	203728	252
399.966796875	0.926120799966156	taste	choicePhaseStart	1	22	22	foodImage.68	FOODEEG_Images\0685.jpg	NY	Right	Yes	0.926120799966156	0	204784	253
400.8828125	0	taste	response	1	22	22	foodImage.68	FOODEEG_Images\0685.jpg	NY	Right	Yes	0.926120799966156	0	205253	235
401.92578125	1	decision	trialStart	1	23	23	foodImage.80	FOODEEG_Images\0796.jpg	NY	Left	No	2.05607339995913	0	205787	251
402.978515625	2	decision	foodImageDisplay	1	23	23	foodImage.80	FOODEEG_Images\0796.jpg	NY	Left	No	2.05607339995913	0	206326	252
405.04296875	2.05607339995913	decision	choicePhaseStart	1	23	23	foodImage.80	FOODEEG_Images\0796.jpg	NY	Left	No	2.05607339995913	0	207383	253
407.08984375	0	decision	response	1	23	23	foodImage.80	FOODEEG_Images\0796.jpg	NY	Left	No	2.05607339995913	0	208431	234
408.13671875	1	health	trialStart	1	24	24	foodImage.71	FOODEEG_Images\0713.jpg	NY	Left	No	0.905503799906	0	208967	251
409.177734375	2	health	foodImageDisplay	1	24	24	foodImage.71	FOODEEG_Images\0713.jpg	NY	Left	No	0.905503799906	0	209500	252
411.2421875	0.905503799906	health	choicePhaseStart	1	24	24	foodImage.71	FOODEEG_Images\0713.jpg	NY	Left	No	0.905503799906	0	210557	253
412.138671875	0	health	response	1	24	24	foodImage.71	FOODEEG_Images\0713.jpg	NY	Left	No	0.905503799906	0	211016	234
413.185546875	1	decision	trialStart	1	25	25	foodImage.69	FOODEEG_Images\0693.jpg	YN	Left	Yes	0.866902099922299	0	211552	251
414.248046875	2	decision	foodImageDisplay	1	25	25	foodImage.69	FOODEEG_Images\0693.jpg	YN	Left	Yes	0.866902099922299	0	212096	252
416.3125	0.866902099922299	decision	choicePhaseStart	1	25	25	foodImage.69	FOODEEG_Images\0693.jpg	YN	Left	Yes	0.866902099922299	0	213153	253
417.169921875	0	decision	response	1	25	25	foodImage.69	FOODEEG_Images\0693.jpg	YN	Left	Yes	0.866902099922299	0	213592	234
418.21875	1	taste	trialStart	1	26	26	foodImage.109	FOODEEG_Images\0917.jpg	NY	Left	No	1.15010529989377	0	214129	251
419.271484375	2	taste	foodImageDisplay	1	26	26	foodImage.109	FOODEEG_Images\0917.jpg	NY	Left	No	1.15010529989377	0	214668	252
421.333984375	1.15010529989377	taste	choicePhaseStart	1	26	26	foodImage.109	FOODEEG_Images\0917.jpg	NY	Left	No	1.15010529989377	0	215724	253
422.474609375	0	taste	response	1	26	26	foodImage.109	FOODEEG_Images\0917.jpg	NY	Left	No	1.15010529989377	0	216308	234
423.515625	1	health	trialStart	1	27	27	foodImage.113	FOODEEG_Images\0921.jpg	YN	Left	Yes	1.16903119999915	0	216841	251
424.5546875	2	health	foodImageDisplay	1	27	27	foodImage.113	FOODEEG_Images\0921.jpg	YN	Left	Yes	1.16903119999915	0	217373	252
426.6171875	1.16903119999915	health	choicePhaseStart	1	27	27	foodImage.113	FOODEEG_Images\0921.jpg	YN	Left	Yes	1.16903119999915	0	218429	253
427.77734375	0	health	response	1	27	27	foodImage.113	FOODEEG_Images\0921.jpg	YN	Left	Yes	1.16903119999915	0	219023	234
428.8203125	1	health	trialStart	1	28	28	foodImage.54	FOODEEG_Images\0560.jpg	YN	Left	Yes	1.03587939986028	0	219557	251
429.87890625	2	health	foodImageDisplay	1	28	28	foodImage.54	FOODEEG_Images\0560.jpg	YN	Left	Yes	1.03587939986028	0	220099	252
431.94140625	1.03587939986028	health	choicePhaseStart	1	28	28	foodImage.54	FOODEEG_Images\0560.jpg	YN	Left	Yes	1.03587939986028	0	221155	253
432.96875	0	health	response	1	28	28	foodImage.54	FOODEEG_Images\0560.jpg	YN	Left	Yes	1.03587939986028	0	221681	234
434.017578125	1	decision	trialStart	1	29	29	foodImage.53	FOODEEG_Images\0547.jpg	NY	Left	No	1.079694500193	0	222218	251
435.07421875	2	decision	foodImageDisplay	1	29	29	foodImage.53	FOODEEG_Images\0547.jpg	NY	Left	No	1.079694500193	0	222759	252
437.13671875	1.079694500193	decision	choicePhaseStart	1	29	29	foodImage.53	FOODEEG_Images\0547.jpg	NY	Left	No	1.079694500193	0	223815	253
438.208984375	0	decision	response	1	29	29	foodImage.53	FOODEEG_Images\0547.jpg	NY	Left	No	1.079694500193	0	224364	234
439.25	1	decision	trialStart	1	30	30	foodImage.11	FOODEEG_Images\0180.jpg	YN	Left	Yes	0.84051449992694	0	224897	251
440.291015625	2	decision	foodImageDisplay	1	30	30	foodImage.11	FOODEEG_Images\0180.jpg	YN	Left	Yes	0.84051449992694	0	225430	252
442.353515625	0.84051449992694	decision	choicePhaseStart	1	30	30	foodImage.11	FOODEEG_Images\0180.jpg	YN	Left	Yes	0.84051449992694	0	226486	253
443.185546875	0	decision	response	1	30	30	foodImage.11	FOODEEG_Images\0180.jpg	YN	Left	Yes	0.84051449992694	0	226912	234
444.228515625	1	decision	trialStart	1	31	31	foodImage.23	FOODEEG_Images\0244.jpg	YN	Left	Yes	0.584609400015324	0	227446	251
445.267578125	2	decision	foodImageDisplay	1	31	31	foodImage.23	FOODEEG_Images\0244.jpg	YN	Left	Yes	0.584609400015324	0	227978	252
447.330078125	0.584609400015324	decision	choicePhaseStart	1	31	31	foodImage.23	FOODEEG_Images\0244.jpg	YN	Left	Yes	0.584609400015324	0	229034	253
447.904296875	0	decision	response	1	31	31	foodImage.23	FOODEEG_Images\0244.jpg	YN	Left	Yes	0.584609400015324	0	229328	234
448.947265625	1	decision	trialStart	1	32	32	foodImage.6	FOODEEG_Images\0113.jpg	NY	Right	Yes	1.08403700008057	0	229862	251
449.990234375	2	decision	foodImageDisplay	1	32	32	foodImage.6	FOODEEG_Images\0113.jpg	NY	Right	Yes	1.08403700008057	0	230396	252
452.052734375	1.08403700008057	decision	choicePhaseStart	1	32	32	foodImage.6	FOODEEG_Images\0113.jpg	NY	Right	Yes	1.08403700008057	0	231452	253
453.12890625	0	decision	response	1	32	32	foodImage.6	FOODEEG_Images\0113.jpg	NY	Right	Yes	1.08403700008057	0	232003	235
454.171875	1	taste	trialStart	1	33	33	foodImage.106	FOODEEG_Images\0914.jpg	NY	Right	Yes	1.68955989996903	0	232537	251
455.208984375	2	taste	foodImageDisplay	1	33	33	foodImage.106	FOODEEG_Images\0914.jpg	NY	Right	Yes	1.68955989996903	0	233068	252
457.271484375	1.68955989996903	taste	choicePhaseStart	1	33	33	foodImage.106	FOODEEG_Images\0914.jpg	NY	Right	Yes	1.68955989996903	0	234124	253
458.953125	0	taste	response	1	33	33	foodImage.106	FOODEEG_Images\0914.jpg	NY	Right	Yes	1.68955989996903	0	234985	235
459.994140625	1	health	trialStart	1	34	34	foodImage.79	FOODEEG_Images\0794.jpg	NY	Right	Yes	2.14814330008812	0	235518	251
461.037109375	2	health	foodImageDisplay	1	34	34	foodImage.79	FOODEEG_Images\0794.jpg	NY	Right	Yes	2.14814330008812	0	236052	252
463.1015625	2.14814330008812	health	choicePhaseStart	1	34	34	foodImage.79	FOODEEG_Images\0794.jpg	NY	Right	Yes	2.14814330008812	0	237109	253
465.240234375	0	health	response	1	34	34	foodImage.79	FOODEEG_Images\0794.jpg	NY	Right	Yes	2.14814330008812	0	238204	235
466.28125	1	taste	trialStart	1	35	35	foodImage.33	FOODEEG_Images\0329.jpg	NY	Right	Yes	1.03980510006659	0	238737	251
467.32421875	2	taste	foodImageDisplay	1	35	35	foodImage.33	FOODEEG_Images\0329.jpg	NY	Right	Yes	1.03980510006659	0	239271	252
469.38671875	1.03980510006659	taste	choicePhaseStart	1	35	35	foodImage.33	FOODEEG_Images\0329.jpg	NY	Right	Yes	1.03980510006659	0	240327	253
470.416015625	0	taste	response	1	35	35	foodImage.33	FOODEEG_Images\0329.jpg	NY	Right	Yes	1.03980510006659	0	240854	235
471.45703125	1	taste	trialStart	1	36	36	foodImage.31	FOODEEG_Images\0294.jpg	YN	Left	Yes	0.702769600087777	0	241387	251
472.5	2	taste	foodImageDisplay	1	36	36	foodImage.31	FOODEEG_Images\0294.jpg	YN	Left	Yes	0.702769600087777	0	241921	252
474.5625	0.702769600087777	taste	choicePhaseStart	1	36	36	foodImage.31	FOODEEG_Images\0294.jpg	YN	Left	Yes	0.702769600087777	0	242977	253
475.255859375	0	taste	response	1	36	36	foodImage.31	FOODEEG_Images\0294.jpg	YN	Left	Yes	0.702769600087777	0	243332	234
476.3046875	1	taste	trialStart	1	37	37	foodImage.22	FOODEEG_Images\0236.jpg	YN	Left	Yes	0.711991799995303	0	243869	251
477.345703125	2	taste	foodImageDisplay	1	37	37	foodImage.22	FOODEEG_Images\0236.jpg	YN	Left	Yes	0.711991799995303	0	244402	252
479.408203125	0.711991799995303	taste	choicePhaseStart	1	37	37	foodImage.22	FOODEEG_Images\0236.jpg	YN	Left	Yes	0.711991799995303	0	245458	253
480.111328125	0	taste	response	1	37	37	foodImage.22	FOODEEG_Images\0236.jpg	YN	Left	Yes	0.711991799995303	0	245818	234
481.15234375	1	decision	trialStart	1	38	38	foodImage.40	FOODEEG_Images\0373.jpg	NY	Right	Yes	0.717955600004643	0	246351	251
482.1953125	2	decision	foodImageDisplay	1	38	38	foodImage.40	FOODEEG_Images\0373.jpg	NY	Right	Yes	0.717955600004643	0	246885	252
484.2578125	0.717955600004643	decision	choicePhaseStart	1	38	38	foodImage.40	FOODEEG_Images\0373.jpg	NY	Right	Yes	0.717955600004643	0	247941	253
484.966796875	0	decision	response	1	38	38	foodImage.40	FOODEEG_Images\0373.jpg	NY	Right	Yes	0.717955600004643	0	248304	235
486.01171875	1	decision	trialStart	1	39	39	foodImage.62	FOODEEG_Images\0644.jpg	NY	Left	No	0.999007100006565	0	248839	251
487.06640625	2	decision	foodImageDisplay	1	39	39	foodImage.62	FOODEEG_Images\0644.jpg	NY	Left	No	0.999007100006565	0	249379	252
489.12890625	0.999007100006565	decision	choicePhaseStart	1	39	39	foodImage.62	FOODEEG_Images\0644.jpg	NY	Left	No	0.999007100006565	0	250435	253
490.119140625	0	decision	response	1	39	39	foodImage.62	FOODEEG_Images\0644.jpg	NY	Left	No	0.999007100006565	0	250942	234
491.162109375	1	health	trialStart	1	40	40	foodImage.97	FOODEEG_Images\0905.jpg	YN	Right	No	1.60830739978701	0	251476	251
492.201171875	2	health	foodImageDisplay	1	40	40	foodImage.97	FOODEEG_Images\0905.jpg	YN	Right	No	1.60830739978701	0	252008	252
494.263671875	1.60830739978701	health	choicePhaseStart	1	40	40	foodImage.97	FOODEEG_Images\0905.jpg	YN	Right	No	1.60830739978701	0	253064	253
495.86328125	0	health	response	1	40	40	foodImage.97	FOODEEG_Images\0905.jpg	YN	Right	No	1.60830739978701	0	253883	235
496.904296875	1	health	trialStart	1	41	41	foodImage.75	FOODEEG_Images\0763.jpg	YN	Left	Yes	0.68549930001609	0	254416	251
497.947265625	2	health	foodImageDisplay	1	41	41	foodImage.75	FOODEEG_Images\0763.jpg	YN	Left	Yes	0.68549930001609	0	254950	252
500.009765625	0.68549930001609	health	choicePhaseStart	1	41	41	foodImage.75	FOODEEG_Images\0763.jpg	YN	Left	Yes	0.68549930001609	0	256006	253
500.6875	0	health	response	1	41	41	foodImage.75	FOODEEG_Images\0763.jpg	YN	Left	Yes	0.68549930001609	0	256353	234
501.728515625	1	taste	trialStart	1	42	42	foodImage.105	FOODEEG_Images\0913.jpg	YN	Right	No	1.15702649997547	0	256886	251
502.779296875	2	taste	foodImageDisplay	1	42	42	foodImage.105	FOODEEG_Images\0913.jpg	YN	Right	No	1.15702649997547	0	257424	252
504.841796875	1.15702649997547	taste	choicePhaseStart	1	42	42	foodImage.105	FOODEEG_Images\0913.jpg	YN	Right	No	1.15702649997547	0	258480	253
505.990234375	0	taste	response	1	42	42	foodImage.105	FOODEEG_Images\0913.jpg	YN	Right	No	1.15702649997547	0	259068	235
507.0390625	1	decision	trialStart	1	43	43	foodImage.39	FOODEEG_Images\0367.jpg	YN	Left	Yes	0.795803700108081	0	259605	251
508.076171875	2	decision	foodImageDisplay	1	43	43	foodImage.39	FOODEEG_Images\0367.jpg	YN	Left	Yes	0.795803700108081	0	260136	252
510.138671875	0.795803700108081	decision	choicePhaseStart	1	43	43	foodImage.39	FOODEEG_Images\0367.jpg	YN	Left	Yes	0.795803700108081	0	261192	253
510.92578125	0	decision	response	1	43	43	foodImage.39	FOODEEG_Images\0367.jpg	YN	Left	Yes	0.795803700108081	0	261595	234
511.96875	1	health	trialStart	1	44	44	foodImage.29	FOODEEG_Images\0278.jpg	YN	Left	Yes	0.742502699838951	0	262129	251
513.009765625	2	health	foodImageDisplay	1	44	44	foodImage.29	FOODEEG_Images\0278.jpg	YN	Left	Yes	0.742502699838951	0	262662	252
515.072265625	0.742502699838951	health	choicePhaseStart	1	44	44	foodImage.29	FOODEEG_Images\0278.jpg	YN	Left	Yes	0.742502699838951	0	263718	253
515.806640625	0	health	response	1	44	44	foodImage.29	FOODEEG_Images\0278.jpg	YN	Left	Yes	0.742502699838951	0	264094	234
516.85546875	1	taste	trialStart	1	45	45	foodImage.12	FOODEEG_Images\0181.jpg	YN	Left	Yes	0.679086599964648	0	264631	251
517.896484375	2	taste	foodImageDisplay	1	45	45	foodImage.12	FOODEEG_Images\0181.jpg	YN	Left	Yes	0.679086599964648	0	265164	252
519.958984375	0.679086599964648	taste	choicePhaseStart	1	45	45	foodImage.12	FOODEEG_Images\0181.jpg	YN	Left	Yes	0.679086599964648	0	266220	253
520.630859375	0	taste	response	1	45	45	foodImage.12	FOODEEG_Images\0181.jpg	YN	Left	Yes	0.679086599964648	0	266564	234
521.671875	1	health	trialStart	1	46	46	foodImage.19	FOODEEG_Images\0225.jpg	YN	Left	Yes	1.12559419986792	0	267097	251
522.712890625	2	health	foodImageDisplay	1	46	46	foodImage.19	FOODEEG_Images\0225.jpg	YN	Left	Yes	1.12559419986792	0	267630	252
524.775390625	1.12559419986792	health	choicePhaseStart	1	46	46	foodImage.19	FOODEEG_Images\0225.jpg	YN	Left	Yes	1.12559419986792	0	268686	253
525.89453125	0	health	response	1	46	46	foodImage.19	FOODEEG_Images\0225.jpg	YN	Left	Yes	1.12559419986792	0	269259	234
526.9375	1	decision	trialStart	1	47	47	foodImage.81	FOODEEG_Images\0797.jpg	YN	Right	No	0.76733239996247	0	269793	251
527.9921875	2	decision	foodImageDisplay	1	47	47	foodImage.81	FOODEEG_Images\0797.jpg	YN	Right	No	0.76733239996247	0	270333	252
530.0546875	0.76733239996247	decision	choicePhaseStart	1	47	47	foodImage.81	FOODEEG_Images\0797.jpg	YN	Right	No	0.76733239996247	0	271389	253
530.814453125	0	decision	response	1	47	47	foodImage.81	FOODEEG_Images\0797.jpg	YN	Right	No	0.76733239996247	0	271778	235
531.85546875	1	decision	trialStart	1	48	48	foodImage.32	FOODEEG_Images\0319.jpg	YN	Left	Yes	0.596664000069723	0	272311	251
532.919921875	2	decision	foodImageDisplay	1	48	48	foodImage.32	FOODEEG_Images\0319.jpg	YN	Left	Yes	0.596664000069723	0	272856	252
534.982421875	0.596664000069723	decision	choicePhaseStart	1	48	48	foodImage.32	FOODEEG_Images\0319.jpg	YN	Left	Yes	0.596664000069723	0	273912	253
535.57421875	0	decision	response	1	48	48	foodImage.32	FOODEEG_Images\0319.jpg	YN	Left	Yes	0.596664000069723	0	274215	234
536.62109375	1	decision	trialStart	1	49	49	foodImage.58	FOODEEG_Images\0605.jpg	YN	Left	Yes	0.493818199960515	0	274751	251
537.6796875	2	decision	foodImageDisplay	1	49	49	foodImage.58	FOODEEG_Images\0605.jpg	YN	Left	Yes	0.493818199960515	0	275293	252
539.744140625	0.493818199960515	decision	choicePhaseStart	1	49	49	foodImage.58	FOODEEG_Images\0605.jpg	YN	Left	Yes	0.493818199960515	0	276350	253
540.228515625	0	decision	response	1	49	49	foodImage.58	FOODEEG_Images\0605.jpg	YN	Left	Yes	0.493818199960515	0	276598	234
541.2734375	1	taste	trialStart	1	50	50	foodImage.54	FOODEEG_Images\0560.jpg	NY	Right	Yes	0.845643599983305	0	277133	251
542.330078125	2	taste	foodImageDisplay	1	50	50	foodImage.54	FOODEEG_Images\0560.jpg	NY	Right	Yes	0.845643599983305	0	277674	252
544.392578125	0.845643599983305	taste	choicePhaseStart	1	50	50	foodImage.54	FOODEEG_Images\0560.jpg	NY	Right	Yes	0.845643599983305	0	278730	253
545.228515625	0	taste	response	1	50	50	foodImage.54	FOODEEG_Images\0560.jpg	NY	Right	Yes	0.845643599983305	0	279158	235
546.271484375	1	health	trialStart	1	51	51	foodImage.92	FOODEEG_Images\0900.jpg	NY	Left	No	1.120582500007	0	279692	251
547.310546875	2	health	foodImageDisplay	1	51	51	foodImage.92	FOODEEG_Images\0900.jpg	NY	Left	No	1.120582500007	0	280224	252
549.373046875	1.120582500007	health	choicePhaseStart	1	51	51	foodImage.92	FOODEEG_Images\0900.jpg	NY	Left	No	1.120582500007	0	281280	253
550.484375	0	health	response	1	51	51	foodImage.92	FOODEEG_Images\0900.jpg	NY	Left	No	1.120582500007	0	281849	234
551.52734375	1	health	trialStart	1	52	52	foodImage.102	FOODEEG_Images\0910.jpg	YN	Left	Yes	1.13278900017031	0	282383	251
552.578125	2	health	foodImageDisplay	1	52	52	foodImage.102	FOODEEG_Images\0910.jpg	YN	Left	Yes	1.13278900017031	0	282921	252
554.640625	1.13278900017031	health	choicePhaseStart	1	52	52	foodImage.102	FOODEEG_Images\0910.jpg	YN	Left	Yes	1.13278900017031	0	283977	253
555.763671875	0	health	response	1	52	52	foodImage.102	FOODEEG_Images\0910.jpg	YN	Left	Yes	1.13278900017031	0	284552	234
556.806640625	1	taste	trialStart	1	53	53	foodImage.61	FOODEEG_Images\0640.jpg	NY	Right	Yes	2.07939570001327	0	285086	251
557.84765625	2	taste	foodImageDisplay	1	53	53	foodImage.61	FOODEEG_Images\0640.jpg	NY	Right	Yes	2.07939570001327	0	285619	252
559.91015625	2.07939570001327	taste	choicePhaseStart	1	53	53	foodImage.61	FOODEEG_Images\0640.jpg	NY	Right	Yes	2.07939570001327	0	286675	253
561.98046875	0	taste	response	1	53	53	foodImage.61	FOODEEG_Images\0640.jpg	NY	Right	Yes	2.07939570001327	0	287735	235
563.029296875	1	taste	trialStart	1	54	54	foodImage.83	FOODEEG_Images\0827.jpg	YN	Left	Yes	1.25551549997181	0	288272	251
564.087890625	2	taste	foodImageDisplay	1	54	54	foodImage.83	FOODEEG_Images\0827.jpg	YN	Left	Yes	1.25551549997181	0	288814	252
566.1484375	1.25551549997181	taste	choicePhaseStart	1	54	54	foodImage.83	FOODEEG_Images\0827.jpg	YN	Left	Yes	1.25551549997181	0	289869	253
567.396484375	0	taste	response	1	54	54	foodImage.83	FOODEEG_Images\0827.jpg	YN	Left	Yes	1.25551549997181	0	290508	234
568.439453125	1	health	trialStart	1	55	55	foodImage.45	FOODEEG_Images\0478.jpg	YN	Left	Yes	0.806981300003827	0	291042	251
569.48828125	2	health	foodImageDisplay	1	55	55	foodImage.45	FOODEEG_Images\0478.jpg	YN	Left	Yes	0.806981300003827	0	291579	252
571.55078125	0.806981300003827	health	choicePhaseStart	1	55	55	foodImage.45	FOODEEG_Images\0478.jpg	YN	Left	Yes	0.806981300003827	0	292635	253
572.34765625	0	health	response	1	55	55	foodImage.45	FOODEEG_Images\0478.jpg	YN	Left	Yes	0.806981300003827	0	293043	234
573.390625	1	decision	trialStart	1	56	56	foodImage.94	FOODEEG_Images\0902.jpg	NY	Left	No	1.3452298999764	0	293577	251
574.427734375	2	decision	foodImageDisplay	1	56	56	foodImage.94	FOODEEG_Images\0902.jpg	NY	Left	No	1.3452298999764	0	294108	252
576.490234375	1.3452298999764	decision	choicePhaseStart	1	56	56	foodImage.94	FOODEEG_Images\0902.jpg	NY	Left	No	1.3452298999764	0	295164	253
577.828125	0	decision	response	1	56	56	foodImage.94	FOODEEG_Images\0902.jpg	NY	Left	No	1.3452298999764	0	295849	234
578.87109375	1	decision	trialStart	1	57	57	foodImage.5	FOODEEG_Images\0107.jpg	YN	Left	Yes	1.06272580008954	0	296383	251
579.927734375	2	decision	foodImageDisplay	1	57	57	foodImage.5	FOODEEG_Images\0107.jpg	YN	Left	Yes	1.06272580008954	0	296924	252
581.990234375	1.06272580008954	decision	choicePhaseStart	1	57	57	foodImage.5	FOODEEG_Images\0107.jpg	YN	Left	Yes	1.06272580008954	0	297980	253
583.04296875	0	decision	response	1	57	57	foodImage.5	FOODEEG_Images\0107.jpg	YN	Left	Yes	1.06272580008954	0	298519	234
584.091796875	1	decision	trialStart	1	58	58	foodImage.52	FOODEEG_Images\0539.jpg	NY	Right	Yes	0.848922900157049	0	299056	251
585.1484375	2	decision	foodImageDisplay	1	58	58	foodImage.52	FOODEEG_Images\0539.jpg	NY	Right	Yes	0.848922900157049	0	299597	252
587.2109375	0.848922900157049	decision	choicePhaseStart	1	58	58	foodImage.52	FOODEEG_Images\0539.jpg	NY	Right	Yes	0.848922900157049	0	300653	253
588.05078125	0	decision	response	1	58	58	foodImage.52	FOODEEG_Images\0539.jpg	NY	Right	Yes	0.848922900157049	0	301083	235
589.099609375	1	health	trialStart	1	59	59	foodImage.66	FOODEEG_Images\0676.jpg	NY	Left	No	0.937157900072634	0	301620	251
590.140625	2	health	foodImageDisplay	1	59	59	foodImage.66	FOODEEG_Images\0676.jpg	NY	Left	No	0.937157900072634	0	302153	252
592.203125	0.937157900072634	health	choicePhaseStart	1	59	59	foodImage.66	FOODEEG_Images\0676.jpg	NY	Left	No	0.937157900072634	0	303209	253
593.130859375	0	health	response	1	59	59	foodImage.66	FOODEEG_Images\0676.jpg	NY	Left	No	0.937157900072634	0	303684	234
594.173828125	1	health	trialStart	1	60	60	foodImage.37	FOODEEG_Images\0359.jpg	YN	Left	Yes	0.731745199998841	0	304218	251
595.22265625	2	health	foodImageDisplay	1	60	60	foodImage.37	FOODEEG_Images\0359.jpg	YN	Left	Yes	0.731745199998841	0	304755	252
597.287109375	0.731745199998841	health	choicePhaseStart	1	60	60	foodImage.37	FOODEEG_Images\0359.jpg	YN	Left	Yes	0.731745199998841	0	305812	253
598.01171875	0	health	response	1	60	60	foodImage.37	FOODEEG_Images\0359.jpg	YN	Left	Yes	0.731745199998841	0	306183	234
600.052734375	18.310546875	n/a	blockEnd	n/a	n/a	n/a	n/a	n/a	n/a	n/a	n/a	n/a	n/a	307228	254
618.36328125	2	n/a	blockStart	2	n/a	n/a	n/a	n/a	n/a	n/a	n/a	n/a	n/a	316603	250
620.396484375	1	health	trialStart	2	61	1	foodImage.33	FOODEEG_Images\0329.jpg	NY	Right	Yes	0.948696600040421	0	317644	251
621.439453125	2	health	foodImageDisplay	2	61	1	foodImage.33	FOODEEG_Images\0329.jpg	NY	Right	Yes	0.948696600040421	0	318178	252
623.501953125	0.948696600040421	health	choicePhaseStart	2	61	1	foodImage.33	FOODEEG_Images\0329.jpg	NY	Right	Yes	0.948696600040421	0	319234	253
624.44140625	0	health	response	2	61	1	foodImage.33	FOODEEG_Images\0329.jpg	NY	Right	Yes	0.948696600040421	0	319715	235
625.490234375	1	decision	trialStart	2	62	2	foodImage.3	FOODEEG_Images\0046.jpg	YN	Left	Yes	1.36936920019798	0	320252	251
626.53125	2	decision	foodImageDisplay	2	62	2	foodImage.3	FOODEEG_Images\0046.jpg	YN	Left	Yes	1.36936920019798	0	320785	252
628.59375	1.36936920019798	decision	choicePhaseStart	2	62	2	foodImage.3	FOODEEG_Images\0046.jpg	YN	Left	Yes	1.36936920019798	0	321841	253
629.953125	0	decision	response	2	62	2	foodImage.3	FOODEEG_Images\0046.jpg	YN	Left	Yes	1.36936920019798	0	322537	234
630.994140625	1	taste	trialStart	2	63	3	foodImage.13	FOODEEG_Images\0183.jpg	NY	Right	Yes	0.892034899909049	0	323070	251
632.0390625	2	taste	foodImageDisplay	2	63	3	foodImage.13	FOODEEG_Images\0183.jpg	NY	Right	Yes	0.892034899909049	0	323605	252
634.1015625	0.892034899909049	taste	choicePhaseStart	2	63	3	foodImage.13	FOODEEG_Images\0183.jpg	NY	Right	Yes	0.892034899909049	0	324661	253
634.986328125	0	taste	response	2	63	3	foodImage.13	FOODEEG_Images\0183.jpg	NY	Right	Yes	0.892034899909049	0	325114	235
636.033203125	1	taste	trialStart	2	64	4	foodImage.10	FOODEEG_Images\0145.jpg	NY	Right	Yes	0.77847950020805	0	325650	251
637.08984375	2	taste	foodImageDisplay	2	64	4	foodImage.10	FOODEEG_Images\0145.jpg	NY	Right	Yes	0.77847950020805	0	326191	252
639.150390625	0.77847950020805	taste	choicePhaseStart	2	64	4	foodImage.10	FOODEEG_Images\0145.jpg	NY	Right	Yes	0.77847950020805	0	327246	253
639.921875	0	taste	response	2	64	4	foodImage.10	FOODEEG_Images\0145.jpg	NY	Right	Yes	0.77847950020805	0	327641	235
640.962890625	1	decision	trialStart	2	65	5	foodImage.111	FOODEEG_Images\0919.jpg	YN	Right	No	1.64362789993174	0	328174	251
642	2	decision	foodImageDisplay	2	65	5	foodImage.111	FOODEEG_Images\0919.jpg	YN	Right	No	1.64362789993174	0	328705	252
644.060546875	1.64362789993174	decision	choicePhaseStart	2	65	5	foodImage.111	FOODEEG_Images\0919.jpg	YN	Right	No	1.64362789993174	0	329760	253
645.697265625	0	decision	response	2	65	5	foodImage.111	FOODEEG_Images\0919.jpg	YN	Right	No	1.64362789993174	0	330598	235
646.740234375	1	taste	trialStart	2	66	6	foodImage.2	FOODEEG_Images\0028.jpg	NY	Right	Yes	1.5720452000387	0	331132	251
647.80078125	2	taste	foodImageDisplay	2	66	6	foodImage.2	FOODEEG_Images\0028.jpg	NY	Right	Yes	1.5720452000387	0	331675	252
649.86328125	1.5720452000387	taste	choicePhaseStart	2	66	6	foodImage.2	FOODEEG_Images\0028.jpg	NY	Right	Yes	1.5720452000387	0	332731	253
651.42578125	0	taste	response	2	66	6	foodImage.2	FOODEEG_Images\0028.jpg	NY	Right	Yes	1.5720452000387	0	333531	235
652.466796875	1	health	trialStart	2	67	7	foodImage.104	FOODEEG_Images\0912.jpg	NY	Left	No	0.868903600145131	0	334064	251
653.50390625	2	health	foodImageDisplay	2	67	7	foodImage.104	FOODEEG_Images\0912.jpg	NY	Left	No	0.868903600145131	0	334595	252
655.56640625	0.868903600145131	health	choicePhaseStart	2	67	7	foodImage.104	FOODEEG_Images\0912.jpg	NY	Left	No	0.868903600145131	0	335651	253
656.423828125	0	health	response	2	67	7	foodImage.104	FOODEEG_Images\0912.jpg	NY	Left	No	0.868903600145131	0	336090	234
657.466796875	1	decision	trialStart	2	68	8	foodImage.106	FOODEEG_Images\0914.jpg	NY	Right	Yes	0.884292100090533	0	336624	251
658.50390625	2	decision	foodImageDisplay	2	68	8	foodImage.106	FOODEEG_Images\0914.jpg	NY	Right	Yes	0.884292100090533	0	337155	252
660.56640625	0.884292100090533	decision	choicePhaseStart	2	68	8	foodImage.106	FOODEEG_Images\0914.jpg	NY	Right	Yes	0.884292100090533	0	338211	253
661.44140625	0	decision	response	2	68	8	foodImage.106	FOODEEG_Images\0914.jpg	NY	Right	Yes	0.884292100090533	0	338659	235
662.484375	1	taste	trialStart	2	69	9	foodImage.96	FOODEEG_Images\0904.jpg	NY	Left	No	1.5049197000917	0	339193	251
663.521484375	2	taste	foodImageDisplay	2	69	9	foodImage.96	FOODEEG_Images\0904.jpg	NY	Left	No	1.5049197000917	0	339724	252
665.583984375	1.5049197000917	taste	choicePhaseStart	2	69	9	foodImage.96	FOODEEG_Images\0904.jpg	NY	Left	No	1.5049197000917	0	340780	253
667.080078125	0	taste	response	2	69	9	foodImage.96	FOODEEG_Images\0904.jpg	NY	Left	No	1.5049197000917	0	341546	234
668.123046875	1	taste	trialStart	2	70	10	foodImage.32	FOODEEG_Images\0319.jpg	NY	Right	Yes	0.772872400004417	0	342080	251
669.166015625	2	taste	foodImageDisplay	2	70	10	foodImage.32	FOODEEG_Images\0319.jpg	NY	Right	Yes	0.772872400004417	0	342614	252
671.228515625	0.772872400004417	taste	choicePhaseStart	2	70	10	foodImage.32	FOODEEG_Images\0319.jpg	NY	Right	Yes	0.772872400004417	0	343670	253
671.9921875	0	taste	response	2	70	10	foodImage.32	FOODEEG_Images\0319.jpg	NY	Right	Yes	0.772872400004417	0	344061	235
673.03515625	1	health	trialStart	2	71	11	foodImage.13	FOODEEG_Images\0183.jpg	NY	Left	No	1.46907490002923	0	344595	251
674.078125	2	health	foodImageDisplay	2	71	11	foodImage.13	FOODEEG_Images\0183.jpg	NY	Left	No	1.46907490002923	0	345129	252
676.140625	1.46907490002923	health	choicePhaseStart	2	71	11	foodImage.13	FOODEEG_Images\0183.jpg	NY	Left	No	1.46907490002923	0	346185	253
677.599609375	0	health	response	2	71	11	foodImage.13	FOODEEG_Images\0183.jpg	NY	Left	No	1.46907490002923	0	346932	234
678.640625	1	taste	trialStart	2	72	12	foodImage.5	FOODEEG_Images\0107.jpg	YN	Left	Yes	1.01653479994275	0	347465	251
679.697265625	2	taste	foodImageDisplay	2	72	12	foodImage.5	FOODEEG_Images\0107.jpg	YN	Left	Yes	1.01653479994275	0	348006	252
681.759765625	1.01653479994275	taste	choicePhaseStart	2	72	12	foodImage.5	FOODEEG_Images\0107.jpg	YN	Left	Yes	1.01653479994275	0	349062	253
682.767578125	0	taste	response	2	72	12	foodImage.5	FOODEEG_Images\0107.jpg	YN	Left	Yes	1.01653479994275	0	349578	234
683.81640625	1	health	trialStart	2	73	13	foodImage.7	FOODEEG_Images\0116.jpg	NY	Left	No	1.0918422001414	0	350115	251
684.857421875	2	health	foodImageDisplay	2	73	13	foodImage.7	FOODEEG_Images\0116.jpg	NY	Left	No	1.0918422001414	0	350648	252
686.92578125	1.0918422001414	health	choicePhaseStart	2	73	13	foodImage.7	FOODEEG_Images\0116.jpg	NY	Left	No	1.0918422001414	0	351707	253
688.0078125	0	health	response	2	73	13	foodImage.7	FOODEEG_Images\0116.jpg	NY	Left	No	1.0918422001414	0	352261	234
689.05078125	1	health	trialStart	2	74	14	foodImage.105	FOODEEG_Images\0913.jpg	YN	Left	Yes	1.43168110004626	0	352795	251
690.08984375	2	health	foodImageDisplay	2	74	14	foodImage.105	FOODEEG_Images\0913.jpg	YN	Left	Yes	1.43168110004626	0	353327	252
692.15234375	1.43168110004626	health	choicePhaseStart	2	74	14	foodImage.105	FOODEEG_Images\0913.jpg	YN	Left	Yes	1.43168110004626	0	354383	253
693.576171875	0	health	response	2	74	14	foodImage.105	FOODEEG_Images\0913.jpg	YN	Left	Yes	1.43168110004626	0	355112	234
694.6171875	1	health	trialStart	2	75	15	foodImage.100	FOODEEG_Images\0908.jpg	YN	Right	No	1.81676269997843	0	355645	251
695.65625	2	health	foodImageDisplay	2	75	15	foodImage.100	FOODEEG_Images\0908.jpg	YN	Right	No	1.81676269997843	0	356177	252
697.71875	1.81676269997843	health	choicePhaseStart	2	75	15	foodImage.100	FOODEEG_Images\0908.jpg	YN	Right	No	1.81676269997843	0	357233	253
699.52734375	0	health	response	2	75	15	foodImage.100	FOODEEG_Images\0908.jpg	YN	Right	No	1.81676269997843	0	358159	235
700.5703125	1	taste	trialStart	2	76	16	foodImage.94	FOODEEG_Images\0902.jpg	YN	Right	No	2.29863340011798	0	358693	251
701.607421875	2	taste	foodImageDisplay	2	76	16	foodImage.94	FOODEEG_Images\0902.jpg	YN	Right	No	2.29863340011798	0	359224	252
703.67578125	2.29863340011798	taste	choicePhaseStart	2	76	16	foodImage.94	FOODEEG_Images\0902.jpg	YN	Right	No	2.29863340011798	0	360283	253
705.966796875	0	taste	response	2	76	16	foodImage.94	FOODEEG_Images\0902.jpg	YN	Right	No	2.29863340011798	0	361456	235
707.009765625	1	health	trialStart	2	77	17	foodImage.61	FOODEEG_Images\0640.jpg	NY	Right	Yes	2.16492179990746	0	361990	251
708.05078125	2	health	foodImageDisplay	2	77	17	foodImage.61	FOODEEG_Images\0640.jpg	NY	Right	Yes	2.16492179990746	0	362523	252
710.115234375	2.16492179990746	health	choicePhaseStart	2	77	17	foodImage.61	FOODEEG_Images\0640.jpg	NY	Right	Yes	2.16492179990746	0	363580	253
712.26953125	0	health	response	2	77	17	foodImage.61	FOODEEG_Images\0640.jpg	NY	Right	Yes	2.16492179990746	0	364683	235
713.314453125	1	health	trialStart	2	78	18	foodImage.16	FOODEEG_Images\0196.jpg	YN	Left	Yes	0.866350100142881	0	365218	251
714.396484375	2	health	foodImageDisplay	2	78	18	foodImage.16	FOODEEG_Images\0196.jpg	YN	Left	Yes	0.866350100142881	0	365772	252
716.458984375	0.866350100142881	health	choicePhaseStart	2	78	18	foodImage.16	FOODEEG_Images\0196.jpg	YN	Left	Yes	0.866350100142881	0	366828	253
717.318359375	0	health	response	2	78	18	foodImage.16	FOODEEG_Images\0196.jpg	YN	Left	Yes	0.866350100142881	0	367268	234
718.3671875	1	health	trialStart	2	79	19	foodImage.110	FOODEEG_Images\0918.jpg	YN	Right	No	1.23602230008692	0	367805	251
719.404296875	2	health	foodImageDisplay	2	79	19	foodImage.110	FOODEEG_Images\0918.jpg	YN	Right	No	1.23602230008692	0	368336	252
721.466796875	1.23602230008692	health	choicePhaseStart	2	79	19	foodImage.110	FOODEEG_Images\0918.jpg	YN	Right	No	1.23602230008692	0	369392	253
722.693359375	0	health	response	2	79	19	foodImage.110	FOODEEG_Images\0918.jpg	YN	Right	No	1.23602230008692	0	370020	235
723.736328125	1	taste	trialStart	2	80	20	foodImage.63	FOODEEG_Images\0645.jpg	YN	Left	Yes	0.706600500037894	0	370554	251
724.783203125	2	taste	foodImageDisplay	2	80	20	foodImage.63	FOODEEG_Images\0645.jpg	YN	Left	Yes	0.706600500037894	0	371090	252
726.845703125	0.706600500037894	taste	choicePhaseStart	2	80	20	foodImage.63	FOODEEG_Images\0645.jpg	YN	Left	Yes	0.706600500037894	0	372146	253
727.541015625	0	taste	response	2	80	20	foodImage.63	FOODEEG_Images\0645.jpg	YN	Left	Yes	0.706600500037894	0	372502	234
728.5859375	1	health	trialStart	2	81	21	foodImage.52	FOODEEG_Images\0539.jpg	NY	Right	Yes	2.22137490008026	0	373037	251
729.642578125	2	health	foodImageDisplay	2	81	21	foodImage.52	FOODEEG_Images\0539.jpg	NY	Right	Yes	2.22137490008026	0	373578	252
731.70703125	2.22137490008026	health	choicePhaseStart	2	81	21	foodImage.52	FOODEEG_Images\0539.jpg	NY	Right	Yes	2.22137490008026	0	374635	253
733.91796875	0	health	response	2	81	21	foodImage.52	FOODEEG_Images\0539.jpg	NY	Right	Yes	2.22137490008026	0	375767	235
734.96484375	1	taste	trialStart	2	82	22	foodImage.82	FOODEEG_Images\0805.jpg	YN	Left	Yes	0.959569100057706	0	376303	251
736.0234375	2	taste	foodImageDisplay	2	82	22	foodImage.82	FOODEEG_Images\0805.jpg	YN	Left	Yes	0.959569100057706	0	376845	252
738.0859375	0.959569100057706	taste	choicePhaseStart	2	82	22	foodImage.82	FOODEEG_Images\0805.jpg	YN	Left	Yes	0.959569100057706	0	377901	253
739.037109375	0	taste	response	2	82	22	foodImage.82	FOODEEG_Images\0805.jpg	YN	Left	Yes	0.959569100057706	0	378388	234
740.080078125	1	health	trialStart	2	83	23	foodImage.103	FOODEEG_Images\0911.jpg	YN	Right	No	1.29593980009668	0	378922	251
741.119140625	2	health	foodImageDisplay	2	83	23	foodImage.103	FOODEEG_Images\0911.jpg	YN	Right	No	1.29593980009668	0	379454	252
743.181640625	1.29593980009668	health	choicePhaseStart	2	83	23	foodImage.103	FOODEEG_Images\0911.jpg	YN	Right	No	1.29593980009668	0	380510	253
744.46875	0	health	response	2	83	23	foodImage.103	FOODEEG_Images\0911.jpg	YN	Right	No	1.29593980009668	0	381169	235
745.517578125	1	decision	trialStart	2	84	24	foodImage.120	FOODEEG_Images\0928.jpg	NY	Left	No	1.14687579986639	0	381706	251
746.556640625	2	decision	foodImageDisplay	2	84	24	foodImage.120	FOODEEG_Images\0928.jpg	NY	Left	No	1.14687579986639	0	382238	252
748.619140625	1.14687579986639	decision	choicePhaseStart	2	84	24	foodImage.120	FOODEEG_Images\0928.jpg	NY	Left	No	1.14687579986639	0	383294	253
749.7578125	0	decision	response	2	84	24	foodImage.120	FOODEEG_Images\0928.jpg	NY	Left	No	1.14687579986639	0	383877	234
750.802734375	1	health	trialStart	2	85	25	foodImage.63	FOODEEG_Images\0645.jpg	YN	Left	Yes	0.95571060013026	0	384412	251
751.84375	2	health	foodImageDisplay	2	85	25	foodImage.63	FOODEEG_Images\0645.jpg	YN	Left	Yes	0.95571060013026	0	384945	252
753.90625	0.95571060013026	health	choicePhaseStart	2	85	25	foodImage.63	FOODEEG_Images\0645.jpg	YN	Left	Yes	0.95571060013026	0	386001	253
754.853515625	0	health	response	2	85	25	foodImage.63	FOODEEG_Images\0645.jpg	YN	Left	Yes	0.95571060013026	0	386486	234
755.896484375	1	taste	trialStart	2	86	26	foodImage.64	FOODEEG_Images\0647.jpg	YN	Left	Yes	0.8004902000539	0	387020	251
756.951171875	2	taste	foodImageDisplay	2	86	26	foodImage.64	FOODEEG_Images\0647.jpg	YN	Left	Yes	0.8004902000539	0	387560	252
759.013671875	0.8004902000539	taste	choicePhaseStart	2	86	26	foodImage.64	FOODEEG_Images\0647.jpg	YN	Left	Yes	0.8004902000539	0	388616	253
759.8046875	0	taste	response	2	86	26	foodImage.64	FOODEEG_Images\0647.jpg	YN	Left	Yes	0.8004902000539	0	389021	234
760.845703125	1	decision	trialStart	2	87	27	foodImage.63	FOODEEG_Images\0645.jpg	NY	Right	Yes	0.847953600110486	0	389554	251
761.88671875	2	decision	foodImageDisplay	2	87	27	foodImage.63	FOODEEG_Images\0645.jpg	NY	Right	Yes	0.847953600110486	0	390087	252
763.94921875	0.847953600110486	decision	choicePhaseStart	2	87	27	foodImage.63	FOODEEG_Images\0645.jpg	NY	Right	Yes	0.847953600110486	0	391143	253
764.7890625	0	decision	response	2	87	27	foodImage.63	FOODEEG_Images\0645.jpg	NY	Right	Yes	0.847953600110486	0	391573	235
765.83203125	1	taste	trialStart	2	88	28	foodImage.40	FOODEEG_Images\0373.jpg	YN	Left	Yes	0.765214399900287	0	392107	251
766.873046875	2	taste	foodImageDisplay	2	88	28	foodImage.40	FOODEEG_Images\0373.jpg	YN	Left	Yes	0.765214399900287	0	392640	252
768.935546875	0.765214399900287	taste	choicePhaseStart	2	88	28	foodImage.40	FOODEEG_Images\0373.jpg	YN	Left	Yes	0.765214399900287	0	393696	253
769.693359375	0	taste	response	2	88	28	foodImage.40	FOODEEG_Images\0373.jpg	YN	Left	Yes	0.765214399900287	0	394084	234
770.736328125	1	health	trialStart	2	89	29	foodImage.81	FOODEEG_Images\0797.jpg	NY	Right	Yes	0.999412799952552	0	394618	251
771.791015625	2	health	foodImageDisplay	2	89	29	foodImage.81	FOODEEG_Images\0797.jpg	NY	Right	Yes	0.999412799952552	0	395158	252
773.853515625	0.999412799952552	health	choicePhaseStart	2	89	29	foodImage.81	FOODEEG_Images\0797.jpg	NY	Right	Yes	0.999412799952552	0	396214	253
774.84375	0	health	response	2	89	29	foodImage.81	FOODEEG_Images\0797.jpg	NY	Right	Yes	0.999412799952552	0	396721	235
775.88671875	1	decision	trialStart	2	90	30	foodImage.47	FOODEEG_Images\0488.jpg	NY	Right	Yes	0.797181100118905	0	397255	251
776.9296875	2	decision	foodImageDisplay	2	90	30	foodImage.47	FOODEEG_Images\0488.jpg	NY	Right	Yes	0.797181100118905	0	397789	252
778.9921875	0.797181100118905	decision	choicePhaseStart	2	90	30	foodImage.47	FOODEEG_Images\0488.jpg	NY	Right	Yes	0.797181100118905	0	398845	253
779.779296875	0	decision	response	2	90	30	foodImage.47	FOODEEG_Images\0488.jpg	NY	Right	Yes	0.797181100118905	0	399248	235
780.822265625	1	health	trialStart	2	91	31	foodImage.43	FOODEEG_Images\0445.jpg	YN	Left	Yes	0.861725799972191	0	399782	251
781.880859375	2	health	foodImageDisplay	2	91	31	foodImage.43	FOODEEG_Images\0445.jpg	YN	Left	Yes	0.861725799972191	0	400324	252
783.943359375	0.861725799972191	health	choicePhaseStart	2	91	31	foodImage.43	FOODEEG_Images\0445.jpg	YN	Left	Yes	0.861725799972191	0	401380	253
784.794921875	0	health	response	2	91	31	foodImage.43	FOODEEG_Images\0445.jpg	YN	Left	Yes	0.861725799972191	0	401816	234
785.837890625	1	taste	trialStart	2	92	32	foodImage.107	FOODEEG_Images\0915.jpg	NY	Left	No	0.945395300164819	0	402350	251
786.892578125	2	taste	foodImageDisplay	2	92	32	foodImage.107	FOODEEG_Images\0915.jpg	NY	Left	No	0.945395300164819	0	402890	252
788.955078125	0.945395300164819	taste	choicePhaseStart	2	92	32	foodImage.107	FOODEEG_Images\0915.jpg	NY	Left	No	0.945395300164819	0	403946	253
789.890625	0	taste	response	2	92	32	foodImage.107	FOODEEG_Images\0915.jpg	NY	Left	No	0.945395300164819	0	404425	234
790.935546875	1	health	trialStart	2	93	33	foodImage.1	FOODEEG_Images\0004.jpg	YN	Left	Yes	0.955238500144333	0	404960	251
791.978515625	2	health	foodImageDisplay	2	93	33	foodImage.1	FOODEEG_Images\0004.jpg	YN	Left	Yes	0.955238500144333	0	405494	252
794.041015625	0.955238500144333	health	choicePhaseStart	2	93	33	foodImage.1	FOODEEG_Images\0004.jpg	YN	Left	Yes	0.955238500144333	0	406550	253
794.98828125	0	health	response	2	93	33	foodImage.1	FOODEEG_Images\0004.jpg	YN	Left	Yes	0.955238500144333	0	407035	234
796.029296875	1	health	trialStart	2	94	34	foodImage.68	FOODEEG_Images\0685.jpg	NY	Left	No	1.62222970020957	0	407568	251
797.10546875	2	health	foodImageDisplay	2	94	34	foodImage.68	FOODEEG_Images\0685.jpg	NY	Left	No	1.62222970020957	0	408119	252
799.166015625	1.62222970020957	health	choicePhaseStart	2	94	34	foodImage.68	FOODEEG_Images\0685.jpg	NY	Left	No	1.62222970020957	0	409174	253
800.779296875	0	health	response	2	94	34	foodImage.68	FOODEEG_Images\0685.jpg	NY	Left	No	1.62222970020957	0	410000	234
801.822265625	1	health	trialStart	2	95	35	foodImage.98	FOODEEG_Images\0906.jpg	YN	Right	No	1.1191400999669	0	410534	251
802.861328125	2	health	foodImageDisplay	2	95	35	foodImage.98	FOODEEG_Images\0906.jpg	YN	Right	No	1.1191400999669	0	411066	252
804.923828125	1.1191400999669	health	choicePhaseStart	2	95	35	foodImage.98	FOODEEG_Images\0906.jpg	YN	Right	No	1.1191400999669	0	412122	253
806.03515625	0	health	response	2	95	35	foodImage.98	FOODEEG_Images\0906.jpg	YN	Right	No	1.1191400999669	0	412691	235
807.078125	1	taste	trialStart	2	96	36	foodImage.37	FOODEEG_Images\0359.jpg	NY	Right	Yes	1.35813120007515	0	413225	251
808.119140625	2	taste	foodImageDisplay	2	96	36	foodImage.37	FOODEEG_Images\0359.jpg	NY	Right	Yes	1.35813120007515	0	413758	252
810.181640625	1.35813120007515	taste	choicePhaseStart	2	96	36	foodImage.37	FOODEEG_Images\0359.jpg	NY	Right	Yes	1.35813120007515	0	414814	253
811.53125	0	taste	response	2	96	36	foodImage.37	FOODEEG_Images\0359.jpg	NY	Right	Yes	1.35813120007515	0	415505	235
812.57421875	1	decision	trialStart	2	97	37	foodImage.24	FOODEEG_Images\0250.jpg	NY	Right	Yes	0.893174899974838	0	416039	251
813.615234375	2	decision	foodImageDisplay	2	97	37	foodImage.24	FOODEEG_Images\0250.jpg	NY	Right	Yes	0.893174899974838	0	416572	252
815.677734375	0.893174899974838	decision	choicePhaseStart	2	97	37	foodImage.24	FOODEEG_Images\0250.jpg	NY	Right	Yes	0.893174899974838	0	417628	253
816.5625	0	decision	response	2	97	37	foodImage.24	FOODEEG_Images\0250.jpg	NY	Right	Yes	0.893174899974838	0	418081	235
817.60546875	1	taste	trialStart	2	98	38	foodImage.79	FOODEEG_Images\0794.jpg	NY	Left	No	0.820399000076577	0	418615	251
818.6484375	2	taste	foodImageDisplay	2	98	38	foodImage.79	FOODEEG_Images\0794.jpg	NY	Left	No	0.820399000076577	0	419149	252
820.7109375	0.820399000076577	taste	choicePhaseStart	2	98	38	foodImage.79	FOODEEG_Images\0794.jpg	NY	Left	No	0.820399000076577	0	420205	253
821.521484375	0	taste	response	2	98	38	foodImage.79	FOODEEG_Images\0794.jpg	NY	Left	No	0.820399000076577	0	420620	234
822.564453125	1	decision	trialStart	2	99	39	foodImage.31	FOODEEG_Images\0294.jpg	YN	Left	Yes	0.860443599987775	0	421154	251
823.607421875	2	decision	foodImageDisplay	2	99	39	foodImage.31	FOODEEG_Images\0294.jpg	YN	Left	Yes	0.860443599987775	0	421688	252
825.669921875	0.860443599987775	decision	choicePhaseStart	2	99	39	foodImage.31	FOODEEG_Images\0294.jpg	YN	Left	Yes	0.860443599987775	0	422744	253
826.521484375	0	decision	response	2	99	39	foodImage.31	FOODEEG_Images\0294.jpg	YN	Left	Yes	0.860443599987775	0	423180	234
827.564453125	1	taste	trialStart	2	100	40	foodImage.76	FOODEEG_Images\0766.jpg	NY	Left	No	1.42681459989399	0	423714	251
828.609375	2	taste	foodImageDisplay	2	100	40	foodImage.76	FOODEEG_Images\0766.jpg	NY	Left	No	1.42681459989399	0	424249	252
830.671875	1.42681459989399	taste	choicePhaseStart	2	100	40	foodImage.76	FOODEEG_Images\0766.jpg	NY	Left	No	1.42681459989399	0	425305	253
832.08984375	0	taste	response	2	100	40	foodImage.76	FOODEEG_Images\0766.jpg	NY	Left	No	1.42681459989399	0	426031	234
833.1328125	1	taste	trialStart	2	101	41	foodImage.14	FOODEEG_Images\0188.jpg	NY	Left	No	0.909310899907723	0	426565	251
834.19140625	2	taste	foodImageDisplay	2	101	41	foodImage.14	FOODEEG_Images\0188.jpg	NY	Left	No	0.909310899907723	0	427107	252
836.25390625	0.909310899907723	taste	choicePhaseStart	2	101	41	foodImage.14	FOODEEG_Images\0188.jpg	NY	Left	No	0.909310899907723	0	428163	253
837.154296875	0	taste	response	2	101	41	foodImage.14	FOODEEG_Images\0188.jpg	NY	Left	No	0.909310899907723	0	428624	234
838.1953125	1	decision	trialStart	2	102	42	foodImage.115	FOODEEG_Images\0923.jpg	NY	Left	No	0.858592599863186	0	429157	251
839.232421875	2	decision	foodImageDisplay	2	102	42	foodImage.115	FOODEEG_Images\0923.jpg	NY	Left	No	0.858592599863186	0	429688	252
841.294921875	0.858592599863186	decision	choicePhaseStart	2	102	42	foodImage.115	FOODEEG_Images\0923.jpg	NY	Left	No	0.858592599863186	0	430744	253
842.146484375	0	decision	response	2	102	42	foodImage.115	FOODEEG_Images\0923.jpg	NY	Left	No	0.858592599863186	0	431180	234
843.189453125	1	decision	trialStart	2	103	43	foodImage.55	FOODEEG_Images\0567.jpg	NY	Left	No	0.837663799989969	0	431714	251
844.244140625	2	decision	foodImageDisplay	2	103	43	foodImage.55	FOODEEG_Images\0567.jpg	NY	Left	No	0.837663799989969	0	432254	252
846.306640625	0.837663799989969	decision	choicePhaseStart	2	103	43	foodImage.55	FOODEEG_Images\0567.jpg	NY	Left	No	0.837663799989969	0	433310	253
847.13671875	0	decision	response	2	103	43	foodImage.55	FOODEEG_Images\0567.jpg	NY	Left	No	0.837663799989969	0	433735	234
848.1796875	1	decision	trialStart	2	104	44	foodImage.70	FOODEEG_Images\0705.jpg	YN	Left	Yes	0.837240300141275	0	434269	251
849.23828125	2	decision	foodImageDisplay	2	104	44	foodImage.70	FOODEEG_Images\0705.jpg	YN	Left	Yes	0.837240300141275	0	434811	252
851.30078125	0.837240300141275	decision	choicePhaseStart	2	104	44	foodImage.70	FOODEEG_Images\0705.jpg	YN	Left	Yes	0.837240300141275	0	435867	253
852.12890625	0	decision	response	2	104	44	foodImage.70	FOODEEG_Images\0705.jpg	YN	Left	Yes	0.837240300141275	0	436291	234
853.171875	1	decision	trialStart	2	105	45	foodImage.110	FOODEEG_Images\0918.jpg	YN	Right	No	0.920829999959096	0	436825	251
854.2109375	2	decision	foodImageDisplay	2	105	45	foodImage.110	FOODEEG_Images\0918.jpg	YN	Right	No	0.920829999959096	0	437357	252
856.2734375	0.920829999959096	decision	choicePhaseStart	2	105	45	foodImage.110	FOODEEG_Images\0918.jpg	YN	Right	No	0.920829999959096	0	438413	253
857.185546875	0	decision	response	2	105	45	foodImage.110	FOODEEG_Images\0918.jpg	YN	Right	No	0.920829999959096	0	438880	235
858.2265625	1	health	trialStart	2	106	46	foodImage.119	FOODEEG_Images\0927.jpg	YN	Right	No	1.08998339995742	0	439413	251
859.265625	2	health	foodImageDisplay	2	106	46	foodImage.119	FOODEEG_Images\0927.jpg	YN	Right	No	1.08998339995742	0	439945	252
861.328125	1.08998339995742	health	choicePhaseStart	2	106	46	foodImage.119	FOODEEG_Images\0927.jpg	YN	Right	No	1.08998339995742	0	441001	253
862.408203125	0	health	response	2	106	46	foodImage.119	FOODEEG_Images\0927.jpg	YN	Right	No	1.08998339995742	0	441554	235
863.45703125	1	taste	trialStart	2	107	47	foodImage.89	FOODEEG_Images\0881.jpg	NY	Right	Yes	0.814120399998501	0	442091	251
864.509765625	2	taste	foodImageDisplay	2	107	47	foodImage.89	FOODEEG_Images\0881.jpg	NY	Right	Yes	0.814120399998501	0	442630	252
866.572265625	0.814120399998501	taste	choicePhaseStart	2	107	47	foodImage.89	FOODEEG_Images\0881.jpg	NY	Right	Yes	0.814120399998501	0	443686	253
867.376953125	0	taste	response	2	107	47	foodImage.89	FOODEEG_Images\0881.jpg	NY	Right	Yes	0.814120399998501	0	444098	235
868.41796875	1	decision	trialStart	2	108	48	foodImage.50	FOODEEG_Images\0529.jpg	YN	Left	Yes	0.760984999826178	0	444631	251
869.48046875	2	decision	foodImageDisplay	2	108	48	foodImage.50	FOODEEG_Images\0529.jpg	YN	Left	Yes	0.760984999826178	0	445175	252
871.548828125	0.760984999826178	decision	choicePhaseStart	2	108	48	foodImage.50	FOODEEG_Images\0529.jpg	YN	Left	Yes	0.760984999826178	0	446234	253
872.3046875	0	decision	response	2	108	48	foodImage.50	FOODEEG_Images\0529.jpg	YN	Left	Yes	0.760984999826178	0	446621	234
873.345703125	1	taste	trialStart	2	109	49	foodImage.41	FOODEEG_Images\0409.jpg	NY	Right	Yes	0.674877000041306	0	447154	251
874.392578125	2	taste	foodImageDisplay	2	109	49	foodImage.41	FOODEEG_Images\0409.jpg	NY	Right	Yes	0.674877000041306	0	447690	252
876.453125	0.674877000041306	taste	choicePhaseStart	2	109	49	foodImage.41	FOODEEG_Images\0409.jpg	NY	Right	Yes	0.674877000041306	0	448745	253
877.119140625	0	taste	response	2	109	49	foodImage.41	FOODEEG_Images\0409.jpg	NY	Right	Yes	0.674877000041306	0	449086	235
878.1640625	1	decision	trialStart	2	110	50	foodImage.29	FOODEEG_Images\0278.jpg	YN	Right	No	2.45473530003801	0	449621	251
879.203125	2	decision	foodImageDisplay	2	110	50	foodImage.29	FOODEEG_Images\0278.jpg	YN	Right	No	2.45473530003801	0	450153	252
881.265625	2.45473530003801	decision	choicePhaseStart	2	110	50	foodImage.29	FOODEEG_Images\0278.jpg	YN	Right	No	2.45473530003801	0	451209	253
883.7109375	0	decision	response	2	110	50	foodImage.29	FOODEEG_Images\0278.jpg	YN	Right	No	2.45473530003801	0	452461	235
884.755859375	1	decision	trialStart	2	111	51	foodImage.113	FOODEEG_Images\0921.jpg	NY	Left	No	1.02262009982951	0	452996	251
885.794921875	2	decision	foodImageDisplay	2	111	51	foodImage.113	FOODEEG_Images\0921.jpg	NY	Left	No	1.02262009982951	0	453528	252
887.857421875	1.02262009982951	decision	choicePhaseStart	2	111	51	foodImage.113	FOODEEG_Images\0921.jpg	NY	Left	No	1.02262009982951	0	454584	253
888.87109375	0	decision	response	2	111	51	foodImage.113	FOODEEG_Images\0921.jpg	NY	Left	No	1.02262009982951	0	455103	234
889.9140625	1	decision	trialStart	2	112	52	foodImage.78	FOODEEG_Images\0787.jpg	YN	Right	No	2.04456539987586	0	455637	251
890.95703125	2	decision	foodImageDisplay	2	112	52	foodImage.78	FOODEEG_Images\0787.jpg	YN	Right	No	2.04456539987586	0	456171	252
893.01953125	2.04456539987586	decision	choicePhaseStart	2	112	52	foodImage.78	FOODEEG_Images\0787.jpg	YN	Right	No	2.04456539987586	0	457227	253
895.0546875	0	decision	response	2	112	52	foodImage.78	FOODEEG_Images\0787.jpg	YN	Right	No	2.04456539987586	0	458269	235
896.09765625	1	decision	trialStart	2	113	53	foodImage.34	FOODEEG_Images\0339.jpg	YN	Left	Yes	0.788765100063756	0	458803	251
897.15625	2	decision	foodImageDisplay	2	113	53	foodImage.34	FOODEEG_Images\0339.jpg	YN	Left	Yes	0.788765100063756	0	459345	252
899.21875	0.788765100063756	decision	choicePhaseStart	2	113	53	foodImage.34	FOODEEG_Images\0339.jpg	YN	Left	Yes	0.788765100063756	0	460401	253
899.998046875	0	decision	response	2	113	53	foodImage.34	FOODEEG_Images\0339.jpg	YN	Left	Yes	0.788765100063756	0	460800	234
901.048828125	1	taste	trialStart	2	114	54	foodImage.118	FOODEEG_Images\0926.jpg	YN	Right	No	1.01791930012405	0	461338	251
902.087890625	2	taste	foodImageDisplay	2	114	54	foodImage.118	FOODEEG_Images\0926.jpg	YN	Right	No	1.01791930012405	0	461870	252
904.150390625	1.01791930012405	taste	choicePhaseStart	2	114	54	foodImage.118	FOODEEG_Images\0926.jpg	YN	Right	No	1.01791930012405	0	462926	253
905.158203125	0	taste	response	2	114	54	foodImage.118	FOODEEG_Images\0926.jpg	YN	Right	No	1.01791930012405	0	463442	235
906.208984375	1	taste	trialStart	2	115	55	foodImage.53	FOODEEG_Images\0547.jpg	NY	Left	No	0.950066899880767	0	463980	251
907.291015625	2	taste	foodImageDisplay	2	115	55	foodImage.53	FOODEEG_Images\0547.jpg	NY	Left	No	0.950066899880767	0	464534	252
909.353515625	0.950066899880767	taste	choicePhaseStart	2	115	55	foodImage.53	FOODEEG_Images\0547.jpg	NY	Left	No	0.950066899880767	0	465590	253
910.294921875	0	taste	response	2	115	55	foodImage.53	FOODEEG_Images\0547.jpg	NY	Left	No	0.950066899880767	0	466072	234
911.345703125	1	health	trialStart	2	116	56	foodImage.27	FOODEEG_Images\0263.jpg	YN	Left	Yes	1.48328380007297	0	466610	251
912.388671875	2	health	foodImageDisplay	2	116	56	foodImage.27	FOODEEG_Images\0263.jpg	YN	Left	Yes	1.48328380007297	0	467144	252
914.451171875	1.48328380007297	health	choicePhaseStart	2	116	56	foodImage.27	FOODEEG_Images\0263.jpg	YN	Left	Yes	1.48328380007297	0	468200	253
915.92578125	0	health	response	2	116	56	foodImage.27	FOODEEG_Images\0263.jpg	YN	Left	Yes	1.48328380007297	0	468955	234
916.970703125	1	health	trialStart	2	117	57	foodImage.93	FOODEEG_Images\0901.jpg	YN	Right	No	1.19053859985434	0	469490	251
918.009765625	2	health	foodImageDisplay	2	117	57	foodImage.93	FOODEEG_Images\0901.jpg	YN	Right	No	1.19053859985434	0	470022	252
920.072265625	1.19053859985434	health	choicePhaseStart	2	117	57	foodImage.93	FOODEEG_Images\0901.jpg	YN	Right	No	1.19053859985434	0	471078	253
921.25390625	0	health	response	2	117	57	foodImage.93	FOODEEG_Images\0901.jpg	YN	Right	No	1.19053859985434	0	471683	235
922.310546875	1	health	trialStart	2	118	58	foodImage.17	FOODEEG_Images\0199.jpg	NY	Right	Yes	0.881093600066379	0	472224	251
923.3515625	2	health	foodImageDisplay	2	118	58	foodImage.17	FOODEEG_Images\0199.jpg	NY	Right	Yes	0.881093600066379	0	472757	252
925.4140625	0.881093600066379	health	choicePhaseStart	2	118	58	foodImage.17	FOODEEG_Images\0199.jpg	NY	Right	Yes	0.881093600066379	0	473813	253
926.28515625	0	health	response	2	118	58	foodImage.17	FOODEEG_Images\0199.jpg	NY	Right	Yes	0.881093600066379	0	474259	235
927.34375	1	taste	trialStart	2	119	59	foodImage.97	FOODEEG_Images\0905.jpg	NY	Left	No	0.872982400003821	0	474801	251
928.3828125	2	taste	foodImageDisplay	2	119	59	foodImage.97	FOODEEG_Images\0905.jpg	NY	Left	No	0.872982400003821	0	475333	252
930.4453125	0.872982400003821	taste	choicePhaseStart	2	119	59	foodImage.97	FOODEEG_Images\0905.jpg	NY	Left	No	0.872982400003821	0	476389	253
931.310546875	0	taste	response	2	119	59	foodImage.97	FOODEEG_Images\0905.jpg	NY	Left	No	0.872982400003821	0	476832	234
932.349609375	1	decision	trialStart	2	120	60	foodImage.86	FOODEEG_Images\0844.jpg	NY	Right	Yes	0.868264300050214	0	477364	251
933.404296875	2	decision	foodImageDisplay	2	120	60	foodImage.86	FOODEEG_Images\0844.jpg	NY	Right	Yes	0.868264300050214	0	477904	252
935.466796875	0.868264300050214	decision	choicePhaseStart	2	120	60	foodImage.86	FOODEEG_Images\0844.jpg	NY	Right	Yes	0.868264300050214	0	478960	253
936.326171875	0	decision	response	2	120	60	foodImage.86	FOODEEG_Images\0844.jpg	NY	Right	Yes	0.868264300050214	0	479400	235
938.369140625	18.595703125	n/a	blockEnd	n/a	n/a	n/a	n/a	n/a	n/a	n/a	n/a	n/a	n/a	480446	254
956.96484375	2	n/a	blockStart	3	n/a	n/a	n/a	n/a	n/a	n/a	n/a	n/a	n/a	489967	250
958.998046875	1	taste	trialStart	3	121	1	foodImage.30	FOODEEG_Images\0282.jpg	NY	Right	Yes	1.0565400000196	0	491008	251
960.0625	2	taste	foodImageDisplay	3	121	1	foodImage.30	FOODEEG_Images\0282.jpg	NY	Right	Yes	1.0565400000196	0	491553	252
962.125	1.0565400000196	taste	choicePhaseStart	3	121	1	foodImage.30	FOODEEG_Images\0282.jpg	NY	Right	Yes	1.0565400000196	0	492609	253
963.171875	0	taste	response	3	121	1	foodImage.30	FOODEEG_Images\0282.jpg	NY	Right	Yes	1.0565400000196	0	493145	235
964.21484375	1	decision	trialStart	3	122	2	foodImage.72	FOODEEG_Images\0714.jpg	NY	Left	No	0.774087299825624	0	493679	251
965.2578125	2	decision	foodImageDisplay	3	122	2	foodImage.72	FOODEEG_Images\0714.jpg	NY	Left	No	0.774087299825624	0	494213	252
967.3203125	0.774087299825624	decision	choicePhaseStart	3	122	2	foodImage.72	FOODEEG_Images\0714.jpg	NY	Left	No	0.774087299825624	0	495269	253
968.083984375	0	decision	response	3	122	2	foodImage.72	FOODEEG_Images\0714.jpg	NY	Left	No	0.774087299825624	0	495660	234
969.126953125	1	taste	trialStart	3	123	3	foodImage.73	FOODEEG_Images\0717.jpg	NY	Right	Yes	0.716700699878857	0	496194	251
970.193359375	2	taste	foodImageDisplay	3	123	3	foodImage.73	FOODEEG_Images\0717.jpg	NY	Right	Yes	0.716700699878857	0	496740	252
972.255859375	0.716700699878857	taste	choicePhaseStart	3	123	3	foodImage.73	FOODEEG_Images\0717.jpg	NY	Right	Yes	0.716700699878857	0	497796	253
972.96484375	0	taste	response	3	123	3	foodImage.73	FOODEEG_Images\0717.jpg	NY	Right	Yes	0.716700699878857	0	498159	235
974.005859375	1	decision	trialStart	3	124	4	foodImage.108	FOODEEG_Images\0916.jpg	NY	Right	Yes	0.834236699854955	0	498692	251
975.044921875	2	decision	foodImageDisplay	3	124	4	foodImage.108	FOODEEG_Images\0916.jpg	NY	Right	Yes	0.834236699854955	0	499224	252
977.10546875	0.834236699854955	decision	choicePhaseStart	3	124	4	foodImage.108	FOODEEG_Images\0916.jpg	NY	Right	Yes	0.834236699854955	0	500279	253
977.931640625	0	decision	response	3	124	4	foodImage.108	FOODEEG_Images\0916.jpg	NY	Right	Yes	0.834236699854955	0	500702	235
978.974609375	1	health	trialStart	3	125	5	foodImage.26	FOODEEG_Images\0262.jpg	YN	Right	No	1.43839700007811	0	501236	251
980.017578125	2	health	foodImageDisplay	3	125	5	foodImage.26	FOODEEG_Images\0262.jpg	YN	Right	No	1.43839700007811	0	501770	252
982.080078125	1.43839700007811	health	choicePhaseStart	3	125	5	foodImage.26	FOODEEG_Images\0262.jpg	YN	Right	No	1.43839700007811	0	502826	253
983.5078125	0	health	response	3	125	5	foodImage.26	FOODEEG_Images\0262.jpg	YN	Right	No	1.43839700007811	0	503557	235
984.55078125	1	taste	trialStart	3	126	6	foodImage.81	FOODEEG_Images\0797.jpg	NY	Left	No	0.924444000003859	0	504091	251
985.609375	2	taste	foodImageDisplay	3	126	6	foodImage.81	FOODEEG_Images\0797.jpg	NY	Left	No	0.924444000003859	0	504633	252
987.671875	0.924444000003859	taste	choicePhaseStart	3	126	6	foodImage.81	FOODEEG_Images\0797.jpg	NY	Left	No	0.924444000003859	0	505689	253
988.587890625	0	taste	response	3	126	6	foodImage.81	FOODEEG_Images\0797.jpg	NY	Left	No	0.924444000003859	0	506158	234
989.6328125	1	health	trialStart	3	127	7	foodImage.36	FOODEEG_Images\0352.jpg	YN	Left	Yes	1.43099519982934	0	506693	251
990.6875	2	health	foodImageDisplay	3	127	7	foodImage.36	FOODEEG_Images\0352.jpg	YN	Left	Yes	1.43099519982934	0	507233	252
992.75	1.43099519982934	health	choicePhaseStart	3	127	7	foodImage.36	FOODEEG_Images\0352.jpg	YN	Left	Yes	1.43099519982934	0	508289	253
994.171875	0	health	response	3	127	7	foodImage.36	FOODEEG_Images\0352.jpg	YN	Left	Yes	1.43099519982934	0	509017	234
995.216796875	1	decision	trialStart	3	128	8	foodImage.117	FOODEEG_Images\0925.jpg	NY	Right	Yes	0.824026199989021	0	509552	251
996.25390625	2	decision	foodImageDisplay	3	128	8	foodImage.117	FOODEEG_Images\0925.jpg	NY	Right	Yes	0.824026199989021	0	510083	252
998.31640625	0.824026199989021	decision	choicePhaseStart	3	128	8	foodImage.117	FOODEEG_Images\0925.jpg	NY	Right	Yes	0.824026199989021	0	511139	253
999.130859375	0	decision	response	3	128	8	foodImage.117	FOODEEG_Images\0925.jpg	NY	Right	Yes	0.824026199989021	0	511556	235
1000.17578125	1	taste	trialStart	3	129	9	foodImage.62	FOODEEG_Images\0644.jpg	NY	Left	No	0.870147699955851	0	512091	251
1001.232421875	2	taste	foodImageDisplay	3	129	9	foodImage.62	FOODEEG_Images\0644.jpg	NY	Left	No	0.870147699955851	0	512632	252
1003.294921875	0.870147699955851	taste	choicePhaseStart	3	129	9	foodImage.62	FOODEEG_Images\0644.jpg	NY	Left	No	0.870147699955851	0	513688	253
1004.15625	0	taste	response	3	129	9	foodImage.62	FOODEEG_Images\0644.jpg	NY	Left	No	0.870147699955851	0	514129	234
1005.19921875	1	health	trialStart	3	130	10	foodImage.83	FOODEEG_Images\0827.jpg	YN	Left	Yes	0.744366900064051	0	514663	251
1006.25390625	2	health	foodImageDisplay	3	130	10	foodImage.83	FOODEEG_Images\0827.jpg	YN	Left	Yes	0.744366900064051	0	515203	252
1008.31640625	0.744366900064051	health	choicePhaseStart	3	130	10	foodImage.83	FOODEEG_Images\0827.jpg	YN	Left	Yes	0.744366900064051	0	516259	253
1009.05078125	0	health	response	3	130	10	foodImage.83	FOODEEG_Images\0827.jpg	YN	Left	Yes	0.744366900064051	0	516635	234
1010.09375	1	health	trialStart	3	131	11	foodImage.18	FOODEEG_Images\0202.jpg	YN	Left	Yes	0.685041500022635	0	517169	251
1011.15234375	2	health	foodImageDisplay	3	131	11	foodImage.18	FOODEEG_Images\0202.jpg	YN	Left	Yes	0.685041500022635	0	517711	252
1013.21484375	0.685041500022635	health	choicePhaseStart	3	131	11	foodImage.18	FOODEEG_Images\0202.jpg	YN	Left	Yes	0.685041500022635	0	518767	253
1013.890625	0	health	response	3	131	11	foodImage.18	FOODEEG_Images\0202.jpg	YN	Left	Yes	0.685041500022635	0	519113	234
1014.93359375	1	decision	trialStart	3	132	12	foodImage.99	FOODEEG_Images\0907.jpg	YN	Right	No	0.969569099834189	0	519647	251
1015.970703125	2	decision	foodImageDisplay	3	132	12	foodImage.99	FOODEEG_Images\0907.jpg	YN	Right	No	0.969569099834189	0	520178	252
1018.033203125	0.969569099834189	decision	choicePhaseStart	3	132	12	foodImage.99	FOODEEG_Images\0907.jpg	YN	Right	No	0.969569099834189	0	521234	253
1018.994140625	0	decision	response	3	132	12	foodImage.99	FOODEEG_Images\0907.jpg	YN	Right	No	0.969569099834189	0	521726	235
1020.0390625	1	taste	trialStart	3	133	13	foodImage.42	FOODEEG_Images\0438.jpg	NY	Right	Yes	0.824322500033304	0	522261	251
1021.125	2	taste	foodImageDisplay	3	133	13	foodImage.42	FOODEEG_Images\0438.jpg	NY	Right	Yes	0.824322500033304	0	522817	252
1023.1875	0.824322500033304	taste	choicePhaseStart	3	133	13	foodImage.42	FOODEEG_Images\0438.jpg	NY	Right	Yes	0.824322500033304	0	523873	253
1024.001953125	0	taste	response	3	133	13	foodImage.42	FOODEEG_Images\0438.jpg	NY	Right	Yes	0.824322500033304	0	524290	235
1025.04296875	1	taste	trialStart	3	134	14	foodImage.86	FOODEEG_Images\0844.jpg	NY	Right	Yes	0.93462279997766	0	524823	251
1026.1015625	2	taste	foodImageDisplay	3	134	14	foodImage.86	FOODEEG_Images\0844.jpg	NY	Right	Yes	0.93462279997766	0	525365	252
1028.1640625	0.93462279997766	taste	choicePhaseStart	3	134	14	foodImage.86	FOODEEG_Images\0844.jpg	NY	Right	Yes	0.93462279997766	0	526421	253
1029.08984375	0	taste	response	3	134	14	foodImage.86	FOODEEG_Images\0844.jpg	NY	Right	Yes	0.93462279997766	0	526895	235
1030.1328125	1	health	trialStart	3	135	15	foodImage.67	FOODEEG_Images\0679.jpg	YN	Right	No	1.56374970008619	0	527429	251
1031.193359375	2	health	foodImageDisplay	3	135	15	foodImage.67	FOODEEG_Images\0679.jpg	YN	Right	No	1.56374970008619	0	527972	252
1033.255859375	1.56374970008619	health	choicePhaseStart	3	135	15	foodImage.67	FOODEEG_Images\0679.jpg	YN	Right	No	1.56374970008619	0	529028	253
1034.810546875	0	health	response	3	135	15	foodImage.67	FOODEEG_Images\0679.jpg	YN	Right	No	1.56374970008619	0	529824	235
1035.859375	1	taste	trialStart	3	136	16	foodImage.113	FOODEEG_Images\0921.jpg	NY	Left	No	1.47426209994592	0	530361	251
1036.8984375	2	taste	foodImageDisplay	3	136	16	foodImage.113	FOODEEG_Images\0921.jpg	NY	Left	No	1.47426209994592	0	530893	252
1038.9609375	1.47426209994592	taste	choicePhaseStart	3	136	16	foodImage.113	FOODEEG_Images\0921.jpg	NY	Left	No	1.47426209994592	0	531949	253
1040.42578125	0	taste	response	3	136	16	foodImage.113	FOODEEG_Images\0921.jpg	NY	Left	No	1.47426209994592	0	532699	234
1041.470703125	1	decision	trialStart	3	137	17	foodImage.20	FOODEEG_Images\0226.jpg	NY	Right	Yes	1.02670020004734	0	533234	251
1042.513671875	2	decision	foodImageDisplay	3	137	17	foodImage.20	FOODEEG_Images\0226.jpg	NY	Right	Yes	1.02670020004734	0	533768	252
1044.57421875	1.02670020004734	decision	choicePhaseStart	3	137	17	foodImage.20	FOODEEG_Images\0226.jpg	NY	Right	Yes	1.02670020004734	0	534823	253
1045.59375	0	decision	response	3	137	17	foodImage.20	FOODEEG_Images\0226.jpg	NY	Right	Yes	1.02670020004734	0	535345	235
1046.634765625	1	taste	trialStart	3	138	18	foodImage.17	FOODEEG_Images\0199.jpg	YN	Left	Yes	0.79278440005146	0	535878	251
1047.67578125	2	taste	foodImageDisplay	3	138	18	foodImage.17	FOODEEG_Images\0199.jpg	YN	Left	Yes	0.79278440005146	0	536411	252
1049.73828125	0.79278440005146	taste	choicePhaseStart	3	138	18	foodImage.17	FOODEEG_Images\0199.jpg	YN	Left	Yes	0.79278440005146	0	537467	253
1050.521484375	0	taste	response	3	138	18	foodImage.17	FOODEEG_Images\0199.jpg	YN	Left	Yes	0.79278440005146	0	537868	234
1051.564453125	1	decision	trialStart	3	139	19	foodImage.109	FOODEEG_Images\0917.jpg	NY	Left	No	0.816617599921301	0	538402	251
1052.6015625	2	decision	foodImageDisplay	3	139	19	foodImage.109	FOODEEG_Images\0917.jpg	NY	Left	No	0.816617599921301	0	538933	252
1054.6640625	0.816617599921301	decision	choicePhaseStart	3	139	19	foodImage.109	FOODEEG_Images\0917.jpg	NY	Left	No	0.816617599921301	0	539989	253
1055.47265625	0	decision	response	3	139	19	foodImage.109	FOODEEG_Images\0917.jpg	NY	Left	No	0.816617599921301	0	540403	234
1056.515625	1	health	trialStart	3	140	20	foodImage.120	FOODEEG_Images\0928.jpg	NY	Left	No	0.785856399917975	0	540937	251
1057.552734375	2	health	foodImageDisplay	3	140	20	foodImage.120	FOODEEG_Images\0928.jpg	NY	Left	No	0.785856399917975	0	541468	252
1059.615234375	0.785856399917975	health	choicePhaseStart	3	140	20	foodImage.120	FOODEEG_Images\0928.jpg	NY	Left	No	0.785856399917975	0	542524	253
1060.392578125	0	health	response	3	140	20	foodImage.120	FOODEEG_Images\0928.jpg	NY	Left	No	0.785856399917975	0	542922	234
1061.4375	1	decision	trialStart	3	141	21	foodImage.107	FOODEEG_Images\0915.jpg	YN	Left	Yes	0.837124699959531	0	543457	251
1062.4765625	2	decision	foodImageDisplay	3	141	21	foodImage.107	FOODEEG_Images\0915.jpg	YN	Left	Yes	0.837124699959531	0	543989	252
1064.5390625	0.837124699959531	decision	choicePhaseStart	3	141	21	foodImage.107	FOODEEG_Images\0915.jpg	YN	Left	Yes	0.837124699959531	0	545045	253
1065.369140625	0	decision	response	3	141	21	foodImage.107	FOODEEG_Images\0915.jpg	YN	Left	Yes	0.837124699959531	0	545470	234
1066.41015625	1	decision	trialStart	3	142	22	foodImage.60	FOODEEG_Images\0614.jpg	YN	Left	Yes	0.957551999948919	0	546003	251
1067.470703125	2	decision	foodImageDisplay	3	142	22	foodImage.60	FOODEEG_Images\0614.jpg	YN	Left	Yes	0.957551999948919	0	546546	252
1069.533203125	0.957551999948919	decision	choicePhaseStart	3	142	22	foodImage.60	FOODEEG_Images\0614.jpg	YN	Left	Yes	0.957551999948919	0	547602	253
1070.48046875	0	decision	response	3	142	22	foodImage.60	FOODEEG_Images\0614.jpg	YN	Left	Yes	0.957551999948919	0	548087	234
1071.5234375	1	decision	trialStart	3	143	23	foodImage.79	FOODEEG_Images\0794.jpg	NY	Left	No	1.12165759992786	0	548621	251
1072.568359375	2	decision	foodImageDisplay	3	143	23	foodImage.79	FOODEEG_Images\0794.jpg	NY	Left	No	1.12165759992786	0	549156	252
1074.630859375	1.12165759992786	decision	choicePhaseStart	3	143	23	foodImage.79	FOODEEG_Images\0794.jpg	NY	Left	No	1.12165759992786	0	550212	253
1075.744140625	0	decision	response	3	143	23	foodImage.79	FOODEEG_Images\0794.jpg	NY	Left	No	1.12165759992786	0	550782	234
1076.787109375	1	health	trialStart	3	144	24	foodImage.106	FOODEEG_Images\0914.jpg	YN	Left	Yes	1.24277850007638	0	551316	251
1077.82421875	2	health	foodImageDisplay	3	144	24	foodImage.106	FOODEEG_Images\0914.jpg	YN	Left	Yes	1.24277850007638	0	551847	252
1079.88671875	1.24277850007638	health	choicePhaseStart	3	144	24	foodImage.106	FOODEEG_Images\0914.jpg	YN	Left	Yes	1.24277850007638	0	552903	253
1081.119140625	0	health	response	3	144	24	foodImage.106	FOODEEG_Images\0914.jpg	YN	Left	Yes	1.24277850007638	0	553534	234
1082.16015625	1	taste	trialStart	3	145	25	foodImage.112	FOODEEG_Images\0920.jpg	YN	Right	No	0.890424499986693	0	554067	251
1083.19921875	2	taste	foodImageDisplay	3	145	25	foodImage.112	FOODEEG_Images\0920.jpg	YN	Right	No	0.890424499986693	0	554599	252
1085.26171875	0.890424499986693	taste	choicePhaseStart	3	145	25	foodImage.112	FOODEEG_Images\0920.jpg	YN	Right	No	0.890424499986693	0	555655	253
1086.14453125	0	taste	response	3	145	25	foodImage.112	FOODEEG_Images\0920.jpg	YN	Right	No	0.890424499986693	0	556107	235
1087.18359375	1	health	trialStart	3	146	26	foodImage.20	FOODEEG_Images\0226.jpg	NY	Left	No	1.42410980002023	0	556639	251
1088.2265625	2	health	foodImageDisplay	3	146	26	foodImage.20	FOODEEG_Images\0226.jpg	NY	Left	No	1.42410980002023	0	557173	252
1090.2890625	1.42410980002023	health	choicePhaseStart	3	146	26	foodImage.20	FOODEEG_Images\0226.jpg	NY	Left	No	1.42410980002023	0	558229	253
1091.703125	0	health	response	3	146	26	foodImage.20	FOODEEG_Images\0226.jpg	NY	Left	No	1.42410980002023	0	558953	234
1092.748046875	1	taste	trialStart	3	147	27	foodImage.38	FOODEEG_Images\0365.jpg	NY	Right	Yes	0.864260700065643	0	559488	251
1093.78515625	2	taste	foodImageDisplay	3	147	27	foodImage.38	FOODEEG_Images\0365.jpg	NY	Right	Yes	0.864260700065643	0	560019	252
1095.84765625	0.864260700065643	taste	choicePhaseStart	3	147	27	foodImage.38	FOODEEG_Images\0365.jpg	NY	Right	Yes	0.864260700065643	0	561075	253
1096.703125	0	taste	response	3	147	27	foodImage.38	FOODEEG_Images\0365.jpg	NY	Right	Yes	0.864260700065643	0	561513	235
1097.74609375	1	health	trialStart	3	148	28	foodImage.5	FOODEEG_Images\0107.jpg	YN	Right	No	1.04442890011705	0	562047	251
1098.8046875	2	health	foodImageDisplay	3	148	28	foodImage.5	FOODEEG_Images\0107.jpg	YN	Right	No	1.04442890011705	0	562589	252
1100.8671875	1.04442890011705	health	choicePhaseStart	3	148	28	foodImage.5	FOODEEG_Images\0107.jpg	YN	Right	No	1.04442890011705	0	563645	253
1101.90234375	0	health	response	3	148	28	foodImage.5	FOODEEG_Images\0107.jpg	YN	Right	No	1.04442890011705	0	564175	235
1102.947265625	1	health	trialStart	3	149	29	foodImage.21	FOODEEG_Images\0234.jpg	YN	Left	Yes	0.83842709986493	0	564710	251
1104.001953125	2	health	foodImageDisplay	3	149	29	foodImage.21	FOODEEG_Images\0234.jpg	YN	Left	Yes	0.83842709986493	0	565250	252
1106.064453125	0.83842709986493	health	choicePhaseStart	3	149	29	foodImage.21	FOODEEG_Images\0234.jpg	YN	Left	Yes	0.83842709986493	0	566306	253
1106.89453125	0	health	response	3	149	29	foodImage.21	FOODEEG_Images\0234.jpg	YN	Left	Yes	0.83842709986493	0	566731	234
1107.9375	1	decision	trialStart	3	150	30	foodImage.4	FOODEEG_Images\0065.jpg	YN	Left	Yes	0.845676299883053	0	567265	251
1108.99609375	2	decision	foodImageDisplay	3	150	30	foodImage.4	FOODEEG_Images\0065.jpg	YN	Left	Yes	0.845676299883053	0	567807	252
1111.05859375	0.845676299883053	decision	choicePhaseStart	3	150	30	foodImage.4	FOODEEG_Images\0065.jpg	YN	Left	Yes	0.845676299883053	0	568863	253
1111.89453125	0	decision	response	3	150	30	foodImage.4	FOODEEG_Images\0065.jpg	YN	Left	Yes	0.845676299883053	0	569291	234
1112.9375	1	taste	trialStart	3	151	31	foodImage.51	FOODEEG_Images\0536.jpg	NY	Right	Yes	0.852343000005931	0	569825	251
1113.982421875	2	taste	foodImageDisplay	3	151	31	foodImage.51	FOODEEG_Images\0536.jpg	NY	Right	Yes	0.852343000005931	0	570360	252
1116.04296875	0.852343000005931	taste	choicePhaseStart	3	151	31	foodImage.51	FOODEEG_Images\0536.jpg	NY	Right	Yes	0.852343000005931	0	571415	253
1116.88671875	0	taste	response	3	151	31	foodImage.51	FOODEEG_Images\0536.jpg	NY	Right	Yes	0.852343000005931	0	571847	235
1117.9296875	1	health	trialStart	3	152	32	foodImage.40	FOODEEG_Images\0373.jpg	YN	Left	Yes	0.848329199943691	0	572381	251
1118.96875	2	health	foodImageDisplay	3	152	32	foodImage.40	FOODEEG_Images\0373.jpg	YN	Left	Yes	0.848329199943691	0	572913	252
1121.03125	0.848329199943691	health	choicePhaseStart	3	152	32	foodImage.40	FOODEEG_Images\0373.jpg	YN	Left	Yes	0.848329199943691	0	573969	253
1121.87109375	0	health	response	3	152	32	foodImage.40	FOODEEG_Images\0373.jpg	YN	Left	Yes	0.848329199943691	0	574399	234
1122.9140625	1	decision	trialStart	3	153	33	foodImage.46	FOODEEG_Images\0479.jpg	NY	Left	No	1.13088599988259	0	574933	251
1123.97265625	2	decision	foodImageDisplay	3	153	33	foodImage.46	FOODEEG_Images\0479.jpg	NY	Left	No	1.13088599988259	0	575475	252
1126.037109375	1.13088599988259	decision	choicePhaseStart	3	153	33	foodImage.46	FOODEEG_Images\0479.jpg	NY	Left	No	1.13088599988259	0	576532	253
1127.158203125	0	decision	response	3	153	33	foodImage.46	FOODEEG_Images\0479.jpg	NY	Left	No	1.13088599988259	0	577106	234
1128.212890625	1	decision	trialStart	3	154	34	foodImage.118	FOODEEG_Images\0926.jpg	YN	Right	No	0.825622300151736	0	577646	251
1129.26953125	2	decision	foodImageDisplay	3	154	34	foodImage.118	FOODEEG_Images\0926.jpg	YN	Right	No	0.825622300151736	0	578187	252
1131.33203125	0.825622300151736	decision	choicePhaseStart	3	154	34	foodImage.118	FOODEEG_Images\0926.jpg	YN	Right	No	0.825622300151736	0	579243	253
1132.150390625	0	decision	response	3	154	34	foodImage.118	FOODEEG_Images\0926.jpg	YN	Right	No	0.825622300151736	0	579662	235
1133.1953125	1	decision	trialStart	3	155	35	foodImage.28	FOODEEG_Images\0273.jpg	YN	Left	Yes	0.771774799795821	0	580197	251
1134.236328125	2	decision	foodImageDisplay	3	155	35	foodImage.28	FOODEEG_Images\0273.jpg	YN	Left	Yes	0.771774799795821	0	580730	252
1136.298828125	0.771774799795821	decision	choicePhaseStart	3	155	35	foodImage.28	FOODEEG_Images\0273.jpg	YN	Left	Yes	0.771774799795821	0	581786	253
1137.0625	0	decision	response	3	155	35	foodImage.28	FOODEEG_Images\0273.jpg	YN	Left	Yes	0.771774799795821	0	582177	234
1138.103515625	1	health	trialStart	3	156	36	foodImage.76	FOODEEG_Images\0766.jpg	NY	Right	Yes	1.09322439995594	0	582710	251
1139.146484375	2	health	foodImageDisplay	3	156	36	foodImage.76	FOODEEG_Images\0766.jpg	NY	Right	Yes	1.09322439995594	0	583244	252
1141.208984375	1.09322439995594	health	choicePhaseStart	3	156	36	foodImage.76	FOODEEG_Images\0766.jpg	NY	Right	Yes	1.09322439995594	0	584300	253
1142.29296875	0	health	response	3	156	36	foodImage.76	FOODEEG_Images\0766.jpg	NY	Right	Yes	1.09322439995594	0	584855	235
1143.341796875	1	taste	trialStart	3	157	37	foodImage.57	FOODEEG_Images\0587.jpg	NY	Right	Yes	0.893679299857467	0	585392	251
1144.38671875	2	taste	foodImageDisplay	3	157	37	foodImage.57	FOODEEG_Images\0587.jpg	NY	Right	Yes	0.893679299857467	0	585927	252
1146.44921875	0.893679299857467	taste	choicePhaseStart	3	157	37	foodImage.57	FOODEEG_Images\0587.jpg	NY	Right	Yes	0.893679299857467	0	586983	253
1147.333984375	0	taste	response	3	157	37	foodImage.57	FOODEEG_Images\0587.jpg	NY	Right	Yes	0.893679299857467	0	587436	235
1148.384765625	1	decision	trialStart	3	158	38	foodImage.75	FOODEEG_Images\0763.jpg	YN	Right	No	1.74019100004807	0	587974	251
1149.427734375	2	decision	foodImageDisplay	3	158	38	foodImage.75	FOODEEG_Images\0763.jpg	YN	Right	No	1.74019100004807	0	588508	252
1151.490234375	1.74019100004807	decision	choicePhaseStart	3	158	38	foodImage.75	FOODEEG_Images\0763.jpg	YN	Right	No	1.74019100004807	0	589564	253
1153.220703125	0	decision	response	3	158	38	foodImage.75	FOODEEG_Images\0763.jpg	YN	Right	No	1.74019100004807	0	590450	235
1154.26171875	1	health	trialStart	3	159	39	foodImage.96	FOODEEG_Images\0904.jpg	YN	Right	No	1.01892909989692	0	590983	251
1155.30078125	2	health	foodImageDisplay	3	159	39	foodImage.96	FOODEEG_Images\0904.jpg	YN	Right	No	1.01892909989692	0	591515	252
1157.36328125	1.01892909989692	health	choicePhaseStart	3	159	39	foodImage.96	FOODEEG_Images\0904.jpg	YN	Right	No	1.01892909989692	0	592571	253
1158.373046875	0	health	response	3	159	39	foodImage.96	FOODEEG_Images\0904.jpg	YN	Right	No	1.01892909989692	0	593088	235
1159.421875	1	health	trialStart	3	160	40	foodImage.15	FOODEEG_Images\0189.jpg	NY	Left	No	1.11349370004609	0	593625	251
1160.478515625	2	health	foodImageDisplay	3	160	40	foodImage.15	FOODEEG_Images\0189.jpg	NY	Left	No	1.11349370004609	0	594166	252
1162.541015625	1.11349370004609	health	choicePhaseStart	3	160	40	foodImage.15	FOODEEG_Images\0189.jpg	NY	Left	No	1.11349370004609	0	595222	253
1163.64453125	0	health	response	3	160	40	foodImage.15	FOODEEG_Images\0189.jpg	NY	Left	No	1.11349370004609	0	595787	234
1164.69140625	1	decision	trialStart	3	161	41	foodImage.91	FOODEEG_Images\0896.jpg	NY	Right	Yes	0.724310100078583	0	596323	251
1165.748046875	2	decision	foodImageDisplay	3	161	41	foodImage.91	FOODEEG_Images\0896.jpg	NY	Right	Yes	0.724310100078583	0	596864	252
1167.810546875	0.724310100078583	decision	choicePhaseStart	3	161	41	foodImage.91	FOODEEG_Images\0896.jpg	NY	Right	Yes	0.724310100078583	0	597920	253
1168.525390625	0	decision	response	3	161	41	foodImage.91	FOODEEG_Images\0896.jpg	NY	Right	Yes	0.724310100078583	0	598286	235
1169.57421875	1	decision	trialStart	3	162	42	foodImage.84	FOODEEG_Images\0830.jpg	YN	Left	Yes	0.663785800104961	0	598823	251
1170.630859375	2	decision	foodImageDisplay	3	162	42	foodImage.84	FOODEEG_Images\0830.jpg	YN	Left	Yes	0.663785800104961	0	599364	252
1172.69140625	0.663785800104961	decision	choicePhaseStart	3	162	42	foodImage.84	FOODEEG_Images\0830.jpg	YN	Left	Yes	0.663785800104961	0	600419	253
1173.34765625	0	decision	response	3	162	42	foodImage.84	FOODEEG_Images\0830.jpg	YN	Left	Yes	0.663785800104961	0	600755	234
1174.390625	1	health	trialStart	3	163	43	foodImage.31	FOODEEG_Images\0294.jpg	YN	Right	No	0.832006999989972	0	601289	251
1175.43359375	2	health	foodImageDisplay	3	163	43	foodImage.31	FOODEEG_Images\0294.jpg	YN	Right	No	0.832006999989972	0	601823	252
1177.5	0.832006999989972	health	choicePhaseStart	3	163	43	foodImage.31	FOODEEG_Images\0294.jpg	YN	Right	No	0.832006999989972	0	602881	253
1178.32421875	0	health	response	3	163	43	foodImage.31	FOODEEG_Images\0294.jpg	YN	Right	No	0.832006999989972	0	603303	235
1179.365234375	1	health	trialStart	3	164	44	foodImage.35	FOODEEG_Images\0350.jpg	NY	Left	No	1.51502200006507	0	603836	251
1180.404296875	2	health	foodImageDisplay	3	164	44	foodImage.35	FOODEEG_Images\0350.jpg	NY	Left	No	1.51502200006507	0	604368	252
1182.466796875	1.51502200006507	health	choicePhaseStart	3	164	44	foodImage.35	FOODEEG_Images\0350.jpg	NY	Left	No	1.51502200006507	0	605424	253
1183.97265625	0	health	response	3	164	44	foodImage.35	FOODEEG_Images\0350.jpg	NY	Left	No	1.51502200006507	0	606195	234
1185.013671875	1	health	trialStart	3	165	45	foodImage.58	FOODEEG_Images\0605.jpg	YN	Left	Yes	0.766703499946743	0	606728	251
1186.0703125	2	health	foodImageDisplay	3	165	45	foodImage.58	FOODEEG_Images\0605.jpg	YN	Left	Yes	0.766703499946743	0	607269	252
1188.1328125	0.766703499946743	health	choicePhaseStart	3	165	45	foodImage.58	FOODEEG_Images\0605.jpg	YN	Left	Yes	0.766703499946743	0	608325	253
1188.890625	0	health	response	3	165	45	foodImage.58	FOODEEG_Images\0605.jpg	YN	Left	Yes	0.766703499946743	0	608713	234
1189.939453125	1	decision	trialStart	3	166	46	foodImage.13	FOODEEG_Images\0183.jpg	YN	Left	Yes	1.5762221000623	0	609250	251
1190.982421875	2	decision	foodImageDisplay	3	166	46	foodImage.13	FOODEEG_Images\0183.jpg	YN	Left	Yes	1.5762221000623	0	609784	252
1193.044921875	1.5762221000623	decision	choicePhaseStart	3	166	46	foodImage.13	FOODEEG_Images\0183.jpg	YN	Left	Yes	1.5762221000623	0	610840	253
1194.611328125	0	decision	response	3	166	46	foodImage.13	FOODEEG_Images\0183.jpg	YN	Left	Yes	1.5762221000623	0	611642	234
1195.66015625	1	taste	trialStart	3	167	47	foodImage.93	FOODEEG_Images\0901.jpg	YN	Right	No	1.00248240004294	0	612179	251
1196.69921875	2	taste	foodImageDisplay	3	167	47	foodImage.93	FOODEEG_Images\0901.jpg	YN	Right	No	1.00248240004294	0	612711	252
1198.76171875	1.00248240004294	taste	choicePhaseStart	3	167	47	foodImage.93	FOODEEG_Images\0901.jpg	YN	Right	No	1.00248240004294	0	613767	253
1199.755859375	0	taste	response	3	167	47	foodImage.93	FOODEEG_Images\0901.jpg	YN	Right	No	1.00248240004294	0	614276	235
1200.794921875	1	decision	trialStart	3	168	48	foodImage.66	FOODEEG_Images\0676.jpg	NY	Right	Yes	1.34449740010314	0	614808	251
1201.837890625	2	decision	foodImageDisplay	3	168	48	foodImage.66	FOODEEG_Images\0676.jpg	NY	Right	Yes	1.34449740010314	0	615342	252
1203.900390625	1.34449740010314	decision	choicePhaseStart	3	168	48	foodImage.66	FOODEEG_Images\0676.jpg	NY	Right	Yes	1.34449740010314	0	616398	253
1205.234375	0	decision	response	3	168	48	foodImage.66	FOODEEG_Images\0676.jpg	NY	Right	Yes	1.34449740010314	0	617081	235
1206.27734375	1	health	trialStart	3	169	49	foodImage.25	FOODEEG_Images\0261.jpg	NY	Right	Yes	0.854963300051168	0	617615	251
1207.318359375	2	health	foodImageDisplay	3	169	49	foodImage.25	FOODEEG_Images\0261.jpg	NY	Right	Yes	0.854963300051168	0	618148	252
1209.380859375	0.854963300051168	health	choicePhaseStart	3	169	49	foodImage.25	FOODEEG_Images\0261.jpg	NY	Right	Yes	0.854963300051168	0	619204	253
1210.2265625	0	health	response	3	169	49	foodImage.25	FOODEEG_Images\0261.jpg	NY	Right	Yes	0.854963300051168	0	619637	235
1211.26953125	1	taste	trialStart	3	170	50	foodImage.48	FOODEEG_Images\0494.jpg	YN	Left	Yes	0.764898699941114	0	620171	251
1212.3125	2	taste	foodImageDisplay	3	170	50	foodImage.48	FOODEEG_Images\0494.jpg	YN	Left	Yes	0.764898699941114	0	620705	252
1214.375	0.764898699941114	taste	choicePhaseStart	3	170	50	foodImage.48	FOODEEG_Images\0494.jpg	YN	Left	Yes	0.764898699941114	0	621761	253
1215.130859375	0	taste	response	3	170	50	foodImage.48	FOODEEG_Images\0494.jpg	YN	Left	Yes	0.764898699941114	0	622148	234
1216.17578125	1	decision	trialStart	3	171	51	foodImage.116	FOODEEG_Images\0924.jpg	YN	Right	No	0.910305100027472	0	622683	251
1217.21484375	2	decision	foodImageDisplay	3	171	51	foodImage.116	FOODEEG_Images\0924.jpg	YN	Right	No	0.910305100027472	0	623215	252
1219.27734375	0.910305100027472	decision	choicePhaseStart	3	171	51	foodImage.116	FOODEEG_Images\0924.jpg	YN	Right	No	0.910305100027472	0	624271	253
1220.1796875	0	decision	response	3	171	51	foodImage.116	FOODEEG_Images\0924.jpg	YN	Right	No	0.910305100027472	0	624733	235
1221.22265625	1	decision	trialStart	3	172	52	foodImage.95	FOODEEG_Images\0903.jpg	YN	Right	No	1.39716860000044	0	625267	251
1222.259765625	2	decision	foodImageDisplay	3	172	52	foodImage.95	FOODEEG_Images\0903.jpg	YN	Right	No	1.39716860000044	0	625798	252
1224.326171875	1.39716860000044	decision	choicePhaseStart	3	172	52	foodImage.95	FOODEEG_Images\0903.jpg	YN	Right	No	1.39716860000044	0	626856	253
1225.71484375	0	decision	response	3	172	52	foodImage.95	FOODEEG_Images\0903.jpg	YN	Right	No	1.39716860000044	0	627567	235
1226.7578125	1	decision	trialStart	3	173	53	foodImage.44	FOODEEG_Images\0459.jpg	NY	Right	Yes	0.98554759984836	0	628101	251
1227.8046875	2	decision	foodImageDisplay	3	173	53	foodImage.44	FOODEEG_Images\0459.jpg	NY	Right	Yes	0.98554759984836	0	628637	252
1229.8671875	0.98554759984836	decision	choicePhaseStart	3	173	53	foodImage.44	FOODEEG_Images\0459.jpg	NY	Right	Yes	0.98554759984836	0	629693	253
1230.841796875	0	decision	response	3	173	53	foodImage.44	FOODEEG_Images\0459.jpg	NY	Right	Yes	0.98554759984836	0	630192	235
1231.890625	1	decision	trialStart	3	174	54	foodImage.15	FOODEEG_Images\0189.jpg	NY	Right	Yes	1.41475660004653	0	630729	251
1232.94921875	2	decision	foodImageDisplay	3	174	54	foodImage.15	FOODEEG_Images\0189.jpg	NY	Right	Yes	1.41475660004653	0	631271	252
1235.01171875	1.41475660004653	decision	choicePhaseStart	3	174	54	foodImage.15	FOODEEG_Images\0189.jpg	NY	Right	Yes	1.41475660004653	0	632327	253
1236.41796875	0	decision	response	3	174	54	foodImage.15	FOODEEG_Images\0189.jpg	NY	Right	Yes	1.41475660004653	0	633047	235
1237.4609375	1	taste	trialStart	3	175	55	foodImage.110	FOODEEG_Images\0918.jpg	YN	Right	No	0.986472700024024	0	633581	251
1238.498046875	2	taste	foodImageDisplay	3	175	55	foodImage.110	FOODEEG_Images\0918.jpg	YN	Right	No	0.986472700024024	0	634112	252
1240.560546875	0.986472700024024	taste	choicePhaseStart	3	175	55	foodImage.110	FOODEEG_Images\0918.jpg	YN	Right	No	0.986472700024024	0	635168	253
1241.537109375	0	taste	response	3	175	55	foodImage.110	FOODEEG_Images\0918.jpg	YN	Right	No	0.986472700024024	0	635668	235
1242.580078125	1	decision	trialStart	3	176	56	foodImage.119	FOODEEG_Images\0927.jpg	NY	Left	No	0.960597099969164	0	636202	251
1243.619140625	2	decision	foodImageDisplay	3	176	56	foodImage.119	FOODEEG_Images\0927.jpg	NY	Left	No	0.960597099969164	0	636734	252
1245.681640625	0.960597099969164	decision	choicePhaseStart	3	176	56	foodImage.119	FOODEEG_Images\0927.jpg	NY	Left	No	0.960597099969164	0	637790	253
1246.6328125	0	decision	response	3	176	56	foodImage.119	FOODEEG_Images\0927.jpg	NY	Left	No	0.960597099969164	0	638277	234
1247.677734375	1	decision	trialStart	3	177	57	foodImage.98	FOODEEG_Images\0906.jpg	NY	Left	No	0.897991199977696	0	638812	251
1248.71484375	2	decision	foodImageDisplay	3	177	57	foodImage.98	FOODEEG_Images\0906.jpg	NY	Left	No	0.897991199977696	0	639343	252
1250.77734375	0.897991199977696	decision	choicePhaseStart	3	177	57	foodImage.98	FOODEEG_Images\0906.jpg	NY	Left	No	0.897991199977696	0	640399	253
1251.666015625	0	decision	response	3	177	57	foodImage.98	FOODEEG_Images\0906.jpg	NY	Left	No	0.897991199977696	0	640854	234
1252.708984375	1	decision	trialStart	3	178	58	foodImage.56	FOODEEG_Images\0586.jpg	YN	Left	Yes	0.854179000016302	0	641388	251
1253.75	2	decision	foodImageDisplay	3	178	58	foodImage.56	FOODEEG_Images\0586.jpg	YN	Left	Yes	0.854179000016302	0	641921	252
1255.8125	0.854179000016302	decision	choicePhaseStart	3	178	58	foodImage.56	FOODEEG_Images\0586.jpg	YN	Left	Yes	0.854179000016302	0	642977	253
1256.658203125	0	decision	response	3	178	58	foodImage.56	FOODEEG_Images\0586.jpg	YN	Left	Yes	0.854179000016302	0	643410	234
1257.701171875	1	health	trialStart	3	179	59	foodImage.112	FOODEEG_Images\0920.jpg	YN	Right	No	1.01660659979098	0	643944	251
1258.740234375	2	health	foodImageDisplay	3	179	59	foodImage.112	FOODEEG_Images\0920.jpg	YN	Right	No	1.01660659979098	0	644476	252
1260.80078125	1.01660659979098	health	choicePhaseStart	3	179	59	foodImage.112	FOODEEG_Images\0920.jpg	YN	Right	No	1.01660659979098	0	645531	253
1261.80859375	0	health	response	3	179	59	foodImage.112	FOODEEG_Images\0920.jpg	YN	Right	No	1.01660659979098	0	646047	235
1262.8515625	1	health	trialStart	3	180	60	foodImage.85	FOODEEG_Images\0841.jpg	YN	Right	No	1.03027109988034	0	646581	251
1263.908203125	2	health	foodImageDisplay	3	180	60	foodImage.85	FOODEEG_Images\0841.jpg	YN	Right	No	1.03027109988034	0	647122	252
1265.970703125	1.03027109988034	health	choicePhaseStart	3	180	60	foodImage.85	FOODEEG_Images\0841.jpg	YN	Right	No	1.03027109988034	0	648178	253
1266.9921875	0	health	response	3	180	60	foodImage.85	FOODEEG_Images\0841.jpg	YN	Right	No	1.03027109988034	0	648701	235
1269.037109375	28.595703125	n/a	blockEnd	n/a	n/a	n/a	n/a	n/a	n/a	n/a	n/a	n/a	n/a	649748	254
1297.6328125	2	n/a	blockStart	4	n/a	n/a	n/a	n/a	n/a	n/a	n/a	n/a	n/a	664389	250
1299.66796875	1	health	trialStart	4	181	1	foodImage.114	FOODEEG_Images\0922.jpg	NY	Left	No	0.903515399899334	0	665431	251
1300.705078125	2	health	foodImageDisplay	4	181	1	foodImage.114	FOODEEG_Images\0922.jpg	NY	Left	No	0.903515399899334	0	665962	252
1302.76953125	0.903515399899334	health	choicePhaseStart	4	181	1	foodImage.114	FOODEEG_Images\0922.jpg	NY	Left	No	0.903515399899334	0	667019	253
1303.6640625	0	health	response	4	181	1	foodImage.114	FOODEEG_Images\0922.jpg	NY	Left	No	0.903515399899334	0	667477	234
1304.70703125	1	taste	trialStart	4	182	2	foodImage.111	FOODEEG_Images\0919.jpg	NY	Left	No	0.815687300171703	0	668011	251
1305.74609375	2	taste	foodImageDisplay	4	182	2	foodImage.111	FOODEEG_Images\0919.jpg	NY	Left	No	0.815687300171703	0	668543	252
1307.80859375	0.815687300171703	taste	choicePhaseStart	4	182	2	foodImage.111	FOODEEG_Images\0919.jpg	NY	Left	No	0.815687300171703	0	669599	253
1308.615234375	0	taste	response	4	182	2	foodImage.111	FOODEEG_Images\0919.jpg	NY	Left	No	0.815687300171703	0	670012	234
1309.658203125	1	health	trialStart	4	183	3	foodImage.41	FOODEEG_Images\0409.jpg	NY	Right	Yes	0.824101000092924	0	670546	251
1310.705078125	2	health	foodImageDisplay	4	183	3	foodImage.41	FOODEEG_Images\0409.jpg	NY	Right	Yes	0.824101000092924	0	671082	252
1312.767578125	0.824101000092924	health	choicePhaseStart	4	183	3	foodImage.41	FOODEEG_Images\0409.jpg	NY	Right	Yes	0.824101000092924	0	672138	253
1313.58203125	0	health	response	4	183	3	foodImage.41	FOODEEG_Images\0409.jpg	NY	Right	Yes	0.824101000092924	0	672555	235
1314.625	1	health	trialStart	4	184	4	foodImage.95	FOODEEG_Images\0903.jpg	NY	Left	No	0.673917599953711	0	673089	251
1315.6640625	2	health	foodImageDisplay	4	184	4	foodImage.95	FOODEEG_Images\0903.jpg	NY	Left	No	0.673917599953711	0	673621	252
1317.7265625	0.673917599953711	health	choicePhaseStart	4	184	4	foodImage.95	FOODEEG_Images\0903.jpg	NY	Left	No	0.673917599953711	0	674677	253
1318.390625	0	health	response	4	184	4	foodImage.95	FOODEEG_Images\0903.jpg	NY	Left	No	0.673917599953711	0	675017	234
1319.439453125	1	health	trialStart	4	185	5	foodImage.86	FOODEEG_Images\0844.jpg	NY	Left	No	0.997891200007871	0	675554	251
1320.498046875	2	health	foodImageDisplay	4	185	5	foodImage.86	FOODEEG_Images\0844.jpg	NY	Left	No	0.997891200007871	0	676096	252
1322.560546875	0.997891200007871	health	choicePhaseStart	4	185	5	foodImage.86	FOODEEG_Images\0844.jpg	NY	Left	No	0.997891200007871	0	677152	253
1323.55078125	0	health	response	4	185	5	foodImage.86	FOODEEG_Images\0844.jpg	NY	Left	No	0.997891200007871	0	677659	234
1324.59375	1	decision	trialStart	4	186	6	foodImage.102	FOODEEG_Images\0910.jpg	NY	Left	No	0.872946699848399	0	678193	251
1325.6328125	2	decision	foodImageDisplay	4	186	6	foodImage.102	FOODEEG_Images\0910.jpg	NY	Left	No	0.872946699848399	0	678725	252
1327.6953125	0.872946699848399	decision	choicePhaseStart	4	186	6	foodImage.102	FOODEEG_Images\0910.jpg	NY	Left	No	0.872946699848399	0	679781	253
1328.55859375	0	decision	response	4	186	6	foodImage.102	FOODEEG_Images\0910.jpg	NY	Left	No	0.872946699848399	0	680223	234
1329.599609375	1	decision	trialStart	4	187	7	foodImage.85	FOODEEG_Images\0841.jpg	NY	Right	Yes	0.679440000094473	0	680756	251
1330.65625	2	decision	foodImageDisplay	4	187	7	foodImage.85	FOODEEG_Images\0841.jpg	NY	Right	Yes	0.679440000094473	0	681297	252
1332.71875	0.679440000094473	decision	choicePhaseStart	4	187	7	foodImage.85	FOODEEG_Images\0841.jpg	NY	Right	Yes	0.679440000094473	0	682353	253
1333.390625	0	decision	response	4	187	7	foodImage.85	FOODEEG_Images\0841.jpg	NY	Right	Yes	0.679440000094473	0	682697	235
1334.4375	1	decision	trialStart	4	188	8	foodImage.61	FOODEEG_Images\0640.jpg	YN	Right	No	1.74124339991249	0	683233	251
1335.5	2	decision	foodImageDisplay	4	188	8	foodImage.61	FOODEEG_Images\0640.jpg	YN	Right	No	1.74124339991249	0	683777	252
1337.5625	1.74124339991249	decision	choicePhaseStart	4	188	8	foodImage.61	FOODEEG_Images\0640.jpg	YN	Right	No	1.74124339991249	0	684833	253
1339.29296875	0	decision	response	4	188	8	foodImage.61	FOODEEG_Images\0640.jpg	YN	Right	No	1.74124339991249	0	685719	235
1340.3359375	1	decision	trialStart	4	189	9	foodImage.64	FOODEEG_Images\0647.jpg	NY	Right	Yes	0.692998900078237	0	686253	251
1341.39453125	2	decision	foodImageDisplay	4	189	9	foodImage.64	FOODEEG_Images\0647.jpg	NY	Right	Yes	0.692998900078237	0	686795	252
1343.45703125	0.692998900078237	decision	choicePhaseStart	4	189	9	foodImage.64	FOODEEG_Images\0647.jpg	NY	Right	Yes	0.692998900078237	0	687851	253
1344.142578125	0	decision	response	4	189	9	foodImage.64	FOODEEG_Images\0647.jpg	NY	Right	Yes	0.692998900078237	0	688202	235
1345.18359375	1	decision	trialStart	4	190	10	foodImage.10	FOODEEG_Images\0145.jpg	YN	Left	Yes	1.23389709996991	0	688735	251
1346.248046875	2	decision	foodImageDisplay	4	190	10	foodImage.10	FOODEEG_Images\0145.jpg	YN	Left	Yes	1.23389709996991	0	689280	252
1348.30859375	1.23389709996991	decision	choicePhaseStart	4	190	10	foodImage.10	FOODEEG_Images\0145.jpg	YN	Left	Yes	1.23389709996991	0	690335	253
1349.533203125	0	decision	response	4	190	10	foodImage.10	FOODEEG_Images\0145.jpg	YN	Left	Yes	1.23389709996991	0	690962	234
1350.58203125	1	health	trialStart	4	191	11	foodImage.3	FOODEEG_Images\0046.jpg	NY	Left	No	0.904473799979314	0	691499	251
1351.625	2	health	foodImageDisplay	4	191	11	foodImage.3	FOODEEG_Images\0046.jpg	NY	Left	No	0.904473799979314	0	692033	252
1353.685546875	0.904473799979314	health	choicePhaseStart	4	191	11	foodImage.3	FOODEEG_Images\0046.jpg	NY	Left	No	0.904473799979314	0	693088	253
1354.58203125	0	health	response	4	191	11	foodImage.3	FOODEEG_Images\0046.jpg	NY	Left	No	0.904473799979314	0	693547	234
1355.630859375	1	taste	trialStart	4	192	12	foodImage.7	FOODEEG_Images\0116.jpg	NY	Right	Yes	0.831105099990964	0	694084	251
1356.671875	2	taste	foodImageDisplay	4	192	12	foodImage.7	FOODEEG_Images\0116.jpg	NY	Right	Yes	0.831105099990964	0	694617	252
1358.734375	0.831105099990964	taste	choicePhaseStart	4	192	12	foodImage.7	FOODEEG_Images\0116.jpg	NY	Right	Yes	0.831105099990964	0	695673	253
1359.556640625	0	taste	response	4	192	12	foodImage.7	FOODEEG_Images\0116.jpg	NY	Right	Yes	0.831105099990964	0	696094	235
1360.6015625	1	taste	trialStart	4	193	13	foodImage.120	FOODEEG_Images\0928.jpg	NY	Left	No	0.736321000149474	0	696629	251
1361.638671875	2	taste	foodImageDisplay	4	193	13	foodImage.120	FOODEEG_Images\0928.jpg	NY	Left	No	0.736321000149474	0	697160	252
1363.701171875	0.736321000149474	taste	choicePhaseStart	4	193	13	foodImage.120	FOODEEG_Images\0928.jpg	NY	Left	No	0.736321000149474	0	698216	253
1364.4296875	0	taste	response	4	193	13	foodImage.120	FOODEEG_Images\0928.jpg	NY	Left	No	0.736321000149474	0	698589	234
1365.47265625	1	taste	trialStart	4	194	14	foodImage.90	FOODEEG_Images\0890.jpg	YN	Left	Yes	1.46276020002551	0	699123	251
1366.52734375	2	taste	foodImageDisplay	4	194	14	foodImage.90	FOODEEG_Images\0890.jpg	YN	Left	Yes	1.46276020002551	0	699663	252
1368.58984375	1.46276020002551	taste	choicePhaseStart	4	194	14	foodImage.90	FOODEEG_Images\0890.jpg	YN	Left	Yes	1.46276020002551	0	700719	253
1370.044921875	0	taste	response	4	194	14	foodImage.90	FOODEEG_Images\0890.jpg	YN	Left	Yes	1.46276020002551	0	701464	234
