onset	duration	trial_type	event_type	block	trial_total	trial_in_block	food_image_code	food_image_path	button_position	resp_position	resp_choice	choice_rt	resp_too_slow	sample	trigger
456.345703125	2	n/a	blockStart	1	n/a	n/a	n/a	n/a	n/a	n/a	n/a	n/a	n/a	233650	250
458.384765625	1	taste	trialStart	1	1	1	foodImage.18	FOODEEG_Images\0202.jpg	NY	Right	Yes	1.03697180000017	0	234694	251
459.44921875	2	taste	foodImageDisplay	1	1	1	foodImage.18	FOODEEG_Images\0202.jpg	NY	Right	Yes	1.03697180000017	0	235239	252
461.515625	1.03697180000017	taste	choicePhaseStart	1	1	1	foodImage.18	FOODEEG_Images\0202.jpg	NY	Right	Yes	1.03697180000017	0	236297	253
462.544921875	0	taste	response	1	1	1	foodImage.18	FOODEEG_Images\0202.jpg	NY	Right	Yes	1.03697180000017	0	236824	235
463.630859375	1	health	trialStart	1	2	2	foodImage.54	FOODEEG_Images\0560.jpg	YN	Left	Yes	0.39060199999949	0	237380	251
464.689453125	2	health	foodImageDisplay	1	2	2	foodImage.54	FOODEEG_Images\0560.jpg	YN	Left	Yes	0.39060199999949	0	237922	252
466.75390625	0.39060199999949	health	choicePhaseStart	1	2	2	foodImage.54	FOODEEG_Images\0560.jpg	YN	Left	Yes	0.39060199999949	0	238979	253
467.13671875	0	health	response	1	2	2	foodImage.54	FOODEEG_Images\0560.jpg	YN	Left	Yes	0.39060199999949	0	239175	234
468.19140625	1	decision	trialStart	1	3	3	foodImage.6	FOODEEG_Images\0113.jpg	YN	Right	No	0.710599600002752	0	239715	251
469.232421875	2	decision	foodImageDisplay	1	3	3	foodImage.6	FOODEEG_Images\0113.jpg	YN	Right	No	0.710599600002752	0	240248	252
471.298828125	0.710599600002752	decision	choicePhaseStart	1	3	3	foodImage.6	FOODEEG_Images\0113.jpg	YN	Right	No	0.710599600002752	0	241306	253
472	0	decision	response	1	3	3	foodImage.6	FOODEEG_Images\0113.jpg	YN	Right	No	0.710599600002752	0	241665	235
473.05078125	1	decision	trialStart	1	4	4	foodImage.101	FOODEEG_Images\0909.jpg	YN	Right	No	0.71771009999793	0	242203	251
474.08984375	2	decision	foodImageDisplay	1	4	4	foodImage.101	FOODEEG_Images\0909.jpg	YN	Right	No	0.71771009999793	0	242735	252
476.154296875	0.71771009999793	decision	choicePhaseStart	1	4	4	foodImage.101	FOODEEG_Images\0909.jpg	YN	Right	No	0.71771009999793	0	243792	253
476.86328125	0	decision	response	1	4	4	foodImage.101	FOODEEG_Images\0909.jpg	YN	Right	No	0.71771009999793	0	244155	235
477.908203125	1	decision	trialStart	1	5	5	foodImage.28	FOODEEG_Images\0273.jpg	NY	Left	No	1.45907589999842	0	244690	251
478.955078125	2	decision	foodImageDisplay	1	5	5	foodImage.28	FOODEEG_Images\0273.jpg	NY	Left	No	1.45907589999842	0	245226	252
481.021484375	1.45907589999842	decision	choicePhaseStart	1	5	5	foodImage.28	FOODEEG_Images\0273.jpg	NY	Left	No	1.45907589999842	0	246284	253
482.47265625	0	decision	response	1	5	5	foodImage.28	FOODEEG_Images\0273.jpg	NY	Left	No	1.45907589999842	0	247027	234
483.5234375	1	decision	trialStart	1	6	6	foodImage.85	FOODEEG_Images\0841.jpg	NY	Right	Yes	0.876161399995908	0	247565	251
484.580078125	2	decision	foodImageDisplay	1	6	6	foodImage.85	FOODEEG_Images\0841.jpg	NY	Right	Yes	0.876161399995908	0	248106	252
486.64453125	0.876161399995908	decision	choicePhaseStart	1	6	6	foodImage.85	FOODEEG_Images\0841.jpg	NY	Right	Yes	0.876161399995908	0	249163	253
487.51171875	0	decision	response	1	6	6	foodImage.85	FOODEEG_Images\0841.jpg	NY	Right	Yes	0.876161399995908	0	249607	235
488.5546875	1	decision	trialStart	1	7	7	foodImage.104	FOODEEG_Images\0912.jpg	YN	Right	No	0.645757499994943	0	250141	251
489.59375	2	decision	foodImageDisplay	1	7	7	foodImage.104	FOODEEG_Images\0912.jpg	YN	Right	No	0.645757499994943	0	250673	252
491.658203125	0.645757499994943	decision	choicePhaseStart	1	7	7	foodImage.104	FOODEEG_Images\0912.jpg	YN	Right	No	0.645757499994943	0	251730	253
492.296875	0	decision	response	1	7	7	foodImage.104	FOODEEG_Images\0912.jpg	YN	Right	No	0.645757499994943	0	252057	235
493.33984375	1	decision	trialStart	1	8	8	foodImage.84	FOODEEG_Images\0830.jpg	YN	Left	Yes	0.849191700006486	0	252591	251
494.396484375	2	decision	foodImageDisplay	1	8	8	foodImage.84	FOODEEG_Images\0830.jpg	YN	Left	Yes	0.849191700006486	0	253132	252
496.4609375	0.849191700006486	decision	choicePhaseStart	1	8	8	foodImage.84	FOODEEG_Images\0830.jpg	YN	Left	Yes	0.849191700006486	0	254189	253
497.302734375	0	decision	response	1	8	8	foodImage.84	FOODEEG_Images\0830.jpg	YN	Left	Yes	0.849191700006486	0	254620	234
498.35546875	1	health	trialStart	1	9	9	foodImage.58	FOODEEG_Images\0605.jpg	NY	Right	Yes	2.06363049999345	0	255159	251
499.416015625	2	health	foodImageDisplay	1	9	9	foodImage.58	FOODEEG_Images\0605.jpg	NY	Right	Yes	2.06363049999345	0	255702	252
501.48046875	2.06363049999345	health	choicePhaseStart	1	9	9	foodImage.58	FOODEEG_Images\0605.jpg	NY	Right	Yes	2.06363049999345	0	256759	253
503.53515625	0	health	response	1	9	9	foodImage.58	FOODEEG_Images\0605.jpg	NY	Right	Yes	2.06363049999345	0	257811	235
504.583984375	1	taste	trialStart	1	10	10	foodImage.95	FOODEEG_Images\0903.jpg	YN	Right	No	0.48154579999391	0	258348	251
505.623046875	2	taste	foodImageDisplay	1	10	10	foodImage.95	FOODEEG_Images\0903.jpg	YN	Right	No	0.48154579999391	0	258880	252
507.685546875	0.48154579999391	taste	choicePhaseStart	1	10	10	foodImage.95	FOODEEG_Images\0903.jpg	YN	Right	No	0.48154579999391	0	259936	253
508.158203125	0	taste	response	1	10	10	foodImage.95	FOODEEG_Images\0903.jpg	YN	Right	No	0.48154579999391	0	260178	235
509.208984375	1	health	trialStart	1	11	11	foodImage.67	FOODEEG_Images\0679.jpg	NY	Left	No	0.629705200000899	0	260716	251
510.26953125	2	health	foodImageDisplay	1	11	11	foodImage.67	FOODEEG_Images\0679.jpg	NY	Left	No	0.629705200000899	0	261259	252
512.341796875	0.629705200000899	health	choicePhaseStart	1	11	11	foodImage.67	FOODEEG_Images\0679.jpg	NY	Left	No	0.629705200000899	0	262320	253
512.966796875	0	health	response	1	11	11	foodImage.67	FOODEEG_Images\0679.jpg	NY	Left	No	0.629705200000899	0	262640	234
514.0078125	1	health	trialStart	1	12	12	foodImage.3	FOODEEG_Images\0046.jpg	NY	Left	No	0.693331799993757	0	263173	251
515.05078125	2	health	foodImageDisplay	1	12	12	foodImage.3	FOODEEG_Images\0046.jpg	NY	Left	No	0.693331799993757	0	263707	252
517.11328125	0.693331799993757	health	choicePhaseStart	1	12	12	foodImage.3	FOODEEG_Images\0046.jpg	NY	Left	No	0.693331799993757	0	264763	253
517.798828125	0	health	response	1	12	12	foodImage.3	FOODEEG_Images\0046.jpg	NY	Left	No	0.693331799993757	0	265114	234
518.85546875	1	decision	trialStart	1	13	13	foodImage.90	FOODEEG_Images\0890.jpg	YN	Right	No	0.606648599990876	0	265655	251
519.9140625	2	decision	foodImageDisplay	1	13	13	foodImage.90	FOODEEG_Images\0890.jpg	YN	Right	No	0.606648599990876	0	266197	252
521.9765625	0.606648599990876	decision	choicePhaseStart	1	13	13	foodImage.90	FOODEEG_Images\0890.jpg	YN	Right	No	0.606648599990876	0	267253	253
522.57421875	0	decision	response	1	13	13	foodImage.90	FOODEEG_Images\0890.jpg	YN	Right	No	0.606648599990876	0	267559	235
523.6171875	1	decision	trialStart	1	14	14	foodImage.66	FOODEEG_Images\0676.jpg	YN	Left	Yes	0.747203899998567	0	268093	251
524.66015625	2	decision	foodImageDisplay	1	14	14	foodImage.66	FOODEEG_Images\0676.jpg	YN	Left	Yes	0.747203899998567	0	268627	252
526.724609375	0.747203899998567	decision	choicePhaseStart	1	14	14	foodImage.66	FOODEEG_Images\0676.jpg	YN	Left	Yes	0.747203899998567	0	269684	253
527.462890625	0	decision	response	1	14	14	foodImage.66	FOODEEG_Images\0676.jpg	YN	Left	Yes	0.747203899998567	0	270062	234
528.505859375	1	health	trialStart	1	15	15	foodImage.40	FOODEEG_Images\0373.jpg	NY	Left	No	1.12027540001145	0	270596	251
529.5546875	2	health	foodImageDisplay	1	15	15	foodImage.40	FOODEEG_Images\0373.jpg	NY	Left	No	1.12027540001145	0	271133	252
531.619140625	1.12027540001145	health	choicePhaseStart	1	15	15	foodImage.40	FOODEEG_Images\0373.jpg	NY	Left	No	1.12027540001145	0	272190	253
532.734375	0	health	response	1	15	15	foodImage.40	FOODEEG_Images\0373.jpg	NY	Left	No	1.12027540001145	0	272761	234
533.783203125	1	taste	trialStart	1	16	16	foodImage.113	FOODEEG_Images\0921.jpg	YN	Right	No	0.653632800007472	0	273298	251
534.822265625	2	taste	foodImageDisplay	1	16	16	foodImage.113	FOODEEG_Images\0921.jpg	YN	Right	No	0.653632800007472	0	273830	252
536.88671875	0.653632800007472	taste	choicePhaseStart	1	16	16	foodImage.113	FOODEEG_Images\0921.jpg	YN	Right	No	0.653632800007472	0	274887	253
537.533203125	0	taste	response	1	16	16	foodImage.113	FOODEEG_Images\0921.jpg	YN	Right	No	0.653632800007472	0	275218	235
538.578125	1	decision	trialStart	1	17	17	foodImage.40	FOODEEG_Images\0373.jpg	NY	Right	Yes	1.13837269999203	0	275753	251
539.619140625	2	decision	foodImageDisplay	1	17	17	foodImage.40	FOODEEG_Images\0373.jpg	NY	Right	Yes	1.13837269999203	0	276286	252
541.68359375	1.13837269999203	decision	choicePhaseStart	1	17	17	foodImage.40	FOODEEG_Images\0373.jpg	NY	Right	Yes	1.13837269999203	0	277343	253
542.814453125	0	decision	response	1	17	17	foodImage.40	FOODEEG_Images\0373.jpg	NY	Right	Yes	1.13837269999203	0	277922	235
543.857421875	1	health	trialStart	1	18	18	foodImage.111	FOODEEG_Images\0919.jpg	YN	Right	No	0.726218299998436	0	278456	251
544.896484375	2	health	foodImageDisplay	1	18	18	foodImage.111	FOODEEG_Images\0919.jpg	YN	Right	No	0.726218299998436	0	278988	252
546.9609375	0.726218299998436	health	choicePhaseStart	1	18	18	foodImage.111	FOODEEG_Images\0919.jpg	YN	Right	No	0.726218299998436	0	280045	253
547.677734375	0	health	response	1	18	18	foodImage.111	FOODEEG_Images\0919.jpg	YN	Right	No	0.726218299998436	0	280412	235
548.720703125	1	decision	trialStart	1	19	19	foodImage.76	FOODEEG_Images\0766.jpg	YN	Left	Yes	1.27338519999466	0	280946	251
549.765625	2	decision	foodImageDisplay	1	19	19	foodImage.76	FOODEEG_Images\0766.jpg	YN	Left	Yes	1.27338519999466	0	281481	252
551.830078125	1.27338519999466	decision	choicePhaseStart	1	19	19	foodImage.76	FOODEEG_Images\0766.jpg	YN	Left	Yes	1.27338519999466	0	282538	253
553.09375	0	decision	response	1	19	19	foodImage.76	FOODEEG_Images\0766.jpg	YN	Left	Yes	1.27338519999466	0	283185	234
554.134765625	1	health	trialStart	1	20	20	foodImage.35	FOODEEG_Images\0350.jpg	NY	Left	No	2.12845249999373	0	283718	251
555.173828125	2	health	foodImageDisplay	1	20	20	foodImage.35	FOODEEG_Images\0350.jpg	NY	Left	No	2.12845249999373	0	284250	252
557.23828125	2.12845249999373	health	choicePhaseStart	1	20	20	foodImage.35	FOODEEG_Images\0350.jpg	NY	Left	No	2.12845249999373	0	285307	253
559.357421875	0	health	response	1	20	20	foodImage.35	FOODEEG_Images\0350.jpg	NY	Left	No	2.12845249999373	0	286392	234
560.3984375	1	health	trialStart	1	21	21	foodImage.23	FOODEEG_Images\0244.jpg	YN	Right	No	0.766945099996519	0	286925	251
561.439453125	2	health	foodImageDisplay	1	21	21	foodImage.23	FOODEEG_Images\0244.jpg	YN	Right	No	0.766945099996519	0	287458	252
563.50390625	0.766945099996519	health	choicePhaseStart	1	21	21	foodImage.23	FOODEEG_Images\0244.jpg	YN	Right	No	0.766945099996519	0	288515	253
564.26171875	0	health	response	1	21	21	foodImage.23	FOODEEG_Images\0244.jpg	YN	Right	No	0.766945099996519	0	288903	235
565.3046875	1	decision	trialStart	1	22	22	foodImage.17	FOODEEG_Images\0199.jpg	NY	Right	Yes	3.13097189999826	0	289437	251
566.345703125	2	decision	foodImageDisplay	1	22	22	foodImage.17	FOODEEG_Images\0199.jpg	NY	Right	Yes	3.13097189999826	0	289970	252
568.41015625	3.13097189999826	decision	choicePhaseStart	1	22	22	foodImage.17	FOODEEG_Images\0199.jpg	NY	Right	Yes	3.13097189999826	0	291027	253
571.533203125	0	decision	response	1	22	22	foodImage.17	FOODEEG_Images\0199.jpg	NY	Right	Yes	3.13097189999826	0	292626	235
572.580078125	1	taste	trialStart	1	23	23	foodImage.79	FOODEEG_Images\0794.jpg	NY	Right	Yes	0.700619499999448	0	293162	251
573.623046875	2	taste	foodImageDisplay	1	23	23	foodImage.79	FOODEEG_Images\0794.jpg	NY	Right	Yes	0.700619499999448	0	293696	252
575.689453125	0.700619499999448	taste	choicePhaseStart	1	23	23	foodImage.79	FOODEEG_Images\0794.jpg	NY	Right	Yes	0.700619499999448	0	294754	253
576.380859375	0	taste	response	1	23	23	foodImage.79	FOODEEG_Images\0794.jpg	NY	Right	Yes	0.700619499999448	0	295108	235
577.421875	1	decision	trialStart	1	24	24	foodImage.30	FOODEEG_Images\0282.jpg	YN	Left	Yes	1.263206299991	0	295641	251
578.462890625	2	decision	foodImageDisplay	1	24	24	foodImage.30	FOODEEG_Images\0282.jpg	YN	Left	Yes	1.263206299991	0	296174	252
580.52734375	1.263206299991	decision	choicePhaseStart	1	24	24	foodImage.30	FOODEEG_Images\0282.jpg	YN	Left	Yes	1.263206299991	0	297231	253
581.78125	0	decision	response	1	24	24	foodImage.30	FOODEEG_Images\0282.jpg	YN	Left	Yes	1.263206299991	0	297873	234
582.82421875	1	health	trialStart	1	25	25	foodImage.56	FOODEEG_Images\0586.jpg	NY	Right	Yes	1.82880409999052	0	298407	251
583.865234375	2	health	foodImageDisplay	1	25	25	foodImage.56	FOODEEG_Images\0586.jpg	NY	Right	Yes	1.82880409999052	0	298940	252
585.9296875	1.82880409999052	health	choicePhaseStart	1	25	25	foodImage.56	FOODEEG_Images\0586.jpg	NY	Right	Yes	1.82880409999052	0	299997	253
587.748046875	0	health	response	1	25	25	foodImage.56	FOODEEG_Images\0586.jpg	NY	Right	Yes	1.82880409999052	0	300928	235
588.794921875	1	taste	trialStart	1	26	26	foodImage.25	FOODEEG_Images\0261.jpg	NY	Left	No	0.660984599991934	0	301464	251
589.85546875	2	taste	foodImageDisplay	1	26	26	foodImage.25	FOODEEG_Images\0261.jpg	NY	Left	No	0.660984599991934	0	302007	252
591.919921875	0.660984599991934	taste	choicePhaseStart	1	26	26	foodImage.25	FOODEEG_Images\0261.jpg	NY	Left	No	0.660984599991934	0	303064	253
592.572265625	0	taste	response	1	26	26	foodImage.25	FOODEEG_Images\0261.jpg	NY	Left	No	0.660984599991934	0	303398	234
593.62109375	1	taste	trialStart	1	27	27	foodImage.80	FOODEEG_Images\0796.jpg	NY	Right	Yes	0.442016400003922	0	303935	251
594.67578125	2	taste	foodImageDisplay	1	27	27	foodImage.80	FOODEEG_Images\0796.jpg	NY	Right	Yes	0.442016400003922	0	304475	252
596.73828125	0.442016400003922	taste	choicePhaseStart	1	27	27	foodImage.80	FOODEEG_Images\0796.jpg	NY	Right	Yes	0.442016400003922	0	305531	253
597.171875	0	taste	response	1	27	27	foodImage.80	FOODEEG_Images\0796.jpg	NY	Right	Yes	0.442016400003922	0	305753	235
598.216796875	1	taste	trialStart	1	28	28	foodImage.47	FOODEEG_Images\0488.jpg	YN	Left	Yes	0.89953000000969	0	306288	251
599.2578125	2	taste	foodImageDisplay	1	28	28	foodImage.47	FOODEEG_Images\0488.jpg	YN	Left	Yes	0.89953000000969	0	306821	252
601.322265625	0.89953000000969	taste	choicePhaseStart	1	28	28	foodImage.47	FOODEEG_Images\0488.jpg	YN	Left	Yes	0.89953000000969	0	307878	253
602.2109375	0	taste	response	1	28	28	foodImage.47	FOODEEG_Images\0488.jpg	YN	Left	Yes	0.89953000000969	0	308333	234
603.255859375	1	decision	trialStart	1	29	29	foodImage.105	FOODEEG_Images\0913.jpg	NY	Left	No	0.542528699996183	0	308868	251
604.294921875	2	decision	foodImageDisplay	1	29	29	foodImage.105	FOODEEG_Images\0913.jpg	NY	Left	No	0.542528699996183	0	309400	252
606.357421875	0.542528699996183	decision	choicePhaseStart	1	29	29	foodImage.105	FOODEEG_Images\0913.jpg	NY	Left	No	0.542528699996183	0	310456	253
606.892578125	0	decision	response	1	29	29	foodImage.105	FOODEEG_Images\0913.jpg	NY	Left	No	0.542528699996183	0	310730	234
607.935546875	1	decision	trialStart	1	30	30	foodImage.56	FOODEEG_Images\0586.jpg	NY	Right	Yes	1.00983320000523	0	311264	251
608.978515625	2	decision	foodImageDisplay	1	30	30	foodImage.56	FOODEEG_Images\0586.jpg	NY	Right	Yes	1.00983320000523	0	311798	252
611.04296875	1.00983320000523	decision	choicePhaseStart	1	30	30	foodImage.56	FOODEEG_Images\0586.jpg	NY	Right	Yes	1.00983320000523	0	312855	253
612.04296875	0	decision	response	1	30	30	foodImage.56	FOODEEG_Images\0586.jpg	NY	Right	Yes	1.00983320000523	0	313367	235
613.083984375	1	decision	trialStart	1	31	31	foodImage.82	FOODEEG_Images\0805.jpg	YN	Left	Yes	0.535708399998839	0	313900	251
614.142578125	2	decision	foodImageDisplay	1	31	31	foodImage.82	FOODEEG_Images\0805.jpg	YN	Left	Yes	0.535708399998839	0	314442	252
616.205078125	0.535708399998839	decision	choicePhaseStart	1	31	31	foodImage.82	FOODEEG_Images\0805.jpg	YN	Left	Yes	0.535708399998839	0	315498	253
616.732421875	0	decision	response	1	31	31	foodImage.82	FOODEEG_Images\0805.jpg	YN	Left	Yes	0.535708399998839	0	315768	234
617.7734375	1	decision	trialStart	1	32	32	foodImage.48	FOODEEG_Images\0494.jpg	YN	Right	No	0.442431100003887	0	316301	251
618.818359375	2	decision	foodImageDisplay	1	32	32	foodImage.48	FOODEEG_Images\0494.jpg	YN	Right	No	0.442431100003887	0	316836	252
620.8828125	0.442431100003887	decision	choicePhaseStart	1	32	32	foodImage.48	FOODEEG_Images\0494.jpg	YN	Right	No	0.442431100003887	0	317893	253
621.314453125	0	decision	response	1	32	32	foodImage.48	FOODEEG_Images\0494.jpg	YN	Right	No	0.442431100003887	0	318114	235
622.357421875	1	taste	trialStart	1	33	33	foodImage.21	FOODEEG_Images\0234.jpg	YN	Left	Yes	0.657428199992864	0	318648	251
623.443359375	2	taste	foodImageDisplay	1	33	33	foodImage.21	FOODEEG_Images\0234.jpg	YN	Left	Yes	0.657428199992864	0	319204	252
625.5078125	0.657428199992864	taste	choicePhaseStart	1	33	33	foodImage.21	FOODEEG_Images\0234.jpg	YN	Left	Yes	0.657428199992864	0	320261	253
626.154296875	0	taste	response	1	33	33	foodImage.21	FOODEEG_Images\0234.jpg	YN	Left	Yes	0.657428199992864	0	320592	234
627.19921875	1	decision	trialStart	1	34	34	foodImage.11	FOODEEG_Images\0180.jpg	NY	Right	Yes	0.539182699998491	0	321127	251
628.2421875	2	decision	foodImageDisplay	1	34	34	foodImage.11	FOODEEG_Images\0180.jpg	NY	Right	Yes	0.539182699998491	0	321661	252
630.306640625	0.539182699998491	decision	choicePhaseStart	1	34	34	foodImage.11	FOODEEG_Images\0180.jpg	NY	Right	Yes	0.539182699998491	0	322718	253
630.8359375	0	decision	response	1	34	34	foodImage.11	FOODEEG_Images\0180.jpg	NY	Right	Yes	0.539182699998491	0	322989	235
631.87890625	1	health	trialStart	1	35	35	foodImage.28	FOODEEG_Images\0273.jpg	NY	Right	Yes	1.04480580000381	0	323523	251
632.919921875	2	health	foodImageDisplay	1	35	35	foodImage.28	FOODEEG_Images\0273.jpg	NY	Right	Yes	1.04480580000381	0	324056	252
634.984375	1.04480580000381	health	choicePhaseStart	1	35	35	foodImage.28	FOODEEG_Images\0273.jpg	NY	Right	Yes	1.04480580000381	0	325113	253
636.01953125	0	health	response	1	35	35	foodImage.28	FOODEEG_Images\0273.jpg	NY	Right	Yes	1.04480580000381	0	325643	235
637.0625	1	decision	trialStart	1	36	36	foodImage.93	FOODEEG_Images\0901.jpg	NY	Right	Yes	0.750483900003019	0	326177	251
638.1015625	2	decision	foodImageDisplay	1	36	36	foodImage.93	FOODEEG_Images\0901.jpg	NY	Right	Yes	0.750483900003019	0	326709	252
640.166015625	0.750483900003019	decision	choicePhaseStart	1	36	36	foodImage.93	FOODEEG_Images\0901.jpg	NY	Right	Yes	0.750483900003019	0	327766	253
640.90625	0	decision	response	1	36	36	foodImage.93	FOODEEG_Images\0901.jpg	NY	Right	Yes	0.750483900003019	0	328145	235
641.94921875	1	decision	trialStart	1	37	37	foodImage.109	FOODEEG_Images\0917.jpg	YN	Right	No	0.442263800010551	0	328679	251
642.986328125	2	decision	foodImageDisplay	1	37	37	foodImage.109	FOODEEG_Images\0917.jpg	YN	Right	No	0.442263800010551	0	329210	252
645.048828125	0.442263800010551	decision	choicePhaseStart	1	37	37	foodImage.109	FOODEEG_Images\0917.jpg	YN	Right	No	0.442263800010551	0	330266	253
645.482421875	0	decision	response	1	37	37	foodImage.109	FOODEEG_Images\0917.jpg	YN	Right	No	0.442263800010551	0	330488	235
646.525390625	1	decision	trialStart	1	38	38	foodImage.89	FOODEEG_Images\0881.jpg	NY	Right	Yes	1.83709359999921	0	331022	251
647.583984375	2	decision	foodImageDisplay	1	38	38	foodImage.89	FOODEEG_Images\0881.jpg	NY	Right	Yes	1.83709359999921	0	331564	252
649.646484375	1.83709359999921	decision	choicePhaseStart	1	38	38	foodImage.89	FOODEEG_Images\0881.jpg	NY	Right	Yes	1.83709359999921	0	332620	253
651.474609375	0	decision	response	1	38	38	foodImage.89	FOODEEG_Images\0881.jpg	NY	Right	Yes	1.83709359999921	0	333556	235
652.517578125	1	taste	trialStart	1	39	39	foodImage.28	FOODEEG_Images\0273.jpg	YN	Right	No	0.823669300007168	0	334090	251
653.55859375	2	taste	foodImageDisplay	1	39	39	foodImage.28	FOODEEG_Images\0273.jpg	YN	Right	No	0.823669300007168	0	334623	252
655.62890625	0.823669300007168	taste	choicePhaseStart	1	39	39	foodImage.28	FOODEEG_Images\0273.jpg	YN	Right	No	0.823669300007168	0	335683	253
656.443359375	0	taste	response	1	39	39	foodImage.28	FOODEEG_Images\0273.jpg	YN	Right	No	0.823669300007168	0	336100	235
657.48828125	1	health	trialStart	1	40	40	foodImage.6	FOODEEG_Images\0113.jpg	NY	Left	No	0.712137000009534	0	336635	251
658.53125	2	health	foodImageDisplay	1	40	40	foodImage.6	FOODEEG_Images\0113.jpg	NY	Left	No	0.712137000009534	0	337169	252
660.595703125	0.712137000009534	health	choicePhaseStart	1	40	40	foodImage.6	FOODEEG_Images\0113.jpg	NY	Left	No	0.712137000009534	0	338226	253
661.298828125	0	health	response	1	40	40	foodImage.6	FOODEEG_Images\0113.jpg	NY	Left	No	0.712137000009534	0	338586	234
662.33984375	1	decision	trialStart	1	41	41	foodImage.103	FOODEEG_Images\0911.jpg	NY	Left	No	0.665189700011979	0	339119	251
663.37890625	2	decision	foodImageDisplay	1	41	41	foodImage.103	FOODEEG_Images\0911.jpg	NY	Left	No	0.665189700011979	0	339651	252
665.44140625	0.665189700011979	decision	choicePhaseStart	1	41	41	foodImage.103	FOODEEG_Images\0911.jpg	NY	Left	No	0.665189700011979	0	340707	253
666.09765625	0	decision	response	1	41	41	foodImage.103	FOODEEG_Images\0911.jpg	NY	Left	No	0.665189700011979	0	341043	234
667.138671875	1	health	trialStart	1	42	42	foodImage.66	FOODEEG_Images\0676.jpg	NY	Left	No	1.36797819999629	0	341576	251
668.181640625	2	health	foodImageDisplay	1	42	42	foodImage.66	FOODEEG_Images\0676.jpg	NY	Left	No	1.36797819999629	0	342110	252
670.244140625	1.36797819999629	health	choicePhaseStart	1	42	42	foodImage.66	FOODEEG_Images\0676.jpg	NY	Left	No	1.36797819999629	0	343166	253
671.6015625	0	health	response	1	42	42	foodImage.66	FOODEEG_Images\0676.jpg	NY	Left	No	1.36797819999629	0	343861	234
672.646484375	1	decision	trialStart	1	43	43	foodImage.73	FOODEEG_Images\0717.jpg	NY	Right	Yes	0.44330890000856	0	344396	251
673.720703125	2	decision	foodImageDisplay	1	43	43	foodImage.73	FOODEEG_Images\0717.jpg	NY	Right	Yes	0.44330890000856	0	344946	252
675.783203125	0.44330890000856	decision	choicePhaseStart	1	43	43	foodImage.73	FOODEEG_Images\0717.jpg	NY	Right	Yes	0.44330890000856	0	346002	253
676.216796875	0	decision	response	1	43	43	foodImage.73	FOODEEG_Images\0717.jpg	NY	Right	Yes	0.44330890000856	0	346224	235
677.26171875	1	taste	trialStart	1	44	44	foodImage.96	FOODEEG_Images\0904.jpg	YN	Left	Yes	1.10266530000081	0	346759	251
678.30078125	2	taste	foodImageDisplay	1	44	44	foodImage.96	FOODEEG_Images\0904.jpg	YN	Left	Yes	1.10266530000081	0	347291	252
680.36328125	1.10266530000081	taste	choicePhaseStart	1	44	44	foodImage.96	FOODEEG_Images\0904.jpg	YN	Left	Yes	1.10266530000081	0	348347	253
681.45703125	0	taste	response	1	44	44	foodImage.96	FOODEEG_Images\0904.jpg	YN	Left	Yes	1.10266530000081	0	348907	234
682.5	1	health	trialStart	1	45	45	foodImage.70	FOODEEG_Images\0705.jpg	YN	Left	Yes	2.64403239999956	0	349441	251
683.55859375	2	health	foodImageDisplay	1	45	45	foodImage.70	FOODEEG_Images\0705.jpg	YN	Left	Yes	2.64403239999956	0	349983	252
685.623046875	2.64403239999956	health	choicePhaseStart	1	45	45	foodImage.70	FOODEEG_Images\0705.jpg	YN	Left	Yes	2.64403239999956	0	351040	253
688.2578125	0	health	response	1	45	45	foodImage.70	FOODEEG_Images\0705.jpg	YN	Left	Yes	2.64403239999956	0	352389	234
689.296875	1	health	trialStart	1	46	46	foodImage.77	FOODEEG_Images\0771.jpg	NY	Left	No	1.99829639999371	0	352921	251
690.341796875	2	health	foodImageDisplay	1	46	46	foodImage.77	FOODEEG_Images\0771.jpg	NY	Left	No	1.99829639999371	0	353456	252
692.404296875	1.99829639999371	health	choicePhaseStart	1	46	46	foodImage.77	FOODEEG_Images\0771.jpg	NY	Left	No	1.99829639999371	0	354512	253
694.392578125	0	health	response	1	46	46	foodImage.77	FOODEEG_Images\0771.jpg	NY	Left	No	1.99829639999371	0	355530	234
695.43359375	1	health	trialStart	1	47	47	foodImage.80	FOODEEG_Images\0796.jpg	YN	Left	Yes	3.61510780001117	0	356063	251
696.490234375	2	health	foodImageDisplay	1	47	47	foodImage.80	FOODEEG_Images\0796.jpg	YN	Left	Yes	3.61510780001117	0	356604	252
698.560546875	3.61510780001117	health	choicePhaseStart	1	47	47	foodImage.80	FOODEEG_Images\0796.jpg	YN	Left	Yes	3.61510780001117	0	357664	253
702.16796875	0	health	response	1	47	47	foodImage.80	FOODEEG_Images\0796.jpg	YN	Left	Yes	3.61510780001117	0	359511	234
703.212890625	1	taste	trialStart	1	48	48	foodImage.39	FOODEEG_Images\0367.jpg	YN	Right	No	0.397888399995281	0	360046	251
704.251953125	2	taste	foodImageDisplay	1	48	48	foodImage.39	FOODEEG_Images\0367.jpg	YN	Right	No	0.397888399995281	0	360578	252
706.314453125	0.397888399995281	taste	choicePhaseStart	1	48	48	foodImage.39	FOODEEG_Images\0367.jpg	YN	Right	No	0.397888399995281	0	361634	253
706.705078125	0	taste	response	1	48	48	foodImage.39	FOODEEG_Images\0367.jpg	YN	Right	No	0.397888399995281	0	361834	235
707.75	1	decision	trialStart	1	49	49	foodImage.32	FOODEEG_Images\0319.jpg	NY	Right	Yes	1.9029057000007	0	362369	251
708.794921875	2	decision	foodImageDisplay	1	49	49	foodImage.32	FOODEEG_Images\0319.jpg	NY	Right	Yes	1.9029057000007	0	362904	252
710.859375	1.9029057000007	decision	choicePhaseStart	1	49	49	foodImage.32	FOODEEG_Images\0319.jpg	NY	Right	Yes	1.9029057000007	0	363961	253
712.751953125	0	decision	response	1	49	49	foodImage.32	FOODEEG_Images\0319.jpg	NY	Right	Yes	1.9029057000007	0	364930	235
713.798828125	1	decision	trialStart	1	50	50	foodImage.31	FOODEEG_Images\0294.jpg	YN	Right	No	0.886257399994065	0	365466	251
714.841796875	2	decision	foodImageDisplay	1	50	50	foodImage.31	FOODEEG_Images\0294.jpg	YN	Right	No	0.886257399994065	0	366000	252
716.90625	0.886257399994065	decision	choicePhaseStart	1	50	50	foodImage.31	FOODEEG_Images\0294.jpg	YN	Right	No	0.886257399994065	0	367057	253
717.783203125	0	decision	response	1	50	50	foodImage.31	FOODEEG_Images\0294.jpg	YN	Right	No	0.886257399994065	0	367506	235
718.826171875	1	taste	trialStart	1	51	51	foodImage.101	FOODEEG_Images\0909.jpg	NY	Left	No	0.425649700002396	0	368040	251
719.865234375	2	taste	foodImageDisplay	1	51	51	foodImage.101	FOODEEG_Images\0909.jpg	NY	Left	No	0.425649700002396	0	368572	252
721.927734375	0.425649700002396	taste	choicePhaseStart	1	51	51	foodImage.101	FOODEEG_Images\0909.jpg	NY	Left	No	0.425649700002396	0	369628	253
722.34375	0	taste	response	1	51	51	foodImage.101	FOODEEG_Images\0909.jpg	NY	Left	No	0.425649700002396	0	369841	234
723.38671875	1	decision	trialStart	1	52	52	foodImage.19	FOODEEG_Images\0225.jpg	NY	Left	No	0.955683400010457	0	370375	251
724.4296875	2	decision	foodImageDisplay	1	52	52	foodImage.19	FOODEEG_Images\0225.jpg	NY	Left	No	0.955683400010457	0	370909	252
726.494140625	0.955683400010457	decision	choicePhaseStart	1	52	52	foodImage.19	FOODEEG_Images\0225.jpg	NY	Left	No	0.955683400010457	0	371966	253
727.439453125	0	decision	response	1	52	52	foodImage.19	FOODEEG_Images\0225.jpg	NY	Left	No	0.955683400010457	0	372450	234
728.482421875	1	taste	trialStart	1	53	53	foodImage.61	FOODEEG_Images\0640.jpg	NY	Left	No	0.724999900005059	0	372984	251
729.525390625	2	taste	foodImageDisplay	1	53	53	foodImage.61	FOODEEG_Images\0640.jpg	NY	Left	No	0.724999900005059	0	373518	252
731.587890625	0.724999900005059	taste	choicePhaseStart	1	53	53	foodImage.61	FOODEEG_Images\0640.jpg	NY	Left	No	0.724999900005059	0	374574	253
732.3046875	0	taste	response	1	53	53	foodImage.61	FOODEEG_Images\0640.jpg	NY	Left	No	0.724999900005059	0	374941	234
733.345703125	1	taste	trialStart	1	54	54	foodImage.103	FOODEEG_Images\0911.jpg	NY	Left	No	0.505549599998631	0	375474	251
734.3828125	2	taste	foodImageDisplay	1	54	54	foodImage.103	FOODEEG_Images\0911.jpg	NY	Left	No	0.505549599998631	0	376005	252
736.447265625	0.505549599998631	taste	choicePhaseStart	1	54	54	foodImage.103	FOODEEG_Images\0911.jpg	NY	Left	No	0.505549599998631	0	377062	253
736.943359375	0	taste	response	1	54	54	foodImage.103	FOODEEG_Images\0911.jpg	NY	Left	No	0.505549599998631	0	377316	234
737.986328125	1	taste	trialStart	1	55	55	foodImage.63	FOODEEG_Images\0645.jpg	YN	Left	Yes	0.756273399994825	0	377850	251
739.029296875	2	taste	foodImageDisplay	1	55	55	foodImage.63	FOODEEG_Images\0645.jpg	YN	Left	Yes	0.756273399994825	0	378384	252
741.091796875	0.756273399994825	taste	choicePhaseStart	1	55	55	foodImage.63	FOODEEG_Images\0645.jpg	YN	Left	Yes	0.756273399994825	0	379440	253
741.83984375	0	taste	response	1	55	55	foodImage.63	FOODEEG_Images\0645.jpg	YN	Left	Yes	0.756273399994825	0	379823	234
742.8828125	1	health	trialStart	1	56	56	foodImage.101	FOODEEG_Images\0909.jpg	YN	Right	No	0.934360800005379	0	380357	251
743.921875	2	health	foodImageDisplay	1	56	56	foodImage.101	FOODEEG_Images\0909.jpg	YN	Right	No	0.934360800005379	0	380889	252
745.986328125	0.934360800005379	health	choicePhaseStart	1	56	56	foodImage.101	FOODEEG_Images\0909.jpg	YN	Right	No	0.934360800005379	0	381946	253
746.91015625	0	health	response	1	56	56	foodImage.101	FOODEEG_Images\0909.jpg	YN	Right	No	0.934360800005379	0	382419	235
747.955078125	1	health	trialStart	1	57	57	foodImage.22	FOODEEG_Images\0236.jpg	YN	Left	Yes	1.3810278000019	0	382954	251
748.99609375	2	health	foodImageDisplay	1	57	57	foodImage.22	FOODEEG_Images\0236.jpg	YN	Left	Yes	1.3810278000019	0	383487	252
751.060546875	1.3810278000019	health	choicePhaseStart	1	57	57	foodImage.22	FOODEEG_Images\0236.jpg	YN	Left	Yes	1.3810278000019	0	384544	253
752.431640625	0	health	response	1	57	57	foodImage.22	FOODEEG_Images\0236.jpg	YN	Left	Yes	1.3810278000019	0	385246	234
753.478515625	1	health	trialStart	1	58	58	foodImage.36	FOODEEG_Images\0352.jpg	NY	Right	Yes	1.3662411999976	0	385782	251
754.537109375	2	health	foodImageDisplay	1	58	58	foodImage.36	FOODEEG_Images\0352.jpg	NY	Right	Yes	1.3662411999976	0	386324	252
756.6015625	1.3662411999976	health	choicePhaseStart	1	58	58	foodImage.36	FOODEEG_Images\0352.jpg	NY	Right	Yes	1.3662411999976	0	387381	253
757.958984375	0	health	response	1	58	58	foodImage.36	FOODEEG_Images\0352.jpg	NY	Right	Yes	1.3662411999976	0	388076	235
759.001953125	1	taste	trialStart	1	59	59	foodImage.32	FOODEEG_Images\0319.jpg	NY	Right	Yes	1.04992360000324	0	388610	251
760.044921875	2	taste	foodImageDisplay	1	59	59	foodImage.32	FOODEEG_Images\0319.jpg	NY	Right	Yes	1.04992360000324	0	389144	252
762.109375	1.04992360000324	taste	choicePhaseStart	1	59	59	foodImage.32	FOODEEG_Images\0319.jpg	NY	Right	Yes	1.04992360000324	0	390201	253
763.150390625	0	taste	response	1	59	59	foodImage.32	FOODEEG_Images\0319.jpg	NY	Right	Yes	1.04992360000324	0	390734	235
764.193359375	1	taste	trialStart	1	60	60	foodImage.11	FOODEEG_Images\0180.jpg	NY	Right	Yes	0.933044799996424	0	391268	251
765.236328125	2	taste	foodImageDisplay	1	60	60	foodImage.11	FOODEEG_Images\0180.jpg	NY	Right	Yes	0.933044799996424	0	391802	252
767.298828125	0.933044799996424	taste	choicePhaseStart	1	60	60	foodImage.11	FOODEEG_Images\0180.jpg	NY	Right	Yes	0.933044799996424	0	392858	253
768.22265625	0	taste	response	1	60	60	foodImage.11	FOODEEG_Images\0180.jpg	NY	Right	Yes	0.933044799996424	0	393331	235
770.265625	3.228515625	n/a	blockEnd	n/a	n/a	n/a	n/a	n/a	n/a	n/a	n/a	n/a	n/a	394377	254
773.494140625	2	n/a	blockStart	2	n/a	n/a	n/a	n/a	n/a	n/a	n/a	n/a	n/a	396030	250
775.525390625	1	taste	trialStart	2	61	1	foodImage.1	FOODEEG_Images\0004.jpg	YN	Left	Yes	0.827483099987148	0	397070	251
776.568359375	2	taste	foodImageDisplay	2	61	1	foodImage.1	FOODEEG_Images\0004.jpg	YN	Left	Yes	0.827483099987148	0	397604	252
778.638671875	0.827483099987148	taste	choicePhaseStart	2	61	1	foodImage.1	FOODEEG_Images\0004.jpg	YN	Left	Yes	0.827483099987148	0	398664	253
779.462890625	0	taste	response	2	61	1	foodImage.1	FOODEEG_Images\0004.jpg	YN	Left	Yes	0.827483099987148	0	399086	234
780.5078125	1	taste	trialStart	2	62	2	foodImage.8	FOODEEG_Images\0136.jpg	YN	Left	Yes	0.832299700006843	0	399621	251
781.55078125	2	taste	foodImageDisplay	2	62	2	foodImage.8	FOODEEG_Images\0136.jpg	YN	Left	Yes	0.832299700006843	0	400155	252
783.615234375	0.832299700006843	taste	choicePhaseStart	2	62	2	foodImage.8	FOODEEG_Images\0136.jpg	YN	Left	Yes	0.832299700006843	0	401212	253
784.4375	0	taste	response	2	62	2	foodImage.8	FOODEEG_Images\0136.jpg	YN	Left	Yes	0.832299700006843	0	401633	234
785.482421875	1	health	trialStart	2	63	3	foodImage.102	FOODEEG_Images\0910.jpg	YN	Left	Yes	1.31827639999392	0	402168	251
786.5234375	2	health	foodImageDisplay	2	63	3	foodImage.102	FOODEEG_Images\0910.jpg	YN	Left	Yes	1.31827639999392	0	402701	252
788.5859375	1.31827639999392	health	choicePhaseStart	2	63	3	foodImage.102	FOODEEG_Images\0910.jpg	YN	Left	Yes	1.31827639999392	0	403757	253
789.89453125	0	health	response	2	63	3	foodImage.102	FOODEEG_Images\0910.jpg	YN	Left	Yes	1.31827639999392	0	404427	234
790.9375	1	taste	trialStart	2	64	4	foodImage.48	FOODEEG_Images\0494.jpg	YN	Right	No	0.491618000000017	0	404961	251
791.98046875	2	taste	foodImageDisplay	2	64	4	foodImage.48	FOODEEG_Images\0494.jpg	YN	Right	No	0.491618000000017	0	405495	252
794.04296875	0.491618000000017	taste	choicePhaseStart	2	64	4	foodImage.48	FOODEEG_Images\0494.jpg	YN	Right	No	0.491618000000017	0	406551	253
794.525390625	0	taste	response	2	64	4	foodImage.48	FOODEEG_Images\0494.jpg	YN	Right	No	0.491618000000017	0	406798	235
795.5703125	1	health	trialStart	2	65	5	foodImage.44	FOODEEG_Images\0459.jpg	YN	Left	Yes	0.67670559999533	0	407333	251
796.615234375	2	health	foodImageDisplay	2	65	5	foodImage.44	FOODEEG_Images\0459.jpg	YN	Left	Yes	0.67670559999533	0	407868	252
798.6796875	0.67670559999533	health	choicePhaseStart	2	65	5	foodImage.44	FOODEEG_Images\0459.jpg	YN	Left	Yes	0.67670559999533	0	408925	253
799.349609375	0	health	response	2	65	5	foodImage.44	FOODEEG_Images\0459.jpg	YN	Left	Yes	0.67670559999533	0	409268	234
800.400390625	1	taste	trialStart	2	66	6	foodImage.82	FOODEEG_Images\0805.jpg	NY	Right	Yes	0.956047100000433	0	409806	251
801.455078125	2	taste	foodImageDisplay	2	66	6	foodImage.82	FOODEEG_Images\0805.jpg	NY	Right	Yes	0.956047100000433	0	410346	252
803.5234375	0.956047100000433	taste	choicePhaseStart	2	66	6	foodImage.82	FOODEEG_Images\0805.jpg	NY	Right	Yes	0.956047100000433	0	411405	253
804.46875	0	taste	response	2	66	6	foodImage.82	FOODEEG_Images\0805.jpg	NY	Right	Yes	0.956047100000433	0	411889	235
805.537109375	1	health	trialStart	2	67	7	foodImage.38	FOODEEG_Images\0365.jpg	YN	Left	Yes	0.670274400006747	0	412436	251
806.576171875	2	health	foodImageDisplay	2	67	7	foodImage.38	FOODEEG_Images\0365.jpg	YN	Left	Yes	0.670274400006747	0	412968	252
808.640625	0.670274400006747	health	choicePhaseStart	2	67	7	foodImage.38	FOODEEG_Images\0365.jpg	YN	Left	Yes	0.670274400006747	0	414025	253
809.30078125	0	health	response	2	67	7	foodImage.38	FOODEEG_Images\0365.jpg	YN	Left	Yes	0.670274400006747	0	414363	234
810.34375	1	decision	trialStart	2	68	8	foodImage.120	FOODEEG_Images\0928.jpg	YN	Right	No	0.753409100012504	0	414897	251
811.380859375	2	decision	foodImageDisplay	2	68	8	foodImage.120	FOODEEG_Images\0928.jpg	YN	Right	No	0.753409100012504	0	415428	252
813.4453125	0.753409100012504	decision	choicePhaseStart	2	68	8	foodImage.120	FOODEEG_Images\0928.jpg	YN	Right	No	0.753409100012504	0	416485	253
814.189453125	0	decision	response	2	68	8	foodImage.120	FOODEEG_Images\0928.jpg	YN	Right	No	0.753409100012504	0	416866	235
815.232421875	1	taste	trialStart	2	69	9	foodImage.117	FOODEEG_Images\0925.jpg	YN	Left	Yes	0.761152699997183	0	417400	251
816.26953125	2	taste	foodImageDisplay	2	69	9	foodImage.117	FOODEEG_Images\0925.jpg	YN	Left	Yes	0.761152699997183	0	417931	252
818.33203125	0.761152699997183	taste	choicePhaseStart	2	69	9	foodImage.117	FOODEEG_Images\0925.jpg	YN	Left	Yes	0.761152699997183	0	418987	253
819.083984375	0	taste	response	2	69	9	foodImage.117	FOODEEG_Images\0925.jpg	YN	Left	Yes	0.761152699997183	0	419372	234
820.12890625	1	decision	trialStart	2	70	10	foodImage.23	FOODEEG_Images\0244.jpg	NY	Left	No	0.884190500000841	0	419907	251
821.169921875	2	decision	foodImageDisplay	2	70	10	foodImage.23	FOODEEG_Images\0244.jpg	NY	Left	No	0.884190500000841	0	420440	252
823.234375	0.884190500000841	decision	choicePhaseStart	2	70	10	foodImage.23	FOODEEG_Images\0244.jpg	NY	Left	No	0.884190500000841	0	421497	253
824.109375	0	decision	response	2	70	10	foodImage.23	FOODEEG_Images\0244.jpg	NY	Left	No	0.884190500000841	0	421945	234
825.15625	1	decision	trialStart	2	71	11	foodImage.99	FOODEEG_Images\0907.jpg	YN	Right	No	0.694292400003178	0	422481	251
826.208984375	2	decision	foodImageDisplay	2	71	11	foodImage.99	FOODEEG_Images\0907.jpg	YN	Right	No	0.694292400003178	0	423020	252
828.271484375	0.694292400003178	decision	choicePhaseStart	2	71	11	foodImage.99	FOODEEG_Images\0907.jpg	YN	Right	No	0.694292400003178	0	424076	253
828.95703125	0	decision	response	2	71	11	foodImage.99	FOODEEG_Images\0907.jpg	YN	Right	No	0.694292400003178	0	424427	235
830	1	decision	trialStart	2	72	12	foodImage.15	FOODEEG_Images\0189.jpg	NY	Left	No	0.580718400000478	0	424961	251
831.05859375	2	decision	foodImageDisplay	2	72	12	foodImage.15	FOODEEG_Images\0189.jpg	NY	Left	No	0.580718400000478	0	425503	252
833.12109375	0.580718400000478	decision	choicePhaseStart	2	72	12	foodImage.15	FOODEEG_Images\0189.jpg	NY	Left	No	0.580718400000478	0	426559	253
833.693359375	0	decision	response	2	72	12	foodImage.15	FOODEEG_Images\0189.jpg	NY	Left	No	0.580718400000478	0	426852	234
834.736328125	1	taste	trialStart	2	73	13	foodImage.10	FOODEEG_Images\0145.jpg	NY	Right	Yes	0.588401200002409	0	427386	251
835.79296875	2	taste	foodImageDisplay	2	73	13	foodImage.10	FOODEEG_Images\0145.jpg	NY	Right	Yes	0.588401200002409	0	427927	252
837.857421875	0.588401200002409	taste	choicePhaseStart	2	73	13	foodImage.10	FOODEEG_Images\0145.jpg	NY	Right	Yes	0.588401200002409	0	428984	253
838.435546875	0	taste	response	2	73	13	foodImage.10	FOODEEG_Images\0145.jpg	NY	Right	Yes	0.588401200002409	0	429280	235
839.478515625	1	taste	trialStart	2	74	14	foodImage.78	FOODEEG_Images\0787.jpg	YN	Left	Yes	0.764068199991016	0	429814	251
840.525390625	2	taste	foodImageDisplay	2	74	14	foodImage.78	FOODEEG_Images\0787.jpg	YN	Left	Yes	0.764068199991016	0	430350	252
842.58984375	0.764068199991016	taste	choicePhaseStart	2	74	14	foodImage.78	FOODEEG_Images\0787.jpg	YN	Left	Yes	0.764068199991016	0	431407	253
843.34765625	0	taste	response	2	74	14	foodImage.78	FOODEEG_Images\0787.jpg	YN	Left	Yes	0.764068199991016	0	431795	234
844.390625	1	health	trialStart	2	75	15	foodImage.114	FOODEEG_Images\0922.jpg	YN	Right	No	0.536106699990341	0	432329	251
845.4375	2	health	foodImageDisplay	2	75	15	foodImage.114	FOODEEG_Images\0922.jpg	YN	Right	No	0.536106699990341	0	432865	252
847.501953125	0.536106699990341	health	choicePhaseStart	2	75	15	foodImage.114	FOODEEG_Images\0922.jpg	YN	Right	No	0.536106699990341	0	433922	253
848.02734375	0	health	response	2	75	15	foodImage.114	FOODEEG_Images\0922.jpg	YN	Right	No	0.536106699990341	0	434191	235
849.0703125	1	taste	trialStart	2	76	16	foodImage.13	FOODEEG_Images\0183.jpg	YN	Left	Yes	0.92429809999885	0	434725	251
850.11328125	2	taste	foodImageDisplay	2	76	16	foodImage.13	FOODEEG_Images\0183.jpg	YN	Left	Yes	0.92429809999885	0	435259	252
852.17578125	0.92429809999885	taste	choicePhaseStart	2	76	16	foodImage.13	FOODEEG_Images\0183.jpg	YN	Left	Yes	0.92429809999885	0	436315	253
853.091796875	0	taste	response	2	76	16	foodImage.13	FOODEEG_Images\0183.jpg	YN	Left	Yes	0.92429809999885	0	436784	234
854.138671875	1	taste	trialStart	2	77	17	foodImage.20	FOODEEG_Images\0226.jpg	NY	Left	No	0.727030299996841	0	437320	251
855.181640625	2	taste	foodImageDisplay	2	77	17	foodImage.20	FOODEEG_Images\0226.jpg	NY	Left	No	0.727030299996841	0	437854	252
857.24609375	0.727030299996841	taste	choicePhaseStart	2	77	17	foodImage.20	FOODEEG_Images\0226.jpg	NY	Left	No	0.727030299996841	0	438911	253
857.962890625	0	taste	response	2	77	17	foodImage.20	FOODEEG_Images\0226.jpg	NY	Left	No	0.727030299996841	0	439278	234
859.01171875	1	decision	trialStart	2	78	18	foodImage.27	FOODEEG_Images\0263.jpg	NY	Left	No	1.4370665000024	0	439815	251
860.0546875	2	decision	foodImageDisplay	2	78	18	foodImage.27	FOODEEG_Images\0263.jpg	NY	Left	No	1.4370665000024	0	440349	252
862.119140625	1.4370665000024	decision	choicePhaseStart	2	78	18	foodImage.27	FOODEEG_Images\0263.jpg	NY	Left	No	1.4370665000024	0	441406	253
863.546875	0	decision	response	2	78	18	foodImage.27	FOODEEG_Images\0263.jpg	NY	Left	No	1.4370665000024	0	442137	234
864.591796875	1	health	trialStart	2	79	19	foodImage.106	FOODEEG_Images\0914.jpg	NY	Right	Yes	0.638925699997344	0	442672	251
865.630859375	2	health	foodImageDisplay	2	79	19	foodImage.106	FOODEEG_Images\0914.jpg	NY	Right	Yes	0.638925699997344	0	443204	252
867.693359375	0.638925699997344	health	choicePhaseStart	2	79	19	foodImage.106	FOODEEG_Images\0914.jpg	NY	Right	Yes	0.638925699997344	0	444260	253
868.32421875	0	health	response	2	79	19	foodImage.106	FOODEEG_Images\0914.jpg	NY	Right	Yes	0.638925699997344	0	444583	235
869.3671875	1	health	trialStart	2	80	20	foodImage.30	FOODEEG_Images\0282.jpg	YN	Left	Yes	0.818230999997468	0	445117	251
870.41015625	2	health	foodImageDisplay	2	80	20	foodImage.30	FOODEEG_Images\0282.jpg	YN	Left	Yes	0.818230999997468	0	445651	252
872.474609375	0.818230999997468	health	choicePhaseStart	2	80	20	foodImage.30	FOODEEG_Images\0282.jpg	YN	Left	Yes	0.818230999997468	0	446708	253
873.283203125	0	health	response	2	80	20	foodImage.30	FOODEEG_Images\0282.jpg	YN	Left	Yes	0.818230999997468	0	447122	234
874.326171875	1	health	trialStart	2	81	21	foodImage.87	FOODEEG_Images\0873.jpg	YN	Left	Yes	1.11511290000635	0	447656	251
875.41015625	2	health	foodImageDisplay	2	81	21	foodImage.87	FOODEEG_Images\0873.jpg	YN	Left	Yes	1.11511290000635	0	448211	252
877.47265625	1.11511290000635	health	choicePhaseStart	2	81	21	foodImage.87	FOODEEG_Images\0873.jpg	YN	Left	Yes	1.11511290000635	0	449267	253
878.578125	0	health	response	2	81	21	foodImage.87	FOODEEG_Images\0873.jpg	YN	Left	Yes	1.11511290000635	0	449833	234
879.625	1	taste	trialStart	2	82	22	foodImage.71	FOODEEG_Images\0713.jpg	YN	Right	No	0.384885200008284	0	450369	251
880.66796875	2	taste	foodImageDisplay	2	82	22	foodImage.71	FOODEEG_Images\0713.jpg	YN	Right	No	0.384885200008284	0	450903	252
882.732421875	0.384885200008284	taste	choicePhaseStart	2	82	22	foodImage.71	FOODEEG_Images\0713.jpg	YN	Right	No	0.384885200008284	0	451960	253
883.107421875	0	taste	response	2	82	22	foodImage.71	FOODEEG_Images\0713.jpg	YN	Right	No	0.384885200008284	0	452152	235
884.158203125	1	decision	trialStart	2	83	23	foodImage.69	FOODEEG_Images\0693.jpg	NY	Right	Yes	1.92750159998832	0	452690	251
885.201171875	2	decision	foodImageDisplay	2	83	23	foodImage.69	FOODEEG_Images\0693.jpg	NY	Right	Yes	1.92750159998832	0	453224	252
887.265625	1.92750159998832	decision	choicePhaseStart	2	83	23	foodImage.69	FOODEEG_Images\0693.jpg	NY	Right	Yes	1.92750159998832	0	454281	253
889.1875	0	decision	response	2	83	23	foodImage.69	FOODEEG_Images\0693.jpg	NY	Right	Yes	1.92750159998832	0	455265	235
890.23046875	1	decision	trialStart	2	84	24	foodImage.68	FOODEEG_Images\0685.jpg	NY	Left	No	0.93675130000338	0	455799	251
891.30859375	2	decision	foodImageDisplay	2	84	24	foodImage.68	FOODEEG_Images\0685.jpg	NY	Left	No	0.93675130000338	0	456351	252
893.37109375	0.93675130000338	decision	choicePhaseStart	2	84	24	foodImage.68	FOODEEG_Images\0685.jpg	NY	Left	No	0.93675130000338	0	457407	253
894.298828125	0	decision	response	2	84	24	foodImage.68	FOODEEG_Images\0685.jpg	NY	Left	No	0.93675130000338	0	457882	234
895.341796875	1	health	trialStart	2	85	25	foodImage.118	FOODEEG_Images\0926.jpg	NY	Left	No	0.672205199996824	0	458416	251
896.37890625	2	health	foodImageDisplay	2	85	25	foodImage.118	FOODEEG_Images\0926.jpg	NY	Left	No	0.672205199996824	0	458947	252
898.443359375	0.672205199996824	health	choicePhaseStart	2	85	25	foodImage.118	FOODEEG_Images\0926.jpg	NY	Left	No	0.672205199996824	0	460004	253
899.107421875	0	health	response	2	85	25	foodImage.118	FOODEEG_Images\0926.jpg	NY	Left	No	0.672205199996824	0	460344	234
900.150390625	1	health	trialStart	2	86	26	foodImage.88	FOODEEG_Images\0878.jpg	YN	Left	Yes	1.20554749999428	0	460878	251
901.20703125	2	health	foodImageDisplay	2	86	26	foodImage.88	FOODEEG_Images\0878.jpg	YN	Left	Yes	1.20554749999428	0	461419	252
903.26953125	1.20554749999428	health	choicePhaseStart	2	86	26	foodImage.88	FOODEEG_Images\0878.jpg	YN	Left	Yes	1.20554749999428	0	462475	253
904.466796875	0	health	response	2	86	26	foodImage.88	FOODEEG_Images\0878.jpg	YN	Left	Yes	1.20554749999428	0	463088	234
905.509765625	1	decision	trialStart	2	87	27	foodImage.57	FOODEEG_Images\0587.jpg	NY	Right	Yes	0.800893500010716	0	463622	251
906.5546875	2	decision	foodImageDisplay	2	87	27	foodImage.57	FOODEEG_Images\0587.jpg	NY	Right	Yes	0.800893500010716	0	464157	252
908.6171875	0.800893500010716	decision	choicePhaseStart	2	87	27	foodImage.57	FOODEEG_Images\0587.jpg	NY	Right	Yes	0.800893500010716	0	465213	253
909.41015625	0	decision	response	2	87	27	foodImage.57	FOODEEG_Images\0587.jpg	NY	Right	Yes	0.800893500010716	0	465619	235
910.458984375	1	taste	trialStart	2	88	28	foodImage.40	FOODEEG_Images\0373.jpg	YN	Left	Yes	0.680649700007052	0	466156	251
911.5	2	taste	foodImageDisplay	2	88	28	foodImage.40	FOODEEG_Images\0373.jpg	YN	Left	Yes	0.680649700007052	0	466689	252
913.5625	0.680649700007052	taste	choicePhaseStart	2	88	28	foodImage.40	FOODEEG_Images\0373.jpg	YN	Left	Yes	0.680649700007052	0	467745	253
914.234375	0	taste	response	2	88	28	foodImage.40	FOODEEG_Images\0373.jpg	YN	Left	Yes	0.680649700007052	0	468089	234
915.27734375	1	health	trialStart	2	89	29	foodImage.63	FOODEEG_Images\0645.jpg	NY	Right	Yes	0.748031900002388	0	468623	251
916.3203125	2	health	foodImageDisplay	2	89	29	foodImage.63	FOODEEG_Images\0645.jpg	NY	Right	Yes	0.748031900002388	0	469157	252
918.3828125	0.748031900002388	health	choicePhaseStart	2	89	29	foodImage.63	FOODEEG_Images\0645.jpg	NY	Right	Yes	0.748031900002388	0	470213	253
919.123046875	0	health	response	2	89	29	foodImage.63	FOODEEG_Images\0645.jpg	NY	Right	Yes	0.748031900002388	0	470592	235
920.166015625	1	health	trialStart	2	90	30	foodImage.31	FOODEEG_Images\0294.jpg	YN	Right	No	0.698056599998381	0	471126	251
921.208984375	2	health	foodImageDisplay	2	90	30	foodImage.31	FOODEEG_Images\0294.jpg	YN	Right	No	0.698056599998381	0	471660	252
923.2734375	0.698056599998381	health	choicePhaseStart	2	90	30	foodImage.31	FOODEEG_Images\0294.jpg	YN	Right	No	0.698056599998381	0	472717	253
923.9609375	0	health	response	2	90	30	foodImage.31	FOODEEG_Images\0294.jpg	YN	Right	No	0.698056599998381	0	473069	235
925.005859375	1	taste	trialStart	2	91	31	foodImage.36	FOODEEG_Images\0352.jpg	NY	Left	No	0.792452299996512	0	473604	251
926.0625	2	taste	foodImageDisplay	2	91	31	foodImage.36	FOODEEG_Images\0352.jpg	NY	Left	No	0.792452299996512	0	474145	252
928.130859375	0.792452299996512	taste	choicePhaseStart	2	91	31	foodImage.36	FOODEEG_Images\0352.jpg	NY	Left	No	0.792452299996512	0	475204	253
928.9140625	0	taste	response	2	91	31	foodImage.36	FOODEEG_Images\0352.jpg	NY	Left	No	0.792452299996512	0	475605	234
929.95703125	1	taste	trialStart	2	92	32	foodImage.93	FOODEEG_Images\0901.jpg	YN	Left	Yes	0.757574899995234	0	476139	251
930.99609375	2	taste	foodImageDisplay	2	92	32	foodImage.93	FOODEEG_Images\0901.jpg	YN	Left	Yes	0.757574899995234	0	476671	252
933.060546875	0.757574899995234	taste	choicePhaseStart	2	92	32	foodImage.93	FOODEEG_Images\0901.jpg	YN	Left	Yes	0.757574899995234	0	477728	253
933.80859375	0	taste	response	2	92	32	foodImage.93	FOODEEG_Images\0901.jpg	YN	Left	Yes	0.757574899995234	0	478111	234
934.853515625	1	taste	trialStart	2	93	33	foodImage.29	FOODEEG_Images\0278.jpg	NY	Left	No	0.619852199990419	0	478646	251
935.896484375	2	taste	foodImageDisplay	2	93	33	foodImage.29	FOODEEG_Images\0278.jpg	NY	Left	No	0.619852199990419	0	479180	252
937.958984375	0.619852199990419	taste	choicePhaseStart	2	93	33	foodImage.29	FOODEEG_Images\0278.jpg	NY	Left	No	0.619852199990419	0	480236	253
938.568359375	0	taste	response	2	93	33	foodImage.29	FOODEEG_Images\0278.jpg	NY	Left	No	0.619852199990419	0	480548	234
939.61328125	1	health	trialStart	2	94	34	foodImage.15	FOODEEG_Images\0189.jpg	YN	Right	No	1.06342759999097	0	481083	251
940.67578125	2	health	foodImageDisplay	2	94	34	foodImage.15	FOODEEG_Images\0189.jpg	YN	Right	No	1.06342759999097	0	481627	252
942.73828125	1.06342759999097	health	choicePhaseStart	2	94	34	foodImage.15	FOODEEG_Images\0189.jpg	YN	Right	No	1.06342759999097	0	482683	253
943.79296875	0	health	response	2	94	34	foodImage.15	FOODEEG_Images\0189.jpg	YN	Right	No	1.06342759999097	0	483223	235
944.8359375	1	taste	trialStart	2	95	35	foodImage.97	FOODEEG_Images\0905.jpg	YN	Right	No	0.512313600003836	0	483757	251
945.875	2	taste	foodImageDisplay	2	95	35	foodImage.97	FOODEEG_Images\0905.jpg	YN	Right	No	0.512313600003836	0	484289	252
947.9375	0.512313600003836	taste	choicePhaseStart	2	95	35	foodImage.97	FOODEEG_Images\0905.jpg	YN	Right	No	0.512313600003836	0	485345	253
948.44140625	0	taste	response	2	95	35	foodImage.97	FOODEEG_Images\0905.jpg	YN	Right	No	0.512313600003836	0	485603	235
949.484375	1	health	trialStart	2	96	36	foodImage.48	FOODEEG_Images\0494.jpg	YN	Right	No	0.739683199994033	0	486137	251
950.525390625	2	health	foodImageDisplay	2	96	36	foodImage.48	FOODEEG_Images\0494.jpg	YN	Right	No	0.739683199994033	0	486670	252
952.58984375	0.739683199994033	health	choicePhaseStart	2	96	36	foodImage.48	FOODEEG_Images\0494.jpg	YN	Right	No	0.739683199994033	0	487727	253
953.3203125	0	health	response	2	96	36	foodImage.48	FOODEEG_Images\0494.jpg	YN	Right	No	0.739683199994033	0	488101	235
954.36328125	1	taste	trialStart	2	97	37	foodImage.112	FOODEEG_Images\0920.jpg	NY	Left	No	0.953488400002243	0	488635	251
955.40234375	2	taste	foodImageDisplay	2	97	37	foodImage.112	FOODEEG_Images\0920.jpg	NY	Left	No	0.953488400002243	0	489167	252
957.470703125	0.953488400002243	taste	choicePhaseStart	2	97	37	foodImage.112	FOODEEG_Images\0920.jpg	NY	Left	No	0.953488400002243	0	490226	253
958.416015625	0	taste	response	2	97	37	foodImage.112	FOODEEG_Images\0920.jpg	NY	Left	No	0.953488400002243	0	490710	234
959.4609375	1	health	trialStart	2	98	38	foodImage.72	FOODEEG_Images\0714.jpg	NY	Left	No	0.522696400003042	0	491245	251
960.50390625	2	health	foodImageDisplay	2	98	38	foodImage.72	FOODEEG_Images\0714.jpg	NY	Left	No	0.522696400003042	0	491779	252
962.56640625	0.522696400003042	health	choicePhaseStart	2	98	38	foodImage.72	FOODEEG_Images\0714.jpg	NY	Left	No	0.522696400003042	0	492835	253
963.080078125	0	health	response	2	98	38	foodImage.72	FOODEEG_Images\0714.jpg	NY	Left	No	0.522696400003042	0	493098	234
964.125	1	taste	trialStart	2	99	39	foodImage.76	FOODEEG_Images\0766.jpg	YN	Right	No	1.33442659999127	0	493633	251
965.169921875	2	taste	foodImageDisplay	2	99	39	foodImage.76	FOODEEG_Images\0766.jpg	YN	Right	No	1.33442659999127	0	494168	252
967.234375	1.33442659999127	taste	choicePhaseStart	2	99	39	foodImage.76	FOODEEG_Images\0766.jpg	YN	Right	No	1.33442659999127	0	495225	253
968.560546875	0	taste	response	2	99	39	foodImage.76	FOODEEG_Images\0766.jpg	YN	Right	No	1.33442659999127	0	495904	235
969.603515625	1	taste	trialStart	2	100	40	foodImage.2	FOODEEG_Images\0028.jpg	NY	Right	Yes	0.530760599998757	0	496438	251
970.646484375	2	taste	foodImageDisplay	2	100	40	foodImage.2	FOODEEG_Images\0028.jpg	NY	Right	Yes	0.530760599998757	0	496972	252
972.7109375	0.530760599998757	taste	choicePhaseStart	2	100	40	foodImage.2	FOODEEG_Images\0028.jpg	NY	Right	Yes	0.530760599998757	0	498029	253
973.232421875	0	taste	response	2	100	40	foodImage.2	FOODEEG_Images\0028.jpg	NY	Right	Yes	0.530760599998757	0	498296	235
974.283203125	1	decision	trialStart	2	101	41	foodImage.3	FOODEEG_Images\0046.jpg	NY	Right	Yes	0.867054200003622	0	498834	251
975.326171875	2	decision	foodImageDisplay	2	101	41	foodImage.3	FOODEEG_Images\0046.jpg	NY	Right	Yes	0.867054200003622	0	499368	252
977.390625	0.867054200003622	decision	choicePhaseStart	2	101	41	foodImage.3	FOODEEG_Images\0046.jpg	NY	Right	Yes	0.867054200003622	0	500425	253
978.248046875	0	decision	response	2	101	41	foodImage.3	FOODEEG_Images\0046.jpg	NY	Right	Yes	0.867054200003622	0	500864	235
979.29296875	1	decision	trialStart	2	102	42	foodImage.118	FOODEEG_Images\0926.jpg	NY	Left	No	0.939811499993084	0	501399	251
980.330078125	2	decision	foodImageDisplay	2	102	42	foodImage.118	FOODEEG_Images\0926.jpg	NY	Left	No	0.939811499993084	0	501930	252
982.3984375	0.939811499993084	decision	choicePhaseStart	2	102	42	foodImage.118	FOODEEG_Images\0926.jpg	NY	Left	No	0.939811499993084	0	502989	253
983.328125	0	decision	response	2	102	42	foodImage.118	FOODEEG_Images\0926.jpg	NY	Left	No	0.939811499993084	0	503465	234
984.37109375	1	health	trialStart	2	103	43	foodImage.49	FOODEEG_Images\0515.jpg	YN	Right	No	3.28443729999708	0	503999	251
985.4140625	2	health	foodImageDisplay	2	103	43	foodImage.49	FOODEEG_Images\0515.jpg	YN	Right	No	3.28443729999708	0	504533	252
987.4765625	3.28443729999708	health	choicePhaseStart	2	103	43	foodImage.49	FOODEEG_Images\0515.jpg	YN	Right	No	3.28443729999708	0	505589	253
990.751953125	0	health	response	2	103	43	foodImage.49	FOODEEG_Images\0515.jpg	YN	Right	No	3.28443729999708	0	507266	235
991.79296875	1	health	trialStart	2	104	44	foodImage.19	FOODEEG_Images\0225.jpg	NY	Left	No	0.506523300005938	0	507799	251
992.837890625	2	health	foodImageDisplay	2	104	44	foodImage.19	FOODEEG_Images\0225.jpg	NY	Left	No	0.506523300005938	0	508334	252
994.90234375	0.506523300005938	health	choicePhaseStart	2	104	44	foodImage.19	FOODEEG_Images\0225.jpg	NY	Left	No	0.506523300005938	0	509391	253
995.400390625	0	health	response	2	104	44	foodImage.19	FOODEEG_Images\0225.jpg	NY	Left	No	0.506523300005938	0	509646	234
996.443359375	1	taste	trialStart	2	105	45	foodImage.98	FOODEEG_Images\0906.jpg	YN	Right	No	0.694436799996765	0	510180	251
997.482421875	2	taste	foodImageDisplay	2	105	45	foodImage.98	FOODEEG_Images\0906.jpg	YN	Right	No	0.694436799996765	0	510712	252
999.544921875	0.694436799996765	taste	choicePhaseStart	2	105	45	foodImage.98	FOODEEG_Images\0906.jpg	YN	Right	No	0.694436799996765	0	511768	253
1000.23046875	0	taste	response	2	105	45	foodImage.98	FOODEEG_Images\0906.jpg	YN	Right	No	0.694436799996765	0	512119	235
1001.275390625	1	health	trialStart	2	106	46	foodImage.11	FOODEEG_Images\0180.jpg	YN	Right	No	0.787607399994158	0	512654	251
1002.318359375	2	health	foodImageDisplay	2	106	46	foodImage.11	FOODEEG_Images\0180.jpg	YN	Right	No	0.787607399994158	0	513188	252
1004.380859375	0.787607399994158	health	choicePhaseStart	2	106	46	foodImage.11	FOODEEG_Images\0180.jpg	YN	Right	No	0.787607399994158	0	514244	253
1005.16015625	0	health	response	2	106	46	foodImage.11	FOODEEG_Images\0180.jpg	YN	Right	No	0.787607399994158	0	514643	235
1006.203125	1	taste	trialStart	2	107	47	foodImage.4	FOODEEG_Images\0065.jpg	NY	Right	Yes	0.674530399992364	0	515177	251
1007.26171875	2	taste	foodImageDisplay	2	107	47	foodImage.4	FOODEEG_Images\0065.jpg	NY	Right	Yes	0.674530399992364	0	515719	252
1009.33203125	0.674530399992364	taste	choicePhaseStart	2	107	47	foodImage.4	FOODEEG_Images\0065.jpg	NY	Right	Yes	0.674530399992364	0	516779	253
1009.998046875	0	taste	response	2	107	47	foodImage.4	FOODEEG_Images\0065.jpg	NY	Right	Yes	0.674530399992364	0	517120	235
1011.04296875	1	health	trialStart	2	108	48	foodImage.120	FOODEEG_Images\0928.jpg	NY	Left	No	0.360331699994276	0	517655	251
1012.08203125	2	health	foodImageDisplay	2	108	48	foodImage.120	FOODEEG_Images\0928.jpg	NY	Left	No	0.360331699994276	0	518187	252
1014.15234375	0.360331699994276	health	choicePhaseStart	2	108	48	foodImage.120	FOODEEG_Images\0928.jpg	NY	Left	No	0.360331699994276	0	519247	253
1014.501953125	0	health	response	2	108	48	foodImage.120	FOODEEG_Images\0928.jpg	NY	Left	No	0.360331699994276	0	519426	234
1015.546875	1	decision	trialStart	2	109	49	foodImage.110	FOODEEG_Images\0918.jpg	NY	Left	No	1.25472620000073	0	519961	251
1016.5859375	2	decision	foodImageDisplay	2	109	49	foodImage.110	FOODEEG_Images\0918.jpg	NY	Left	No	1.25472620000073	0	520493	252
1018.6484375	1.25472620000073	decision	choicePhaseStart	2	109	49	foodImage.110	FOODEEG_Images\0918.jpg	NY	Left	No	1.25472620000073	0	521549	253
1019.89453125	0	decision	response	2	109	49	foodImage.110	FOODEEG_Images\0918.jpg	NY	Left	No	1.25472620000073	0	522187	234
1020.9375	1	taste	trialStart	2	110	50	foodImage.59	FOODEEG_Images\0607.jpg	NY	Right	Yes	2.23547010000038	0	522721	251
1021.986328125	2	taste	foodImageDisplay	2	110	50	foodImage.59	FOODEEG_Images\0607.jpg	NY	Right	Yes	2.23547010000038	0	523258	252
1024.048828125	2.23547010000038	taste	choicePhaseStart	2	110	50	foodImage.59	FOODEEG_Images\0607.jpg	NY	Right	Yes	2.23547010000038	0	524314	253
1026.279296875	0	taste	response	2	110	50	foodImage.59	FOODEEG_Images\0607.jpg	NY	Right	Yes	2.23547010000038	0	525456	235
1027.3203125	1	health	trialStart	2	111	51	foodImage.46	FOODEEG_Images\0479.jpg	YN	Left	Yes	0.556751700001769	0	525989	251
1028.40234375	2	health	foodImageDisplay	2	111	51	foodImage.46	FOODEEG_Images\0479.jpg	YN	Left	Yes	0.556751700001769	0	526543	252
1030.466796875	0.556751700001769	health	choicePhaseStart	2	111	51	foodImage.46	FOODEEG_Images\0479.jpg	YN	Left	Yes	0.556751700001769	0	527600	253
1031.013671875	0	health	response	2	111	51	foodImage.46	FOODEEG_Images\0479.jpg	YN	Left	Yes	0.556751700001769	0	527880	234
1032.056640625	1	decision	trialStart	2	112	52	foodImage.80	FOODEEG_Images\0796.jpg	YN	Left	Yes	2.16418870000052	0	528414	251
1033.115234375	2	decision	foodImageDisplay	2	112	52	foodImage.80	FOODEEG_Images\0796.jpg	YN	Left	Yes	2.16418870000052	0	528956	252
1035.1796875	2.16418870000052	decision	choicePhaseStart	2	112	52	foodImage.80	FOODEEG_Images\0796.jpg	YN	Left	Yes	2.16418870000052	0	530013	253
1037.333984375	0	decision	response	2	112	52	foodImage.80	FOODEEG_Images\0796.jpg	YN	Left	Yes	2.16418870000052	0	531116	234
1038.376953125	1	health	trialStart	2	113	53	foodImage.75	FOODEEG_Images\0763.jpg	NY	Right	Yes	0.659719400005997	0	531650	251
1039.421875	2	health	foodImageDisplay	2	113	53	foodImage.75	FOODEEG_Images\0763.jpg	NY	Right	Yes	0.659719400005997	0	532185	252
1041.482421875	0.659719400005997	health	choicePhaseStart	2	113	53	foodImage.75	FOODEEG_Images\0763.jpg	NY	Right	Yes	0.659719400005997	0	533240	253
1042.134765625	0	health	response	2	113	53	foodImage.75	FOODEEG_Images\0763.jpg	NY	Right	Yes	0.659719400005997	0	533574	235
1043.17578125	1	taste	trialStart	2	114	54	foodImage.90	FOODEEG_Images\0890.jpg	NY	Left	No	0.904957999999169	0	534107	251
1044.232421875	2	taste	foodImageDisplay	2	114	54	foodImage.90	FOODEEG_Images\0890.jpg	NY	Left	No	0.904957999999169	0	534648	252
1046.294921875	0.904957999999169	taste	choicePhaseStart	2	114	54	foodImage.90	FOODEEG_Images\0890.jpg	NY	Left	No	0.904957999999169	0	535704	253
1047.189453125	0	taste	response	2	114	54	foodImage.90	FOODEEG_Images\0890.jpg	NY	Left	No	0.904957999999169	0	536162	234
1048.23046875	1	decision	trialStart	2	115	55	foodImage.67	FOODEEG_Images\0679.jpg	NY	Right	Yes	0.640600099999574	0	536695	251
1049.291015625	2	decision	foodImageDisplay	2	115	55	foodImage.67	FOODEEG_Images\0679.jpg	NY	Right	Yes	0.640600099999574	0	537238	252
1051.359375	0.640600099999574	decision	choicePhaseStart	2	115	55	foodImage.67	FOODEEG_Images\0679.jpg	NY	Right	Yes	0.640600099999574	0	538297	253
1051.990234375	0	decision	response	2	115	55	foodImage.67	FOODEEG_Images\0679.jpg	NY	Right	Yes	0.640600099999574	0	538620	235
1053.03125	1	health	trialStart	2	116	56	foodImage.117	FOODEEG_Images\0925.jpg	YN	Left	Yes	0.849769599997671	0	539153	251
1054.068359375	2	health	foodImageDisplay	2	116	56	foodImage.117	FOODEEG_Images\0925.jpg	YN	Left	Yes	0.849769599997671	0	539684	252
1056.1328125	0.849769599997671	health	choicePhaseStart	2	116	56	foodImage.117	FOODEEG_Images\0925.jpg	YN	Left	Yes	0.849769599997671	0	540741	253
1056.97265625	0	health	response	2	116	56	foodImage.117	FOODEEG_Images\0925.jpg	YN	Left	Yes	0.849769599997671	0	541171	234
1058.015625	1	health	trialStart	2	117	57	foodImage.109	FOODEEG_Images\0917.jpg	YN	Right	No	0.381402500002878	0	541705	251
1059.0546875	2	health	foodImageDisplay	2	117	57	foodImage.109	FOODEEG_Images\0917.jpg	YN	Right	No	0.381402500002878	0	542237	252
1061.12109375	0.381402500002878	health	choicePhaseStart	2	117	57	foodImage.109	FOODEEG_Images\0917.jpg	YN	Right	No	0.381402500002878	0	543295	253
1061.4921875	0	health	response	2	117	57	foodImage.109	FOODEEG_Images\0917.jpg	YN	Right	No	0.381402500002878	0	543485	235
1062.53515625	1	decision	trialStart	2	118	58	foodImage.35	FOODEEG_Images\0350.jpg	NY	Left	No	2.2772976999986	0	544019	251
1063.57421875	2	decision	foodImageDisplay	2	118	58	foodImage.35	FOODEEG_Images\0350.jpg	NY	Left	No	2.2772976999986	0	544551	252
1065.640625	2.2772976999986	decision	choicePhaseStart	2	118	58	foodImage.35	FOODEEG_Images\0350.jpg	NY	Left	No	2.2772976999986	0	545609	253
1067.908203125	0	decision	response	2	118	58	foodImage.35	FOODEEG_Images\0350.jpg	NY	Left	No	2.2772976999986	0	546770	234
1068.951171875	1	taste	trialStart	2	119	59	foodImage.56	FOODEEG_Images\0586.jpg	NY	Right	Yes	0.685754999998608	0	547304	251
1069.9921875	2	taste	foodImageDisplay	2	119	59	foodImage.56	FOODEEG_Images\0586.jpg	NY	Right	Yes	0.685754999998608	0	547837	252
1072.056640625	0.685754999998608	taste	choicePhaseStart	2	119	59	foodImage.56	FOODEEG_Images\0586.jpg	NY	Right	Yes	0.685754999998608	0	548894	253
1072.732421875	0	taste	response	2	119	59	foodImage.56	FOODEEG_Images\0586.jpg	NY	Right	Yes	0.685754999998608	0	549240	235
1073.775390625	1	decision	trialStart	2	120	60	foodImage.108	FOODEEG_Images\0916.jpg	YN	Right	No	0.734739999999874	0	549774	251
1074.814453125	2	decision	foodImageDisplay	2	120	60	foodImage.108	FOODEEG_Images\0916.jpg	YN	Right	No	0.734739999999874	0	550306	252
1076.87890625	0.734739999999874	decision	choicePhaseStart	2	120	60	foodImage.108	FOODEEG_Images\0916.jpg	YN	Right	No	0.734739999999874	0	551363	253
1077.60546875	0	decision	response	2	120	60	foodImage.108	FOODEEG_Images\0916.jpg	YN	Right	No	0.734739999999874	0	551735	235
1079.646484375	5.5	n/a	blockEnd	n/a	n/a	n/a	n/a	n/a	n/a	n/a	n/a	n/a	n/a	552780	254
1085.146484375	2	n/a	blockStart	3	n/a	n/a	n/a	n/a	n/a	n/a	n/a	n/a	n/a	555596	250
1087.181640625	1	taste	trialStart	3	121	1	foodImage.77	FOODEEG_Images\0771.jpg	NY	Right	Yes	0.67717859998811	0	556638	251
1088.255859375	2	taste	foodImageDisplay	3	121	1	foodImage.77	FOODEEG_Images\0771.jpg	NY	Right	Yes	0.67717859998811	0	557188	252
1090.3203125	0.67717859998811	taste	choicePhaseStart	3	121	1	foodImage.77	FOODEEG_Images\0771.jpg	NY	Right	Yes	0.67717859998811	0	558245	253
1090.98828125	0	taste	response	3	121	1	foodImage.77	FOODEEG_Images\0771.jpg	NY	Right	Yes	0.67717859998811	0	558587	235
1092.03125	1	taste	trialStart	3	122	2	foodImage.107	FOODEEG_Images\0915.jpg	NY	Left	No	1.01497400000517	0	559121	251
1093.0703125	2	taste	foodImageDisplay	3	122	2	foodImage.107	FOODEEG_Images\0915.jpg	NY	Left	No	1.01497400000517	0	559653	252
1095.134765625	1.01497400000517	taste	choicePhaseStart	3	122	2	foodImage.107	FOODEEG_Images\0915.jpg	NY	Left	No	1.01497400000517	0	560710	253
1096.140625	0	taste	response	3	122	2	foodImage.107	FOODEEG_Images\0915.jpg	NY	Left	No	1.01497400000517	0	561225	234
1097.18359375	1	decision	trialStart	3	123	3	foodImage.94	FOODEEG_Images\0902.jpg	YN	Left	Yes	0.887482099991757	0	561759	251
1098.22265625	2	decision	foodImageDisplay	3	123	3	foodImage.94	FOODEEG_Images\0902.jpg	YN	Left	Yes	0.887482099991757	0	562291	252
1100.28515625	0.887482099991757	decision	choicePhaseStart	3	123	3	foodImage.94	FOODEEG_Images\0902.jpg	YN	Left	Yes	0.887482099991757	0	563347	253
1101.1640625	0	decision	response	3	123	3	foodImage.94	FOODEEG_Images\0902.jpg	YN	Left	Yes	0.887482099991757	0	563797	234
1102.21875	1	decision	trialStart	3	124	4	foodImage.51	FOODEEG_Images\0536.jpg	YN	Left	Yes	0.640638000011677	0	564337	251
1103.265625	2	decision	foodImageDisplay	3	124	4	foodImage.51	FOODEEG_Images\0536.jpg	YN	Left	Yes	0.640638000011677	0	564873	252
1105.33203125	0.640638000011677	decision	choicePhaseStart	3	124	4	foodImage.51	FOODEEG_Images\0536.jpg	YN	Left	Yes	0.640638000011677	0	565931	253
1105.962890625	0	decision	response	3	124	4	foodImage.51	FOODEEG_Images\0536.jpg	YN	Left	Yes	0.640638000011677	0	566254	234
1107.0078125	1	decision	trialStart	3	125	5	foodImage.115	FOODEEG_Images\0923.jpg	NY	Right	Yes	1.11884649998683	0	566789	251
1108.046875	2	decision	foodImageDisplay	3	125	5	foodImage.115	FOODEEG_Images\0923.jpg	NY	Right	Yes	1.11884649998683	0	567321	252
1110.111328125	1.11884649998683	decision	choicePhaseStart	3	125	5	foodImage.115	FOODEEG_Images\0923.jpg	NY	Right	Yes	1.11884649998683	0	568378	253
1111.21875	0	decision	response	3	125	5	foodImage.115	FOODEEG_Images\0923.jpg	NY	Right	Yes	1.11884649998683	0	568945	235
1112.26171875	1	taste	trialStart	3	126	6	foodImage.52	FOODEEG_Images\0539.jpg	YN	Left	Yes	1.31039959999907	0	569479	251
1113.318359375	2	taste	foodImageDisplay	3	126	6	foodImage.52	FOODEEG_Images\0539.jpg	YN	Left	Yes	1.31039959999907	0	570020	252
1115.3828125	1.31039959999907	taste	choicePhaseStart	3	126	6	foodImage.52	FOODEEG_Images\0539.jpg	YN	Left	Yes	1.31039959999907	0	571077	253
1116.68359375	0	taste	response	3	126	6	foodImage.52	FOODEEG_Images\0539.jpg	YN	Left	Yes	1.31039959999907	0	571743	234
1117.728515625	1	taste	trialStart	3	127	7	foodImage.46	FOODEEG_Images\0479.jpg	NY	Right	Yes	0.727040400000988	0	572278	251
1118.814453125	2	taste	foodImageDisplay	3	127	7	foodImage.46	FOODEEG_Images\0479.jpg	NY	Right	Yes	0.727040400000988	0	572834	252
1120.876953125	0.727040400000988	taste	choicePhaseStart	3	127	7	foodImage.46	FOODEEG_Images\0479.jpg	NY	Right	Yes	0.727040400000988	0	573890	253
1121.595703125	0	taste	response	3	127	7	foodImage.46	FOODEEG_Images\0479.jpg	NY	Right	Yes	0.727040400000988	0	574258	235
1122.638671875	1	taste	trialStart	3	128	8	foodImage.102	FOODEEG_Images\0910.jpg	NY	Left	No	0.637730899994494	0	574792	251
1123.677734375	2	taste	foodImageDisplay	3	128	8	foodImage.102	FOODEEG_Images\0910.jpg	NY	Left	No	0.637730899994494	0	575324	252
1125.7421875	0.637730899994494	taste	choicePhaseStart	3	128	8	foodImage.102	FOODEEG_Images\0910.jpg	NY	Left	No	0.637730899994494	0	576381	253
1126.37109375	0	taste	response	3	128	8	foodImage.102	FOODEEG_Images\0910.jpg	NY	Left	No	0.637730899994494	0	576703	234
1127.4140625	1	decision	trialStart	3	129	9	foodImage.88	FOODEEG_Images\0878.jpg	YN	Right	No	1.02286409999942	0	577237	251
1128.470703125	2	decision	foodImageDisplay	3	129	9	foodImage.88	FOODEEG_Images\0878.jpg	YN	Right	No	1.02286409999942	0	577778	252
1130.533203125	1.02286409999942	decision	choicePhaseStart	3	129	9	foodImage.88	FOODEEG_Images\0878.jpg	YN	Right	No	1.02286409999942	0	578834	253
1131.546875	0	decision	response	3	129	9	foodImage.88	FOODEEG_Images\0878.jpg	YN	Right	No	1.02286409999942	0	579353	235
1132.58984375	1	taste	trialStart	3	130	10	foodImage.51	FOODEEG_Images\0536.jpg	NY	Right	Yes	2.20737910000025	0	579887	251
1133.63671875	2	taste	foodImageDisplay	3	130	10	foodImage.51	FOODEEG_Images\0536.jpg	NY	Right	Yes	2.20737910000025	0	580423	252
1135.701171875	2.20737910000025	taste	choicePhaseStart	3	130	10	foodImage.51	FOODEEG_Images\0536.jpg	NY	Right	Yes	2.20737910000025	0	581480	253
1137.8984375	0	taste	response	3	130	10	foodImage.51	FOODEEG_Images\0536.jpg	NY	Right	Yes	2.20737910000025	0	582605	235
1138.943359375	1	taste	trialStart	3	131	11	foodImage.86	FOODEEG_Images\0844.jpg	YN	Right	No	1.47938219999196	0	583140	251
1140.00390625	2	taste	foodImageDisplay	3	131	11	foodImage.86	FOODEEG_Images\0844.jpg	YN	Right	No	1.47938219999196	0	583683	252
1142.068359375	1.47938219999196	taste	choicePhaseStart	3	131	11	foodImage.86	FOODEEG_Images\0844.jpg	YN	Right	No	1.47938219999196	0	584740	253
1143.5390625	0	taste	response	3	131	11	foodImage.86	FOODEEG_Images\0844.jpg	YN	Right	No	1.47938219999196	0	585493	235
1144.587890625	1	decision	trialStart	3	132	12	foodImage.53	FOODEEG_Images\0547.jpg	NY	Right	Yes	0.668484099995112	0	586030	251
1145.646484375	2	decision	foodImageDisplay	3	132	12	foodImage.53	FOODEEG_Images\0547.jpg	NY	Right	Yes	0.668484099995112	0	586572	252
1147.7109375	0.668484099995112	decision	choicePhaseStart	3	132	12	foodImage.53	FOODEEG_Images\0547.jpg	NY	Right	Yes	0.668484099995112	0	587629	253
1148.37109375	0	decision	response	3	132	12	foodImage.53	FOODEEG_Images\0547.jpg	NY	Right	Yes	0.668484099995112	0	587967	235
1149.419921875	1	health	trialStart	3	133	13	foodImage.41	FOODEEG_Images\0409.jpg	YN	Left	Yes	0.610722000012174	0	588504	251
1150.466796875	2	health	foodImageDisplay	3	133	13	foodImage.41	FOODEEG_Images\0409.jpg	YN	Left	Yes	0.610722000012174	0	589040	252
1152.529296875	0.610722000012174	health	choicePhaseStart	3	133	13	foodImage.41	FOODEEG_Images\0409.jpg	YN	Left	Yes	0.610722000012174	0	590096	253
1153.130859375	0	health	response	3	133	13	foodImage.41	FOODEEG_Images\0409.jpg	YN	Left	Yes	0.610722000012174	0	590404	234
1154.177734375	1	taste	trialStart	3	134	14	foodImage.12	FOODEEG_Images\0181.jpg	NY	Left	No	1.07642640000267	0	590940	251
1155.220703125	2	taste	foodImageDisplay	3	134	14	foodImage.12	FOODEEG_Images\0181.jpg	NY	Left	No	1.07642640000267	0	591474	252
1157.287109375	1.07642640000267	taste	choicePhaseStart	3	134	14	foodImage.12	FOODEEG_Images\0181.jpg	NY	Left	No	1.07642640000267	0	592532	253
1158.353515625	0	taste	response	3	134	14	foodImage.12	FOODEEG_Images\0181.jpg	NY	Left	No	1.07642640000267	0	593078	234
1159.396484375	1	health	trialStart	3	135	15	foodImage.45	FOODEEG_Images\0478.jpg	YN	Right	No	0.861334400004125	0	593612	251
1160.44140625	2	health	foodImageDisplay	3	135	15	foodImage.45	FOODEEG_Images\0478.jpg	YN	Right	No	0.861334400004125	0	594147	252
1162.501953125	0.861334400004125	health	choicePhaseStart	3	135	15	foodImage.45	FOODEEG_Images\0478.jpg	YN	Right	No	0.861334400004125	0	595202	253
1163.353515625	0	health	response	3	135	15	foodImage.45	FOODEEG_Images\0478.jpg	YN	Right	No	0.861334400004125	0	595638	235
1164.392578125	1	taste	trialStart	3	136	16	foodImage.75	FOODEEG_Images\0763.jpg	YN	Left	Yes	0.403569899994181	0	596170	251
1165.45703125	2	taste	foodImageDisplay	3	136	16	foodImage.75	FOODEEG_Images\0763.jpg	YN	Left	Yes	0.403569899994181	0	596715	252
1167.51953125	0.403569899994181	taste	choicePhaseStart	3	136	16	foodImage.75	FOODEEG_Images\0763.jpg	YN	Left	Yes	0.403569899994181	0	597771	253
1167.9140625	0	taste	response	3	136	16	foodImage.75	FOODEEG_Images\0763.jpg	YN	Left	Yes	0.403569899994181	0	597973	234
1168.95703125	1	decision	trialStart	3	137	17	foodImage.18	FOODEEG_Images\0202.jpg	YN	Left	Yes	0.733702200013795	0	598507	251
1170.037109375	2	decision	foodImageDisplay	3	137	17	foodImage.18	FOODEEG_Images\0202.jpg	YN	Left	Yes	0.733702200013795	0	599060	252
1172.1015625	0.733702200013795	decision	choicePhaseStart	3	137	17	foodImage.18	FOODEEG_Images\0202.jpg	YN	Left	Yes	0.733702200013795	0	600117	253
1172.826171875	0	decision	response	3	137	17	foodImage.18	FOODEEG_Images\0202.jpg	YN	Left	Yes	0.733702200013795	0	600488	234
1173.876953125	1	taste	trialStart	3	138	18	foodImage.15	FOODEEG_Images\0189.jpg	YN	Right	No	2.25888619999751	0	601026	251
1174.935546875	2	taste	foodImageDisplay	3	138	18	foodImage.15	FOODEEG_Images\0189.jpg	YN	Right	No	2.25888619999751	0	601568	252
1177	2.25888619999751	taste	choicePhaseStart	3	138	18	foodImage.15	FOODEEG_Images\0189.jpg	YN	Right	No	2.25888619999751	0	602625	253
1179.25	0	taste	response	3	138	18	foodImage.15	FOODEEG_Images\0189.jpg	YN	Right	No	2.25888619999751	0	603777	235
1180.29296875	1	taste	trialStart	3	139	19	foodImage.105	FOODEEG_Images\0913.jpg	YN	Right	No	0.83174219999637	0	604311	251
1181.330078125	2	taste	foodImageDisplay	3	139	19	foodImage.105	FOODEEG_Images\0913.jpg	YN	Right	No	0.83174219999637	0	604842	252
1183.39453125	0.83174219999637	taste	choicePhaseStart	3	139	19	foodImage.105	FOODEEG_Images\0913.jpg	YN	Right	No	0.83174219999637	0	605899	253
1184.216796875	0	taste	response	3	139	19	foodImage.105	FOODEEG_Images\0913.jpg	YN	Right	No	0.83174219999637	0	606320	235
1185.259765625	1	taste	trialStart	3	140	20	foodImage.33	FOODEEG_Images\0329.jpg	YN	Right	No	1.60908719999134	0	606854	251
1186.302734375	2	taste	foodImageDisplay	3	140	20	foodImage.33	FOODEEG_Images\0329.jpg	YN	Right	No	1.60908719999134	0	607388	252
1188.3671875	1.60908719999134	taste	choicePhaseStart	3	140	20	foodImage.33	FOODEEG_Images\0329.jpg	YN	Right	No	1.60908719999134	0	608445	253
1189.970703125	0	taste	response	3	140	20	foodImage.33	FOODEEG_Images\0329.jpg	YN	Right	No	1.60908719999134	0	609266	235
1191.03515625	1	health	trialStart	3	141	21	foodImage.84	FOODEEG_Images\0830.jpg	YN	Left	Yes	1.23786500000278	0	609811	251
1192.091796875	2	health	foodImageDisplay	3	141	21	foodImage.84	FOODEEG_Images\0830.jpg	YN	Left	Yes	1.23786500000278	0	610352	252
1194.15625	1.23786500000278	health	choicePhaseStart	3	141	21	foodImage.84	FOODEEG_Images\0830.jpg	YN	Left	Yes	1.23786500000278	0	611409	253
1195.384765625	0	health	response	3	141	21	foodImage.84	FOODEEG_Images\0830.jpg	YN	Left	Yes	1.23786500000278	0	612038	234
1196.4296875	1	health	trialStart	3	142	22	foodImage.65	FOODEEG_Images\0658.jpg	NY	Right	Yes	0.639733200005139	0	612573	251
1197.47265625	2	health	foodImageDisplay	3	142	22	foodImage.65	FOODEEG_Images\0658.jpg	NY	Right	Yes	0.639733200005139	0	613107	252
1199.53515625	0.639733200005139	health	choicePhaseStart	3	142	22	foodImage.65	FOODEEG_Images\0658.jpg	NY	Right	Yes	0.639733200005139	0	614163	253
1200.169921875	0	health	response	3	142	22	foodImage.65	FOODEEG_Images\0658.jpg	NY	Right	Yes	0.639733200005139	0	614488	235
1201.21484375	1	health	trialStart	3	143	23	foodImage.79	FOODEEG_Images\0794.jpg	NY	Right	Yes	0.700755999991088	0	615023	251
1202.259765625	2	health	foodImageDisplay	3	143	23	foodImage.79	FOODEEG_Images\0794.jpg	NY	Right	Yes	0.700755999991088	0	615558	252
1204.32421875	0.700755999991088	health	choicePhaseStart	3	143	23	foodImage.79	FOODEEG_Images\0794.jpg	NY	Right	Yes	0.700755999991088	0	616615	253
1205.015625	0	health	response	3	143	23	foodImage.79	FOODEEG_Images\0794.jpg	NY	Right	Yes	0.700755999991088	0	616969	235
1206.0625	1	decision	trialStart	3	144	24	foodImage.91	FOODEEG_Images\0896.jpg	NY	Right	Yes	1.73863619999611	0	617505	251
1207.119140625	2	decision	foodImageDisplay	3	144	24	foodImage.91	FOODEEG_Images\0896.jpg	NY	Right	Yes	1.73863619999611	0	618046	252
1209.18359375	1.73863619999611	decision	choicePhaseStart	3	144	24	foodImage.91	FOODEEG_Images\0896.jpg	NY	Right	Yes	1.73863619999611	0	619103	253
1210.912109375	0	decision	response	3	144	24	foodImage.91	FOODEEG_Images\0896.jpg	NY	Right	Yes	1.73863619999611	0	619988	235
1211.958984375	1	health	trialStart	3	145	25	foodImage.97	FOODEEG_Images\0905.jpg	YN	Right	No	0.667535400003544	0	620524	251
1212.998046875	2	health	foodImageDisplay	3	145	25	foodImage.97	FOODEEG_Images\0905.jpg	YN	Right	No	0.667535400003544	0	621056	252
1215.0625	0.667535400003544	health	choicePhaseStart	3	145	25	foodImage.97	FOODEEG_Images\0905.jpg	YN	Right	No	0.667535400003544	0	622113	253
1215.720703125	0	health	response	3	145	25	foodImage.97	FOODEEG_Images\0905.jpg	YN	Right	No	0.667535400003544	0	622450	235
1216.76953125	1	health	trialStart	3	146	26	foodImage.16	FOODEEG_Images\0196.jpg	YN	Left	Yes	0.589150200001313	0	622987	251
1217.830078125	2	health	foodImageDisplay	3	146	26	foodImage.16	FOODEEG_Images\0196.jpg	YN	Left	Yes	0.589150200001313	0	623530	252
1219.892578125	0.589150200001313	health	choicePhaseStart	3	146	26	foodImage.16	FOODEEG_Images\0196.jpg	YN	Left	Yes	0.589150200001313	0	624586	253
1220.47265625	0	health	response	3	146	26	foodImage.16	FOODEEG_Images\0196.jpg	YN	Left	Yes	0.589150200001313	0	624883	234
1221.51953125	1	decision	trialStart	3	147	27	foodImage.65	FOODEEG_Images\0658.jpg	NY	Right	Yes	0.687306799998623	0	625419	251
1222.5625	2	decision	foodImageDisplay	3	147	27	foodImage.65	FOODEEG_Images\0658.jpg	NY	Right	Yes	0.687306799998623	0	625953	252
1224.626953125	0.687306799998623	decision	choicePhaseStart	3	147	27	foodImage.65	FOODEEG_Images\0658.jpg	NY	Right	Yes	0.687306799998623	0	627010	253
1225.3046875	0	decision	response	3	147	27	foodImage.65	FOODEEG_Images\0658.jpg	NY	Right	Yes	0.687306799998623	0	627357	235
1226.34765625	1	taste	trialStart	3	148	28	foodImage.99	FOODEEG_Images\0907.jpg	YN	Right	No	0.443595799995819	0	627891	251
1227.38671875	2	taste	foodImageDisplay	3	148	28	foodImage.99	FOODEEG_Images\0907.jpg	YN	Right	No	0.443595799995819	0	628423	252
1229.453125	0.443595799995819	taste	choicePhaseStart	3	148	28	foodImage.99	FOODEEG_Images\0907.jpg	YN	Right	No	0.443595799995819	0	629481	253
1229.888671875	0	taste	response	3	148	28	foodImage.99	FOODEEG_Images\0907.jpg	YN	Right	No	0.443595799995819	0	629704	235
1230.931640625	1	taste	trialStart	3	149	29	foodImage.53	FOODEEG_Images\0547.jpg	NY	Right	Yes	1.28976339999645	0	630238	251
1232.015625	2	taste	foodImageDisplay	3	149	29	foodImage.53	FOODEEG_Images\0547.jpg	NY	Right	Yes	1.28976339999645	0	630793	252
1234.080078125	1.28976339999645	taste	choicePhaseStart	3	149	29	foodImage.53	FOODEEG_Images\0547.jpg	NY	Right	Yes	1.28976339999645	0	631850	253
1235.359375	0	taste	response	3	149	29	foodImage.53	FOODEEG_Images\0547.jpg	NY	Right	Yes	1.28976339999645	0	632505	235
1236.40234375	1	decision	trialStart	3	150	30	foodImage.55	FOODEEG_Images\0567.jpg	NY	Left	No	1.61839689999761	0	633039	251
1237.462890625	2	decision	foodImageDisplay	3	150	30	foodImage.55	FOODEEG_Images\0567.jpg	NY	Left	No	1.61839689999761	0	633582	252
1239.533203125	1.61839689999761	decision	choicePhaseStart	3	150	30	foodImage.55	FOODEEG_Images\0567.jpg	NY	Left	No	1.61839689999761	0	634642	253
1241.142578125	0	decision	response	3	150	30	foodImage.55	FOODEEG_Images\0567.jpg	NY	Left	No	1.61839689999761	0	635466	234
1242.189453125	1	decision	trialStart	3	151	31	foodImage.43	FOODEEG_Images\0445.jpg	NY	Right	Yes	0.591968300010194	0	636002	251
1243.248046875	2	decision	foodImageDisplay	3	151	31	foodImage.43	FOODEEG_Images\0445.jpg	NY	Right	Yes	0.591968300010194	0	636544	252
1245.3125	0.591968300010194	decision	choicePhaseStart	3	151	31	foodImage.43	FOODEEG_Images\0445.jpg	NY	Right	Yes	0.591968300010194	0	637601	253
1245.89453125	0	decision	response	3	151	31	foodImage.43	FOODEEG_Images\0445.jpg	NY	Right	Yes	0.591968300010194	0	637899	235
1246.939453125	1	decision	trialStart	3	152	32	foodImage.60	FOODEEG_Images\0614.jpg	NY	Right	Yes	2.46665410000423	0	638434	251
1247.994140625	2	decision	foodImageDisplay	3	152	32	foodImage.60	FOODEEG_Images\0614.jpg	NY	Right	Yes	2.46665410000423	0	638974	252
1250.0625	2.46665410000423	decision	choicePhaseStart	3	152	32	foodImage.60	FOODEEG_Images\0614.jpg	NY	Right	Yes	2.46665410000423	0	640033	253
1252.51953125	0	decision	response	3	152	32	foodImage.60	FOODEEG_Images\0614.jpg	NY	Right	Yes	2.46665410000423	0	641291	235
1253.5625	1	decision	trialStart	3	153	33	foodImage.10	FOODEEG_Images\0145.jpg	NY	Right	Yes	0.500141900003655	0	641825	251
1254.623046875	2	decision	foodImageDisplay	3	153	33	foodImage.10	FOODEEG_Images\0145.jpg	NY	Right	Yes	0.500141900003655	0	642368	252
1256.685546875	0.500141900003655	decision	choicePhaseStart	3	153	33	foodImage.10	FOODEEG_Images\0145.jpg	NY	Right	Yes	0.500141900003655	0	643424	253
1257.17578125	0	decision	response	3	153	33	foodImage.10	FOODEEG_Images\0145.jpg	NY	Right	Yes	0.500141900003655	0	643675	235
1258.21875	1	health	trialStart	3	154	34	foodImage.52	FOODEEG_Images\0539.jpg	YN	Left	Yes	2.46765200000664	0	644209	251
1259.27734375	2	health	foodImageDisplay	3	154	34	foodImage.52	FOODEEG_Images\0539.jpg	YN	Left	Yes	2.46765200000664	0	644751	252
1261.33984375	2.46765200000664	health	choicePhaseStart	3	154	34	foodImage.52	FOODEEG_Images\0539.jpg	YN	Left	Yes	2.46765200000664	0	645807	253
1263.798828125	0	health	response	3	154	34	foodImage.52	FOODEEG_Images\0539.jpg	YN	Left	Yes	2.46765200000664	0	647066	234
1264.83984375	1	decision	trialStart	3	155	35	foodImage.107	FOODEEG_Images\0915.jpg	NY	Left	No	0.866680899998755	0	647599	251
1265.87890625	2	decision	foodImageDisplay	3	155	35	foodImage.107	FOODEEG_Images\0915.jpg	NY	Left	No	0.866680899998755	0	648131	252
1267.947265625	0.866680899998755	decision	choicePhaseStart	3	155	35	foodImage.107	FOODEEG_Images\0915.jpg	NY	Left	No	0.866680899998755	0	649190	253
1268.806640625	0	decision	response	3	155	35	foodImage.107	FOODEEG_Images\0915.jpg	NY	Left	No	0.866680899998755	0	649630	234
1269.849609375	1	decision	trialStart	3	156	36	foodImage.44	FOODEEG_Images\0459.jpg	YN	Left	Yes	1.31694080001034	0	650164	251
1270.8984375	2	decision	foodImageDisplay	3	156	36	foodImage.44	FOODEEG_Images\0459.jpg	YN	Left	Yes	1.31694080001034	0	650701	252
1272.962890625	1.31694080001034	decision	choicePhaseStart	3	156	36	foodImage.44	FOODEEG_Images\0459.jpg	YN	Left	Yes	1.31694080001034	0	651758	253
1274.271484375	0	decision	response	3	156	36	foodImage.44	FOODEEG_Images\0459.jpg	YN	Left	Yes	1.31694080001034	0	652428	234
1275.314453125	1	decision	trialStart	3	157	37	foodImage.38	FOODEEG_Images\0365.jpg	NY	Right	Yes	3.41510189999826	0	652962	251
1276.3515625	2	decision	foodImageDisplay	3	157	37	foodImage.38	FOODEEG_Images\0365.jpg	NY	Right	Yes	3.41510189999826	0	653493	252
1278.416015625	3.41510189999826	decision	choicePhaseStart	3	157	37	foodImage.38	FOODEEG_Images\0365.jpg	NY	Right	Yes	3.41510189999826	0	654550	253
1281.822265625	0	decision	response	3	157	37	foodImage.38	FOODEEG_Images\0365.jpg	NY	Right	Yes	3.41510189999826	0	656294	235
1282.865234375	1	decision	trialStart	3	158	38	foodImage.71	FOODEEG_Images\0713.jpg	YN	Right	No	1.06840419999207	0	656828	251
1283.908203125	2	decision	foodImageDisplay	3	158	38	foodImage.71	FOODEEG_Images\0713.jpg	YN	Right	No	1.06840419999207	0	657362	252
1285.970703125	1.06840419999207	decision	choicePhaseStart	3	158	38	foodImage.71	FOODEEG_Images\0713.jpg	YN	Right	No	1.06840419999207	0	658418	253
1287.029296875	0	decision	response	3	158	38	foodImage.71	FOODEEG_Images\0713.jpg	YN	Right	No	1.06840419999207	0	658960	235
1288.07421875	1	health	trialStart	3	159	39	foodImage.37	FOODEEG_Images\0359.jpg	YN	Right	No	1.82615719999012	0	659495	251
1289.115234375	2	health	foodImageDisplay	3	159	39	foodImage.37	FOODEEG_Images\0359.jpg	YN	Right	No	1.82615719999012	0	660028	252
1291.1796875	1.82615719999012	health	choicePhaseStart	3	159	39	foodImage.37	FOODEEG_Images\0359.jpg	YN	Right	No	1.82615719999012	0	661085	253
1292.998046875	0	health	response	3	159	39	foodImage.37	FOODEEG_Images\0359.jpg	YN	Right	No	1.82615719999012	0	662016	235
1294.04296875	1	decision	trialStart	3	160	40	foodImage.24	FOODEEG_Images\0250.jpg	NY	Right	Yes	0.688176900002873	0	662551	251
1295.0859375	2	decision	foodImageDisplay	3	160	40	foodImage.24	FOODEEG_Images\0250.jpg	NY	Right	Yes	0.688176900002873	0	663085	252
1297.150390625	0.688176900002873	decision	choicePhaseStart	3	160	40	foodImage.24	FOODEEG_Images\0250.jpg	NY	Right	Yes	0.688176900002873	0	664142	253
1297.830078125	0	decision	response	3	160	40	foodImage.24	FOODEEG_Images\0250.jpg	NY	Right	Yes	0.688176900002873	0	664490	235
1298.873046875	1	taste	trialStart	3	161	41	foodImage.37	FOODEEG_Images\0359.jpg	NY	Right	Yes	0.676891699986299	0	665024	251
1299.916015625	2	taste	foodImageDisplay	3	161	41	foodImage.37	FOODEEG_Images\0359.jpg	NY	Right	Yes	0.676891699986299	0	665558	252
1301.978515625	0.676891699986299	taste	choicePhaseStart	3	161	41	foodImage.37	FOODEEG_Images\0359.jpg	NY	Right	Yes	0.676891699986299	0	666614	253
1302.646484375	0	taste	response	3	161	41	foodImage.37	FOODEEG_Images\0359.jpg	NY	Right	Yes	0.676891699986299	0	666956	235
1303.689453125	1	health	trialStart	3	162	42	foodImage.100	FOODEEG_Images\0908.jpg	NY	Left	No	0.896603900007904	0	667490	251
1304.728515625	2	health	foodImageDisplay	3	162	42	foodImage.100	FOODEEG_Images\0908.jpg	NY	Left	No	0.896603900007904	0	668022	252
1306.796875	0.896603900007904	health	choicePhaseStart	3	162	42	foodImage.100	FOODEEG_Images\0908.jpg	NY	Left	No	0.896603900007904	0	669081	253
1307.685546875	0	health	response	3	162	42	foodImage.100	FOODEEG_Images\0908.jpg	NY	Left	No	0.896603900007904	0	669536	234
1308.728515625	1	taste	trialStart	3	163	43	foodImage.41	FOODEEG_Images\0409.jpg	NY	Left	No	4.59617000000435	0	670070	251
1309.775390625	2	taste	foodImageDisplay	3	163	43	foodImage.41	FOODEEG_Images\0409.jpg	NY	Left	No	4.59617000000435	0	670606	252
1311.83984375	4.59617000000435	taste	choicePhaseStart	3	163	43	foodImage.41	FOODEEG_Images\0409.jpg	NY	Left	No	4.59617000000435	0	671663	253
1316.4296875	0	taste	response	3	163	43	foodImage.41	FOODEEG_Images\0409.jpg	NY	Left	No	4.59617000000435	0	674013	234
1317.47265625	1	decision	trialStart	3	164	44	foodImage.16	FOODEEG_Images\0196.jpg	NY	Right	Yes	0.61904499999946	0	674547	251
1318.53125	2	decision	foodImageDisplay	3	164	44	foodImage.16	FOODEEG_Images\0196.jpg	NY	Right	Yes	0.61904499999946	0	675089	252
1320.595703125	0.61904499999946	decision	choicePhaseStart	3	164	44	foodImage.16	FOODEEG_Images\0196.jpg	NY	Right	Yes	0.61904499999946	0	676146	253
1321.205078125	0	decision	response	3	164	44	foodImage.16	FOODEEG_Images\0196.jpg	NY	Right	Yes	0.61904499999946	0	676458	235
1322.248046875	1	health	trialStart	3	165	45	foodImage.25	FOODEEG_Images\0261.jpg	YN	Left	Yes	0.788179299997864	0	676992	251
1323.291015625	2	health	foodImageDisplay	3	165	45	foodImage.25	FOODEEG_Images\0261.jpg	YN	Left	Yes	0.788179299997864	0	677526	252
1325.353515625	0.788179299997864	health	choicePhaseStart	3	165	45	foodImage.25	FOODEEG_Images\0261.jpg	YN	Left	Yes	0.788179299997864	0	678582	253
1326.1328125	0	health	response	3	165	45	foodImage.25	FOODEEG_Images\0261.jpg	YN	Left	Yes	0.788179299997864	0	678981	234
1327.18359375	1	health	trialStart	3	166	46	foodImage.33	FOODEEG_Images\0329.jpg	YN	Left	Yes	0.637900100002298	0	679519	251
1328.224609375	2	health	foodImageDisplay	3	166	46	foodImage.33	FOODEEG_Images\0329.jpg	YN	Left	Yes	0.637900100002298	0	680052	252
1330.2890625	0.637900100002298	health	choicePhaseStart	3	166	46	foodImage.33	FOODEEG_Images\0329.jpg	YN	Left	Yes	0.637900100002298	0	681109	253
1330.916015625	0	health	response	3	166	46	foodImage.33	FOODEEG_Images\0329.jpg	YN	Left	Yes	0.637900100002298	0	681430	234
1331.9609375	1	taste	trialStart	3	167	47	foodImage.38	FOODEEG_Images\0365.jpg	YN	Right	No	1.42493910000485	0	681965	251
1333	2	taste	foodImageDisplay	3	167	47	foodImage.38	FOODEEG_Images\0365.jpg	YN	Right	No	1.42493910000485	0	682497	252
1335.064453125	1.42493910000485	taste	choicePhaseStart	3	167	47	foodImage.38	FOODEEG_Images\0365.jpg	YN	Right	No	1.42493910000485	0	683554	253
1336.484375	0	taste	response	3	167	47	foodImage.38	FOODEEG_Images\0365.jpg	YN	Right	No	1.42493910000485	0	684281	235
1337.52734375	1	taste	trialStart	3	168	48	foodImage.118	FOODEEG_Images\0926.jpg	YN	Right	No	0.486786000008578	0	684815	251
1338.56640625	2	taste	foodImageDisplay	3	168	48	foodImage.118	FOODEEG_Images\0926.jpg	YN	Right	No	0.486786000008578	0	685347	252
1340.630859375	0.486786000008578	taste	choicePhaseStart	3	168	48	foodImage.118	FOODEEG_Images\0926.jpg	YN	Right	No	0.486786000008578	0	686404	253
1341.109375	0	taste	response	3	168	48	foodImage.118	FOODEEG_Images\0926.jpg	YN	Right	No	0.486786000008578	0	686649	235
1342.154296875	1	decision	trialStart	3	169	49	foodImage.86	FOODEEG_Images\0844.jpg	YN	Right	No	3.10023899999214	0	687184	251
1343.2109375	2	decision	foodImageDisplay	3	169	49	foodImage.86	FOODEEG_Images\0844.jpg	YN	Right	No	3.10023899999214	0	687725	252
1345.2734375	3.10023899999214	decision	choicePhaseStart	3	169	49	foodImage.86	FOODEEG_Images\0844.jpg	YN	Right	No	3.10023899999214	0	688781	253
1348.36328125	0	decision	response	3	169	49	foodImage.86	FOODEEG_Images\0844.jpg	YN	Right	No	3.10023899999214	0	690363	235
1349.421875	1	decision	trialStart	3	170	50	foodImage.92	FOODEEG_Images\0900.jpg	YN	Right	No	0.973147500000778	0	690905	251
1350.46484375	2	decision	foodImageDisplay	3	170	50	foodImage.92	FOODEEG_Images\0900.jpg	YN	Right	No	0.973147500000778	0	691439	252
1352.529296875	0.973147500000778	decision	choicePhaseStart	3	170	50	foodImage.92	FOODEEG_Images\0900.jpg	YN	Right	No	0.973147500000778	0	692496	253
1353.4921875	0	decision	response	3	170	50	foodImage.92	FOODEEG_Images\0900.jpg	YN	Right	No	0.973147500000778	0	692989	235
1354.53515625	1	taste	trialStart	3	171	51	foodImage.106	FOODEEG_Images\0914.jpg	YN	Left	Yes	0.542216400004691	0	693523	251
1355.57421875	2	taste	foodImageDisplay	3	171	51	foodImage.106	FOODEEG_Images\0914.jpg	YN	Left	Yes	0.542216400004691	0	694055	252
1357.638671875	0.542216400004691	taste	choicePhaseStart	3	171	51	foodImage.106	FOODEEG_Images\0914.jpg	YN	Left	Yes	0.542216400004691	0	695112	253
1358.171875	0	taste	response	3	171	51	foodImage.106	FOODEEG_Images\0914.jpg	YN	Left	Yes	0.542216400004691	0	695385	234
1359.21484375	1	decision	trialStart	3	172	52	foodImage.29	FOODEEG_Images\0278.jpg	NY	Left	No	0.476396899990505	0	695919	251
1360.26171875	2	decision	foodImageDisplay	3	172	52	foodImage.29	FOODEEG_Images\0278.jpg	NY	Left	No	0.476396899990505	0	696455	252
1362.326171875	0.476396899990505	decision	choicePhaseStart	3	172	52	foodImage.29	FOODEEG_Images\0278.jpg	NY	Left	No	0.476396899990505	0	697512	253
1362.794921875	0	decision	response	3	172	52	foodImage.29	FOODEEG_Images\0278.jpg	NY	Left	No	0.476396899990505	0	697752	234
1363.83984375	1	decision	trialStart	3	173	53	foodImage.22	FOODEEG_Images\0236.jpg	NY	Left	No	2.76830689999042	0	698287	251
1364.880859375	2	decision	foodImageDisplay	3	173	53	foodImage.22	FOODEEG_Images\0236.jpg	NY	Left	No	2.76830689999042	0	698820	252
1366.947265625	2.76830689999042	decision	choicePhaseStart	3	173	53	foodImage.22	FOODEEG_Images\0236.jpg	NY	Left	No	2.76830689999042	0	699878	253
1369.70703125	0	decision	response	3	173	53	foodImage.22	FOODEEG_Images\0236.jpg	NY	Left	No	2.76830689999042	0	701291	234
1370.75	1	taste	trialStart	3	174	54	foodImage.50	FOODEEG_Images\0529.jpg	YN	Right	No	1.979047300003	0	701825	251
1371.80859375	2	taste	foodImageDisplay	3	174	54	foodImage.50	FOODEEG_Images\0529.jpg	YN	Right	No	1.979047300003	0	702367	252
1373.87109375	1.979047300003	taste	choicePhaseStart	3	174	54	foodImage.50	FOODEEG_Images\0529.jpg	YN	Right	No	1.979047300003	0	703423	253
1375.84375	0	taste	response	3	174	54	foodImage.50	FOODEEG_Images\0529.jpg	YN	Right	No	1.979047300003	0	704433	235
1376.88671875	1	decision	trialStart	3	175	55	foodImage.52	FOODEEG_Images\0539.jpg	NY	Right	Yes	1.18322310000076	0	704967	251
1377.947265625	2	decision	foodImageDisplay	3	175	55	foodImage.52	FOODEEG_Images\0539.jpg	NY	Right	Yes	1.18322310000076	0	705510	252
1380.009765625	1.18322310000076	decision	choicePhaseStart	3	175	55	foodImage.52	FOODEEG_Images\0539.jpg	NY	Right	Yes	1.18322310000076	0	706566	253
1381.1875	0	decision	response	3	175	55	foodImage.52	FOODEEG_Images\0539.jpg	NY	Right	Yes	1.18322310000076	0	707169	235
1382.23046875	1	decision	trialStart	3	176	56	foodImage.102	FOODEEG_Images\0910.jpg	NY	Left	No	0.822427599996445	0	707703	251
1383.26953125	2	decision	foodImageDisplay	3	176	56	foodImage.102	FOODEEG_Images\0910.jpg	NY	Left	No	0.822427599996445	0	708235	252
1385.333984375	0.822427599996445	decision	choicePhaseStart	3	176	56	foodImage.102	FOODEEG_Images\0910.jpg	NY	Left	No	0.822427599996445	0	709292	253
1386.146484375	0	decision	response	3	176	56	foodImage.102	FOODEEG_Images\0910.jpg	NY	Left	No	0.822427599996445	0	709708	234
1387.189453125	1	health	trialStart	3	177	57	foodImage.50	FOODEEG_Images\0529.jpg	YN	Right	No	4.65735960000893	0	710242	251
1388.248046875	2	health	foodImageDisplay	3	177	57	foodImage.50	FOODEEG_Images\0529.jpg	YN	Right	No	4.65735960000893	0	710784	252
1390.314453125	4.65735960000893	health	choicePhaseStart	3	177	57	foodImage.50	FOODEEG_Images\0529.jpg	YN	Right	No	4.65735960000893	0	711842	253
1394.962890625	0	health	response	3	177	57	foodImage.50	FOODEEG_Images\0529.jpg	YN	Right	No	4.65735960000893	0	714222	235
1396.009765625	1	health	trialStart	3	178	58	foodImage.90	FOODEEG_Images\0890.jpg	YN	Right	No	0.815140899998369	0	714758	251
1397.0703125	2	health	foodImageDisplay	3	178	58	foodImage.90	FOODEEG_Images\0890.jpg	YN	Right	No	0.815140899998369	0	715301	252
1399.1328125	0.815140899998369	health	choicePhaseStart	3	178	58	foodImage.90	FOODEEG_Images\0890.jpg	YN	Right	No	0.815140899998369	0	716357	253
1399.939453125	0	health	response	3	178	58	foodImage.90	FOODEEG_Images\0890.jpg	YN	Right	No	0.815140899998369	0	716770	235
1400.982421875	1	health	trialStart	3	179	59	foodImage.76	FOODEEG_Images\0766.jpg	YN	Right	No	3.08334409999952	0	717304	251
1402.0390625	2	health	foodImageDisplay	3	179	59	foodImage.76	FOODEEG_Images\0766.jpg	YN	Right	No	3.08334409999952	0	717845	252
1404.1015625	3.08334409999952	health	choicePhaseStart	3	179	59	foodImage.76	FOODEEG_Images\0766.jpg	YN	Right	No	3.08334409999952	0	718901	253
1407.177734375	0	health	response	3	179	59	foodImage.76	FOODEEG_Images\0766.jpg	YN	Right	No	3.08334409999952	0	720476	235
1408.22265625	1	decision	trialStart	3	180	60	foodImage.25	FOODEEG_Images\0261.jpg	NY	Right	Yes	1.09887080000772	0	721011	251
1409.265625	2	decision	foodImageDisplay	3	180	60	foodImage.25	FOODEEG_Images\0261.jpg	NY	Right	Yes	1.09887080000772	0	721545	252
1411.328125	1.09887080000772	decision	choicePhaseStart	3	180	60	foodImage.25	FOODEEG_Images\0261.jpg	NY	Right	Yes	1.09887080000772	0	722601	253
1412.41796875	0	decision	response	3	180	60	foodImage.25	FOODEEG_Images\0261.jpg	NY	Right	Yes	1.09887080000772	0	723159	235
1414.466796875	21.361328125	n/a	blockEnd	n/a	n/a	n/a	n/a	n/a	n/a	n/a	n/a	n/a	n/a	724208	254
1435.828125	2	n/a	blockStart	4	n/a	n/a	n/a	n/a	n/a	n/a	n/a	n/a	n/a	735145	250
1437.859375	1	health	trialStart	4	181	1	foodImage.92	FOODEEG_Images\0900.jpg	NY	Left	No	0.528474699996877	0	736185	251
1438.8984375	2	health	foodImageDisplay	4	181	1	foodImage.92	FOODEEG_Images\0900.jpg	NY	Left	No	0.528474699996877	0	736717	252
1440.9609375	0.528474699996877	health	choicePhaseStart	4	181	1	foodImage.92	FOODEEG_Images\0900.jpg	NY	Left	No	0.528474699996877	0	737773	253
1441.48046875	0	health	response	4	181	1	foodImage.92	FOODEEG_Images\0900.jpg	NY	Left	No	0.528474699996877	0	738039	234
1442.525390625	1	health	trialStart	4	182	2	foodImage.107	FOODEEG_Images\0915.jpg	YN	Right	No	3.14351480000187	0	738574	251
1443.5625	2	health	foodImageDisplay	4	182	2	foodImage.107	FOODEEG_Images\0915.jpg	YN	Right	No	3.14351480000187	0	739105	252
1445.626953125	3.14351480000187	health	choicePhaseStart	4	182	2	foodImage.107	FOODEEG_Images\0915.jpg	YN	Right	No	3.14351480000187	0	740162	253
1448.76171875	0	health	response	4	182	2	foodImage.107	FOODEEG_Images\0915.jpg	YN	Right	No	3.14351480000187	0	741767	235
1449.8125	1	health	trialStart	4	183	3	foodImage.1	FOODEEG_Images\0004.jpg	NY	Left	No	1.83069119999709	0	742305	251
1450.85546875	2	health	foodImageDisplay	4	183	3	foodImage.1	FOODEEG_Images\0004.jpg	NY	Left	No	1.83069119999709	0	742839	252
1452.923828125	1.83069119999709	health	choicePhaseStart	4	183	3	foodImage.1	FOODEEG_Images\0004.jpg	NY	Left	No	1.83069119999709	0	743898	253
1454.744140625	0	health	response	4	183	3	foodImage.1	FOODEEG_Images\0004.jpg	NY	Left	No	1.83069119999709	0	744830	234
1455.7890625	1	taste	trialStart	4	184	4	foodImage.69	FOODEEG_Images\0693.jpg	NY	Right	Yes	0.625337500008754	0	745365	251
1456.83203125	2	taste	foodImageDisplay	4	184	4	foodImage.69	FOODEEG_Images\0693.jpg	NY	Right	Yes	0.625337500008754	0	745899	252
1458.896484375	0.625337500008754	taste	choicePhaseStart	4	184	4	foodImage.69	FOODEEG_Images\0693.jpg	NY	Right	Yes	0.625337500008754	0	746956	253
1459.513671875	0	taste	response	4	184	4	foodImage.69	FOODEEG_Images\0693.jpg	NY	Right	Yes	0.625337500008754	0	747272	235
1460.5546875	1	decision	trialStart	4	185	5	foodImage.100	FOODEEG_Images\0908.jpg	YN	Right	No	1.39930730000196	0	747805	251
1461.59375	2	decision	foodImageDisplay	4	185	5	foodImage.100	FOODEEG_Images\0908.jpg	YN	Right	No	1.39930730000196	0	748337	252
1463.658203125	1.39930730000196	decision	choicePhaseStart	4	185	5	foodImage.100	FOODEEG_Images\0908.jpg	YN	Right	No	1.39930730000196	0	749394	253
1465.048828125	0	decision	response	4	185	5	foodImage.100	FOODEEG_Images\0908.jpg	YN	Right	No	1.39930730000196	0	750106	235
1466.091796875	1	decision	trialStart	4	186	6	foodImage.21	FOODEEG_Images\0234.jpg	YN	Left	Yes	1.78292310000688	0	750640	251
1467.1484375	2	decision	foodImageDisplay	4	186	6	foodImage.21	FOODEEG_Images\0234.jpg	YN	Left	Yes	1.78292310000688	0	751181	252
1469.2109375	1.78292310000688	decision	choicePhaseStart	4	186	6	foodImage.21	FOODEEG_Images\0234.jpg	YN	Left	Yes	1.78292310000688	0	752237	253
1470.984375	0	decision	response	4	186	6	foodImage.21	FOODEEG_Images\0234.jpg	YN	Left	Yes	1.78292310000688	0	753145	234
1472.02734375	1	taste	trialStart	4	187	7	foodImage.43	FOODEEG_Images\0445.jpg	NY	Left	No	1.14885350000986	0	753679	251
1473.0859375	2	taste	foodImageDisplay	4	187	7	foodImage.43	FOODEEG_Images\0445.jpg	NY	Left	No	1.14885350000986	0	754221	252
1475.1484375	1.14885350000986	taste	choicePhaseStart	4	187	7	foodImage.43	FOODEEG_Images\0445.jpg	NY	Left	No	1.14885350000986	0	755277	253
1476.2890625	0	taste	response	4	187	7	foodImage.43	FOODEEG_Images\0445.jpg	NY	Left	No	1.14885350000986	0	755861	234
1477.330078125	1	health	trialStart	4	188	8	foodImage.119	FOODEEG_Images\0927.jpg	YN	Right	No	0.830313999991631	0	756394	251
1478.38671875	2	health	foodImageDisplay	4	188	8	foodImage.119	FOODEEG_Images\0927.jpg	YN	Right	No	0.830313999991631	0	756935	252
1480.451171875	0.830313999991631	health	choicePhaseStart	4	188	8	foodImage.119	FOODEEG_Images\0927.jpg	YN	Right	No	0.830313999991631	0	757992	253
1481.271484375	0	health	response	4	188	8	foodImage.119	FOODEEG_Images\0927.jpg	YN	Right	No	0.830313999991631	0	758412	235
1482.314453125	1	health	trialStart	4	189	9	foodImage.113	FOODEEG_Images\0921.jpg	NY	Left	No	1.63976089999778	0	758946	251
1483.3515625	2	health	foodImageDisplay	4	189	9	foodImage.113	FOODEEG_Images\0921.jpg	NY	Left	No	1.63976089999778	0	759477	252
1485.416015625	1.63976089999778	health	choicePhaseStart	4	189	9	foodImage.113	FOODEEG_Images\0921.jpg	NY	Left	No	1.63976089999778	0	760534	253
1487.046875	0	health	response	4	189	9	foodImage.113	FOODEEG_Images\0921.jpg	NY	Left	No	1.63976089999778	0	761369	234
1488.08984375	1	health	trialStart	4	190	10	foodImage.42	FOODEEG_Images\0438.jpg	NY	Left	No	1.91291109999293	0	761903	251
1489.181640625	2	health	foodImageDisplay	4	190	10	foodImage.42	FOODEEG_Images\0438.jpg	NY	Left	No	1.91291109999293	0	762462	252
1491.248046875	1.91291109999293	health	choicePhaseStart	4	190	10	foodImage.42	FOODEEG_Images\0438.jpg	NY	Left	No	1.91291109999293	0	763520	253
1493.150390625	0	health	response	4	190	10	foodImage.42	FOODEEG_Images\0438.jpg	NY	Left	No	1.91291109999293	0	764494	234
1494.19921875	1	decision	trialStart	4	191	11	foodImage.2	FOODEEG_Images\0028.jpg	NY	Right	Yes	0.503299000003608	0	765031	251
1495.2421875	2	decision	foodImageDisplay	4	191	11	foodImage.2	FOODEEG_Images\0028.jpg	NY	Right	Yes	0.503299000003608	0	765565	252
1497.3046875	0.503299000003608	decision	choicePhaseStart	4	191	11	foodImage.2	FOODEEG_Images\0028.jpg	NY	Right	Yes	0.503299000003608	0	766621	253
1497.798828125	0	decision	response	4	191	11	foodImage.2	FOODEEG_Images\0028.jpg	NY	Right	Yes	0.503299000003608	0	766874	235
1498.84375	1	taste	trialStart	4	192	12	foodImage.60	FOODEEG_Images\0614.jpg	NY	Right	Yes	1.64909239999542	0	767409	251
1499.927734375	2	taste	foodImageDisplay	4	192	12	foodImage.60	FOODEEG_Images\0614.jpg	NY	Right	Yes	1.64909239999542	0	767964	252
1501.9921875	1.64909239999542	taste	choicePhaseStart	4	192	12	foodImage.60	FOODEEG_Images\0614.jpg	NY	Right	Yes	1.64909239999542	0	769021	253
1503.630859375	0	taste	response	4	192	12	foodImage.60	FOODEEG_Images\0614.jpg	NY	Right	Yes	1.64909239999542	0	769860	235
1504.677734375	1	taste	trialStart	4	193	13	foodImage.58	FOODEEG_Images\0605.jpg	NY	Left	No	1.84734940000635	0	770396	251
1505.73828125	2	taste	foodImageDisplay	4	193	13	foodImage.58	FOODEEG_Images\0605.jpg	NY	Left	No	1.84734940000635	0	770939	252
1507.80078125	1.84734940000635	taste	choicePhaseStart	4	193	13	foodImage.58	FOODEEG_Images\0605.jpg	NY	Left	No	1.84734940000635	0	771995	253
1509.638671875	0	taste	response	4	193	13	foodImage.58	FOODEEG_Images\0605.jpg	NY	Left	No	1.84734940000635	0	772936	234
1510.68359375	1	health	trialStart	4	194	14	foodImage.73	FOODEEG_Images\0717.jpg	NY	Right	Yes	0.785002100004931	0	773471	251
1511.7421875	2	health	foodImageDisplay	4	194	14	foodImage.73	FOODEEG_Images\0717.jpg	NY	Right	Yes	0.785002100004931	0	774013	252
