onset	duration	trial_type	event_type	block	trial_total	trial_in_block	food_image_code	food_image_path	button_position	resp_position	resp_choice	choice_rt	resp_too_slow	sample	trigger
253.07421875	2	n/a	blockStart	1	n/a	n/a	n/a	n/a	n/a	n/a	n/a	n/a	n/a	129575	250
255.11328125	1	taste	trialStart	1	1	1	foodImage.90	FOODEEG_Images\0890.jpg	YN	Right	No	1.4630662999989	0	130619	251
256.19921875	2	taste	foodImageDisplay	1	1	1	foodImage.90	FOODEEG_Images\0890.jpg	YN	Right	No	1.4630662999989	0	131175	252
258.265625	1.4630662999989	taste	choicePhaseStart	1	1	1	foodImage.90	FOODEEG_Images\0890.jpg	YN	Right	No	1.4630662999989	0	132233	253
259.72265625	0	taste	response	1	1	1	foodImage.90	FOODEEG_Images\0890.jpg	YN	Right	No	1.4630662999989	0	132979	235
260.80859375	1	health	trialStart	1	2	2	foodImage.47	FOODEEG_Images\0488.jpg	NY	Right	Yes	2.17959669999982	0	133535	251
261.8515625	2	health	foodImageDisplay	1	2	2	foodImage.47	FOODEEG_Images\0488.jpg	NY	Right	Yes	2.17959669999982	0	134069	252
263.916015625	2.17959669999982	health	choicePhaseStart	1	2	2	foodImage.47	FOODEEG_Images\0488.jpg	NY	Right	Yes	2.17959669999982	0	135126	253
266.08984375	0	health	response	1	2	2	foodImage.47	FOODEEG_Images\0488.jpg	NY	Right	Yes	2.17959669999982	0	136239	235
267.140625	1	health	trialStart	1	3	3	foodImage.67	FOODEEG_Images\0679.jpg	NY	Left	No	2.87419629999931	0	136777	251
268.19921875	2	health	foodImageDisplay	1	3	3	foodImage.67	FOODEEG_Images\0679.jpg	NY	Left	No	2.87419629999931	0	137319	252
270.263671875	2.87419629999931	health	choicePhaseStart	1	3	3	foodImage.67	FOODEEG_Images\0679.jpg	NY	Left	No	2.87419629999931	0	138376	253
273.12890625	0	health	response	1	3	3	foodImage.67	FOODEEG_Images\0679.jpg	NY	Left	No	2.87419629999931	0	139843	234
274.169921875	1	health	trialStart	1	4	4	foodImage.44	FOODEEG_Images\0459.jpg	NY	Right	Yes	3.36631600000692	0	140376	251
275.23828125	2	health	foodImageDisplay	1	4	4	foodImage.44	FOODEEG_Images\0459.jpg	NY	Right	Yes	3.36631600000692	0	140923	252
277.3125	3.36631600000692	health	choicePhaseStart	1	4	4	foodImage.44	FOODEEG_Images\0459.jpg	NY	Right	Yes	3.36631600000692	0	141985	253
280.671875	0	health	response	1	4	4	foodImage.44	FOODEEG_Images\0459.jpg	NY	Right	Yes	3.36631600000692	0	143705	235
281.72265625	1	decision	trialStart	1	5	5	foodImage.110	FOODEEG_Images\0918.jpg	NY	Left	No	1.08880009999848	0	144243	251
282.765625	2	decision	foodImageDisplay	1	5	5	foodImage.110	FOODEEG_Images\0918.jpg	NY	Left	No	1.08880009999848	0	144777	252
284.83203125	1.08880009999848	decision	choicePhaseStart	1	5	5	foodImage.110	FOODEEG_Images\0918.jpg	NY	Left	No	1.08880009999848	0	145835	253
285.912109375	0	decision	response	1	5	5	foodImage.110	FOODEEG_Images\0918.jpg	NY	Left	No	1.08880009999848	0	146388	234
286.9609375	1	health	trialStart	1	6	6	foodImage.20	FOODEEG_Images\0226.jpg	NY	Right	Yes	1.40456950000225	0	146925	251
288.01953125	2	health	foodImageDisplay	1	6	6	foodImage.20	FOODEEG_Images\0226.jpg	NY	Right	Yes	1.40456950000225	0	147467	252
290.083984375	1.40456950000225	health	choicePhaseStart	1	6	6	foodImage.20	FOODEEG_Images\0226.jpg	NY	Right	Yes	1.40456950000225	0	148524	253
291.48046875	0	health	response	1	6	6	foodImage.20	FOODEEG_Images\0226.jpg	NY	Right	Yes	1.40456950000225	0	149239	235
292.521484375	1	decision	trialStart	1	7	7	foodImage.119	FOODEEG_Images\0927.jpg	YN	Left	Yes	1.49315930000012	0	149772	251
293.572265625	2	decision	foodImageDisplay	1	7	7	foodImage.119	FOODEEG_Images\0927.jpg	YN	Left	Yes	1.49315930000012	0	150310	252
295.634765625	1.49315930000012	decision	choicePhaseStart	1	7	7	foodImage.119	FOODEEG_Images\0927.jpg	YN	Left	Yes	1.49315930000012	0	151366	253
297.119140625	0	decision	response	1	7	7	foodImage.119	FOODEEG_Images\0927.jpg	YN	Left	Yes	1.49315930000012	0	152126	234
298.1640625	1	taste	trialStart	1	8	8	foodImage.94	FOODEEG_Images\0902.jpg	NY	Left	No	1.18155039999692	0	152661	251
299.216796875	2	taste	foodImageDisplay	1	8	8	foodImage.94	FOODEEG_Images\0902.jpg	NY	Left	No	1.18155039999692	0	153200	252
301.287109375	1.18155039999692	taste	choicePhaseStart	1	8	8	foodImage.94	FOODEEG_Images\0902.jpg	NY	Left	No	1.18155039999692	0	154260	253
302.462890625	0	taste	response	1	8	8	foodImage.94	FOODEEG_Images\0902.jpg	NY	Left	No	1.18155039999692	0	154862	234
303.505859375	1	decision	trialStart	1	9	9	foodImage.25	FOODEEG_Images\0261.jpg	NY	Left	No	0.740656399997533	0	155396	251
304.560546875	2	decision	foodImageDisplay	1	9	9	foodImage.25	FOODEEG_Images\0261.jpg	NY	Left	No	0.740656399997533	0	155936	252
306.6328125	0.740656399997533	decision	choicePhaseStart	1	9	9	foodImage.25	FOODEEG_Images\0261.jpg	NY	Left	No	0.740656399997533	0	156997	253
307.369140625	0	decision	response	1	9	9	foodImage.25	FOODEEG_Images\0261.jpg	NY	Left	No	0.740656399997533	0	157374	234
308.41015625	1	decision	trialStart	1	10	10	foodImage.81	FOODEEG_Images\0797.jpg	YN	Left	Yes	1.40506129999994	0	157907	251
309.4921875	2	decision	foodImageDisplay	1	10	10	foodImage.81	FOODEEG_Images\0797.jpg	YN	Left	Yes	1.40506129999994	0	158461	252
311.5546875	1.40506129999994	decision	choicePhaseStart	1	10	10	foodImage.81	FOODEEG_Images\0797.jpg	YN	Left	Yes	1.40506129999994	0	159517	253
312.951171875	0	decision	response	1	10	10	foodImage.81	FOODEEG_Images\0797.jpg	YN	Left	Yes	1.40506129999994	0	160232	234
313.994140625	1	health	trialStart	1	11	11	foodImage.61	FOODEEG_Images\0640.jpg	YN	Left	Yes	1.6311124000058	0	160766	251
315.0546875	2	health	foodImageDisplay	1	11	11	foodImage.61	FOODEEG_Images\0640.jpg	YN	Left	Yes	1.6311124000058	0	161309	252
317.119140625	1.6311124000058	health	choicePhaseStart	1	11	11	foodImage.61	FOODEEG_Images\0640.jpg	YN	Left	Yes	1.6311124000058	0	162366	253
318.7421875	0	health	response	1	11	11	foodImage.61	FOODEEG_Images\0640.jpg	YN	Left	Yes	1.6311124000058	0	163197	234
319.783203125	1	decision	trialStart	1	12	12	foodImage.73	FOODEEG_Images\0717.jpg	YN	Left	Yes	0.856810600002063	0	163730	251
320.83984375	2	decision	foodImageDisplay	1	12	12	foodImage.73	FOODEEG_Images\0717.jpg	YN	Left	Yes	0.856810600002063	0	164271	252
322.9140625	0.856810600002063	decision	choicePhaseStart	1	12	12	foodImage.73	FOODEEG_Images\0717.jpg	YN	Left	Yes	0.856810600002063	0	165333	253
323.765625	0	decision	response	1	12	12	foodImage.73	FOODEEG_Images\0717.jpg	YN	Left	Yes	0.856810600002063	0	165769	234
324.83203125	1	health	trialStart	1	13	13	foodImage.4	FOODEEG_Images\0065.jpg	YN	Right	No	1.00332740000158	0	166315	251
325.9140625	2	health	foodImageDisplay	1	13	13	foodImage.4	FOODEEG_Images\0065.jpg	YN	Right	No	1.00332740000158	0	166869	252
327.978515625	1.00332740000158	health	choicePhaseStart	1	13	13	foodImage.4	FOODEEG_Images\0065.jpg	YN	Right	No	1.00332740000158	0	167926	253
328.974609375	0	health	response	1	13	13	foodImage.4	FOODEEG_Images\0065.jpg	YN	Right	No	1.00332740000158	0	168436	235
330.017578125	1	decision	trialStart	1	14	14	foodImage.13	FOODEEG_Images\0183.jpg	NY	Left	No	1.15556239999569	0	168970	251
331.060546875	2	decision	foodImageDisplay	1	14	14	foodImage.13	FOODEEG_Images\0183.jpg	NY	Left	No	1.15556239999569	0	169504	252
333.12890625	1.15556239999569	decision	choicePhaseStart	1	14	14	foodImage.13	FOODEEG_Images\0183.jpg	NY	Left	No	1.15556239999569	0	170563	253
334.27734375	0	decision	response	1	14	14	foodImage.13	FOODEEG_Images\0183.jpg	NY	Left	No	1.15556239999569	0	171151	234
335.318359375	1	taste	trialStart	1	15	15	foodImage.74	FOODEEG_Images\0752.jpg	NY	Left	No	1.08676539999578	0	171684	251
336.376953125	2	taste	foodImageDisplay	1	15	15	foodImage.74	FOODEEG_Images\0752.jpg	NY	Left	No	1.08676539999578	0	172226	252
338.4453125	1.08676539999578	taste	choicePhaseStart	1	15	15	foodImage.74	FOODEEG_Images\0752.jpg	NY	Left	No	1.08676539999578	0	173285	253
339.525390625	0	taste	response	1	15	15	foodImage.74	FOODEEG_Images\0752.jpg	NY	Left	No	1.08676539999578	0	173838	234
340.576171875	1	decision	trialStart	1	16	16	foodImage.94	FOODEEG_Images\0902.jpg	NY	Left	No	1.02798769999936	0	174376	251
341.62890625	2	decision	foodImageDisplay	1	16	16	foodImage.94	FOODEEG_Images\0902.jpg	NY	Left	No	1.02798769999936	0	174915	252
343.69140625	1.02798769999936	decision	choicePhaseStart	1	16	16	foodImage.94	FOODEEG_Images\0902.jpg	NY	Left	No	1.02798769999936	0	175971	253
344.708984375	0	decision	response	1	16	16	foodImage.94	FOODEEG_Images\0902.jpg	NY	Left	No	1.02798769999936	0	176492	234
345.75	1	decision	trialStart	1	17	17	foodImage.93	FOODEEG_Images\0901.jpg	YN	Left	Yes	1.22831050000241	0	177025	251
346.791015625	2	decision	foodImageDisplay	1	17	17	foodImage.93	FOODEEG_Images\0901.jpg	YN	Left	Yes	1.22831050000241	0	177558	252
348.857421875	1.22831050000241	decision	choicePhaseStart	1	17	17	foodImage.93	FOODEEG_Images\0901.jpg	YN	Left	Yes	1.22831050000241	0	178616	253
350.078125	0	decision	response	1	17	17	foodImage.93	FOODEEG_Images\0901.jpg	YN	Left	Yes	1.22831050000241	0	179241	234
351.119140625	1	health	trialStart	1	18	18	foodImage.90	FOODEEG_Images\0890.jpg	NY	Right	Yes	1.95969759999571	0	179774	251
352.173828125	2	health	foodImageDisplay	1	18	18	foodImage.90	FOODEEG_Images\0890.jpg	NY	Right	Yes	1.95969759999571	0	180314	252
354.23828125	1.95969759999571	health	choicePhaseStart	1	18	18	foodImage.90	FOODEEG_Images\0890.jpg	NY	Right	Yes	1.95969759999571	0	181371	253
356.189453125	0	health	response	1	18	18	foodImage.90	FOODEEG_Images\0890.jpg	NY	Right	Yes	1.95969759999571	0	182370	235
357.23046875	1	taste	trialStart	1	19	19	foodImage.84	FOODEEG_Images\0830.jpg	YN	Left	Yes	0.824321300002339	0	182903	251
358.310546875	2	taste	foodImageDisplay	1	19	19	foodImage.84	FOODEEG_Images\0830.jpg	YN	Left	Yes	0.824321300002339	0	183456	252
360.373046875	0.824321300002339	taste	choicePhaseStart	1	19	19	foodImage.84	FOODEEG_Images\0830.jpg	YN	Left	Yes	0.824321300002339	0	184512	253
361.189453125	0	taste	response	1	19	19	foodImage.84	FOODEEG_Images\0830.jpg	YN	Left	Yes	0.824321300002339	0	184930	234
362.23828125	1	taste	trialStart	1	20	20	foodImage.7	FOODEEG_Images\0116.jpg	YN	Left	Yes	0.76428670000314	0	185467	251
363.298828125	2	taste	foodImageDisplay	1	20	20	foodImage.7	FOODEEG_Images\0116.jpg	YN	Left	Yes	0.76428670000314	0	186010	252
365.3671875	0.76428670000314	taste	choicePhaseStart	1	20	20	foodImage.7	FOODEEG_Images\0116.jpg	YN	Left	Yes	0.76428670000314	0	187069	253
366.125	0	taste	response	1	20	20	foodImage.7	FOODEEG_Images\0116.jpg	YN	Left	Yes	0.76428670000314	0	187457	234
367.16796875	1	health	trialStart	1	21	21	foodImage.32	FOODEEG_Images\0319.jpg	YN	Left	Yes	0.623206900003424	0	187991	251
368.2109375	2	health	foodImageDisplay	1	21	21	foodImage.32	FOODEEG_Images\0319.jpg	YN	Left	Yes	0.623206900003424	0	188525	252
370.283203125	0.623206900003424	health	choicePhaseStart	1	21	21	foodImage.32	FOODEEG_Images\0319.jpg	YN	Left	Yes	0.623206900003424	0	189586	253
370.900390625	0	health	response	1	21	21	foodImage.32	FOODEEG_Images\0319.jpg	YN	Left	Yes	0.623206900003424	0	189902	234
371.94921875	1	health	trialStart	1	22	22	foodImage.83	FOODEEG_Images\0827.jpg	NY	Left	No	1.42333740000322	0	190439	251
373.03125	2	health	foodImageDisplay	1	22	22	foodImage.83	FOODEEG_Images\0827.jpg	NY	Left	No	1.42333740000322	0	190993	252
375.099609375	1.42333740000322	health	choicePhaseStart	1	22	22	foodImage.83	FOODEEG_Images\0827.jpg	NY	Left	No	1.42333740000322	0	192052	253
376.515625	0	health	response	1	22	22	foodImage.83	FOODEEG_Images\0827.jpg	NY	Left	No	1.42333740000322	0	192777	234
377.55859375	1	taste	trialStart	1	23	23	foodImage.86	FOODEEG_Images\0844.jpg	NY	Left	No	1.37464139999793	0	193311	251
378.6171875	2	taste	foodImageDisplay	1	23	23	foodImage.86	FOODEEG_Images\0844.jpg	NY	Left	No	1.37464139999793	0	193853	252
380.685546875	1.37464139999793	taste	choicePhaseStart	1	23	23	foodImage.86	FOODEEG_Images\0844.jpg	NY	Left	No	1.37464139999793	0	194912	253
382.052734375	0	taste	response	1	23	23	foodImage.86	FOODEEG_Images\0844.jpg	NY	Left	No	1.37464139999793	0	195612	234
383.09765625	1	taste	trialStart	1	24	24	foodImage.101	FOODEEG_Images\0909.jpg	NY	Right	Yes	1.14137070000288	0	196147	251
384.15234375	2	taste	foodImageDisplay	1	24	24	foodImage.101	FOODEEG_Images\0909.jpg	NY	Right	Yes	1.14137070000288	0	196687	252
386.220703125	1.14137070000288	taste	choicePhaseStart	1	24	24	foodImage.101	FOODEEG_Images\0909.jpg	NY	Right	Yes	1.14137070000288	0	197746	253
387.35546875	0	taste	response	1	24	24	foodImage.101	FOODEEG_Images\0909.jpg	NY	Right	Yes	1.14137070000288	0	198327	235
388.3984375	1	decision	trialStart	1	25	25	foodImage.26	FOODEEG_Images\0262.jpg	YN	Left	Yes	2.59394079999765	0	198861	251
389.4609375	2	decision	foodImageDisplay	1	25	25	foodImage.26	FOODEEG_Images\0262.jpg	YN	Left	Yes	2.59394079999765	0	199405	252
391.529296875	2.59394079999765	decision	choicePhaseStart	1	25	25	foodImage.26	FOODEEG_Images\0262.jpg	YN	Left	Yes	2.59394079999765	0	200464	253
394.115234375	0	decision	response	1	25	25	foodImage.26	FOODEEG_Images\0262.jpg	YN	Left	Yes	2.59394079999765	0	201788	234
395.158203125	1	health	trialStart	1	26	26	foodImage.88	FOODEEG_Images\0878.jpg	YN	Right	No	2.1702632000015	0	202322	251
396.21875	2	health	foodImageDisplay	1	26	26	foodImage.88	FOODEEG_Images\0878.jpg	YN	Right	No	2.1702632000015	0	202865	252
398.283203125	2.1702632000015	health	choicePhaseStart	1	26	26	foodImage.88	FOODEEG_Images\0878.jpg	YN	Right	No	2.1702632000015	0	203922	253
400.443359375	0	health	response	1	26	26	foodImage.88	FOODEEG_Images\0878.jpg	YN	Right	No	2.1702632000015	0	205028	235
401.486328125	1	decision	trialStart	1	27	27	foodImage.23	FOODEEG_Images\0244.jpg	YN	Left	Yes	1.32616620000044	0	205562	251
402.537109375	2	decision	foodImageDisplay	1	27	27	foodImage.23	FOODEEG_Images\0244.jpg	YN	Left	Yes	1.32616620000044	0	206100	252
404.599609375	1.32616620000044	decision	choicePhaseStart	1	27	27	foodImage.23	FOODEEG_Images\0244.jpg	YN	Left	Yes	1.32616620000044	0	207156	253
405.916015625	0	decision	response	1	27	27	foodImage.23	FOODEEG_Images\0244.jpg	YN	Left	Yes	1.32616620000044	0	207830	234
406.95703125	1	taste	trialStart	1	28	28	foodImage.54	FOODEEG_Images\0560.jpg	NY	Left	No	2.32922220000182	0	208363	251
408.041015625	2	taste	foodImageDisplay	1	28	28	foodImage.54	FOODEEG_Images\0560.jpg	NY	Left	No	2.32922220000182	0	208918	252
410.107421875	2.32922220000182	taste	choicePhaseStart	1	28	28	foodImage.54	FOODEEG_Images\0560.jpg	NY	Left	No	2.32922220000182	0	209976	253
412.42578125	0	taste	response	1	28	28	foodImage.54	FOODEEG_Images\0560.jpg	NY	Left	No	2.32922220000182	0	211163	234
413.466796875	1	health	trialStart	1	29	29	foodImage.3	FOODEEG_Images\0046.jpg	YN	Right	No	0.695806199997605	0	211696	251
414.529296875	2	health	foodImageDisplay	1	29	29	foodImage.3	FOODEEG_Images\0046.jpg	YN	Right	No	0.695806199997605	0	212240	252
416.595703125	0.695806199997605	health	choicePhaseStart	1	29	29	foodImage.3	FOODEEG_Images\0046.jpg	YN	Right	No	0.695806199997605	0	213298	253
417.283203125	0	health	response	1	29	29	foodImage.3	FOODEEG_Images\0046.jpg	YN	Right	No	0.695806199997605	0	213650	235
418.326171875	1	taste	trialStart	1	30	30	foodImage.85	FOODEEG_Images\0841.jpg	NY	Left	No	0.807539200002793	0	214184	251
419.40625	2	taste	foodImageDisplay	1	30	30	foodImage.85	FOODEEG_Images\0841.jpg	NY	Left	No	0.807539200002793	0	214737	252
421.46875	0.807539200002793	taste	choicePhaseStart	1	30	30	foodImage.85	FOODEEG_Images\0841.jpg	NY	Left	No	0.807539200002793	0	215793	253
422.265625	0	taste	response	1	30	30	foodImage.85	FOODEEG_Images\0841.jpg	NY	Left	No	0.807539200002793	0	216201	234
423.314453125	1	decision	trialStart	1	31	31	foodImage.11	FOODEEG_Images\0180.jpg	NY	Right	Yes	2.68957500000397	0	216738	251
424.376953125	2	decision	foodImageDisplay	1	31	31	foodImage.11	FOODEEG_Images\0180.jpg	NY	Right	Yes	2.68957500000397	0	217282	252
426.443359375	2.68957500000397	decision	choicePhaseStart	1	31	31	foodImage.11	FOODEEG_Images\0180.jpg	NY	Right	Yes	2.68957500000397	0	218340	253
429.123046875	0	decision	response	1	31	31	foodImage.11	FOODEEG_Images\0180.jpg	NY	Right	Yes	2.68957500000397	0	219712	235
430.17578125	1	decision	trialStart	1	32	32	foodImage.89	FOODEEG_Images\0881.jpg	NY	Left	No	0.953968100002385	0	220251	251
431.2578125	2	decision	foodImageDisplay	1	32	32	foodImage.89	FOODEEG_Images\0881.jpg	NY	Left	No	0.953968100002385	0	220805	252
433.3203125	0.953968100002385	decision	choicePhaseStart	1	32	32	foodImage.89	FOODEEG_Images\0881.jpg	NY	Left	No	0.953968100002385	0	221861	253
434.265625	0	decision	response	1	32	32	foodImage.89	FOODEEG_Images\0881.jpg	NY	Left	No	0.953968100002385	0	222345	234
435.314453125	1	decision	trialStart	1	33	33	foodImage.20	FOODEEG_Images\0226.jpg	YN	Right	No	1.05727650000335	0	222882	251
436.376953125	2	decision	foodImageDisplay	1	33	33	foodImage.20	FOODEEG_Images\0226.jpg	YN	Right	No	1.05727650000335	0	223426	252
438.44140625	1.05727650000335	decision	choicePhaseStart	1	33	33	foodImage.20	FOODEEG_Images\0226.jpg	YN	Right	No	1.05727650000335	0	224483	253
439.490234375	0	decision	response	1	33	33	foodImage.20	FOODEEG_Images\0226.jpg	YN	Right	No	1.05727650000335	0	225020	235
440.533203125	1	health	trialStart	1	34	34	foodImage.99	FOODEEG_Images\0907.jpg	YN	Right	No	3.04202190000069	0	225554	251
441.5703125	2	health	foodImageDisplay	1	34	34	foodImage.99	FOODEEG_Images\0907.jpg	YN	Right	No	3.04202190000069	0	226085	252
443.638671875	3.04202190000069	health	choicePhaseStart	1	34	34	foodImage.99	FOODEEG_Images\0907.jpg	YN	Right	No	3.04202190000069	0	227144	253
446.673828125	0	health	response	1	34	34	foodImage.99	FOODEEG_Images\0907.jpg	YN	Right	No	3.04202190000069	0	228698	235
447.71484375	1	taste	trialStart	1	35	35	foodImage.4	FOODEEG_Images\0065.jpg	YN	Left	Yes	1.19016320000082	0	229231	251
448.76953125	2	taste	foodImageDisplay	1	35	35	foodImage.4	FOODEEG_Images\0065.jpg	YN	Left	Yes	1.19016320000082	0	229771	252
450.8359375	1.19016320000082	taste	choicePhaseStart	1	35	35	foodImage.4	FOODEEG_Images\0065.jpg	YN	Left	Yes	1.19016320000082	0	230829	253
452.017578125	0	taste	response	1	35	35	foodImage.4	FOODEEG_Images\0065.jpg	YN	Left	Yes	1.19016320000082	0	231434	234
453.05859375	1	decision	trialStart	1	36	36	foodImage.39	FOODEEG_Images\0367.jpg	YN	Left	Yes	4.33917349999683	0	231967	251
454.10546875	2	decision	foodImageDisplay	1	36	36	foodImage.39	FOODEEG_Images\0367.jpg	YN	Left	Yes	4.33917349999683	0	232503	252
456.173828125	4.33917349999683	decision	choicePhaseStart	1	36	36	foodImage.39	FOODEEG_Images\0367.jpg	YN	Left	Yes	4.33917349999683	0	233562	253
460.505859375	0	decision	response	1	36	36	foodImage.39	FOODEEG_Images\0367.jpg	YN	Left	Yes	4.33917349999683	0	235780	234
461.546875	1	health	trialStart	1	37	37	foodImage.56	FOODEEG_Images\0586.jpg	YN	Right	No	1.93303759999981	0	236313	251
462.587890625	2	health	foodImageDisplay	1	37	37	foodImage.56	FOODEEG_Images\0586.jpg	YN	Right	No	1.93303759999981	0	236846	252
464.65234375	1.93303759999981	health	choicePhaseStart	1	37	37	foodImage.56	FOODEEG_Images\0586.jpg	YN	Right	No	1.93303759999981	0	237903	253
466.576171875	0	health	response	1	37	37	foodImage.56	FOODEEG_Images\0586.jpg	YN	Right	No	1.93303759999981	0	238888	235
467.619140625	1	taste	trialStart	1	38	38	foodImage.41	FOODEEG_Images\0409.jpg	YN	Left	Yes	1.50661789999867	0	239422	251
468.6875	2	taste	foodImageDisplay	1	38	38	foodImage.41	FOODEEG_Images\0409.jpg	YN	Left	Yes	1.50661789999867	0	239969	252
470.751953125	1.50661789999867	taste	choicePhaseStart	1	38	38	foodImage.41	FOODEEG_Images\0409.jpg	YN	Left	Yes	1.50661789999867	0	241026	253
472.248046875	0	taste	response	1	38	38	foodImage.41	FOODEEG_Images\0409.jpg	YN	Left	Yes	1.50661789999867	0	241792	234
473.2890625	1	decision	trialStart	1	39	39	foodImage.29	FOODEEG_Images\0278.jpg	NY	Right	Yes	1.17692289999832	0	242325	251
474.34375	2	decision	foodImageDisplay	1	39	39	foodImage.29	FOODEEG_Images\0278.jpg	NY	Right	Yes	1.17692289999832	0	242865	252
476.408203125	1.17692289999832	decision	choicePhaseStart	1	39	39	foodImage.29	FOODEEG_Images\0278.jpg	NY	Right	Yes	1.17692289999832	0	243922	253
477.576171875	0	decision	response	1	39	39	foodImage.29	FOODEEG_Images\0278.jpg	NY	Right	Yes	1.17692289999832	0	244520	235
478.6171875	1	decision	trialStart	1	40	40	foodImage.50	FOODEEG_Images\0529.jpg	YN	Left	Yes	1.09841440000309	0	245053	251
479.671875	2	decision	foodImageDisplay	1	40	40	foodImage.50	FOODEEG_Images\0529.jpg	YN	Left	Yes	1.09841440000309	0	245593	252
481.740234375	1.09841440000309	decision	choicePhaseStart	1	40	40	foodImage.50	FOODEEG_Images\0529.jpg	YN	Left	Yes	1.09841440000309	0	246652	253
482.83203125	0	decision	response	1	40	40	foodImage.50	FOODEEG_Images\0529.jpg	YN	Left	Yes	1.09841440000309	0	247211	234
483.876953125	1	taste	trialStart	1	41	41	foodImage.52	FOODEEG_Images\0539.jpg	NY	Left	No	0.818437300004007	0	247746	251
484.943359375	2	taste	foodImageDisplay	1	41	41	foodImage.52	FOODEEG_Images\0539.jpg	NY	Left	No	0.818437300004007	0	248292	252
487.01171875	0.818437300004007	taste	choicePhaseStart	1	41	41	foodImage.52	FOODEEG_Images\0539.jpg	NY	Left	No	0.818437300004007	0	249351	253
487.82421875	0	taste	response	1	41	41	foodImage.52	FOODEEG_Images\0539.jpg	NY	Left	No	0.818437300004007	0	249767	234
488.865234375	1	decision	trialStart	1	42	42	foodImage.70	FOODEEG_Images\0705.jpg	YN	Left	Yes	0.708773199999996	0	250300	251
489.927734375	2	decision	foodImageDisplay	1	42	42	foodImage.70	FOODEEG_Images\0705.jpg	YN	Left	Yes	0.708773199999996	0	250844	252
491.994140625	0.708773199999996	decision	choicePhaseStart	1	42	42	foodImage.70	FOODEEG_Images\0705.jpg	YN	Left	Yes	0.708773199999996	0	251902	253
492.6953125	0	decision	response	1	42	42	foodImage.70	FOODEEG_Images\0705.jpg	YN	Left	Yes	0.708773199999996	0	252261	234
493.73828125	1	decision	trialStart	1	43	43	foodImage.1	FOODEEG_Images\0004.jpg	NY	Left	No	0.927400900000066	0	252795	251
494.802734375	2	decision	foodImageDisplay	1	43	43	foodImage.1	FOODEEG_Images\0004.jpg	NY	Left	No	0.927400900000066	0	253340	252
496.865234375	0.927400900000066	decision	choicePhaseStart	1	43	43	foodImage.1	FOODEEG_Images\0004.jpg	NY	Left	No	0.927400900000066	0	254396	253
497.783203125	0	decision	response	1	43	43	foodImage.1	FOODEEG_Images\0004.jpg	NY	Left	No	0.927400900000066	0	254866	234
498.826171875	1	decision	trialStart	1	44	44	foodImage.68	FOODEEG_Images\0685.jpg	YN	Left	Yes	0.583010400005151	0	255400	251
499.8984375	2	decision	foodImageDisplay	1	44	44	foodImage.68	FOODEEG_Images\0685.jpg	YN	Left	Yes	0.583010400005151	0	255949	252
501.9609375	0.583010400005151	decision	choicePhaseStart	1	44	44	foodImage.68	FOODEEG_Images\0685.jpg	YN	Left	Yes	0.583010400005151	0	257005	253
502.53515625	0	decision	response	1	44	44	foodImage.68	FOODEEG_Images\0685.jpg	YN	Left	Yes	0.583010400005151	0	257299	234
503.583984375	1	taste	trialStart	1	45	45	foodImage.47	FOODEEG_Images\0488.jpg	YN	Left	Yes	0.548538600000029	0	257836	251
504.625	2	taste	foodImageDisplay	1	45	45	foodImage.47	FOODEEG_Images\0488.jpg	YN	Left	Yes	0.548538600000029	0	258369	252
506.69140625	0.548538600000029	taste	choicePhaseStart	1	45	45	foodImage.47	FOODEEG_Images\0488.jpg	YN	Left	Yes	0.548538600000029	0	259427	253
507.23046875	0	taste	response	1	45	45	foodImage.47	FOODEEG_Images\0488.jpg	YN	Left	Yes	0.548538600000029	0	259703	234
508.2734375	1	decision	trialStart	1	46	46	foodImage.65	FOODEEG_Images\0658.jpg	NY	Left	No	0.778132799998275	0	260237	251
509.33203125	2	decision	foodImageDisplay	1	46	46	foodImage.65	FOODEEG_Images\0658.jpg	NY	Left	No	0.778132799998275	0	260779	252
511.3984375	0.778132799998275	decision	choicePhaseStart	1	46	46	foodImage.65	FOODEEG_Images\0658.jpg	NY	Left	No	0.778132799998275	0	261837	253
512.166015625	0	decision	response	1	46	46	foodImage.65	FOODEEG_Images\0658.jpg	NY	Left	No	0.778132799998275	0	262230	234
513.20703125	1	taste	trialStart	1	47	47	foodImage.12	FOODEEG_Images\0181.jpg	NY	Left	No	3.91227320000326	0	262763	251
514.267578125	2	taste	foodImageDisplay	1	47	47	foodImage.12	FOODEEG_Images\0181.jpg	NY	Left	No	3.91227320000326	0	263306	252
516.3359375	3.91227320000326	taste	choicePhaseStart	1	47	47	foodImage.12	FOODEEG_Images\0181.jpg	NY	Left	No	3.91227320000326	0	264365	253
520.23828125	0	taste	response	1	47	47	foodImage.12	FOODEEG_Images\0181.jpg	NY	Left	No	3.91227320000326	0	266363	234
521.279296875	1	taste	trialStart	1	48	48	foodImage.60	FOODEEG_Images\0614.jpg	NY	Left	No	0.64648550000129	0	266896	251
522.3359375	2	taste	foodImageDisplay	1	48	48	foodImage.60	FOODEEG_Images\0614.jpg	NY	Left	No	0.64648550000129	0	267437	252
524.400390625	0.64648550000129	taste	choicePhaseStart	1	48	48	foodImage.60	FOODEEG_Images\0614.jpg	NY	Left	No	0.64648550000129	0	268494	253
525.0390625	0	taste	response	1	48	48	foodImage.60	FOODEEG_Images\0614.jpg	NY	Left	No	0.64648550000129	0	268821	234
526.0859375	1	taste	trialStart	1	49	49	foodImage.75	FOODEEG_Images\0763.jpg	YN	Left	Yes	1.55907459999435	0	269357	251
527.15234375	2	taste	foodImageDisplay	1	49	49	foodImage.75	FOODEEG_Images\0763.jpg	YN	Left	Yes	1.55907459999435	0	269903	252
529.216796875	1.55907459999435	taste	choicePhaseStart	1	49	49	foodImage.75	FOODEEG_Images\0763.jpg	YN	Left	Yes	1.55907459999435	0	270960	253
530.765625	0	taste	response	1	49	49	foodImage.75	FOODEEG_Images\0763.jpg	YN	Left	Yes	1.55907459999435	0	271753	234
531.80859375	1	health	trialStart	1	50	50	foodImage.31	FOODEEG_Images\0294.jpg	NY	Right	Yes	1.1649288999979	0	272287	251
532.8515625	2	health	foodImageDisplay	1	50	50	foodImage.31	FOODEEG_Images\0294.jpg	NY	Right	Yes	1.1649288999979	0	272821	252
534.9140625	1.1649288999979	health	choicePhaseStart	1	50	50	foodImage.31	FOODEEG_Images\0294.jpg	NY	Right	Yes	1.1649288999979	0	273877	253
536.0703125	0	health	response	1	50	50	foodImage.31	FOODEEG_Images\0294.jpg	NY	Right	Yes	1.1649288999979	0	274469	235
537.111328125	1	decision	trialStart	1	51	51	foodImage.111	FOODEEG_Images\0919.jpg	YN	Left	Yes	0.664490100003604	0	275002	251
538.166015625	2	decision	foodImageDisplay	1	51	51	foodImage.111	FOODEEG_Images\0919.jpg	YN	Left	Yes	0.664490100003604	0	275542	252
540.234375	0.664490100003604	decision	choicePhaseStart	1	51	51	foodImage.111	FOODEEG_Images\0919.jpg	YN	Left	Yes	0.664490100003604	0	276601	253
540.89453125	0	decision	response	1	51	51	foodImage.111	FOODEEG_Images\0919.jpg	YN	Left	Yes	0.664490100003604	0	276939	234
541.94140625	1	taste	trialStart	1	52	52	foodImage.76	FOODEEG_Images\0766.jpg	YN	Left	Yes	1.56030040000041	0	277475	251
542.984375	2	taste	foodImageDisplay	1	52	52	foodImage.76	FOODEEG_Images\0766.jpg	YN	Left	Yes	1.56030040000041	0	278009	252
545.046875	1.56030040000041	taste	choicePhaseStart	1	52	52	foodImage.76	FOODEEG_Images\0766.jpg	YN	Left	Yes	1.56030040000041	0	279065	253
546.59765625	0	taste	response	1	52	52	foodImage.76	FOODEEG_Images\0766.jpg	YN	Left	Yes	1.56030040000041	0	279859	234
547.638671875	1	health	trialStart	1	53	53	foodImage.104	FOODEEG_Images\0912.jpg	YN	Right	No	2.00613099999464	0	280392	251
548.689453125	2	health	foodImageDisplay	1	53	53	foodImage.104	FOODEEG_Images\0912.jpg	YN	Right	No	2.00613099999464	0	280930	252
550.7578125	2.00613099999464	health	choicePhaseStart	1	53	53	foodImage.104	FOODEEG_Images\0912.jpg	YN	Right	No	2.00613099999464	0	281989	253
552.7578125	0	health	response	1	53	53	foodImage.104	FOODEEG_Images\0912.jpg	YN	Right	No	2.00613099999464	0	283013	235
553.80859375	1	health	trialStart	1	54	54	foodImage.72	FOODEEG_Images\0714.jpg	NY	Left	No	1.39431619999959	0	283551	251
554.8515625	2	health	foodImageDisplay	1	54	54	foodImage.72	FOODEEG_Images\0714.jpg	NY	Left	No	1.39431619999959	0	284085	252
556.916015625	1.39431619999959	health	choicePhaseStart	1	54	54	foodImage.72	FOODEEG_Images\0714.jpg	NY	Left	No	1.39431619999959	0	285142	253
558.30078125	0	health	response	1	54	54	foodImage.72	FOODEEG_Images\0714.jpg	NY	Left	No	1.39431619999959	0	285851	234
559.345703125	1	taste	trialStart	1	55	55	foodImage.22	FOODEEG_Images\0236.jpg	NY	Left	No	0.671162200000254	0	286386	251
560.38671875	2	taste	foodImageDisplay	1	55	55	foodImage.22	FOODEEG_Images\0236.jpg	NY	Left	No	0.671162200000254	0	286919	252
562.453125	0.671162200000254	taste	choicePhaseStart	1	55	55	foodImage.22	FOODEEG_Images\0236.jpg	NY	Left	No	0.671162200000254	0	287977	253
563.1171875	0	taste	response	1	55	55	foodImage.22	FOODEEG_Images\0236.jpg	NY	Left	No	0.671162200000254	0	288317	234
564.16015625	1	decision	trialStart	1	56	56	foodImage.72	FOODEEG_Images\0714.jpg	YN	Left	Yes	0.688425899999856	0	288851	251
565.203125	2	decision	foodImageDisplay	1	56	56	foodImage.72	FOODEEG_Images\0714.jpg	YN	Left	Yes	0.688425899999856	0	289385	252
567.26953125	0.688425899999856	decision	choicePhaseStart	1	56	56	foodImage.72	FOODEEG_Images\0714.jpg	YN	Left	Yes	0.688425899999856	0	290443	253
567.94921875	0	decision	response	1	56	56	foodImage.72	FOODEEG_Images\0714.jpg	YN	Left	Yes	0.688425899999856	0	290791	234
568.9921875	1	health	trialStart	1	57	57	foodImage.91	FOODEEG_Images\0896.jpg	NY	Right	Yes	2.21006609999313	0	291325	251
570.07421875	2	health	foodImageDisplay	1	57	57	foodImage.91	FOODEEG_Images\0896.jpg	NY	Right	Yes	2.21006609999313	0	291879	252
572.138671875	2.21006609999313	health	choicePhaseStart	1	57	57	foodImage.91	FOODEEG_Images\0896.jpg	NY	Right	Yes	2.21006609999313	0	292936	253
574.33984375	0	health	response	1	57	57	foodImage.91	FOODEEG_Images\0896.jpg	NY	Right	Yes	2.21006609999313	0	294063	235
575.3828125	1	health	trialStart	1	58	58	foodImage.97	FOODEEG_Images\0905.jpg	YN	Right	No	0.899561500002164	0	294597	251
576.42578125	2	health	foodImageDisplay	1	58	58	foodImage.97	FOODEEG_Images\0905.jpg	YN	Right	No	0.899561500002164	0	295131	252
578.490234375	0.899561500002164	health	choicePhaseStart	1	58	58	foodImage.97	FOODEEG_Images\0905.jpg	YN	Right	No	0.899561500002164	0	296188	253
579.380859375	0	health	response	1	58	58	foodImage.97	FOODEEG_Images\0905.jpg	YN	Right	No	0.899561500002164	0	296644	235
580.423828125	1	decision	trialStart	1	59	59	foodImage.22	FOODEEG_Images\0236.jpg	NY	Left	No	0.846772900003998	0	297178	251
581.46484375	2	decision	foodImageDisplay	1	59	59	foodImage.22	FOODEEG_Images\0236.jpg	NY	Left	No	0.846772900003998	0	297711	252
583.533203125	0.846772900003998	decision	choicePhaseStart	1	59	59	foodImage.22	FOODEEG_Images\0236.jpg	NY	Left	No	0.846772900003998	0	298770	253
584.37109375	0	decision	response	1	59	59	foodImage.22	FOODEEG_Images\0236.jpg	NY	Left	No	0.846772900003998	0	299199	234
585.412109375	1	decision	trialStart	1	60	60	foodImage.67	FOODEEG_Images\0679.jpg	YN	Left	Yes	0.592199699996854	0	299732	251
586.470703125	2	decision	foodImageDisplay	1	60	60	foodImage.67	FOODEEG_Images\0679.jpg	YN	Left	Yes	0.592199699996854	0	300274	252
588.533203125	0.592199699996854	decision	choicePhaseStart	1	60	60	foodImage.67	FOODEEG_Images\0679.jpg	YN	Left	Yes	0.592199699996854	0	301330	253
589.115234375	0	decision	response	1	60	60	foodImage.67	FOODEEG_Images\0679.jpg	YN	Left	Yes	0.592199699996854	0	301628	234
591.15625	3.123046875	n/a	blockEnd	n/a	n/a	n/a	n/a	n/a	n/a	n/a	n/a	n/a	n/a	302673	254
594.279296875	2	n/a	blockStart	2	n/a	n/a	n/a	n/a	n/a	n/a	n/a	n/a	n/a	304272	250
596.3125	1	health	trialStart	2	61	1	foodImage.111	FOODEEG_Images\0919.jpg	YN	Right	No	3.84583830000338	0	305313	251
597.349609375	2	health	foodImageDisplay	2	61	1	foodImage.111	FOODEEG_Images\0919.jpg	YN	Right	No	3.84583830000338	0	305844	252
599.4140625	3.84583830000338	health	choicePhaseStart	2	61	1	foodImage.111	FOODEEG_Images\0919.jpg	YN	Right	No	3.84583830000338	0	306901	253
603.251953125	0	health	response	2	61	1	foodImage.111	FOODEEG_Images\0919.jpg	YN	Right	No	3.84583830000338	0	308866	235
604.294921875	1	health	trialStart	2	62	2	foodImage.22	FOODEEG_Images\0236.jpg	NY	Left	No	1.01381000000401	0	309400	251
605.3359375	2	health	foodImageDisplay	2	62	2	foodImage.22	FOODEEG_Images\0236.jpg	NY	Left	No	1.01381000000401	0	309933	252
607.404296875	1.01381000000401	health	choicePhaseStart	2	62	2	foodImage.22	FOODEEG_Images\0236.jpg	NY	Left	No	1.01381000000401	0	310992	253
608.412109375	0	health	response	2	62	2	foodImage.22	FOODEEG_Images\0236.jpg	NY	Left	No	1.01381000000401	0	311508	234
609.45703125	1	health	trialStart	2	63	3	foodImage.39	FOODEEG_Images\0367.jpg	YN	Right	No	3.35520850000466	0	312043	251
610.49609375	2	health	foodImageDisplay	2	63	3	foodImage.39	FOODEEG_Images\0367.jpg	YN	Right	No	3.35520850000466	0	312575	252
612.5703125	3.35520850000466	health	choicePhaseStart	2	63	3	foodImage.39	FOODEEG_Images\0367.jpg	YN	Right	No	3.35520850000466	0	313637	253
615.9140625	0	health	response	2	63	3	foodImage.39	FOODEEG_Images\0367.jpg	YN	Right	No	3.35520850000466	0	315349	235
616.958984375	1	taste	trialStart	2	64	4	foodImage.69	FOODEEG_Images\0693.jpg	YN	Left	Yes	1.06906729999901	0	315884	251
618	2	taste	foodImageDisplay	2	64	4	foodImage.69	FOODEEG_Images\0693.jpg	YN	Left	Yes	1.06906729999901	0	316417	252
620.0625	1.06906729999901	taste	choicePhaseStart	2	64	4	foodImage.69	FOODEEG_Images\0693.jpg	YN	Left	Yes	1.06906729999901	0	317473	253
621.123046875	0	taste	response	2	64	4	foodImage.69	FOODEEG_Images\0693.jpg	YN	Left	Yes	1.06906729999901	0	318016	234
622.166015625	1	decision	trialStart	2	65	5	foodImage.24	FOODEEG_Images\0250.jpg	YN	Left	Yes	0.73866960000305	0	318550	251
623.21875	2	decision	foodImageDisplay	2	65	5	foodImage.24	FOODEEG_Images\0250.jpg	YN	Left	Yes	0.73866960000305	0	319089	252
625.287109375	0.73866960000305	decision	choicePhaseStart	2	65	5	foodImage.24	FOODEEG_Images\0250.jpg	YN	Left	Yes	0.73866960000305	0	320148	253
626.017578125	0	decision	response	2	65	5	foodImage.24	FOODEEG_Images\0250.jpg	YN	Left	Yes	0.73866960000305	0	320522	234
627.0625	1	taste	trialStart	2	66	6	foodImage.38	FOODEEG_Images\0365.jpg	NY	Left	No	0.738298600001144	0	321057	251
628.1015625	2	taste	foodImageDisplay	2	66	6	foodImage.38	FOODEEG_Images\0365.jpg	NY	Left	No	0.738298600001144	0	321589	252
630.166015625	0.738298600001144	taste	choicePhaseStart	2	66	6	foodImage.38	FOODEEG_Images\0365.jpg	NY	Left	No	0.738298600001144	0	322646	253
630.8984375	0	taste	response	2	66	6	foodImage.38	FOODEEG_Images\0365.jpg	NY	Left	No	0.738298600001144	0	323021	234
631.947265625	1	taste	trialStart	2	67	7	foodImage.39	FOODEEG_Images\0367.jpg	NY	Left	No	0.646586400005617	0	323558	251
632.998046875	2	taste	foodImageDisplay	2	67	7	foodImage.39	FOODEEG_Images\0367.jpg	NY	Left	No	0.646586400005617	0	324096	252
635.06640625	0.646586400005617	taste	choicePhaseStart	2	67	7	foodImage.39	FOODEEG_Images\0367.jpg	NY	Left	No	0.646586400005617	0	325155	253
635.705078125	0	taste	response	2	67	7	foodImage.39	FOODEEG_Images\0367.jpg	NY	Left	No	0.646586400005617	0	325482	234
636.74609375	1	health	trialStart	2	68	8	foodImage.49	FOODEEG_Images\0515.jpg	NY	Right	Yes	1.78782770000544	0	326015	251
637.787109375	2	health	foodImageDisplay	2	68	8	foodImage.49	FOODEEG_Images\0515.jpg	NY	Right	Yes	1.78782770000544	0	326548	252
639.85546875	1.78782770000544	health	choicePhaseStart	2	68	8	foodImage.49	FOODEEG_Images\0515.jpg	NY	Right	Yes	1.78782770000544	0	327607	253
641.6328125	0	health	response	2	68	8	foodImage.49	FOODEEG_Images\0515.jpg	NY	Right	Yes	1.78782770000544	0	328517	235
642.67578125	1	taste	trialStart	2	69	9	foodImage.80	FOODEEG_Images\0796.jpg	YN	Left	Yes	0.812974799999211	0	329051	251
643.755859375	2	taste	foodImageDisplay	2	69	9	foodImage.80	FOODEEG_Images\0796.jpg	YN	Left	Yes	0.812974799999211	0	329604	252
645.822265625	0.812974799999211	taste	choicePhaseStart	2	69	9	foodImage.80	FOODEEG_Images\0796.jpg	YN	Left	Yes	0.812974799999211	0	330662	253
646.625	0	taste	response	2	69	9	foodImage.80	FOODEEG_Images\0796.jpg	YN	Left	Yes	0.812974799999211	0	331073	234
647.666015625	1	health	trialStart	2	70	10	foodImage.53	FOODEEG_Images\0547.jpg	YN	Right	No	1.2423570999963	0	331606	251
648.748046875	2	health	foodImageDisplay	2	70	10	foodImage.53	FOODEEG_Images\0547.jpg	YN	Right	No	1.2423570999963	0	332160	252
650.81640625	1.2423570999963	health	choicePhaseStart	2	70	10	foodImage.53	FOODEEG_Images\0547.jpg	YN	Right	No	1.2423570999963	0	333219	253
652.048828125	0	health	response	2	70	10	foodImage.53	FOODEEG_Images\0547.jpg	YN	Right	No	1.2423570999963	0	333850	235
653.091796875	1	decision	trialStart	2	71	11	foodImage.42	FOODEEG_Images\0438.jpg	NY	Left	No	1.28029299999616	0	334384	251
654.203125	2	decision	foodImageDisplay	2	71	11	foodImage.42	FOODEEG_Images\0438.jpg	NY	Left	No	1.28029299999616	0	334953	252
656.265625	1.28029299999616	decision	choicePhaseStart	2	71	11	foodImage.42	FOODEEG_Images\0438.jpg	NY	Left	No	1.28029299999616	0	336009	253
657.537109375	0	decision	response	2	71	11	foodImage.42	FOODEEG_Images\0438.jpg	NY	Left	No	1.28029299999616	0	336660	234
658.580078125	1	decision	trialStart	2	72	12	foodImage.40	FOODEEG_Images\0373.jpg	YN	Left	Yes	0.698881099997379	0	337194	251
659.6328125	2	decision	foodImageDisplay	2	72	12	foodImage.40	FOODEEG_Images\0373.jpg	YN	Left	Yes	0.698881099997379	0	337733	252
661.701171875	0.698881099997379	decision	choicePhaseStart	2	72	12	foodImage.40	FOODEEG_Images\0373.jpg	YN	Left	Yes	0.698881099997379	0	338792	253
662.392578125	0	decision	response	2	72	12	foodImage.40	FOODEEG_Images\0373.jpg	YN	Left	Yes	0.698881099997379	0	339146	234
663.435546875	1	decision	trialStart	2	73	13	foodImage.86	FOODEEG_Images\0844.jpg	NY	Left	No	1.4878905000005	0	339680	251
664.505859375	2	decision	foodImageDisplay	2	73	13	foodImage.86	FOODEEG_Images\0844.jpg	NY	Left	No	1.4878905000005	0	340228	252
666.5703125	1.4878905000005	decision	choicePhaseStart	2	73	13	foodImage.86	FOODEEG_Images\0844.jpg	NY	Left	No	1.4878905000005	0	341285	253
668.048828125	0	decision	response	2	73	13	foodImage.86	FOODEEG_Images\0844.jpg	NY	Left	No	1.4878905000005	0	342042	234
669.09375	1	health	trialStart	2	74	14	foodImage.107	FOODEEG_Images\0915.jpg	YN	Left	Yes	1.50857030000043	0	342577	251
670.1484375	2	health	foodImageDisplay	2	74	14	foodImage.107	FOODEEG_Images\0915.jpg	YN	Left	Yes	1.50857030000043	0	343117	252
672.21875	1.50857030000043	health	choicePhaseStart	2	74	14	foodImage.107	FOODEEG_Images\0915.jpg	YN	Left	Yes	1.50857030000043	0	344177	253
673.720703125	0	health	response	2	74	14	foodImage.107	FOODEEG_Images\0915.jpg	YN	Left	Yes	1.50857030000043	0	344946	234
674.763671875	1	health	trialStart	2	75	15	foodImage.92	FOODEEG_Images\0900.jpg	YN	Right	No	0.804549599997699	0	345480	251
675.802734375	2	health	foodImageDisplay	2	75	15	foodImage.92	FOODEEG_Images\0900.jpg	YN	Right	No	0.804549599997699	0	346012	252
677.8671875	0.804549599997699	health	choicePhaseStart	2	75	15	foodImage.92	FOODEEG_Images\0900.jpg	YN	Right	No	0.804549599997699	0	347069	253
678.6640625	0	health	response	2	75	15	foodImage.92	FOODEEG_Images\0900.jpg	YN	Right	No	0.804549599997699	0	347477	235
679.703125	1	taste	trialStart	2	76	16	foodImage.19	FOODEEG_Images\0225.jpg	NY	Left	No	1.49842479999643	0	348009	251
680.759765625	2	taste	foodImageDisplay	2	76	16	foodImage.19	FOODEEG_Images\0225.jpg	NY	Left	No	1.49842479999643	0	348550	252
682.822265625	1.49842479999643	taste	choicePhaseStart	2	76	16	foodImage.19	FOODEEG_Images\0225.jpg	NY	Left	No	1.49842479999643	0	349606	253
684.3125	0	taste	response	2	76	16	foodImage.19	FOODEEG_Images\0225.jpg	NY	Left	No	1.49842479999643	0	350369	234
685.35546875	1	taste	trialStart	2	77	17	foodImage.23	FOODEEG_Images\0244.jpg	NY	Left	No	4.89124830000219	0	350903	251
686.4140625	2	taste	foodImageDisplay	2	77	17	foodImage.23	FOODEEG_Images\0244.jpg	NY	Left	No	4.89124830000219	0	351445	252
688.478515625	4.89124830000219	taste	choicePhaseStart	2	77	17	foodImage.23	FOODEEG_Images\0244.jpg	NY	Left	No	4.89124830000219	0	352502	253
693.359375	0	taste	response	2	77	17	foodImage.23	FOODEEG_Images\0244.jpg	NY	Left	No	4.89124830000219	0	355001	234
694.40625	1	decision	trialStart	2	78	18	foodImage.21	FOODEEG_Images\0234.jpg	NY	Left	No	0.80039439999382	0	355537	251
695.48046875	2	decision	foodImageDisplay	2	78	18	foodImage.21	FOODEEG_Images\0234.jpg	NY	Left	No	0.80039439999382	0	356087	252
697.55078125	0.80039439999382	decision	choicePhaseStart	2	78	18	foodImage.21	FOODEEG_Images\0234.jpg	NY	Left	No	0.80039439999382	0	357147	253
698.34375	0	decision	response	2	78	18	foodImage.21	FOODEEG_Images\0234.jpg	NY	Left	No	0.80039439999382	0	357553	234
699.38671875	1	health	trialStart	2	79	19	foodImage.80	FOODEEG_Images\0796.jpg	YN	Left	Yes	0.690282600000501	0	358087	251
700.46875	2	health	foodImageDisplay	2	79	19	foodImage.80	FOODEEG_Images\0796.jpg	YN	Left	Yes	0.690282600000501	0	358641	252
702.53125	0.690282600000501	health	choicePhaseStart	2	79	19	foodImage.80	FOODEEG_Images\0796.jpg	YN	Left	Yes	0.690282600000501	0	359697	253
703.21484375	0	health	response	2	79	19	foodImage.80	FOODEEG_Images\0796.jpg	YN	Left	Yes	0.690282600000501	0	360047	234
704.2578125	1	health	trialStart	2	80	20	foodImage.114	FOODEEG_Images\0922.jpg	NY	Right	Yes	1.07433059999312	0	360581	251
705.310546875	2	health	foodImageDisplay	2	80	20	foodImage.114	FOODEEG_Images\0922.jpg	NY	Right	Yes	1.07433059999312	0	361120	252
707.375	1.07433059999312	health	choicePhaseStart	2	80	20	foodImage.114	FOODEEG_Images\0922.jpg	NY	Right	Yes	1.07433059999312	0	362177	253
708.439453125	0	health	response	2	80	20	foodImage.114	FOODEEG_Images\0922.jpg	NY	Right	Yes	1.07433059999312	0	362722	235
709.482421875	1	health	trialStart	2	81	21	foodImage.2	FOODEEG_Images\0028.jpg	NY	Left	No	1.27122799999779	0	363256	251
710.546875	2	health	foodImageDisplay	2	81	21	foodImage.2	FOODEEG_Images\0028.jpg	NY	Left	No	1.27122799999779	0	363801	252
712.615234375	1.27122799999779	health	choicePhaseStart	2	81	21	foodImage.2	FOODEEG_Images\0028.jpg	NY	Left	No	1.27122799999779	0	364860	253
713.87890625	0	health	response	2	81	21	foodImage.2	FOODEEG_Images\0028.jpg	NY	Left	No	1.27122799999779	0	365507	234
714.921875	1	decision	trialStart	2	82	22	foodImage.85	FOODEEG_Images\0841.jpg	YN	Left	Yes	0.683686700001999	0	366041	251
715.982421875	2	decision	foodImageDisplay	2	82	22	foodImage.85	FOODEEG_Images\0841.jpg	YN	Left	Yes	0.683686700001999	0	366584	252
718.05078125	0.683686700001999	decision	choicePhaseStart	2	82	22	foodImage.85	FOODEEG_Images\0841.jpg	YN	Left	Yes	0.683686700001999	0	367643	253
718.7265625	0	decision	response	2	82	22	foodImage.85	FOODEEG_Images\0841.jpg	YN	Left	Yes	0.683686700001999	0	367989	234
719.76953125	1	decision	trialStart	2	83	23	foodImage.37	FOODEEG_Images\0359.jpg	YN	Left	Yes	0.614115399999719	0	368523	251
720.810546875	2	decision	foodImageDisplay	2	83	23	foodImage.37	FOODEEG_Images\0359.jpg	YN	Left	Yes	0.614115399999719	0	369056	252
722.873046875	0.614115399999719	decision	choicePhaseStart	2	83	23	foodImage.37	FOODEEG_Images\0359.jpg	YN	Left	Yes	0.614115399999719	0	370112	253
723.478515625	0	decision	response	2	83	23	foodImage.37	FOODEEG_Images\0359.jpg	YN	Left	Yes	0.614115399999719	0	370422	234
724.51953125	1	health	trialStart	2	84	24	foodImage.79	FOODEEG_Images\0794.jpg	YN	Left	Yes	0.565893700004381	0	370955	251
725.5859375	2	health	foodImageDisplay	2	84	24	foodImage.79	FOODEEG_Images\0794.jpg	YN	Left	Yes	0.565893700004381	0	371501	252
727.650390625	0.565893700004381	health	choicePhaseStart	2	84	24	foodImage.79	FOODEEG_Images\0794.jpg	YN	Left	Yes	0.565893700004381	0	372558	253
728.20703125	0	health	response	2	84	24	foodImage.79	FOODEEG_Images\0794.jpg	YN	Left	Yes	0.565893700004381	0	372843	234
729.25	1	decision	trialStart	2	85	25	foodImage.96	FOODEEG_Images\0904.jpg	YN	Left	Yes	1.11845709999761	0	373377	251
730.302734375	2	decision	foodImageDisplay	2	85	25	foodImage.96	FOODEEG_Images\0904.jpg	YN	Left	Yes	1.11845709999761	0	373916	252
732.369140625	1.11845709999761	decision	choicePhaseStart	2	85	25	foodImage.96	FOODEEG_Images\0904.jpg	YN	Left	Yes	1.11845709999761	0	374974	253
733.478515625	0	decision	response	2	85	25	foodImage.96	FOODEEG_Images\0904.jpg	YN	Left	Yes	1.11845709999761	0	375542	234
734.51953125	1	taste	trialStart	2	86	26	foodImage.16	FOODEEG_Images\0196.jpg	NY	Left	No	0.788649900001474	0	376075	251
735.57421875	2	taste	foodImageDisplay	2	86	26	foodImage.16	FOODEEG_Images\0196.jpg	NY	Left	No	0.788649900001474	0	376615	252
737.640625	0.788649900001474	taste	choicePhaseStart	2	86	26	foodImage.16	FOODEEG_Images\0196.jpg	NY	Left	No	0.788649900001474	0	377673	253
738.421875	0	taste	response	2	86	26	foodImage.16	FOODEEG_Images\0196.jpg	NY	Left	No	0.788649900001474	0	378073	234
739.48046875	1	decision	trialStart	2	87	27	foodImage.36	FOODEEG_Images\0352.jpg	NY	Left	No	1.26149479999731	0	378615	251
740.537109375	2	decision	foodImageDisplay	2	87	27	foodImage.36	FOODEEG_Images\0352.jpg	NY	Left	No	1.26149479999731	0	379156	252
742.6015625	1.26149479999731	decision	choicePhaseStart	2	87	27	foodImage.36	FOODEEG_Images\0352.jpg	NY	Left	No	1.26149479999731	0	380213	253
743.853515625	0	decision	response	2	87	27	foodImage.36	FOODEEG_Images\0352.jpg	NY	Left	No	1.26149479999731	0	380854	234
744.896484375	1	health	trialStart	2	88	28	foodImage.101	FOODEEG_Images\0909.jpg	NY	Right	Yes	1.01593150000554	0	381388	251
745.935546875	2	health	foodImageDisplay	2	88	28	foodImage.101	FOODEEG_Images\0909.jpg	NY	Right	Yes	1.01593150000554	0	381920	252
748.00390625	1.01593150000554	health	choicePhaseStart	2	88	28	foodImage.101	FOODEEG_Images\0909.jpg	NY	Right	Yes	1.01593150000554	0	382979	253
749.013671875	0	health	response	2	88	28	foodImage.101	FOODEEG_Images\0909.jpg	NY	Right	Yes	1.01593150000554	0	383496	235
750.060546875	1	taste	trialStart	2	89	29	foodImage.33	FOODEEG_Images\0329.jpg	NY	Left	No	1.04217849999986	0	384032	251
751.109375	2	taste	foodImageDisplay	2	89	29	foodImage.33	FOODEEG_Images\0329.jpg	NY	Left	No	1.04217849999986	0	384569	252
753.171875	1.04217849999986	taste	choicePhaseStart	2	89	29	foodImage.33	FOODEEG_Images\0329.jpg	NY	Left	No	1.04217849999986	0	385625	253
754.205078125	0	taste	response	2	89	29	foodImage.33	FOODEEG_Images\0329.jpg	NY	Left	No	1.04217849999986	0	386154	234
755.25390625	1	decision	trialStart	2	90	30	foodImage.34	FOODEEG_Images\0339.jpg	YN	Left	Yes	0.875625499997113	0	386691	251
756.30859375	2	decision	foodImageDisplay	2	90	30	foodImage.34	FOODEEG_Images\0339.jpg	YN	Left	Yes	0.875625499997113	0	387231	252
758.37109375	0.875625499997113	decision	choicePhaseStart	2	90	30	foodImage.34	FOODEEG_Images\0339.jpg	YN	Left	Yes	0.875625499997113	0	388287	253
759.236328125	0	decision	response	2	90	30	foodImage.34	FOODEEG_Images\0339.jpg	YN	Left	Yes	0.875625499997113	0	388730	234
760.27734375	1	taste	trialStart	2	91	31	foodImage.73	FOODEEG_Images\0717.jpg	NY	Left	No	0.69165939999948	0	389263	251
761.3359375	2	taste	foodImageDisplay	2	91	31	foodImage.73	FOODEEG_Images\0717.jpg	NY	Left	No	0.69165939999948	0	389805	252
763.40234375	0.69165939999948	taste	choicePhaseStart	2	91	31	foodImage.73	FOODEEG_Images\0717.jpg	NY	Left	No	0.69165939999948	0	390863	253
764.0859375	0	taste	response	2	91	31	foodImage.73	FOODEEG_Images\0717.jpg	NY	Left	No	0.69165939999948	0	391213	234
765.126953125	1	health	trialStart	2	92	32	foodImage.15	FOODEEG_Images\0189.jpg	YN	Left	Yes	0.518283400000655	0	391746	251
766.185546875	2	health	foodImageDisplay	2	92	32	foodImage.15	FOODEEG_Images\0189.jpg	YN	Left	Yes	0.518283400000655	0	392288	252
768.25390625	0.518283400000655	health	choicePhaseStart	2	92	32	foodImage.15	FOODEEG_Images\0189.jpg	YN	Left	Yes	0.518283400000655	0	393347	253
768.763671875	0	health	response	2	92	32	foodImage.15	FOODEEG_Images\0189.jpg	YN	Left	Yes	0.518283400000655	0	393608	234
769.8125	1	health	trialStart	2	93	33	foodImage.55	FOODEEG_Images\0567.jpg	NY	Left	No	0.678532199999609	0	394145	251
770.87109375	2	health	foodImageDisplay	2	93	33	foodImage.55	FOODEEG_Images\0567.jpg	NY	Left	No	0.678532199999609	0	394687	252
772.94140625	0.678532199999609	health	choicePhaseStart	2	93	33	foodImage.55	FOODEEG_Images\0567.jpg	NY	Left	No	0.678532199999609	0	395747	253
773.61328125	0	health	response	2	93	33	foodImage.55	FOODEEG_Images\0567.jpg	NY	Left	No	0.678532199999609	0	396091	234
774.66015625	1	health	trialStart	2	94	34	foodImage.48	FOODEEG_Images\0494.jpg	NY	Right	Yes	1.5088465000008	0	396627	251
775.71875	2	health	foodImageDisplay	2	94	34	foodImage.48	FOODEEG_Images\0494.jpg	NY	Right	Yes	1.5088465000008	0	397169	252
777.783203125	1.5088465000008	health	choicePhaseStart	2	94	34	foodImage.48	FOODEEG_Images\0494.jpg	NY	Right	Yes	1.5088465000008	0	398226	253
779.28515625	0	health	response	2	94	34	foodImage.48	FOODEEG_Images\0494.jpg	NY	Right	Yes	1.5088465000008	0	398995	235
780.32421875	1	taste	trialStart	2	95	35	foodImage.68	FOODEEG_Images\0685.jpg	NY	Left	No	1.24670909999986	0	399527	251
781.416015625	2	taste	foodImageDisplay	2	95	35	foodImage.68	FOODEEG_Images\0685.jpg	NY	Left	No	1.24670909999986	0	400086	252
783.478515625	1.24670909999986	taste	choicePhaseStart	2	95	35	foodImage.68	FOODEEG_Images\0685.jpg	NY	Left	No	1.24670909999986	0	401142	253
784.716796875	0	taste	response	2	95	35	foodImage.68	FOODEEG_Images\0685.jpg	NY	Left	No	1.24670909999986	0	401776	234
785.7578125	1	health	trialStart	2	96	36	foodImage.43	FOODEEG_Images\0445.jpg	YN	Left	Yes	1.41606230000616	0	402309	251
786.814453125	2	health	foodImageDisplay	2	96	36	foodImage.43	FOODEEG_Images\0445.jpg	YN	Left	Yes	1.41606230000616	0	402850	252
788.880859375	1.41606230000616	health	choicePhaseStart	2	96	36	foodImage.43	FOODEEG_Images\0445.jpg	YN	Left	Yes	1.41606230000616	0	403908	253
790.29296875	0	health	response	2	96	36	foodImage.43	FOODEEG_Images\0445.jpg	YN	Left	Yes	1.41606230000616	0	404631	234
791.333984375	1	decision	trialStart	2	97	37	foodImage.16	FOODEEG_Images\0196.jpg	YN	Left	Yes	0.623092600006203	0	405164	251
792.41796875	2	decision	foodImageDisplay	2	97	37	foodImage.16	FOODEEG_Images\0196.jpg	YN	Left	Yes	0.623092600006203	0	405719	252
794.482421875	0.623092600006203	decision	choicePhaseStart	2	97	37	foodImage.16	FOODEEG_Images\0196.jpg	YN	Left	Yes	0.623092600006203	0	406776	253
795.099609375	0	decision	response	2	97	37	foodImage.16	FOODEEG_Images\0196.jpg	YN	Left	Yes	0.623092600006203	0	407092	234
796.1484375	1	health	trialStart	2	98	38	foodImage.70	FOODEEG_Images\0705.jpg	YN	Right	No	1.3329956000016	0	407629	251
797.234375	2	health	foodImageDisplay	2	98	38	foodImage.70	FOODEEG_Images\0705.jpg	YN	Right	No	1.3329956000016	0	408185	252
799.302734375	1.3329956000016	health	choicePhaseStart	2	98	38	foodImage.70	FOODEEG_Images\0705.jpg	YN	Right	No	1.3329956000016	0	409244	253
800.626953125	0	health	response	2	98	38	foodImage.70	FOODEEG_Images\0705.jpg	YN	Right	No	1.3329956000016	0	409922	235
801.67578125	1	health	trialStart	2	99	39	foodImage.69	FOODEEG_Images\0693.jpg	NY	Left	No	1.5104238999993	0	410459	251
802.716796875	2	health	foodImageDisplay	2	99	39	foodImage.69	FOODEEG_Images\0693.jpg	NY	Left	No	1.5104238999993	0	410992	252
804.78125	1.5104238999993	health	choicePhaseStart	2	99	39	foodImage.69	FOODEEG_Images\0693.jpg	NY	Left	No	1.5104238999993	0	412049	253
806.283203125	0	health	response	2	99	39	foodImage.69	FOODEEG_Images\0693.jpg	NY	Left	No	1.5104238999993	0	412818	234
807.326171875	1	taste	trialStart	2	100	40	foodImage.5	FOODEEG_Images\0107.jpg	YN	Left	Yes	0.584555200002796	0	413352	251
808.39453125	2	taste	foodImageDisplay	2	100	40	foodImage.5	FOODEEG_Images\0107.jpg	YN	Left	Yes	0.584555200002796	0	413899	252
810.45703125	0.584555200002796	taste	choicePhaseStart	2	100	40	foodImage.5	FOODEEG_Images\0107.jpg	YN	Left	Yes	0.584555200002796	0	414955	253
811.03515625	0	taste	response	2	100	40	foodImage.5	FOODEEG_Images\0107.jpg	YN	Left	Yes	0.584555200002796	0	415251	234
812.078125	1	taste	trialStart	2	101	41	foodImage.17	FOODEEG_Images\0199.jpg	NY	Left	No	0.663684699997248	0	415785	251
813.123046875	2	taste	foodImageDisplay	2	101	41	foodImage.17	FOODEEG_Images\0199.jpg	NY	Left	No	0.663684699997248	0	416320	252
815.1875	0.663684699997248	taste	choicePhaseStart	2	101	41	foodImage.17	FOODEEG_Images\0199.jpg	NY	Left	No	0.663684699997248	0	417377	253
815.84375	0	taste	response	2	101	41	foodImage.17	FOODEEG_Images\0199.jpg	NY	Left	No	0.663684699997248	0	417713	234
816.8828125	1	health	trialStart	2	102	42	foodImage.96	FOODEEG_Images\0904.jpg	YN	Right	No	1.87629269999888	0	418245	251
817.9375	2	health	foodImageDisplay	2	102	42	foodImage.96	FOODEEG_Images\0904.jpg	YN	Right	No	1.87629269999888	0	418785	252
820.005859375	1.87629269999888	health	choicePhaseStart	2	102	42	foodImage.96	FOODEEG_Images\0904.jpg	YN	Right	No	1.87629269999888	0	419844	253
821.875	0	health	response	2	102	42	foodImage.96	FOODEEG_Images\0904.jpg	YN	Right	No	1.87629269999888	0	420801	235
822.921875	1	taste	trialStart	2	103	43	foodImage.105	FOODEEG_Images\0913.jpg	NY	Left	No	0.723359999996319	0	421337	251
823.9609375	2	taste	foodImageDisplay	2	103	43	foodImage.105	FOODEEG_Images\0913.jpg	NY	Left	No	0.723359999996319	0	421869	252
826.029296875	0.723359999996319	taste	choicePhaseStart	2	103	43	foodImage.105	FOODEEG_Images\0913.jpg	NY	Left	No	0.723359999996319	0	422928	253
826.74609375	0	taste	response	2	103	43	foodImage.105	FOODEEG_Images\0913.jpg	NY	Left	No	0.723359999996319	0	423295	234
827.794921875	1	health	trialStart	2	104	44	foodImage.33	FOODEEG_Images\0329.jpg	NY	Left	No	1.24034070000198	0	423832	251
828.8359375	2	health	foodImageDisplay	2	104	44	foodImage.33	FOODEEG_Images\0329.jpg	NY	Left	No	1.24034070000198	0	424365	252
830.8984375	1.24034070000198	health	choicePhaseStart	2	104	44	foodImage.33	FOODEEG_Images\0329.jpg	NY	Left	No	1.24034070000198	0	425421	253
832.130859375	0	health	response	2	104	44	foodImage.33	FOODEEG_Images\0329.jpg	NY	Left	No	1.24034070000198	0	426052	234
833.171875	1	n/a	trialStart	2	105	45	n/a	n/a	n/a	n/a	n/a	5.29668549999769	1	426585	251
834.2109375	88.689453125	taste	blockEnd	2	105	45	foodImage.115	FOODEEG_Images\0923.jpg	YN	Right	No	5.29668549999769	1	427117	254
834.212890625	2	taste	foodImageDisplay	2	105	45	foodImage.115	FOODEEG_Images\0923.jpg	YN	Right	No	5.29668549999769	1	427118	252
836.28125	5.29668549999769	taste	choicePhaseStart	2	105	45	foodImage.115	FOODEEG_Images\0923.jpg	YN	Right	No	5.29668549999769	1	428177	253
841.5703125	0	taste	response	2	105	45	foodImage.115	FOODEEG_Images\0923.jpg	YN	Right	No	5.29668549999769	1	430885	235
842.61328125	1	health	trialStart	2	106	46	foodImage.85	FOODEEG_Images\0841.jpg	YN	Right	No	1.75019479999901	0	431419	251
843.669921875	2	health	foodImageDisplay	2	106	46	foodImage.85	FOODEEG_Images\0841.jpg	YN	Right	No	1.75019479999901	0	431960	252
845.73828125	1.75019479999901	health	choicePhaseStart	2	106	46	foodImage.85	FOODEEG_Images\0841.jpg	YN	Right	No	1.75019479999901	0	433019	253
847.48046875	0	health	response	2	106	46	foodImage.85	FOODEEG_Images\0841.jpg	YN	Right	No	1.75019479999901	0	433911	235
848.52734375	1	health	trialStart	2	107	47	foodImage.50	FOODEEG_Images\0529.jpg	NY	Left	No	0.660084099996311	0	434447	251
849.58203125	2	health	foodImageDisplay	2	107	47	foodImage.50	FOODEEG_Images\0529.jpg	NY	Left	No	0.660084099996311	0	434987	252
851.646484375	0.660084099996311	health	choicePhaseStart	2	107	47	foodImage.50	FOODEEG_Images\0529.jpg	NY	Left	No	0.660084099996311	0	436044	253
852.296875	0	health	response	2	107	47	foodImage.50	FOODEEG_Images\0529.jpg	NY	Left	No	0.660084099996311	0	436377	234
853.341796875	1	health	trialStart	2	108	48	foodImage.51	FOODEEG_Images\0536.jpg	NY	Right	Yes	1.07983460000105	0	436912	251
854.388671875	2	health	foodImageDisplay	2	108	48	foodImage.51	FOODEEG_Images\0536.jpg	NY	Right	Yes	1.07983460000105	0	437448	252
856.45703125	1.07983460000105	health	choicePhaseStart	2	108	48	foodImage.51	FOODEEG_Images\0536.jpg	NY	Right	Yes	1.07983460000105	0	438507	253
857.529296875	0	health	response	2	108	48	foodImage.51	FOODEEG_Images\0536.jpg	NY	Right	Yes	1.07983460000105	0	439056	235
858.572265625	1	decision	trialStart	2	109	49	foodImage.75	FOODEEG_Images\0763.jpg	NY	Left	No	1.14562000000296	0	439590	251
859.6171875	2	decision	foodImageDisplay	2	109	49	foodImage.75	FOODEEG_Images\0763.jpg	NY	Left	No	1.14562000000296	0	440125	252
861.685546875	1.14562000000296	decision	choicePhaseStart	2	109	49	foodImage.75	FOODEEG_Images\0763.jpg	NY	Left	No	1.14562000000296	0	441184	253
862.82421875	0	decision	response	2	109	49	foodImage.75	FOODEEG_Images\0763.jpg	NY	Left	No	1.14562000000296	0	441767	234
863.8671875	1	taste	trialStart	2	110	50	foodImage.108	FOODEEG_Images\0916.jpg	NY	Right	Yes	0.89642620000086	0	442301	251
864.921875	2	taste	foodImageDisplay	2	110	50	foodImage.108	FOODEEG_Images\0916.jpg	NY	Right	Yes	0.89642620000086	0	442841	252
866.990234375	0.89642620000086	taste	choicePhaseStart	2	110	50	foodImage.108	FOODEEG_Images\0916.jpg	NY	Right	Yes	0.89642620000086	0	443900	253
867.880859375	0	taste	response	2	110	50	foodImage.108	FOODEEG_Images\0916.jpg	NY	Right	Yes	0.89642620000086	0	444356	235
868.931640625	1	decision	trialStart	2	111	51	foodImage.117	FOODEEG_Images\0925.jpg	YN	Left	Yes	0.736011900000449	0	444894	251
869.978515625	2	decision	foodImageDisplay	2	111	51	foodImage.117	FOODEEG_Images\0925.jpg	YN	Left	Yes	0.736011900000449	0	445430	252
872.04296875	0.736011900000449	decision	choicePhaseStart	2	111	51	foodImage.117	FOODEEG_Images\0925.jpg	YN	Left	Yes	0.736011900000449	0	446487	253
872.76953125	0	decision	response	2	111	51	foodImage.117	FOODEEG_Images\0925.jpg	YN	Left	Yes	0.736011900000449	0	446859	234
873.814453125	1	health	trialStart	2	112	52	foodImage.19	FOODEEG_Images\0225.jpg	YN	Left	Yes	0.573147199997038	0	447394	251
874.87890625	2	health	foodImageDisplay	2	112	52	foodImage.19	FOODEEG_Images\0225.jpg	YN	Left	Yes	0.573147199997038	0	447939	252
876.947265625	0.573147199997038	health	choicePhaseStart	2	112	52	foodImage.19	FOODEEG_Images\0225.jpg	YN	Left	Yes	0.573147199997038	0	448998	253
877.51171875	0	health	response	2	112	52	foodImage.19	FOODEEG_Images\0225.jpg	YN	Left	Yes	0.573147199997038	0	449287	234
878.556640625	1	decision	trialStart	2	113	53	foodImage.7	FOODEEG_Images\0116.jpg	NY	Left	No	0.648655800003326	0	449822	251
879.609375	2	decision	foodImageDisplay	2	113	53	foodImage.7	FOODEEG_Images\0116.jpg	NY	Left	No	0.648655800003326	0	450361	252
881.677734375	0.648655800003326	decision	choicePhaseStart	2	113	53	foodImage.7	FOODEEG_Images\0116.jpg	NY	Left	No	0.648655800003326	0	451420	253
882.3203125	0	decision	response	2	113	53	foodImage.7	FOODEEG_Images\0116.jpg	NY	Left	No	0.648655800003326	0	451749	234
883.361328125	1	taste	trialStart	2	114	54	foodImage.37	FOODEEG_Images\0359.jpg	NY	Left	No	0.982510500005446	0	452282	251
884.40234375	2	taste	foodImageDisplay	2	114	54	foodImage.37	FOODEEG_Images\0359.jpg	NY	Left	No	0.982510500005446	0	452815	252
886.466796875	0.982510500005446	taste	choicePhaseStart	2	114	54	foodImage.37	FOODEEG_Images\0359.jpg	NY	Left	No	0.982510500005446	0	453872	253
887.439453125	0	taste	response	2	114	54	foodImage.37	FOODEEG_Images\0359.jpg	NY	Left	No	0.982510500005446	0	454370	234
888.48046875	1	taste	trialStart	2	115	55	foodImage.50	FOODEEG_Images\0529.jpg	YN	Left	Yes	0.660499799996614	0	454903	251
889.564453125	2	taste	foodImageDisplay	2	115	55	foodImage.50	FOODEEG_Images\0529.jpg	YN	Left	Yes	0.660499799996614	0	455458	252
891.62890625	0.660499799996614	taste	choicePhaseStart	2	115	55	foodImage.50	FOODEEG_Images\0529.jpg	YN	Left	Yes	0.660499799996614	0	456515	253
892.279296875	0	taste	response	2	115	55	foodImage.50	FOODEEG_Images\0529.jpg	YN	Left	Yes	0.660499799996614	0	456848	234
893.32421875	1	health	trialStart	2	116	56	foodImage.13	FOODEEG_Images\0183.jpg	YN	Left	Yes	0.881900599997607	0	457383	251
894.369140625	2	health	foodImageDisplay	2	116	56	foodImage.13	FOODEEG_Images\0183.jpg	YN	Left	Yes	0.881900599997607	0	457918	252
896.4375	0.881900599997607	health	choicePhaseStart	2	116	56	foodImage.13	FOODEEG_Images\0183.jpg	YN	Left	Yes	0.881900599997607	0	458977	253
897.3125	0	health	response	2	116	56	foodImage.13	FOODEEG_Images\0183.jpg	YN	Left	Yes	0.881900599997607	0	459425	234
898.3515625	1	health	trialStart	2	117	57	foodImage.38	FOODEEG_Images\0365.jpg	NY	Left	No	0.844216400000732	0	459957	251
899.40234375	2	health	foodImageDisplay	2	117	57	foodImage.38	FOODEEG_Images\0365.jpg	NY	Left	No	0.844216400000732	0	460495	252
901.46484375	0.844216400000732	health	choicePhaseStart	2	117	57	foodImage.38	FOODEEG_Images\0365.jpg	NY	Left	No	0.844216400000732	0	461551	253
902.302734375	0	health	response	2	117	57	foodImage.38	FOODEEG_Images\0365.jpg	NY	Left	No	0.844216400000732	0	461980	234
903.345703125	1	decision	trialStart	2	118	58	foodImage.69	FOODEEG_Images\0693.jpg	NY	Left	No	1.12315549999767	0	462514	251
904.40625	2	decision	foodImageDisplay	2	118	58	foodImage.69	FOODEEG_Images\0693.jpg	NY	Left	No	1.12315549999767	0	463057	252
906.474609375	1.12315549999767	decision	choicePhaseStart	2	118	58	foodImage.69	FOODEEG_Images\0693.jpg	NY	Left	No	1.12315549999767	0	464116	253
907.591796875	0	decision	response	2	118	58	foodImage.69	FOODEEG_Images\0693.jpg	NY	Left	No	1.12315549999767	0	464688	234
908.63671875	1	decision	trialStart	2	119	59	foodImage.95	FOODEEG_Images\0903.jpg	NY	Right	Yes	1.53368010000122	0	465223	251
909.67578125	2	decision	foodImageDisplay	2	119	59	foodImage.95	FOODEEG_Images\0903.jpg	NY	Right	Yes	1.53368010000122	0	465755	252
911.744140625	1.53368010000122	decision	choicePhaseStart	2	119	59	foodImage.95	FOODEEG_Images\0903.jpg	NY	Right	Yes	1.53368010000122	0	466814	253
913.271484375	0	decision	response	2	119	59	foodImage.95	FOODEEG_Images\0903.jpg	NY	Right	Yes	1.53368010000122	0	467596	235
914.310546875	1	taste	trialStart	2	120	60	foodImage.48	FOODEEG_Images\0494.jpg	YN	Left	Yes	1.34158480000042	0	468128	251
915.353515625	2	taste	foodImageDisplay	2	120	60	foodImage.48	FOODEEG_Images\0494.jpg	YN	Left	Yes	1.34158480000042	0	468662	252
917.41796875	1.34158480000042	taste	choicePhaseStart	2	120	60	foodImage.48	FOODEEG_Images\0494.jpg	YN	Left	Yes	1.34158480000042	0	469719	253
918.75	0	taste	response	2	120	60	foodImage.48	FOODEEG_Images\0494.jpg	YN	Left	Yes	1.34158480000042	0	470401	234
920.794921875	2.10546875	n/a	blockEnd	n/a	n/a	n/a	n/a	n/a	n/a	n/a	n/a	n/a	n/a	471448	254
922.900390625	2	n/a	blockStart	3	n/a	n/a	n/a	n/a	n/a	n/a	n/a	n/a	n/a	472526	250
924.94140625	1	taste	trialStart	3	121	1	foodImage.111	FOODEEG_Images\0919.jpg	NY	Left	No	2.097657600003	0	473571	251
925.98046875	2	taste	foodImageDisplay	3	121	1	foodImage.111	FOODEEG_Images\0919.jpg	NY	Left	No	2.097657600003	0	474103	252
928.044921875	2.097657600003	taste	choicePhaseStart	3	121	1	foodImage.111	FOODEEG_Images\0919.jpg	NY	Left	No	2.097657600003	0	475160	253
930.134765625	0	taste	response	3	121	1	foodImage.111	FOODEEG_Images\0919.jpg	NY	Left	No	2.097657600003	0	476230	234
931.181640625	1	health	trialStart	3	122	2	foodImage.29	FOODEEG_Images\0278.jpg	NY	Left	No	1.41605699999491	0	476766	251
932.2421875	2	health	foodImageDisplay	3	122	2	foodImage.29	FOODEEG_Images\0278.jpg	NY	Left	No	1.41605699999491	0	477309	252
934.310546875	1.41605699999491	health	choicePhaseStart	3	122	2	foodImage.29	FOODEEG_Images\0278.jpg	NY	Left	No	1.41605699999491	0	478368	253
935.71875	0	health	response	3	122	2	foodImage.29	FOODEEG_Images\0278.jpg	NY	Left	No	1.41605699999491	0	479089	234
936.759765625	1	taste	trialStart	3	123	3	foodImage.27	FOODEEG_Images\0263.jpg	YN	Left	Yes	0.676876099998481	0	479622	251
937.802734375	2	taste	foodImageDisplay	3	123	3	foodImage.27	FOODEEG_Images\0263.jpg	YN	Left	Yes	0.676876099998481	0	480156	252
939.87109375	0.676876099998481	taste	choicePhaseStart	3	123	3	foodImage.27	FOODEEG_Images\0263.jpg	YN	Left	Yes	0.676876099998481	0	481215	253
940.541015625	0	taste	response	3	123	3	foodImage.27	FOODEEG_Images\0263.jpg	YN	Left	Yes	0.676876099998481	0	481558	234
941.587890625	1	taste	trialStart	3	124	4	foodImage.14	FOODEEG_Images\0188.jpg	YN	Left	Yes	0.525380400002177	0	482094	251
942.646484375	2	taste	foodImageDisplay	3	124	4	foodImage.14	FOODEEG_Images\0188.jpg	YN	Left	Yes	0.525380400002177	0	482636	252
944.7109375	0.525380400002177	taste	choicePhaseStart	3	124	4	foodImage.14	FOODEEG_Images\0188.jpg	YN	Left	Yes	0.525380400002177	0	483693	253
945.23046875	0	taste	response	3	124	4	foodImage.14	FOODEEG_Images\0188.jpg	YN	Left	Yes	0.525380400002177	0	483959	234
946.27734375	1	taste	trialStart	3	125	5	foodImage.46	FOODEEG_Images\0479.jpg	YN	Left	Yes	0.427681200002553	0	484495	251
947.33984375	2	taste	foodImageDisplay	3	125	5	foodImage.46	FOODEEG_Images\0479.jpg	YN	Left	Yes	0.427681200002553	0	485039	252
949.40234375	0.427681200002553	taste	choicePhaseStart	3	125	5	foodImage.46	FOODEEG_Images\0479.jpg	YN	Left	Yes	0.427681200002553	0	486095	253
949.822265625	0	taste	response	3	125	5	foodImage.46	FOODEEG_Images\0479.jpg	YN	Left	Yes	0.427681200002553	0	486310	234
950.86328125	1	health	trialStart	3	126	6	foodImage.23	FOODEEG_Images\0244.jpg	YN	Right	No	1.21283050000056	0	486843	251
951.923828125	2	health	foodImageDisplay	3	126	6	foodImage.23	FOODEEG_Images\0244.jpg	YN	Right	No	1.21283050000056	0	487386	252
953.9921875	1.21283050000056	health	choicePhaseStart	3	126	6	foodImage.23	FOODEEG_Images\0244.jpg	YN	Right	No	1.21283050000056	0	488445	253
955.197265625	0	health	response	3	126	6	foodImage.23	FOODEEG_Images\0244.jpg	YN	Right	No	1.21283050000056	0	489062	235
956.24609375	1	taste	trialStart	3	127	7	foodImage.67	FOODEEG_Images\0679.jpg	YN	Left	Yes	0.634313700000348	0	489599	251
957.32421875	2	taste	foodImageDisplay	3	127	7	foodImage.67	FOODEEG_Images\0679.jpg	YN	Left	Yes	0.634313700000348	0	490151	252
959.38671875	0.634313700000348	taste	choicePhaseStart	3	127	7	foodImage.67	FOODEEG_Images\0679.jpg	YN	Left	Yes	0.634313700000348	0	491207	253
960.013671875	0	taste	response	3	127	7	foodImage.67	FOODEEG_Images\0679.jpg	YN	Left	Yes	0.634313700000348	0	491528	234
961.0546875	1	decision	trialStart	3	128	8	foodImage.120	FOODEEG_Images\0928.jpg	YN	Right	No	0.905413000000408	0	492061	251
962.109375	2	decision	foodImageDisplay	3	128	8	foodImage.120	FOODEEG_Images\0928.jpg	YN	Right	No	0.905413000000408	0	492601	252
964.173828125	0.905413000000408	decision	choicePhaseStart	3	128	8	foodImage.120	FOODEEG_Images\0928.jpg	YN	Right	No	0.905413000000408	0	493658	253
965.068359375	0	decision	response	3	128	8	foodImage.120	FOODEEG_Images\0928.jpg	YN	Right	No	0.905413000000408	0	494116	235
966.111328125	1	health	trialStart	3	129	9	foodImage.27	FOODEEG_Images\0263.jpg	YN	Left	Yes	0.955544899996312	0	494650	251
967.154296875	2	health	foodImageDisplay	3	129	9	foodImage.27	FOODEEG_Images\0263.jpg	YN	Left	Yes	0.955544899996312	0	495184	252
969.21875	0.955544899996312	health	choicePhaseStart	3	129	9	foodImage.27	FOODEEG_Images\0263.jpg	YN	Left	Yes	0.955544899996312	0	496241	253
970.1640625	0	health	response	3	129	9	foodImage.27	FOODEEG_Images\0263.jpg	YN	Left	Yes	0.955544899996312	0	496725	234
971.20703125	1	decision	trialStart	3	130	10	foodImage.116	FOODEEG_Images\0924.jpg	YN	Left	Yes	0.936191799999506	0	497259	251
972.24609375	2	decision	foodImageDisplay	3	130	10	foodImage.116	FOODEEG_Images\0924.jpg	YN	Left	Yes	0.936191799999506	0	497791	252
974.314453125	0.936191799999506	decision	choicePhaseStart	3	130	10	foodImage.116	FOODEEG_Images\0924.jpg	YN	Left	Yes	0.936191799999506	0	498850	253
975.244140625	0	decision	response	3	130	10	foodImage.116	FOODEEG_Images\0924.jpg	YN	Left	Yes	0.936191799999506	0	499326	234
976.2890625	1	taste	trialStart	3	131	11	foodImage.59	FOODEEG_Images\0607.jpg	YN	Left	Yes	1.31723179999972	0	499861	251
977.34375	2	taste	foodImageDisplay	3	131	11	foodImage.59	FOODEEG_Images\0607.jpg	YN	Left	Yes	1.31723179999972	0	500401	252
979.412109375	1.31723179999972	taste	choicePhaseStart	3	131	11	foodImage.59	FOODEEG_Images\0607.jpg	YN	Left	Yes	1.31723179999972	0	501460	253
980.724609375	0	taste	response	3	131	11	foodImage.59	FOODEEG_Images\0607.jpg	YN	Left	Yes	1.31723179999972	0	502132	234
981.767578125	1	health	trialStart	3	132	12	foodImage.65	FOODEEG_Images\0658.jpg	YN	Right	No	1.20042830000602	0	502666	251
982.826171875	2	health	foodImageDisplay	3	132	12	foodImage.65	FOODEEG_Images\0658.jpg	YN	Right	No	1.20042830000602	0	503208	252
984.892578125	1.20042830000602	health	choicePhaseStart	3	132	12	foodImage.65	FOODEEG_Images\0658.jpg	YN	Right	No	1.20042830000602	0	504266	253
986.083984375	0	health	response	3	132	12	foodImage.65	FOODEEG_Images\0658.jpg	YN	Right	No	1.20042830000602	0	504876	235
987.125	1	taste	trialStart	3	133	13	foodImage.62	FOODEEG_Images\0644.jpg	YN	Left	Yes	0.601427199995669	0	505409	251
988.1796875	2	taste	foodImageDisplay	3	133	13	foodImage.62	FOODEEG_Images\0644.jpg	YN	Left	Yes	0.601427199995669	0	505949	252
990.244140625	0.601427199995669	taste	choicePhaseStart	3	133	13	foodImage.62	FOODEEG_Images\0644.jpg	YN	Left	Yes	0.601427199995669	0	507006	253
990.8359375	0	taste	response	3	133	13	foodImage.62	FOODEEG_Images\0644.jpg	YN	Left	Yes	0.601427199995669	0	507309	234
991.876953125	1	decision	trialStart	3	134	14	foodImage.101	FOODEEG_Images\0909.jpg	NY	Right	Yes	1.04713009999978	0	507842	251
992.9140625	2	decision	foodImageDisplay	3	134	14	foodImage.101	FOODEEG_Images\0909.jpg	NY	Right	Yes	1.04713009999978	0	508373	252
994.98046875	1.04713009999978	decision	choicePhaseStart	3	134	14	foodImage.101	FOODEEG_Images\0909.jpg	NY	Right	Yes	1.04713009999978	0	509431	253
996.01953125	0	decision	response	3	134	14	foodImage.101	FOODEEG_Images\0909.jpg	NY	Right	Yes	1.04713009999978	0	509963	235
997.064453125	1	taste	trialStart	3	135	15	foodImage.92	FOODEEG_Images\0900.jpg	NY	Right	Yes	1.49265200000082	0	510498	251
998.10546875	2	taste	foodImageDisplay	3	135	15	foodImage.92	FOODEEG_Images\0900.jpg	NY	Right	Yes	1.49265200000082	0	511031	252
1000.173828125	1.49265200000082	taste	choicePhaseStart	3	135	15	foodImage.92	FOODEEG_Images\0900.jpg	NY	Right	Yes	1.49265200000082	0	512090	253
1001.66015625	0	taste	response	3	135	15	foodImage.92	FOODEEG_Images\0900.jpg	NY	Right	Yes	1.49265200000082	0	512851	235
1002.701171875	1	taste	trialStart	3	136	16	foodImage.1	FOODEEG_Images\0004.jpg	NY	Left	No	0.626041199997417	0	513384	251
1003.75	2	taste	foodImageDisplay	3	136	16	foodImage.1	FOODEEG_Images\0004.jpg	NY	Left	No	0.626041199997417	0	513921	252
1005.818359375	0.626041199997417	taste	choicePhaseStart	3	136	16	foodImage.1	FOODEEG_Images\0004.jpg	NY	Left	No	0.626041199997417	0	514980	253
1006.435546875	0	taste	response	3	136	16	foodImage.1	FOODEEG_Images\0004.jpg	NY	Left	No	0.626041199997417	0	515296	234
1007.478515625	1	decision	trialStart	3	137	17	foodImage.66	FOODEEG_Images\0676.jpg	NY	Left	No	0.78747740000108	0	515830	251
1008.521484375	2	decision	foodImageDisplay	3	137	17	foodImage.66	FOODEEG_Images\0676.jpg	NY	Left	No	0.78747740000108	0	516364	252
1010.58984375	0.78747740000108	decision	choicePhaseStart	3	137	17	foodImage.66	FOODEEG_Images\0676.jpg	NY	Left	No	0.78747740000108	0	517423	253
1011.37109375	0	decision	response	3	137	17	foodImage.66	FOODEEG_Images\0676.jpg	NY	Left	No	0.78747740000108	0	517823	234
1012.419921875	1	decision	trialStart	3	138	18	foodImage.51	FOODEEG_Images\0536.jpg	YN	Left	Yes	1.38324149999971	0	518360	251
1013.484375	2	decision	foodImageDisplay	3	138	18	foodImage.51	FOODEEG_Images\0536.jpg	YN	Left	Yes	1.38324149999971	0	518905	252
1015.548828125	1.38324149999971	decision	choicePhaseStart	3	138	18	foodImage.51	FOODEEG_Images\0536.jpg	YN	Left	Yes	1.38324149999971	0	519962	253
1016.921875	0	decision	response	3	138	18	foodImage.51	FOODEEG_Images\0536.jpg	YN	Left	Yes	1.38324149999971	0	520665	234
1017.96875	1	decision	trialStart	3	139	19	foodImage.59	FOODEEG_Images\0607.jpg	YN	Left	Yes	0.474991700000828	0	521201	251
1019.0234375	2	decision	foodImageDisplay	3	139	19	foodImage.59	FOODEEG_Images\0607.jpg	YN	Left	Yes	0.474991700000828	0	521741	252
1021.087890625	0.474991700000828	decision	choicePhaseStart	3	139	19	foodImage.59	FOODEEG_Images\0607.jpg	YN	Left	Yes	0.474991700000828	0	522798	253
1021.5546875	0	decision	response	3	139	19	foodImage.59	FOODEEG_Images\0607.jpg	YN	Left	Yes	0.474991700000828	0	523037	234
1022.595703125	1	taste	trialStart	3	140	20	foodImage.26	FOODEEG_Images\0262.jpg	NY	Left	No	2.16971420000482	0	523570	251
1023.638671875	2	taste	foodImageDisplay	3	140	20	foodImage.26	FOODEEG_Images\0262.jpg	NY	Left	No	2.16971420000482	0	524104	252
1025.70703125	2.16971420000482	taste	choicePhaseStart	3	140	20	foodImage.26	FOODEEG_Images\0262.jpg	NY	Left	No	2.16971420000482	0	525163	253
1027.8671875	0	taste	response	3	140	20	foodImage.26	FOODEEG_Images\0262.jpg	NY	Left	No	2.16971420000482	0	526269	234
1028.91015625	1	health	trialStart	3	141	21	foodImage.21	FOODEEG_Images\0234.jpg	NY	Left	No	0.707776100003684	0	526803	251
1029.96875	2	health	foodImageDisplay	3	141	21	foodImage.21	FOODEEG_Images\0234.jpg	NY	Left	No	0.707776100003684	0	527345	252
1032.03125	0.707776100003684	health	choicePhaseStart	3	141	21	foodImage.21	FOODEEG_Images\0234.jpg	NY	Left	No	0.707776100003684	0	528401	253
1032.73046875	0	health	response	3	141	21	foodImage.21	FOODEEG_Images\0234.jpg	NY	Left	No	0.707776100003684	0	528759	234
1033.7734375	1	health	trialStart	3	142	22	foodImage.93	FOODEEG_Images\0901.jpg	YN	Right	No	3.24909189999744	0	529293	251
1034.810546875	2	health	foodImageDisplay	3	142	22	foodImage.93	FOODEEG_Images\0901.jpg	YN	Right	No	3.24909189999744	0	529824	252
1036.875	3.24909189999744	health	choicePhaseStart	3	142	22	foodImage.93	FOODEEG_Images\0901.jpg	YN	Right	No	3.24909189999744	0	530881	253
1040.11328125	0	health	response	3	142	22	foodImage.93	FOODEEG_Images\0901.jpg	YN	Right	No	3.24909189999744	0	532539	235
1041.154296875	1	health	trialStart	3	143	23	foodImage.52	FOODEEG_Images\0539.jpg	NY	Left	No	0.74875919999613	0	533072	251
1042.23046875	2	health	foodImageDisplay	3	143	23	foodImage.52	FOODEEG_Images\0539.jpg	NY	Left	No	0.74875919999613	0	533623	252
1044.29296875	0.74875919999613	health	choicePhaseStart	3	143	23	foodImage.52	FOODEEG_Images\0539.jpg	NY	Left	No	0.74875919999613	0	534679	253
1045.033203125	0	health	response	3	143	23	foodImage.52	FOODEEG_Images\0539.jpg	NY	Left	No	0.74875919999613	0	535058	234
1046.076171875	1	health	trialStart	3	144	24	foodImage.26	FOODEEG_Images\0262.jpg	NY	Left	No	0.577653899999859	0	535592	251
1047.138671875	2	health	foodImageDisplay	3	144	24	foodImage.26	FOODEEG_Images\0262.jpg	NY	Left	No	0.577653899999859	0	536136	252
1049.201171875	0.577653899999859	health	choicePhaseStart	3	144	24	foodImage.26	FOODEEG_Images\0262.jpg	NY	Left	No	0.577653899999859	0	537192	253
1049.76953125	0	health	response	3	144	24	foodImage.26	FOODEEG_Images\0262.jpg	NY	Left	No	0.577653899999859	0	537483	234
1050.8125	1	health	trialStart	3	145	25	foodImage.87	FOODEEG_Images\0873.jpg	NY	Left	No	0.592933700005233	0	538017	251
1051.89453125	2	health	foodImageDisplay	3	145	25	foodImage.87	FOODEEG_Images\0873.jpg	NY	Left	No	0.592933700005233	0	538571	252
1053.962890625	0.592933700005233	health	choicePhaseStart	3	145	25	foodImage.87	FOODEEG_Images\0873.jpg	NY	Left	No	0.592933700005233	0	539630	253
1054.544921875	0	health	response	3	145	25	foodImage.87	FOODEEG_Images\0873.jpg	NY	Left	No	0.592933700005233	0	539928	234
1055.595703125	1	health	trialStart	3	146	26	foodImage.89	FOODEEG_Images\0881.jpg	YN	Left	Yes	0.420455600004061	0	540466	251
1056.67578125	2	health	foodImageDisplay	3	146	26	foodImage.89	FOODEEG_Images\0881.jpg	YN	Left	Yes	0.420455600004061	0	541019	252
1058.73828125	0.420455600004061	health	choicePhaseStart	3	146	26	foodImage.89	FOODEEG_Images\0881.jpg	YN	Left	Yes	0.420455600004061	0	542075	253
1059.154296875	0	health	response	3	146	26	foodImage.89	FOODEEG_Images\0881.jpg	YN	Left	Yes	0.420455600004061	0	542288	234
1060.1953125	1	health	trialStart	3	147	27	foodImage.60	FOODEEG_Images\0614.jpg	YN	Left	Yes	1.53142890000163	0	542821	251
1061.25390625	2	health	foodImageDisplay	3	147	27	foodImage.60	FOODEEG_Images\0614.jpg	YN	Left	Yes	1.53142890000163	0	543363	252
1063.3203125	1.53142890000163	health	choicePhaseStart	3	147	27	foodImage.60	FOODEEG_Images\0614.jpg	YN	Left	Yes	1.53142890000163	0	544421	253
1064.841796875	0	health	response	3	147	27	foodImage.60	FOODEEG_Images\0614.jpg	YN	Left	Yes	1.53142890000163	0	545200	234
1065.8828125	1	health	trialStart	3	148	28	foodImage.40	FOODEEG_Images\0373.jpg	YN	Right	No	1.17543499999738	0	545733	251
1066.923828125	2	health	foodImageDisplay	3	148	28	foodImage.40	FOODEEG_Images\0373.jpg	YN	Right	No	1.17543499999738	0	546266	252
1068.986328125	1.17543499999738	health	choicePhaseStart	3	148	28	foodImage.40	FOODEEG_Images\0373.jpg	YN	Right	No	1.17543499999738	0	547322	253
1070.15234375	0	health	response	3	148	28	foodImage.40	FOODEEG_Images\0373.jpg	YN	Right	No	1.17543499999738	0	547919	235
1071.1953125	1	taste	trialStart	3	149	29	foodImage.6	FOODEEG_Images\0113.jpg	NY	Left	No	0.915410800000245	0	548453	251
1072.23828125	2	taste	foodImageDisplay	3	149	29	foodImage.6	FOODEEG_Images\0113.jpg	NY	Left	No	0.915410800000245	0	548987	252
1074.302734375	0.915410800000245	taste	choicePhaseStart	3	149	29	foodImage.6	FOODEEG_Images\0113.jpg	NY	Left	No	0.915410800000245	0	550044	253
1075.208984375	0	taste	response	3	149	29	foodImage.6	FOODEEG_Images\0113.jpg	NY	Left	No	0.915410800000245	0	550508	234
1076.25	1	decision	trialStart	3	150	30	foodImage.102	FOODEEG_Images\0910.jpg	YN	Right	No	1.31951619999745	0	551041	251
1077.2890625	2	decision	foodImageDisplay	3	150	30	foodImage.102	FOODEEG_Images\0910.jpg	YN	Right	No	1.31951619999745	0	551573	252
1079.353515625	1.31951619999745	decision	choicePhaseStart	3	150	30	foodImage.102	FOODEEG_Images\0910.jpg	YN	Right	No	1.31951619999745	0	552630	253
1080.6640625	0	decision	response	3	150	30	foodImage.102	FOODEEG_Images\0910.jpg	YN	Right	No	1.31951619999745	0	553301	235
1081.712890625	1	taste	trialStart	3	151	31	foodImage.36	FOODEEG_Images\0352.jpg	NY	Left	No	1.54661860000488	0	553838	251
1082.767578125	2	taste	foodImageDisplay	3	151	31	foodImage.36	FOODEEG_Images\0352.jpg	NY	Left	No	1.54661860000488	0	554378	252
1084.83203125	1.54661860000488	taste	choicePhaseStart	3	151	31	foodImage.36	FOODEEG_Images\0352.jpg	NY	Left	No	1.54661860000488	0	555435	253
1086.3671875	0	taste	response	3	151	31	foodImage.36	FOODEEG_Images\0352.jpg	NY	Left	No	1.54661860000488	0	556221	234
1087.412109375	1	health	trialStart	3	152	32	foodImage.9	FOODEEG_Images\0138.jpg	NY	Right	Yes	1.09873859999789	0	556756	251
1088.47265625	2	health	foodImageDisplay	3	152	32	foodImage.9	FOODEEG_Images\0138.jpg	NY	Right	Yes	1.09873859999789	0	557299	252
1090.5390625	1.09873859999789	health	choicePhaseStart	3	152	32	foodImage.9	FOODEEG_Images\0138.jpg	NY	Right	Yes	1.09873859999789	0	558357	253
1091.630859375	0	health	response	3	152	32	foodImage.9	FOODEEG_Images\0138.jpg	NY	Right	Yes	1.09873859999789	0	558916	235
1092.673828125	1	health	trialStart	3	153	33	foodImage.62	FOODEEG_Images\0644.jpg	YN	Left	Yes	1.19517190000624	0	559450	251
1093.75	2	health	foodImageDisplay	3	153	33	foodImage.62	FOODEEG_Images\0644.jpg	YN	Left	Yes	1.19517190000624	0	560001	252
1095.814453125	1.19517190000624	health	choicePhaseStart	3	153	33	foodImage.62	FOODEEG_Images\0644.jpg	YN	Left	Yes	1.19517190000624	0	561058	253
1097	0	health	response	3	153	33	foodImage.62	FOODEEG_Images\0644.jpg	YN	Left	Yes	1.19517190000624	0	561665	234
1098.04296875	1	taste	trialStart	3	154	34	foodImage.98	FOODEEG_Images\0906.jpg	NY	Right	Yes	1.57675680000102	0	562199	251
1099.08203125	2	taste	foodImageDisplay	3	154	34	foodImage.98	FOODEEG_Images\0906.jpg	NY	Right	Yes	1.57675680000102	0	562731	252
1101.150390625	1.57675680000102	taste	choicePhaseStart	3	154	34	foodImage.98	FOODEEG_Images\0906.jpg	NY	Right	Yes	1.57675680000102	0	563790	253
1102.71875	0	taste	response	3	154	34	foodImage.98	FOODEEG_Images\0906.jpg	NY	Right	Yes	1.57675680000102	0	564593	235
1103.763671875	1	decision	trialStart	3	155	35	foodImage.4	FOODEEG_Images\0065.jpg	NY	Left	No	0.723209199997655	0	565128	251
1104.822265625	2	decision	foodImageDisplay	3	155	35	foodImage.4	FOODEEG_Images\0065.jpg	NY	Left	No	0.723209199997655	0	565670	252
1106.890625	0.723209199997655	decision	choicePhaseStart	3	155	35	foodImage.4	FOODEEG_Images\0065.jpg	NY	Left	No	0.723209199997655	0	566729	253
1107.607421875	0	decision	response	3	155	35	foodImage.4	FOODEEG_Images\0065.jpg	NY	Left	No	0.723209199997655	0	567096	234
1108.650390625	1	taste	trialStart	3	156	36	foodImage.2	FOODEEG_Images\0028.jpg	YN	Left	Yes	0.6731024000037	0	567630	251
1109.712890625	2	taste	foodImageDisplay	3	156	36	foodImage.2	FOODEEG_Images\0028.jpg	YN	Left	Yes	0.6731024000037	0	568174	252
1111.78125	0.6731024000037	taste	choicePhaseStart	3	156	36	foodImage.2	FOODEEG_Images\0028.jpg	YN	Left	Yes	0.6731024000037	0	569233	253
1112.447265625	0	taste	response	3	156	36	foodImage.2	FOODEEG_Images\0028.jpg	YN	Left	Yes	0.6731024000037	0	569574	234
1113.4921875	1	health	trialStart	3	157	37	foodImage.76	FOODEEG_Images\0766.jpg	YN	Left	Yes	0.693045500003791	0	570109	251
1114.556640625	2	health	foodImageDisplay	3	157	37	foodImage.76	FOODEEG_Images\0766.jpg	YN	Left	Yes	0.693045500003791	0	570654	252
1116.619140625	0.693045500003791	health	choicePhaseStart	3	157	37	foodImage.76	FOODEEG_Images\0766.jpg	YN	Left	Yes	0.693045500003791	0	571710	253
1117.302734375	0	health	response	3	157	37	foodImage.76	FOODEEG_Images\0766.jpg	YN	Left	Yes	0.693045500003791	0	572060	234
1118.345703125	1	taste	trialStart	3	158	38	foodImage.24	FOODEEG_Images\0250.jpg	YN	Left	Yes	0.951274900005956	0	572594	251
1119.404296875	2	taste	foodImageDisplay	3	158	38	foodImage.24	FOODEEG_Images\0250.jpg	YN	Left	Yes	0.951274900005956	0	573136	252
1121.470703125	0.951274900005956	taste	choicePhaseStart	3	158	38	foodImage.24	FOODEEG_Images\0250.jpg	YN	Left	Yes	0.951274900005956	0	574194	253
1122.4140625	0	taste	response	3	158	38	foodImage.24	FOODEEG_Images\0250.jpg	YN	Left	Yes	0.951274900005956	0	574677	234
1123.458984375	1	health	trialStart	3	159	39	foodImage.58	FOODEEG_Images\0605.jpg	YN	Left	Yes	0.789150600001449	0	575212	251
1124.537109375	2	health	foodImageDisplay	3	159	39	foodImage.58	FOODEEG_Images\0605.jpg	YN	Left	Yes	0.789150600001449	0	575764	252
1126.6015625	0.789150600001449	health	choicePhaseStart	3	159	39	foodImage.58	FOODEEG_Images\0605.jpg	YN	Left	Yes	0.789150600001449	0	576821	253
1127.3828125	0	health	response	3	159	39	foodImage.58	FOODEEG_Images\0605.jpg	YN	Left	Yes	0.789150600001449	0	577221	234
1128.42578125	1	decision	trialStart	3	160	40	foodImage.100	FOODEEG_Images\0908.jpg	YN	Left	Yes	0.739591400000791	0	577755	251
1129.4765625	2	decision	foodImageDisplay	3	160	40	foodImage.100	FOODEEG_Images\0908.jpg	YN	Left	Yes	0.739591400000791	0	578293	252
1131.5390625	0.739591400000791	decision	choicePhaseStart	3	160	40	foodImage.100	FOODEEG_Images\0908.jpg	YN	Left	Yes	0.739591400000791	0	579349	253
1132.26953125	0	decision	response	3	160	40	foodImage.100	FOODEEG_Images\0908.jpg	YN	Left	Yes	0.739591400000791	0	579723	234
1133.314453125	1	taste	trialStart	3	161	41	foodImage.113	FOODEEG_Images\0921.jpg	YN	Left	Yes	0.969895499998529	0	580258	251
1134.35546875	2	taste	foodImageDisplay	3	161	41	foodImage.113	FOODEEG_Images\0921.jpg	YN	Left	Yes	0.969895499998529	0	580791	252
1136.41796875	0.969895499998529	taste	choicePhaseStart	3	161	41	foodImage.113	FOODEEG_Images\0921.jpg	YN	Left	Yes	0.969895499998529	0	581847	253
1137.3828125	0	taste	response	3	161	41	foodImage.113	FOODEEG_Images\0921.jpg	YN	Left	Yes	0.969895499998529	0	582341	234
1138.423828125	1	health	trialStart	3	162	42	foodImage.12	FOODEEG_Images\0181.jpg	YN	Left	Yes	2.42817180000566	0	582874	251
1139.482421875	2	health	foodImageDisplay	3	162	42	foodImage.12	FOODEEG_Images\0181.jpg	YN	Left	Yes	2.42817180000566	0	583416	252
1141.546875	2.42817180000566	health	choicePhaseStart	3	162	42	foodImage.12	FOODEEG_Images\0181.jpg	YN	Left	Yes	2.42817180000566	0	584473	253
1143.966796875	0	health	response	3	162	42	foodImage.12	FOODEEG_Images\0181.jpg	YN	Left	Yes	2.42817180000566	0	585712	234
1145.013671875	1	decision	trialStart	3	163	43	foodImage.107	FOODEEG_Images\0915.jpg	NY	Left	No	1.6741428000023	0	586248	251
1146.052734375	2	decision	foodImageDisplay	3	163	43	foodImage.107	FOODEEG_Images\0915.jpg	NY	Left	No	1.6741428000023	0	586780	252
1148.123046875	1.6741428000023	decision	choicePhaseStart	3	163	43	foodImage.107	FOODEEG_Images\0915.jpg	NY	Left	No	1.6741428000023	0	587840	253
1149.7890625	0	decision	response	3	163	43	foodImage.107	FOODEEG_Images\0915.jpg	NY	Left	No	1.6741428000023	0	588693	234
1150.830078125	1	taste	trialStart	3	164	44	foodImage.40	FOODEEG_Images\0373.jpg	NY	Left	No	0.844418100001349	0	589226	251
1151.888671875	2	taste	foodImageDisplay	3	164	44	foodImage.40	FOODEEG_Images\0373.jpg	NY	Left	No	0.844418100001349	0	589768	252
1153.95703125	0.844418100001349	taste	choicePhaseStart	3	164	44	foodImage.40	FOODEEG_Images\0373.jpg	NY	Left	No	0.844418100001349	0	590827	253
1154.796875	0	taste	response	3	164	44	foodImage.40	FOODEEG_Images\0373.jpg	NY	Left	No	0.844418100001349	0	591257	234
1155.841796875	1	decision	trialStart	3	165	45	foodImage.54	FOODEEG_Images\0560.jpg	NY	Left	No	0.746976400005224	0	591792	251
1156.900390625	2	decision	foodImageDisplay	3	165	45	foodImage.54	FOODEEG_Images\0560.jpg	NY	Left	No	0.746976400005224	0	592334	252
1158.962890625	0.746976400005224	decision	choicePhaseStart	3	165	45	foodImage.54	FOODEEG_Images\0560.jpg	NY	Left	No	0.746976400005224	0	593390	253
1159.701171875	0	decision	response	3	165	45	foodImage.54	FOODEEG_Images\0560.jpg	NY	Left	No	0.746976400005224	0	593768	234
1160.744140625	1	decision	trialStart	3	166	46	foodImage.46	FOODEEG_Images\0479.jpg	YN	Left	Yes	0.487369099995703	0	594302	251
1161.802734375	2	decision	foodImageDisplay	3	166	46	foodImage.46	FOODEEG_Images\0479.jpg	YN	Left	Yes	0.487369099995703	0	594844	252
1163.87109375	0.487369099995703	decision	choicePhaseStart	3	166	46	foodImage.46	FOODEEG_Images\0479.jpg	YN	Left	Yes	0.487369099995703	0	595903	253
1164.349609375	0	decision	response	3	166	46	foodImage.46	FOODEEG_Images\0479.jpg	YN	Left	Yes	0.487369099995703	0	596148	234
1165.392578125	1	decision	trialStart	3	167	47	foodImage.91	FOODEEG_Images\0896.jpg	YN	Left	Yes	0.998989899999287	0	596682	251
1166.447265625	2	decision	foodImageDisplay	3	167	47	foodImage.91	FOODEEG_Images\0896.jpg	YN	Left	Yes	0.998989899999287	0	597222	252
1168.517578125	0.998989899999287	decision	choicePhaseStart	3	167	47	foodImage.91	FOODEEG_Images\0896.jpg	YN	Left	Yes	0.998989899999287	0	598282	253
1169.509765625	0	decision	response	3	167	47	foodImage.91	FOODEEG_Images\0896.jpg	YN	Left	Yes	0.998989899999287	0	598790	234
1170.552734375	1	health	trialStart	3	168	48	foodImage.78	FOODEEG_Images\0787.jpg	NY	Left	No	0.835576799996488	0	599324	251
1171.595703125	2	health	foodImageDisplay	3	168	48	foodImage.78	FOODEEG_Images\0787.jpg	NY	Left	No	0.835576799996488	0	599858	252
1173.6640625	0.835576799996488	health	choicePhaseStart	3	168	48	foodImage.78	FOODEEG_Images\0787.jpg	NY	Left	No	0.835576799996488	0	600917	253
1174.4921875	0	health	response	3	168	48	foodImage.78	FOODEEG_Images\0787.jpg	NY	Left	No	0.835576799996488	0	601341	234
1175.533203125	1	health	trialStart	3	169	49	foodImage.28	FOODEEG_Images\0273.jpg	YN	Left	Yes	0.612762800003111	0	601874	251
1176.59765625	2	health	foodImageDisplay	3	169	49	foodImage.28	FOODEEG_Images\0273.jpg	YN	Left	Yes	0.612762800003111	0	602419	252
1178.6640625	0.612762800003111	health	choicePhaseStart	3	169	49	foodImage.28	FOODEEG_Images\0273.jpg	YN	Left	Yes	0.612762800003111	0	603477	253
1179.267578125	0	health	response	3	169	49	foodImage.28	FOODEEG_Images\0273.jpg	YN	Left	Yes	0.612762800003111	0	603786	234
1180.310546875	1	taste	trialStart	3	170	50	foodImage.89	FOODEEG_Images\0881.jpg	NY	Left	No	1.22041260000697	0	604320	251
1181.3671875	2	taste	foodImageDisplay	3	170	50	foodImage.89	FOODEEG_Images\0881.jpg	NY	Left	No	1.22041260000697	0	604861	252
1183.43359375	1.22041260000697	taste	choicePhaseStart	3	170	50	foodImage.89	FOODEEG_Images\0881.jpg	NY	Left	No	1.22041260000697	0	605919	253
1184.64453125	0	taste	response	3	170	50	foodImage.89	FOODEEG_Images\0881.jpg	NY	Left	No	1.22041260000697	0	606539	234
1185.685546875	1	decision	trialStart	3	171	51	foodImage.56	FOODEEG_Images\0586.jpg	NY	Right	Yes	0.910565100006352	0	607072	251
1186.728515625	2	decision	foodImageDisplay	3	171	51	foodImage.56	FOODEEG_Images\0586.jpg	NY	Right	Yes	0.910565100006352	0	607606	252
1188.796875	0.910565100006352	decision	choicePhaseStart	3	171	51	foodImage.56	FOODEEG_Images\0586.jpg	NY	Right	Yes	0.910565100006352	0	608665	253
1189.69921875	0	decision	response	3	171	51	foodImage.56	FOODEEG_Images\0586.jpg	NY	Right	Yes	0.910565100006352	0	609127	235
1190.744140625	1	taste	trialStart	3	172	52	foodImage.70	FOODEEG_Images\0705.jpg	NY	Left	No	1.08228339999914	0	609662	251
1191.8125	2	taste	foodImageDisplay	3	172	52	foodImage.70	FOODEEG_Images\0705.jpg	NY	Left	No	1.08228339999914	0	610209	252
1193.880859375	1.08228339999914	taste	choicePhaseStart	3	172	52	foodImage.70	FOODEEG_Images\0705.jpg	NY	Left	No	1.08228339999914	0	611268	253
1194.955078125	0	taste	response	3	172	52	foodImage.70	FOODEEG_Images\0705.jpg	NY	Left	No	1.08228339999914	0	611818	234
1196	1	taste	trialStart	3	173	53	foodImage.31	FOODEEG_Images\0294.jpg	YN	Right	No	1.71721190000244	0	612353	251
1197.041015625	2	taste	foodImageDisplay	3	173	53	foodImage.31	FOODEEG_Images\0294.jpg	YN	Right	No	1.71721190000244	0	612886	252
1199.103515625	1.71721190000244	taste	choicePhaseStart	3	173	53	foodImage.31	FOODEEG_Images\0294.jpg	YN	Right	No	1.71721190000244	0	613942	253
1200.8125	0	taste	response	3	173	53	foodImage.31	FOODEEG_Images\0294.jpg	YN	Right	No	1.71721190000244	0	614817	235
1201.8515625	1	taste	trialStart	3	174	54	foodImage.9	FOODEEG_Images\0138.jpg	YN	Left	Yes	0.649560600002587	0	615349	251
1202.908203125	2	taste	foodImageDisplay	3	174	54	foodImage.9	FOODEEG_Images\0138.jpg	YN	Left	Yes	0.649560600002587	0	615890	252
1204.9765625	0.649560600002587	taste	choicePhaseStart	3	174	54	foodImage.9	FOODEEG_Images\0138.jpg	YN	Left	Yes	0.649560600002587	0	616949	253
1205.619140625	0	taste	response	3	174	54	foodImage.9	FOODEEG_Images\0138.jpg	YN	Left	Yes	0.649560600002587	0	617278	234
1206.662109375	1	health	trialStart	3	175	55	foodImage.102	FOODEEG_Images\0910.jpg	NY	Right	Yes	2.2366783000034	0	617812	251
1207.716796875	2	health	foodImageDisplay	3	175	55	foodImage.102	FOODEEG_Images\0910.jpg	NY	Right	Yes	2.2366783000034	0	618352	252
1209.78515625	2.2366783000034	health	choicePhaseStart	3	175	55	foodImage.102	FOODEEG_Images\0910.jpg	NY	Right	Yes	2.2366783000034	0	619411	253
1212.01171875	0	health	response	3	175	55	foodImage.102	FOODEEG_Images\0910.jpg	NY	Right	Yes	2.2366783000034	0	620551	235
1213.0546875	1	health	trialStart	3	176	56	foodImage.16	FOODEEG_Images\0196.jpg	NY	Left	No	0.723322999998345	0	621085	251
1214.12109375	2	health	foodImageDisplay	3	176	56	foodImage.16	FOODEEG_Images\0196.jpg	NY	Left	No	0.723322999998345	0	621631	252
1216.185546875	0.723322999998345	health	choicePhaseStart	3	176	56	foodImage.16	FOODEEG_Images\0196.jpg	NY	Left	No	0.723322999998345	0	622688	253
1216.8984375	0	health	response	3	176	56	foodImage.16	FOODEEG_Images\0196.jpg	NY	Left	No	0.723322999998345	0	623053	234
1217.9453125	1	taste	trialStart	3	177	57	foodImage.8	FOODEEG_Images\0136.jpg	NY	Left	No	0.70554589999665	0	623589	251
1218.986328125	2	taste	foodImageDisplay	3	177	57	foodImage.8	FOODEEG_Images\0136.jpg	NY	Left	No	0.70554589999665	0	624122	252
1221.05078125	0.70554589999665	taste	choicePhaseStart	3	177	57	foodImage.8	FOODEEG_Images\0136.jpg	NY	Left	No	0.70554589999665	0	625179	253
1221.74609375	0	taste	response	3	177	57	foodImage.8	FOODEEG_Images\0136.jpg	NY	Left	No	0.70554589999665	0	625535	234
1222.787109375	1	health	trialStart	3	178	58	foodImage.119	FOODEEG_Images\0927.jpg	NY	Right	Yes	1.53082649999851	0	626068	251
1223.826171875	2	health	foodImageDisplay	3	178	58	foodImage.119	FOODEEG_Images\0927.jpg	NY	Right	Yes	1.53082649999851	0	626600	252
1225.888671875	1.53082649999851	health	choicePhaseStart	3	178	58	foodImage.119	FOODEEG_Images\0927.jpg	NY	Right	Yes	1.53082649999851	0	627656	253
1227.41015625	0	health	response	3	178	58	foodImage.119	FOODEEG_Images\0927.jpg	NY	Right	Yes	1.53082649999851	0	628435	235
1228.458984375	1	decision	trialStart	3	179	59	foodImage.63	FOODEEG_Images\0645.jpg	NY	Left	No	1.4226708999995	0	628972	251
1229.51953125	2	decision	foodImageDisplay	3	179	59	foodImage.63	FOODEEG_Images\0645.jpg	NY	Left	No	1.4226708999995	0	629515	252
1231.587890625	1.4226708999995	decision	choicePhaseStart	3	179	59	foodImage.63	FOODEEG_Images\0645.jpg	NY	Left	No	1.4226708999995	0	630574	253
1233.001953125	0	decision	response	3	179	59	foodImage.63	FOODEEG_Images\0645.jpg	NY	Left	No	1.4226708999995	0	631298	234
1234.044921875	1	health	trialStart	3	180	60	foodImage.14	FOODEEG_Images\0188.jpg	YN	Right	No	1.85243909999554	0	631832	251
1235.119140625	2	health	foodImageDisplay	3	180	60	foodImage.14	FOODEEG_Images\0188.jpg	YN	Right	No	1.85243909999554	0	632382	252
1237.18359375	1.85243909999554	health	choicePhaseStart	3	180	60	foodImage.14	FOODEEG_Images\0188.jpg	YN	Right	No	1.85243909999554	0	633439	253
1239.025390625	0	health	response	3	180	60	foodImage.14	FOODEEG_Images\0188.jpg	YN	Right	No	1.85243909999554	0	634382	235
1241.068359375	2.927734375	n/a	blockEnd	n/a	n/a	n/a	n/a	n/a	n/a	n/a	n/a	n/a	n/a	635428	254
1243.99609375	2	n/a	blockStart	4	n/a	n/a	n/a	n/a	n/a	n/a	n/a	n/a	n/a	636927	250
1246.02734375	1	health	trialStart	4	181	1	foodImage.95	FOODEEG_Images\0903.jpg	YN	Right	No	1.10213430000294	0	637967	251
1247.06640625	2	health	foodImageDisplay	4	181	1	foodImage.95	FOODEEG_Images\0903.jpg	YN	Right	No	1.10213430000294	0	638499	252
1249.12890625	1.10213430000294	health	choicePhaseStart	4	181	1	foodImage.95	FOODEEG_Images\0903.jpg	YN	Right	No	1.10213430000294	0	639555	253
1250.224609375	0	health	response	4	181	1	foodImage.95	FOODEEG_Images\0903.jpg	YN	Right	No	1.10213430000294	0	640116	235
1251.267578125	1	decision	trialStart	4	182	2	foodImage.87	FOODEEG_Images\0873.jpg	YN	Left	Yes	0.650022100002388	0	640650	251
1252.322265625	2	decision	foodImageDisplay	4	182	2	foodImage.87	FOODEEG_Images\0873.jpg	YN	Left	Yes	0.650022100002388	0	641190	252
1254.390625	0.650022100002388	decision	choicePhaseStart	4	182	2	foodImage.87	FOODEEG_Images\0873.jpg	YN	Left	Yes	0.650022100002388	0	642249	253
1255.033203125	0	decision	response	4	182	2	foodImage.87	FOODEEG_Images\0873.jpg	YN	Left	Yes	0.650022100002388	0	642578	234
1256.076171875	1	decision	trialStart	4	183	3	foodImage.19	FOODEEG_Images\0225.jpg	YN	Left	Yes	0.958612499998708	0	643112	251
1257.119140625	2	decision	foodImageDisplay	4	183	3	foodImage.19	FOODEEG_Images\0225.jpg	YN	Left	Yes	0.958612499998708	0	643646	252
1259.1875	0.958612499998708	decision	choicePhaseStart	4	183	3	foodImage.19	FOODEEG_Images\0225.jpg	YN	Left	Yes	0.958612499998708	0	644705	253
1260.13671875	0	decision	response	4	183	3	foodImage.19	FOODEEG_Images\0225.jpg	YN	Left	Yes	0.958612499998708	0	645191	234
1261.1796875	1	taste	trialStart	4	184	4	foodImage.55	FOODEEG_Images\0567.jpg	NY	Left	No	1.15186489999905	0	645725	251
1262.234375	2	taste	foodImageDisplay	4	184	4	foodImage.55	FOODEEG_Images\0567.jpg	NY	Left	No	1.15186489999905	0	646265	252
1264.298828125	1.15186489999905	taste	choicePhaseStart	4	184	4	foodImage.55	FOODEEG_Images\0567.jpg	NY	Left	No	1.15186489999905	0	647322	253
1265.44140625	0	taste	response	4	184	4	foodImage.55	FOODEEG_Images\0567.jpg	NY	Left	No	1.15186489999905	0	647907	234
1266.484375	1	taste	trialStart	4	185	5	foodImage.53	FOODEEG_Images\0547.jpg	NY	Left	No	1.68777209999826	0	648441	251
1267.546875	2	taste	foodImageDisplay	4	185	5	foodImage.53	FOODEEG_Images\0547.jpg	NY	Left	No	1.68777209999826	0	648985	252
1269.609375	1.68777209999826	taste	choicePhaseStart	4	185	5	foodImage.53	FOODEEG_Images\0547.jpg	NY	Left	No	1.68777209999826	0	650041	253
1271.2890625	0	taste	response	4	185	5	foodImage.53	FOODEEG_Images\0547.jpg	NY	Left	No	1.68777209999826	0	650901	234
1272.328125	1	health	trialStart	4	186	6	foodImage.18	FOODEEG_Images\0202.jpg	NY	Left	No	0.70975339999859	0	651433	251
1273.388671875	2	health	foodImageDisplay	4	186	6	foodImage.18	FOODEEG_Images\0202.jpg	NY	Left	No	0.70975339999859	0	651976	252
1275.451171875	0.70975339999859	health	choicePhaseStart	4	186	6	foodImage.18	FOODEEG_Images\0202.jpg	NY	Left	No	0.70975339999859	0	653032	253
1276.15234375	0	health	response	4	186	6	foodImage.18	FOODEEG_Images\0202.jpg	NY	Left	No	0.70975339999859	0	653391	234
1277.193359375	1	health	trialStart	4	187	7	foodImage.82	FOODEEG_Images\0805.jpg	YN	Left	Yes	0.395093599996471	0	653924	251
1278.248046875	2	health	foodImageDisplay	4	187	7	foodImage.82	FOODEEG_Images\0805.jpg	YN	Left	Yes	0.395093599996471	0	654464	252
1280.310546875	0.395093599996471	health	choicePhaseStart	4	187	7	foodImage.82	FOODEEG_Images\0805.jpg	YN	Left	Yes	0.395093599996471	0	655520	253
1280.6953125	0	health	response	4	187	7	foodImage.82	FOODEEG_Images\0805.jpg	YN	Left	Yes	0.395093599996471	0	655717	234
1281.73828125	1	health	trialStart	4	188	8	foodImage.11	FOODEEG_Images\0180.jpg	YN	Left	Yes	0.632652100000996	0	656251	251
1282.79296875	2	health	foodImageDisplay	4	188	8	foodImage.11	FOODEEG_Images\0180.jpg	YN	Left	Yes	0.632652100000996	0	656791	252
1284.857421875	0.632652100000996	health	choicePhaseStart	4	188	8	foodImage.11	FOODEEG_Images\0180.jpg	YN	Left	Yes	0.632652100000996	0	657848	253
1285.48046875	0	health	response	4	188	8	foodImage.11	FOODEEG_Images\0180.jpg	YN	Left	Yes	0.632652100000996	0	658167	234
1286.521484375	1	taste	trialStart	4	189	9	foodImage.118	FOODEEG_Images\0926.jpg	NY	Right	Yes	1.19575750000513	0	658700	251
1287.564453125	2	taste	foodImageDisplay	4	189	9	foodImage.118	FOODEEG_Images\0926.jpg	NY	Right	Yes	1.19575750000513	0	659234	252
1289.6328125	1.19575750000513	taste	choicePhaseStart	4	189	9	foodImage.118	FOODEEG_Images\0926.jpg	NY	Right	Yes	1.19575750000513	0	660293	253
1290.82421875	0	taste	response	4	189	9	foodImage.118	FOODEEG_Images\0926.jpg	NY	Right	Yes	1.19575750000513	0	660903	235
1291.8671875	1	taste	trialStart	4	190	10	foodImage.58	FOODEEG_Images\0605.jpg	YN	Left	Yes	0.541571899993869	0	661437	251
1292.921875	2	taste	foodImageDisplay	4	190	10	foodImage.58	FOODEEG_Images\0605.jpg	YN	Left	Yes	0.541571899993869	0	661977	252
1294.986328125	0.541571899993869	taste	choicePhaseStart	4	190	10	foodImage.58	FOODEEG_Images\0605.jpg	YN	Left	Yes	0.541571899993869	0	663034	253
1295.51953125	0	taste	response	4	190	10	foodImage.58	FOODEEG_Images\0605.jpg	YN	Left	Yes	0.541571899993869	0	663307	234
1296.572265625	1	taste	trialStart	4	191	11	foodImage.49	FOODEEG_Images\0515.jpg	YN	Left	Yes	0.707189500004461	0	663846	251
1297.634765625	2	taste	foodImageDisplay	4	191	11	foodImage.49	FOODEEG_Images\0515.jpg	YN	Left	Yes	0.707189500004461	0	664390	252
1299.701171875	0.707189500004461	taste	choicePhaseStart	4	191	11	foodImage.49	FOODEEG_Images\0515.jpg	YN	Left	Yes	0.707189500004461	0	665448	253
1300.400390625	0	taste	response	4	191	11	foodImage.49	FOODEEG_Images\0515.jpg	YN	Left	Yes	0.707189500004461	0	665806	234
1301.443359375	1	health	trialStart	4	192	12	foodImage.109	FOODEEG_Images\0917.jpg	NY	Right	Yes	1.30889780000143	0	666340	251
1302.484375	2	health	foodImageDisplay	4	192	12	foodImage.109	FOODEEG_Images\0917.jpg	NY	Right	Yes	1.30889780000143	0	666873	252
1304.548828125	1.30889780000143	health	choicePhaseStart	4	192	12	foodImage.109	FOODEEG_Images\0917.jpg	NY	Right	Yes	1.30889780000143	0	667930	253
1305.84765625	0	health	response	4	192	12	foodImage.109	FOODEEG_Images\0917.jpg	NY	Right	Yes	1.30889780000143	0	668595	235
1306.888671875	1	taste	trialStart	4	193	13	foodImage.119	FOODEEG_Images\0927.jpg	NY	Left	No	1.01232679999521	0	669128	251
1307.93359375	2	taste	foodImageDisplay	4	193	13	foodImage.119	FOODEEG_Images\0927.jpg	NY	Left	No	1.01232679999521	0	669663	252
1310.001953125	1.01232679999521	taste	choicePhaseStart	4	193	13	foodImage.119	FOODEEG_Images\0927.jpg	NY	Left	No	1.01232679999521	0	670722	253
1311.0078125	0	taste	response	4	193	13	foodImage.119	FOODEEG_Images\0927.jpg	NY	Left	No	1.01232679999521	0	671237	234
1312.05078125	1	taste	trialStart	4	194	14	foodImage.72	FOODEEG_Images\0714.jpg	YN	Left	Yes	0.743925100003253	0	671771	251
