onset	duration	trial_type	event_type	block	trial_total	trial_in_block	food_image_code	food_image_path	button_position	resp_position	resp_choice	choice_rt	resp_too_slow	sample	trigger
293.435546875	2	n/a	blockStart	1	n/a	n/a	n/a	n/a	n/a	n/a	n/a	n/a	n/a	150240	250
295.470703125	1	taste	trialStart	1	1	1	foodImage.69	FOODEEG_Images\0693.jpg	YN	Right	No	1.42610639997292	0	151282	251
296.515625	2	taste	foodImageDisplay	1	1	1	foodImage.69	FOODEEG_Images\0693.jpg	YN	Right	No	1.42610639997292	0	151817	252
298.580078125	1.42610639997292	taste	choicePhaseStart	1	1	1	foodImage.69	FOODEEG_Images\0693.jpg	YN	Right	No	1.42610639997292	0	152874	253
300	0	taste	response	1	1	1	foodImage.69	FOODEEG_Images\0693.jpg	YN	Right	No	1.42610639997292	0	153601	235
301.087890625	1	taste	trialStart	1	2	2	foodImage.78	FOODEEG_Images\0787.jpg	NY	Right	Yes	1.26548609999008	0	154158	251
302.1328125	2	taste	foodImageDisplay	1	2	2	foodImage.78	FOODEEG_Images\0787.jpg	NY	Right	Yes	1.26548609999008	0	154693	252
304.1953125	1.26548609999008	taste	choicePhaseStart	1	2	2	foodImage.78	FOODEEG_Images\0787.jpg	NY	Right	Yes	1.26548609999008	0	155749	253
305.455078125	0	taste	response	1	2	2	foodImage.78	FOODEEG_Images\0787.jpg	NY	Right	Yes	1.26548609999008	0	156394	235
306.505859375	1	taste	trialStart	1	3	3	foodImage.59	FOODEEG_Images\0607.jpg	YN	Left	Yes	1.96475040004589	0	156932	251
307.552734375	2	taste	foodImageDisplay	1	3	3	foodImage.59	FOODEEG_Images\0607.jpg	YN	Left	Yes	1.96475040004589	0	157468	252
309.6171875	1.96475040004589	taste	choicePhaseStart	1	3	3	foodImage.59	FOODEEG_Images\0607.jpg	YN	Left	Yes	1.96475040004589	0	158525	253
311.57421875	0	taste	response	1	3	3	foodImage.59	FOODEEG_Images\0607.jpg	YN	Left	Yes	1.96475040004589	0	159527	234
312.615234375	1	decision	trialStart	1	4	4	foodImage.75	FOODEEG_Images\0763.jpg	YN	Left	Yes	0.917319000000134	0	160060	251
313.658203125	2	decision	foodImageDisplay	1	4	4	foodImage.75	FOODEEG_Images\0763.jpg	YN	Left	Yes	0.917319000000134	0	160594	252
315.720703125	0.917319000000134	decision	choicePhaseStart	1	4	4	foodImage.75	FOODEEG_Images\0763.jpg	YN	Left	Yes	0.917319000000134	0	161650	253
316.630859375	0	decision	response	1	4	4	foodImage.75	FOODEEG_Images\0763.jpg	YN	Left	Yes	0.917319000000134	0	162116	234
317.673828125	1	taste	trialStart	1	5	5	foodImage.22	FOODEEG_Images\0236.jpg	YN	Left	Yes	0.926143299904652	0	162650	251
318.71875	2	taste	foodImageDisplay	1	5	5	foodImage.22	FOODEEG_Images\0236.jpg	YN	Left	Yes	0.926143299904652	0	163185	252
320.783203125	0.926143299904652	taste	choicePhaseStart	1	5	5	foodImage.22	FOODEEG_Images\0236.jpg	YN	Left	Yes	0.926143299904652	0	164242	253
321.701171875	0	taste	response	1	5	5	foodImage.22	FOODEEG_Images\0236.jpg	YN	Left	Yes	0.926143299904652	0	164712	234
322.751953125	1	health	trialStart	1	6	6	foodImage.97	FOODEEG_Images\0905.jpg	NY	Left	No	1.59805790008977	0	165250	251
323.79296875	2	health	foodImageDisplay	1	6	6	foodImage.97	FOODEEG_Images\0905.jpg	NY	Left	No	1.59805790008977	0	165783	252
325.85546875	1.59805790008977	health	choicePhaseStart	1	6	6	foodImage.97	FOODEEG_Images\0905.jpg	NY	Left	No	1.59805790008977	0	166839	253
327.4453125	0	health	response	1	6	6	foodImage.97	FOODEEG_Images\0905.jpg	NY	Left	No	1.59805790008977	0	167653	234
328.48828125	1	decision	trialStart	1	7	7	foodImage.79	FOODEEG_Images\0794.jpg	YN	Right	No	1.44200799998362	0	168187	251
329.533203125	2	decision	foodImageDisplay	1	7	7	foodImage.79	FOODEEG_Images\0794.jpg	YN	Right	No	1.44200799998362	0	168722	252
331.595703125	1.44200799998362	decision	choicePhaseStart	1	7	7	foodImage.79	FOODEEG_Images\0794.jpg	YN	Right	No	1.44200799998362	0	169778	253
333.029296875	0	decision	response	1	7	7	foodImage.79	FOODEEG_Images\0794.jpg	YN	Right	No	1.44200799998362	0	170512	235
334.07421875	1	taste	trialStart	1	8	8	foodImage.102	FOODEEG_Images\0910.jpg	NY	Left	No	1.18114989995956	0	171047	251
335.11328125	2	taste	foodImageDisplay	1	8	8	foodImage.102	FOODEEG_Images\0910.jpg	NY	Left	No	1.18114989995956	0	171579	252
337.17578125	1.18114989995956	taste	choicePhaseStart	1	8	8	foodImage.102	FOODEEG_Images\0910.jpg	NY	Left	No	1.18114989995956	0	172635	253
338.349609375	0	taste	response	1	8	8	foodImage.102	FOODEEG_Images\0910.jpg	NY	Left	No	1.18114989995956	0	173236	234
339.392578125	1	taste	trialStart	1	9	9	foodImage.6	FOODEEG_Images\0113.jpg	NY	Right	Yes	1.14151610003319	0	173770	251
340.431640625	2	taste	foodImageDisplay	1	9	9	foodImage.6	FOODEEG_Images\0113.jpg	NY	Right	Yes	1.14151610003319	0	174302	252
342.49609375	1.14151610003319	taste	choicePhaseStart	1	9	9	foodImage.6	FOODEEG_Images\0113.jpg	NY	Right	Yes	1.14151610003319	0	175359	253
343.62890625	0	taste	response	1	9	9	foodImage.6	FOODEEG_Images\0113.jpg	NY	Right	Yes	1.14151610003319	0	175939	235
344.671875	1	health	trialStart	1	10	10	foodImage.70	FOODEEG_Images\0705.jpg	YN	Right	No	1.17253790004179	0	176473	251
345.728515625	2	health	foodImageDisplay	1	10	10	foodImage.70	FOODEEG_Images\0705.jpg	YN	Right	No	1.17253790004179	0	177014	252
347.791015625	1.17253790004179	health	choicePhaseStart	1	10	10	foodImage.70	FOODEEG_Images\0705.jpg	YN	Right	No	1.17253790004179	0	178070	253
348.95703125	0	health	response	1	10	10	foodImage.70	FOODEEG_Images\0705.jpg	YN	Right	No	1.17253790004179	0	178667	235
350.005859375	1	health	trialStart	1	11	11	foodImage.94	FOODEEG_Images\0902.jpg	NY	Left	No	1.74614780000411	0	179204	251
351.05859375	2	health	foodImageDisplay	1	11	11	foodImage.94	FOODEEG_Images\0902.jpg	NY	Left	No	1.74614780000411	0	179743	252
353.123046875	1.74614780000411	health	choicePhaseStart	1	11	11	foodImage.94	FOODEEG_Images\0902.jpg	NY	Left	No	1.74614780000411	0	180800	253
354.861328125	0	health	response	1	11	11	foodImage.94	FOODEEG_Images\0902.jpg	NY	Left	No	1.74614780000411	0	181690	234
355.90234375	1	decision	trialStart	1	12	12	foodImage.1	FOODEEG_Images\0004.jpg	YN	Left	Yes	1.34902359999251	0	182223	251
356.9453125	2	decision	foodImageDisplay	1	12	12	foodImage.1	FOODEEG_Images\0004.jpg	YN	Left	Yes	1.34902359999251	0	182757	252
359.0078125	1.34902359999251	decision	choicePhaseStart	1	12	12	foodImage.1	FOODEEG_Images\0004.jpg	YN	Left	Yes	1.34902359999251	0	183813	253
360.34765625	0	decision	response	1	12	12	foodImage.1	FOODEEG_Images\0004.jpg	YN	Left	Yes	1.34902359999251	0	184499	234
361.388671875	1	health	trialStart	1	13	13	foodImage.79	FOODEEG_Images\0794.jpg	NY	Right	Yes	0.906639000051655	0	185032	251
362.435546875	2	health	foodImageDisplay	1	13	13	foodImage.79	FOODEEG_Images\0794.jpg	NY	Right	Yes	0.906639000051655	0	185568	252
364.498046875	0.906639000051655	health	choicePhaseStart	1	13	13	foodImage.79	FOODEEG_Images\0794.jpg	NY	Right	Yes	0.906639000051655	0	186624	253
365.396484375	0	health	response	1	13	13	foodImage.79	FOODEEG_Images\0794.jpg	NY	Right	Yes	0.906639000051655	0	187084	235
366.435546875	1	health	trialStart	1	14	14	foodImage.65	FOODEEG_Images\0658.jpg	YN	Right	No	1.39124339993577	0	187616	251
367.478515625	2	health	foodImageDisplay	1	14	14	foodImage.65	FOODEEG_Images\0658.jpg	YN	Right	No	1.39124339993577	0	188150	252
369.541015625	1.39124339993577	health	choicePhaseStart	1	14	14	foodImage.65	FOODEEG_Images\0658.jpg	YN	Right	No	1.39124339993577	0	189206	253
370.923828125	0	health	response	1	14	14	foodImage.65	FOODEEG_Images\0658.jpg	YN	Right	No	1.39124339993577	0	189914	235
371.966796875	1	health	trialStart	1	15	15	foodImage.83	FOODEEG_Images\0827.jpg	NY	Right	Yes	1.1982113000704	0	190448	251
373.0234375	2	health	foodImageDisplay	1	15	15	foodImage.83	FOODEEG_Images\0827.jpg	NY	Right	Yes	1.1982113000704	0	190989	252
375.0859375	1.1982113000704	health	choicePhaseStart	1	15	15	foodImage.83	FOODEEG_Images\0827.jpg	NY	Right	Yes	1.1982113000704	0	192045	253
376.275390625	0	health	response	1	15	15	foodImage.83	FOODEEG_Images\0827.jpg	NY	Right	Yes	1.1982113000704	0	192654	235
377.31640625	1	decision	trialStart	1	16	16	foodImage.9	FOODEEG_Images\0138.jpg	NY	Right	Yes	0.686507300008088	0	193187	251
378.375	2	decision	foodImageDisplay	1	16	16	foodImage.9	FOODEEG_Images\0138.jpg	NY	Right	Yes	0.686507300008088	0	193729	252
380.4375	0.686507300008088	decision	choicePhaseStart	1	16	16	foodImage.9	FOODEEG_Images\0138.jpg	NY	Right	Yes	0.686507300008088	0	194785	253
381.115234375	0	decision	response	1	16	16	foodImage.9	FOODEEG_Images\0138.jpg	NY	Right	Yes	0.686507300008088	0	195132	235
382.15625	1	health	trialStart	1	17	17	foodImage.93	FOODEEG_Images\0901.jpg	NY	Left	No	0.874695900012739	0	195665	251
383.1953125	2	health	foodImageDisplay	1	17	17	foodImage.93	FOODEEG_Images\0901.jpg	NY	Left	No	0.874695900012739	0	196197	252
385.2578125	0.874695900012739	health	choicePhaseStart	1	17	17	foodImage.93	FOODEEG_Images\0901.jpg	NY	Left	No	0.874695900012739	0	197253	253
386.123046875	0	health	response	1	17	17	foodImage.93	FOODEEG_Images\0901.jpg	NY	Left	No	0.874695900012739	0	197696	234
387.1640625	1	health	trialStart	1	18	18	foodImage.118	FOODEEG_Images\0926.jpg	YN	Right	No	1.92951819999143	0	198229	251
388.212890625	2	health	foodImageDisplay	1	18	18	foodImage.118	FOODEEG_Images\0926.jpg	YN	Right	No	1.92951819999143	0	198766	252
390.275390625	1.92951819999143	health	choicePhaseStart	1	18	18	foodImage.118	FOODEEG_Images\0926.jpg	YN	Right	No	1.92951819999143	0	199822	253
392.1953125	0	health	response	1	18	18	foodImage.118	FOODEEG_Images\0926.jpg	YN	Right	No	1.92951819999143	0	200805	235
393.236328125	1	taste	trialStart	1	19	19	foodImage.80	FOODEEG_Images\0796.jpg	YN	Left	Yes	0.965996899991296	0	201338	251
394.294921875	2	taste	foodImageDisplay	1	19	19	foodImage.80	FOODEEG_Images\0796.jpg	YN	Left	Yes	0.965996899991296	0	201880	252
396.357421875	0.965996899991296	taste	choicePhaseStart	1	19	19	foodImage.80	FOODEEG_Images\0796.jpg	YN	Left	Yes	0.965996899991296	0	202936	253
397.314453125	0	taste	response	1	19	19	foodImage.80	FOODEEG_Images\0796.jpg	YN	Left	Yes	0.965996899991296	0	203426	234
398.357421875	1	health	trialStart	1	20	20	foodImage.3	FOODEEG_Images\0046.jpg	NY	Left	No	0.776189199998043	0	203960	251
399.412109375	2	health	foodImageDisplay	1	20	20	foodImage.3	FOODEEG_Images\0046.jpg	NY	Left	No	0.776189199998043	0	204500	252
401.474609375	0.776189199998043	health	choicePhaseStart	1	20	20	foodImage.3	FOODEEG_Images\0046.jpg	NY	Left	No	0.776189199998043	0	205556	253
402.2421875	0	health	response	1	20	20	foodImage.3	FOODEEG_Images\0046.jpg	NY	Left	No	0.776189199998043	0	205949	234
403.28515625	1	decision	trialStart	1	21	21	foodImage.47	FOODEEG_Images\0488.jpg	NY	Right	Yes	1.55628870008513	0	206483	251
404.328125	2	decision	foodImageDisplay	1	21	21	foodImage.47	FOODEEG_Images\0488.jpg	NY	Right	Yes	1.55628870008513	0	207017	252
406.390625	1.55628870008513	decision	choicePhaseStart	1	21	21	foodImage.47	FOODEEG_Images\0488.jpg	NY	Right	Yes	1.55628870008513	0	208073	253
407.9375	0	decision	response	1	21	21	foodImage.47	FOODEEG_Images\0488.jpg	NY	Right	Yes	1.55628870008513	0	208865	235
408.98046875	1	taste	trialStart	1	22	22	foodImage.118	FOODEEG_Images\0926.jpg	YN	Right	No	1.0942403000081	0	209399	251
410.017578125	2	taste	foodImageDisplay	1	22	22	foodImage.118	FOODEEG_Images\0926.jpg	YN	Right	No	1.0942403000081	0	209930	252
412.083984375	1.0942403000081	taste	choicePhaseStart	1	22	22	foodImage.118	FOODEEG_Images\0926.jpg	YN	Right	No	1.0942403000081	0	210988	253
413.169921875	0	taste	response	1	22	22	foodImage.118	FOODEEG_Images\0926.jpg	YN	Right	No	1.0942403000081	0	211544	235
414.212890625	1	health	trialStart	1	23	23	foodImage.36	FOODEEG_Images\0352.jpg	NY	Left	No	1.8149424000876	0	212078	251
415.267578125	2	health	foodImageDisplay	1	23	23	foodImage.36	FOODEEG_Images\0352.jpg	NY	Left	No	1.8149424000876	0	212618	252
417.330078125	1.8149424000876	health	choicePhaseStart	1	23	23	foodImage.36	FOODEEG_Images\0352.jpg	NY	Left	No	1.8149424000876	0	213674	253
419.13671875	0	health	response	1	23	23	foodImage.36	FOODEEG_Images\0352.jpg	NY	Left	No	1.8149424000876	0	214599	234
420.181640625	1	health	trialStart	1	24	24	foodImage.69	FOODEEG_Images\0693.jpg	YN	Left	Yes	0.997550799977034	0	215134	251
421.22265625	2	health	foodImageDisplay	1	24	24	foodImage.69	FOODEEG_Images\0693.jpg	YN	Left	Yes	0.997550799977034	0	215667	252
423.28515625	0.997550799977034	health	choicePhaseStart	1	24	24	foodImage.69	FOODEEG_Images\0693.jpg	YN	Left	Yes	0.997550799977034	0	216723	253
424.2734375	0	health	response	1	24	24	foodImage.69	FOODEEG_Images\0693.jpg	YN	Left	Yes	0.997550799977034	0	217229	234
425.322265625	1	decision	trialStart	1	25	25	foodImage.96	FOODEEG_Images\0904.jpg	NY	Left	No	1.04353009990882	0	217766	251
426.361328125	2	decision	foodImageDisplay	1	25	25	foodImage.96	FOODEEG_Images\0904.jpg	NY	Left	No	1.04353009990882	0	218298	252
428.423828125	1.04353009990882	decision	choicePhaseStart	1	25	25	foodImage.96	FOODEEG_Images\0904.jpg	NY	Left	No	1.04353009990882	0	219354	253
429.45703125	0	decision	response	1	25	25	foodImage.96	FOODEEG_Images\0904.jpg	NY	Left	No	1.04353009990882	0	219883	234
430.498046875	1	taste	trialStart	1	26	26	foodImage.81	FOODEEG_Images\0797.jpg	YN	Right	No	0.745513399946503	0	220416	251
431.5546875	2	taste	foodImageDisplay	1	26	26	foodImage.81	FOODEEG_Images\0797.jpg	YN	Right	No	0.745513399946503	0	220957	252
433.6171875	0.745513399946503	taste	choicePhaseStart	1	26	26	foodImage.81	FOODEEG_Images\0797.jpg	YN	Right	No	0.745513399946503	0	222013	253
434.353515625	0	taste	response	1	26	26	foodImage.81	FOODEEG_Images\0797.jpg	YN	Right	No	0.745513399946503	0	222390	235
435.39453125	1	decision	trialStart	1	27	27	foodImage.51	FOODEEG_Images\0536.jpg	YN	Right	No	1.77858659997582	0	222923	251
436.4375	2	decision	foodImageDisplay	1	27	27	foodImage.51	FOODEEG_Images\0536.jpg	YN	Right	No	1.77858659997582	0	223457	252
438.50390625	1.77858659997582	decision	choicePhaseStart	1	27	27	foodImage.51	FOODEEG_Images\0536.jpg	YN	Right	No	1.77858659997582	0	224515	253
440.2734375	0	decision	response	1	27	27	foodImage.51	FOODEEG_Images\0536.jpg	YN	Right	No	1.77858659997582	0	225421	235
441.314453125	1	taste	trialStart	1	28	28	foodImage.30	FOODEEG_Images\0282.jpg	NY	Right	Yes	1.61687749996781	0	225954	251
442.35546875	2	taste	foodImageDisplay	1	28	28	foodImage.30	FOODEEG_Images\0282.jpg	NY	Right	Yes	1.61687749996781	0	226487	252
444.41796875	1.61687749996781	taste	choicePhaseStart	1	28	28	foodImage.30	FOODEEG_Images\0282.jpg	NY	Right	Yes	1.61687749996781	0	227543	253
446.025390625	0	taste	response	1	28	28	foodImage.30	FOODEEG_Images\0282.jpg	NY	Right	Yes	1.61687749996781	0	228366	235
447.064453125	1	taste	trialStart	1	29	29	foodImage.96	FOODEEG_Images\0904.jpg	NY	Left	No	1.72119490010664	0	228898	251
448.10546875	2	taste	foodImageDisplay	1	29	29	foodImage.96	FOODEEG_Images\0904.jpg	NY	Left	No	1.72119490010664	0	229431	252
450.16796875	1.72119490010664	taste	choicePhaseStart	1	29	29	foodImage.96	FOODEEG_Images\0904.jpg	NY	Left	No	1.72119490010664	0	230487	253
451.880859375	0	taste	response	1	29	29	foodImage.96	FOODEEG_Images\0904.jpg	NY	Left	No	1.72119490010664	0	231364	234
452.923828125	1	taste	trialStart	1	30	30	foodImage.13	FOODEEG_Images\0183.jpg	YN	Left	Yes	1.01410199992824	0	231898	251
453.98046875	2	taste	foodImageDisplay	1	30	30	foodImage.13	FOODEEG_Images\0183.jpg	YN	Left	Yes	1.01410199992824	0	232439	252
456.04296875	1.01410199992824	taste	choicePhaseStart	1	30	30	foodImage.13	FOODEEG_Images\0183.jpg	YN	Left	Yes	1.01410199992824	0	233495	253
457.048828125	0	taste	response	1	30	30	foodImage.13	FOODEEG_Images\0183.jpg	YN	Left	Yes	1.01410199992824	0	234010	234
458.091796875	1	taste	trialStart	1	31	31	foodImage.76	FOODEEG_Images\0766.jpg	YN	Left	Yes	1.05952719994821	0	234544	251
459.134765625	2	taste	foodImageDisplay	1	31	31	foodImage.76	FOODEEG_Images\0766.jpg	YN	Left	Yes	1.05952719994821	0	235078	252
461.197265625	1.05952719994821	taste	choicePhaseStart	1	31	31	foodImage.76	FOODEEG_Images\0766.jpg	YN	Left	Yes	1.05952719994821	0	236134	253
462.248046875	0	taste	response	1	31	31	foodImage.76	FOODEEG_Images\0766.jpg	YN	Left	Yes	1.05952719994821	0	236672	234
463.291015625	1	decision	trialStart	1	32	32	foodImage.50	FOODEEG_Images\0529.jpg	NY	Left	No	0.804901800001971	0	237206	251
464.349609375	2	decision	foodImageDisplay	1	32	32	foodImage.50	FOODEEG_Images\0529.jpg	NY	Left	No	0.804901800001971	0	237748	252
466.412109375	0.804901800001971	decision	choicePhaseStart	1	32	32	foodImage.50	FOODEEG_Images\0529.jpg	NY	Left	No	0.804901800001971	0	238804	253
467.20703125	0	decision	response	1	32	32	foodImage.50	FOODEEG_Images\0529.jpg	NY	Left	No	0.804901800001971	0	239211	234
468.25	1	decision	trialStart	1	33	33	foodImage.100	FOODEEG_Images\0908.jpg	NY	Left	No	0.834409600007348	0	239745	251
469.287109375	2	decision	foodImageDisplay	1	33	33	foodImage.100	FOODEEG_Images\0908.jpg	NY	Left	No	0.834409600007348	0	240276	252
471.349609375	0.834409600007348	decision	choicePhaseStart	1	33	33	foodImage.100	FOODEEG_Images\0908.jpg	NY	Left	No	0.834409600007348	0	241332	253
472.17578125	0	decision	response	1	33	33	foodImage.100	FOODEEG_Images\0908.jpg	NY	Left	No	0.834409600007348	0	241755	234
473.224609375	1	health	trialStart	1	34	34	foodImage.49	FOODEEG_Images\0515.jpg	YN	Right	No	1.23266749992035	0	242292	251
474.265625	2	health	foodImageDisplay	1	34	34	foodImage.49	FOODEEG_Images\0515.jpg	YN	Right	No	1.23266749992035	0	242825	252
476.328125	1.23266749992035	health	choicePhaseStart	1	34	34	foodImage.49	FOODEEG_Images\0515.jpg	YN	Right	No	1.23266749992035	0	243881	253
477.55078125	0	health	response	1	34	34	foodImage.49	FOODEEG_Images\0515.jpg	YN	Right	No	1.23266749992035	0	244507	235
478.59375	1	taste	trialStart	1	35	35	foodImage.36	FOODEEG_Images\0352.jpg	YN	Left	Yes	0.743569200043567	0	245041	251
479.650390625	2	taste	foodImageDisplay	1	35	35	foodImage.36	FOODEEG_Images\0352.jpg	YN	Left	Yes	0.743569200043567	0	245582	252
481.712890625	0.743569200043567	taste	choicePhaseStart	1	35	35	foodImage.36	FOODEEG_Images\0352.jpg	YN	Left	Yes	0.743569200043567	0	246638	253
482.447265625	0	taste	response	1	35	35	foodImage.36	FOODEEG_Images\0352.jpg	YN	Left	Yes	0.743569200043567	0	247014	234
483.486328125	1	health	trialStart	1	36	36	foodImage.23	FOODEEG_Images\0244.jpg	NY	Right	Yes	2.19802460004576	0	247546	251
484.53125	2	health	foodImageDisplay	1	36	36	foodImage.23	FOODEEG_Images\0244.jpg	NY	Right	Yes	2.19802460004576	0	248081	252
486.59375	2.19802460004576	health	choicePhaseStart	1	36	36	foodImage.23	FOODEEG_Images\0244.jpg	NY	Right	Yes	2.19802460004576	0	249137	253
488.783203125	0	health	response	1	36	36	foodImage.23	FOODEEG_Images\0244.jpg	NY	Right	Yes	2.19802460004576	0	250258	235
489.82421875	1	health	trialStart	1	37	37	foodImage.25	FOODEEG_Images\0261.jpg	YN	Left	Yes	0.841735700028948	0	250791	251
490.865234375	2	health	foodImageDisplay	1	37	37	foodImage.25	FOODEEG_Images\0261.jpg	YN	Left	Yes	0.841735700028948	0	251324	252
492.927734375	0.841735700028948	health	choicePhaseStart	1	37	37	foodImage.25	FOODEEG_Images\0261.jpg	YN	Left	Yes	0.841735700028948	0	252380	253
493.7578125	0	health	response	1	37	37	foodImage.25	FOODEEG_Images\0261.jpg	YN	Left	Yes	0.841735700028948	0	252805	234
494.80078125	1	health	trialStart	1	38	38	foodImage.84	FOODEEG_Images\0830.jpg	YN	Left	Yes	0.739562800037675	0	253339	251
495.861328125	2	health	foodImageDisplay	1	38	38	foodImage.84	FOODEEG_Images\0830.jpg	YN	Left	Yes	0.739562800037675	0	253882	252
497.923828125	0.739562800037675	health	choicePhaseStart	1	38	38	foodImage.84	FOODEEG_Images\0830.jpg	YN	Left	Yes	0.739562800037675	0	254938	253
498.654296875	0	health	response	1	38	38	foodImage.84	FOODEEG_Images\0830.jpg	YN	Left	Yes	0.739562800037675	0	255312	234
499.697265625	1	taste	trialStart	1	39	39	foodImage.106	FOODEEG_Images\0914.jpg	NY	Left	No	1.40116130001843	0	255846	251
500.736328125	2	taste	foodImageDisplay	1	39	39	foodImage.106	FOODEEG_Images\0914.jpg	NY	Left	No	1.40116130001843	0	256378	252
502.798828125	1.40116130001843	taste	choicePhaseStart	1	39	39	foodImage.106	FOODEEG_Images\0914.jpg	NY	Left	No	1.40116130001843	0	257434	253
504.19140625	0	taste	response	1	39	39	foodImage.106	FOODEEG_Images\0914.jpg	NY	Left	No	1.40116130001843	0	258147	234
505.236328125	1	health	trialStart	1	40	40	foodImage.13	FOODEEG_Images\0183.jpg	NY	Right	Yes	0.770525500061922	0	258682	251
506.279296875	2	health	foodImageDisplay	1	40	40	foodImage.13	FOODEEG_Images\0183.jpg	NY	Right	Yes	0.770525500061922	0	259216	252
508.341796875	0.770525500061922	health	choicePhaseStart	1	40	40	foodImage.13	FOODEEG_Images\0183.jpg	NY	Right	Yes	0.770525500061922	0	260272	253
509.103515625	0	health	response	1	40	40	foodImage.13	FOODEEG_Images\0183.jpg	NY	Right	Yes	0.770525500061922	0	260662	235
510.150390625	1	decision	trialStart	1	41	41	foodImage.19	FOODEEG_Images\0225.jpg	YN	Left	Yes	1.251097499975	0	261198	251
511.193359375	2	decision	foodImageDisplay	1	41	41	foodImage.19	FOODEEG_Images\0225.jpg	YN	Left	Yes	1.251097499975	0	261732	252
513.26171875	1.251097499975	decision	choicePhaseStart	1	41	41	foodImage.19	FOODEEG_Images\0225.jpg	YN	Left	Yes	1.251097499975	0	262791	253
514.501953125	0	decision	response	1	41	41	foodImage.19	FOODEEG_Images\0225.jpg	YN	Left	Yes	1.251097499975	0	263426	234
515.544921875	1	decision	trialStart	1	42	42	foodImage.76	FOODEEG_Images\0766.jpg	NY	Right	Yes	1.5251385999145	0	263960	251
516.587890625	2	decision	foodImageDisplay	1	42	42	foodImage.76	FOODEEG_Images\0766.jpg	NY	Right	Yes	1.5251385999145	0	264494	252
518.650390625	1.5251385999145	decision	choicePhaseStart	1	42	42	foodImage.76	FOODEEG_Images\0766.jpg	NY	Right	Yes	1.5251385999145	0	265550	253
520.166015625	0	decision	response	1	42	42	foodImage.76	FOODEEG_Images\0766.jpg	NY	Right	Yes	1.5251385999145	0	266326	235
521.208984375	1	decision	trialStart	1	43	43	foodImage.110	FOODEEG_Images\0918.jpg	NY	Left	No	0.770004700054415	0	266860	251
522.24609375	2	decision	foodImageDisplay	1	43	43	foodImage.110	FOODEEG_Images\0918.jpg	NY	Left	No	0.770004700054415	0	267391	252
524.30859375	0.770004700054415	decision	choicePhaseStart	1	43	43	foodImage.110	FOODEEG_Images\0918.jpg	NY	Left	No	0.770004700054415	0	268447	253
525.0703125	0	decision	response	1	43	43	foodImage.110	FOODEEG_Images\0918.jpg	NY	Left	No	0.770004700054415	0	268837	234
526.11328125	1	decision	trialStart	1	44	44	foodImage.115	FOODEEG_Images\0923.jpg	YN	Right	No	0.669474499998614	0	269371	251
527.150390625	2	decision	foodImageDisplay	1	44	44	foodImage.115	FOODEEG_Images\0923.jpg	YN	Right	No	0.669474499998614	0	269902	252
529.216796875	0.669474499998614	decision	choicePhaseStart	1	44	44	foodImage.115	FOODEEG_Images\0923.jpg	YN	Right	No	0.669474499998614	0	270960	253
529.876953125	0	decision	response	1	44	44	foodImage.115	FOODEEG_Images\0923.jpg	YN	Right	No	0.669474499998614	0	271298	235
530.919921875	1	health	trialStart	1	45	45	foodImage.76	FOODEEG_Images\0766.jpg	YN	Left	Yes	0.573722900007851	0	271832	251
531.962890625	2	health	foodImageDisplay	1	45	45	foodImage.76	FOODEEG_Images\0766.jpg	YN	Left	Yes	0.573722900007851	0	272366	252
534.025390625	0.573722900007851	health	choicePhaseStart	1	45	45	foodImage.76	FOODEEG_Images\0766.jpg	YN	Left	Yes	0.573722900007851	0	273422	253
534.58984375	0	health	response	1	45	45	foodImage.76	FOODEEG_Images\0766.jpg	YN	Left	Yes	0.573722900007851	0	273711	234
535.63671875	1	health	trialStart	1	46	46	foodImage.28	FOODEEG_Images\0273.jpg	NY	Right	Yes	0.787421299959533	0	274247	251
536.677734375	2	health	foodImageDisplay	1	46	46	foodImage.28	FOODEEG_Images\0273.jpg	NY	Right	Yes	0.787421299959533	0	274780	252
538.740234375	0.787421299959533	health	choicePhaseStart	1	46	46	foodImage.28	FOODEEG_Images\0273.jpg	NY	Right	Yes	0.787421299959533	0	275836	253
539.517578125	0	health	response	1	46	46	foodImage.28	FOODEEG_Images\0273.jpg	NY	Right	Yes	0.787421299959533	0	276234	235
540.560546875	1	health	trialStart	1	47	47	foodImage.46	FOODEEG_Images\0479.jpg	YN	Left	Yes	0.756001900066622	0	276768	251
541.619140625	2	health	foodImageDisplay	1	47	47	foodImage.46	FOODEEG_Images\0479.jpg	YN	Left	Yes	0.756001900066622	0	277310	252
543.681640625	0.756001900066622	health	choicePhaseStart	1	47	47	foodImage.46	FOODEEG_Images\0479.jpg	YN	Left	Yes	0.756001900066622	0	278366	253
544.4296875	0	health	response	1	47	47	foodImage.46	FOODEEG_Images\0479.jpg	YN	Left	Yes	0.756001900066622	0	278749	234
545.47265625	1	decision	trialStart	1	48	48	foodImage.6	FOODEEG_Images\0113.jpg	NY	Right	Yes	1.64459879999049	0	279283	251
546.513671875	2	decision	foodImageDisplay	1	48	48	foodImage.6	FOODEEG_Images\0113.jpg	NY	Right	Yes	1.64459879999049	0	279816	252
548.576171875	1.64459879999049	decision	choicePhaseStart	1	48	48	foodImage.6	FOODEEG_Images\0113.jpg	NY	Right	Yes	1.64459879999049	0	280872	253
550.212890625	0	decision	response	1	48	48	foodImage.6	FOODEEG_Images\0113.jpg	NY	Right	Yes	1.64459879999049	0	281710	235
551.2578125	1	health	trialStart	1	49	49	foodImage.17	FOODEEG_Images\0199.jpg	YN	Left	Yes	0.669999900041148	0	282245	251
552.298828125	2	health	foodImageDisplay	1	49	49	foodImage.17	FOODEEG_Images\0199.jpg	YN	Left	Yes	0.669999900041148	0	282778	252
554.361328125	0.669999900041148	health	choicePhaseStart	1	49	49	foodImage.17	FOODEEG_Images\0199.jpg	YN	Left	Yes	0.669999900041148	0	283834	253
555.01953125	0	health	response	1	49	49	foodImage.17	FOODEEG_Images\0199.jpg	YN	Left	Yes	0.669999900041148	0	284171	234
556.064453125	1	decision	trialStart	1	50	50	foodImage.35	FOODEEG_Images\0350.jpg	YN	Left	Yes	0.809113699942827	0	284706	251
557.1015625	2	decision	foodImageDisplay	1	50	50	foodImage.35	FOODEEG_Images\0350.jpg	YN	Left	Yes	0.809113699942827	0	285237	252
559.1640625	0.809113699942827	decision	choicePhaseStart	1	50	50	foodImage.35	FOODEEG_Images\0350.jpg	YN	Left	Yes	0.809113699942827	0	286293	253
559.96484375	0	decision	response	1	50	50	foodImage.35	FOODEEG_Images\0350.jpg	YN	Left	Yes	0.809113699942827	0	286703	234
561.0078125	1	health	trialStart	1	51	51	foodImage.15	FOODEEG_Images\0189.jpg	YN	Right	No	0.734360700007528	0	287237	251
562.0625	2	health	foodImageDisplay	1	51	51	foodImage.15	FOODEEG_Images\0189.jpg	YN	Right	No	0.734360700007528	0	287777	252
564.125	0.734360700007528	health	choicePhaseStart	1	51	51	foodImage.15	FOODEEG_Images\0189.jpg	YN	Right	No	0.734360700007528	0	288833	253
564.8515625	0	health	response	1	51	51	foodImage.15	FOODEEG_Images\0189.jpg	YN	Right	No	0.734360700007528	0	289205	235
565.896484375	1	health	trialStart	1	52	52	foodImage.71	FOODEEG_Images\0713.jpg	NY	Left	No	0.869473699945956	0	289740	251
566.935546875	2	health	foodImageDisplay	1	52	52	foodImage.71	FOODEEG_Images\0713.jpg	NY	Left	No	0.869473699945956	0	290272	252
568.998046875	0.869473699945956	health	choicePhaseStart	1	52	52	foodImage.71	FOODEEG_Images\0713.jpg	NY	Left	No	0.869473699945956	0	291328	253
569.859375	0	health	response	1	52	52	foodImage.71	FOODEEG_Images\0713.jpg	NY	Left	No	0.869473699945956	0	291769	234
570.90625	1	decision	trialStart	1	53	53	foodImage.85	FOODEEG_Images\0841.jpg	NY	Right	Yes	0.882059599971399	0	292305	251
571.96484375	2	decision	foodImageDisplay	1	53	53	foodImage.85	FOODEEG_Images\0841.jpg	NY	Right	Yes	0.882059599971399	0	292847	252
574.029296875	0.882059599971399	decision	choicePhaseStart	1	53	53	foodImage.85	FOODEEG_Images\0841.jpg	NY	Right	Yes	0.882059599971399	0	293904	253
574.900390625	0	decision	response	1	53	53	foodImage.85	FOODEEG_Images\0841.jpg	NY	Right	Yes	0.882059599971399	0	294350	235
575.943359375	1	taste	trialStart	1	54	54	foodImage.64	FOODEEG_Images\0647.jpg	NY	Left	No	1.08700749999844	0	294884	251
577	2	taste	foodImageDisplay	1	54	54	foodImage.64	FOODEEG_Images\0647.jpg	NY	Left	No	1.08700749999844	0	295425	252
579.0625	1.08700749999844	taste	choicePhaseStart	1	54	54	foodImage.64	FOODEEG_Images\0647.jpg	NY	Left	No	1.08700749999844	0	296481	253
580.138671875	0	taste	response	1	54	54	foodImage.64	FOODEEG_Images\0647.jpg	NY	Left	No	1.08700749999844	0	297032	234
581.1796875	1	taste	trialStart	1	55	55	foodImage.17	FOODEEG_Images\0199.jpg	NY	Right	Yes	0.543815799988806	0	297565	251
582.22265625	2	taste	foodImageDisplay	1	55	55	foodImage.17	FOODEEG_Images\0199.jpg	NY	Right	Yes	0.543815799988806	0	298099	252
584.28515625	0.543815799988806	taste	choicePhaseStart	1	55	55	foodImage.17	FOODEEG_Images\0199.jpg	NY	Right	Yes	0.543815799988806	0	299155	253
584.8203125	0	taste	response	1	55	55	foodImage.17	FOODEEG_Images\0199.jpg	NY	Right	Yes	0.543815799988806	0	299429	235
585.86328125	1	decision	trialStart	1	56	56	foodImage.109	FOODEEG_Images\0917.jpg	YN	Right	No	0.82500769989565	0	299963	251
586.900390625	2	decision	foodImageDisplay	1	56	56	foodImage.109	FOODEEG_Images\0917.jpg	YN	Right	No	0.82500769989565	0	300494	252
588.962890625	0.82500769989565	decision	choicePhaseStart	1	56	56	foodImage.109	FOODEEG_Images\0917.jpg	YN	Right	No	0.82500769989565	0	301550	253
589.779296875	0	decision	response	1	56	56	foodImage.109	FOODEEG_Images\0917.jpg	YN	Right	No	0.82500769989565	0	301968	235
590.822265625	1	decision	trialStart	1	57	57	foodImage.119	FOODEEG_Images\0927.jpg	YN	Right	No	0.689403800060973	0	302502	251
591.859375	2	decision	foodImageDisplay	1	57	57	foodImage.119	FOODEEG_Images\0927.jpg	YN	Right	No	0.689403800060973	0	303033	252
593.921875	0.689403800060973	decision	choicePhaseStart	1	57	57	foodImage.119	FOODEEG_Images\0927.jpg	YN	Right	No	0.689403800060973	0	304089	253
594.603515625	0	decision	response	1	57	57	foodImage.119	FOODEEG_Images\0927.jpg	YN	Right	No	0.689403800060973	0	304438	235
595.646484375	1	decision	trialStart	1	58	58	foodImage.39	FOODEEG_Images\0367.jpg	NY	Right	Yes	0.669166899984702	0	304972	251
596.685546875	2	decision	foodImageDisplay	1	58	58	foodImage.39	FOODEEG_Images\0367.jpg	NY	Right	Yes	0.669166899984702	0	305504	252
598.75	0.669166899984702	decision	choicePhaseStart	1	58	58	foodImage.39	FOODEEG_Images\0367.jpg	NY	Right	Yes	0.669166899984702	0	306561	253
599.41015625	0	decision	response	1	58	58	foodImage.39	FOODEEG_Images\0367.jpg	NY	Right	Yes	0.669166899984702	0	306899	235
600.453125	1	taste	trialStart	1	59	59	foodImage.120	FOODEEG_Images\0928.jpg	NY	Left	No	1.09773199993651	0	307433	251
601.4921875	2	taste	foodImageDisplay	1	59	59	foodImage.120	FOODEEG_Images\0928.jpg	NY	Left	No	1.09773199993651	0	307965	252
603.552734375	1.09773199993651	taste	choicePhaseStart	1	59	59	foodImage.120	FOODEEG_Images\0928.jpg	NY	Left	No	1.09773199993651	0	309020	253
604.642578125	0	taste	response	1	59	59	foodImage.120	FOODEEG_Images\0928.jpg	NY	Left	No	1.09773199993651	0	309578	234
605.6875	1	decision	trialStart	1	60	60	foodImage.101	FOODEEG_Images\0909.jpg	YN	Right	No	0.531136199948378	0	310113	251
606.736328125	2	decision	foodImageDisplay	1	60	60	foodImage.101	FOODEEG_Images\0909.jpg	YN	Right	No	0.531136199948378	0	310650	252
608.798828125	0.531136199948378	decision	choicePhaseStart	1	60	60	foodImage.101	FOODEEG_Images\0909.jpg	YN	Right	No	0.531136199948378	0	311706	253
609.322265625	0	decision	response	1	60	60	foodImage.101	FOODEEG_Images\0909.jpg	YN	Right	No	0.531136199948378	0	311974	235
611.37109375	39.568359375	n/a	blockEnd	n/a	n/a	n/a	n/a	n/a	n/a	n/a	n/a	n/a	n/a	313023	254
650.939453125	2	n/a	blockStart	2	n/a	n/a	n/a	n/a	n/a	n/a	n/a	n/a	n/a	333282	250
652.978515625	1	decision	trialStart	2	61	1	foodImage.86	FOODEEG_Images\0844.jpg	NY	Right	Yes	1.42321179993451	0	334326	251
654.0390625	2	decision	foodImageDisplay	2	61	1	foodImage.86	FOODEEG_Images\0844.jpg	NY	Right	Yes	1.42321179993451	0	334869	252
656.10546875	1.42321179993451	decision	choicePhaseStart	2	61	1	foodImage.86	FOODEEG_Images\0844.jpg	NY	Right	Yes	1.42321179993451	0	335927	253
657.521484375	0	decision	response	2	61	1	foodImage.86	FOODEEG_Images\0844.jpg	NY	Right	Yes	1.42321179993451	0	336652	235
658.560546875	1	health	trialStart	2	62	2	foodImage.120	FOODEEG_Images\0928.jpg	YN	Right	No	1.3461717000464	0	337184	251
659.599609375	2	health	foodImageDisplay	2	62	2	foodImage.120	FOODEEG_Images\0928.jpg	YN	Right	No	1.3461717000464	0	337716	252
661.662109375	1.3461717000464	health	choicePhaseStart	2	62	2	foodImage.120	FOODEEG_Images\0928.jpg	YN	Right	No	1.3461717000464	0	338772	253
663	0	health	response	2	62	2	foodImage.120	FOODEEG_Images\0928.jpg	YN	Right	No	1.3461717000464	0	339457	235
664.04296875	1	health	trialStart	2	63	3	foodImage.114	FOODEEG_Images\0922.jpg	NY	Right	Yes	1.39938580000307	0	339991	251
665.091796875	2	health	foodImageDisplay	2	63	3	foodImage.114	FOODEEG_Images\0922.jpg	NY	Right	Yes	1.39938580000307	0	340528	252
667.15234375	1.39938580000307	health	choicePhaseStart	2	63	3	foodImage.114	FOODEEG_Images\0922.jpg	NY	Right	Yes	1.39938580000307	0	341583	253
668.544921875	0	health	response	2	63	3	foodImage.114	FOODEEG_Images\0922.jpg	NY	Right	Yes	1.39938580000307	0	342296	235
669.5859375	1	decision	trialStart	2	64	4	foodImage.44	FOODEEG_Images\0459.jpg	YN	Left	Yes	1.20318329997826	0	342829	251
670.630859375	2	decision	foodImageDisplay	2	64	4	foodImage.44	FOODEEG_Images\0459.jpg	YN	Left	Yes	1.20318329997826	0	343364	252
672.693359375	1.20318329997826	decision	choicePhaseStart	2	64	4	foodImage.44	FOODEEG_Images\0459.jpg	YN	Left	Yes	1.20318329997826	0	344420	253
673.88671875	0	decision	response	2	64	4	foodImage.44	FOODEEG_Images\0459.jpg	YN	Left	Yes	1.20318329997826	0	345031	234
674.9296875	1	taste	trialStart	2	65	5	foodImage.85	FOODEEG_Images\0841.jpg	NY	Right	Yes	1.40514609997626	0	345565	251
675.98828125	2	taste	foodImageDisplay	2	65	5	foodImage.85	FOODEEG_Images\0841.jpg	NY	Right	Yes	1.40514609997626	0	346107	252
678.05078125	1.40514609997626	taste	choicePhaseStart	2	65	5	foodImage.85	FOODEEG_Images\0841.jpg	NY	Right	Yes	1.40514609997626	0	347163	253
679.447265625	0	taste	response	2	65	5	foodImage.85	FOODEEG_Images\0841.jpg	NY	Right	Yes	1.40514609997626	0	347878	235
680.490234375	1	health	trialStart	2	66	6	foodImage.37	FOODEEG_Images\0359.jpg	YN	Left	Yes	0.743925400078297	0	348412	251
681.544921875	2	health	foodImageDisplay	2	66	6	foodImage.37	FOODEEG_Images\0359.jpg	YN	Left	Yes	0.743925400078297	0	348952	252
683.607421875	0.743925400078297	health	choicePhaseStart	2	66	6	foodImage.37	FOODEEG_Images\0359.jpg	YN	Left	Yes	0.743925400078297	0	350008	253
684.34375	0	health	response	2	66	6	foodImage.37	FOODEEG_Images\0359.jpg	YN	Left	Yes	0.743925400078297	0	350385	234
685.38671875	1	decision	trialStart	2	67	7	foodImage.41	FOODEEG_Images\0409.jpg	YN	Left	Yes	0.804234000039287	0	350919	251
686.443359375	2	decision	foodImageDisplay	2	67	7	foodImage.41	FOODEEG_Images\0409.jpg	YN	Left	Yes	0.804234000039287	0	351460	252
688.5078125	0.804234000039287	decision	choicePhaseStart	2	67	7	foodImage.41	FOODEEG_Images\0409.jpg	YN	Left	Yes	0.804234000039287	0	352517	253
689.302734375	0	decision	response	2	67	7	foodImage.41	FOODEEG_Images\0409.jpg	YN	Left	Yes	0.804234000039287	0	352924	234
690.34375	1	decision	trialStart	2	68	8	foodImage.90	FOODEEG_Images\0890.jpg	YN	Right	No	1.4323961000191	0	353457	251
691.400390625	2	decision	foodImageDisplay	2	68	8	foodImage.90	FOODEEG_Images\0890.jpg	YN	Right	No	1.4323961000191	0	353998	252
693.462890625	1.4323961000191	decision	choicePhaseStart	2	68	8	foodImage.90	FOODEEG_Images\0890.jpg	YN	Right	No	1.4323961000191	0	355054	253
694.88671875	0	decision	response	2	68	8	foodImage.90	FOODEEG_Images\0890.jpg	YN	Right	No	1.4323961000191	0	355783	235
695.927734375	1	taste	trialStart	2	69	9	foodImage.51	FOODEEG_Images\0536.jpg	NY	Right	Yes	1.51661779999267	0	356316	251
696.97265625	2	taste	foodImageDisplay	2	69	9	foodImage.51	FOODEEG_Images\0536.jpg	NY	Right	Yes	1.51661779999267	0	356851	252
699.03515625	1.51661779999267	taste	choicePhaseStart	2	69	9	foodImage.51	FOODEEG_Images\0536.jpg	NY	Right	Yes	1.51661779999267	0	357907	253
700.54296875	0	taste	response	2	69	9	foodImage.51	FOODEEG_Images\0536.jpg	NY	Right	Yes	1.51661779999267	0	358679	235
701.5859375	1	taste	trialStart	2	70	10	foodImage.9	FOODEEG_Images\0138.jpg	NY	Right	Yes	0.57427560002543	0	359213	251
702.66015625	2	taste	foodImageDisplay	2	70	10	foodImage.9	FOODEEG_Images\0138.jpg	NY	Right	Yes	0.57427560002543	0	359763	252
704.72265625	0.57427560002543	taste	choicePhaseStart	2	70	10	foodImage.9	FOODEEG_Images\0138.jpg	NY	Right	Yes	0.57427560002543	0	360819	253
705.287109375	0	taste	response	2	70	10	foodImage.9	FOODEEG_Images\0138.jpg	NY	Right	Yes	0.57427560002543	0	361108	235
706.328125	1	decision	trialStart	2	71	11	foodImage.89	FOODEEG_Images\0881.jpg	NY	Left	No	0.944637099979445	0	361641	251
707.3828125	2	decision	foodImageDisplay	2	71	11	foodImage.89	FOODEEG_Images\0881.jpg	NY	Left	No	0.944637099979445	0	362181	252
709.4453125	0.944637099979445	decision	choicePhaseStart	2	71	11	foodImage.89	FOODEEG_Images\0881.jpg	NY	Left	No	0.944637099979445	0	363237	253
710.3828125	0	decision	response	2	71	11	foodImage.89	FOODEEG_Images\0881.jpg	NY	Left	No	0.944637099979445	0	363717	234
711.42578125	1	decision	trialStart	2	72	12	foodImage.18	FOODEEG_Images\0202.jpg	NY	Left	No	0.683044099947438	0	364251	251
712.484375	2	decision	foodImageDisplay	2	72	12	foodImage.18	FOODEEG_Images\0202.jpg	NY	Left	No	0.683044099947438	0	364793	252
714.546875	0.683044099947438	decision	choicePhaseStart	2	72	12	foodImage.18	FOODEEG_Images\0202.jpg	NY	Left	No	0.683044099947438	0	365849	253
715.22265625	0	decision	response	2	72	12	foodImage.18	FOODEEG_Images\0202.jpg	NY	Left	No	0.683044099947438	0	366195	234
716.265625	1	taste	trialStart	2	73	13	foodImage.62	FOODEEG_Images\0644.jpg	NY	Left	No	0.95724939997308	0	366729	251
717.32421875	2	taste	foodImageDisplay	2	73	13	foodImage.62	FOODEEG_Images\0644.jpg	NY	Left	No	0.95724939997308	0	367271	252
719.384765625	0.95724939997308	taste	choicePhaseStart	2	73	13	foodImage.62	FOODEEG_Images\0644.jpg	NY	Left	No	0.95724939997308	0	368326	253
720.333984375	0	taste	response	2	73	13	foodImage.62	FOODEEG_Images\0644.jpg	NY	Left	No	0.95724939997308	0	368812	234
721.380859375	1	health	trialStart	2	74	14	foodImage.20	FOODEEG_Images\0226.jpg	YN	Right	No	1.0964686999796	0	369348	251
722.421875	2	health	foodImageDisplay	2	74	14	foodImage.20	FOODEEG_Images\0226.jpg	YN	Right	No	1.0964686999796	0	369881	252
724.484375	1.0964686999796	health	choicePhaseStart	2	74	14	foodImage.20	FOODEEG_Images\0226.jpg	YN	Right	No	1.0964686999796	0	370937	253
725.57421875	0	health	response	2	74	14	foodImage.20	FOODEEG_Images\0226.jpg	YN	Right	No	1.0964686999796	0	371495	235
726.6171875	1	taste	trialStart	2	75	15	foodImage.5	FOODEEG_Images\0107.jpg	YN	Left	Yes	0.555297100101598	0	372029	251
727.673828125	2	taste	foodImageDisplay	2	75	15	foodImage.5	FOODEEG_Images\0107.jpg	YN	Left	Yes	0.555297100101598	0	372570	252
729.73828125	0.555297100101598	taste	choicePhaseStart	2	75	15	foodImage.5	FOODEEG_Images\0107.jpg	YN	Left	Yes	0.555297100101598	0	373627	253
730.28515625	0	taste	response	2	75	15	foodImage.5	FOODEEG_Images\0107.jpg	YN	Left	Yes	0.555297100101598	0	373907	234
731.330078125	1	taste	trialStart	2	76	16	foodImage.119	FOODEEG_Images\0927.jpg	NY	Left	No	0.540243300027214	0	374442	251
732.37109375	2	taste	foodImageDisplay	2	76	16	foodImage.119	FOODEEG_Images\0927.jpg	NY	Left	No	0.540243300027214	0	374975	252
734.43359375	0.540243300027214	taste	choicePhaseStart	2	76	16	foodImage.119	FOODEEG_Images\0927.jpg	NY	Left	No	0.540243300027214	0	376031	253
734.96484375	0	taste	response	2	76	16	foodImage.119	FOODEEG_Images\0927.jpg	NY	Left	No	0.540243300027214	0	376303	234
736.0078125	1	health	trialStart	2	77	17	foodImage.92	FOODEEG_Images\0900.jpg	YN	Right	No	0.835288100061007	0	376837	251
737.044921875	2	health	foodImageDisplay	2	77	17	foodImage.92	FOODEEG_Images\0900.jpg	YN	Right	No	0.835288100061007	0	377368	252
739.107421875	0.835288100061007	health	choicePhaseStart	2	77	17	foodImage.92	FOODEEG_Images\0900.jpg	YN	Right	No	0.835288100061007	0	378424	253
739.93359375	0	health	response	2	77	17	foodImage.92	FOODEEG_Images\0900.jpg	YN	Right	No	0.835288100061007	0	378847	235
740.9765625	1	decision	trialStart	2	78	18	foodImage.113	FOODEEG_Images\0921.jpg	YN	Right	No	0.576533599989489	0	379381	251
742.015625	2	decision	foodImageDisplay	2	78	18	foodImage.113	FOODEEG_Images\0921.jpg	YN	Right	No	0.576533599989489	0	379913	252
744.078125	0.576533599989489	decision	choicePhaseStart	2	78	18	foodImage.113	FOODEEG_Images\0921.jpg	YN	Right	No	0.576533599989489	0	380969	253
744.64453125	0	decision	response	2	78	18	foodImage.113	FOODEEG_Images\0921.jpg	YN	Right	No	0.576533599989489	0	381259	235
745.6875	1	taste	trialStart	2	79	19	foodImage.16	FOODEEG_Images\0196.jpg	NY	Left	No	0.880200100014918	0	381793	251
746.767578125	2	taste	foodImageDisplay	2	79	19	foodImage.16	FOODEEG_Images\0196.jpg	NY	Left	No	0.880200100014918	0	382346	252
748.830078125	0.880200100014918	taste	choicePhaseStart	2	79	19	foodImage.16	FOODEEG_Images\0196.jpg	NY	Left	No	0.880200100014918	0	383402	253
749.701171875	0	taste	response	2	79	19	foodImage.16	FOODEEG_Images\0196.jpg	NY	Left	No	0.880200100014918	0	383848	234
750.7421875	1	taste	trialStart	2	80	20	foodImage.28	FOODEEG_Images\0273.jpg	YN	Right	No	0.719370099948719	0	384381	251
751.783203125	2	taste	foodImageDisplay	2	80	20	foodImage.28	FOODEEG_Images\0273.jpg	YN	Right	No	0.719370099948719	0	384914	252
753.845703125	0.719370099948719	taste	choicePhaseStart	2	80	20	foodImage.28	FOODEEG_Images\0273.jpg	YN	Right	No	0.719370099948719	0	385970	253
754.556640625	0	taste	response	2	80	20	foodImage.28	FOODEEG_Images\0273.jpg	YN	Right	No	0.719370099948719	0	386334	235
755.603515625	1	health	trialStart	2	81	21	foodImage.35	FOODEEG_Images\0350.jpg	NY	Left	No	0.675335100037046	0	386870	251
756.64453125	2	health	foodImageDisplay	2	81	21	foodImage.35	FOODEEG_Images\0350.jpg	NY	Left	No	0.675335100037046	0	387403	252
758.70703125	0.675335100037046	health	choicePhaseStart	2	81	21	foodImage.35	FOODEEG_Images\0350.jpg	NY	Left	No	0.675335100037046	0	388459	253
759.373046875	0	health	response	2	81	21	foodImage.35	FOODEEG_Images\0350.jpg	NY	Left	No	0.675335100037046	0	388800	234
760.416015625	1	decision	trialStart	2	82	22	foodImage.34	FOODEEG_Images\0339.jpg	YN	Right	No	0.907370600034483	0	389334	251
761.474609375	2	decision	foodImageDisplay	2	82	22	foodImage.34	FOODEEG_Images\0339.jpg	YN	Right	No	0.907370600034483	0	389876	252
763.537109375	0.907370600034483	decision	choicePhaseStart	2	82	22	foodImage.34	FOODEEG_Images\0339.jpg	YN	Right	No	0.907370600034483	0	390932	253
764.435546875	0	decision	response	2	82	22	foodImage.34	FOODEEG_Images\0339.jpg	YN	Right	No	0.907370600034483	0	391392	235
765.48046875	1	health	trialStart	2	83	23	foodImage.2	FOODEEG_Images\0028.jpg	NY	Left	No	1.15615389996674	0	391927	251
766.521484375	2	health	foodImageDisplay	2	83	23	foodImage.2	FOODEEG_Images\0028.jpg	NY	Left	No	1.15615389996674	0	392460	252
768.5859375	1.15615389996674	health	choicePhaseStart	2	83	23	foodImage.2	FOODEEG_Images\0028.jpg	NY	Left	No	1.15615389996674	0	393517	253
769.732421875	0	health	response	2	83	23	foodImage.2	FOODEEG_Images\0028.jpg	NY	Left	No	1.15615389996674	0	394104	234
770.7734375	1	taste	trialStart	2	84	24	foodImage.55	FOODEEG_Images\0567.jpg	NY	Left	No	0.987936100107618	0	394637	251
771.833984375	2	taste	foodImageDisplay	2	84	24	foodImage.55	FOODEEG_Images\0567.jpg	NY	Left	No	0.987936100107618	0	395180	252
773.896484375	0.987936100107618	taste	choicePhaseStart	2	84	24	foodImage.55	FOODEEG_Images\0567.jpg	NY	Left	No	0.987936100107618	0	396236	253
774.876953125	0	taste	response	2	84	24	foodImage.55	FOODEEG_Images\0567.jpg	NY	Left	No	0.987936100107618	0	396738	234
775.919921875	1	decision	trialStart	2	85	25	foodImage.5	FOODEEG_Images\0107.jpg	NY	Right	Yes	0.531171799986623	0	397272	251
776.978515625	2	decision	foodImageDisplay	2	85	25	foodImage.5	FOODEEG_Images\0107.jpg	NY	Right	Yes	0.531171799986623	0	397814	252
779.041015625	0.531171799986623	decision	choicePhaseStart	2	85	25	foodImage.5	FOODEEG_Images\0107.jpg	NY	Right	Yes	0.531171799986623	0	398870	253
779.564453125	0	decision	response	2	85	25	foodImage.5	FOODEEG_Images\0107.jpg	NY	Right	Yes	0.531171799986623	0	399138	235
780.611328125	1	health	trialStart	2	86	26	foodImage.96	FOODEEG_Images\0904.jpg	YN	Left	Yes	0.901226000045426	0	399674	251
781.6484375	2	health	foodImageDisplay	2	86	26	foodImage.96	FOODEEG_Images\0904.jpg	YN	Left	Yes	0.901226000045426	0	400205	252
783.7109375	0.901226000045426	health	choicePhaseStart	2	86	26	foodImage.96	FOODEEG_Images\0904.jpg	YN	Left	Yes	0.901226000045426	0	401261	253
784.603515625	0	health	response	2	86	26	foodImage.96	FOODEEG_Images\0904.jpg	YN	Left	Yes	0.901226000045426	0	401718	234
785.65234375	1	decision	trialStart	2	87	27	foodImage.104	FOODEEG_Images\0912.jpg	YN	Left	Yes	0.995195100083947	0	402255	251
786.69140625	2	decision	foodImageDisplay	2	87	27	foodImage.104	FOODEEG_Images\0912.jpg	YN	Left	Yes	0.995195100083947	0	402787	252
788.75390625	0.995195100083947	decision	choicePhaseStart	2	87	27	foodImage.104	FOODEEG_Images\0912.jpg	YN	Left	Yes	0.995195100083947	0	403843	253
789.740234375	0	decision	response	2	87	27	foodImage.104	FOODEEG_Images\0912.jpg	YN	Left	Yes	0.995195100083947	0	404348	234
790.779296875	1	decision	trialStart	2	88	28	foodImage.72	FOODEEG_Images\0714.jpg	YN	Right	No	1.23330249998253	0	404880	251
791.8203125	2	decision	foodImageDisplay	2	88	28	foodImage.72	FOODEEG_Images\0714.jpg	YN	Right	No	1.23330249998253	0	405413	252
793.8828125	1.23330249998253	decision	choicePhaseStart	2	88	28	foodImage.72	FOODEEG_Images\0714.jpg	YN	Right	No	1.23330249998253	0	406469	253
795.107421875	0	decision	response	2	88	28	foodImage.72	FOODEEG_Images\0714.jpg	YN	Right	No	1.23330249998253	0	407096	235
796.150390625	1	health	trialStart	2	89	29	foodImage.78	FOODEEG_Images\0787.jpg	YN	Left	Yes	0.595329000032507	0	407630	251
797.1953125	2	health	foodImageDisplay	2	89	29	foodImage.78	FOODEEG_Images\0787.jpg	YN	Left	Yes	0.595329000032507	0	408165	252
799.2578125	0.595329000032507	health	choicePhaseStart	2	89	29	foodImage.78	FOODEEG_Images\0787.jpg	YN	Left	Yes	0.595329000032507	0	409221	253
799.841796875	0	health	response	2	89	29	foodImage.78	FOODEEG_Images\0787.jpg	YN	Left	Yes	0.595329000032507	0	409520	234
800.888671875	1	health	trialStart	2	90	30	foodImage.90	FOODEEG_Images\0890.jpg	YN	Right	No	0.723827200010419	0	410056	251
801.9453125	2	health	foodImageDisplay	2	90	30	foodImage.90	FOODEEG_Images\0890.jpg	YN	Right	No	0.723827200010419	0	410597	252
804.005859375	0.723827200010419	health	choicePhaseStart	2	90	30	foodImage.90	FOODEEG_Images\0890.jpg	YN	Right	No	0.723827200010419	0	411652	253
804.72265625	0	health	response	2	90	30	foodImage.90	FOODEEG_Images\0890.jpg	YN	Right	No	0.723827200010419	0	412019	235
805.765625	1	decision	trialStart	2	91	31	foodImage.23	FOODEEG_Images\0244.jpg	NY	Left	No	1.18279459991027	0	412553	251
806.8125	2	decision	foodImageDisplay	2	91	31	foodImage.23	FOODEEG_Images\0244.jpg	NY	Left	No	1.18279459991027	0	413089	252
808.875	1.18279459991027	decision	choicePhaseStart	2	91	31	foodImage.23	FOODEEG_Images\0244.jpg	NY	Left	No	1.18279459991027	0	414145	253
810.05078125	0	decision	response	2	91	31	foodImage.23	FOODEEG_Images\0244.jpg	NY	Left	No	1.18279459991027	0	414747	234
811.09375	1	health	trialStart	2	92	32	foodImage.99	FOODEEG_Images\0907.jpg	YN	Right	No	1.02534000005107	0	415281	251
812.138671875	2	health	foodImageDisplay	2	92	32	foodImage.99	FOODEEG_Images\0907.jpg	YN	Right	No	1.02534000005107	0	415816	252
814.201171875	1.02534000005107	health	choicePhaseStart	2	92	32	foodImage.99	FOODEEG_Images\0907.jpg	YN	Right	No	1.02534000005107	0	416872	253
815.21875	0	health	response	2	92	32	foodImage.99	FOODEEG_Images\0907.jpg	YN	Right	No	1.02534000005107	0	417393	235
816.2578125	1	taste	trialStart	2	93	33	foodImage.107	FOODEEG_Images\0915.jpg	YN	Right	No	0.698208200046793	0	417925	251
817.296875	2	taste	foodImageDisplay	2	93	33	foodImage.107	FOODEEG_Images\0915.jpg	YN	Right	No	0.698208200046793	0	418457	252
819.361328125	0.698208200046793	taste	choicePhaseStart	2	93	33	foodImage.107	FOODEEG_Images\0915.jpg	YN	Right	No	0.698208200046793	0	419514	253
820.05078125	0	taste	response	2	93	33	foodImage.107	FOODEEG_Images\0915.jpg	YN	Right	No	0.698208200046793	0	419867	235
821.091796875	1	health	trialStart	2	94	34	foodImage.7	FOODEEG_Images\0116.jpg	YN	Right	No	0.650289100012742	0	420400	251
822.13671875	2	health	foodImageDisplay	2	94	34	foodImage.7	FOODEEG_Images\0116.jpg	YN	Right	No	0.650289100012742	0	420935	252
824.19921875	0.650289100012742	health	choicePhaseStart	2	94	34	foodImage.7	FOODEEG_Images\0116.jpg	YN	Right	No	0.650289100012742	0	421991	253
824.841796875	0	health	response	2	94	34	foodImage.7	FOODEEG_Images\0116.jpg	YN	Right	No	0.650289100012742	0	422320	235
825.884765625	1	decision	trialStart	2	95	35	foodImage.26	FOODEEG_Images\0262.jpg	YN	Right	No	0.854343799990602	0	422854	251
826.92578125	2	decision	foodImageDisplay	2	95	35	foodImage.26	FOODEEG_Images\0262.jpg	YN	Right	No	0.854343799990602	0	423387	252
828.98828125	0.854343799990602	decision	choicePhaseStart	2	95	35	foodImage.26	FOODEEG_Images\0262.jpg	YN	Right	No	0.854343799990602	0	424443	253
829.833984375	0	decision	response	2	95	35	foodImage.26	FOODEEG_Images\0262.jpg	YN	Right	No	0.854343799990602	0	424876	235
830.876953125	1	decision	trialStart	2	96	36	foodImage.52	FOODEEG_Images\0539.jpg	YN	Right	No	1.17284939996898	0	425410	251
831.953125	2	decision	foodImageDisplay	2	96	36	foodImage.52	FOODEEG_Images\0539.jpg	YN	Right	No	1.17284939996898	0	425961	252
834.013671875	1.17284939996898	decision	choicePhaseStart	2	96	36	foodImage.52	FOODEEG_Images\0539.jpg	YN	Right	No	1.17284939996898	0	427016	253
835.177734375	0	decision	response	2	96	36	foodImage.52	FOODEEG_Images\0539.jpg	YN	Right	No	1.17284939996898	0	427612	235
836.220703125	1	taste	trialStart	2	97	37	foodImage.104	FOODEEG_Images\0912.jpg	YN	Left	Yes	0.912041599978693	0	428146	251
837.259765625	2	taste	foodImageDisplay	2	97	37	foodImage.104	FOODEEG_Images\0912.jpg	YN	Left	Yes	0.912041599978693	0	428678	252
839.322265625	0.912041599978693	taste	choicePhaseStart	2	97	37	foodImage.104	FOODEEG_Images\0912.jpg	YN	Left	Yes	0.912041599978693	0	429734	253
840.224609375	0	taste	response	2	97	37	foodImage.104	FOODEEG_Images\0912.jpg	YN	Left	Yes	0.912041599978693	0	430196	234
841.2734375	1	decision	trialStart	2	98	38	foodImage.82	FOODEEG_Images\0805.jpg	NY	Left	No	0.481898500001989	0	430733	251
842.337890625	2	decision	foodImageDisplay	2	98	38	foodImage.82	FOODEEG_Images\0805.jpg	NY	Left	No	0.481898500001989	0	431278	252
844.3984375	0.481898500001989	decision	choicePhaseStart	2	98	38	foodImage.82	FOODEEG_Images\0805.jpg	NY	Left	No	0.481898500001989	0	432333	253
844.873046875	0	decision	response	2	98	38	foodImage.82	FOODEEG_Images\0805.jpg	NY	Left	No	0.481898500001989	0	432576	234
845.916015625	1	taste	trialStart	2	99	39	foodImage.97	FOODEEG_Images\0905.jpg	NY	Left	No	0.810020999982953	0	433110	251
846.953125	2	taste	foodImageDisplay	2	99	39	foodImage.97	FOODEEG_Images\0905.jpg	NY	Left	No	0.810020999982953	0	433641	252
849.015625	0.810020999982953	taste	choicePhaseStart	2	99	39	foodImage.97	FOODEEG_Images\0905.jpg	NY	Left	No	0.810020999982953	0	434697	253
849.81640625	0	taste	response	2	99	39	foodImage.97	FOODEEG_Images\0905.jpg	NY	Left	No	0.810020999982953	0	435107	234
850.857421875	1	health	trialStart	2	100	40	foodImage.63	FOODEEG_Images\0645.jpg	YN	Right	No	1.46351759997196	0	435640	251
851.900390625	2	health	foodImageDisplay	2	100	40	foodImage.63	FOODEEG_Images\0645.jpg	YN	Right	No	1.46351759997196	0	436174	252
853.962890625	1.46351759997196	health	choicePhaseStart	2	100	40	foodImage.63	FOODEEG_Images\0645.jpg	YN	Right	No	1.46351759997196	0	437230	253
855.416015625	0	health	response	2	100	40	foodImage.63	FOODEEG_Images\0645.jpg	YN	Right	No	1.46351759997196	0	437974	235
856.4609375	1	health	trialStart	2	101	41	foodImage.4	FOODEEG_Images\0065.jpg	YN	Right	No	0.65572310006246	0	438509	251
857.515625	2	health	foodImageDisplay	2	101	41	foodImage.4	FOODEEG_Images\0065.jpg	YN	Right	No	0.65572310006246	0	439049	252
859.578125	0.65572310006246	health	choicePhaseStart	2	101	41	foodImage.4	FOODEEG_Images\0065.jpg	YN	Right	No	0.65572310006246	0	440105	253
860.224609375	0	health	response	2	101	41	foodImage.4	FOODEEG_Images\0065.jpg	YN	Right	No	0.65572310006246	0	440436	235
861.267578125	1	health	trialStart	2	102	42	foodImage.75	FOODEEG_Images\0763.jpg	NY	Right	Yes	1.04345390002709	0	440970	251
862.3125	2	health	foodImageDisplay	2	102	42	foodImage.75	FOODEEG_Images\0763.jpg	NY	Right	Yes	1.04345390002709	0	441505	252
864.375	1.04345390002709	health	choicePhaseStart	2	102	42	foodImage.75	FOODEEG_Images\0763.jpg	NY	Right	Yes	1.04345390002709	0	442561	253
865.408203125	0	health	response	2	102	42	foodImage.75	FOODEEG_Images\0763.jpg	NY	Right	Yes	1.04345390002709	0	443090	235
866.453125	1	decision	trialStart	2	103	43	foodImage.67	FOODEEG_Images\0679.jpg	YN	Right	No	0.81194719998166	0	443625	251
867.52734375	2	decision	foodImageDisplay	2	103	43	foodImage.67	FOODEEG_Images\0679.jpg	YN	Right	No	0.81194719998166	0	444175	252
869.587890625	0.81194719998166	decision	choicePhaseStart	2	103	43	foodImage.67	FOODEEG_Images\0679.jpg	YN	Right	No	0.81194719998166	0	445230	253
870.392578125	0	decision	response	2	103	43	foodImage.67	FOODEEG_Images\0679.jpg	YN	Right	No	0.81194719998166	0	445642	235
871.435546875	1	health	trialStart	2	104	44	foodImage.107	FOODEEG_Images\0915.jpg	YN	Right	No	0.967693499987945	0	446176	251
872.474609375	2	health	foodImageDisplay	2	104	44	foodImage.107	FOODEEG_Images\0915.jpg	YN	Right	No	0.967693499987945	0	446708	252
874.537109375	0.967693499987945	health	choicePhaseStart	2	104	44	foodImage.107	FOODEEG_Images\0915.jpg	YN	Right	No	0.967693499987945	0	447764	253
875.49609375	0	health	response	2	104	44	foodImage.107	FOODEEG_Images\0915.jpg	YN	Right	No	0.967693499987945	0	448255	235
876.5390625	1	decision	trialStart	2	105	45	foodImage.92	FOODEEG_Images\0900.jpg	NY	Right	Yes	1.23928870004602	0	448789	251
877.587890625	2	decision	foodImageDisplay	2	105	45	foodImage.92	FOODEEG_Images\0900.jpg	NY	Right	Yes	1.23928870004602	0	449326	252
879.650390625	1.23928870004602	decision	choicePhaseStart	2	105	45	foodImage.92	FOODEEG_Images\0900.jpg	NY	Right	Yes	1.23928870004602	0	450382	253
880.87890625	0	decision	response	2	105	45	foodImage.92	FOODEEG_Images\0900.jpg	NY	Right	Yes	1.23928870004602	0	451011	235
881.921875	1	decision	trialStart	2	106	46	foodImage.98	FOODEEG_Images\0906.jpg	NY	Left	No	1.53580289997626	0	451545	251
882.9609375	2	decision	foodImageDisplay	2	106	46	foodImage.98	FOODEEG_Images\0906.jpg	NY	Left	No	1.53580289997626	0	452077	252
885.0234375	1.53580289997626	decision	choicePhaseStart	2	106	46	foodImage.98	FOODEEG_Images\0906.jpg	NY	Left	No	1.53580289997626	0	453133	253
886.55078125	0	decision	response	2	106	46	foodImage.98	FOODEEG_Images\0906.jpg	NY	Left	No	1.53580289997626	0	453915	234
887.59375	1	decision	trialStart	2	107	47	foodImage.40	FOODEEG_Images\0373.jpg	NY	Right	Yes	0.828213899978437	0	454449	251
888.63671875	2	decision	foodImageDisplay	2	107	47	foodImage.40	FOODEEG_Images\0373.jpg	NY	Right	Yes	0.828213899978437	0	454983	252
890.69921875	0.828213899978437	decision	choicePhaseStart	2	107	47	foodImage.40	FOODEEG_Images\0373.jpg	NY	Right	Yes	0.828213899978437	0	456039	253
891.51953125	0	decision	response	2	107	47	foodImage.40	FOODEEG_Images\0373.jpg	NY	Right	Yes	0.828213899978437	0	456459	235
892.5625	1	taste	trialStart	2	108	48	foodImage.114	FOODEEG_Images\0922.jpg	NY	Right	Yes	0.777299099951051	0	456993	251
893.599609375	2	taste	foodImageDisplay	2	108	48	foodImage.114	FOODEEG_Images\0922.jpg	NY	Right	Yes	0.777299099951051	0	457524	252
895.662109375	0.777299099951051	taste	choicePhaseStart	2	108	48	foodImage.114	FOODEEG_Images\0922.jpg	NY	Right	Yes	0.777299099951051	0	458580	253
896.431640625	0	taste	response	2	108	48	foodImage.114	FOODEEG_Images\0922.jpg	NY	Right	Yes	0.777299099951051	0	458974	235
897.474609375	1	decision	trialStart	2	109	49	foodImage.61	FOODEEG_Images\0640.jpg	YN	Right	No	0.660032400046475	0	459508	251
898.517578125	2	decision	foodImageDisplay	2	109	49	foodImage.61	FOODEEG_Images\0640.jpg	YN	Right	No	0.660032400046475	0	460042	252
900.580078125	0.660032400046475	decision	choicePhaseStart	2	109	49	foodImage.61	FOODEEG_Images\0640.jpg	YN	Right	No	0.660032400046475	0	461098	253
901.23046875	0	decision	response	2	109	49	foodImage.61	FOODEEG_Images\0640.jpg	YN	Right	No	0.660032400046475	0	461431	235
902.2734375	1	health	trialStart	2	110	50	foodImage.80	FOODEEG_Images\0796.jpg	YN	Left	Yes	1.49523080000654	0	461965	251
903.330078125	2	health	foodImageDisplay	2	110	50	foodImage.80	FOODEEG_Images\0796.jpg	YN	Left	Yes	1.49523080000654	0	462506	252
905.392578125	1.49523080000654	health	choicePhaseStart	2	110	50	foodImage.80	FOODEEG_Images\0796.jpg	YN	Left	Yes	1.49523080000654	0	463562	253
906.87890625	0	health	response	2	110	50	foodImage.80	FOODEEG_Images\0796.jpg	YN	Left	Yes	1.49523080000654	0	464323	234
907.919921875	1	taste	trialStart	2	111	51	foodImage.54	FOODEEG_Images\0560.jpg	NY	Right	Yes	0.784351899987087	0	464856	251
908.974609375	2	taste	foodImageDisplay	2	111	51	foodImage.54	FOODEEG_Images\0560.jpg	NY	Right	Yes	0.784351899987087	0	465396	252
911.0390625	0.784351899987087	taste	choicePhaseStart	2	111	51	foodImage.54	FOODEEG_Images\0560.jpg	NY	Right	Yes	0.784351899987087	0	466453	253
911.814453125	0	taste	response	2	111	51	foodImage.54	FOODEEG_Images\0560.jpg	NY	Right	Yes	0.784351899987087	0	466850	235
912.857421875	1	health	trialStart	2	112	52	foodImage.42	FOODEEG_Images\0438.jpg	YN	Left	Yes	1.28873359994031	0	467384	251
913.953125	2	health	foodImageDisplay	2	112	52	foodImage.42	FOODEEG_Images\0438.jpg	YN	Left	Yes	1.28873359994031	0	467945	252
916.015625	1.28873359994031	health	choicePhaseStart	2	112	52	foodImage.42	FOODEEG_Images\0438.jpg	YN	Left	Yes	1.28873359994031	0	469001	253
917.294921875	0	health	response	2	112	52	foodImage.42	FOODEEG_Images\0438.jpg	YN	Left	Yes	1.28873359994031	0	469656	234
918.3359375	1	health	trialStart	2	113	53	foodImage.1	FOODEEG_Images\0004.jpg	YN	Right	No	0.579497499973513	0	470189	251
919.380859375	2	health	foodImageDisplay	2	113	53	foodImage.1	FOODEEG_Images\0004.jpg	YN	Right	No	0.579497499973513	0	470724	252
921.443359375	0.579497499973513	health	choicePhaseStart	2	113	53	foodImage.1	FOODEEG_Images\0004.jpg	YN	Right	No	0.579497499973513	0	471780	253
922.013671875	0	health	response	2	113	53	foodImage.1	FOODEEG_Images\0004.jpg	YN	Right	No	0.579497499973513	0	472072	235
923.064453125	1	taste	trialStart	2	114	54	foodImage.10	FOODEEG_Images\0145.jpg	NY	Right	Yes	0.678591000032611	0	472610	251
924.12109375	2	taste	foodImageDisplay	2	114	54	foodImage.10	FOODEEG_Images\0145.jpg	NY	Right	Yes	0.678591000032611	0	473151	252
926.18359375	0.678591000032611	taste	choicePhaseStart	2	114	54	foodImage.10	FOODEEG_Images\0145.jpg	NY	Right	Yes	0.678591000032611	0	474207	253
926.853515625	0	taste	response	2	114	54	foodImage.10	FOODEEG_Images\0145.jpg	NY	Right	Yes	0.678591000032611	0	474550	235
927.896484375	1	decision	trialStart	2	115	55	foodImage.114	FOODEEG_Images\0922.jpg	YN	Right	No	0.58497670001816	0	475084	251
928.93359375	2	decision	foodImageDisplay	2	115	55	foodImage.114	FOODEEG_Images\0922.jpg	YN	Right	No	0.58497670001816	0	475615	252
930.99609375	0.58497670001816	decision	choicePhaseStart	2	115	55	foodImage.114	FOODEEG_Images\0922.jpg	YN	Right	No	0.58497670001816	0	476671	253
931.57421875	0	decision	response	2	115	55	foodImage.114	FOODEEG_Images\0922.jpg	YN	Right	No	0.58497670001816	0	476967	235
932.6171875	1	decision	trialStart	2	116	56	foodImage.69	FOODEEG_Images\0693.jpg	NY	Left	No	1.11153529991861	0	477501	251
933.671875	2	decision	foodImageDisplay	2	116	56	foodImage.69	FOODEEG_Images\0693.jpg	NY	Left	No	1.11153529991861	0	478041	252
935.734375	1.11153529991861	decision	choicePhaseStart	2	116	56	foodImage.69	FOODEEG_Images\0693.jpg	NY	Left	No	1.11153529991861	0	479097	253
936.837890625	0	decision	response	2	116	56	foodImage.69	FOODEEG_Images\0693.jpg	NY	Left	No	1.11153529991861	0	479662	234
937.876953125	1	taste	trialStart	2	117	57	foodImage.18	FOODEEG_Images\0202.jpg	NY	Left	No	1.38553530001082	0	480194	251
938.93359375	2	taste	foodImageDisplay	2	117	57	foodImage.18	FOODEEG_Images\0202.jpg	NY	Left	No	1.38553530001082	0	480735	252
940.99609375	1.38553530001082	taste	choicePhaseStart	2	117	57	foodImage.18	FOODEEG_Images\0202.jpg	NY	Left	No	1.38553530001082	0	481791	253
942.373046875	0	taste	response	2	117	57	foodImage.18	FOODEEG_Images\0202.jpg	NY	Left	No	1.38553530001082	0	482496	234
943.416015625	1	taste	trialStart	2	118	58	foodImage.116	FOODEEG_Images\0924.jpg	NY	Left	No	0.719250999973156	0	483030	251
944.45703125	2	taste	foodImageDisplay	2	118	58	foodImage.116	FOODEEG_Images\0924.jpg	NY	Left	No	0.719250999973156	0	483563	252
946.51953125	0.719250999973156	taste	choicePhaseStart	2	118	58	foodImage.116	FOODEEG_Images\0924.jpg	NY	Left	No	0.719250999973156	0	484619	253
947.228515625	0	taste	response	2	118	58	foodImage.116	FOODEEG_Images\0924.jpg	NY	Left	No	0.719250999973156	0	484982	234
948.271484375	1	decision	trialStart	2	119	59	foodImage.42	FOODEEG_Images\0438.jpg	NY	Left	No	0.946425100089982	0	485516	251
949.357421875	2	decision	foodImageDisplay	2	119	59	foodImage.42	FOODEEG_Images\0438.jpg	NY	Left	No	0.946425100089982	0	486072	252
951.419921875	0.946425100089982	decision	choicePhaseStart	2	119	59	foodImage.42	FOODEEG_Images\0438.jpg	NY	Left	No	0.946425100089982	0	487128	253
952.357421875	0	decision	response	2	119	59	foodImage.42	FOODEEG_Images\0438.jpg	NY	Left	No	0.946425100089982	0	487608	234
953.400390625	1	decision	trialStart	2	120	60	foodImage.31	FOODEEG_Images\0294.jpg	NY	Right	Yes	0.663641200051643	0	488142	251
954.462890625	2	decision	foodImageDisplay	2	120	60	foodImage.31	FOODEEG_Images\0294.jpg	NY	Right	Yes	0.663641200051643	0	488686	252
956.525390625	0.663641200051643	decision	choicePhaseStart	2	120	60	foodImage.31	FOODEEG_Images\0294.jpg	NY	Right	Yes	0.663641200051643	0	489742	253
957.181640625	0	decision	response	2	120	60	foodImage.31	FOODEEG_Images\0294.jpg	NY	Right	Yes	0.663641200051643	0	490078	235
959.22265625	67.65625	n/a	blockEnd	n/a	n/a	n/a	n/a	n/a	n/a	n/a	n/a	n/a	n/a	491123	254
1026.87890625	2	n/a	blockStart	3	n/a	n/a	n/a	n/a	n/a	n/a	n/a	n/a	n/a	525763	250
1028.91015625	1	taste	trialStart	3	121	1	foodImage.105	FOODEEG_Images\0913.jpg	YN	Right	No	0.587893699994311	0	526803	251
1029.947265625	2	taste	foodImageDisplay	3	121	1	foodImage.105	FOODEEG_Images\0913.jpg	YN	Right	No	0.587893699994311	0	527334	252
1032.009765625	0.587893699994311	taste	choicePhaseStart	3	121	1	foodImage.105	FOODEEG_Images\0913.jpg	YN	Right	No	0.587893699994311	0	528390	253
1032.59375	0	taste	response	3	121	1	foodImage.105	FOODEEG_Images\0913.jpg	YN	Right	No	0.587893699994311	0	528689	235
1033.63671875	1	health	trialStart	3	122	2	foodImage.95	FOODEEG_Images\0903.jpg	NY	Left	No	0.701349299983121	0	529223	251
1034.677734375	2	health	foodImageDisplay	3	122	2	foodImage.95	FOODEEG_Images\0903.jpg	NY	Left	No	0.701349299983121	0	529756	252
1036.740234375	0.701349299983121	health	choicePhaseStart	3	122	2	foodImage.95	FOODEEG_Images\0903.jpg	NY	Left	No	0.701349299983121	0	530812	253
1037.43359375	0	health	response	3	122	2	foodImage.95	FOODEEG_Images\0903.jpg	NY	Left	No	0.701349299983121	0	531167	234
1038.478515625	1	decision	trialStart	3	123	3	foodImage.49	FOODEEG_Images\0515.jpg	YN	Right	No	0.825424999929965	0	531702	251
1039.5234375	2	decision	foodImageDisplay	3	123	3	foodImage.49	FOODEEG_Images\0515.jpg	YN	Right	No	0.825424999929965	0	532237	252
1041.5859375	0.825424999929965	decision	choicePhaseStart	3	123	3	foodImage.49	FOODEEG_Images\0515.jpg	YN	Right	No	0.825424999929965	0	533293	253
1042.40234375	0	decision	response	3	123	3	foodImage.49	FOODEEG_Images\0515.jpg	YN	Right	No	0.825424999929965	0	533711	235
1043.443359375	1	health	trialStart	3	124	4	foodImage.39	FOODEEG_Images\0367.jpg	YN	Right	No	0.768912600004114	0	534244	251
1044.482421875	2	health	foodImageDisplay	3	124	4	foodImage.39	FOODEEG_Images\0367.jpg	YN	Right	No	0.768912600004114	0	534776	252
1046.544921875	0.768912600004114	health	choicePhaseStart	3	124	4	foodImage.39	FOODEEG_Images\0367.jpg	YN	Right	No	0.768912600004114	0	535832	253
1047.3046875	0	health	response	3	124	4	foodImage.39	FOODEEG_Images\0367.jpg	YN	Right	No	0.768912600004114	0	536221	235
1048.34765625	1	taste	trialStart	3	125	5	foodImage.109	FOODEEG_Images\0917.jpg	NY	Left	No	0.664401300018653	0	536755	251
1049.39453125	2	taste	foodImageDisplay	3	125	5	foodImage.109	FOODEEG_Images\0917.jpg	NY	Left	No	0.664401300018653	0	537291	252
1051.458984375	0.664401300018653	taste	choicePhaseStart	3	125	5	foodImage.109	FOODEEG_Images\0917.jpg	NY	Left	No	0.664401300018653	0	538348	253
1052.11328125	0	taste	response	3	125	5	foodImage.109	FOODEEG_Images\0917.jpg	NY	Left	No	0.664401300018653	0	538683	234
1053.15625	1	taste	trialStart	3	126	6	foodImage.100	FOODEEG_Images\0908.jpg	NY	Left	No	0.530083900084719	0	539217	251
1054.193359375	2	taste	foodImageDisplay	3	126	6	foodImage.100	FOODEEG_Images\0908.jpg	NY	Left	No	0.530083900084719	0	539748	252
1056.255859375	0.530083900084719	taste	choicePhaseStart	3	126	6	foodImage.100	FOODEEG_Images\0908.jpg	NY	Left	No	0.530083900084719	0	540804	253
1056.77734375	0	taste	response	3	126	6	foodImage.100	FOODEEG_Images\0908.jpg	NY	Left	No	0.530083900084719	0	541071	234
1057.8203125	1	decision	trialStart	3	127	7	foodImage.21	FOODEEG_Images\0234.jpg	NY	Left	No	0.908131300006062	0	541605	251
1058.880859375	2	decision	foodImageDisplay	3	127	7	foodImage.21	FOODEEG_Images\0234.jpg	NY	Left	No	0.908131300006062	0	542148	252
1060.94140625	0.908131300006062	decision	choicePhaseStart	3	127	7	foodImage.21	FOODEEG_Images\0234.jpg	NY	Left	No	0.908131300006062	0	543203	253
1061.83984375	0	decision	response	3	127	7	foodImage.21	FOODEEG_Images\0234.jpg	NY	Left	No	0.908131300006062	0	543663	234
1062.888671875	1	health	trialStart	3	128	8	foodImage.102	FOODEEG_Images\0910.jpg	NY	Right	Yes	1.1242633999791	0	544200	251
1063.927734375	2	health	foodImageDisplay	3	128	8	foodImage.102	FOODEEG_Images\0910.jpg	NY	Right	Yes	1.1242633999791	0	544732	252
1065.990234375	1.1242633999791	health	choicePhaseStart	3	128	8	foodImage.102	FOODEEG_Images\0910.jpg	NY	Right	Yes	1.1242633999791	0	545788	253
1067.103515625	0	health	response	3	128	8	foodImage.102	FOODEEG_Images\0910.jpg	NY	Right	Yes	1.1242633999791	0	546358	235
1068.146484375	1	taste	trialStart	3	129	9	foodImage.58	FOODEEG_Images\0605.jpg	YN	Right	No	1.10025809996296	0	546892	251
1069.20703125	2	taste	foodImageDisplay	3	129	9	foodImage.58	FOODEEG_Images\0605.jpg	YN	Right	No	1.10025809996296	0	547435	252
1071.267578125	1.10025809996296	taste	choicePhaseStart	3	129	9	foodImage.58	FOODEEG_Images\0605.jpg	YN	Right	No	1.10025809996296	0	548490	253
1072.359375	0	taste	response	3	129	9	foodImage.58	FOODEEG_Images\0605.jpg	YN	Right	No	1.10025809996296	0	549049	235
1073.404296875	1	decision	trialStart	3	130	10	foodImage.37	FOODEEG_Images\0359.jpg	NY	Right	Yes	0.526072300039232	0	549584	251
1074.4453125	2	decision	foodImageDisplay	3	130	10	foodImage.37	FOODEEG_Images\0359.jpg	NY	Right	Yes	0.526072300039232	0	550117	252
1076.5078125	0.526072300039232	decision	choicePhaseStart	3	130	10	foodImage.37	FOODEEG_Images\0359.jpg	NY	Right	Yes	0.526072300039232	0	551173	253
1077.0234375	0	decision	response	3	130	10	foodImage.37	FOODEEG_Images\0359.jpg	NY	Right	Yes	0.526072300039232	0	551437	235
1078.06640625	1	taste	trialStart	3	131	11	foodImage.20	FOODEEG_Images\0226.jpg	NY	Right	Yes	1.11759999999776	0	551971	251
1079.107421875	2	taste	foodImageDisplay	3	131	11	foodImage.20	FOODEEG_Images\0226.jpg	NY	Right	Yes	1.11759999999776	0	552504	252
1081.169921875	1.11759999999776	taste	choicePhaseStart	3	131	11	foodImage.20	FOODEEG_Images\0226.jpg	NY	Right	Yes	1.11759999999776	0	553560	253
1082.279296875	0	taste	response	3	131	11	foodImage.20	FOODEEG_Images\0226.jpg	NY	Right	Yes	1.11759999999776	0	554128	235
1083.322265625	1	taste	trialStart	3	132	12	foodImage.27	FOODEEG_Images\0263.jpg	YN	Right	No	1.63279199996032	0	554662	251
1084.361328125	2	taste	foodImageDisplay	3	132	12	foodImage.27	FOODEEG_Images\0263.jpg	YN	Right	No	1.63279199996032	0	555194	252
1086.42578125	1.63279199996032	taste	choicePhaseStart	3	132	12	foodImage.27	FOODEEG_Images\0263.jpg	YN	Right	No	1.63279199996032	0	556251	253
1088.046875	0	taste	response	3	132	12	foodImage.27	FOODEEG_Images\0263.jpg	YN	Right	No	1.63279199996032	0	557081	235
1089.08984375	1	health	trialStart	3	133	13	foodImage.57	FOODEEG_Images\0587.jpg	NY	Left	No	0.820698200026527	0	557615	251
1090.1328125	2	health	foodImageDisplay	3	133	13	foodImage.57	FOODEEG_Images\0587.jpg	NY	Left	No	0.820698200026527	0	558149	252
1092.1953125	0.820698200026527	health	choicePhaseStart	3	133	13	foodImage.57	FOODEEG_Images\0587.jpg	NY	Left	No	0.820698200026527	0	559205	253
1093.0078125	0	health	response	3	133	13	foodImage.57	FOODEEG_Images\0587.jpg	NY	Left	No	0.820698200026527	0	559621	234
1094.052734375	1	health	trialStart	3	134	14	foodImage.113	FOODEEG_Images\0921.jpg	YN	Right	No	0.935232299962081	0	560156	251
1095.09765625	2	health	foodImageDisplay	3	134	14	foodImage.113	FOODEEG_Images\0921.jpg	YN	Right	No	0.935232299962081	0	560691	252
1097.16015625	0.935232299962081	health	choicePhaseStart	3	134	14	foodImage.113	FOODEEG_Images\0921.jpg	YN	Right	No	0.935232299962081	0	561747	253
1098.087890625	0	health	response	3	134	14	foodImage.113	FOODEEG_Images\0921.jpg	YN	Right	No	0.935232299962081	0	562222	235
1099.130859375	1	decision	trialStart	3	135	15	foodImage.62	FOODEEG_Images\0644.jpg	NY	Left	No	0.84312430000864	0	562756	251
1100.189453125	2	decision	foodImageDisplay	3	135	15	foodImage.62	FOODEEG_Images\0644.jpg	NY	Left	No	0.84312430000864	0	563298	252
1102.251953125	0.84312430000864	decision	choicePhaseStart	3	135	15	foodImage.62	FOODEEG_Images\0644.jpg	NY	Left	No	0.84312430000864	0	564354	253
1103.087890625	0	decision	response	3	135	15	foodImage.62	FOODEEG_Images\0644.jpg	NY	Left	No	0.84312430000864	0	564782	234
1104.1328125	1	taste	trialStart	3	136	16	foodImage.41	FOODEEG_Images\0409.jpg	YN	Left	Yes	0.799169500009157	0	565317	251
1105.177734375	2	taste	foodImageDisplay	3	136	16	foodImage.41	FOODEEG_Images\0409.jpg	YN	Left	Yes	0.799169500009157	0	565852	252
1107.240234375	0.799169500009157	taste	choicePhaseStart	3	136	16	foodImage.41	FOODEEG_Images\0409.jpg	YN	Left	Yes	0.799169500009157	0	566908	253
1108.03125	0	taste	response	3	136	16	foodImage.41	FOODEEG_Images\0409.jpg	YN	Left	Yes	0.799169500009157	0	567313	234
1109.07421875	1	taste	trialStart	3	137	17	foodImage.83	FOODEEG_Images\0827.jpg	NY	Left	No	1.01692600001115	0	567847	251
1110.12890625	2	taste	foodImageDisplay	3	137	17	foodImage.83	FOODEEG_Images\0827.jpg	NY	Left	No	1.01692600001115	0	568387	252
1112.19140625	1.01692600001115	taste	choicePhaseStart	3	137	17	foodImage.83	FOODEEG_Images\0827.jpg	NY	Left	No	1.01692600001115	0	569443	253
1113.19921875	0	taste	response	3	137	17	foodImage.83	FOODEEG_Images\0827.jpg	NY	Left	No	1.01692600001115	0	569959	234
1114.24609375	1	decision	trialStart	3	138	18	foodImage.91	FOODEEG_Images\0896.jpg	YN	Left	Yes	1.29742999991868	0	570495	251
1115.3203125	2	decision	foodImageDisplay	3	138	18	foodImage.91	FOODEEG_Images\0896.jpg	YN	Left	Yes	1.29742999991868	0	571045	252
1117.3828125	1.29742999991868	decision	choicePhaseStart	3	138	18	foodImage.91	FOODEEG_Images\0896.jpg	YN	Left	Yes	1.29742999991868	0	572101	253
1118.669921875	0	decision	response	3	138	18	foodImage.91	FOODEEG_Images\0896.jpg	YN	Left	Yes	1.29742999991868	0	572760	234
1119.712890625	1	decision	trialStart	3	139	19	foodImage.27	FOODEEG_Images\0263.jpg	NY	Left	No	1.27874300000258	0	573294	251
1120.75390625	2	decision	foodImageDisplay	3	139	19	foodImage.27	FOODEEG_Images\0263.jpg	NY	Left	No	1.27874300000258	0	573827	252
1122.81640625	1.27874300000258	decision	choicePhaseStart	3	139	19	foodImage.27	FOODEEG_Images\0263.jpg	NY	Left	No	1.27874300000258	0	574883	253
1124.0859375	0	decision	response	3	139	19	foodImage.27	FOODEEG_Images\0263.jpg	NY	Left	No	1.27874300000258	0	575533	234
1125.12890625	1	decision	trialStart	3	140	20	foodImage.73	FOODEEG_Images\0717.jpg	YN	Right	No	1.0610306999879	0	576067	251
1126.1875	2	decision	foodImageDisplay	3	140	20	foodImage.73	FOODEEG_Images\0717.jpg	YN	Right	No	1.0610306999879	0	576609	252
1128.25	1.0610306999879	decision	choicePhaseStart	3	140	20	foodImage.73	FOODEEG_Images\0717.jpg	YN	Right	No	1.0610306999879	0	577665	253
1129.302734375	0	decision	response	3	140	20	foodImage.73	FOODEEG_Images\0717.jpg	YN	Right	No	1.0610306999879	0	578204	235
1130.345703125	1	taste	trialStart	3	141	21	foodImage.95	FOODEEG_Images\0903.jpg	YN	Right	No	0.723099899943918	0	578738	251
1131.3828125	2	taste	foodImageDisplay	3	141	21	foodImage.95	FOODEEG_Images\0903.jpg	YN	Right	No	0.723099899943918	0	579269	252
1133.443359375	0.723099899943918	taste	choicePhaseStart	3	141	21	foodImage.95	FOODEEG_Images\0903.jpg	YN	Right	No	0.723099899943918	0	580324	253
1134.158203125	0	taste	response	3	141	21	foodImage.95	FOODEEG_Images\0903.jpg	YN	Right	No	0.723099899943918	0	580690	235
1135.201171875	1	health	trialStart	3	142	22	foodImage.98	FOODEEG_Images\0906.jpg	YN	Right	No	0.94373739999719	0	581224	251
1136.240234375	2	health	foodImageDisplay	3	142	22	foodImage.98	FOODEEG_Images\0906.jpg	YN	Right	No	0.94373739999719	0	581756	252
1138.302734375	0.94373739999719	health	choicePhaseStart	3	142	22	foodImage.98	FOODEEG_Images\0906.jpg	YN	Right	No	0.94373739999719	0	582812	253
1139.23828125	0	health	response	3	142	22	foodImage.98	FOODEEG_Images\0906.jpg	YN	Right	No	0.94373739999719	0	583291	235
1140.279296875	1	taste	trialStart	3	143	23	foodImage.99	FOODEEG_Images\0907.jpg	YN	Right	No	0.556854699971154	0	583824	251
1141.31640625	2	taste	foodImageDisplay	3	143	23	foodImage.99	FOODEEG_Images\0907.jpg	YN	Right	No	0.556854699971154	0	584355	252
1143.37890625	0.556854699971154	taste	choicePhaseStart	3	143	23	foodImage.99	FOODEEG_Images\0907.jpg	YN	Right	No	0.556854699971154	0	585411	253
1143.92578125	0	taste	response	3	143	23	foodImage.99	FOODEEG_Images\0907.jpg	YN	Right	No	0.556854699971154	0	585691	235
1144.970703125	1	decision	trialStart	3	144	24	foodImage.48	FOODEEG_Images\0494.jpg	YN	Right	No	1.03634979994968	0	586226	251
1146.01171875	2	decision	foodImageDisplay	3	144	24	foodImage.48	FOODEEG_Images\0494.jpg	YN	Right	No	1.03634979994968	0	586759	252
1148.07421875	1.03634979994968	decision	choicePhaseStart	3	144	24	foodImage.48	FOODEEG_Images\0494.jpg	YN	Right	No	1.03634979994968	0	587815	253
1149.1015625	0	decision	response	3	144	24	foodImage.48	FOODEEG_Images\0494.jpg	YN	Right	No	1.03634979994968	0	588341	235
1150.14453125	1	health	trialStart	3	145	25	foodImage.105	FOODEEG_Images\0913.jpg	YN	Right	No	0.690353900077753	0	588875	251
1151.181640625	2	health	foodImageDisplay	3	145	25	foodImage.105	FOODEEG_Images\0913.jpg	YN	Right	No	0.690353900077753	0	589406	252
1153.244140625	0.690353900077753	health	choicePhaseStart	3	145	25	foodImage.105	FOODEEG_Images\0913.jpg	YN	Right	No	0.690353900077753	0	590462	253
1153.92578125	0	health	response	3	145	25	foodImage.105	FOODEEG_Images\0913.jpg	YN	Right	No	0.690353900077753	0	590811	235
1154.96484375	1	health	trialStart	3	146	26	foodImage.50	FOODEEG_Images\0529.jpg	YN	Left	Yes	0.502431400003843	0	591343	251
1156.0234375	2	health	foodImageDisplay	3	146	26	foodImage.50	FOODEEG_Images\0529.jpg	YN	Left	Yes	0.502431400003843	0	591885	252
1158.0859375	0.502431400003843	health	choicePhaseStart	3	146	26	foodImage.50	FOODEEG_Images\0529.jpg	YN	Left	Yes	0.502431400003843	0	592941	253
1158.580078125	0	health	response	3	146	26	foodImage.50	FOODEEG_Images\0529.jpg	YN	Left	Yes	0.502431400003843	0	593194	234
1159.625	1	taste	trialStart	3	147	27	foodImage.53	FOODEEG_Images\0547.jpg	YN	Right	No	0.563224199926481	0	593729	251
1160.681640625	2	taste	foodImageDisplay	3	147	27	foodImage.53	FOODEEG_Images\0547.jpg	YN	Right	No	0.563224199926481	0	594270	252
1162.74609375	0.563224199926481	taste	choicePhaseStart	3	147	27	foodImage.53	FOODEEG_Images\0547.jpg	YN	Right	No	0.563224199926481	0	595327	253
1163.30078125	0	taste	response	3	147	27	foodImage.53	FOODEEG_Images\0547.jpg	YN	Right	No	0.563224199926481	0	595611	235
1164.34375	1	taste	trialStart	3	148	28	foodImage.35	FOODEEG_Images\0350.jpg	YN	Left	Yes	0.487487499951385	0	596145	251
1165.3828125	2	taste	foodImageDisplay	3	148	28	foodImage.35	FOODEEG_Images\0350.jpg	YN	Left	Yes	0.487487499951385	0	596677	252
1167.4453125	0.487487499951385	taste	choicePhaseStart	3	148	28	foodImage.35	FOODEEG_Images\0350.jpg	YN	Left	Yes	0.487487499951385	0	597733	253
1167.923828125	0	taste	response	3	148	28	foodImage.35	FOODEEG_Images\0350.jpg	YN	Left	Yes	0.487487499951385	0	597978	234
1168.96875	1	taste	trialStart	3	149	29	foodImage.74	FOODEEG_Images\0752.jpg	YN	Left	Yes	0.791872899979353	0	598513	251
1170.013671875	2	taste	foodImageDisplay	3	149	29	foodImage.74	FOODEEG_Images\0752.jpg	YN	Left	Yes	0.791872899979353	0	599048	252
1172.076171875	0.791872899979353	taste	choicePhaseStart	3	149	29	foodImage.74	FOODEEG_Images\0752.jpg	YN	Left	Yes	0.791872899979353	0	600104	253
1172.859375	0	taste	response	3	149	29	foodImage.74	FOODEEG_Images\0752.jpg	YN	Left	Yes	0.791872899979353	0	600505	234
1173.904296875	1	decision	trialStart	3	150	30	foodImage.10	FOODEEG_Images\0145.jpg	YN	Left	Yes	0.747144100023434	0	601040	251
1174.9609375	2	decision	foodImageDisplay	3	150	30	foodImage.10	FOODEEG_Images\0145.jpg	YN	Left	Yes	0.747144100023434	0	601581	252
1177.025390625	0.747144100023434	decision	choicePhaseStart	3	150	30	foodImage.10	FOODEEG_Images\0145.jpg	YN	Left	Yes	0.747144100023434	0	602638	253
1177.763671875	0	decision	response	3	150	30	foodImage.10	FOODEEG_Images\0145.jpg	YN	Left	Yes	0.747144100023434	0	603016	234
1178.806640625	1	taste	trialStart	3	151	31	foodImage.117	FOODEEG_Images\0925.jpg	YN	Left	Yes	0.688472499954514	0	603550	251
1179.845703125	2	taste	foodImageDisplay	3	151	31	foodImage.117	FOODEEG_Images\0925.jpg	YN	Left	Yes	0.688472499954514	0	604082	252
1181.908203125	0.688472499954514	taste	choicePhaseStart	3	151	31	foodImage.117	FOODEEG_Images\0925.jpg	YN	Left	Yes	0.688472499954514	0	605138	253
1182.587890625	0	taste	response	3	151	31	foodImage.117	FOODEEG_Images\0925.jpg	YN	Left	Yes	0.688472499954514	0	605486	234
1183.630859375	1	taste	trialStart	3	152	32	foodImage.70	FOODEEG_Images\0705.jpg	NY	Right	Yes	0.572136600036174	0	606020	251
1184.689453125	2	taste	foodImageDisplay	3	152	32	foodImage.70	FOODEEG_Images\0705.jpg	NY	Right	Yes	0.572136600036174	0	606562	252
1186.75390625	0.572136600036174	taste	choicePhaseStart	3	152	32	foodImage.70	FOODEEG_Images\0705.jpg	NY	Right	Yes	0.572136600036174	0	607619	253
1187.31640625	0	taste	response	3	152	32	foodImage.70	FOODEEG_Images\0705.jpg	NY	Right	Yes	0.572136600036174	0	607907	235
1188.359375	1	decision	trialStart	3	153	33	foodImage.32	FOODEEG_Images\0319.jpg	YN	Left	Yes	1.1875431999797	0	608441	251
1189.40234375	2	decision	foodImageDisplay	3	153	33	foodImage.32	FOODEEG_Images\0319.jpg	YN	Left	Yes	1.1875431999797	0	608975	252
1191.46484375	1.1875431999797	decision	choicePhaseStart	3	153	33	foodImage.32	FOODEEG_Images\0319.jpg	YN	Left	Yes	1.1875431999797	0	610031	253
1192.642578125	0	decision	response	3	153	33	foodImage.32	FOODEEG_Images\0319.jpg	YN	Left	Yes	1.1875431999797	0	610634	234
1193.6875	1	taste	trialStart	3	154	34	foodImage.34	FOODEEG_Images\0339.jpg	NY	Right	Yes	1.26390380004887	0	611169	251
1194.748046875	2	taste	foodImageDisplay	3	154	34	foodImage.34	FOODEEG_Images\0339.jpg	NY	Right	Yes	1.26390380004887	0	611712	252
1196.8125	1.26390380004887	taste	choicePhaseStart	3	154	34	foodImage.34	FOODEEG_Images\0339.jpg	NY	Right	Yes	1.26390380004887	0	612769	253
1198.06640625	0	taste	response	3	154	34	foodImage.34	FOODEEG_Images\0339.jpg	NY	Right	Yes	1.26390380004887	0	613411	235
1199.107421875	1	health	trialStart	3	155	35	foodImage.112	FOODEEG_Images\0920.jpg	NY	Right	Yes	1.28277090005577	0	613944	251
1200.146484375	2	health	foodImageDisplay	3	155	35	foodImage.112	FOODEEG_Images\0920.jpg	NY	Right	Yes	1.28277090005577	0	614476	252
1202.208984375	1.28277090005577	health	choicePhaseStart	3	155	35	foodImage.112	FOODEEG_Images\0920.jpg	NY	Right	Yes	1.28277090005577	0	615532	253
1203.482421875	0	health	response	3	155	35	foodImage.112	FOODEEG_Images\0920.jpg	NY	Right	Yes	1.28277090005577	0	616184	235
1204.525390625	1	health	trialStart	3	156	36	foodImage.73	FOODEEG_Images\0717.jpg	NY	Right	Yes	0.710204100003466	0	616718	251
1205.58203125	2	health	foodImageDisplay	3	156	36	foodImage.73	FOODEEG_Images\0717.jpg	NY	Right	Yes	0.710204100003466	0	617259	252
1207.64453125	0.710204100003466	health	choicePhaseStart	3	156	36	foodImage.73	FOODEEG_Images\0717.jpg	NY	Right	Yes	0.710204100003466	0	618315	253
1208.345703125	0	health	response	3	156	36	foodImage.73	FOODEEG_Images\0717.jpg	NY	Right	Yes	0.710204100003466	0	618674	235
1209.390625	1	decision	trialStart	3	157	37	foodImage.22	FOODEEG_Images\0236.jpg	YN	Left	Yes	0.69288789993152	0	619209	251
1210.431640625	2	decision	foodImageDisplay	3	157	37	foodImage.22	FOODEEG_Images\0236.jpg	YN	Left	Yes	0.69288789993152	0	619742	252
1212.494140625	0.69288789993152	decision	choicePhaseStart	3	157	37	foodImage.22	FOODEEG_Images\0236.jpg	YN	Left	Yes	0.69288789993152	0	620798	253
1213.177734375	0	decision	response	3	157	37	foodImage.22	FOODEEG_Images\0236.jpg	YN	Left	Yes	0.69288789993152	0	621148	234
1214.21875	1	health	trialStart	3	158	38	foodImage.45	FOODEEG_Images\0478.jpg	YN	Left	Yes	0.783372199977748	0	621681	251
1215.263671875	2	health	foodImageDisplay	3	158	38	foodImage.45	FOODEEG_Images\0478.jpg	YN	Left	Yes	0.783372199977748	0	622216	252
1217.32421875	0.783372199977748	health	choicePhaseStart	3	158	38	foodImage.45	FOODEEG_Images\0478.jpg	YN	Left	Yes	0.783372199977748	0	623271	253
1218.09765625	0	health	response	3	158	38	foodImage.45	FOODEEG_Images\0478.jpg	YN	Left	Yes	0.783372199977748	0	623667	234
1219.142578125	1	health	trialStart	3	159	39	foodImage.115	FOODEEG_Images\0923.jpg	YN	Left	Yes	1.4609000000637	0	624202	251
1220.1796875	2	health	foodImageDisplay	3	159	39	foodImage.115	FOODEEG_Images\0923.jpg	YN	Left	Yes	1.4609000000637	0	624733	252
1222.24609375	1.4609000000637	health	choicePhaseStart	3	159	39	foodImage.115	FOODEEG_Images\0923.jpg	YN	Left	Yes	1.4609000000637	0	625791	253
1223.697265625	0	health	response	3	159	39	foodImage.115	FOODEEG_Images\0923.jpg	YN	Left	Yes	1.4609000000637	0	626534	234
1224.73828125	1	health	trialStart	3	160	40	foodImage.8	FOODEEG_Images\0136.jpg	YN	Right	No	0.999418599996716	0	627067	251
1225.78125	2	health	foodImageDisplay	3	160	40	foodImage.8	FOODEEG_Images\0136.jpg	YN	Right	No	0.999418599996716	0	627601	252
1227.84375	0.999418599996716	health	choicePhaseStart	3	160	40	foodImage.8	FOODEEG_Images\0136.jpg	YN	Right	No	0.999418599996716	0	628657	253
1228.833984375	0	health	response	3	160	40	foodImage.8	FOODEEG_Images\0136.jpg	YN	Right	No	0.999418599996716	0	629164	235
1229.876953125	1	health	trialStart	3	161	41	foodImage.24	FOODEEG_Images\0250.jpg	NY	Right	Yes	0.56667660002131	0	629698	251
1230.91796875	2	health	foodImageDisplay	3	161	41	foodImage.24	FOODEEG_Images\0250.jpg	NY	Right	Yes	0.56667660002131	0	630231	252
1232.98046875	0.56667660002131	health	choicePhaseStart	3	161	41	foodImage.24	FOODEEG_Images\0250.jpg	NY	Right	Yes	0.56667660002131	0	631287	253
1233.537109375	0	health	response	3	161	41	foodImage.24	FOODEEG_Images\0250.jpg	NY	Right	Yes	0.56667660002131	0	631572	235
1234.580078125	1	taste	trialStart	3	162	42	foodImage.38	FOODEEG_Images\0365.jpg	NY	Right	Yes	0.705597599968314	0	632106	251
1235.619140625	2	taste	foodImageDisplay	3	162	42	foodImage.38	FOODEEG_Images\0365.jpg	NY	Right	Yes	0.705597599968314	0	632638	252
1237.681640625	0.705597599968314	taste	choicePhaseStart	3	162	42	foodImage.38	FOODEEG_Images\0365.jpg	NY	Right	Yes	0.705597599968314	0	633694	253
1238.376953125	0	taste	response	3	162	42	foodImage.38	FOODEEG_Images\0365.jpg	NY	Right	Yes	0.705597599968314	0	634050	235
1239.419921875	1	health	trialStart	3	163	43	foodImage.87	FOODEEG_Images\0873.jpg	NY	Right	Yes	1.31023520010058	0	634584	251
1240.478515625	2	health	foodImageDisplay	3	163	43	foodImage.87	FOODEEG_Images\0873.jpg	NY	Right	Yes	1.31023520010058	0	635126	252
1242.541015625	1.31023520010058	health	choicePhaseStart	3	163	43	foodImage.87	FOODEEG_Images\0873.jpg	NY	Right	Yes	1.31023520010058	0	636182	253
1243.841796875	0	health	response	3	163	43	foodImage.87	FOODEEG_Images\0873.jpg	NY	Right	Yes	1.31023520010058	0	636848	235
1244.884765625	1	taste	trialStart	3	164	44	foodImage.67	FOODEEG_Images\0679.jpg	NY	Right	Yes	0.789258999982849	0	637382	251
1245.943359375	2	taste	foodImageDisplay	3	164	44	foodImage.67	FOODEEG_Images\0679.jpg	NY	Right	Yes	0.789258999982849	0	637924	252
1248.005859375	0.789258999982849	taste	choicePhaseStart	3	164	44	foodImage.67	FOODEEG_Images\0679.jpg	NY	Right	Yes	0.789258999982849	0	638980	253
1248.78515625	0	taste	response	3	164	44	foodImage.67	FOODEEG_Images\0679.jpg	NY	Right	Yes	0.789258999982849	0	639379	235
1249.830078125	1	health	trialStart	3	165	45	foodImage.64	FOODEEG_Images\0647.jpg	YN	Left	Yes	0.748343799961731	0	639914	251
1250.88671875	2	health	foodImageDisplay	3	165	45	foodImage.64	FOODEEG_Images\0647.jpg	YN	Left	Yes	0.748343799961731	0	640455	252
1252.94921875	0.748343799961731	health	choicePhaseStart	3	165	45	foodImage.64	FOODEEG_Images\0647.jpg	YN	Left	Yes	0.748343799961731	0	641511	253
1253.689453125	0	health	response	3	165	45	foodImage.64	FOODEEG_Images\0647.jpg	YN	Left	Yes	0.748343799961731	0	641890	234
1254.732421875	1	health	trialStart	3	166	46	foodImage.51	FOODEEG_Images\0536.jpg	YN	Right	No	0.913566999952309	0	642424	251
1255.80078125	2	health	foodImageDisplay	3	166	46	foodImage.51	FOODEEG_Images\0536.jpg	YN	Right	No	0.913566999952309	0	642971	252
1257.86328125	0.913566999952309	health	choicePhaseStart	3	166	46	foodImage.51	FOODEEG_Images\0536.jpg	YN	Right	No	0.913566999952309	0	644027	253
1258.76953125	0	health	response	3	166	46	foodImage.51	FOODEEG_Images\0536.jpg	YN	Right	No	0.913566999952309	0	644491	235
1259.8125	1	health	trialStart	3	167	47	foodImage.10	FOODEEG_Images\0145.jpg	YN	Right	No	0.781656399951316	0	645025	251
1260.869140625	2	health	foodImageDisplay	3	167	47	foodImage.10	FOODEEG_Images\0145.jpg	YN	Right	No	0.781656399951316	0	645566	252
1262.931640625	0.781656399951316	health	choicePhaseStart	3	167	47	foodImage.10	FOODEEG_Images\0145.jpg	YN	Right	No	0.781656399951316	0	646622	253
1263.705078125	0	health	response	3	167	47	foodImage.10	FOODEEG_Images\0145.jpg	YN	Right	No	0.781656399951316	0	647018	235
1264.748046875	1	decision	trialStart	3	168	48	foodImage.58	FOODEEG_Images\0605.jpg	NY	Left	No	1.19866630004253	0	647552	251
1265.8046875	2	decision	foodImageDisplay	3	168	48	foodImage.58	FOODEEG_Images\0605.jpg	NY	Left	No	1.19866630004253	0	648093	252
1267.8671875	1.19866630004253	decision	choicePhaseStart	3	168	48	foodImage.58	FOODEEG_Images\0605.jpg	NY	Left	No	1.19866630004253	0	649149	253
1269.056640625	0	decision	response	3	168	48	foodImage.58	FOODEEG_Images\0605.jpg	NY	Left	No	1.19866630004253	0	649758	234
1270.10546875	1	taste	trialStart	3	169	49	foodImage.3	FOODEEG_Images\0046.jpg	YN	Left	Yes	0.79838789999485	0	650295	251
1271.1484375	2	taste	foodImageDisplay	3	169	49	foodImage.3	FOODEEG_Images\0046.jpg	YN	Left	Yes	0.79838789999485	0	650829	252
1273.2109375	0.79838789999485	taste	choicePhaseStart	3	169	49	foodImage.3	FOODEEG_Images\0046.jpg	YN	Left	Yes	0.79838789999485	0	651885	253
1274	0	taste	response	3	169	49	foodImage.3	FOODEEG_Images\0046.jpg	YN	Left	Yes	0.79838789999485	0	652289	234
1275.044921875	1	health	trialStart	3	170	50	foodImage.88	FOODEEG_Images\0878.jpg	YN	Right	No	0.671619100030512	0	652824	251
1276.09765625	2	health	foodImageDisplay	3	170	50	foodImage.88	FOODEEG_Images\0878.jpg	YN	Right	No	0.671619100030512	0	653363	252
1278.16015625	0.671619100030512	health	choicePhaseStart	3	170	50	foodImage.88	FOODEEG_Images\0878.jpg	YN	Right	No	0.671619100030512	0	654419	253
1278.82421875	0	health	response	3	170	50	foodImage.88	FOODEEG_Images\0878.jpg	YN	Right	No	0.671619100030512	0	654759	235
1279.8671875	1	health	trialStart	3	171	51	foodImage.54	FOODEEG_Images\0560.jpg	YN	Right	No	0.702735099941492	0	655293	251
1280.921875	2	health	foodImageDisplay	3	171	51	foodImage.54	FOODEEG_Images\0560.jpg	YN	Right	No	0.702735099941492	0	655833	252
1282.984375	0.702735099941492	health	choicePhaseStart	3	171	51	foodImage.54	FOODEEG_Images\0560.jpg	YN	Right	No	0.702735099941492	0	656889	253
1283.6796875	0	health	response	3	171	51	foodImage.54	FOODEEG_Images\0560.jpg	YN	Right	No	0.702735099941492	0	657245	235
1284.72265625	1	health	trialStart	3	172	52	foodImage.119	FOODEEG_Images\0927.jpg	YN	Right	No	0.65777219994925	0	657779	251
1285.759765625	2	health	foodImageDisplay	3	172	52	foodImage.119	FOODEEG_Images\0927.jpg	YN	Right	No	0.65777219994925	0	658310	252
1287.822265625	0.65777219994925	health	choicePhaseStart	3	172	52	foodImage.119	FOODEEG_Images\0927.jpg	YN	Right	No	0.65777219994925	0	659366	253
1288.470703125	0	health	response	3	172	52	foodImage.119	FOODEEG_Images\0927.jpg	YN	Right	No	0.65777219994925	0	659698	235
1289.513671875	1	health	trialStart	3	173	53	foodImage.66	FOODEEG_Images\0676.jpg	NY	Left	No	1.03035180002917	0	660232	251
1290.5546875	2	health	foodImageDisplay	3	173	53	foodImage.66	FOODEEG_Images\0676.jpg	NY	Left	No	1.03035180002917	0	660765	252
1292.6171875	1.03035180002917	health	choicePhaseStart	3	173	53	foodImage.66	FOODEEG_Images\0676.jpg	NY	Left	No	1.03035180002917	0	661821	253
1293.638671875	0	health	response	3	173	53	foodImage.66	FOODEEG_Images\0676.jpg	NY	Left	No	1.03035180002917	0	662344	234
1294.681640625	1	taste	trialStart	3	174	54	foodImage.82	FOODEEG_Images\0805.jpg	NY	Left	No	1.15825630002655	0	662878	251
1295.73828125	2	taste	foodImageDisplay	3	174	54	foodImage.82	FOODEEG_Images\0805.jpg	NY	Left	No	1.15825630002655	0	663419	252
1297.80078125	1.15825630002655	taste	choicePhaseStart	3	174	54	foodImage.82	FOODEEG_Images\0805.jpg	NY	Left	No	1.15825630002655	0	664475	253
1298.951171875	0	taste	response	3	174	54	foodImage.82	FOODEEG_Images\0805.jpg	NY	Left	No	1.15825630002655	0	665064	234
1299.99609375	1	health	trialStart	3	175	55	foodImage.101	FOODEEG_Images\0909.jpg	NY	Left	No	0.758044200018048	0	665599	251
1301.03515625	2	health	foodImageDisplay	3	175	55	foodImage.101	FOODEEG_Images\0909.jpg	NY	Left	No	0.758044200018048	0	666131	252
1303.09765625	0.758044200018048	health	choicePhaseStart	3	175	55	foodImage.101	FOODEEG_Images\0909.jpg	NY	Left	No	0.758044200018048	0	667187	253
1303.84765625	0	health	response	3	175	55	foodImage.101	FOODEEG_Images\0909.jpg	NY	Left	No	0.758044200018048	0	667571	234
1304.890625	1	health	trialStart	3	176	56	foodImage.38	FOODEEG_Images\0365.jpg	NY	Right	Yes	0.593867099960335	0	668105	251
1305.927734375	2	health	foodImageDisplay	3	176	56	foodImage.38	FOODEEG_Images\0365.jpg	NY	Right	Yes	0.593867099960335	0	668636	252
1307.990234375	0.593867099960335	health	choicePhaseStart	3	176	56	foodImage.38	FOODEEG_Images\0365.jpg	NY	Right	Yes	0.593867099960335	0	669692	253
1308.57421875	0	health	response	3	176	56	foodImage.38	FOODEEG_Images\0365.jpg	NY	Right	Yes	0.593867099960335	0	669991	235
1309.6171875	1	taste	trialStart	3	177	57	foodImage.2	FOODEEG_Images\0028.jpg	YN	Left	Yes	0.764823500066996	0	670525	251
1310.66015625	2	taste	foodImageDisplay	3	177	57	foodImage.2	FOODEEG_Images\0028.jpg	YN	Left	Yes	0.764823500066996	0	671059	252
1312.72265625	0.764823500066996	taste	choicePhaseStart	3	177	57	foodImage.2	FOODEEG_Images\0028.jpg	YN	Left	Yes	0.764823500066996	0	672115	253
1313.478515625	0	taste	response	3	177	57	foodImage.2	FOODEEG_Images\0028.jpg	YN	Left	Yes	0.764823500066996	0	672502	234
1314.52734375	1	taste	trialStart	3	178	58	foodImage.19	FOODEEG_Images\0225.jpg	NY	Right	Yes	0.933469999930821	0	673039	251
1315.5703125	2	taste	foodImageDisplay	3	178	58	foodImage.19	FOODEEG_Images\0225.jpg	NY	Right	Yes	0.933469999930821	0	673573	252
1317.6328125	0.933469999930821	taste	choicePhaseStart	3	178	58	foodImage.19	FOODEEG_Images\0225.jpg	NY	Right	Yes	0.933469999930821	0	674629	253
1318.55859375	0	taste	response	3	178	58	foodImage.19	FOODEEG_Images\0225.jpg	NY	Right	Yes	0.933469999930821	0	675103	235
1319.609375	1	decision	trialStart	3	179	59	foodImage.17	FOODEEG_Images\0199.jpg	NY	Right	Yes	0.816672899993137	0	675641	251
1320.6484375	2	decision	foodImageDisplay	3	179	59	foodImage.17	FOODEEG_Images\0199.jpg	NY	Right	Yes	0.816672899993137	0	676173	252
1322.7109375	0.816672899993137	decision	choicePhaseStart	3	179	59	foodImage.17	FOODEEG_Images\0199.jpg	NY	Right	Yes	0.816672899993137	0	677229	253
1323.517578125	0	decision	response	3	179	59	foodImage.17	FOODEEG_Images\0199.jpg	NY	Right	Yes	0.816672899993137	0	677642	235
1324.5625	1	decision	trialStart	3	180	60	foodImage.71	FOODEEG_Images\0713.jpg	YN	Left	Yes	0.652482900070027	0	678177	251
1325.603515625	2	decision	foodImageDisplay	3	180	60	foodImage.71	FOODEEG_Images\0713.jpg	YN	Left	Yes	0.652482900070027	0	678710	252
1327.666015625	0.652482900070027	decision	choicePhaseStart	3	180	60	foodImage.71	FOODEEG_Images\0713.jpg	YN	Left	Yes	0.652482900070027	0	679766	253
1328.310546875	0	decision	response	3	180	60	foodImage.71	FOODEEG_Images\0713.jpg	YN	Left	Yes	0.652482900070027	0	680096	234
1330.3515625	99.837890625	n/a	blockEnd	n/a	n/a	n/a	n/a	n/a	n/a	n/a	n/a	n/a	n/a	681141	254
1430.189453125	2	n/a	blockStart	4	n/a	n/a	n/a	n/a	n/a	n/a	n/a	n/a	n/a	732258	250
1432.2265625	1	decision	trialStart	4	181	1	foodImage.29	FOODEEG_Images\0278.jpg	NY	Left	No	0.782714399974793	0	733301	251
1433.26953125	2	decision	foodImageDisplay	4	181	1	foodImage.29	FOODEEG_Images\0278.jpg	NY	Left	No	0.782714399974793	0	733835	252
1435.33203125	0.782714399974793	decision	choicePhaseStart	4	181	1	foodImage.29	FOODEEG_Images\0278.jpg	NY	Left	No	0.782714399974793	0	734891	253
1436.10546875	0	decision	response	4	181	1	foodImage.29	FOODEEG_Images\0278.jpg	NY	Left	No	0.782714399974793	0	735287	234
1437.1484375	1	decision	trialStart	4	182	2	foodImage.94	FOODEEG_Images\0902.jpg	YN	Right	No	0.610335800098255	0	735821	251
1438.185546875	2	decision	foodImageDisplay	4	182	2	foodImage.94	FOODEEG_Images\0902.jpg	YN	Right	No	0.610335800098255	0	736352	252
1440.248046875	0.610335800098255	decision	choicePhaseStart	4	182	2	foodImage.94	FOODEEG_Images\0902.jpg	YN	Right	No	0.610335800098255	0	737408	253
1440.849609375	0	decision	response	4	182	2	foodImage.94	FOODEEG_Images\0902.jpg	YN	Right	No	0.610335800098255	0	737716	235
1441.8984375	1	taste	trialStart	4	183	3	foodImage.108	FOODEEG_Images\0916.jpg	YN	Right	No	0.663909599999897	0	738253	251
1442.939453125	2	taste	foodImageDisplay	4	183	3	foodImage.108	FOODEEG_Images\0916.jpg	YN	Right	No	0.663909599999897	0	738786	252
1445.001953125	0.663909599999897	taste	choicePhaseStart	4	183	3	foodImage.108	FOODEEG_Images\0916.jpg	YN	Right	No	0.663909599999897	0	739842	253
1445.658203125	0	taste	response	4	183	3	foodImage.108	FOODEEG_Images\0916.jpg	YN	Right	No	0.663909599999897	0	740178	235
1446.701171875	1	decision	trialStart	4	184	4	foodImage.99	FOODEEG_Images\0907.jpg	NY	Left	No	0.705706700100563	0	740712	251
1447.73828125	2	decision	foodImageDisplay	4	184	4	foodImage.99	FOODEEG_Images\0907.jpg	NY	Left	No	0.705706700100563	0	741243	252
1449.80078125	0.705706700100563	decision	choicePhaseStart	4	184	4	foodImage.99	FOODEEG_Images\0907.jpg	NY	Left	No	0.705706700100563	0	742299	253
1450.49609375	0	decision	response	4	184	4	foodImage.99	FOODEEG_Images\0907.jpg	NY	Left	No	0.705706700100563	0	742655	234
1451.544921875	1	health	trialStart	4	185	5	foodImage.81	FOODEEG_Images\0797.jpg	NY	Right	Yes	0.624985700007528	0	743192	251
1452.6015625	2	health	foodImageDisplay	4	185	5	foodImage.81	FOODEEG_Images\0797.jpg	NY	Right	Yes	0.624985700007528	0	743733	252
1454.6640625	0.624985700007528	health	choicePhaseStart	4	185	5	foodImage.81	FOODEEG_Images\0797.jpg	NY	Right	Yes	0.624985700007528	0	744789	253
1455.28125	0	health	response	4	185	5	foodImage.81	FOODEEG_Images\0797.jpg	NY	Right	Yes	0.624985700007528	0	745105	235
1456.33203125	1	decision	trialStart	4	186	6	foodImage.4	FOODEEG_Images\0065.jpg	YN	Left	Yes	1.05353120004293	0	745643	251
1457.390625	2	decision	foodImageDisplay	4	186	6	foodImage.4	FOODEEG_Images\0065.jpg	YN	Left	Yes	1.05353120004293	0	746185	252
1459.453125	1.05353120004293	decision	choicePhaseStart	4	186	6	foodImage.4	FOODEEG_Images\0065.jpg	YN	Left	Yes	1.05353120004293	0	747241	253
1460.49609375	0	decision	response	4	186	6	foodImage.4	FOODEEG_Images\0065.jpg	YN	Left	Yes	1.05353120004293	0	747775	234
1461.5390625	1	taste	trialStart	4	187	7	foodImage.11	FOODEEG_Images\0180.jpg	NY	Left	No	0.900827499921434	0	748309	251
1462.58203125	2	taste	foodImageDisplay	4	187	7	foodImage.11	FOODEEG_Images\0180.jpg	NY	Left	No	0.900827499921434	0	748843	252
1464.64453125	0.900827499921434	taste	choicePhaseStart	4	187	7	foodImage.11	FOODEEG_Images\0180.jpg	NY	Left	No	0.900827499921434	0	749899	253
1465.537109375	0	taste	response	4	187	7	foodImage.11	FOODEEG_Images\0180.jpg	NY	Left	No	0.900827499921434	0	750356	234
1466.576171875	1	taste	trialStart	4	188	8	foodImage.90	FOODEEG_Images\0890.jpg	NY	Right	Yes	0.795107699930668	0	750888	251
1467.6328125	2	taste	foodImageDisplay	4	188	8	foodImage.90	FOODEEG_Images\0890.jpg	NY	Right	Yes	0.795107699930668	0	751429	252
1469.693359375	0.795107699930668	taste	choicePhaseStart	4	188	8	foodImage.90	FOODEEG_Images\0890.jpg	NY	Right	Yes	0.795107699930668	0	752484	253
1470.48046875	0	taste	response	4	188	8	foodImage.90	FOODEEG_Images\0890.jpg	NY	Right	Yes	0.795107699930668	0	752887	235
1471.521484375	1	taste	trialStart	4	189	9	foodImage.101	FOODEEG_Images\0909.jpg	NY	Left	No	0.76330400002189	0	753420	251
1472.560546875	2	taste	foodImageDisplay	4	189	9	foodImage.101	FOODEEG_Images\0909.jpg	NY	Left	No	0.76330400002189	0	753952	252
1474.623046875	0.76330400002189	taste	choicePhaseStart	4	189	9	foodImage.101	FOODEEG_Images\0909.jpg	NY	Left	No	0.76330400002189	0	755008	253
1475.376953125	0	taste	response	4	189	9	foodImage.101	FOODEEG_Images\0909.jpg	NY	Left	No	0.76330400002189	0	755394	234
1476.423828125	1	taste	trialStart	4	190	10	foodImage.44	FOODEEG_Images\0459.jpg	NY	Right	Yes	0.836921499925666	0	755930	251
1477.46875	2	taste	foodImageDisplay	4	190	10	foodImage.44	FOODEEG_Images\0459.jpg	NY	Right	Yes	0.836921499925666	0	756465	252
1479.53125	0.836921499925666	taste	choicePhaseStart	4	190	10	foodImage.44	FOODEEG_Images\0459.jpg	NY	Right	Yes	0.836921499925666	0	757521	253
1480.359375	0	taste	response	4	190	10	foodImage.44	FOODEEG_Images\0459.jpg	NY	Right	Yes	0.836921499925666	0	757945	235
1481.40234375	1	decision	trialStart	4	191	11	foodImage.38	FOODEEG_Images\0365.jpg	YN	Left	Yes	0.635711099952459	0	758479	251
1482.439453125	2	decision	foodImageDisplay	4	191	11	foodImage.38	FOODEEG_Images\0365.jpg	YN	Left	Yes	0.635711099952459	0	759010	252
1484.501953125	0.635711099952459	decision	choicePhaseStart	4	191	11	foodImage.38	FOODEEG_Images\0365.jpg	YN	Left	Yes	0.635711099952459	0	760066	253
1485.12890625	0	decision	response	4	191	11	foodImage.38	FOODEEG_Images\0365.jpg	YN	Left	Yes	0.635711099952459	0	760387	234
1486.177734375	1	taste	trialStart	4	192	12	foodImage.43	FOODEEG_Images\0445.jpg	NY	Left	No	0.833969300030731	0	760924	251
1487.232421875	2	taste	foodImageDisplay	4	192	12	foodImage.43	FOODEEG_Images\0445.jpg	NY	Left	No	0.833969300030731	0	761464	252
1489.294921875	0.833969300030731	taste	choicePhaseStart	4	192	12	foodImage.43	FOODEEG_Images\0445.jpg	NY	Left	No	0.833969300030731	0	762520	253
1490.119140625	0	taste	response	4	192	12	foodImage.43	FOODEEG_Images\0445.jpg	NY	Left	No	0.833969300030731	0	762942	234
1491.1640625	1	decision	trialStart	4	193	13	foodImage.13	FOODEEG_Images\0183.jpg	YN	Left	Yes	0.663295999984257	0	763477	251
