onset	duration	trial_type	event_type	block	trial_total	trial_in_block	food_image_code	food_image_path	button_position	resp_position	resp_choice	choice_rt	resp_too_slow	sample	trigger
461.318359375	2	n/a	blockStart	1	n/a	n/a	n/a	n/a	n/a	n/a	n/a	n/a	n/a	236196	250
463.35546875	1	taste	trialStart	1	1	1	foodImage.47	FOODEEG_Images\0488.jpg	YN	Left	Yes	0.805409100139514	0	237239	251
464.40234375	2	taste	foodImageDisplay	1	1	1	foodImage.47	FOODEEG_Images\0488.jpg	YN	Left	Yes	0.805409100139514	0	237775	252
466.466796875	0.805409100139514	taste	choicePhaseStart	1	1	1	foodImage.47	FOODEEG_Images\0488.jpg	YN	Left	Yes	0.805409100139514	0	238832	253
467.265625	0	taste	response	1	1	1	foodImage.47	FOODEEG_Images\0488.jpg	YN	Left	Yes	0.805409100139514	0	239241	234
468.375	1	decision	trialStart	1	2	2	foodImage.14	FOODEEG_Images\0188.jpg	YN	Left	Yes	1.14674120000564	0	239809	251
469.439453125	2	decision	foodImageDisplay	1	2	2	foodImage.14	FOODEEG_Images\0188.jpg	YN	Left	Yes	1.14674120000564	0	240354	252
471.50390625	1.14674120000564	decision	choicePhaseStart	1	2	2	foodImage.14	FOODEEG_Images\0188.jpg	YN	Left	Yes	1.14674120000564	0	241411	253
472.640625	0	decision	response	1	2	2	foodImage.14	FOODEEG_Images\0188.jpg	YN	Left	Yes	1.14674120000564	0	241993	234
473.697265625	1	taste	trialStart	1	3	3	foodImage.91	FOODEEG_Images\0896.jpg	YN	Left	Yes	1.19209069991484	0	242534	251
474.759765625	2	taste	foodImageDisplay	1	3	3	foodImage.91	FOODEEG_Images\0896.jpg	YN	Left	Yes	1.19209069991484	0	243078	252
476.826171875	1.19209069991484	taste	choicePhaseStart	1	3	3	foodImage.91	FOODEEG_Images\0896.jpg	YN	Left	Yes	1.19209069991484	0	244136	253
478.009765625	0	taste	response	1	3	3	foodImage.91	FOODEEG_Images\0896.jpg	YN	Left	Yes	1.19209069991484	0	244742	234
479.05078125	1	decision	trialStart	1	4	4	foodImage.98	FOODEEG_Images\0906.jpg	YN	Left	Yes	2.45407290011644	0	245275	251
480.091796875	2	decision	foodImageDisplay	1	4	4	foodImage.98	FOODEEG_Images\0906.jpg	YN	Left	Yes	2.45407290011644	0	245808	252
482.15625	2.45407290011644	decision	choicePhaseStart	1	4	4	foodImage.98	FOODEEG_Images\0906.jpg	YN	Left	Yes	2.45407290011644	0	246865	253
484.6015625	0	decision	response	1	4	4	foodImage.98	FOODEEG_Images\0906.jpg	YN	Left	Yes	2.45407290011644	0	248117	234
485.646484375	1	decision	trialStart	1	5	5	foodImage.72	FOODEEG_Images\0714.jpg	YN	Right	No	1.44334429991432	0	248652	251
486.697265625	2	decision	foodImageDisplay	1	5	5	foodImage.72	FOODEEG_Images\0714.jpg	YN	Right	No	1.44334429991432	0	249190	252
488.763671875	1.44334429991432	decision	choicePhaseStart	1	5	5	foodImage.72	FOODEEG_Images\0714.jpg	YN	Right	No	1.44334429991432	0	250248	253
490.201171875	0	decision	response	1	5	5	foodImage.72	FOODEEG_Images\0714.jpg	YN	Right	No	1.44334429991432	0	250984	235
491.25390625	1	decision	trialStart	1	6	6	foodImage.97	FOODEEG_Images\0905.jpg	NY	Left	No	1.64911390002817	0	251523	251
492.294921875	2	decision	foodImageDisplay	1	6	6	foodImage.97	FOODEEG_Images\0905.jpg	NY	Left	No	1.64911390002817	0	252056	252
494.359375	1.64911390002817	decision	choicePhaseStart	1	6	6	foodImage.97	FOODEEG_Images\0905.jpg	NY	Left	No	1.64911390002817	0	253113	253
496	0	decision	response	1	6	6	foodImage.97	FOODEEG_Images\0905.jpg	NY	Left	No	1.64911390002817	0	253953	234
497.044921875	1	health	trialStart	1	7	7	foodImage.90	FOODEEG_Images\0890.jpg	YN	Left	Yes	2.51747729978524	0	254488	251
498.10546875	2	health	foodImageDisplay	1	7	7	foodImage.90	FOODEEG_Images\0890.jpg	YN	Left	Yes	2.51747729978524	0	255031	252
500.16796875	2.51747729978524	health	choicePhaseStart	1	7	7	foodImage.90	FOODEEG_Images\0890.jpg	YN	Left	Yes	2.51747729978524	0	256087	253
502.6796875	0	health	response	1	7	7	foodImage.90	FOODEEG_Images\0890.jpg	YN	Left	Yes	2.51747729978524	0	257373	234
503.73046875	1	health	trialStart	1	8	8	foodImage.64	FOODEEG_Images\0647.jpg	NY	Right	Yes	1.9795949999243	0	257911	251
504.794921875	2	health	foodImageDisplay	1	8	8	foodImage.64	FOODEEG_Images\0647.jpg	NY	Right	Yes	1.9795949999243	0	258456	252
506.861328125	1.9795949999243	health	choicePhaseStart	1	8	8	foodImage.64	FOODEEG_Images\0647.jpg	NY	Right	Yes	1.9795949999243	0	259514	253
508.83203125	0	health	response	1	8	8	foodImage.64	FOODEEG_Images\0647.jpg	NY	Right	Yes	1.9795949999243	0	260523	235
509.875	1	decision	trialStart	1	9	9	foodImage.75	FOODEEG_Images\0763.jpg	NY	Right	Yes	1.23289999994449	0	261057	251
510.923828125	2	decision	foodImageDisplay	1	9	9	foodImage.75	FOODEEG_Images\0763.jpg	NY	Right	Yes	1.23289999994449	0	261594	252
512.990234375	1.23289999994449	decision	choicePhaseStart	1	9	9	foodImage.75	FOODEEG_Images\0763.jpg	NY	Right	Yes	1.23289999994449	0	262652	253
514.21484375	0	decision	response	1	9	9	foodImage.75	FOODEEG_Images\0763.jpg	NY	Right	Yes	1.23289999994449	0	263279	235
515.26171875	1	taste	trialStart	1	10	10	foodImage.7	FOODEEG_Images\0116.jpg	NY	Right	Yes	1.12049280013889	0	263815	251
516.3046875	2	taste	foodImageDisplay	1	10	10	foodImage.7	FOODEEG_Images\0116.jpg	NY	Right	Yes	1.12049280013889	0	264349	252
518.369140625	1.12049280013889	taste	choicePhaseStart	1	10	10	foodImage.7	FOODEEG_Images\0116.jpg	NY	Right	Yes	1.12049280013889	0	265406	253
519.478515625	0	taste	response	1	10	10	foodImage.7	FOODEEG_Images\0116.jpg	NY	Right	Yes	1.12049280013889	0	265974	235
520.5234375	1	decision	trialStart	1	11	11	foodImage.2	FOODEEG_Images\0028.jpg	NY	Right	Yes	1.29151099990122	0	266509	251
521.5703125	2	decision	foodImageDisplay	1	11	11	foodImage.2	FOODEEG_Images\0028.jpg	NY	Right	Yes	1.29151099990122	0	267045	252
523.634765625	1.29151099990122	decision	choicePhaseStart	1	11	11	foodImage.2	FOODEEG_Images\0028.jpg	NY	Right	Yes	1.29151099990122	0	268102	253
524.919921875	0	decision	response	1	11	11	foodImage.2	FOODEEG_Images\0028.jpg	NY	Right	Yes	1.29151099990122	0	268760	235
525.962890625	1	health	trialStart	1	12	12	foodImage.13	FOODEEG_Images\0183.jpg	NY	Right	Yes	0.972634800011292	0	269294	251
527.009765625	2	health	foodImageDisplay	1	12	12	foodImage.13	FOODEEG_Images\0183.jpg	NY	Right	Yes	0.972634800011292	0	269830	252
529.07421875	0.972634800011292	health	choicePhaseStart	1	12	12	foodImage.13	FOODEEG_Images\0183.jpg	NY	Right	Yes	0.972634800011292	0	270887	253
530.0390625	0	health	response	1	12	12	foodImage.13	FOODEEG_Images\0183.jpg	NY	Right	Yes	0.972634800011292	0	271381	235
531.08203125	1	taste	trialStart	1	13	13	foodImage.87	FOODEEG_Images\0873.jpg	NY	Right	Yes	2.55882310005836	0	271915	251
532.14453125	2	taste	foodImageDisplay	1	13	13	foodImage.87	FOODEEG_Images\0873.jpg	NY	Right	Yes	2.55882310005836	0	272459	252
534.208984375	2.55882310005836	taste	choicePhaseStart	1	13	13	foodImage.87	FOODEEG_Images\0873.jpg	NY	Right	Yes	2.55882310005836	0	273516	253
536.7578125	0	taste	response	1	13	13	foodImage.87	FOODEEG_Images\0873.jpg	NY	Right	Yes	2.55882310005836	0	274821	235
537.80078125	1	taste	trialStart	1	14	14	foodImage.118	FOODEEG_Images\0926.jpg	YN	Right	No	1.36121160001494	0	275355	251
538.84375	2	taste	foodImageDisplay	1	14	14	foodImage.118	FOODEEG_Images\0926.jpg	YN	Right	No	1.36121160001494	0	275889	252
540.91015625	1.36121160001494	taste	choicePhaseStart	1	14	14	foodImage.118	FOODEEG_Images\0926.jpg	YN	Right	No	1.36121160001494	0	276947	253
542.26171875	0	taste	response	1	14	14	foodImage.118	FOODEEG_Images\0926.jpg	YN	Right	No	1.36121160001494	0	277639	235
543.3046875	1	health	trialStart	1	15	15	foodImage.10	FOODEEG_Images\0145.jpg	YN	Right	No	1.35719499993138	0	278173	251
544.36328125	2	health	foodImageDisplay	1	15	15	foodImage.10	FOODEEG_Images\0145.jpg	YN	Right	No	1.35719499993138	0	278715	252
546.42578125	1.35719499993138	health	choicePhaseStart	1	15	15	foodImage.10	FOODEEG_Images\0145.jpg	YN	Right	No	1.35719499993138	0	279771	253
547.7734375	0	health	response	1	15	15	foodImage.10	FOODEEG_Images\0145.jpg	YN	Right	No	1.35719499993138	0	280461	235
548.81640625	1	health	trialStart	1	16	16	foodImage.112	FOODEEG_Images\0920.jpg	NY	Left	No	1.98022340005264	0	280995	251
549.857421875	2	health	foodImageDisplay	1	16	16	foodImage.112	FOODEEG_Images\0920.jpg	NY	Left	No	1.98022340005264	0	281528	252
551.921875	1.98022340005264	health	choicePhaseStart	1	16	16	foodImage.112	FOODEEG_Images\0920.jpg	NY	Left	No	1.98022340005264	0	282585	253
553.89453125	0	health	response	1	16	16	foodImage.112	FOODEEG_Images\0920.jpg	NY	Left	No	1.98022340005264	0	283595	234
554.9375	1	health	trialStart	1	17	17	foodImage.69	FOODEEG_Images\0693.jpg	NY	Right	Yes	2.63382210000418	0	284129	251
555.984375	2	health	foodImageDisplay	1	17	17	foodImage.69	FOODEEG_Images\0693.jpg	NY	Right	Yes	2.63382210000418	0	284665	252
558.052734375	2.63382210000418	health	choicePhaseStart	1	17	17	foodImage.69	FOODEEG_Images\0693.jpg	NY	Right	Yes	2.63382210000418	0	285724	253
560.677734375	0	health	response	1	17	17	foodImage.69	FOODEEG_Images\0693.jpg	NY	Right	Yes	2.63382210000418	0	287068	235
561.720703125	1	health	trialStart	1	18	18	foodImage.57	FOODEEG_Images\0587.jpg	NY	Left	No	1.29933329997584	0	287602	251
562.767578125	2	health	foodImageDisplay	1	18	18	foodImage.57	FOODEEG_Images\0587.jpg	NY	Left	No	1.29933329997584	0	288138	252
564.83203125	1.29933329997584	health	choicePhaseStart	1	18	18	foodImage.57	FOODEEG_Images\0587.jpg	NY	Left	No	1.29933329997584	0	289195	253
566.125	0	health	response	1	18	18	foodImage.57	FOODEEG_Images\0587.jpg	NY	Left	No	1.29933329997584	0	289857	234
567.16796875	1	taste	trialStart	1	19	19	foodImage.58	FOODEEG_Images\0605.jpg	YN	Left	Yes	1.66891370015219	0	290391	251
568.232421875	2	taste	foodImageDisplay	1	19	19	foodImage.58	FOODEEG_Images\0605.jpg	YN	Left	Yes	1.66891370015219	0	290936	252
570.296875	1.66891370015219	taste	choicePhaseStart	1	19	19	foodImage.58	FOODEEG_Images\0605.jpg	YN	Left	Yes	1.66891370015219	0	291993	253
571.95703125	0	taste	response	1	19	19	foodImage.58	FOODEEG_Images\0605.jpg	YN	Left	Yes	1.66891370015219	0	292843	234
573	1	taste	trialStart	1	20	20	foodImage.63	FOODEEG_Images\0645.jpg	YN	Left	Yes	1.16965870000422	0	293377	251
574.044921875	2	taste	foodImageDisplay	1	20	20	foodImage.63	FOODEEG_Images\0645.jpg	YN	Left	Yes	1.16965870000422	0	293912	252
576.107421875	1.16965870000422	taste	choicePhaseStart	1	20	20	foodImage.63	FOODEEG_Images\0645.jpg	YN	Left	Yes	1.16965870000422	0	294968	253
577.26953125	0	taste	response	1	20	20	foodImage.63	FOODEEG_Images\0645.jpg	YN	Left	Yes	1.16965870000422	0	295563	234
578.310546875	1	health	trialStart	1	21	21	foodImage.39	FOODEEG_Images\0367.jpg	NY	Left	No	1.01311910012737	0	296096	251
579.3515625	2	health	foodImageDisplay	1	21	21	foodImage.39	FOODEEG_Images\0367.jpg	NY	Left	No	1.01311910012737	0	296629	252
581.416015625	1.01311910012737	health	choicePhaseStart	1	21	21	foodImage.39	FOODEEG_Images\0367.jpg	NY	Left	No	1.01311910012737	0	297686	253
582.419921875	0	health	response	1	21	21	foodImage.39	FOODEEG_Images\0367.jpg	NY	Left	No	1.01311910012737	0	298200	234
583.46484375	1	health	trialStart	1	22	22	foodImage.119	FOODEEG_Images\0927.jpg	NY	Left	No	2.28519109985791	0	298735	251
584.505859375	2	health	foodImageDisplay	1	22	22	foodImage.119	FOODEEG_Images\0927.jpg	NY	Left	No	2.28519109985791	0	299268	252
586.568359375	2.28519109985791	health	choicePhaseStart	1	22	22	foodImage.119	FOODEEG_Images\0927.jpg	NY	Left	No	2.28519109985791	0	300324	253
588.84375	0	health	response	1	22	22	foodImage.119	FOODEEG_Images\0927.jpg	NY	Left	No	2.28519109985791	0	301489	234
589.890625	1	taste	trialStart	1	23	23	foodImage.64	FOODEEG_Images\0647.jpg	YN	Right	No	2.28552320017479	0	302025	251
590.951171875	2	taste	foodImageDisplay	1	23	23	foodImage.64	FOODEEG_Images\0647.jpg	YN	Right	No	2.28552320017479	0	302568	252
593.015625	2.28552320017479	taste	choicePhaseStart	1	23	23	foodImage.64	FOODEEG_Images\0647.jpg	YN	Right	No	2.28552320017479	0	303625	253
595.29296875	0	taste	response	1	23	23	foodImage.64	FOODEEG_Images\0647.jpg	YN	Right	No	2.28552320017479	0	304791	235
596.3359375	1	health	trialStart	1	24	24	foodImage.118	FOODEEG_Images\0926.jpg	YN	Right	No	2.08633269998245	0	305325	251
597.375	2	health	foodImageDisplay	1	24	24	foodImage.118	FOODEEG_Images\0926.jpg	YN	Right	No	2.08633269998245	0	305857	252
599.439453125	2.08633269998245	health	choicePhaseStart	1	24	24	foodImage.118	FOODEEG_Images\0926.jpg	YN	Right	No	2.08633269998245	0	306914	253
601.515625	0	health	response	1	24	24	foodImage.118	FOODEEG_Images\0926.jpg	YN	Right	No	2.08633269998245	0	307977	235
602.55859375	1	decision	trialStart	1	25	25	foodImage.101	FOODEEG_Images\0909.jpg	YN	Right	No	1.47139560012147	0	308511	251
603.599609375	2	decision	foodImageDisplay	1	25	25	foodImage.101	FOODEEG_Images\0909.jpg	YN	Right	No	1.47139560012147	0	309044	252
605.66015625	1.47139560012147	decision	choicePhaseStart	1	25	25	foodImage.101	FOODEEG_Images\0909.jpg	YN	Right	No	1.47139560012147	0	310099	253
607.123046875	0	decision	response	1	25	25	foodImage.101	FOODEEG_Images\0909.jpg	YN	Right	No	1.47139560012147	0	310848	235
608.16796875	1	decision	trialStart	1	26	26	foodImage.38	FOODEEG_Images\0365.jpg	YN	Left	Yes	1.1941925000865	0	311383	251
609.208984375	2	decision	foodImageDisplay	1	26	26	foodImage.38	FOODEEG_Images\0365.jpg	YN	Left	Yes	1.1941925000865	0	311916	252
611.275390625	1.1941925000865	decision	choicePhaseStart	1	26	26	foodImage.38	FOODEEG_Images\0365.jpg	YN	Left	Yes	1.1941925000865	0	312974	253
612.458984375	0	decision	response	1	26	26	foodImage.38	FOODEEG_Images\0365.jpg	YN	Left	Yes	1.1941925000865	0	313580	234
613.501953125	1	taste	trialStart	1	27	27	foodImage.72	FOODEEG_Images\0714.jpg	NY	Left	No	1.60191550012678	0	314114	251
614.546875	2	taste	foodImageDisplay	1	27	27	foodImage.72	FOODEEG_Images\0714.jpg	NY	Left	No	1.60191550012678	0	314649	252
616.611328125	1.60191550012678	taste	choicePhaseStart	1	27	27	foodImage.72	FOODEEG_Images\0714.jpg	NY	Left	No	1.60191550012678	0	315706	253
618.203125	0	taste	response	1	27	27	foodImage.72	FOODEEG_Images\0714.jpg	NY	Left	No	1.60191550012678	0	316521	234
619.24609375	1	taste	trialStart	1	28	28	foodImage.73	FOODEEG_Images\0717.jpg	YN	Left	Yes	2.1906173999887	0	317055	251
620.30859375	2	taste	foodImageDisplay	1	28	28	foodImage.73	FOODEEG_Images\0717.jpg	YN	Left	Yes	2.1906173999887	0	317599	252
622.373046875	2.1906173999887	taste	choicePhaseStart	1	28	28	foodImage.73	FOODEEG_Images\0717.jpg	YN	Left	Yes	2.1906173999887	0	318656	253
624.5546875	0	taste	response	1	28	28	foodImage.73	FOODEEG_Images\0717.jpg	YN	Left	Yes	2.1906173999887	0	319773	234
625.599609375	1	health	trialStart	1	29	29	foodImage.113	FOODEEG_Images\0921.jpg	NY	Left	No	1.35081389988773	0	320308	251
626.642578125	2	health	foodImageDisplay	1	29	29	foodImage.113	FOODEEG_Images\0921.jpg	NY	Left	No	1.35081389988773	0	320842	252
628.705078125	1.35081389988773	health	choicePhaseStart	1	29	29	foodImage.113	FOODEEG_Images\0921.jpg	NY	Left	No	1.35081389988773	0	321898	253
630.05078125	0	health	response	1	29	29	foodImage.113	FOODEEG_Images\0921.jpg	NY	Left	No	1.35081389988773	0	322587	234
631.091796875	1	taste	trialStart	1	30	30	foodImage.16	FOODEEG_Images\0196.jpg	YN	Left	Yes	1.27116769994609	0	323120	251
632.15625	2	taste	foodImageDisplay	1	30	30	foodImage.16	FOODEEG_Images\0196.jpg	YN	Left	Yes	1.27116769994609	0	323665	252
634.220703125	1.27116769994609	taste	choicePhaseStart	1	30	30	foodImage.16	FOODEEG_Images\0196.jpg	YN	Left	Yes	1.27116769994609	0	324722	253
635.482421875	0	taste	response	1	30	30	foodImage.16	FOODEEG_Images\0196.jpg	YN	Left	Yes	1.27116769994609	0	325368	234
636.525390625	1	decision	trialStart	1	31	31	foodImage.114	FOODEEG_Images\0922.jpg	NY	Left	No	2.15695249987766	0	325902	251
637.56640625	2	decision	foodImageDisplay	1	31	31	foodImage.114	FOODEEG_Images\0922.jpg	NY	Left	No	2.15695249987766	0	326435	252
639.630859375	2.15695249987766	decision	choicePhaseStart	1	31	31	foodImage.114	FOODEEG_Images\0922.jpg	NY	Left	No	2.15695249987766	0	327492	253
641.77734375	0	decision	response	1	31	31	foodImage.114	FOODEEG_Images\0922.jpg	NY	Left	No	2.15695249987766	0	328591	234
642.8203125	1	taste	trialStart	1	32	32	foodImage.17	FOODEEG_Images\0199.jpg	YN	Left	Yes	1.23103939997964	0	329125	251
643.86328125	2	taste	foodImageDisplay	1	32	32	foodImage.17	FOODEEG_Images\0199.jpg	YN	Left	Yes	1.23103939997964	0	329659	252
645.923828125	1.23103939997964	taste	choicePhaseStart	1	32	32	foodImage.17	FOODEEG_Images\0199.jpg	YN	Left	Yes	1.23103939997964	0	330714	253
647.146484375	0	taste	response	1	32	32	foodImage.17	FOODEEG_Images\0199.jpg	YN	Left	Yes	1.23103939997964	0	331340	234
648.1875	1	decision	trialStart	1	33	33	foodImage.6	FOODEEG_Images\0113.jpg	YN	Left	Yes	1.12543249991722	0	331873	251
649.232421875	2	decision	foodImageDisplay	1	33	33	foodImage.6	FOODEEG_Images\0113.jpg	YN	Left	Yes	1.12543249991722	0	332408	252
651.30078125	1.12543249991722	decision	choicePhaseStart	1	33	33	foodImage.6	FOODEEG_Images\0113.jpg	YN	Left	Yes	1.12543249991722	0	333467	253
652.41796875	0	decision	response	1	33	33	foodImage.6	FOODEEG_Images\0113.jpg	YN	Left	Yes	1.12543249991722	0	334039	234
653.4609375	1	taste	trialStart	1	34	34	foodImage.22	FOODEEG_Images\0236.jpg	NY	Right	Yes	1.05659049982205	0	334573	251
654.505859375	2	taste	foodImageDisplay	1	34	34	foodImage.22	FOODEEG_Images\0236.jpg	NY	Right	Yes	1.05659049982205	0	335108	252
656.5703125	1.05659049982205	taste	choicePhaseStart	1	34	34	foodImage.22	FOODEEG_Images\0236.jpg	NY	Right	Yes	1.05659049982205	0	336165	253
657.6171875	0	taste	response	1	34	34	foodImage.22	FOODEEG_Images\0236.jpg	NY	Right	Yes	1.05659049982205	0	336701	235
658.66015625	1	decision	trialStart	1	35	35	foodImage.104	FOODEEG_Images\0912.jpg	NY	Right	Yes	1.2000847000163	0	337235	251
659.701171875	2	decision	foodImageDisplay	1	35	35	foodImage.104	FOODEEG_Images\0912.jpg	NY	Right	Yes	1.2000847000163	0	337768	252
661.76953125	1.2000847000163	decision	choicePhaseStart	1	35	35	foodImage.104	FOODEEG_Images\0912.jpg	NY	Right	Yes	1.2000847000163	0	338827	253
662.9609375	0	decision	response	1	35	35	foodImage.104	FOODEEG_Images\0912.jpg	NY	Right	Yes	1.2000847000163	0	339437	235
664.00390625	1	taste	trialStart	1	36	36	foodImage.26	FOODEEG_Images\0262.jpg	YN	Right	No	1.50026770005934	0	339971	251
665.048828125	2	taste	foodImageDisplay	1	36	36	foodImage.26	FOODEEG_Images\0262.jpg	YN	Right	No	1.50026770005934	0	340506	252
667.111328125	1.50026770005934	taste	choicePhaseStart	1	36	36	foodImage.26	FOODEEG_Images\0262.jpg	YN	Right	No	1.50026770005934	0	341562	253
668.6015625	0	taste	response	1	36	36	foodImage.26	FOODEEG_Images\0262.jpg	YN	Right	No	1.50026770005934	0	342325	235
669.64453125	1	health	trialStart	1	37	37	foodImage.70	FOODEEG_Images\0705.jpg	YN	Right	No	1.34006830002181	0	342859	251
670.70703125	2	health	foodImageDisplay	1	37	37	foodImage.70	FOODEEG_Images\0705.jpg	YN	Right	No	1.34006830002181	0	343403	252
672.771484375	1.34006830002181	health	choicePhaseStart	1	37	37	foodImage.70	FOODEEG_Images\0705.jpg	YN	Right	No	1.34006830002181	0	344460	253
674.10546875	0	health	response	1	37	37	foodImage.70	FOODEEG_Images\0705.jpg	YN	Right	No	1.34006830002181	0	345143	235
675.146484375	1	health	trialStart	1	38	38	foodImage.33	FOODEEG_Images\0329.jpg	NY	Right	Yes	1.01958979992196	0	345676	251
676.19140625	2	health	foodImageDisplay	1	38	38	foodImage.33	FOODEEG_Images\0329.jpg	NY	Right	Yes	1.01958979992196	0	346211	252
678.25390625	1.01958979992196	health	choicePhaseStart	1	38	38	foodImage.33	FOODEEG_Images\0329.jpg	NY	Right	Yes	1.01958979992196	0	347267	253
679.265625	0	health	response	1	38	38	foodImage.33	FOODEEG_Images\0329.jpg	NY	Right	Yes	1.01958979992196	0	347785	235
680.306640625	1	taste	trialStart	1	39	39	foodImage.27	FOODEEG_Images\0263.jpg	YN	Left	Yes	1.93905799998902	0	348318	251
681.3515625	2	taste	foodImageDisplay	1	39	39	foodImage.27	FOODEEG_Images\0263.jpg	YN	Left	Yes	1.93905799998902	0	348853	252
683.416015625	1.93905799998902	taste	choicePhaseStart	1	39	39	foodImage.27	FOODEEG_Images\0263.jpg	YN	Left	Yes	1.93905799998902	0	349910	253
685.34375	0	taste	response	1	39	39	foodImage.27	FOODEEG_Images\0263.jpg	YN	Left	Yes	1.93905799998902	0	350897	234
686.384765625	1	decision	trialStart	1	40	40	foodImage.77	FOODEEG_Images\0771.jpg	YN	Left	Yes	1.22620420018211	0	351430	251
687.431640625	2	decision	foodImageDisplay	1	40	40	foodImage.77	FOODEEG_Images\0771.jpg	YN	Left	Yes	1.22620420018211	0	351966	252
689.49609375	1.22620420018211	decision	choicePhaseStart	1	40	40	foodImage.77	FOODEEG_Images\0771.jpg	YN	Left	Yes	1.22620420018211	0	353023	253
690.712890625	0	decision	response	1	40	40	foodImage.77	FOODEEG_Images\0771.jpg	YN	Left	Yes	1.22620420018211	0	353646	234
691.755859375	1	decision	trialStart	1	41	41	foodImage.55	FOODEEG_Images\0567.jpg	YN	Left	Yes	1.15326619986445	0	354180	251
692.841796875	2	decision	foodImageDisplay	1	41	41	foodImage.55	FOODEEG_Images\0567.jpg	YN	Left	Yes	1.15326619986445	0	354736	252
694.904296875	1.15326619986445	decision	choicePhaseStart	1	41	41	foodImage.55	FOODEEG_Images\0567.jpg	YN	Left	Yes	1.15326619986445	0	355792	253
696.048828125	0	decision	response	1	41	41	foodImage.55	FOODEEG_Images\0567.jpg	YN	Left	Yes	1.15326619986445	0	356378	234
697.091796875	1	taste	trialStart	1	42	42	foodImage.111	FOODEEG_Images\0919.jpg	NY	Left	No	2.60761279985309	0	356912	251
698.12890625	2	taste	foodImageDisplay	1	42	42	foodImage.111	FOODEEG_Images\0919.jpg	NY	Left	No	2.60761279985309	0	357443	252
700.193359375	2.60761279985309	taste	choicePhaseStart	1	42	42	foodImage.111	FOODEEG_Images\0919.jpg	NY	Left	No	2.60761279985309	0	358500	253
702.79296875	0	taste	response	1	42	42	foodImage.111	FOODEEG_Images\0919.jpg	NY	Left	No	2.60761279985309	0	359831	234
703.8359375	1	decision	trialStart	1	43	43	foodImage.56	FOODEEG_Images\0586.jpg	YN	Right	No	1.25285589997657	0	360365	251
704.880859375	2	decision	foodImageDisplay	1	43	43	foodImage.56	FOODEEG_Images\0586.jpg	YN	Right	No	1.25285589997657	0	360900	252
706.947265625	1.25285589997657	decision	choicePhaseStart	1	43	43	foodImage.56	FOODEEG_Images\0586.jpg	YN	Right	No	1.25285589997657	0	361958	253
708.19140625	0	decision	response	1	43	43	foodImage.56	FOODEEG_Images\0586.jpg	YN	Right	No	1.25285589997657	0	362595	235
709.234375	1	health	trialStart	1	44	44	foodImage.120	FOODEEG_Images\0928.jpg	NY	Left	No	1.74725799984299	0	363129	251
710.27734375	2	health	foodImageDisplay	1	44	44	foodImage.120	FOODEEG_Images\0928.jpg	NY	Left	No	1.74725799984299	0	363663	252
712.341796875	1.74725799984299	health	choicePhaseStart	1	44	44	foodImage.120	FOODEEG_Images\0928.jpg	NY	Left	No	1.74725799984299	0	364720	253
714.080078125	0	health	response	1	44	44	foodImage.120	FOODEEG_Images\0928.jpg	NY	Left	No	1.74725799984299	0	365610	234
715.123046875	1	health	trialStart	1	45	45	foodImage.61	FOODEEG_Images\0640.jpg	NY	Right	Yes	1.08681360003538	0	366144	251
716.169921875	2	health	foodImageDisplay	1	45	45	foodImage.61	FOODEEG_Images\0640.jpg	NY	Right	Yes	1.08681360003538	0	366680	252
718.232421875	1.08681360003538	health	choicePhaseStart	1	45	45	foodImage.61	FOODEEG_Images\0640.jpg	NY	Right	Yes	1.08681360003538	0	367736	253
719.310546875	0	health	response	1	45	45	foodImage.61	FOODEEG_Images\0640.jpg	NY	Right	Yes	1.08681360003538	0	368288	235
720.35546875	1	health	trialStart	1	46	46	foodImage.83	FOODEEG_Images\0827.jpg	YN	Left	Yes	0.931697600055486	0	368823	251
721.4140625	2	health	foodImageDisplay	1	46	46	foodImage.83	FOODEEG_Images\0827.jpg	YN	Left	Yes	0.931697600055486	0	369365	252
723.4765625	0.931697600055486	health	choicePhaseStart	1	46	46	foodImage.83	FOODEEG_Images\0827.jpg	YN	Left	Yes	0.931697600055486	0	370421	253
724.3984375	0	health	response	1	46	46	foodImage.83	FOODEEG_Images\0827.jpg	YN	Left	Yes	0.931697600055486	0	370893	234
725.44140625	1	decision	trialStart	1	47	47	foodImage.112	FOODEEG_Images\0920.jpg	NY	Left	No	1.28890749998391	0	371427	251
726.482421875	2	decision	foodImageDisplay	1	47	47	foodImage.112	FOODEEG_Images\0920.jpg	NY	Left	No	1.28890749998391	0	371960	252
728.544921875	1.28890749998391	decision	choicePhaseStart	1	47	47	foodImage.112	FOODEEG_Images\0920.jpg	NY	Left	No	1.28890749998391	0	373016	253
729.822265625	0	decision	response	1	47	47	foodImage.112	FOODEEG_Images\0920.jpg	NY	Left	No	1.28890749998391	0	373670	234
730.8671875	1	health	trialStart	1	48	48	foodImage.107	FOODEEG_Images\0915.jpg	NY	Left	No	1.52422309992835	0	374205	251
731.908203125	2	health	foodImageDisplay	1	48	48	foodImage.107	FOODEEG_Images\0915.jpg	NY	Left	No	1.52422309992835	0	374738	252
733.970703125	1.52422309992835	health	choicePhaseStart	1	48	48	foodImage.107	FOODEEG_Images\0915.jpg	NY	Left	No	1.52422309992835	0	375794	253
735.486328125	0	health	response	1	48	48	foodImage.107	FOODEEG_Images\0915.jpg	NY	Left	No	1.52422309992835	0	376570	234
736.53125	1	health	trialStart	1	49	49	foodImage.51	FOODEEG_Images\0536.jpg	YN	Right	No	2.27941829990596	0	377105	251
737.607421875	2	health	foodImageDisplay	1	49	49	foodImage.51	FOODEEG_Images\0536.jpg	YN	Right	No	2.27941829990596	0	377656	252
739.671875	2.27941829990596	health	choicePhaseStart	1	49	49	foodImage.51	FOODEEG_Images\0536.jpg	YN	Right	No	2.27941829990596	0	378713	253
741.943359375	0	health	response	1	49	49	foodImage.51	FOODEEG_Images\0536.jpg	YN	Right	No	2.27941829990596	0	379876	235
742.986328125	1	decision	trialStart	1	50	50	foodImage.70	FOODEEG_Images\0705.jpg	NY	Right	Yes	1.07189839985222	0	380410	251
744.046875	2	decision	foodImageDisplay	1	50	50	foodImage.70	FOODEEG_Images\0705.jpg	NY	Right	Yes	1.07189839985222	0	380953	252
746.111328125	1.07189839985222	decision	choicePhaseStart	1	50	50	foodImage.70	FOODEEG_Images\0705.jpg	NY	Right	Yes	1.07189839985222	0	382010	253
747.173828125	0	decision	response	1	50	50	foodImage.70	FOODEEG_Images\0705.jpg	NY	Right	Yes	1.07189839985222	0	382554	235
748.216796875	1	health	trialStart	1	51	51	foodImage.17	FOODEEG_Images\0199.jpg	YN	Left	Yes	0.947384500177577	0	383088	251
749.259765625	2	health	foodImageDisplay	1	51	51	foodImage.17	FOODEEG_Images\0199.jpg	YN	Left	Yes	0.947384500177577	0	383622	252
751.32421875	0.947384500177577	health	choicePhaseStart	1	51	51	foodImage.17	FOODEEG_Images\0199.jpg	YN	Left	Yes	0.947384500177577	0	384679	253
752.26171875	0	health	response	1	51	51	foodImage.17	FOODEEG_Images\0199.jpg	YN	Left	Yes	0.947384500177577	0	385159	234
753.3046875	1	decision	trialStart	1	52	52	foodImage.108	FOODEEG_Images\0916.jpg	NY	Left	No	1.52335419994779	0	385693	251
754.34765625	2	decision	foodImageDisplay	1	52	52	foodImage.108	FOODEEG_Images\0916.jpg	NY	Left	No	1.52335419994779	0	386227	252
756.412109375	1.52335419994779	decision	choicePhaseStart	1	52	52	foodImage.108	FOODEEG_Images\0916.jpg	NY	Left	No	1.52335419994779	0	387284	253
757.92578125	0	decision	response	1	52	52	foodImage.108	FOODEEG_Images\0916.jpg	NY	Left	No	1.52335419994779	0	388059	234
758.96484375	1	decision	trialStart	1	53	53	foodImage.16	FOODEEG_Images\0196.jpg	YN	Left	Yes	1.26202980009839	0	388591	251
760.0234375	2	decision	foodImageDisplay	1	53	53	foodImage.16	FOODEEG_Images\0196.jpg	YN	Left	Yes	1.26202980009839	0	389133	252
762.087890625	1.26202980009839	decision	choicePhaseStart	1	53	53	foodImage.16	FOODEEG_Images\0196.jpg	YN	Left	Yes	1.26202980009839	0	390190	253
763.341796875	0	decision	response	1	53	53	foodImage.16	FOODEEG_Images\0196.jpg	YN	Left	Yes	1.26202980009839	0	390832	234
764.3828125	1	decision	trialStart	1	54	54	foodImage.119	FOODEEG_Images\0927.jpg	NY	Left	No	1.18494950002059	0	391365	251
765.423828125	2	decision	foodImageDisplay	1	54	54	foodImage.119	FOODEEG_Images\0927.jpg	NY	Left	No	1.18494950002059	0	391898	252
767.486328125	1.18494950002059	decision	choicePhaseStart	1	54	54	foodImage.119	FOODEEG_Images\0927.jpg	NY	Left	No	1.18494950002059	0	392954	253
768.662109375	0	decision	response	1	54	54	foodImage.119	FOODEEG_Images\0927.jpg	NY	Left	No	1.18494950002059	0	393556	234
769.703125	1	taste	trialStart	1	55	55	foodImage.107	FOODEEG_Images\0915.jpg	NY	Right	Yes	1.7766127998475	0	394089	251
770.7421875	2	taste	foodImageDisplay	1	55	55	foodImage.107	FOODEEG_Images\0915.jpg	NY	Right	Yes	1.7766127998475	0	394621	252
772.806640625	1.7766127998475	taste	choicePhaseStart	1	55	55	foodImage.107	FOODEEG_Images\0915.jpg	NY	Right	Yes	1.7766127998475	0	395678	253
774.572265625	0	taste	response	1	55	55	foodImage.107	FOODEEG_Images\0915.jpg	NY	Right	Yes	1.7766127998475	0	396582	235
775.615234375	1	decision	trialStart	1	56	56	foodImage.113	FOODEEG_Images\0921.jpg	YN	Left	Yes	1.62223729980178	0	397116	251
776.65625	2	decision	foodImageDisplay	1	56	56	foodImage.113	FOODEEG_Images\0921.jpg	YN	Left	Yes	1.62223729980178	0	397649	252
778.720703125	1.62223729980178	decision	choicePhaseStart	1	56	56	foodImage.113	FOODEEG_Images\0921.jpg	YN	Left	Yes	1.62223729980178	0	398706	253
780.33203125	0	decision	response	1	56	56	foodImage.113	FOODEEG_Images\0921.jpg	YN	Left	Yes	1.62223729980178	0	399531	234
781.376953125	1	decision	trialStart	1	57	57	foodImage.71	FOODEEG_Images\0713.jpg	YN	Left	Yes	1.08947380003519	0	400066	251
782.421875	2	decision	foodImageDisplay	1	57	57	foodImage.71	FOODEEG_Images\0713.jpg	YN	Left	Yes	1.08947380003519	0	400601	252
784.486328125	1.08947380003519	decision	choicePhaseStart	1	57	57	foodImage.71	FOODEEG_Images\0713.jpg	YN	Left	Yes	1.08947380003519	0	401658	253
785.56640625	0	decision	response	1	57	57	foodImage.71	FOODEEG_Images\0713.jpg	YN	Left	Yes	1.08947380003519	0	402211	234
786.607421875	1	health	trialStart	1	58	58	foodImage.49	FOODEEG_Images\0515.jpg	YN	Right	No	2.903109600069	0	402744	251
787.65234375	2	health	foodImageDisplay	1	58	58	foodImage.49	FOODEEG_Images\0515.jpg	YN	Right	No	2.903109600069	0	403279	252
789.716796875	2.903109600069	health	choicePhaseStart	1	58	58	foodImage.49	FOODEEG_Images\0515.jpg	YN	Right	No	2.903109600069	0	404336	253
792.61328125	0	health	response	1	58	58	foodImage.49	FOODEEG_Images\0515.jpg	YN	Right	No	2.903109600069	0	405819	235
793.65625	1	health	trialStart	1	59	59	foodImage.117	FOODEEG_Images\0925.jpg	YN	Right	No	0.882524400018156	0	406353	251
794.6953125	2	health	foodImageDisplay	1	59	59	foodImage.117	FOODEEG_Images\0925.jpg	YN	Right	No	0.882524400018156	0	406885	252
796.759765625	0.882524400018156	health	choicePhaseStart	1	59	59	foodImage.117	FOODEEG_Images\0925.jpg	YN	Right	No	0.882524400018156	0	407942	253
797.63671875	0	health	response	1	59	59	foodImage.117	FOODEEG_Images\0925.jpg	YN	Right	No	0.882524400018156	0	408391	235
798.6796875	1	health	trialStart	1	60	60	foodImage.8	FOODEEG_Images\0136.jpg	YN	Right	No	0.945154500193894	0	408925	251
799.72265625	2	health	foodImageDisplay	1	60	60	foodImage.8	FOODEEG_Images\0136.jpg	YN	Right	No	0.945154500193894	0	409459	252
801.787109375	0.945154500193894	health	choicePhaseStart	1	60	60	foodImage.8	FOODEEG_Images\0136.jpg	YN	Right	No	0.945154500193894	0	410516	253
802.724609375	0	health	response	1	60	60	foodImage.8	FOODEEG_Images\0136.jpg	YN	Right	No	0.945154500193894	0	410996	235
804.76953125	12.509765625	n/a	blockEnd	n/a	n/a	n/a	n/a	n/a	n/a	n/a	n/a	n/a	n/a	412043	254
817.279296875	2	n/a	blockStart	2	n/a	n/a	n/a	n/a	n/a	n/a	n/a	n/a	n/a	418448	250
819.3125	1	health	trialStart	2	61	1	foodImage.11	FOODEEG_Images\0180.jpg	YN	Right	No	0.926175500033423	0	419489	251
820.357421875	2	health	foodImageDisplay	2	61	1	foodImage.11	FOODEEG_Images\0180.jpg	YN	Right	No	0.926175500033423	0	420024	252
822.419921875	0.926175500033423	health	choicePhaseStart	2	61	1	foodImage.11	FOODEEG_Images\0180.jpg	YN	Right	No	0.926175500033423	0	421080	253
823.33984375	0	health	response	2	61	1	foodImage.11	FOODEEG_Images\0180.jpg	YN	Right	No	0.926175500033423	0	421551	235
824.3828125	1	decision	trialStart	2	62	2	foodImage.59	FOODEEG_Images\0607.jpg	NY	Right	Yes	1.09106899984181	0	422085	251
825.43359375	2	decision	foodImageDisplay	2	62	2	foodImage.59	FOODEEG_Images\0607.jpg	NY	Right	Yes	1.09106899984181	0	422623	252
827.49609375	1.09106899984181	decision	choicePhaseStart	2	62	2	foodImage.59	FOODEEG_Images\0607.jpg	NY	Right	Yes	1.09106899984181	0	423679	253
828.578125	0	decision	response	2	62	2	foodImage.59	FOODEEG_Images\0607.jpg	NY	Right	Yes	1.09106899984181	0	424233	235
829.623046875	1	health	trialStart	2	63	3	foodImage.52	FOODEEG_Images\0539.jpg	YN	Left	Yes	1.33551730006002	0	424768	251
830.685546875	2	health	foodImageDisplay	2	63	3	foodImage.52	FOODEEG_Images\0539.jpg	YN	Left	Yes	1.33551730006002	0	425312	252
832.748046875	1.33551730006002	health	choicePhaseStart	2	63	3	foodImage.52	FOODEEG_Images\0539.jpg	YN	Left	Yes	1.33551730006002	0	426368	253
834.07421875	0	health	response	2	63	3	foodImage.52	FOODEEG_Images\0539.jpg	YN	Left	Yes	1.33551730006002	0	427047	234
835.119140625	1	health	trialStart	2	64	4	foodImage.105	FOODEEG_Images\0913.jpg	YN	Right	No	0.89904970000498	0	427582	251
836.16015625	2	health	foodImageDisplay	2	64	4	foodImage.105	FOODEEG_Images\0913.jpg	YN	Right	No	0.89904970000498	0	428115	252
838.224609375	0.89904970000498	health	choicePhaseStart	2	64	4	foodImage.105	FOODEEG_Images\0913.jpg	YN	Right	No	0.89904970000498	0	429172	253
839.115234375	0	health	response	2	64	4	foodImage.105	FOODEEG_Images\0913.jpg	YN	Right	No	0.89904970000498	0	429628	235
840.15625	1	health	trialStart	2	65	5	foodImage.30	FOODEEG_Images\0282.jpg	YN	Left	Yes	0.714808100135997	0	430161	251
841.201171875	2	health	foodImageDisplay	2	65	5	foodImage.30	FOODEEG_Images\0282.jpg	YN	Left	Yes	0.714808100135997	0	430696	252
843.271484375	0.714808100135997	health	choicePhaseStart	2	65	5	foodImage.30	FOODEEG_Images\0282.jpg	YN	Left	Yes	0.714808100135997	0	431756	253
843.978515625	0	health	response	2	65	5	foodImage.30	FOODEEG_Images\0282.jpg	YN	Left	Yes	0.714808100135997	0	432118	234
845.021484375	1	health	trialStart	2	66	6	foodImage.71	FOODEEG_Images\0713.jpg	YN	Right	No	0.666408800054342	0	432652	251
846.06640625	2	health	foodImageDisplay	2	66	6	foodImage.71	FOODEEG_Images\0713.jpg	YN	Right	No	0.666408800054342	0	433187	252
848.12890625	0.666408800054342	health	choicePhaseStart	2	66	6	foodImage.71	FOODEEG_Images\0713.jpg	YN	Right	No	0.666408800054342	0	434243	253
848.78515625	0	health	response	2	66	6	foodImage.71	FOODEEG_Images\0713.jpg	YN	Right	No	0.666408800054342	0	434579	235
849.830078125	1	taste	trialStart	2	67	7	foodImage.18	FOODEEG_Images\0202.jpg	NY	Right	Yes	0.969265700085089	0	435114	251
850.890625	2	taste	foodImageDisplay	2	67	7	foodImage.18	FOODEEG_Images\0202.jpg	NY	Right	Yes	0.969265700085089	0	435657	252
852.955078125	0.969265700085089	taste	choicePhaseStart	2	67	7	foodImage.18	FOODEEG_Images\0202.jpg	NY	Right	Yes	0.969265700085089	0	436714	253
853.9140625	0	taste	response	2	67	7	foodImage.18	FOODEEG_Images\0202.jpg	NY	Right	Yes	0.969265700085089	0	437205	235
854.95703125	1	decision	trialStart	2	68	8	foodImage.76	FOODEEG_Images\0766.jpg	NY	Right	Yes	1.31938500003889	0	437739	251
856.00390625	2	decision	foodImageDisplay	2	68	8	foodImage.76	FOODEEG_Images\0766.jpg	NY	Right	Yes	1.31938500003889	0	438275	252
858.068359375	1.31938500003889	decision	choicePhaseStart	2	68	8	foodImage.76	FOODEEG_Images\0766.jpg	NY	Right	Yes	1.31938500003889	0	439332	253
859.376953125	0	decision	response	2	68	8	foodImage.76	FOODEEG_Images\0766.jpg	NY	Right	Yes	1.31938500003889	0	440002	235
860.423828125	1	decision	trialStart	2	69	9	foodImage.99	FOODEEG_Images\0907.jpg	NY	Left	No	1.24133310001343	0	440538	251
861.46484375	2	decision	foodImageDisplay	2	69	9	foodImage.99	FOODEEG_Images\0907.jpg	NY	Left	No	1.24133310001343	0	441071	252
863.529296875	1.24133310001343	decision	choicePhaseStart	2	69	9	foodImage.99	FOODEEG_Images\0907.jpg	NY	Left	No	1.24133310001343	0	442128	253
864.76171875	0	decision	response	2	69	9	foodImage.99	FOODEEG_Images\0907.jpg	NY	Left	No	1.24133310001343	0	442759	234
865.8046875	1	health	trialStart	2	70	10	foodImage.20	FOODEEG_Images\0226.jpg	NY	Left	No	1.96882750000805	0	443293	251
866.849609375	2	health	foodImageDisplay	2	70	10	foodImage.20	FOODEEG_Images\0226.jpg	NY	Left	No	1.96882750000805	0	443828	252
868.9140625	1.96882750000805	health	choicePhaseStart	2	70	10	foodImage.20	FOODEEG_Images\0226.jpg	NY	Left	No	1.96882750000805	0	444885	253
870.873046875	0	health	response	2	70	10	foodImage.20	FOODEEG_Images\0226.jpg	NY	Left	No	1.96882750000805	0	445888	234
871.916015625	1	health	trialStart	2	71	11	foodImage.53	FOODEEG_Images\0547.jpg	YN	Right	No	0.830910800024867	0	446422	251
872.978515625	2	health	foodImageDisplay	2	71	11	foodImage.53	FOODEEG_Images\0547.jpg	YN	Right	No	0.830910800024867	0	446966	252
875.04296875	0.830910800024867	health	choicePhaseStart	2	71	11	foodImage.53	FOODEEG_Images\0547.jpg	YN	Right	No	0.830910800024867	0	448023	253
875.865234375	0	health	response	2	71	11	foodImage.53	FOODEEG_Images\0547.jpg	YN	Right	No	0.830910800024867	0	448444	235
876.90625	1	taste	trialStart	2	72	12	foodImage.40	FOODEEG_Images\0373.jpg	YN	Left	Yes	1.52235410013236	0	448977	251
877.951171875	2	taste	foodImageDisplay	2	72	12	foodImage.40	FOODEEG_Images\0373.jpg	YN	Left	Yes	1.52235410013236	0	449512	252
880.015625	1.52235410013236	taste	choicePhaseStart	2	72	12	foodImage.40	FOODEEG_Images\0373.jpg	YN	Left	Yes	1.52235410013236	0	450569	253
881.529296875	0	taste	response	2	72	12	foodImage.40	FOODEEG_Images\0373.jpg	YN	Left	Yes	1.52235410013236	0	451344	234
882.572265625	1	taste	trialStart	2	73	13	foodImage.80	FOODEEG_Images\0796.jpg	YN	Left	Yes	1.09777819993906	0	451878	251
883.6328125	2	taste	foodImageDisplay	2	73	13	foodImage.80	FOODEEG_Images\0796.jpg	YN	Left	Yes	1.09777819993906	0	452421	252
885.697265625	1.09777819993906	taste	choicePhaseStart	2	73	13	foodImage.80	FOODEEG_Images\0796.jpg	YN	Left	Yes	1.09777819993906	0	453478	253
886.78515625	0	taste	response	2	73	13	foodImage.80	FOODEEG_Images\0796.jpg	YN	Left	Yes	1.09777819993906	0	454035	234
887.82421875	1	taste	trialStart	2	74	14	foodImage.102	FOODEEG_Images\0910.jpg	NY	Left	No	0.918741500005126	0	454567	251
888.8671875	2	taste	foodImageDisplay	2	74	14	foodImage.102	FOODEEG_Images\0910.jpg	NY	Left	No	0.918741500005126	0	455101	252
890.931640625	0.918741500005126	taste	choicePhaseStart	2	74	14	foodImage.102	FOODEEG_Images\0910.jpg	NY	Left	No	0.918741500005126	0	456158	253
891.83984375	0	taste	response	2	74	14	foodImage.102	FOODEEG_Images\0910.jpg	NY	Left	No	0.918741500005126	0	456623	234
892.88671875	1	decision	trialStart	2	75	15	foodImage.68	FOODEEG_Images\0685.jpg	NY	Right	Yes	1.0850859999191	0	457159	251
893.97265625	2	decision	foodImageDisplay	2	75	15	foodImage.68	FOODEEG_Images\0685.jpg	NY	Right	Yes	1.0850859999191	0	457715	252
896.037109375	1.0850859999191	decision	choicePhaseStart	2	75	15	foodImage.68	FOODEEG_Images\0685.jpg	NY	Right	Yes	1.0850859999191	0	458772	253
897.11328125	0	decision	response	2	75	15	foodImage.68	FOODEEG_Images\0685.jpg	NY	Right	Yes	1.0850859999191	0	459323	235
898.15625	1	decision	trialStart	2	76	16	foodImage.10	FOODEEG_Images\0145.jpg	YN	Left	Yes	1.88833810016513	0	459857	251
899.216796875	2	decision	foodImageDisplay	2	76	16	foodImage.10	FOODEEG_Images\0145.jpg	YN	Left	Yes	1.88833810016513	0	460400	252
901.28125	1.88833810016513	decision	choicePhaseStart	2	76	16	foodImage.10	FOODEEG_Images\0145.jpg	YN	Left	Yes	1.88833810016513	0	461457	253
903.16015625	0	decision	response	2	76	16	foodImage.10	FOODEEG_Images\0145.jpg	YN	Left	Yes	1.88833810016513	0	462419	234
904.203125	1	taste	trialStart	2	77	17	foodImage.34	FOODEEG_Images\0339.jpg	NY	Right	Yes	1.45890369988047	0	462953	251
905.267578125	2	taste	foodImageDisplay	2	77	17	foodImage.34	FOODEEG_Images\0339.jpg	NY	Right	Yes	1.45890369988047	0	463498	252
907.33203125	1.45890369988047	taste	choicePhaseStart	2	77	17	foodImage.34	FOODEEG_Images\0339.jpg	NY	Right	Yes	1.45890369988047	0	464555	253
908.783203125	0	taste	response	2	77	17	foodImage.34	FOODEEG_Images\0339.jpg	NY	Right	Yes	1.45890369988047	0	465298	235
909.826171875	1	decision	trialStart	2	78	18	foodImage.73	FOODEEG_Images\0717.jpg	NY	Right	Yes	1.11094789998606	0	465832	251
910.8828125	2	decision	foodImageDisplay	2	78	18	foodImage.73	FOODEEG_Images\0717.jpg	NY	Right	Yes	1.11094789998606	0	466373	252
912.9453125	1.11094789998606	decision	choicePhaseStart	2	78	18	foodImage.73	FOODEEG_Images\0717.jpg	NY	Right	Yes	1.11094789998606	0	467429	253
914.046875	0	decision	response	2	78	18	foodImage.73	FOODEEG_Images\0717.jpg	NY	Right	Yes	1.11094789998606	0	467993	235
915.091796875	1	taste	trialStart	2	79	19	foodImage.21	FOODEEG_Images\0234.jpg	YN	Left	Yes	1.0697819001507	0	468528	251
916.154296875	2	taste	foodImageDisplay	2	79	19	foodImage.21	FOODEEG_Images\0234.jpg	YN	Left	Yes	1.0697819001507	0	469072	252
918.21875	1.0697819001507	taste	choicePhaseStart	2	79	19	foodImage.21	FOODEEG_Images\0234.jpg	YN	Left	Yes	1.0697819001507	0	470129	253
919.279296875	0	taste	response	2	79	19	foodImage.21	FOODEEG_Images\0234.jpg	YN	Left	Yes	1.0697819001507	0	470672	234
920.322265625	1	taste	trialStart	2	80	20	foodImage.120	FOODEEG_Images\0928.jpg	NY	Left	No	1.84399689990096	0	471206	251
921.365234375	2	taste	foodImageDisplay	2	80	20	foodImage.120	FOODEEG_Images\0928.jpg	NY	Left	No	1.84399689990096	0	471740	252
923.427734375	1.84399689990096	taste	choicePhaseStart	2	80	20	foodImage.120	FOODEEG_Images\0928.jpg	NY	Left	No	1.84399689990096	0	472796	253
925.263671875	0	taste	response	2	80	20	foodImage.120	FOODEEG_Images\0928.jpg	NY	Left	No	1.84399689990096	0	473736	234
926.306640625	1	taste	trialStart	2	81	21	foodImage.61	FOODEEG_Images\0640.jpg	YN	Left	Yes	1.05473700002767	0	474270	251
927.349609375	2	taste	foodImageDisplay	2	81	21	foodImage.61	FOODEEG_Images\0640.jpg	YN	Left	Yes	1.05473700002767	0	474804	252
929.4140625	1.05473700002767	taste	choicePhaseStart	2	81	21	foodImage.61	FOODEEG_Images\0640.jpg	YN	Left	Yes	1.05473700002767	0	475861	253
930.462890625	0	taste	response	2	81	21	foodImage.61	FOODEEG_Images\0640.jpg	YN	Left	Yes	1.05473700002767	0	476398	234
931.505859375	1	taste	trialStart	2	82	22	foodImage.31	FOODEEG_Images\0294.jpg	NY	Right	Yes	0.851404999848455	0	476932	251
932.548828125	2	taste	foodImageDisplay	2	82	22	foodImage.31	FOODEEG_Images\0294.jpg	NY	Right	Yes	0.851404999848455	0	477466	252
934.61328125	0.851404999848455	taste	choicePhaseStart	2	82	22	foodImage.31	FOODEEG_Images\0294.jpg	NY	Right	Yes	0.851404999848455	0	478523	253
935.455078125	0	taste	response	2	82	22	foodImage.31	FOODEEG_Images\0294.jpg	NY	Right	Yes	0.851404999848455	0	478954	235
936.50390625	1	decision	trialStart	2	83	23	foodImage.24	FOODEEG_Images\0250.jpg	YN	Left	Yes	0.762367399875075	0	479491	251
937.55078125	2	decision	foodImageDisplay	2	83	23	foodImage.24	FOODEEG_Images\0250.jpg	YN	Left	Yes	0.762367399875075	0	480027	252
939.61328125	0.762367399875075	decision	choicePhaseStart	2	83	23	foodImage.24	FOODEEG_Images\0250.jpg	YN	Left	Yes	0.762367399875075	0	481083	253
940.3671875	0	decision	response	2	83	23	foodImage.24	FOODEEG_Images\0250.jpg	YN	Left	Yes	0.762367399875075	0	481469	234
941.41015625	1	health	trialStart	2	84	24	foodImage.77	FOODEEG_Images\0771.jpg	YN	Left	Yes	1.2748013001401	0	482003	251
942.455078125	2	health	foodImageDisplay	2	84	24	foodImage.77	FOODEEG_Images\0771.jpg	YN	Left	Yes	1.2748013001401	0	482538	252
944.517578125	1.2748013001401	health	choicePhaseStart	2	84	24	foodImage.77	FOODEEG_Images\0771.jpg	YN	Left	Yes	1.2748013001401	0	483594	253
945.783203125	0	health	response	2	84	24	foodImage.77	FOODEEG_Images\0771.jpg	YN	Left	Yes	1.2748013001401	0	484242	234
946.828125	1	health	trialStart	2	85	25	foodImage.85	FOODEEG_Images\0841.jpg	YN	Right	No	2.43312369985506	0	484777	251
947.892578125	2	health	foodImageDisplay	2	85	25	foodImage.85	FOODEEG_Images\0841.jpg	YN	Right	No	2.43312369985506	0	485322	252
949.95703125	2.43312369985506	health	choicePhaseStart	2	85	25	foodImage.85	FOODEEG_Images\0841.jpg	YN	Right	No	2.43312369985506	0	486379	253
952.3828125	0	health	response	2	85	25	foodImage.85	FOODEEG_Images\0841.jpg	YN	Right	No	2.43312369985506	0	487621	235
953.431640625	1	decision	trialStart	2	86	26	foodImage.60	FOODEEG_Images\0614.jpg	NY	Right	Yes	2.16406370000914	0	488158	251
954.4921875	2	decision	foodImageDisplay	2	86	26	foodImage.60	FOODEEG_Images\0614.jpg	NY	Right	Yes	2.16406370000914	0	488701	252
956.5546875	2.16406370000914	decision	choicePhaseStart	2	86	26	foodImage.60	FOODEEG_Images\0614.jpg	NY	Right	Yes	2.16406370000914	0	489757	253
958.7109375	0	decision	response	2	86	26	foodImage.60	FOODEEG_Images\0614.jpg	NY	Right	Yes	2.16406370000914	0	490861	235
959.75390625	1	decision	trialStart	2	87	27	foodImage.54	FOODEEG_Images\0560.jpg	NY	Right	Yes	1.16653990000486	0	491395	251
960.81640625	2	decision	foodImageDisplay	2	87	27	foodImage.54	FOODEEG_Images\0560.jpg	NY	Right	Yes	1.16653990000486	0	491939	252
962.880859375	1.16653990000486	decision	choicePhaseStart	2	87	27	foodImage.54	FOODEEG_Images\0560.jpg	NY	Right	Yes	1.16653990000486	0	492996	253
964.037109375	0	decision	response	2	87	27	foodImage.54	FOODEEG_Images\0560.jpg	NY	Right	Yes	1.16653990000486	0	493588	235
965.0859375	1	decision	trialStart	2	88	28	foodImage.94	FOODEEG_Images\0902.jpg	YN	Left	Yes	1.79765880014747	0	494125	251
966.12890625	2	decision	foodImageDisplay	2	88	28	foodImage.94	FOODEEG_Images\0902.jpg	YN	Left	Yes	1.79765880014747	0	494659	252
968.193359375	1.79765880014747	decision	choicePhaseStart	2	88	28	foodImage.94	FOODEEG_Images\0902.jpg	YN	Left	Yes	1.79765880014747	0	495716	253
969.98046875	0	decision	response	2	88	28	foodImage.94	FOODEEG_Images\0902.jpg	YN	Left	Yes	1.79765880014747	0	496631	234
971.025390625	1	decision	trialStart	2	89	29	foodImage.29	FOODEEG_Images\0278.jpg	NY	Left	No	1.40644720010459	0	497166	251
972.072265625	2	decision	foodImageDisplay	2	89	29	foodImage.29	FOODEEG_Images\0278.jpg	NY	Left	No	1.40644720010459	0	497702	252
974.13671875	1.40644720010459	decision	choicePhaseStart	2	89	29	foodImage.29	FOODEEG_Images\0278.jpg	NY	Left	No	1.40644720010459	0	498759	253
975.533203125	0	decision	response	2	89	29	foodImage.29	FOODEEG_Images\0278.jpg	NY	Left	No	1.40644720010459	0	499474	234
976.57421875	1	health	trialStart	2	90	30	foodImage.108	FOODEEG_Images\0916.jpg	YN	Right	No	1.09587209997699	0	500007	251
977.61328125	2	health	foodImageDisplay	2	90	30	foodImage.108	FOODEEG_Images\0916.jpg	YN	Right	No	1.09587209997699	0	500539	252
979.677734375	1.09587209997699	health	choicePhaseStart	2	90	30	foodImage.108	FOODEEG_Images\0916.jpg	YN	Right	No	1.09587209997699	0	501596	253
980.765625	0	health	response	2	90	30	foodImage.108	FOODEEG_Images\0916.jpg	YN	Right	No	1.09587209997699	0	502153	235
981.810546875	1	decision	trialStart	2	91	31	foodImage.90	FOODEEG_Images\0890.jpg	NY	Right	Yes	1.02411539992318	0	502688	251
982.87109375	2	decision	foodImageDisplay	2	91	31	foodImage.90	FOODEEG_Images\0890.jpg	NY	Right	Yes	1.02411539992318	0	503231	252
984.93359375	1.02411539992318	decision	choicePhaseStart	2	91	31	foodImage.90	FOODEEG_Images\0890.jpg	NY	Right	Yes	1.02411539992318	0	504287	253
985.94921875	0	decision	response	2	91	31	foodImage.90	FOODEEG_Images\0890.jpg	NY	Right	Yes	1.02411539992318	0	504807	235
986.9921875	1	decision	trialStart	2	92	32	foodImage.3	FOODEEG_Images\0046.jpg	NY	Right	Yes	1.64800979988649	0	505341	251
988.037109375	2	decision	foodImageDisplay	2	92	32	foodImage.3	FOODEEG_Images\0046.jpg	NY	Right	Yes	1.64800979988649	0	505876	252
990.1015625	1.64800979988649	decision	choicePhaseStart	2	92	32	foodImage.3	FOODEEG_Images\0046.jpg	NY	Right	Yes	1.64800979988649	0	506933	253
991.740234375	0	decision	response	2	92	32	foodImage.3	FOODEEG_Images\0046.jpg	NY	Right	Yes	1.64800979988649	0	507772	235
992.78515625	1	decision	trialStart	2	93	33	foodImage.36	FOODEEG_Images\0352.jpg	NY	Right	Yes	0.974777400027961	0	508307	251
993.84765625	2	decision	foodImageDisplay	2	93	33	foodImage.36	FOODEEG_Images\0352.jpg	NY	Right	Yes	0.974777400027961	0	508851	252
995.912109375	0.974777400027961	decision	choicePhaseStart	2	93	33	foodImage.36	FOODEEG_Images\0352.jpg	NY	Right	Yes	0.974777400027961	0	509908	253
996.876953125	0	decision	response	2	93	33	foodImage.36	FOODEEG_Images\0352.jpg	NY	Right	Yes	0.974777400027961	0	510402	235
997.919921875	1	decision	trialStart	2	94	34	foodImage.115	FOODEEG_Images\0923.jpg	NY	Left	No	1.72008240013383	0	510936	251
998.962890625	2	decision	foodImageDisplay	2	94	34	foodImage.115	FOODEEG_Images\0923.jpg	NY	Left	No	1.72008240013383	0	511470	252
1001.02734375	1.72008240013383	decision	choicePhaseStart	2	94	34	foodImage.115	FOODEEG_Images\0923.jpg	NY	Left	No	1.72008240013383	0	512527	253
1002.740234375	0	decision	response	2	94	34	foodImage.115	FOODEEG_Images\0923.jpg	NY	Left	No	1.72008240013383	0	513404	234
1003.783203125	1	health	trialStart	2	95	35	foodImage.5	FOODEEG_Images\0107.jpg	NY	Left	No	1.04079360002652	0	513938	251
1004.84375	2	health	foodImageDisplay	2	95	35	foodImage.5	FOODEEG_Images\0107.jpg	NY	Left	No	1.04079360002652	0	514481	252
1006.908203125	1.04079360002652	health	choicePhaseStart	2	95	35	foodImage.5	FOODEEG_Images\0107.jpg	NY	Left	No	1.04079360002652	0	515538	253
1007.939453125	0	health	response	2	95	35	foodImage.5	FOODEEG_Images\0107.jpg	NY	Left	No	1.04079360002652	0	516066	234
1008.984375	1	decision	trialStart	2	96	36	foodImage.12	FOODEEG_Images\0181.jpg	NY	Right	Yes	1.08873650012538	0	516601	251
1010.048828125	2	decision	foodImageDisplay	2	96	36	foodImage.12	FOODEEG_Images\0181.jpg	NY	Right	Yes	1.08873650012538	0	517146	252
1012.11328125	1.08873650012538	decision	choicePhaseStart	2	96	36	foodImage.12	FOODEEG_Images\0181.jpg	NY	Right	Yes	1.08873650012538	0	518203	253
1013.1953125	0	decision	response	2	96	36	foodImage.12	FOODEEG_Images\0181.jpg	NY	Right	Yes	1.08873650012538	0	518757	235
1014.240234375	1	health	trialStart	2	97	37	foodImage.73	FOODEEG_Images\0717.jpg	NY	Right	Yes	1.18507219990715	0	519292	251
1015.298828125	2	health	foodImageDisplay	2	97	37	foodImage.73	FOODEEG_Images\0717.jpg	NY	Right	Yes	1.18507219990715	0	519834	252
1017.36328125	1.18507219990715	health	choicePhaseStart	2	97	37	foodImage.73	FOODEEG_Images\0717.jpg	NY	Right	Yes	1.18507219990715	0	520891	253
1018.5390625	0	health	response	2	97	37	foodImage.73	FOODEEG_Images\0717.jpg	NY	Right	Yes	1.18507219990715	0	521493	235
1019.58203125	1	health	trialStart	2	98	38	foodImage.42	FOODEEG_Images\0438.jpg	YN	Left	Yes	2.13186750002205	0	522027	251
1020.673828125	2	health	foodImageDisplay	2	98	38	foodImage.42	FOODEEG_Images\0438.jpg	YN	Left	Yes	2.13186750002205	0	522586	252
1022.736328125	2.13186750002205	health	choicePhaseStart	2	98	38	foodImage.42	FOODEEG_Images\0438.jpg	YN	Left	Yes	2.13186750002205	0	523642	253
1024.859375	0	health	response	2	98	38	foodImage.42	FOODEEG_Images\0438.jpg	YN	Left	Yes	2.13186750002205	0	524729	234
1025.90234375	1	health	trialStart	2	99	39	foodImage.4	FOODEEG_Images\0065.jpg	NY	Left	No	0.967078399844468	0	525263	251
1026.96484375	2	health	foodImageDisplay	2	99	39	foodImage.4	FOODEEG_Images\0065.jpg	NY	Left	No	0.967078399844468	0	525807	252
1029.029296875	0.967078399844468	health	choicePhaseStart	2	99	39	foodImage.4	FOODEEG_Images\0065.jpg	NY	Left	No	0.967078399844468	0	526864	253
1029.986328125	0	health	response	2	99	39	foodImage.4	FOODEEG_Images\0065.jpg	NY	Left	No	0.967078399844468	0	527354	234
1031.03125	1	decision	trialStart	2	100	40	foodImage.95	FOODEEG_Images\0903.jpg	YN	Right	No	1.74496020004153	0	527889	251
1032.07421875	2	decision	foodImageDisplay	2	100	40	foodImage.95	FOODEEG_Images\0903.jpg	YN	Right	No	1.74496020004153	0	528423	252
1034.142578125	1.74496020004153	decision	choicePhaseStart	2	100	40	foodImage.95	FOODEEG_Images\0903.jpg	YN	Right	No	1.74496020004153	0	529482	253
1035.8828125	0	decision	response	2	100	40	foodImage.95	FOODEEG_Images\0903.jpg	YN	Right	No	1.74496020004153	0	530373	235
1036.923828125	1	decision	trialStart	2	101	41	foodImage.79	FOODEEG_Images\0794.jpg	YN	Left	Yes	1.53862780006602	0	530906	251
1037.97265625	2	decision	foodImageDisplay	2	101	41	foodImage.79	FOODEEG_Images\0794.jpg	YN	Left	Yes	1.53862780006602	0	531443	252
1040.041015625	1.53862780006602	decision	choicePhaseStart	2	101	41	foodImage.79	FOODEEG_Images\0794.jpg	YN	Left	Yes	1.53862780006602	0	532502	253
1041.5703125	0	decision	response	2	101	41	foodImage.79	FOODEEG_Images\0794.jpg	YN	Left	Yes	1.53862780006602	0	533285	234
1042.615234375	1	health	trialStart	2	102	42	foodImage.66	FOODEEG_Images\0676.jpg	YN	Right	No	1.57367739989422	0	533820	251
1043.662109375	2	health	foodImageDisplay	2	102	42	foodImage.66	FOODEEG_Images\0676.jpg	YN	Right	No	1.57367739989422	0	534356	252
1045.7265625	1.57367739989422	health	choicePhaseStart	2	102	42	foodImage.66	FOODEEG_Images\0676.jpg	YN	Right	No	1.57367739989422	0	535413	253
1047.291015625	0	health	response	2	102	42	foodImage.66	FOODEEG_Images\0676.jpg	YN	Right	No	1.57367739989422	0	536214	235
1048.337890625	1	taste	trialStart	2	103	43	foodImage.19	FOODEEG_Images\0225.jpg	YN	Left	Yes	1.09669329994358	0	536750	251
1049.3828125	2	taste	foodImageDisplay	2	103	43	foodImage.19	FOODEEG_Images\0225.jpg	YN	Left	Yes	1.09669329994358	0	537285	252
1051.451171875	1.09669329994358	taste	choicePhaseStart	2	103	43	foodImage.19	FOODEEG_Images\0225.jpg	YN	Left	Yes	1.09669329994358	0	538344	253
1052.5390625	0	taste	response	2	103	43	foodImage.19	FOODEEG_Images\0225.jpg	YN	Left	Yes	1.09669329994358	0	538901	234
1053.58203125	1	decision	trialStart	2	104	44	foodImage.45	FOODEEG_Images\0478.jpg	NY	Right	Yes	1.49197850003839	0	539435	251
1054.630859375	2	decision	foodImageDisplay	2	104	44	foodImage.45	FOODEEG_Images\0478.jpg	NY	Right	Yes	1.49197850003839	0	539972	252
1056.6953125	1.49197850003839	decision	choicePhaseStart	2	104	44	foodImage.45	FOODEEG_Images\0478.jpg	NY	Right	Yes	1.49197850003839	0	541029	253
1058.177734375	0	decision	response	2	104	44	foodImage.45	FOODEEG_Images\0478.jpg	NY	Right	Yes	1.49197850003839	0	541788	235
1059.224609375	1	decision	trialStart	2	105	45	foodImage.49	FOODEEG_Images\0515.jpg	NY	Right	Yes	1.09275220008567	0	542324	251
1060.267578125	2	decision	foodImageDisplay	2	105	45	foodImage.49	FOODEEG_Images\0515.jpg	NY	Right	Yes	1.09275220008567	0	542858	252
1062.333984375	1.09275220008567	decision	choicePhaseStart	2	105	45	foodImage.49	FOODEEG_Images\0515.jpg	NY	Right	Yes	1.09275220008567	0	543916	253
1063.41796875	0	decision	response	2	105	45	foodImage.49	FOODEEG_Images\0515.jpg	NY	Right	Yes	1.09275220008567	0	544471	235
1064.4609375	1	taste	trialStart	2	106	46	foodImage.53	FOODEEG_Images\0547.jpg	YN	Left	Yes	1.03580900002271	0	545005	251
1065.51953125	2	taste	foodImageDisplay	2	106	46	foodImage.53	FOODEEG_Images\0547.jpg	YN	Left	Yes	1.03580900002271	0	545547	252
1067.58203125	1.03580900002271	taste	choicePhaseStart	2	106	46	foodImage.53	FOODEEG_Images\0547.jpg	YN	Left	Yes	1.03580900002271	0	546603	253
1068.609375	0	taste	response	2	106	46	foodImage.53	FOODEEG_Images\0547.jpg	YN	Left	Yes	1.03580900002271	0	547129	234
1069.658203125	1	taste	trialStart	2	107	47	foodImage.11	FOODEEG_Images\0180.jpg	NY	Right	Yes	2.31746960012242	0	547666	251
1070.701171875	2	taste	foodImageDisplay	2	107	47	foodImage.11	FOODEEG_Images\0180.jpg	NY	Right	Yes	2.31746960012242	0	548200	252
1072.765625	2.31746960012242	taste	choicePhaseStart	2	107	47	foodImage.11	FOODEEG_Images\0180.jpg	NY	Right	Yes	2.31746960012242	0	549257	253
1075.072265625	0	taste	response	2	107	47	foodImage.11	FOODEEG_Images\0180.jpg	NY	Right	Yes	2.31746960012242	0	550438	235
1076.11328125	1	taste	trialStart	2	108	48	foodImage.71	FOODEEG_Images\0713.jpg	NY	Right	Yes	1.36688430001959	0	550971	251
1077.15625	2	taste	foodImageDisplay	2	108	48	foodImage.71	FOODEEG_Images\0713.jpg	NY	Right	Yes	1.36688430001959	0	551505	252
1079.224609375	1.36688430001959	taste	choicePhaseStart	2	108	48	foodImage.71	FOODEEG_Images\0713.jpg	NY	Right	Yes	1.36688430001959	0	552564	253
1080.5859375	0	taste	response	2	108	48	foodImage.71	FOODEEG_Images\0713.jpg	NY	Right	Yes	1.36688430001959	0	553261	235
1081.62890625	1	decision	trialStart	2	109	49	foodImage.8	FOODEEG_Images\0136.jpg	YN	Left	Yes	1.5052096999716	0	553795	251
1082.671875	2	decision	foodImageDisplay	2	109	49	foodImage.8	FOODEEG_Images\0136.jpg	YN	Left	Yes	1.5052096999716	0	554329	252
1084.736328125	1.5052096999716	decision	choicePhaseStart	2	109	49	foodImage.8	FOODEEG_Images\0136.jpg	YN	Left	Yes	1.5052096999716	0	555386	253
1086.232421875	0	decision	response	2	109	49	foodImage.8	FOODEEG_Images\0136.jpg	YN	Left	Yes	1.5052096999716	0	556152	234
1087.27734375	1	taste	trialStart	2	110	50	foodImage.32	FOODEEG_Images\0319.jpg	YN	Left	Yes	0.920674599939957	0	556687	251
1088.322265625	2	taste	foodImageDisplay	2	110	50	foodImage.32	FOODEEG_Images\0319.jpg	YN	Left	Yes	0.920674599939957	0	557222	252
1090.384765625	0.920674599939957	taste	choicePhaseStart	2	110	50	foodImage.32	FOODEEG_Images\0319.jpg	YN	Left	Yes	0.920674599939957	0	558278	253
1091.296875	0	taste	response	2	110	50	foodImage.32	FOODEEG_Images\0319.jpg	YN	Left	Yes	0.920674599939957	0	558745	234
1092.33984375	1	decision	trialStart	2	111	51	foodImage.67	FOODEEG_Images\0679.jpg	YN	Right	No	1.15004330012016	0	559279	251
1093.408203125	2	decision	foodImageDisplay	2	111	51	foodImage.67	FOODEEG_Images\0679.jpg	YN	Right	No	1.15004330012016	0	559826	252
1095.47265625	1.15004330012016	decision	choicePhaseStart	2	111	51	foodImage.67	FOODEEG_Images\0679.jpg	YN	Right	No	1.15004330012016	0	560883	253
1096.6171875	0	decision	response	2	111	51	foodImage.67	FOODEEG_Images\0679.jpg	YN	Right	No	1.15004330012016	0	561469	235
1097.66015625	1	taste	trialStart	2	112	52	foodImage.1	FOODEEG_Images\0004.jpg	NY	Right	Yes	1.20738540007733	0	562003	251
1098.705078125	2	taste	foodImageDisplay	2	112	52	foodImage.1	FOODEEG_Images\0004.jpg	NY	Right	Yes	1.20738540007733	0	562538	252
1100.76953125	1.20738540007733	taste	choicePhaseStart	2	112	52	foodImage.1	FOODEEG_Images\0004.jpg	NY	Right	Yes	1.20738540007733	0	563595	253
1101.96875	0	taste	response	2	112	52	foodImage.1	FOODEEG_Images\0004.jpg	NY	Right	Yes	1.20738540007733	0	564209	235
1103.01171875	1	health	trialStart	2	113	53	foodImage.45	FOODEEG_Images\0478.jpg	NY	Right	Yes	1.13094609999098	0	564743	251
1104.056640625	2	health	foodImageDisplay	2	113	53	foodImage.45	FOODEEG_Images\0478.jpg	NY	Right	Yes	1.13094609999098	0	565278	252
1106.119140625	1.13094609999098	health	choicePhaseStart	2	113	53	foodImage.45	FOODEEG_Images\0478.jpg	NY	Right	Yes	1.13094609999098	0	566334	253
1107.240234375	0	health	response	2	113	53	foodImage.45	FOODEEG_Images\0478.jpg	NY	Right	Yes	1.13094609999098	0	566908	235
1108.28125	1	taste	trialStart	2	114	54	foodImage.10	FOODEEG_Images\0145.jpg	YN	Left	Yes	0.973954999819398	0	567441	251
1109.337890625	2	taste	foodImageDisplay	2	114	54	foodImage.10	FOODEEG_Images\0145.jpg	YN	Left	Yes	0.973954999819398	0	567982	252
1111.40234375	0.973954999819398	taste	choicePhaseStart	2	114	54	foodImage.10	FOODEEG_Images\0145.jpg	YN	Left	Yes	0.973954999819398	0	569039	253
1112.3671875	0	taste	response	2	114	54	foodImage.10	FOODEEG_Images\0145.jpg	YN	Left	Yes	0.973954999819398	0	569533	234
1113.412109375	1	taste	trialStart	2	115	55	foodImage.41	FOODEEG_Images\0409.jpg	NY	Right	Yes	1.19508990016766	0	570068	251
1114.462890625	2	taste	foodImageDisplay	2	115	55	foodImage.41	FOODEEG_Images\0409.jpg	NY	Right	Yes	1.19508990016766	0	570606	252
1116.52734375	1.19508990016766	taste	choicePhaseStart	2	115	55	foodImage.41	FOODEEG_Images\0409.jpg	NY	Right	Yes	1.19508990016766	0	571663	253
1117.7109375	0	taste	response	2	115	55	foodImage.41	FOODEEG_Images\0409.jpg	NY	Right	Yes	1.19508990016766	0	572269	235
1118.755859375	1	decision	trialStart	2	116	56	foodImage.87	FOODEEG_Images\0873.jpg	NY	Right	Yes	1.38348379987292	0	572804	251
1119.814453125	2	decision	foodImageDisplay	2	116	56	foodImage.87	FOODEEG_Images\0873.jpg	NY	Right	Yes	1.38348379987292	0	573346	252
1121.87890625	1.38348379987292	decision	choicePhaseStart	2	116	56	foodImage.87	FOODEEG_Images\0873.jpg	NY	Right	Yes	1.38348379987292	0	574403	253
1123.255859375	0	decision	response	2	116	56	foodImage.87	FOODEEG_Images\0873.jpg	NY	Right	Yes	1.38348379987292	0	575108	235
1124.294921875	1	decision	trialStart	2	117	57	foodImage.66	FOODEEG_Images\0676.jpg	YN	Left	Yes	1.76625570002943	0	575640	251
1125.353515625	2	decision	foodImageDisplay	2	117	57	foodImage.66	FOODEEG_Images\0676.jpg	YN	Left	Yes	1.76625570002943	0	576182	252
1127.41796875	1.76625570002943	decision	choicePhaseStart	2	117	57	foodImage.66	FOODEEG_Images\0676.jpg	YN	Left	Yes	1.76625570002943	0	577239	253
1129.17578125	0	decision	response	2	117	57	foodImage.66	FOODEEG_Images\0676.jpg	YN	Left	Yes	1.76625570002943	0	578139	234
1130.216796875	1	taste	trialStart	2	118	58	foodImage.100	FOODEEG_Images\0908.jpg	NY	Right	Yes	1.74517449992709	0	578672	251
1131.2578125	2	taste	foodImageDisplay	2	118	58	foodImage.100	FOODEEG_Images\0908.jpg	NY	Right	Yes	1.74517449992709	0	579205	252
1133.3203125	1.74517449992709	taste	choicePhaseStart	2	118	58	foodImage.100	FOODEEG_Images\0908.jpg	NY	Right	Yes	1.74517449992709	0	580261	253
1135.0546875	0	taste	response	2	118	58	foodImage.100	FOODEEG_Images\0908.jpg	NY	Right	Yes	1.74517449992709	0	581149	235
1136.09765625	1	decision	trialStart	2	119	59	foodImage.61	FOODEEG_Images\0640.jpg	NY	Right	Yes	1.09692690009251	0	581683	251
1137.142578125	2	decision	foodImageDisplay	2	119	59	foodImage.61	FOODEEG_Images\0640.jpg	NY	Right	Yes	1.09692690009251	0	582218	252
1139.205078125	1.09692690009251	decision	choicePhaseStart	2	119	59	foodImage.61	FOODEEG_Images\0640.jpg	NY	Right	Yes	1.09692690009251	0	583274	253
1140.294921875	0	decision	response	2	119	59	foodImage.61	FOODEEG_Images\0640.jpg	NY	Right	Yes	1.09692690009251	0	583832	235
1141.337890625	1	taste	trialStart	2	120	60	foodImage.99	FOODEEG_Images\0907.jpg	NY	Left	No	1.08409649995156	0	584366	251
1142.373046875	2	taste	foodImageDisplay	2	120	60	foodImage.99	FOODEEG_Images\0907.jpg	NY	Left	No	1.08409649995156	0	584896	252
1144.435546875	1.08409649995156	taste	choicePhaseStart	2	120	60	foodImage.99	FOODEEG_Images\0907.jpg	NY	Left	No	1.08409649995156	0	585952	253
1145.509765625	0	taste	response	2	120	60	foodImage.99	FOODEEG_Images\0907.jpg	NY	Left	No	1.08409649995156	0	586502	234
1147.55078125	16.021484375	n/a	blockEnd	n/a	n/a	n/a	n/a	n/a	n/a	n/a	n/a	n/a	n/a	587547	254
1163.572265625	2	n/a	blockStart	3	n/a	n/a	n/a	n/a	n/a	n/a	n/a	n/a	n/a	595750	250
1165.60546875	1	health	trialStart	3	121	1	foodImage.43	FOODEEG_Images\0445.jpg	NY	Right	Yes	1.06997160008177	0	596791	251
1166.6640625	2	health	foodImageDisplay	3	121	1	foodImage.43	FOODEEG_Images\0445.jpg	NY	Right	Yes	1.06997160008177	0	597333	252
1168.728515625	1.06997160008177	health	choicePhaseStart	3	121	1	foodImage.43	FOODEEG_Images\0445.jpg	NY	Right	Yes	1.06997160008177	0	598390	253
1169.7890625	0	health	response	3	121	1	foodImage.43	FOODEEG_Images\0445.jpg	NY	Right	Yes	1.06997160008177	0	598933	235
1170.8359375	1	decision	trialStart	3	122	2	foodImage.93	FOODEEG_Images\0901.jpg	NY	Right	Yes	1.1988180000335	0	599469	251
1171.87890625	2	decision	foodImageDisplay	3	122	2	foodImage.93	FOODEEG_Images\0901.jpg	NY	Right	Yes	1.1988180000335	0	600003	252
1173.943359375	1.1988180000335	decision	choicePhaseStart	3	122	2	foodImage.93	FOODEEG_Images\0901.jpg	NY	Right	Yes	1.1988180000335	0	601060	253
1175.1328125	0	decision	response	3	122	2	foodImage.93	FOODEEG_Images\0901.jpg	NY	Right	Yes	1.1988180000335	0	601669	235
1176.17578125	1	health	trialStart	3	123	3	foodImage.81	FOODEEG_Images\0797.jpg	NY	Right	Yes	0.974757099989802	0	602203	251
1177.240234375	2	health	foodImageDisplay	3	123	3	foodImage.81	FOODEEG_Images\0797.jpg	NY	Right	Yes	0.974757099989802	0	602748	252
1179.302734375	0.974757099989802	health	choicePhaseStart	3	123	3	foodImage.81	FOODEEG_Images\0797.jpg	NY	Right	Yes	0.974757099989802	0	603804	253
1180.26953125	0	health	response	3	123	3	foodImage.81	FOODEEG_Images\0797.jpg	NY	Right	Yes	0.974757099989802	0	604299	235
1181.3125	1	decision	trialStart	3	124	4	foodImage.65	FOODEEG_Images\0658.jpg	NY	Right	Yes	1.20161089999601	0	604833	251
1182.35546875	2	decision	foodImageDisplay	3	124	4	foodImage.65	FOODEEG_Images\0658.jpg	NY	Right	Yes	1.20161089999601	0	605367	252
1184.419921875	1.20161089999601	decision	choicePhaseStart	3	124	4	foodImage.65	FOODEEG_Images\0658.jpg	NY	Right	Yes	1.20161089999601	0	606424	253
1185.61328125	0	decision	response	3	124	4	foodImage.65	FOODEEG_Images\0658.jpg	NY	Right	Yes	1.20161089999601	0	607035	235
1186.654296875	1	health	trialStart	3	125	5	foodImage.31	FOODEEG_Images\0294.jpg	YN	Right	No	1.24806340015493	0	607568	251
1187.697265625	2	health	foodImageDisplay	3	125	5	foodImage.31	FOODEEG_Images\0294.jpg	YN	Right	No	1.24806340015493	0	608102	252
1189.759765625	1.24806340015493	health	choicePhaseStart	3	125	5	foodImage.31	FOODEEG_Images\0294.jpg	YN	Right	No	1.24806340015493	0	609158	253
1190.99609375	0	health	response	3	125	5	foodImage.31	FOODEEG_Images\0294.jpg	YN	Right	No	1.24806340015493	0	609791	235
1192.041015625	1	health	trialStart	3	126	6	foodImage.87	FOODEEG_Images\0873.jpg	NY	Right	Yes	0.840980400098488	0	610326	251
1193.1015625	2	health	foodImageDisplay	3	126	6	foodImage.87	FOODEEG_Images\0873.jpg	NY	Right	Yes	0.840980400098488	0	610869	252
1195.1640625	0.840980400098488	health	choicePhaseStart	3	126	6	foodImage.87	FOODEEG_Images\0873.jpg	NY	Right	Yes	0.840980400098488	0	611925	253
1195.99609375	0	health	response	3	126	6	foodImage.87	FOODEEG_Images\0873.jpg	NY	Right	Yes	0.840980400098488	0	612351	235
1197.0390625	1	decision	trialStart	3	127	7	foodImage.57	FOODEEG_Images\0587.jpg	YN	Left	Yes	1.72588920011185	0	612885	251
1198.103515625	2	decision	foodImageDisplay	3	127	7	foodImage.57	FOODEEG_Images\0587.jpg	YN	Left	Yes	1.72588920011185	0	613430	252
1200.16796875	1.72588920011185	decision	choicePhaseStart	3	127	7	foodImage.57	FOODEEG_Images\0587.jpg	YN	Left	Yes	1.72588920011185	0	614487	253
1201.884765625	0	decision	response	3	127	7	foodImage.57	FOODEEG_Images\0587.jpg	YN	Left	Yes	1.72588920011185	0	615366	234
1202.931640625	1	taste	trialStart	3	128	8	foodImage.49	FOODEEG_Images\0515.jpg	NY	Right	Yes	0.961209200089797	0	615902	251
1203.97265625	2	taste	foodImageDisplay	3	128	8	foodImage.49	FOODEEG_Images\0515.jpg	NY	Right	Yes	0.961209200089797	0	616435	252
1206.03515625	0.961209200089797	taste	choicePhaseStart	3	128	8	foodImage.49	FOODEEG_Images\0515.jpg	NY	Right	Yes	0.961209200089797	0	617491	253
1206.98828125	0	taste	response	3	128	8	foodImage.49	FOODEEG_Images\0515.jpg	NY	Right	Yes	0.961209200089797	0	617979	235
1208.029296875	1	taste	trialStart	3	129	9	foodImage.30	FOODEEG_Images\0282.jpg	NY	Right	Yes	0.984724999871105	0	618512	251
1209.0703125	2	taste	foodImageDisplay	3	129	9	foodImage.30	FOODEEG_Images\0282.jpg	NY	Right	Yes	0.984724999871105	0	619045	252
1211.1328125	0.984724999871105	taste	choicePhaseStart	3	129	9	foodImage.30	FOODEEG_Images\0282.jpg	NY	Right	Yes	0.984724999871105	0	620101	253
1212.107421875	0	taste	response	3	129	9	foodImage.30	FOODEEG_Images\0282.jpg	NY	Right	Yes	0.984724999871105	0	620600	235
1213.150390625	1	health	trialStart	3	130	10	foodImage.84	FOODEEG_Images\0830.jpg	NY	Right	Yes	0.880263699917123	0	621134	251
1214.212890625	2	health	foodImageDisplay	3	130	10	foodImage.84	FOODEEG_Images\0830.jpg	NY	Right	Yes	0.880263699917123	0	621678	252
1216.27734375	0.880263699917123	health	choicePhaseStart	3	130	10	foodImage.84	FOODEEG_Images\0830.jpg	NY	Right	Yes	0.880263699917123	0	622735	253
1217.1484375	0	health	response	3	130	10	foodImage.84	FOODEEG_Images\0830.jpg	NY	Right	Yes	0.880263699917123	0	623181	235
1218.189453125	1	decision	trialStart	3	131	11	foodImage.91	FOODEEG_Images\0896.jpg	NY	Right	Yes	0.948074199957773	0	623714	251
1219.248046875	2	decision	foodImageDisplay	3	131	11	foodImage.91	FOODEEG_Images\0896.jpg	NY	Right	Yes	0.948074199957773	0	624256	252
1221.3125	0.948074199957773	decision	choicePhaseStart	3	131	11	foodImage.91	FOODEEG_Images\0896.jpg	NY	Right	Yes	0.948074199957773	0	625313	253
1222.251953125	0	decision	response	3	131	11	foodImage.91	FOODEEG_Images\0896.jpg	NY	Right	Yes	0.948074199957773	0	625794	235
1223.30078125	1	health	trialStart	3	132	12	foodImage.80	FOODEEG_Images\0796.jpg	NY	Right	Yes	1.2520107999444	0	626331	251
1224.361328125	2	health	foodImageDisplay	3	132	12	foodImage.80	FOODEEG_Images\0796.jpg	NY	Right	Yes	1.2520107999444	0	626874	252
1226.423828125	1.2520107999444	health	choicePhaseStart	3	132	12	foodImage.80	FOODEEG_Images\0796.jpg	NY	Right	Yes	1.2520107999444	0	627930	253
1227.66796875	0	health	response	3	132	12	foodImage.80	FOODEEG_Images\0796.jpg	NY	Right	Yes	1.2520107999444	0	628567	235
1228.7109375	1	taste	trialStart	3	133	13	foodImage.50	FOODEEG_Images\0529.jpg	YN	Left	Yes	1.78917700005695	0	629101	251
1229.7734375	2	taste	foodImageDisplay	3	133	13	foodImage.50	FOODEEG_Images\0529.jpg	YN	Left	Yes	1.78917700005695	0	629645	252
1231.837890625	1.78917700005695	taste	choicePhaseStart	3	133	13	foodImage.50	FOODEEG_Images\0529.jpg	YN	Left	Yes	1.78917700005695	0	630702	253
1233.619140625	0	taste	response	3	133	13	foodImage.50	FOODEEG_Images\0529.jpg	YN	Left	Yes	1.78917700005695	0	631614	234
1234.662109375	1	decision	trialStart	3	134	14	foodImage.19	FOODEEG_Images\0225.jpg	YN	Left	Yes	2.0794373000972	0	632148	251
1235.70703125	2	decision	foodImageDisplay	3	134	14	foodImage.19	FOODEEG_Images\0225.jpg	YN	Left	Yes	2.0794373000972	0	632683	252
1237.7734375	2.0794373000972	decision	choicePhaseStart	3	134	14	foodImage.19	FOODEEG_Images\0225.jpg	YN	Left	Yes	2.0794373000972	0	633741	253
1239.84375	0	decision	response	3	134	14	foodImage.19	FOODEEG_Images\0225.jpg	YN	Left	Yes	2.0794373000972	0	634801	234
1240.884765625	1	taste	trialStart	3	135	15	foodImage.54	FOODEEG_Images\0560.jpg	YN	Left	Yes	1.28930349997245	0	635334	251
1241.9453125	2	taste	foodImageDisplay	3	135	15	foodImage.54	FOODEEG_Images\0560.jpg	YN	Left	Yes	1.28930349997245	0	635877	252
1244.01171875	1.28930349997245	taste	choicePhaseStart	3	135	15	foodImage.54	FOODEEG_Images\0560.jpg	YN	Left	Yes	1.28930349997245	0	636935	253
1245.291015625	0	taste	response	3	135	15	foodImage.54	FOODEEG_Images\0560.jpg	YN	Left	Yes	1.28930349997245	0	637590	234
1246.33203125	1	decision	trialStart	3	136	16	foodImage.40	FOODEEG_Images\0373.jpg	YN	Left	Yes	2.11017960007302	0	638123	251
1247.375	2	decision	foodImageDisplay	3	136	16	foodImage.40	FOODEEG_Images\0373.jpg	YN	Left	Yes	2.11017960007302	0	638657	252
1249.4375	2.11017960007302	decision	choicePhaseStart	3	136	16	foodImage.40	FOODEEG_Images\0373.jpg	YN	Left	Yes	2.11017960007302	0	639713	253
1251.5390625	0	decision	response	3	136	16	foodImage.40	FOODEEG_Images\0373.jpg	YN	Left	Yes	2.11017960007302	0	640789	234
1252.587890625	1	decision	trialStart	3	137	17	foodImage.27	FOODEEG_Images\0263.jpg	YN	Left	Yes	1.90864310017787	0	641326	251
1253.630859375	2	decision	foodImageDisplay	3	137	17	foodImage.27	FOODEEG_Images\0263.jpg	YN	Left	Yes	1.90864310017787	0	641860	252
1255.6953125	1.90864310017787	decision	choicePhaseStart	3	137	17	foodImage.27	FOODEEG_Images\0263.jpg	YN	Left	Yes	1.90864310017787	0	642917	253
1257.59375	0	decision	response	3	137	17	foodImage.27	FOODEEG_Images\0263.jpg	YN	Left	Yes	1.90864310017787	0	643889	234
1258.638671875	1	taste	trialStart	3	138	18	foodImage.56	FOODEEG_Images\0586.jpg	YN	Right	No	1.15996600012295	0	644424	251
1259.681640625	2	taste	foodImageDisplay	3	138	18	foodImage.56	FOODEEG_Images\0586.jpg	YN	Right	No	1.15996600012295	0	644958	252
1261.74609375	1.15996600012295	taste	choicePhaseStart	3	138	18	foodImage.56	FOODEEG_Images\0586.jpg	YN	Right	No	1.15996600012295	0	646015	253
1262.8984375	0	taste	response	3	138	18	foodImage.56	FOODEEG_Images\0586.jpg	YN	Right	No	1.15996600012295	0	646605	235
1263.94140625	1	taste	trialStart	3	139	19	foodImage.92	FOODEEG_Images\0900.jpg	NY	Left	No	1.10774819995277	0	647139	251
1264.984375	2	taste	foodImageDisplay	3	139	19	foodImage.92	FOODEEG_Images\0900.jpg	NY	Left	No	1.10774819995277	0	647673	252
1267.046875	1.10774819995277	taste	choicePhaseStart	3	139	19	foodImage.92	FOODEEG_Images\0900.jpg	NY	Left	No	1.10774819995277	0	648729	253
1268.146484375	0	taste	response	3	139	19	foodImage.92	FOODEEG_Images\0900.jpg	NY	Left	No	1.10774819995277	0	649292	234
1269.189453125	1	decision	trialStart	3	140	20	foodImage.17	FOODEEG_Images\0199.jpg	YN	Left	Yes	1.37844469980337	0	649826	251
1270.232421875	2	decision	foodImageDisplay	3	140	20	foodImage.17	FOODEEG_Images\0199.jpg	YN	Left	Yes	1.37844469980337	0	650360	252
1272.294921875	1.37844469980337	decision	choicePhaseStart	3	140	20	foodImage.17	FOODEEG_Images\0199.jpg	YN	Left	Yes	1.37844469980337	0	651416	253
1273.666015625	0	decision	response	3	140	20	foodImage.17	FOODEEG_Images\0199.jpg	YN	Left	Yes	1.37844469980337	0	652118	234
1274.708984375	1	taste	trialStart	3	141	21	foodImage.60	FOODEEG_Images\0614.jpg	NY	Right	Yes	1.8821466001682	0	652652	251
1275.76953125	2	taste	foodImageDisplay	3	141	21	foodImage.60	FOODEEG_Images\0614.jpg	NY	Right	Yes	1.8821466001682	0	653195	252
1277.83203125	1.8821466001682	taste	choicePhaseStart	3	141	21	foodImage.60	FOODEEG_Images\0614.jpg	NY	Right	Yes	1.8821466001682	0	654251	253
1279.705078125	0	taste	response	3	141	21	foodImage.60	FOODEEG_Images\0614.jpg	NY	Right	Yes	1.8821466001682	0	655210	235
1280.75	1	health	trialStart	3	142	22	foodImage.46	FOODEEG_Images\0479.jpg	NY	Right	Yes	1.934675199911	0	655745	251
1281.8125	2	health	foodImageDisplay	3	142	22	foodImage.46	FOODEEG_Images\0479.jpg	NY	Right	Yes	1.934675199911	0	656289	252
1283.875	1.934675199911	health	choicePhaseStart	3	142	22	foodImage.46	FOODEEG_Images\0479.jpg	NY	Right	Yes	1.934675199911	0	657345	253
1285.80078125	0	health	response	3	142	22	foodImage.46	FOODEEG_Images\0479.jpg	NY	Right	Yes	1.934675199911	0	658331	235
1286.84375	1	decision	trialStart	3	143	23	foodImage.74	FOODEEG_Images\0752.jpg	YN	Left	Yes	2.0313137001358	0	658865	251
1287.892578125	2	decision	foodImageDisplay	3	143	23	foodImage.74	FOODEEG_Images\0752.jpg	YN	Left	Yes	2.0313137001358	0	659402	252
1289.955078125	2.0313137001358	decision	choicePhaseStart	3	143	23	foodImage.74	FOODEEG_Images\0752.jpg	YN	Left	Yes	2.0313137001358	0	660458	253
1291.9765625	0	decision	response	3	143	23	foodImage.74	FOODEEG_Images\0752.jpg	YN	Left	Yes	2.0313137001358	0	661493	234
1293.01953125	1	health	trialStart	3	144	24	foodImage.115	FOODEEG_Images\0923.jpg	NY	Left	No	0.988832300063223	0	662027	251
1294.060546875	2	health	foodImageDisplay	3	144	24	foodImage.115	FOODEEG_Images\0923.jpg	NY	Left	No	0.988832300063223	0	662560	252
1296.125	0.988832300063223	health	choicePhaseStart	3	144	24	foodImage.115	FOODEEG_Images\0923.jpg	NY	Left	No	0.988832300063223	0	663617	253
1297.103515625	0	health	response	3	144	24	foodImage.115	FOODEEG_Images\0923.jpg	NY	Left	No	0.988832300063223	0	664118	234
1298.1484375	1	taste	trialStart	3	145	25	foodImage.69	FOODEEG_Images\0693.jpg	NY	Right	Yes	1.27515950007364	0	664653	251
1299.19140625	2	taste	foodImageDisplay	3	145	25	foodImage.69	FOODEEG_Images\0693.jpg	NY	Right	Yes	1.27515950007364	0	665187	252
1301.255859375	1.27515950007364	taste	choicePhaseStart	3	145	25	foodImage.69	FOODEEG_Images\0693.jpg	NY	Right	Yes	1.27515950007364	0	666244	253
1302.51953125	0	taste	response	3	145	25	foodImage.69	FOODEEG_Images\0693.jpg	NY	Right	Yes	1.27515950007364	0	666891	235
1303.560546875	1	taste	trialStart	3	146	26	foodImage.23	FOODEEG_Images\0244.jpg	NY	Right	Yes	1.43263239995576	0	667424	251
1304.603515625	2	taste	foodImageDisplay	3	146	26	foodImage.23	FOODEEG_Images\0244.jpg	NY	Right	Yes	1.43263239995576	0	667958	252
1306.666015625	1.43263239995576	taste	choicePhaseStart	3	146	26	foodImage.23	FOODEEG_Images\0244.jpg	NY	Right	Yes	1.43263239995576	0	669014	253
1308.087890625	0	taste	response	3	146	26	foodImage.23	FOODEEG_Images\0244.jpg	NY	Right	Yes	1.43263239995576	0	669742	235
1309.130859375	1	health	trialStart	3	147	27	foodImage.28	FOODEEG_Images\0273.jpg	NY	Right	Yes	0.996993100037798	0	670276	251
1310.17578125	2	health	foodImageDisplay	3	147	27	foodImage.28	FOODEEG_Images\0273.jpg	NY	Right	Yes	0.996993100037798	0	670811	252
1312.23828125	0.996993100037798	health	choicePhaseStart	3	147	27	foodImage.28	FOODEEG_Images\0273.jpg	NY	Right	Yes	0.996993100037798	0	671867	253
1313.224609375	0	health	response	3	147	27	foodImage.28	FOODEEG_Images\0273.jpg	NY	Right	Yes	0.996993100037798	0	672372	235
1314.263671875	1	taste	trialStart	3	148	28	foodImage.55	FOODEEG_Images\0567.jpg	NY	Right	Yes	1.17939550010487	0	672904	251
1315.318359375	2	taste	foodImageDisplay	3	148	28	foodImage.55	FOODEEG_Images\0567.jpg	NY	Right	Yes	1.17939550010487	0	673444	252
1317.3828125	1.17939550010487	taste	choicePhaseStart	3	148	28	foodImage.55	FOODEEG_Images\0567.jpg	NY	Right	Yes	1.17939550010487	0	674501	253
1318.55078125	0	taste	response	3	148	28	foodImage.55	FOODEEG_Images\0567.jpg	NY	Right	Yes	1.17939550010487	0	675099	235
1319.59765625	1	decision	trialStart	3	149	29	foodImage.111	FOODEEG_Images\0919.jpg	NY	Left	No	1.09524840000086	0	675635	251
1320.634765625	2	decision	foodImageDisplay	3	149	29	foodImage.111	FOODEEG_Images\0919.jpg	NY	Left	No	1.09524840000086	0	676166	252
1322.697265625	1.09524840000086	decision	choicePhaseStart	3	149	29	foodImage.111	FOODEEG_Images\0919.jpg	NY	Left	No	1.09524840000086	0	677222	253
1323.783203125	0	decision	response	3	149	29	foodImage.111	FOODEEG_Images\0919.jpg	NY	Left	No	1.09524840000086	0	677778	234
1324.82421875	1	decision	trialStart	3	150	30	foodImage.22	FOODEEG_Images\0236.jpg	NY	Right	Yes	1.28666129987687	0	678311	251
1325.865234375	2	decision	foodImageDisplay	3	150	30	foodImage.22	FOODEEG_Images\0236.jpg	NY	Right	Yes	1.28666129987687	0	678844	252
1327.9296875	1.28666129987687	decision	choicePhaseStart	3	150	30	foodImage.22	FOODEEG_Images\0236.jpg	NY	Right	Yes	1.28666129987687	0	679901	253
1329.20703125	0	decision	response	3	150	30	foodImage.22	FOODEEG_Images\0236.jpg	NY	Right	Yes	1.28666129987687	0	680555	235
1330.25	1	decision	trialStart	3	151	31	foodImage.64	FOODEEG_Images\0647.jpg	YN	Left	Yes	0.841067200060934	0	681089	251
1331.310546875	2	decision	foodImageDisplay	3	151	31	foodImage.64	FOODEEG_Images\0647.jpg	YN	Left	Yes	0.841067200060934	0	681632	252
1333.375	0.841067200060934	decision	choicePhaseStart	3	151	31	foodImage.64	FOODEEG_Images\0647.jpg	YN	Left	Yes	0.841067200060934	0	682689	253
1334.20703125	0	decision	response	3	151	31	foodImage.64	FOODEEG_Images\0647.jpg	YN	Left	Yes	0.841067200060934	0	683115	234
1335.25	1	taste	trialStart	3	152	32	foodImage.79	FOODEEG_Images\0794.jpg	YN	Left	Yes	0.776646100217476	0	683649	251
1336.294921875	2	taste	foodImageDisplay	3	152	32	foodImage.79	FOODEEG_Images\0794.jpg	YN	Left	Yes	0.776646100217476	0	684184	252
1338.359375	0.776646100217476	taste	choicePhaseStart	3	152	32	foodImage.79	FOODEEG_Images\0794.jpg	YN	Left	Yes	0.776646100217476	0	685241	253
1339.126953125	0	taste	response	3	152	32	foodImage.79	FOODEEG_Images\0794.jpg	YN	Left	Yes	0.776646100217476	0	685634	234
1340.171875	1	health	trialStart	3	153	33	foodImage.67	FOODEEG_Images\0679.jpg	NY	Left	No	1.85499839996919	0	686169	251
1341.232421875	2	health	foodImageDisplay	3	153	33	foodImage.67	FOODEEG_Images\0679.jpg	NY	Left	No	1.85499839996919	0	686712	252
1343.296875	1.85499839996919	health	choicePhaseStart	3	153	33	foodImage.67	FOODEEG_Images\0679.jpg	NY	Left	No	1.85499839996919	0	687769	253
1345.142578125	0	health	response	3	153	33	foodImage.67	FOODEEG_Images\0679.jpg	NY	Left	No	1.85499839996919	0	688714	234
1346.1875	1	taste	trialStart	3	154	34	foodImage.35	FOODEEG_Images\0350.jpg	YN	Left	Yes	0.968603499932215	0	689249	251
1347.228515625	2	taste	foodImageDisplay	3	154	34	foodImage.35	FOODEEG_Images\0350.jpg	YN	Left	Yes	0.968603499932215	0	689782	252
1349.29296875	0.968603499932215	taste	choicePhaseStart	3	154	34	foodImage.35	FOODEEG_Images\0350.jpg	YN	Left	Yes	0.968603499932215	0	690839	253
1350.25390625	0	taste	response	3	154	34	foodImage.35	FOODEEG_Images\0350.jpg	YN	Left	Yes	0.968603499932215	0	691331	234
1351.296875	1	health	trialStart	3	155	35	foodImage.23	FOODEEG_Images\0244.jpg	NY	Left	No	0.859604799887165	0	691865	251
1352.33984375	2	health	foodImageDisplay	3	155	35	foodImage.23	FOODEEG_Images\0244.jpg	NY	Left	No	0.859604799887165	0	692399	252
1354.404296875	0.859604799887165	health	choicePhaseStart	3	155	35	foodImage.23	FOODEEG_Images\0244.jpg	NY	Left	No	0.859604799887165	0	693456	253
1355.25390625	0	health	response	3	155	35	foodImage.23	FOODEEG_Images\0244.jpg	NY	Left	No	0.859604799887165	0	693891	234
1356.298828125	1	taste	trialStart	3	156	36	foodImage.3	FOODEEG_Images\0046.jpg	NY	Right	Yes	2.29716149996966	0	694426	251
1357.341796875	2	taste	foodImageDisplay	3	156	36	foodImage.3	FOODEEG_Images\0046.jpg	NY	Right	Yes	2.29716149996966	0	694960	252
1359.40625	2.29716149996966	taste	choicePhaseStart	3	156	36	foodImage.3	FOODEEG_Images\0046.jpg	NY	Right	Yes	2.29716149996966	0	696017	253
1361.693359375	0	taste	response	3	156	36	foodImage.3	FOODEEG_Images\0046.jpg	NY	Right	Yes	2.29716149996966	0	697188	235
1362.736328125	1	decision	trialStart	3	157	37	foodImage.46	FOODEEG_Images\0479.jpg	YN	Left	Yes	0.867748700082302	0	697722	251
1363.796875	2	decision	foodImageDisplay	3	157	37	foodImage.46	FOODEEG_Images\0479.jpg	YN	Left	Yes	0.867748700082302	0	698265	252
1365.859375	0.867748700082302	decision	choicePhaseStart	3	157	37	foodImage.46	FOODEEG_Images\0479.jpg	YN	Left	Yes	0.867748700082302	0	699321	253
1366.71875	0	decision	response	3	157	37	foodImage.46	FOODEEG_Images\0479.jpg	YN	Left	Yes	0.867748700082302	0	699761	234
1367.76171875	1	decision	trialStart	3	158	38	foodImage.50	FOODEEG_Images\0529.jpg	YN	Left	Yes	1.6333107999526	0	700295	251
1368.822265625	2	decision	foodImageDisplay	3	158	38	foodImage.50	FOODEEG_Images\0529.jpg	YN	Left	Yes	1.6333107999526	0	700838	252
1370.884765625	1.6333107999526	decision	choicePhaseStart	3	158	38	foodImage.50	FOODEEG_Images\0529.jpg	YN	Left	Yes	1.6333107999526	0	701894	253
1372.509765625	0	decision	response	3	158	38	foodImage.50	FOODEEG_Images\0529.jpg	YN	Left	Yes	1.6333107999526	0	702726	234
1373.5546875	1	health	trialStart	3	159	39	foodImage.104	FOODEEG_Images\0912.jpg	YN	Right	No	1.12459120014682	0	703261	251
1374.59375	2	health	foodImageDisplay	3	159	39	foodImage.104	FOODEEG_Images\0912.jpg	YN	Right	No	1.12459120014682	0	703793	252
1376.658203125	1.12459120014682	health	choicePhaseStart	3	159	39	foodImage.104	FOODEEG_Images\0912.jpg	YN	Right	No	1.12459120014682	0	704850	253
1377.7734375	0	health	response	3	159	39	foodImage.104	FOODEEG_Images\0912.jpg	YN	Right	No	1.12459120014682	0	705421	235
1378.818359375	1	health	trialStart	3	160	40	foodImage.76	FOODEEG_Images\0766.jpg	YN	Left	Yes	0.759509800001979	0	705956	251
1379.86328125	2	health	foodImageDisplay	3	160	40	foodImage.76	FOODEEG_Images\0766.jpg	YN	Left	Yes	0.759509800001979	0	706491	252
1381.927734375	0.759509800001979	health	choicePhaseStart	3	160	40	foodImage.76	FOODEEG_Images\0766.jpg	YN	Left	Yes	0.759509800001979	0	707548	253
1382.677734375	0	health	response	3	160	40	foodImage.76	FOODEEG_Images\0766.jpg	YN	Left	Yes	0.759509800001979	0	707932	234
1383.720703125	1	health	trialStart	3	161	41	foodImage.79	FOODEEG_Images\0794.jpg	YN	Left	Yes	1.0238634000998	0	708466	251
1384.765625	2	health	foodImageDisplay	3	161	41	foodImage.79	FOODEEG_Images\0794.jpg	YN	Left	Yes	1.0238634000998	0	709001	252
1386.830078125	1.0238634000998	health	choicePhaseStart	3	161	41	foodImage.79	FOODEEG_Images\0794.jpg	YN	Left	Yes	1.0238634000998	0	710058	253
1387.845703125	0	health	response	3	161	41	foodImage.79	FOODEEG_Images\0794.jpg	YN	Left	Yes	1.0238634000998	0	710578	234
1388.88671875	1	health	trialStart	3	162	42	foodImage.89	FOODEEG_Images\0881.jpg	NY	Right	Yes	0.955134300049394	0	711111	251
1389.947265625	2	health	foodImageDisplay	3	162	42	foodImage.89	FOODEEG_Images\0881.jpg	NY	Right	Yes	0.955134300049394	0	711654	252
1392.01171875	0.955134300049394	health	choicePhaseStart	3	162	42	foodImage.89	FOODEEG_Images\0881.jpg	NY	Right	Yes	0.955134300049394	0	712711	253
1392.95703125	0	health	response	3	162	42	foodImage.89	FOODEEG_Images\0881.jpg	NY	Right	Yes	0.955134300049394	0	713195	235
1394.001953125	1	decision	trialStart	3	163	43	foodImage.83	FOODEEG_Images\0827.jpg	YN	Left	Yes	1.49393079988658	0	713730	251
1395.060546875	2	decision	foodImageDisplay	3	163	43	foodImage.83	FOODEEG_Images\0827.jpg	YN	Left	Yes	1.49393079988658	0	714272	252
1397.126953125	1.49393079988658	decision	choicePhaseStart	3	163	43	foodImage.83	FOODEEG_Images\0827.jpg	YN	Left	Yes	1.49393079988658	0	715330	253
1398.61328125	0	decision	response	3	163	43	foodImage.83	FOODEEG_Images\0827.jpg	YN	Left	Yes	1.49393079988658	0	716091	234
1399.654296875	1	health	trialStart	3	164	44	foodImage.111	FOODEEG_Images\0919.jpg	YN	Right	No	0.985107499873266	0	716624	251
1400.693359375	2	health	foodImageDisplay	3	164	44	foodImage.111	FOODEEG_Images\0919.jpg	YN	Right	No	0.985107499873266	0	717156	252
1402.7578125	0.985107499873266	health	choicePhaseStart	3	164	44	foodImage.111	FOODEEG_Images\0919.jpg	YN	Right	No	0.985107499873266	0	718213	253
1403.732421875	0	health	response	3	164	44	foodImage.111	FOODEEG_Images\0919.jpg	YN	Right	No	0.985107499873266	0	718712	235
1404.775390625	1	taste	trialStart	3	165	45	foodImage.86	FOODEEG_Images\0844.jpg	NY	Right	Yes	1.13483890006319	0	719246	251
1405.83984375	2	taste	foodImageDisplay	3	165	45	foodImage.86	FOODEEG_Images\0844.jpg	NY	Right	Yes	1.13483890006319	0	719791	252
1407.90234375	1.13483890006319	taste	choicePhaseStart	3	165	45	foodImage.86	FOODEEG_Images\0844.jpg	NY	Right	Yes	1.13483890006319	0	720847	253
1409.02734375	0	taste	response	3	165	45	foodImage.86	FOODEEG_Images\0844.jpg	NY	Right	Yes	1.13483890006319	0	721423	235
1410.0703125	1	taste	trialStart	3	166	46	foodImage.70	FOODEEG_Images\0705.jpg	NY	Right	Yes	0.956811500014737	0	721957	251
1411.130859375	2	taste	foodImageDisplay	3	166	46	foodImage.70	FOODEEG_Images\0705.jpg	NY	Right	Yes	0.956811500014737	0	722500	252
1413.19921875	0.956811500014737	taste	choicePhaseStart	3	166	46	foodImage.70	FOODEEG_Images\0705.jpg	NY	Right	Yes	0.956811500014737	0	723559	253
1414.1484375	0	taste	response	3	166	46	foodImage.70	FOODEEG_Images\0705.jpg	NY	Right	Yes	0.956811500014737	0	724045	235
1415.19140625	1	health	trialStart	3	167	47	foodImage.16	FOODEEG_Images\0196.jpg	NY	Right	Yes	1.46540089999326	0	724579	251
1416.251953125	2	health	foodImageDisplay	3	167	47	foodImage.16	FOODEEG_Images\0196.jpg	NY	Right	Yes	1.46540089999326	0	725122	252
1418.314453125	1.46540089999326	health	choicePhaseStart	3	167	47	foodImage.16	FOODEEG_Images\0196.jpg	NY	Right	Yes	1.46540089999326	0	726178	253
1419.771484375	0	health	response	3	167	47	foodImage.16	FOODEEG_Images\0196.jpg	NY	Right	Yes	1.46540089999326	0	726924	235
1420.814453125	1	taste	trialStart	3	168	48	foodImage.105	FOODEEG_Images\0913.jpg	NY	Right	Yes	0.78233480011113	0	727458	251
1421.853515625	2	taste	foodImageDisplay	3	168	48	foodImage.105	FOODEEG_Images\0913.jpg	NY	Right	Yes	0.78233480011113	0	727990	252
1423.91796875	0.78233480011113	taste	choicePhaseStart	3	168	48	foodImage.105	FOODEEG_Images\0913.jpg	NY	Right	Yes	0.78233480011113	0	729047	253
1424.69140625	0	taste	response	3	168	48	foodImage.105	FOODEEG_Images\0913.jpg	NY	Right	Yes	0.78233480011113	0	729443	235
1425.736328125	1	health	trialStart	3	169	49	foodImage.88	FOODEEG_Images\0878.jpg	YN	Right	No	2.00316439988092	0	729978	251
1426.79296875	2	health	foodImageDisplay	3	169	49	foodImage.88	FOODEEG_Images\0878.jpg	YN	Right	No	2.00316439988092	0	730519	252
1428.857421875	2.00316439988092	health	choicePhaseStart	3	169	49	foodImage.88	FOODEEG_Images\0878.jpg	YN	Right	No	2.00316439988092	0	731576	253
1430.8515625	0	health	response	3	169	49	foodImage.88	FOODEEG_Images\0878.jpg	YN	Right	No	2.00316439988092	0	732597	235
1431.89453125	1	taste	trialStart	3	170	50	foodImage.52	FOODEEG_Images\0539.jpg	NY	Right	Yes	0.848320199875161	0	733131	251
1432.955078125	2	taste	foodImageDisplay	3	170	50	foodImage.52	FOODEEG_Images\0539.jpg	NY	Right	Yes	0.848320199875161	0	733674	252
1435.01953125	0.848320199875161	taste	choicePhaseStart	3	170	50	foodImage.52	FOODEEG_Images\0539.jpg	NY	Right	Yes	0.848320199875161	0	734731	253
1435.859375	0	taste	response	3	170	50	foodImage.52	FOODEEG_Images\0539.jpg	NY	Right	Yes	0.848320199875161	0	735161	235
1436.90234375	1	taste	trialStart	3	171	51	foodImage.82	FOODEEG_Images\0805.jpg	NY	Right	Yes	0.917753600049764	0	735695	251
1437.96484375	2	taste	foodImageDisplay	3	171	51	foodImage.82	FOODEEG_Images\0805.jpg	NY	Right	Yes	0.917753600049764	0	736239	252
1440.029296875	0.917753600049764	taste	choicePhaseStart	3	171	51	foodImage.82	FOODEEG_Images\0805.jpg	NY	Right	Yes	0.917753600049764	0	737296	253
1440.939453125	0	taste	response	3	171	51	foodImage.82	FOODEEG_Images\0805.jpg	NY	Right	Yes	0.917753600049764	0	737762	235
1441.982421875	1	health	trialStart	3	172	52	foodImage.15	FOODEEG_Images\0189.jpg	NY	Left	No	0.894007599912584	0	738296	251
1443.044921875	2	health	foodImageDisplay	3	172	52	foodImage.15	FOODEEG_Images\0189.jpg	NY	Left	No	0.894007599912584	0	738840	252
1445.109375	0.894007599912584	health	choicePhaseStart	3	172	52	foodImage.15	FOODEEG_Images\0189.jpg	NY	Left	No	0.894007599912584	0	739897	253
1445.994140625	0	health	response	3	172	52	foodImage.15	FOODEEG_Images\0189.jpg	NY	Left	No	0.894007599912584	0	740350	234
1447.0390625	1	taste	trialStart	3	173	53	foodImage.108	FOODEEG_Images\0916.jpg	NY	Right	Yes	1.79922319995239	0	740885	251
1448.076171875	2	taste	foodImageDisplay	3	173	53	foodImage.108	FOODEEG_Images\0916.jpg	NY	Right	Yes	1.79922319995239	0	741416	252
1450.140625	1.79922319995239	taste	choicePhaseStart	3	173	53	foodImage.108	FOODEEG_Images\0916.jpg	NY	Right	Yes	1.79922319995239	0	742473	253
1451.9296875	0	taste	response	3	173	53	foodImage.108	FOODEEG_Images\0916.jpg	NY	Right	Yes	1.79922319995239	0	743389	235
1452.97265625	1	health	trialStart	3	174	54	foodImage.40	FOODEEG_Images\0373.jpg	YN	Right	No	1.62093249987811	0	743923	251
1454.013671875	2	health	foodImageDisplay	3	174	54	foodImage.40	FOODEEG_Images\0373.jpg	YN	Right	No	1.62093249987811	0	744456	252
1456.078125	1.62093249987811	health	choicePhaseStart	3	174	54	foodImage.40	FOODEEG_Images\0373.jpg	YN	Right	No	1.62093249987811	0	745513	253
1457.689453125	0	health	response	3	174	54	foodImage.40	FOODEEG_Images\0373.jpg	YN	Right	No	1.62093249987811	0	746338	235
1458.732421875	1	taste	trialStart	3	175	55	foodImage.74	FOODEEG_Images\0752.jpg	YN	Left	Yes	1.06995809986256	0	746872	251
1459.775390625	2	taste	foodImageDisplay	3	175	55	foodImage.74	FOODEEG_Images\0752.jpg	YN	Left	Yes	1.06995809986256	0	747406	252
1461.837890625	1.06995809986256	taste	choicePhaseStart	3	175	55	foodImage.74	FOODEEG_Images\0752.jpg	YN	Left	Yes	1.06995809986256	0	748462	253
1462.8984375	0	taste	response	3	175	55	foodImage.74	FOODEEG_Images\0752.jpg	YN	Left	Yes	1.06995809986256	0	749005	234
1463.943359375	1	taste	trialStart	3	176	56	foodImage.8	FOODEEG_Images\0136.jpg	YN	Left	Yes	1.16112730000168	0	749540	251
1464.986328125	2	taste	foodImageDisplay	3	176	56	foodImage.8	FOODEEG_Images\0136.jpg	YN	Left	Yes	1.16112730000168	0	750074	252
1467.0546875	1.16112730000168	taste	choicePhaseStart	3	176	56	foodImage.8	FOODEEG_Images\0136.jpg	YN	Left	Yes	1.16112730000168	0	751133	253
1468.208984375	0	taste	response	3	176	56	foodImage.8	FOODEEG_Images\0136.jpg	YN	Left	Yes	1.16112730000168	0	751724	234
1469.25390625	1	taste	trialStart	3	177	57	foodImage.2	FOODEEG_Images\0028.jpg	YN	Left	Yes	2.03471080004238	0	752259	251
1470.296875	2	taste	foodImageDisplay	3	177	57	foodImage.2	FOODEEG_Images\0028.jpg	YN	Left	Yes	2.03471080004238	0	752793	252
1472.359375	2.03471080004238	taste	choicePhaseStart	3	177	57	foodImage.2	FOODEEG_Images\0028.jpg	YN	Left	Yes	2.03471080004238	0	753849	253
1474.384765625	0	taste	response	3	177	57	foodImage.2	FOODEEG_Images\0028.jpg	YN	Left	Yes	2.03471080004238	0	754886	234
1475.4296875	1	taste	trialStart	3	178	58	foodImage.83	FOODEEG_Images\0827.jpg	NY	Right	Yes	0.808993899961933	0	755421	251
1476.490234375	2	taste	foodImageDisplay	3	178	58	foodImage.83	FOODEEG_Images\0827.jpg	NY	Right	Yes	0.808993899961933	0	755964	252
1478.552734375	0.808993899961933	taste	choicePhaseStart	3	178	58	foodImage.83	FOODEEG_Images\0827.jpg	NY	Right	Yes	0.808993899961933	0	757020	253
1479.353515625	0	taste	response	3	178	58	foodImage.83	FOODEEG_Images\0827.jpg	NY	Right	Yes	0.808993899961933	0	757430	235
1480.396484375	1	health	trialStart	3	179	59	foodImage.25	FOODEEG_Images\0261.jpg	NY	Right	Yes	1.12069200002588	0	757964	251
1481.44921875	2	health	foodImageDisplay	3	179	59	foodImage.25	FOODEEG_Images\0261.jpg	NY	Right	Yes	1.12069200002588	0	758503	252
1483.513671875	1.12069200002588	health	choicePhaseStart	3	179	59	foodImage.25	FOODEEG_Images\0261.jpg	NY	Right	Yes	1.12069200002588	0	759560	253
1484.625	0	health	response	3	179	59	foodImage.25	FOODEEG_Images\0261.jpg	NY	Right	Yes	1.12069200002588	0	760129	235
1485.66796875	1	health	trialStart	3	180	60	foodImage.94	FOODEEG_Images\0902.jpg	NY	Right	Yes	1.18476359988563	0	760663	251
1486.705078125	2	health	foodImageDisplay	3	180	60	foodImage.94	FOODEEG_Images\0902.jpg	NY	Right	Yes	1.18476359988563	0	761194	252
1488.76953125	1.18476359988563	health	choicePhaseStart	3	180	60	foodImage.94	FOODEEG_Images\0902.jpg	NY	Right	Yes	1.18476359988563	0	762251	253
1489.9453125	0	health	response	3	180	60	foodImage.94	FOODEEG_Images\0902.jpg	NY	Right	Yes	1.18476359988563	0	762853	235
1491.990234375	10.75390625	n/a	blockEnd	n/a	n/a	n/a	n/a	n/a	n/a	n/a	n/a	n/a	n/a	763900	254
1502.744140625	2	n/a	blockStart	4	n/a	n/a	n/a	n/a	n/a	n/a	n/a	n/a	n/a	769406	250
1504.779296875	1	decision	trialStart	4	181	1	foodImage.52	FOODEEG_Images\0539.jpg	NY	Right	Yes	1.00891189998947	0	770448	251
1505.83984375	2	decision	foodImageDisplay	4	181	1	foodImage.52	FOODEEG_Images\0539.jpg	NY	Right	Yes	1.00891189998947	0	770991	252
1507.904296875	1.00891189998947	decision	choicePhaseStart	4	181	1	foodImage.52	FOODEEG_Images\0539.jpg	NY	Right	Yes	1.00891189998947	0	772048	253
1508.904296875	0	decision	response	4	181	1	foodImage.52	FOODEEG_Images\0539.jpg	NY	Right	Yes	1.00891189998947	0	772560	235
1509.9453125	1	decision	trialStart	4	182	2	foodImage.44	FOODEEG_Images\0459.jpg	NY	Right	Yes	1.45962189999409	0	773093	251
1510.99609375	2	decision	foodImageDisplay	4	182	2	foodImage.44	FOODEEG_Images\0459.jpg	NY	Right	Yes	1.45962189999409	0	773631	252
1513.060546875	1.45962189999409	decision	choicePhaseStart	4	182	2	foodImage.44	FOODEEG_Images\0459.jpg	NY	Right	Yes	1.45962189999409	0	774688	253
1514.51171875	0	decision	response	4	182	2	foodImage.44	FOODEEG_Images\0459.jpg	NY	Right	Yes	1.45962189999409	0	775431	235
1515.556640625	1	decision	trialStart	4	183	3	foodImage.107	FOODEEG_Images\0915.jpg	NY	Right	Yes	1.45506000006571	0	775966	251
1516.59375	2	decision	foodImageDisplay	4	183	3	foodImage.107	FOODEEG_Images\0915.jpg	NY	Right	Yes	1.45506000006571	0	776497	252
1518.658203125	1.45506000006571	decision	choicePhaseStart	4	183	3	foodImage.107	FOODEEG_Images\0915.jpg	NY	Right	Yes	1.45506000006571	0	777554	253
1520.103515625	0	decision	response	4	183	3	foodImage.107	FOODEEG_Images\0915.jpg	NY	Right	Yes	1.45506000006571	0	778294	235
1521.1484375	1	decision	trialStart	4	184	4	foodImage.33	FOODEEG_Images\0329.jpg	YN	Left	Yes	1.02006309991702	0	778829	251
1522.19140625	2	decision	foodImageDisplay	4	184	4	foodImage.33	FOODEEG_Images\0329.jpg	YN	Left	Yes	1.02006309991702	0	779363	252
1524.26171875	1.02006309991702	decision	choicePhaseStart	4	184	4	foodImage.33	FOODEEG_Images\0329.jpg	YN	Left	Yes	1.02006309991702	0	780423	253
1525.271484375	0	decision	response	4	184	4	foodImage.33	FOODEEG_Images\0329.jpg	YN	Left	Yes	1.02006309991702	0	780940	234
1526.31640625	1	health	trialStart	4	185	5	foodImage.62	FOODEEG_Images\0644.jpg	YN	Left	Yes	1.82389660016634	0	781475	251
1527.37890625	2	health	foodImageDisplay	4	185	5	foodImage.62	FOODEEG_Images\0644.jpg	YN	Left	Yes	1.82389660016634	0	782019	252
1529.44140625	1.82389660016634	health	choicePhaseStart	4	185	5	foodImage.62	FOODEEG_Images\0644.jpg	YN	Left	Yes	1.82389660016634	0	783075	253
1531.255859375	0	health	response	4	185	5	foodImage.62	FOODEEG_Images\0644.jpg	YN	Left	Yes	1.82389660016634	0	784004	234
1532.298828125	1	taste	trialStart	4	186	6	foodImage.89	FOODEEG_Images\0881.jpg	YN	Left	Yes	0.979679599869996	0	784538	251
1533.357421875	2	taste	foodImageDisplay	4	186	6	foodImage.89	FOODEEG_Images\0881.jpg	YN	Left	Yes	0.979679599869996	0	785080	252
1535.421875	0.979679599869996	taste	choicePhaseStart	4	186	6	foodImage.89	FOODEEG_Images\0881.jpg	YN	Left	Yes	0.979679599869996	0	786137	253
1536.390625	0	taste	response	4	186	6	foodImage.89	FOODEEG_Images\0881.jpg	YN	Left	Yes	0.979679599869996	0	786633	234
1537.43359375	1	health	trialStart	4	187	7	foodImage.93	FOODEEG_Images\0901.jpg	YN	Right	No	1.19483670010231	0	787167	251
1538.470703125	2	health	foodImageDisplay	4	187	7	foodImage.93	FOODEEG_Images\0901.jpg	YN	Right	No	1.19483670010231	0	787698	252
1540.533203125	1.19483670010231	health	choicePhaseStart	4	187	7	foodImage.93	FOODEEG_Images\0901.jpg	YN	Right	No	1.19483670010231	0	788754	253
1541.71875	0	health	response	4	187	7	foodImage.93	FOODEEG_Images\0901.jpg	YN	Right	No	1.19483670010231	0	789361	235
1542.759765625	1	decision	trialStart	4	188	8	foodImage.92	FOODEEG_Images\0900.jpg	NY	Right	Yes	2.61895199981518	0	789894	251
1543.798828125	2	decision	foodImageDisplay	4	188	8	foodImage.92	FOODEEG_Images\0900.jpg	NY	Right	Yes	2.61895199981518	0	790426	252
1545.861328125	2.61895199981518	decision	choicePhaseStart	4	188	8	foodImage.92	FOODEEG_Images\0900.jpg	NY	Right	Yes	2.61895199981518	0	791482	253
1548.470703125	0	decision	response	4	188	8	foodImage.92	FOODEEG_Images\0900.jpg	NY	Right	Yes	2.61895199981518	0	792818	235
1549.513671875	1	health	trialStart	4	189	9	foodImage.37	FOODEEG_Images\0359.jpg	NY	Right	Yes	1.1977536000777	0	793352	251
1550.556640625	2	health	foodImageDisplay	4	189	9	foodImage.37	FOODEEG_Images\0359.jpg	NY	Right	Yes	1.1977536000777	0	793886	252
1552.6171875	1.1977536000777	health	choicePhaseStart	4	189	9	foodImage.37	FOODEEG_Images\0359.jpg	NY	Right	Yes	1.1977536000777	0	794941	253
1553.806640625	0	health	response	4	189	9	foodImage.37	FOODEEG_Images\0359.jpg	NY	Right	Yes	1.1977536000777	0	795550	235
1554.849609375	1	taste	trialStart	4	190	10	foodImage.77	FOODEEG_Images\0771.jpg	NY	Right	Yes	2.240363500081	0	796084	251
1555.912109375	2	taste	foodImageDisplay	4	190	10	foodImage.77	FOODEEG_Images\0771.jpg	NY	Right	Yes	2.240363500081	0	796628	252
1557.9765625	2.240363500081	taste	choicePhaseStart	4	190	10	foodImage.77	FOODEEG_Images\0771.jpg	NY	Right	Yes	2.240363500081	0	797685	253
1560.20703125	0	taste	response	4	190	10	foodImage.77	FOODEEG_Images\0771.jpg	NY	Right	Yes	2.240363500081	0	798827	235
1561.25	1	health	trialStart	4	191	11	foodImage.95	FOODEEG_Images\0903.jpg	YN	Right	No	1.12253740010783	0	799361	251
1562.2890625	2	health	foodImageDisplay	4	191	11	foodImage.95	FOODEEG_Images\0903.jpg	YN	Right	No	1.12253740010783	0	799893	252
1564.35546875	1.12253740010783	health	choicePhaseStart	4	191	11	foodImage.95	FOODEEG_Images\0903.jpg	YN	Right	No	1.12253740010783	0	800951	253
1565.470703125	0	health	response	4	191	11	foodImage.95	FOODEEG_Images\0903.jpg	YN	Right	No	1.12253740010783	0	801522	235
1566.513671875	1	taste	trialStart	4	192	12	foodImage.117	FOODEEG_Images\0925.jpg	NY	Right	Yes	0.980871200095862	0	802056	251
1567.552734375	2	taste	foodImageDisplay	4	192	12	foodImage.117	FOODEEG_Images\0925.jpg	NY	Right	Yes	0.980871200095862	0	802588	252
1569.6171875	0.980871200095862	taste	choicePhaseStart	4	192	12	foodImage.117	FOODEEG_Images\0925.jpg	NY	Right	Yes	0.980871200095862	0	803645	253
1570.58984375	0	taste	response	4	192	12	foodImage.117	FOODEEG_Images\0925.jpg	NY	Right	Yes	0.980871200095862	0	804143	235
1571.6328125	1	taste	trialStart	4	193	13	foodImage.81	FOODEEG_Images\0797.jpg	YN	Left	Yes	1.6932472998742	0	804677	251
1572.69140625	2	taste	foodImageDisplay	4	193	13	foodImage.81	FOODEEG_Images\0797.jpg	YN	Left	Yes	1.6932472998742	0	805219	252
1574.75390625	1.6932472998742	taste	choicePhaseStart	4	193	13	foodImage.81	FOODEEG_Images\0797.jpg	YN	Left	Yes	1.6932472998742	0	806275	253
1576.4375	0	taste	response	4	193	13	foodImage.81	FOODEEG_Images\0797.jpg	YN	Left	Yes	1.6932472998742	0	807137	234
1577.482421875	1	taste	trialStart	4	194	14	foodImage.115	FOODEEG_Images\0923.jpg	YN	Right	No	1.18203620007262	0	807672	251
1578.521484375	2	taste	foodImageDisplay	4	194	14	foodImage.115	FOODEEG_Images\0923.jpg	YN	Right	No	1.18203620007262	0	808204	252
1580.591796875	1.18203620007262	taste	choicePhaseStart	4	194	14	foodImage.115	FOODEEG_Images\0923.jpg	YN	Right	No	1.18203620007262	0	809264	253
1581.765625	0	taste	response	4	194	14	foodImage.115	FOODEEG_Images\0923.jpg	YN	Right	No	1.18203620007262	0	809865	235
