onset	duration	trial_type	event_type	block	trial_total	trial_in_block	food_image_code	food_image_path	button_position	resp_position	resp_choice	choice_rt	resp_too_slow	sample	trigger
290.81640625	2	n/a	blockStart	1	n/a	n/a	n/a	n/a	n/a	n/a	n/a	n/a	n/a	148899	250
292.85546875	1	taste	trialStart	1	1	1	foodImage.104	FOODEEG_Images\0912.jpg	NY	Right	Yes	0.696240999999645	0	149943	251
293.90234375	2	taste	foodImageDisplay	1	1	1	foodImage.104	FOODEEG_Images\0912.jpg	NY	Right	Yes	0.696240999999645	0	150479	252
295.97265625	0.696240999999645	taste	choicePhaseStart	1	1	1	foodImage.104	FOODEEG_Images\0912.jpg	NY	Right	Yes	0.696240999999645	0	151539	253
296.6640625	0	taste	response	1	1	1	foodImage.104	FOODEEG_Images\0912.jpg	NY	Right	Yes	0.696240999999645	0	151893	235
297.763671875	1	taste	trialStart	1	2	2	foodImage.29	FOODEEG_Images\0278.jpg	NY	Left	No	2.24321939999936	0	152456	251
298.80859375	2	taste	foodImageDisplay	1	2	2	foodImage.29	FOODEEG_Images\0278.jpg	NY	Left	No	2.24321939999936	0	152991	252
300.876953125	2.24321939999936	taste	choicePhaseStart	1	2	2	foodImage.29	FOODEEG_Images\0278.jpg	NY	Left	No	2.24321939999936	0	154050	253
303.111328125	0	taste	response	1	2	2	foodImage.29	FOODEEG_Images\0278.jpg	NY	Left	No	2.24321939999936	0	155194	234
304.1640625	1	health	trialStart	1	3	3	foodImage.4	FOODEEG_Images\0065.jpg	YN	Left	Yes	0.856547800000044	0	155733	251
305.224609375	2	health	foodImageDisplay	1	3	3	foodImage.4	FOODEEG_Images\0065.jpg	YN	Left	Yes	0.856547800000044	0	156276	252
307.287109375	0.856547800000044	health	choicePhaseStart	1	3	3	foodImage.4	FOODEEG_Images\0065.jpg	YN	Left	Yes	0.856547800000044	0	157332	253
308.134765625	0	health	response	1	3	3	foodImage.4	FOODEEG_Images\0065.jpg	YN	Left	Yes	0.856547800000044	0	157766	234
309.177734375	1	decision	trialStart	1	4	4	foodImage.89	FOODEEG_Images\0881.jpg	YN	Left	Yes	0.828818799998771	0	158300	251
310.234375	2	decision	foodImageDisplay	1	4	4	foodImage.89	FOODEEG_Images\0881.jpg	YN	Left	Yes	0.828818799998771	0	158841	252
312.298828125	0.828818799998771	decision	choicePhaseStart	1	4	4	foodImage.89	FOODEEG_Images\0881.jpg	YN	Left	Yes	0.828818799998771	0	159898	253
313.119140625	0	decision	response	1	4	4	foodImage.89	FOODEEG_Images\0881.jpg	YN	Left	Yes	0.828818799998771	0	160318	234
314.16015625	1	taste	trialStart	1	5	5	foodImage.51	FOODEEG_Images\0536.jpg	YN	Left	Yes	1.29936239999915	0	160851	251
315.234375	2	taste	foodImageDisplay	1	5	5	foodImage.51	FOODEEG_Images\0536.jpg	YN	Left	Yes	1.29936239999915	0	161401	252
317.298828125	1.29936239999915	taste	choicePhaseStart	1	5	5	foodImage.51	FOODEEG_Images\0536.jpg	YN	Left	Yes	1.29936239999915	0	162458	253
318.58984375	0	taste	response	1	5	5	foodImage.51	FOODEEG_Images\0536.jpg	YN	Left	Yes	1.29936239999915	0	163119	234
319.64453125	1	health	trialStart	1	6	6	foodImage.91	FOODEEG_Images\0896.jpg	YN	Right	No	1.06159829999888	0	163659	251
320.701171875	2	health	foodImageDisplay	1	6	6	foodImage.91	FOODEEG_Images\0896.jpg	YN	Right	No	1.06159829999888	0	164200	252
322.76953125	1.06159829999888	health	choicePhaseStart	1	6	6	foodImage.91	FOODEEG_Images\0896.jpg	YN	Right	No	1.06159829999888	0	165259	253
323.822265625	0	health	response	1	6	6	foodImage.91	FOODEEG_Images\0896.jpg	YN	Right	No	1.06159829999888	0	165798	235
324.861328125	1	decision	trialStart	1	7	7	foodImage.22	FOODEEG_Images\0236.jpg	YN	Left	Yes	0.749440899999172	0	166330	251
325.904296875	2	decision	foodImageDisplay	1	7	7	foodImage.22	FOODEEG_Images\0236.jpg	YN	Left	Yes	0.749440899999172	0	166864	252
327.966796875	0.749440899999172	decision	choicePhaseStart	1	7	7	foodImage.22	FOODEEG_Images\0236.jpg	YN	Left	Yes	0.749440899999172	0	167920	253
328.7109375	0	decision	response	1	7	7	foodImage.22	FOODEEG_Images\0236.jpg	YN	Left	Yes	0.749440899999172	0	168301	234
329.759765625	1	health	trialStart	1	8	8	foodImage.12	FOODEEG_Images\0181.jpg	NY	Left	No	1.34694420000051	0	168838	251
330.802734375	2	health	foodImageDisplay	1	8	8	foodImage.12	FOODEEG_Images\0181.jpg	NY	Left	No	1.34694420000051	0	169372	252
332.8671875	1.34694420000051	health	choicePhaseStart	1	8	8	foodImage.12	FOODEEG_Images\0181.jpg	NY	Left	No	1.34694420000051	0	170429	253
334.20703125	0	health	response	1	8	8	foodImage.12	FOODEEG_Images\0181.jpg	NY	Left	No	1.34694420000051	0	171115	234
335.25	1	health	trialStart	1	9	9	foodImage.84	FOODEEG_Images\0830.jpg	YN	Left	Yes	0.761260700001003	0	171649	251
336.306640625	2	health	foodImageDisplay	1	9	9	foodImage.84	FOODEEG_Images\0830.jpg	YN	Left	Yes	0.761260700001003	0	172190	252
338.37109375	0.761260700001003	health	choicePhaseStart	1	9	9	foodImage.84	FOODEEG_Images\0830.jpg	YN	Left	Yes	0.761260700001003	0	173247	253
339.125	0	health	response	1	9	9	foodImage.84	FOODEEG_Images\0830.jpg	YN	Left	Yes	0.761260700001003	0	173633	234
340.16796875	1	health	trialStart	1	10	10	foodImage.115	FOODEEG_Images\0923.jpg	YN	Right	No	1.62126200000057	0	174167	251
341.208984375	2	health	foodImageDisplay	1	10	10	foodImage.115	FOODEEG_Images\0923.jpg	YN	Right	No	1.62126200000057	0	174700	252
343.2734375	1.62126200000057	health	choicePhaseStart	1	10	10	foodImage.115	FOODEEG_Images\0923.jpg	YN	Right	No	1.62126200000057	0	175757	253
344.884765625	0	health	response	1	10	10	foodImage.115	FOODEEG_Images\0923.jpg	YN	Right	No	1.62126200000057	0	176582	235
345.9296875	1	health	trialStart	1	11	11	foodImage.69	FOODEEG_Images\0693.jpg	YN	Left	Yes	0.464638499999637	0	177117	251
346.97265625	2	health	foodImageDisplay	1	11	11	foodImage.69	FOODEEG_Images\0693.jpg	YN	Left	Yes	0.464638499999637	0	177651	252
349.037109375	0.464638499999637	health	choicePhaseStart	1	11	11	foodImage.69	FOODEEG_Images\0693.jpg	YN	Left	Yes	0.464638499999637	0	178708	253
349.4921875	0	health	response	1	11	11	foodImage.69	FOODEEG_Images\0693.jpg	YN	Left	Yes	0.464638499999637	0	178941	234
350.53515625	1	decision	trialStart	1	12	12	foodImage.19	FOODEEG_Images\0225.jpg	YN	Left	Yes	0.795580199999677	0	179475	251
351.5859375	2	decision	foodImageDisplay	1	12	12	foodImage.19	FOODEEG_Images\0225.jpg	YN	Left	Yes	0.795580199999677	0	180013	252
353.650390625	0.795580199999677	decision	choicePhaseStart	1	12	12	foodImage.19	FOODEEG_Images\0225.jpg	YN	Left	Yes	0.795580199999677	0	181070	253
354.4375	0	decision	response	1	12	12	foodImage.19	FOODEEG_Images\0225.jpg	YN	Left	Yes	0.795580199999677	0	181473	234
355.4765625	1	decision	trialStart	1	13	13	foodImage.76	FOODEEG_Images\0766.jpg	NY	Right	Yes	0.78750349999973	0	182005	251
356.529296875	2	decision	foodImageDisplay	1	13	13	foodImage.76	FOODEEG_Images\0766.jpg	NY	Right	Yes	0.78750349999973	0	182544	252
358.59375	0.78750349999973	decision	choicePhaseStart	1	13	13	foodImage.76	FOODEEG_Images\0766.jpg	NY	Right	Yes	0.78750349999973	0	183601	253
359.373046875	0	decision	response	1	13	13	foodImage.76	FOODEEG_Images\0766.jpg	NY	Right	Yes	0.78750349999973	0	184000	235
360.4140625	1	taste	trialStart	1	14	14	foodImage.4	FOODEEG_Images\0065.jpg	NY	Right	Yes	0.727660599999581	0	184533	251
361.46875	2	taste	foodImageDisplay	1	14	14	foodImage.4	FOODEEG_Images\0065.jpg	NY	Right	Yes	0.727660599999581	0	185073	252
363.533203125	0.727660599999581	taste	choicePhaseStart	1	14	14	foodImage.4	FOODEEG_Images\0065.jpg	NY	Right	Yes	0.727660599999581	0	186130	253
364.25390625	0	taste	response	1	14	14	foodImage.4	FOODEEG_Images\0065.jpg	NY	Right	Yes	0.727660599999581	0	186499	235
365.294921875	1	taste	trialStart	1	15	15	foodImage.114	FOODEEG_Images\0922.jpg	YN	Right	No	1.03630720000001	0	187032	251
366.333984375	2	taste	foodImageDisplay	1	15	15	foodImage.114	FOODEEG_Images\0922.jpg	YN	Right	No	1.03630720000001	0	187564	252
368.400390625	1.03630720000001	taste	choicePhaseStart	1	15	15	foodImage.114	FOODEEG_Images\0922.jpg	YN	Right	No	1.03630720000001	0	188622	253
369.427734375	0	taste	response	1	15	15	foodImage.114	FOODEEG_Images\0922.jpg	YN	Right	No	1.03630720000001	0	189148	235
370.470703125	1	health	trialStart	1	16	16	foodImage.118	FOODEEG_Images\0926.jpg	YN	Left	Yes	0.99077490000127	0	189682	251
371.509765625	2	health	foodImageDisplay	1	16	16	foodImage.118	FOODEEG_Images\0926.jpg	YN	Left	Yes	0.99077490000127	0	190214	252
373.57421875	0.99077490000127	health	choicePhaseStart	1	16	16	foodImage.118	FOODEEG_Images\0926.jpg	YN	Left	Yes	0.99077490000127	0	191271	253
374.556640625	0	health	response	1	16	16	foodImage.118	FOODEEG_Images\0926.jpg	YN	Left	Yes	0.99077490000127	0	191774	234
375.599609375	1	health	trialStart	1	17	17	foodImage.88	FOODEEG_Images\0878.jpg	YN	Right	No	0.718944100000954	0	192308	251
376.654296875	2	health	foodImageDisplay	1	17	17	foodImage.88	FOODEEG_Images\0878.jpg	YN	Right	No	0.718944100000954	0	192848	252
378.71875	0.718944100000954	health	choicePhaseStart	1	17	17	foodImage.88	FOODEEG_Images\0878.jpg	YN	Right	No	0.718944100000954	0	193905	253
379.427734375	0	health	response	1	17	17	foodImage.88	FOODEEG_Images\0878.jpg	YN	Right	No	0.718944100000954	0	194268	235
380.470703125	1	taste	trialStart	1	18	18	foodImage.54	FOODEEG_Images\0560.jpg	YN	Left	Yes	0.774834300000293	0	194802	251
381.52734375	2	taste	foodImageDisplay	1	18	18	foodImage.54	FOODEEG_Images\0560.jpg	YN	Left	Yes	0.774834300000293	0	195343	252
383.59765625	0.774834300000293	taste	choicePhaseStart	1	18	18	foodImage.54	FOODEEG_Images\0560.jpg	YN	Left	Yes	0.774834300000293	0	196403	253
384.36328125	0	taste	response	1	18	18	foodImage.54	FOODEEG_Images\0560.jpg	YN	Left	Yes	0.774834300000293	0	196795	234
385.408203125	1	taste	trialStart	1	19	19	foodImage.86	FOODEEG_Images\0844.jpg	NY	Right	Yes	0.679241899999397	0	197330	251
386.494140625	2	taste	foodImageDisplay	1	19	19	foodImage.86	FOODEEG_Images\0844.jpg	NY	Right	Yes	0.679241899999397	0	197886	252
388.556640625	0.679241899999397	taste	choicePhaseStart	1	19	19	foodImage.86	FOODEEG_Images\0844.jpg	NY	Right	Yes	0.679241899999397	0	198942	253
389.2265625	0	taste	response	1	19	19	foodImage.86	FOODEEG_Images\0844.jpg	NY	Right	Yes	0.679241899999397	0	199285	235
390.267578125	1	taste	trialStart	1	20	20	foodImage.13	FOODEEG_Images\0183.jpg	NY	Right	Yes	0.533504499999253	0	199818	251
391.310546875	2	taste	foodImageDisplay	1	20	20	foodImage.13	FOODEEG_Images\0183.jpg	NY	Right	Yes	0.533504499999253	0	200352	252
393.375	0.533504499999253	taste	choicePhaseStart	1	20	20	foodImage.13	FOODEEG_Images\0183.jpg	NY	Right	Yes	0.533504499999253	0	201409	253
393.8984375	0	taste	response	1	20	20	foodImage.13	FOODEEG_Images\0183.jpg	NY	Right	Yes	0.533504499999253	0	201677	235
394.943359375	1	taste	trialStart	1	21	21	foodImage.79	FOODEEG_Images\0794.jpg	NY	Right	Yes	0.725368899999012	0	202212	251
395.98828125	2	taste	foodImageDisplay	1	21	21	foodImage.79	FOODEEG_Images\0794.jpg	NY	Right	Yes	0.725368899999012	0	202747	252
398.052734375	0.725368899999012	taste	choicePhaseStart	1	21	21	foodImage.79	FOODEEG_Images\0794.jpg	NY	Right	Yes	0.725368899999012	0	203804	253
398.771484375	0	taste	response	1	21	21	foodImage.79	FOODEEG_Images\0794.jpg	NY	Right	Yes	0.725368899999012	0	204172	235
399.814453125	1	health	trialStart	1	22	22	foodImage.108	FOODEEG_Images\0916.jpg	YN	Left	Yes	1.6058778000006	0	204706	251
400.853515625	2	health	foodImageDisplay	1	22	22	foodImage.108	FOODEEG_Images\0916.jpg	YN	Left	Yes	1.6058778000006	0	205238	252
402.91796875	1.6058778000006	health	choicePhaseStart	1	22	22	foodImage.108	FOODEEG_Images\0916.jpg	YN	Left	Yes	1.6058778000006	0	206295	253
404.515625	0	health	response	1	22	22	foodImage.108	FOODEEG_Images\0916.jpg	YN	Left	Yes	1.6058778000006	0	207113	234
405.556640625	1	health	trialStart	1	23	23	foodImage.25	FOODEEG_Images\0261.jpg	NY	Right	Yes	0.434549699999479	0	207646	251
406.599609375	2	health	foodImageDisplay	1	23	23	foodImage.25	FOODEEG_Images\0261.jpg	NY	Right	Yes	0.434549699999479	0	208180	252
408.666015625	0.434549699999479	health	choicePhaseStart	1	23	23	foodImage.25	FOODEEG_Images\0261.jpg	NY	Right	Yes	0.434549699999479	0	209238	253
409.08984375	0	health	response	1	23	23	foodImage.25	FOODEEG_Images\0261.jpg	NY	Right	Yes	0.434549699999479	0	209455	235
410.134765625	1	taste	trialStart	1	24	24	foodImage.84	FOODEEG_Images\0830.jpg	YN	Left	Yes	0.593437300000005	0	209990	251
411.208984375	2	taste	foodImageDisplay	1	24	24	foodImage.84	FOODEEG_Images\0830.jpg	YN	Left	Yes	0.593437300000005	0	210540	252
413.2734375	0.593437300000005	taste	choicePhaseStart	1	24	24	foodImage.84	FOODEEG_Images\0830.jpg	YN	Left	Yes	0.593437300000005	0	211597	253
413.857421875	0	taste	response	1	24	24	foodImage.84	FOODEEG_Images\0830.jpg	YN	Left	Yes	0.593437300000005	0	211896	234
414.900390625	1	taste	trialStart	1	25	25	foodImage.110	FOODEEG_Images\0918.jpg	NY	Right	Yes	1.32615199999964	0	212430	251
415.94140625	2	taste	foodImageDisplay	1	25	25	foodImage.110	FOODEEG_Images\0918.jpg	NY	Right	Yes	1.32615199999964	0	212963	252
418.005859375	1.32615199999964	taste	choicePhaseStart	1	25	25	foodImage.110	FOODEEG_Images\0918.jpg	NY	Right	Yes	1.32615199999964	0	214020	253
419.322265625	0	taste	response	1	25	25	foodImage.110	FOODEEG_Images\0918.jpg	NY	Right	Yes	1.32615199999964	0	214694	235
420.365234375	1	taste	trialStart	1	26	26	foodImage.117	FOODEEG_Images\0925.jpg	NY	Right	Yes	0.708623700000317	0	215228	251
421.404296875	2	taste	foodImageDisplay	1	26	26	foodImage.117	FOODEEG_Images\0925.jpg	NY	Right	Yes	0.708623700000317	0	215760	252
423.46875	0.708623700000317	taste	choicePhaseStart	1	26	26	foodImage.117	FOODEEG_Images\0925.jpg	NY	Right	Yes	0.708623700000317	0	216817	253
424.169921875	0	taste	response	1	26	26	foodImage.117	FOODEEG_Images\0925.jpg	NY	Right	Yes	0.708623700000317	0	217176	235
425.212890625	1	decision	trialStart	1	27	27	foodImage.42	FOODEEG_Images\0438.jpg	YN	Left	Yes	0.997769400000834	0	217710	251
426.298828125	2	decision	foodImageDisplay	1	27	27	foodImage.42	FOODEEG_Images\0438.jpg	YN	Left	Yes	0.997769400000834	0	218266	252
428.365234375	0.997769400000834	decision	choicePhaseStart	1	27	27	foodImage.42	FOODEEG_Images\0438.jpg	YN	Left	Yes	0.997769400000834	0	219324	253
429.353515625	0	decision	response	1	27	27	foodImage.42	FOODEEG_Images\0438.jpg	YN	Left	Yes	0.997769400000834	0	219830	234
430.39453125	1	decision	trialStart	1	28	28	foodImage.18	FOODEEG_Images\0202.jpg	NY	Right	Yes	0.64449550000063	0	220363	251
431.478515625	2	decision	foodImageDisplay	1	28	28	foodImage.18	FOODEEG_Images\0202.jpg	NY	Right	Yes	0.64449550000063	0	220918	252
433.54296875	0.64449550000063	decision	choicePhaseStart	1	28	28	foodImage.18	FOODEEG_Images\0202.jpg	NY	Right	Yes	0.64449550000063	0	221975	253
434.177734375	0	decision	response	1	28	28	foodImage.18	FOODEEG_Images\0202.jpg	NY	Right	Yes	0.64449550000063	0	222300	235
435.220703125	1	taste	trialStart	1	29	29	foodImage.81	FOODEEG_Images\0797.jpg	NY	Left	No	0.902594700000918	0	222834	251
436.30078125	2	taste	foodImageDisplay	1	29	29	foodImage.81	FOODEEG_Images\0797.jpg	NY	Left	No	0.902594700000918	0	223387	252
438.36328125	0.902594700000918	taste	choicePhaseStart	1	29	29	foodImage.81	FOODEEG_Images\0797.jpg	NY	Left	No	0.902594700000918	0	224443	253
439.2578125	0	taste	response	1	29	29	foodImage.81	FOODEEG_Images\0797.jpg	NY	Left	No	0.902594700000918	0	224901	234
440.298828125	1	taste	trialStart	1	30	30	foodImage.92	FOODEEG_Images\0900.jpg	NY	Left	No	0.672868100000414	0	225434	251
441.35546875	2	taste	foodImageDisplay	1	30	30	foodImage.92	FOODEEG_Images\0900.jpg	NY	Left	No	0.672868100000414	0	225975	252
443.41796875	0.672868100000414	taste	choicePhaseStart	1	30	30	foodImage.92	FOODEEG_Images\0900.jpg	NY	Left	No	0.672868100000414	0	227031	253
444.08203125	0	taste	response	1	30	30	foodImage.92	FOODEEG_Images\0900.jpg	NY	Left	No	0.672868100000414	0	227371	234
445.12109375	1	taste	trialStart	1	31	31	foodImage.76	FOODEEG_Images\0766.jpg	YN	Left	Yes	0.73733220000031	0	227903	251
446.171875	2	taste	foodImageDisplay	1	31	31	foodImage.76	FOODEEG_Images\0766.jpg	YN	Left	Yes	0.73733220000031	0	228441	252
448.234375	0.73733220000031	taste	choicePhaseStart	1	31	31	foodImage.76	FOODEEG_Images\0766.jpg	YN	Left	Yes	0.73733220000031	0	229497	253
448.9609375	0	taste	response	1	31	31	foodImage.76	FOODEEG_Images\0766.jpg	YN	Left	Yes	0.73733220000031	0	229869	234
450.001953125	1	decision	trialStart	1	32	32	foodImage.15	FOODEEG_Images\0189.jpg	YN	Left	Yes	0.878098900000623	0	230402	251
451.083984375	2	decision	foodImageDisplay	1	32	32	foodImage.15	FOODEEG_Images\0189.jpg	YN	Left	Yes	0.878098900000623	0	230956	252
453.1484375	0.878098900000623	decision	choicePhaseStart	1	32	32	foodImage.15	FOODEEG_Images\0189.jpg	YN	Left	Yes	0.878098900000623	0	232013	253
454.017578125	0	decision	response	1	32	32	foodImage.15	FOODEEG_Images\0189.jpg	YN	Left	Yes	0.878098900000623	0	232458	234
455.05859375	1	decision	trialStart	1	33	33	foodImage.86	FOODEEG_Images\0844.jpg	NY	Right	Yes	0.863331700000344	0	232991	251
456.1171875	2	decision	foodImageDisplay	1	33	33	foodImage.86	FOODEEG_Images\0844.jpg	NY	Right	Yes	0.863331700000344	0	233533	252
458.1796875	0.863331700000344	decision	choicePhaseStart	1	33	33	foodImage.86	FOODEEG_Images\0844.jpg	NY	Right	Yes	0.863331700000344	0	234589	253
459.033203125	0	decision	response	1	33	33	foodImage.86	FOODEEG_Images\0844.jpg	NY	Right	Yes	0.863331700000344	0	235026	235
460.076171875	1	health	trialStart	1	34	34	foodImage.58	FOODEEG_Images\0605.jpg	YN	Left	Yes	0.773880899998403	0	235560	251
461.1328125	2	health	foodImageDisplay	1	34	34	foodImage.58	FOODEEG_Images\0605.jpg	YN	Left	Yes	0.773880899998403	0	236101	252
463.197265625	0.773880899998403	health	choicePhaseStart	1	34	34	foodImage.58	FOODEEG_Images\0605.jpg	YN	Left	Yes	0.773880899998403	0	237158	253
463.9609375	0	health	response	1	34	34	foodImage.58	FOODEEG_Images\0605.jpg	YN	Left	Yes	0.773880899998403	0	237549	234
465.001953125	1	taste	trialStart	1	35	35	foodImage.7	FOODEEG_Images\0116.jpg	YN	Left	Yes	0.673202500000116	0	238082	251
466.046875	2	taste	foodImageDisplay	1	35	35	foodImage.7	FOODEEG_Images\0116.jpg	YN	Left	Yes	0.673202500000116	0	238617	252
468.111328125	0.673202500000116	taste	choicePhaseStart	1	35	35	foodImage.7	FOODEEG_Images\0116.jpg	YN	Left	Yes	0.673202500000116	0	239674	253
468.775390625	0	taste	response	1	35	35	foodImage.7	FOODEEG_Images\0116.jpg	YN	Left	Yes	0.673202500000116	0	240014	234
469.82421875	1	decision	trialStart	1	36	36	foodImage.115	FOODEEG_Images\0923.jpg	NY	Right	Yes	0.969018800000413	0	240551	251
470.880859375	2	decision	foodImageDisplay	1	36	36	foodImage.115	FOODEEG_Images\0923.jpg	NY	Right	Yes	0.969018800000413	0	241092	252
472.9453125	0.969018800000413	decision	choicePhaseStart	1	36	36	foodImage.115	FOODEEG_Images\0923.jpg	NY	Right	Yes	0.969018800000413	0	242149	253
473.904296875	0	decision	response	1	36	36	foodImage.115	FOODEEG_Images\0923.jpg	NY	Right	Yes	0.969018800000413	0	242640	235
474.9453125	1	taste	trialStart	1	37	37	foodImage.57	FOODEEG_Images\0587.jpg	YN	Right	No	1.96934230000079	0	243173	251
475.9921875	2	taste	foodImageDisplay	1	37	37	foodImage.57	FOODEEG_Images\0587.jpg	YN	Right	No	1.96934230000079	0	243709	252
478.0546875	1.96934230000079	taste	choicePhaseStart	1	37	37	foodImage.57	FOODEEG_Images\0587.jpg	YN	Right	No	1.96934230000079	0	244765	253
480.015625	0	taste	response	1	37	37	foodImage.57	FOODEEG_Images\0587.jpg	YN	Right	No	1.96934230000079	0	245769	235
481.056640625	1	taste	trialStart	1	38	38	foodImage.100	FOODEEG_Images\0908.jpg	YN	Right	No	0.521258599999783	0	246302	251
482.095703125	2	taste	foodImageDisplay	1	38	38	foodImage.100	FOODEEG_Images\0908.jpg	YN	Right	No	0.521258599999783	0	246834	252
484.16015625	0.521258599999783	taste	choicePhaseStart	1	38	38	foodImage.100	FOODEEG_Images\0908.jpg	YN	Right	No	0.521258599999783	0	247891	253
484.671875	0	taste	response	1	38	38	foodImage.100	FOODEEG_Images\0908.jpg	YN	Right	No	0.521258599999783	0	248153	235
485.712890625	1	health	trialStart	1	39	39	foodImage.8	FOODEEG_Images\0136.jpg	YN	Right	No	0.766217000000324	0	248686	251
486.75390625	2	health	foodImageDisplay	1	39	39	foodImage.8	FOODEEG_Images\0136.jpg	YN	Right	No	0.766217000000324	0	249219	252
488.818359375	0.766217000000324	health	choicePhaseStart	1	39	39	foodImage.8	FOODEEG_Images\0136.jpg	YN	Right	No	0.766217000000324	0	250276	253
489.576171875	0	health	response	1	39	39	foodImage.8	FOODEEG_Images\0136.jpg	YN	Right	No	0.766217000000324	0	250664	235
490.6171875	1	health	trialStart	1	40	40	foodImage.120	FOODEEG_Images\0928.jpg	NY	Right	Yes	0.949997900001108	0	251197	251
491.6640625	2	health	foodImageDisplay	1	40	40	foodImage.120	FOODEEG_Images\0928.jpg	NY	Right	Yes	0.949997900001108	0	251733	252
493.73046875	0.949997900001108	health	choicePhaseStart	1	40	40	foodImage.120	FOODEEG_Images\0928.jpg	NY	Right	Yes	0.949997900001108	0	252791	253
494.671875	0	health	response	1	40	40	foodImage.120	FOODEEG_Images\0928.jpg	NY	Right	Yes	0.949997900001108	0	253273	235
495.71484375	1	taste	trialStart	1	41	41	foodImage.20	FOODEEG_Images\0226.jpg	YN	Left	Yes	1.12448309999854	0	253807	251
496.7578125	2	taste	foodImageDisplay	1	41	41	foodImage.20	FOODEEG_Images\0226.jpg	YN	Left	Yes	1.12448309999854	0	254341	252
498.8203125	1.12448309999854	taste	choicePhaseStart	1	41	41	foodImage.20	FOODEEG_Images\0226.jpg	YN	Left	Yes	1.12448309999854	0	255397	253
499.935546875	0	taste	response	1	41	41	foodImage.20	FOODEEG_Images\0226.jpg	YN	Left	Yes	1.12448309999854	0	255968	234
500.978515625	1	decision	trialStart	1	42	42	foodImage.108	FOODEEG_Images\0916.jpg	NY	Right	Yes	0.719925200000944	0	256502	251
502.015625	2	decision	foodImageDisplay	1	42	42	foodImage.108	FOODEEG_Images\0916.jpg	NY	Right	Yes	0.719925200000944	0	257033	252
504.080078125	0.719925200000944	decision	choicePhaseStart	1	42	42	foodImage.108	FOODEEG_Images\0916.jpg	NY	Right	Yes	0.719925200000944	0	258090	253
504.791015625	0	decision	response	1	42	42	foodImage.108	FOODEEG_Images\0916.jpg	NY	Right	Yes	0.719925200000944	0	258454	235
505.83984375	1	health	trialStart	1	43	43	foodImage.20	FOODEEG_Images\0226.jpg	NY	Right	Yes	0.862004200000229	0	258991	251
506.8828125	2	health	foodImageDisplay	1	43	43	foodImage.20	FOODEEG_Images\0226.jpg	NY	Right	Yes	0.862004200000229	0	259525	252
508.9453125	0.862004200000229	health	choicePhaseStart	1	43	43	foodImage.20	FOODEEG_Images\0226.jpg	NY	Right	Yes	0.862004200000229	0	260581	253
509.798828125	0	health	response	1	43	43	foodImage.20	FOODEEG_Images\0226.jpg	NY	Right	Yes	0.862004200000229	0	261018	235
510.841796875	1	taste	trialStart	1	44	44	foodImage.70	FOODEEG_Images\0705.jpg	NY	Right	Yes	0.895460499999899	0	261552	251
511.90234375	2	taste	foodImageDisplay	1	44	44	foodImage.70	FOODEEG_Images\0705.jpg	NY	Right	Yes	0.895460499999899	0	262095	252
513.966796875	0.895460499999899	taste	choicePhaseStart	1	44	44	foodImage.70	FOODEEG_Images\0705.jpg	NY	Right	Yes	0.895460499999899	0	263152	253
514.853515625	0	taste	response	1	44	44	foodImage.70	FOODEEG_Images\0705.jpg	NY	Right	Yes	0.895460499999899	0	263606	235
515.896484375	1	decision	trialStart	1	45	45	foodImage.60	FOODEEG_Images\0614.jpg	YN	Left	Yes	0.832021899999745	0	264140	251
516.958984375	2	decision	foodImageDisplay	1	45	45	foodImage.60	FOODEEG_Images\0614.jpg	YN	Left	Yes	0.832021899999745	0	264684	252
519.0234375	0.832021899999745	decision	choicePhaseStart	1	45	45	foodImage.60	FOODEEG_Images\0614.jpg	YN	Left	Yes	0.832021899999745	0	265741	253
519.845703125	0	decision	response	1	45	45	foodImage.60	FOODEEG_Images\0614.jpg	YN	Left	Yes	0.832021899999745	0	266162	234
520.88671875	1	health	trialStart	1	46	46	foodImage.104	FOODEEG_Images\0912.jpg	YN	Right	No	0.867663600000014	0	266695	251
521.923828125	2	health	foodImageDisplay	1	46	46	foodImage.104	FOODEEG_Images\0912.jpg	YN	Right	No	0.867663600000014	0	267226	252
523.98828125	0.867663600000014	health	choicePhaseStart	1	46	46	foodImage.104	FOODEEG_Images\0912.jpg	YN	Right	No	0.867663600000014	0	268283	253
524.845703125	0	health	response	1	46	46	foodImage.104	FOODEEG_Images\0912.jpg	YN	Right	No	0.867663600000014	0	268722	235
525.888671875	1	decision	trialStart	1	47	47	foodImage.119	FOODEEG_Images\0927.jpg	YN	Left	Yes	1.50197119999939	0	269256	251
526.9296875	2	decision	foodImageDisplay	1	47	47	foodImage.119	FOODEEG_Images\0927.jpg	YN	Left	Yes	1.50197119999939	0	269789	252
528.994140625	1.50197119999939	decision	choicePhaseStart	1	47	47	foodImage.119	FOODEEG_Images\0927.jpg	YN	Left	Yes	1.50197119999939	0	270846	253
530.486328125	0	decision	response	1	47	47	foodImage.119	FOODEEG_Images\0927.jpg	YN	Left	Yes	1.50197119999939	0	271610	234
531.52734375	1	health	trialStart	1	48	48	foodImage.48	FOODEEG_Images\0494.jpg	YN	Right	No	0.56255179999971	0	272143	251
532.572265625	2	health	foodImageDisplay	1	48	48	foodImage.48	FOODEEG_Images\0494.jpg	YN	Right	No	0.56255179999971	0	272678	252
534.63671875	0.56255179999971	health	choicePhaseStart	1	48	48	foodImage.48	FOODEEG_Images\0494.jpg	YN	Right	No	0.56255179999971	0	273735	253
535.189453125	0	health	response	1	48	48	foodImage.48	FOODEEG_Images\0494.jpg	YN	Right	No	0.56255179999971	0	274018	235
536.23046875	1	health	trialStart	1	49	49	foodImage.56	FOODEEG_Images\0586.jpg	YN	Left	Yes	0.643334299998969	0	274551	251
537.275390625	2	health	foodImageDisplay	1	49	49	foodImage.56	FOODEEG_Images\0586.jpg	YN	Left	Yes	0.643334299998969	0	275086	252
539.33984375	0.643334299998969	health	choicePhaseStart	1	49	49	foodImage.56	FOODEEG_Images\0586.jpg	YN	Left	Yes	0.643334299998969	0	276143	253
539.97265625	0	health	response	1	49	49	foodImage.56	FOODEEG_Images\0586.jpg	YN	Left	Yes	0.643334299998969	0	276467	234
541.013671875	1	taste	trialStart	1	50	50	foodImage.18	FOODEEG_Images\0202.jpg	NY	Right	Yes	0.723355300000549	0	277000	251
542.087890625	2	taste	foodImageDisplay	1	50	50	foodImage.18	FOODEEG_Images\0202.jpg	NY	Right	Yes	0.723355300000549	0	277550	252
544.15234375	0.723355300000549	taste	choicePhaseStart	1	50	50	foodImage.18	FOODEEG_Images\0202.jpg	NY	Right	Yes	0.723355300000549	0	278607	253
544.869140625	0	taste	response	1	50	50	foodImage.18	FOODEEG_Images\0202.jpg	NY	Right	Yes	0.723355300000549	0	278974	235
545.912109375	1	decision	trialStart	1	51	51	foodImage.12	FOODEEG_Images\0181.jpg	NY	Right	Yes	0.670519600000262	0	279508	251
546.953125	2	decision	foodImageDisplay	1	51	51	foodImage.12	FOODEEG_Images\0181.jpg	NY	Right	Yes	0.670519600000262	0	280041	252
549.015625	0.670519600000262	decision	choicePhaseStart	1	51	51	foodImage.12	FOODEEG_Images\0181.jpg	NY	Right	Yes	0.670519600000262	0	281097	253
549.677734375	0	decision	response	1	51	51	foodImage.12	FOODEEG_Images\0181.jpg	NY	Right	Yes	0.670519600000262	0	281436	235
550.71875	1	health	trialStart	1	52	52	foodImage.66	FOODEEG_Images\0676.jpg	NY	Right	Yes	1.29439349999848	0	281969	251
551.759765625	2	health	foodImageDisplay	1	52	52	foodImage.66	FOODEEG_Images\0676.jpg	NY	Right	Yes	1.29439349999848	0	282502	252
553.82421875	1.29439349999848	health	choicePhaseStart	1	52	52	foodImage.66	FOODEEG_Images\0676.jpg	NY	Right	Yes	1.29439349999848	0	283559	253
555.109375	0	health	response	1	52	52	foodImage.66	FOODEEG_Images\0676.jpg	NY	Right	Yes	1.29439349999848	0	284217	235
556.150390625	1	taste	trialStart	1	53	53	foodImage.37	FOODEEG_Images\0359.jpg	YN	Left	Yes	0.882116900000256	0	284750	251
557.193359375	2	taste	foodImageDisplay	1	53	53	foodImage.37	FOODEEG_Images\0359.jpg	YN	Left	Yes	0.882116900000256	0	285284	252
559.2578125	0.882116900000256	taste	choicePhaseStart	1	53	53	foodImage.37	FOODEEG_Images\0359.jpg	YN	Left	Yes	0.882116900000256	0	286341	253
560.1328125	0	taste	response	1	53	53	foodImage.37	FOODEEG_Images\0359.jpg	YN	Left	Yes	0.882116900000256	0	286789	234
561.173828125	1	taste	trialStart	1	54	54	foodImage.119	FOODEEG_Images\0927.jpg	NY	Left	No	1.07433590000073	0	287322	251
562.212890625	2	taste	foodImageDisplay	1	54	54	foodImage.119	FOODEEG_Images\0927.jpg	NY	Left	No	1.07433590000073	0	287854	252
564.283203125	1.07433590000073	taste	choicePhaseStart	1	54	54	foodImage.119	FOODEEG_Images\0927.jpg	NY	Left	No	1.07433590000073	0	288914	253
565.34765625	0	taste	response	1	54	54	foodImage.119	FOODEEG_Images\0927.jpg	NY	Left	No	1.07433590000073	0	289459	234
566.388671875	1	health	trialStart	1	55	55	foodImage.116	FOODEEG_Images\0924.jpg	YN	Left	Yes	0.907281800000419	0	289992	251
567.427734375	2	health	foodImageDisplay	1	55	55	foodImage.116	FOODEEG_Images\0924.jpg	YN	Left	Yes	0.907281800000419	0	290524	252
569.490234375	0.907281800000419	health	choicePhaseStart	1	55	55	foodImage.116	FOODEEG_Images\0924.jpg	YN	Left	Yes	0.907281800000419	0	291580	253
570.388671875	0	health	response	1	55	55	foodImage.116	FOODEEG_Images\0924.jpg	YN	Left	Yes	0.907281800000419	0	292040	234
571.427734375	1	health	trialStart	1	56	56	foodImage.87	FOODEEG_Images\0873.jpg	NY	Right	Yes	1.07837290000134	0	292572	251
572.494140625	2	health	foodImageDisplay	1	56	56	foodImage.87	FOODEEG_Images\0873.jpg	NY	Right	Yes	1.07837290000134	0	293118	252
574.55859375	1.07837290000134	health	choicePhaseStart	1	56	56	foodImage.87	FOODEEG_Images\0873.jpg	NY	Right	Yes	1.07837290000134	0	294175	253
575.62890625	0	health	response	1	56	56	foodImage.87	FOODEEG_Images\0873.jpg	NY	Right	Yes	1.07837290000134	0	294723	235
576.671875	1	health	trialStart	1	57	57	foodImage.57	FOODEEG_Images\0587.jpg	NY	Left	No	1.28647380000075	0	295257	251
577.734375	2	health	foodImageDisplay	1	57	57	foodImage.57	FOODEEG_Images\0587.jpg	NY	Left	No	1.28647380000075	0	295801	252
579.798828125	1.28647380000075	health	choicePhaseStart	1	57	57	foodImage.57	FOODEEG_Images\0587.jpg	NY	Left	No	1.28647380000075	0	296858	253
581.076171875	0	health	response	1	57	57	foodImage.57	FOODEEG_Images\0587.jpg	NY	Left	No	1.28647380000075	0	297512	234
582.119140625	1	decision	trialStart	1	58	58	foodImage.97	FOODEEG_Images\0905.jpg	NY	Right	Yes	0.983457300000737	0	298046	251
583.16015625	2	decision	foodImageDisplay	1	58	58	foodImage.97	FOODEEG_Images\0905.jpg	NY	Right	Yes	0.983457300000737	0	298579	252
585.22265625	0.983457300000737	decision	choicePhaseStart	1	58	58	foodImage.97	FOODEEG_Images\0905.jpg	NY	Right	Yes	0.983457300000737	0	299635	253
586.1953125	0	decision	response	1	58	58	foodImage.97	FOODEEG_Images\0905.jpg	NY	Right	Yes	0.983457300000737	0	300133	235
587.236328125	1	taste	trialStart	1	59	59	foodImage.94	FOODEEG_Images\0902.jpg	YN	Left	Yes	1.24203440000019	0	300666	251
588.27734375	2	taste	foodImageDisplay	1	59	59	foodImage.94	FOODEEG_Images\0902.jpg	YN	Left	Yes	1.24203440000019	0	301199	252
590.33984375	1.24203440000019	taste	choicePhaseStart	1	59	59	foodImage.94	FOODEEG_Images\0902.jpg	YN	Left	Yes	1.24203440000019	0	302255	253
591.572265625	0	taste	response	1	59	59	foodImage.94	FOODEEG_Images\0902.jpg	YN	Left	Yes	1.24203440000019	0	302886	234
592.61328125	1	health	trialStart	1	60	60	foodImage.105	FOODEEG_Images\0913.jpg	NY	Left	No	1.58680040000036	0	303419	251
593.654296875	2	health	foodImageDisplay	1	60	60	foodImage.105	FOODEEG_Images\0913.jpg	NY	Left	No	1.58680040000036	0	303952	252
595.72265625	1.58680040000036	health	choicePhaseStart	1	60	60	foodImage.105	FOODEEG_Images\0913.jpg	NY	Left	No	1.58680040000036	0	305011	253
597.298828125	0	health	response	1	60	60	foodImage.105	FOODEEG_Images\0913.jpg	NY	Left	No	1.58680040000036	0	305818	234
599.337890625	0.89453125	n/a	blockEnd	n/a	n/a	n/a	n/a	n/a	n/a	n/a	n/a	n/a	n/a	306862	254
600.232421875	2	n/a	blockStart	2	n/a	n/a	n/a	n/a	n/a	n/a	n/a	n/a	n/a	307320	250
602.26953125	1	decision	trialStart	2	61	1	foodImage.58	FOODEEG_Images\0605.jpg	NY	Right	Yes	0.794986200000494	0	308363	251
603.328125	2	decision	foodImageDisplay	2	61	1	foodImage.58	FOODEEG_Images\0605.jpg	NY	Right	Yes	0.794986200000494	0	308905	252
605.392578125	0.794986200000494	decision	choicePhaseStart	2	61	1	foodImage.58	FOODEEG_Images\0605.jpg	NY	Right	Yes	0.794986200000494	0	309962	253
606.1796875	0	decision	response	2	61	1	foodImage.58	FOODEEG_Images\0605.jpg	NY	Right	Yes	0.794986200000494	0	310365	235
607.220703125	1	taste	trialStart	2	62	2	foodImage.97	FOODEEG_Images\0905.jpg	YN	Left	Yes	2.93195030000061	0	310898	251
608.263671875	2	taste	foodImageDisplay	2	62	2	foodImage.97	FOODEEG_Images\0905.jpg	YN	Left	Yes	2.93195030000061	0	311432	252
610.328125	2.93195030000061	taste	choicePhaseStart	2	62	2	foodImage.97	FOODEEG_Images\0905.jpg	YN	Left	Yes	2.93195030000061	0	312489	253
613.25	0	taste	response	2	62	2	foodImage.97	FOODEEG_Images\0905.jpg	YN	Left	Yes	2.93195030000061	0	313985	234
614.294921875	1	taste	trialStart	2	63	3	foodImage.2	FOODEEG_Images\0028.jpg	NY	Right	Yes	1.11921400000028	0	314520	251
615.337890625	2	taste	foodImageDisplay	2	63	3	foodImage.2	FOODEEG_Images\0028.jpg	NY	Right	Yes	1.11921400000028	0	315054	252
617.404296875	1.11921400000028	taste	choicePhaseStart	2	63	3	foodImage.2	FOODEEG_Images\0028.jpg	NY	Right	Yes	1.11921400000028	0	316112	253
618.513671875	0	taste	response	2	63	3	foodImage.2	FOODEEG_Images\0028.jpg	NY	Right	Yes	1.11921400000028	0	316680	235
619.5546875	1	taste	trialStart	2	64	4	foodImage.89	FOODEEG_Images\0881.jpg	NY	Right	Yes	1.33636880000086	0	317213	251
620.634765625	2	taste	foodImageDisplay	2	64	4	foodImage.89	FOODEEG_Images\0881.jpg	NY	Right	Yes	1.33636880000086	0	317766	252
622.69921875	1.33636880000086	taste	choicePhaseStart	2	64	4	foodImage.89	FOODEEG_Images\0881.jpg	NY	Right	Yes	1.33636880000086	0	318823	253
624.025390625	0	taste	response	2	64	4	foodImage.89	FOODEEG_Images\0881.jpg	NY	Right	Yes	1.33636880000086	0	319502	235
625.068359375	1	taste	trialStart	2	65	5	foodImage.5	FOODEEG_Images\0107.jpg	NY	Right	Yes	0.853289699998641	0	320036	251
626.126953125	2	taste	foodImageDisplay	2	65	5	foodImage.5	FOODEEG_Images\0107.jpg	NY	Right	Yes	0.853289699998641	0	320578	252
628.189453125	0.853289699998641	taste	choicePhaseStart	2	65	5	foodImage.5	FOODEEG_Images\0107.jpg	NY	Right	Yes	0.853289699998641	0	321634	253
629.033203125	0	taste	response	2	65	5	foodImage.5	FOODEEG_Images\0107.jpg	NY	Right	Yes	0.853289699998641	0	322066	235
630.076171875	1	health	trialStart	2	66	6	foodImage.70	FOODEEG_Images\0705.jpg	NY	Left	No	1.43878380000024	0	322600	251
631.1328125	2	health	foodImageDisplay	2	66	6	foodImage.70	FOODEEG_Images\0705.jpg	NY	Left	No	1.43878380000024	0	323141	252
633.197265625	1.43878380000024	health	choicePhaseStart	2	66	6	foodImage.70	FOODEEG_Images\0705.jpg	NY	Left	No	1.43878380000024	0	324198	253
634.625	0	health	response	2	66	6	foodImage.70	FOODEEG_Images\0705.jpg	NY	Left	No	1.43878380000024	0	324929	234
635.6640625	1	health	trialStart	2	67	7	foodImage.47	FOODEEG_Images\0488.jpg	NY	Left	No	1.19148640000094	0	325461	251
636.70703125	2	health	foodImageDisplay	2	67	7	foodImage.47	FOODEEG_Images\0488.jpg	NY	Left	No	1.19148640000094	0	325995	252
638.771484375	1.19148640000094	health	choicePhaseStart	2	67	7	foodImage.47	FOODEEG_Images\0488.jpg	NY	Left	No	1.19148640000094	0	327052	253
639.953125	0	health	response	2	67	7	foodImage.47	FOODEEG_Images\0488.jpg	NY	Left	No	1.19148640000094	0	327657	234
640.99609375	1	decision	trialStart	2	68	8	foodImage.79	FOODEEG_Images\0794.jpg	YN	Left	Yes	0.932243400000516	0	328191	251
642.0390625	2	decision	foodImageDisplay	2	68	8	foodImage.79	FOODEEG_Images\0794.jpg	YN	Left	Yes	0.932243400000516	0	328725	252
644.1015625	0.932243400000516	decision	choicePhaseStart	2	68	8	foodImage.79	FOODEEG_Images\0794.jpg	YN	Left	Yes	0.932243400000516	0	329781	253
645.025390625	0	decision	response	2	68	8	foodImage.79	FOODEEG_Images\0794.jpg	YN	Left	Yes	0.932243400000516	0	330254	234
646.068359375	1	taste	trialStart	2	69	9	foodImage.68	FOODEEG_Images\0685.jpg	YN	Left	Yes	0.985334900000453	0	330788	251
647.14453125	2	taste	foodImageDisplay	2	69	9	foodImage.68	FOODEEG_Images\0685.jpg	YN	Left	Yes	0.985334900000453	0	331339	252
649.208984375	0.985334900000453	taste	choicePhaseStart	2	69	9	foodImage.68	FOODEEG_Images\0685.jpg	YN	Left	Yes	0.985334900000453	0	332396	253
650.185546875	0	taste	response	2	69	9	foodImage.68	FOODEEG_Images\0685.jpg	YN	Left	Yes	0.985334900000453	0	332896	234
651.2265625	1	decision	trialStart	2	70	10	foodImage.2	FOODEEG_Images\0028.jpg	NY	Right	Yes	1.0010457999997	0	333429	251
652.271484375	2	decision	foodImageDisplay	2	70	10	foodImage.2	FOODEEG_Images\0028.jpg	NY	Right	Yes	1.0010457999997	0	333964	252
654.337890625	1.0010457999997	decision	choicePhaseStart	2	70	10	foodImage.2	FOODEEG_Images\0028.jpg	NY	Right	Yes	1.0010457999997	0	335022	253
655.328125	0	decision	response	2	70	10	foodImage.2	FOODEEG_Images\0028.jpg	NY	Right	Yes	1.0010457999997	0	335529	235
656.37109375	1	decision	trialStart	2	71	11	foodImage.50	FOODEEG_Images\0529.jpg	YN	Left	Yes	0.955441199999768	0	336063	251
657.4296875	2	decision	foodImageDisplay	2	71	11	foodImage.50	FOODEEG_Images\0529.jpg	YN	Left	Yes	0.955441199999768	0	336605	252
659.494140625	0.955441199999768	decision	choicePhaseStart	2	71	11	foodImage.50	FOODEEG_Images\0529.jpg	YN	Left	Yes	0.955441199999768	0	337662	253
660.44140625	0	decision	response	2	71	11	foodImage.50	FOODEEG_Images\0529.jpg	YN	Left	Yes	0.955441199999768	0	338147	234
661.490234375	1	health	trialStart	2	72	12	foodImage.98	FOODEEG_Images\0906.jpg	NY	Left	No	1.01644920000035	0	338684	251
662.53125	2	health	foodImageDisplay	2	72	12	foodImage.98	FOODEEG_Images\0906.jpg	NY	Left	No	1.01644920000035	0	339217	252
664.59375	1.01644920000035	health	choicePhaseStart	2	72	12	foodImage.98	FOODEEG_Images\0906.jpg	NY	Left	No	1.01644920000035	0	340273	253
665.599609375	0	health	response	2	72	12	foodImage.98	FOODEEG_Images\0906.jpg	NY	Left	No	1.01644920000035	0	340788	234
666.646484375	1	health	trialStart	2	73	13	foodImage.106	FOODEEG_Images\0914.jpg	YN	Right	No	0.904172900000049	0	341324	251
667.705078125	2	health	foodImageDisplay	2	73	13	foodImage.106	FOODEEG_Images\0914.jpg	YN	Right	No	0.904172900000049	0	341866	252
669.76953125	0.904172900000049	health	choicePhaseStart	2	73	13	foodImage.106	FOODEEG_Images\0914.jpg	YN	Right	No	0.904172900000049	0	342923	253
670.6640625	0	health	response	2	73	13	foodImage.106	FOODEEG_Images\0914.jpg	YN	Right	No	0.904172900000049	0	343381	235
671.705078125	1	decision	trialStart	2	74	14	foodImage.92	FOODEEG_Images\0900.jpg	YN	Left	Yes	2.16377990000001	0	343914	251
672.7421875	2	decision	foodImageDisplay	2	74	14	foodImage.92	FOODEEG_Images\0900.jpg	YN	Left	Yes	2.16377990000001	0	344445	252
674.806640625	2.16377990000001	decision	choicePhaseStart	2	74	14	foodImage.92	FOODEEG_Images\0900.jpg	YN	Left	Yes	2.16377990000001	0	345502	253
676.9609375	0	decision	response	2	74	14	foodImage.92	FOODEEG_Images\0900.jpg	YN	Left	Yes	2.16377990000001	0	346605	234
678	1	taste	trialStart	2	75	15	foodImage.69	FOODEEG_Images\0693.jpg	NY	Right	Yes	1.56769779999922	0	347137	251
679.041015625	2	taste	foodImageDisplay	2	75	15	foodImage.69	FOODEEG_Images\0693.jpg	NY	Right	Yes	1.56769779999922	0	347670	252
681.10546875	1.56769779999922	taste	choicePhaseStart	2	75	15	foodImage.69	FOODEEG_Images\0693.jpg	NY	Right	Yes	1.56769779999922	0	348727	253
682.6640625	0	taste	response	2	75	15	foodImage.69	FOODEEG_Images\0693.jpg	NY	Right	Yes	1.56769779999922	0	349525	235
683.70703125	1	decision	trialStart	2	76	16	foodImage.114	FOODEEG_Images\0922.jpg	YN	Right	No	1.72857979999935	0	350059	251
684.74609375	2	decision	foodImageDisplay	2	76	16	foodImage.114	FOODEEG_Images\0922.jpg	YN	Right	No	1.72857979999935	0	350591	252
686.80859375	1.72857979999935	decision	choicePhaseStart	2	76	16	foodImage.114	FOODEEG_Images\0922.jpg	YN	Right	No	1.72857979999935	0	351647	253
688.52734375	0	decision	response	2	76	16	foodImage.114	FOODEEG_Images\0922.jpg	YN	Right	No	1.72857979999935	0	352527	235
689.568359375	1	taste	trialStart	2	77	17	foodImage.87	FOODEEG_Images\0873.jpg	YN	Right	No	0.641896999999517	0	353060	251
690.623046875	2	taste	foodImageDisplay	2	77	17	foodImage.87	FOODEEG_Images\0873.jpg	YN	Right	No	0.641896999999517	0	353600	252
692.69140625	0.641896999999517	taste	choicePhaseStart	2	77	17	foodImage.87	FOODEEG_Images\0873.jpg	YN	Right	No	0.641896999999517	0	354659	253
693.328125	0	taste	response	2	77	17	foodImage.87	FOODEEG_Images\0873.jpg	YN	Right	No	0.641896999999517	0	354985	235
694.37109375	1	taste	trialStart	2	78	18	foodImage.22	FOODEEG_Images\0236.jpg	NY	Right	Yes	1.56016959999943	0	355519	251
695.423828125	2	taste	foodImageDisplay	2	78	18	foodImage.22	FOODEEG_Images\0236.jpg	NY	Right	Yes	1.56016959999943	0	356058	252
697.48828125	1.56016959999943	taste	choicePhaseStart	2	78	18	foodImage.22	FOODEEG_Images\0236.jpg	NY	Right	Yes	1.56016959999943	0	357115	253
699.0390625	0	taste	response	2	78	18	foodImage.22	FOODEEG_Images\0236.jpg	NY	Right	Yes	1.56016959999943	0	357909	235
700.080078125	1	health	trialStart	2	79	19	foodImage.100	FOODEEG_Images\0908.jpg	YN	Right	No	1.47331969999868	0	358442	251
701.119140625	2	health	foodImageDisplay	2	79	19	foodImage.100	FOODEEG_Images\0908.jpg	YN	Right	No	1.47331969999868	0	358974	252
703.18359375	1.47331969999868	health	choicePhaseStart	2	79	19	foodImage.100	FOODEEG_Images\0908.jpg	YN	Right	No	1.47331969999868	0	360031	253
704.646484375	0	health	response	2	79	19	foodImage.100	FOODEEG_Images\0908.jpg	YN	Right	No	1.47331969999868	0	360780	235
705.689453125	1	decision	trialStart	2	80	20	foodImage.64	FOODEEG_Images\0647.jpg	NY	Right	Yes	1.10700089999955	0	361314	251
706.75	2	decision	foodImageDisplay	2	80	20	foodImage.64	FOODEEG_Images\0647.jpg	NY	Right	Yes	1.10700089999955	0	361857	252
708.8125	1.10700089999955	decision	choicePhaseStart	2	80	20	foodImage.64	FOODEEG_Images\0647.jpg	NY	Right	Yes	1.10700089999955	0	362913	253
709.91015625	0	decision	response	2	80	20	foodImage.64	FOODEEG_Images\0647.jpg	NY	Right	Yes	1.10700089999955	0	363475	235
710.951171875	1	health	trialStart	2	81	21	foodImage.34	FOODEEG_Images\0339.jpg	NY	Left	No	0.845407500000874	0	364008	251
712.01171875	2	health	foodImageDisplay	2	81	21	foodImage.34	FOODEEG_Images\0339.jpg	NY	Left	No	0.845407500000874	0	364551	252
714.07421875	0.845407500000874	health	choicePhaseStart	2	81	21	foodImage.34	FOODEEG_Images\0339.jpg	NY	Left	No	0.845407500000874	0	365607	253
714.91015625	0	health	response	2	81	21	foodImage.34	FOODEEG_Images\0339.jpg	NY	Left	No	0.845407500000874	0	366035	234
715.95703125	1	decision	trialStart	2	82	22	foodImage.113	FOODEEG_Images\0921.jpg	NY	Right	Yes	0.754951699998855	0	366571	251
716.99609375	2	decision	foodImageDisplay	2	82	22	foodImage.113	FOODEEG_Images\0921.jpg	NY	Right	Yes	0.754951699998855	0	367103	252
719.060546875	0.754951699998855	decision	choicePhaseStart	2	82	22	foodImage.113	FOODEEG_Images\0921.jpg	NY	Right	Yes	0.754951699998855	0	368160	253
719.806640625	0	decision	response	2	82	22	foodImage.113	FOODEEG_Images\0921.jpg	NY	Right	Yes	0.754951699998855	0	368542	235
720.849609375	1	decision	trialStart	2	83	23	foodImage.91	FOODEEG_Images\0896.jpg	NY	Right	Yes	0.718959199999517	0	369076	251
721.904296875	2	decision	foodImageDisplay	2	83	23	foodImage.91	FOODEEG_Images\0896.jpg	NY	Right	Yes	0.718959199999517	0	369616	252
723.96875	0.718959199999517	decision	choicePhaseStart	2	83	23	foodImage.91	FOODEEG_Images\0896.jpg	NY	Right	Yes	0.718959199999517	0	370673	253
724.677734375	0	decision	response	2	83	23	foodImage.91	FOODEEG_Images\0896.jpg	NY	Right	Yes	0.718959199999517	0	371036	235
725.72265625	1	decision	trialStart	2	84	24	foodImage.90	FOODEEG_Images\0890.jpg	NY	Right	Yes	1.3560753999991	0	371571	251
726.779296875	2	decision	foodImageDisplay	2	84	24	foodImage.90	FOODEEG_Images\0890.jpg	NY	Right	Yes	1.3560753999991	0	372112	252
728.841796875	1.3560753999991	decision	choicePhaseStart	2	84	24	foodImage.90	FOODEEG_Images\0890.jpg	NY	Right	Yes	1.3560753999991	0	373168	253
730.189453125	0	decision	response	2	84	24	foodImage.90	FOODEEG_Images\0890.jpg	NY	Right	Yes	1.3560753999991	0	373858	235
731.234375	1	taste	trialStart	2	85	25	foodImage.120	FOODEEG_Images\0928.jpg	NY	Right	Yes	1.17877179999959	0	374393	251
732.2734375	2	taste	foodImageDisplay	2	85	25	foodImage.120	FOODEEG_Images\0928.jpg	NY	Right	Yes	1.17877179999959	0	374925	252
734.337890625	1.17877179999959	taste	choicePhaseStart	2	85	25	foodImage.120	FOODEEG_Images\0928.jpg	NY	Right	Yes	1.17877179999959	0	375982	253
735.509765625	0	taste	response	2	85	25	foodImage.120	FOODEEG_Images\0928.jpg	NY	Right	Yes	1.17877179999959	0	376582	235
736.5546875	1	taste	trialStart	2	86	26	foodImage.44	FOODEEG_Images\0459.jpg	NY	Right	Yes	1.19269359999998	0	377117	251
737.60546875	2	taste	foodImageDisplay	2	86	26	foodImage.44	FOODEEG_Images\0459.jpg	NY	Right	Yes	1.19269359999998	0	377655	252
739.669921875	1.19269359999998	taste	choicePhaseStart	2	86	26	foodImage.44	FOODEEG_Images\0459.jpg	NY	Right	Yes	1.19269359999998	0	378712	253
740.853515625	0	taste	response	2	86	26	foodImage.44	FOODEEG_Images\0459.jpg	NY	Right	Yes	1.19269359999998	0	379318	235
741.896484375	1	taste	trialStart	2	87	27	foodImage.30	FOODEEG_Images\0282.jpg	YN	Left	Yes	0.891616400000203	0	379852	251
742.9375	2	taste	foodImageDisplay	2	87	27	foodImage.30	FOODEEG_Images\0282.jpg	YN	Left	Yes	0.891616400000203	0	380385	252
745.00390625	0.891616400000203	taste	choicePhaseStart	2	87	27	foodImage.30	FOODEEG_Images\0282.jpg	YN	Left	Yes	0.891616400000203	0	381443	253
745.884765625	0	taste	response	2	87	27	foodImage.30	FOODEEG_Images\0282.jpg	YN	Left	Yes	0.891616400000203	0	381894	234
746.927734375	1	decision	trialStart	2	88	28	foodImage.103	FOODEEG_Images\0911.jpg	NY	Left	No	0.886444499999925	0	382428	251
747.966796875	2	decision	foodImageDisplay	2	88	28	foodImage.103	FOODEEG_Images\0911.jpg	NY	Left	No	0.886444499999925	0	382960	252
750.03125	0.886444499999925	decision	choicePhaseStart	2	88	28	foodImage.103	FOODEEG_Images\0911.jpg	NY	Left	No	0.886444499999925	0	384017	253
750.908203125	0	decision	response	2	88	28	foodImage.103	FOODEEG_Images\0911.jpg	NY	Left	No	0.886444499999925	0	384466	234
751.951171875	1	decision	trialStart	2	89	29	foodImage.53	FOODEEG_Images\0547.jpg	NY	Left	No	0.691647400000875	0	385000	251
753.01171875	2	decision	foodImageDisplay	2	89	29	foodImage.53	FOODEEG_Images\0547.jpg	NY	Left	No	0.691647400000875	0	385543	252
755.07421875	0.691647400000875	decision	choicePhaseStart	2	89	29	foodImage.53	FOODEEG_Images\0547.jpg	NY	Left	No	0.691647400000875	0	386599	253
755.7578125	0	decision	response	2	89	29	foodImage.53	FOODEEG_Images\0547.jpg	NY	Left	No	0.691647400000875	0	386949	234
756.798828125	1	decision	trialStart	2	90	30	foodImage.9	FOODEEG_Images\0138.jpg	YN	Left	Yes	0.547139599999355	0	387482	251
757.8828125	2	decision	foodImageDisplay	2	90	30	foodImage.9	FOODEEG_Images\0138.jpg	YN	Left	Yes	0.547139599999355	0	388037	252
759.947265625	0.547139599999355	decision	choicePhaseStart	2	90	30	foodImage.9	FOODEEG_Images\0138.jpg	YN	Left	Yes	0.547139599999355	0	389094	253
760.484375	0	decision	response	2	90	30	foodImage.9	FOODEEG_Images\0138.jpg	YN	Left	Yes	0.547139599999355	0	389369	234
761.52734375	1	taste	trialStart	2	91	31	foodImage.80	FOODEEG_Images\0796.jpg	YN	Left	Yes	1.1090449000003	0	389903	251
762.587890625	2	taste	foodImageDisplay	2	91	31	foodImage.80	FOODEEG_Images\0796.jpg	YN	Left	Yes	1.1090449000003	0	390446	252
764.654296875	1.1090449000003	taste	choicePhaseStart	2	91	31	foodImage.80	FOODEEG_Images\0796.jpg	YN	Left	Yes	1.1090449000003	0	391504	253
765.755859375	0	taste	response	2	91	31	foodImage.80	FOODEEG_Images\0796.jpg	YN	Left	Yes	1.1090449000003	0	392068	234
766.798828125	1	decision	trialStart	2	92	32	foodImage.102	FOODEEG_Images\0910.jpg	YN	Left	Yes	0.880924799999775	0	392602	251
767.837890625	2	decision	foodImageDisplay	2	92	32	foodImage.102	FOODEEG_Images\0910.jpg	YN	Left	Yes	0.880924799999775	0	393134	252
769.900390625	0.880924799999775	decision	choicePhaseStart	2	92	32	foodImage.102	FOODEEG_Images\0910.jpg	YN	Left	Yes	0.880924799999775	0	394190	253
770.771484375	0	decision	response	2	92	32	foodImage.102	FOODEEG_Images\0910.jpg	YN	Left	Yes	0.880924799999775	0	394636	234
771.814453125	1	health	trialStart	2	93	33	foodImage.9	FOODEEG_Images\0138.jpg	YN	Right	No	0.685843100000056	0	395170	251
772.873046875	2	health	foodImageDisplay	2	93	33	foodImage.9	FOODEEG_Images\0138.jpg	YN	Right	No	0.685843100000056	0	395712	252
774.935546875	0.685843100000056	health	choicePhaseStart	2	93	33	foodImage.9	FOODEEG_Images\0138.jpg	YN	Right	No	0.685843100000056	0	396768	253
775.611328125	0	health	response	2	93	33	foodImage.9	FOODEEG_Images\0138.jpg	YN	Right	No	0.685843100000056	0	397114	235
776.654296875	1	health	trialStart	2	94	34	foodImage.64	FOODEEG_Images\0647.jpg	NY	Right	Yes	1.15419470000052	0	397648	251
777.712890625	2	health	foodImageDisplay	2	94	34	foodImage.64	FOODEEG_Images\0647.jpg	NY	Right	Yes	1.15419470000052	0	398190	252
779.779296875	1.15419470000052	health	choicePhaseStart	2	94	34	foodImage.64	FOODEEG_Images\0647.jpg	NY	Right	Yes	1.15419470000052	0	399248	253
780.923828125	0	health	response	2	94	34	foodImage.64	FOODEEG_Images\0647.jpg	NY	Right	Yes	1.15419470000052	0	399834	235
781.98046875	1	health	trialStart	2	95	35	foodImage.38	FOODEEG_Images\0365.jpg	NY	Right	Yes	2.35313549999955	0	400375	251
783.03515625	2	health	foodImageDisplay	2	95	35	foodImage.38	FOODEEG_Images\0365.jpg	NY	Right	Yes	2.35313549999955	0	400915	252
785.099609375	2.35313549999955	health	choicePhaseStart	2	95	35	foodImage.38	FOODEEG_Images\0365.jpg	NY	Right	Yes	2.35313549999955	0	401972	253
787.443359375	0	health	response	2	95	35	foodImage.38	FOODEEG_Images\0365.jpg	NY	Right	Yes	2.35313549999955	0	403172	235
788.486328125	1	taste	trialStart	2	96	36	foodImage.47	FOODEEG_Images\0488.jpg	YN	Left	Yes	0.804811600000903	0	403706	251
789.544921875	2	taste	foodImageDisplay	2	96	36	foodImage.47	FOODEEG_Images\0488.jpg	YN	Left	Yes	0.804811600000903	0	404248	252
791.609375	0.804811600000903	taste	choicePhaseStart	2	96	36	foodImage.47	FOODEEG_Images\0488.jpg	YN	Left	Yes	0.804811600000903	0	405305	253
792.404296875	0	taste	response	2	96	36	foodImage.47	FOODEEG_Images\0488.jpg	YN	Left	Yes	0.804811600000903	0	405712	234
793.4453125	1	health	trialStart	2	97	37	foodImage.45	FOODEEG_Images\0478.jpg	YN	Left	Yes	0.879526599999735	0	406245	251
794.4921875	2	health	foodImageDisplay	2	97	37	foodImage.45	FOODEEG_Images\0478.jpg	YN	Left	Yes	0.879526599999735	0	406781	252
796.5625	0.879526599999735	health	choicePhaseStart	2	97	37	foodImage.45	FOODEEG_Images\0478.jpg	YN	Left	Yes	0.879526599999735	0	407841	253
797.435546875	0	health	response	2	97	37	foodImage.45	FOODEEG_Images\0478.jpg	YN	Left	Yes	0.879526599999735	0	408288	234
798.478515625	1	taste	trialStart	2	98	38	foodImage.96	FOODEEG_Images\0904.jpg	NY	Right	Yes	0.711479999999938	0	408822	251
799.53515625	2	taste	foodImageDisplay	2	98	38	foodImage.96	FOODEEG_Images\0904.jpg	NY	Right	Yes	0.711479999999938	0	409363	252
801.59765625	0.711479999999938	taste	choicePhaseStart	2	98	38	foodImage.96	FOODEEG_Images\0904.jpg	NY	Right	Yes	0.711479999999938	0	410419	253
802.298828125	0	taste	response	2	98	38	foodImage.96	FOODEEG_Images\0904.jpg	NY	Right	Yes	0.711479999999938	0	410778	235
803.341796875	1	health	trialStart	2	99	39	foodImage.112	FOODEEG_Images\0920.jpg	YN	Left	Yes	1.02433279999968	0	411312	251
804.380859375	2	health	foodImageDisplay	2	99	39	foodImage.112	FOODEEG_Images\0920.jpg	YN	Left	Yes	1.02433279999968	0	411844	252
806.443359375	1.02433279999968	health	choicePhaseStart	2	99	39	foodImage.112	FOODEEG_Images\0920.jpg	YN	Left	Yes	1.02433279999968	0	412900	253
807.458984375	0	health	response	2	99	39	foodImage.112	FOODEEG_Images\0920.jpg	YN	Left	Yes	1.02433279999968	0	413420	234
808.50390625	1	taste	trialStart	2	100	40	foodImage.101	FOODEEG_Images\0909.jpg	YN	Right	No	0.826544400000785	0	413955	251
809.544921875	2	taste	foodImageDisplay	2	100	40	foodImage.101	FOODEEG_Images\0909.jpg	YN	Right	No	0.826544400000785	0	414488	252
811.609375	0.826544400000785	taste	choicePhaseStart	2	100	40	foodImage.101	FOODEEG_Images\0909.jpg	YN	Right	No	0.826544400000785	0	415545	253
812.42578125	0	taste	response	2	100	40	foodImage.101	FOODEEG_Images\0909.jpg	YN	Right	No	0.826544400000785	0	415963	235
813.470703125	1	health	trialStart	2	101	41	foodImage.86	FOODEEG_Images\0844.jpg	YN	Right	No	0.821345199999996	0	416498	251
814.52734375	2	health	foodImageDisplay	2	101	41	foodImage.86	FOODEEG_Images\0844.jpg	YN	Right	No	0.821345199999996	0	417039	252
816.58984375	0.821345199999996	health	choicePhaseStart	2	101	41	foodImage.86	FOODEEG_Images\0844.jpg	YN	Right	No	0.821345199999996	0	418095	253
817.40234375	0	health	response	2	101	41	foodImage.86	FOODEEG_Images\0844.jpg	YN	Right	No	0.821345199999996	0	418511	235
818.4453125	1	taste	trialStart	2	102	42	foodImage.88	FOODEEG_Images\0878.jpg	YN	Left	Yes	0.80027329999939	0	419045	251
819.5	2	taste	foodImageDisplay	2	102	42	foodImage.88	FOODEEG_Images\0878.jpg	YN	Left	Yes	0.80027329999939	0	419585	252
821.5625	0.80027329999939	taste	choicePhaseStart	2	102	42	foodImage.88	FOODEEG_Images\0878.jpg	YN	Left	Yes	0.80027329999939	0	420641	253
822.353515625	0	taste	response	2	102	42	foodImage.88	FOODEEG_Images\0878.jpg	YN	Left	Yes	0.80027329999939	0	421046	234
823.396484375	1	decision	trialStart	2	103	43	foodImage.46	FOODEEG_Images\0479.jpg	YN	Left	Yes	0.659846200000175	0	421580	251
824.455078125	2	decision	foodImageDisplay	2	103	43	foodImage.46	FOODEEG_Images\0479.jpg	YN	Left	Yes	0.659846200000175	0	422122	252
826.51953125	0.659846200000175	decision	choicePhaseStart	2	103	43	foodImage.46	FOODEEG_Images\0479.jpg	YN	Left	Yes	0.659846200000175	0	423179	253
827.169921875	0	decision	response	2	103	43	foodImage.46	FOODEEG_Images\0479.jpg	YN	Left	Yes	0.659846200000175	0	423512	234
828.212890625	1	taste	trialStart	2	104	44	foodImage.6	FOODEEG_Images\0113.jpg	NY	Right	Yes	1.26611390000107	0	424046	251
829.255859375	2	taste	foodImageDisplay	2	104	44	foodImage.6	FOODEEG_Images\0113.jpg	NY	Right	Yes	1.26611390000107	0	424580	252
831.3203125	1.26611390000107	taste	choicePhaseStart	2	104	44	foodImage.6	FOODEEG_Images\0113.jpg	NY	Right	Yes	1.26611390000107	0	425637	253
832.578125	0	taste	response	2	104	44	foodImage.6	FOODEEG_Images\0113.jpg	NY	Right	Yes	1.26611390000107	0	426281	235
833.623046875	1	health	trialStart	2	105	45	foodImage.10	FOODEEG_Images\0145.jpg	NY	Left	No	1.00011040000027	0	426816	251
834.68359375	2	health	foodImageDisplay	2	105	45	foodImage.10	FOODEEG_Images\0145.jpg	NY	Left	No	1.00011040000027	0	427359	252
836.74609375	1.00011040000027	health	choicePhaseStart	2	105	45	foodImage.10	FOODEEG_Images\0145.jpg	NY	Left	No	1.00011040000027	0	428415	253
837.73828125	0	health	response	2	105	45	foodImage.10	FOODEEG_Images\0145.jpg	NY	Left	No	1.00011040000027	0	428923	234
838.779296875	1	taste	trialStart	2	106	46	foodImage.15	FOODEEG_Images\0189.jpg	YN	Left	Yes	0.860992899999474	0	429456	251
839.859375	2	taste	foodImageDisplay	2	106	46	foodImage.15	FOODEEG_Images\0189.jpg	YN	Left	Yes	0.860992899999474	0	430009	252
841.923828125	0.860992899999474	taste	choicePhaseStart	2	106	46	foodImage.15	FOODEEG_Images\0189.jpg	YN	Left	Yes	0.860992899999474	0	431066	253
842.77734375	0	taste	response	2	106	46	foodImage.15	FOODEEG_Images\0189.jpg	YN	Left	Yes	0.860992899999474	0	431503	234
843.830078125	1	taste	trialStart	2	107	47	foodImage.48	FOODEEG_Images\0494.jpg	YN	Left	Yes	0.90754460000062	0	432042	251
844.873046875	2	taste	foodImageDisplay	2	107	47	foodImage.48	FOODEEG_Images\0494.jpg	YN	Left	Yes	0.90754460000062	0	432576	252
846.935546875	0.90754460000062	taste	choicePhaseStart	2	107	47	foodImage.48	FOODEEG_Images\0494.jpg	YN	Left	Yes	0.90754460000062	0	433632	253
847.833984375	0	taste	response	2	107	47	foodImage.48	FOODEEG_Images\0494.jpg	YN	Left	Yes	0.90754460000062	0	434092	234
848.876953125	1	decision	trialStart	2	108	48	foodImage.117	FOODEEG_Images\0925.jpg	YN	Left	Yes	0.727608399998644	0	434626	251
849.921875	2	decision	foodImageDisplay	2	108	48	foodImage.117	FOODEEG_Images\0925.jpg	YN	Left	Yes	0.727608399998644	0	435161	252
851.986328125	0.727608399998644	decision	choicePhaseStart	2	108	48	foodImage.117	FOODEEG_Images\0925.jpg	YN	Left	Yes	0.727608399998644	0	436218	253
852.705078125	0	decision	response	2	108	48	foodImage.117	FOODEEG_Images\0925.jpg	YN	Left	Yes	0.727608399998644	0	436586	234
853.74609375	1	decision	trialStart	2	109	49	foodImage.49	FOODEEG_Images\0515.jpg	YN	Left	Yes	1.2921996999994	0	437119	251
854.7890625	2	decision	foodImageDisplay	2	109	49	foodImage.49	FOODEEG_Images\0515.jpg	YN	Left	Yes	1.2921996999994	0	437653	252
856.853515625	1.2921996999994	decision	choicePhaseStart	2	109	49	foodImage.49	FOODEEG_Images\0515.jpg	YN	Left	Yes	1.2921996999994	0	438710	253
858.13671875	0	decision	response	2	109	49	foodImage.49	FOODEEG_Images\0515.jpg	YN	Left	Yes	1.2921996999994	0	439367	234
859.1796875	1	decision	trialStart	2	110	50	foodImage.111	FOODEEG_Images\0919.jpg	NY	Right	Yes	0.813437300001169	0	439901	251
860.21875	2	decision	foodImageDisplay	2	110	50	foodImage.111	FOODEEG_Images\0919.jpg	NY	Right	Yes	0.813437300001169	0	440433	252
862.28515625	0.813437300001169	decision	choicePhaseStart	2	110	50	foodImage.111	FOODEEG_Images\0919.jpg	NY	Right	Yes	0.813437300001169	0	441491	253
863.087890625	0	decision	response	2	110	50	foodImage.111	FOODEEG_Images\0919.jpg	NY	Right	Yes	0.813437300001169	0	441902	235
864.1328125	1	taste	trialStart	2	111	51	foodImage.53	FOODEEG_Images\0547.jpg	YN	Right	No	1.54359329999897	0	442437	251
865.1875	2	taste	foodImageDisplay	2	111	51	foodImage.53	FOODEEG_Images\0547.jpg	YN	Right	No	1.54359329999897	0	442977	252
867.25	1.54359329999897	taste	choicePhaseStart	2	111	51	foodImage.53	FOODEEG_Images\0547.jpg	YN	Right	No	1.54359329999897	0	444033	253
868.78515625	0	taste	response	2	111	51	foodImage.53	FOODEEG_Images\0547.jpg	YN	Right	No	1.54359329999897	0	444819	235
869.82421875	1	decision	trialStart	2	112	52	foodImage.57	FOODEEG_Images\0587.jpg	NY	Left	No	1.62456639999982	0	445351	251
870.888671875	2	decision	foodImageDisplay	2	112	52	foodImage.57	FOODEEG_Images\0587.jpg	NY	Left	No	1.62456639999982	0	445896	252
872.951171875	1.62456639999982	decision	choicePhaseStart	2	112	52	foodImage.57	FOODEEG_Images\0587.jpg	NY	Left	No	1.62456639999982	0	446952	253
874.568359375	0	decision	response	2	112	52	foodImage.57	FOODEEG_Images\0587.jpg	NY	Left	No	1.62456639999982	0	447780	234
875.609375	1	taste	trialStart	2	113	53	foodImage.105	FOODEEG_Images\0913.jpg	NY	Left	No	0.731652800001029	0	448313	251
876.646484375	2	taste	foodImageDisplay	2	113	53	foodImage.105	FOODEEG_Images\0913.jpg	NY	Left	No	0.731652800001029	0	448844	252
878.7109375	0.731652800001029	taste	choicePhaseStart	2	113	53	foodImage.105	FOODEEG_Images\0913.jpg	NY	Left	No	0.731652800001029	0	449901	253
879.431640625	0	taste	response	2	113	53	foodImage.105	FOODEEG_Images\0913.jpg	NY	Left	No	0.731652800001029	0	450270	234
880.474609375	1	health	trialStart	2	114	54	foodImage.36	FOODEEG_Images\0352.jpg	NY	Right	Yes	1.32267169999977	0	450804	251
881.533203125	2	health	foodImageDisplay	2	114	54	foodImage.36	FOODEEG_Images\0352.jpg	NY	Right	Yes	1.32267169999977	0	451346	252
883.595703125	1.32267169999977	health	choicePhaseStart	2	114	54	foodImage.36	FOODEEG_Images\0352.jpg	NY	Right	Yes	1.32267169999977	0	452402	253
884.912109375	0	health	response	2	114	54	foodImage.36	FOODEEG_Images\0352.jpg	NY	Right	Yes	1.32267169999977	0	453076	235
885.955078125	1	decision	trialStart	2	115	55	foodImage.107	FOODEEG_Images\0915.jpg	NY	Right	Yes	0.646875099999306	0	453610	251
886.994140625	2	decision	foodImageDisplay	2	115	55	foodImage.107	FOODEEG_Images\0915.jpg	NY	Right	Yes	0.646875099999306	0	454142	252
889.05859375	0.646875099999306	decision	choicePhaseStart	2	115	55	foodImage.107	FOODEEG_Images\0915.jpg	NY	Right	Yes	0.646875099999306	0	455199	253
889.6953125	0	decision	response	2	115	55	foodImage.107	FOODEEG_Images\0915.jpg	NY	Right	Yes	0.646875099999306	0	455525	235
890.736328125	1	decision	trialStart	2	116	56	foodImage.66	FOODEEG_Images\0676.jpg	NY	Right	Yes	2.29892850000033	0	456058	251
891.7890625	2	decision	foodImageDisplay	2	116	56	foodImage.66	FOODEEG_Images\0676.jpg	NY	Right	Yes	2.29892850000033	0	456597	252
893.853515625	2.29892850000033	decision	choicePhaseStart	2	116	56	foodImage.66	FOODEEG_Images\0676.jpg	NY	Right	Yes	2.29892850000033	0	457654	253
896.142578125	0	decision	response	2	116	56	foodImage.66	FOODEEG_Images\0676.jpg	NY	Right	Yes	2.29892850000033	0	458826	235
897.185546875	1	taste	trialStart	2	117	57	foodImage.78	FOODEEG_Images\0787.jpg	YN	Left	Yes	0.884632799999963	0	459360	251
898.23046875	2	taste	foodImageDisplay	2	117	57	foodImage.78	FOODEEG_Images\0787.jpg	YN	Left	Yes	0.884632799999963	0	459895	252
900.29296875	0.884632799999963	taste	choicePhaseStart	2	117	57	foodImage.78	FOODEEG_Images\0787.jpg	YN	Left	Yes	0.884632799999963	0	460951	253
901.16796875	0	taste	response	2	117	57	foodImage.78	FOODEEG_Images\0787.jpg	YN	Left	Yes	0.884632799999963	0	461399	234
902.2109375	1	decision	trialStart	2	118	58	foodImage.80	FOODEEG_Images\0796.jpg	YN	Left	Yes	0.708174999999756	0	461933	251
903.267578125	2	decision	foodImageDisplay	2	118	58	foodImage.80	FOODEEG_Images\0796.jpg	YN	Left	Yes	0.708174999999756	0	462474	252
905.33203125	0.708174999999756	decision	choicePhaseStart	2	118	58	foodImage.80	FOODEEG_Images\0796.jpg	YN	Left	Yes	0.708174999999756	0	463531	253
906.03125	0	decision	response	2	118	58	foodImage.80	FOODEEG_Images\0796.jpg	YN	Left	Yes	0.708174999999756	0	463889	234
907.072265625	1	health	trialStart	2	119	59	foodImage.109	FOODEEG_Images\0917.jpg	NY	Left	No	1.73721070000101	0	464422	251
908.111328125	2	health	foodImageDisplay	2	119	59	foodImage.109	FOODEEG_Images\0917.jpg	NY	Left	No	1.73721070000101	0	464954	252
910.173828125	1.73721070000101	health	choicePhaseStart	2	119	59	foodImage.109	FOODEEG_Images\0917.jpg	NY	Left	No	1.73721070000101	0	466010	253
911.90234375	0	health	response	2	119	59	foodImage.109	FOODEEG_Images\0917.jpg	NY	Left	No	1.73721070000101	0	466895	234
912.9453125	1	decision	trialStart	2	120	60	foodImage.68	FOODEEG_Images\0685.jpg	NY	Right	Yes	1.7413736999988	0	467429	251
914.01953125	2	decision	foodImageDisplay	2	120	60	foodImage.68	FOODEEG_Images\0685.jpg	NY	Right	Yes	1.7413736999988	0	467979	252
916.08203125	1.7413736999988	decision	choicePhaseStart	2	120	60	foodImage.68	FOODEEG_Images\0685.jpg	NY	Right	Yes	1.7413736999988	0	469035	253
917.814453125	0	decision	response	2	120	60	foodImage.68	FOODEEG_Images\0685.jpg	NY	Right	Yes	1.7413736999988	0	469922	235
919.85546875	14.986328125	n/a	blockEnd	n/a	n/a	n/a	n/a	n/a	n/a	n/a	n/a	n/a	n/a	470967	254
934.841796875	2	n/a	blockStart	3	n/a	n/a	n/a	n/a	n/a	n/a	n/a	n/a	n/a	478640	250
936.884765625	1	health	trialStart	3	121	1	foodImage.72	FOODEEG_Images\0714.jpg	YN	Left	Yes	1.06790510000064	0	479686	251
937.931640625	2	health	foodImageDisplay	3	121	1	foodImage.72	FOODEEG_Images\0714.jpg	YN	Left	Yes	1.06790510000064	0	480222	252
939.994140625	1.06790510000064	health	choicePhaseStart	3	121	1	foodImage.72	FOODEEG_Images\0714.jpg	YN	Left	Yes	1.06790510000064	0	481278	253
941.052734375	0	health	response	3	121	1	foodImage.72	FOODEEG_Images\0714.jpg	YN	Left	Yes	1.06790510000064	0	481820	234
942.095703125	1	decision	trialStart	3	122	2	foodImage.14	FOODEEG_Images\0188.jpg	NY	Right	Yes	0.772325400001137	0	482354	251
943.154296875	2	decision	foodImageDisplay	3	122	2	foodImage.14	FOODEEG_Images\0188.jpg	NY	Right	Yes	0.772325400001137	0	482896	252
945.21875	0.772325400001137	decision	choicePhaseStart	3	122	2	foodImage.14	FOODEEG_Images\0188.jpg	NY	Right	Yes	0.772325400001137	0	483953	253
945.98046875	0	decision	response	3	122	2	foodImage.14	FOODEEG_Images\0188.jpg	NY	Right	Yes	0.772325400001137	0	484343	235
947.029296875	1	decision	trialStart	3	123	3	foodImage.51	FOODEEG_Images\0536.jpg	NY	Right	Yes	1.15118970000003	0	484880	251
948.076171875	2	decision	foodImageDisplay	3	123	3	foodImage.51	FOODEEG_Images\0536.jpg	NY	Right	Yes	1.15118970000003	0	485416	252
950.140625	1.15118970000003	decision	choicePhaseStart	3	123	3	foodImage.51	FOODEEG_Images\0536.jpg	NY	Right	Yes	1.15118970000003	0	486473	253
951.28515625	0	decision	response	3	123	3	foodImage.51	FOODEEG_Images\0536.jpg	NY	Right	Yes	1.15118970000003	0	487059	235
952.32421875	1	taste	trialStart	3	124	4	foodImage.61	FOODEEG_Images\0640.jpg	YN	Left	Yes	0.605536500001108	0	487591	251
953.365234375	2	taste	foodImageDisplay	3	124	4	foodImage.61	FOODEEG_Images\0640.jpg	YN	Left	Yes	0.605536500001108	0	488124	252
955.4296875	0.605536500001108	taste	choicePhaseStart	3	124	4	foodImage.61	FOODEEG_Images\0640.jpg	YN	Left	Yes	0.605536500001108	0	489181	253
956.029296875	0	taste	response	3	124	4	foodImage.61	FOODEEG_Images\0640.jpg	YN	Left	Yes	0.605536500001108	0	489488	234
957.0703125	1	taste	trialStart	3	125	5	foodImage.9	FOODEEG_Images\0138.jpg	YN	Left	Yes	0.956340099999579	0	490021	251
958.126953125	2	taste	foodImageDisplay	3	125	5	foodImage.9	FOODEEG_Images\0138.jpg	YN	Left	Yes	0.956340099999579	0	490562	252
960.19140625	0.956340099999579	taste	choicePhaseStart	3	125	5	foodImage.9	FOODEEG_Images\0138.jpg	YN	Left	Yes	0.956340099999579	0	491619	253
961.140625	0	taste	response	3	125	5	foodImage.9	FOODEEG_Images\0138.jpg	YN	Left	Yes	0.956340099999579	0	492105	234
962.18359375	1	decision	trialStart	3	126	6	foodImage.8	FOODEEG_Images\0136.jpg	NY	Right	Yes	0.660601800000222	0	492639	251
963.224609375	2	decision	foodImageDisplay	3	126	6	foodImage.8	FOODEEG_Images\0136.jpg	NY	Right	Yes	0.660601800000222	0	493172	252
965.2890625	0.660601800000222	decision	choicePhaseStart	3	126	6	foodImage.8	FOODEEG_Images\0136.jpg	NY	Right	Yes	0.660601800000222	0	494229	253
965.939453125	0	decision	response	3	126	6	foodImage.8	FOODEEG_Images\0136.jpg	NY	Right	Yes	0.660601800000222	0	494562	235
966.984375	1	decision	trialStart	3	127	7	foodImage.44	FOODEEG_Images\0459.jpg	NY	Right	Yes	0.671407199999521	0	495097	251
968.02734375	2	decision	foodImageDisplay	3	127	7	foodImage.44	FOODEEG_Images\0459.jpg	NY	Right	Yes	0.671407199999521	0	495631	252
970.091796875	0.671407199999521	decision	choicePhaseStart	3	127	7	foodImage.44	FOODEEG_Images\0459.jpg	NY	Right	Yes	0.671407199999521	0	496688	253
970.755859375	0	decision	response	3	127	7	foodImage.44	FOODEEG_Images\0459.jpg	NY	Right	Yes	0.671407199999521	0	497028	235
971.798828125	1	taste	trialStart	3	128	8	foodImage.43	FOODEEG_Images\0445.jpg	YN	Left	Yes	0.673336300000301	0	497562	251
972.857421875	2	taste	foodImageDisplay	3	128	8	foodImage.43	FOODEEG_Images\0445.jpg	YN	Left	Yes	0.673336300000301	0	498104	252
974.921875	0.673336300000301	taste	choicePhaseStart	3	128	8	foodImage.43	FOODEEG_Images\0445.jpg	YN	Left	Yes	0.673336300000301	0	499161	253
975.587890625	0	taste	response	3	128	8	foodImage.43	FOODEEG_Images\0445.jpg	YN	Left	Yes	0.673336300000301	0	499502	234
976.630859375	1	decision	trialStart	3	129	9	foodImage.55	FOODEEG_Images\0567.jpg	YN	Left	Yes	0.76191000000108	0	500036	251
977.69140625	2	decision	foodImageDisplay	3	129	9	foodImage.55	FOODEEG_Images\0567.jpg	YN	Left	Yes	0.76191000000108	0	500579	252
979.755859375	0.76191000000108	decision	choicePhaseStart	3	129	9	foodImage.55	FOODEEG_Images\0567.jpg	YN	Left	Yes	0.76191000000108	0	501636	253
980.5078125	0	decision	response	3	129	9	foodImage.55	FOODEEG_Images\0567.jpg	YN	Left	Yes	0.76191000000108	0	502021	234
981.55078125	1	health	trialStart	3	130	10	foodImage.74	FOODEEG_Images\0752.jpg	YN	Left	Yes	1.84398680000049	0	502555	251
982.6015625	2	health	foodImageDisplay	3	130	10	foodImage.74	FOODEEG_Images\0752.jpg	YN	Left	Yes	1.84398680000049	0	503093	252
984.666015625	1.84398680000049	health	choicePhaseStart	3	130	10	foodImage.74	FOODEEG_Images\0752.jpg	YN	Left	Yes	1.84398680000049	0	504150	253
986.5	0	health	response	3	130	10	foodImage.74	FOODEEG_Images\0752.jpg	YN	Left	Yes	1.84398680000049	0	505089	234
987.54296875	1	decision	trialStart	3	131	11	foodImage.33	FOODEEG_Images\0329.jpg	NY	Right	Yes	1.34436839999944	0	505623	251
988.5859375	2	decision	foodImageDisplay	3	131	11	foodImage.33	FOODEEG_Images\0329.jpg	NY	Right	Yes	1.34436839999944	0	506157	252
990.65234375	1.34436839999944	decision	choicePhaseStart	3	131	11	foodImage.33	FOODEEG_Images\0329.jpg	NY	Right	Yes	1.34436839999944	0	507215	253
991.98828125	0	decision	response	3	131	11	foodImage.33	FOODEEG_Images\0329.jpg	NY	Right	Yes	1.34436839999944	0	507899	235
993.029296875	1	taste	trialStart	3	132	12	foodImage.8	FOODEEG_Images\0136.jpg	NY	Right	Yes	1.28543979999995	0	508432	251
994.0703125	2	taste	foodImageDisplay	3	132	12	foodImage.8	FOODEEG_Images\0136.jpg	NY	Right	Yes	1.28543979999995	0	508965	252
996.134765625	1.28543979999995	taste	choicePhaseStart	3	132	12	foodImage.8	FOODEEG_Images\0136.jpg	NY	Right	Yes	1.28543979999995	0	510022	253
997.412109375	0	taste	response	3	132	12	foodImage.8	FOODEEG_Images\0136.jpg	NY	Right	Yes	1.28543979999995	0	510676	235
998.455078125	1	taste	trialStart	3	133	13	foodImage.107	FOODEEG_Images\0915.jpg	NY	Right	Yes	0.831118399999468	0	511210	251
999.4921875	2	taste	foodImageDisplay	3	133	13	foodImage.107	FOODEEG_Images\0915.jpg	NY	Right	Yes	0.831118399999468	0	511741	252
1001.556640625	0.831118399999468	taste	choicePhaseStart	3	133	13	foodImage.107	FOODEEG_Images\0915.jpg	NY	Right	Yes	0.831118399999468	0	512798	253
1002.37890625	0	taste	response	3	133	13	foodImage.107	FOODEEG_Images\0915.jpg	NY	Right	Yes	0.831118399999468	0	513219	235
1003.421875	1	decision	trialStart	3	134	14	foodImage.109	FOODEEG_Images\0917.jpg	NY	Right	Yes	0.822795099998984	0	513753	251
1004.458984375	2	decision	foodImageDisplay	3	134	14	foodImage.109	FOODEEG_Images\0917.jpg	NY	Right	Yes	0.822795099998984	0	514284	252
1006.525390625	0.822795099998984	decision	choicePhaseStart	3	134	14	foodImage.109	FOODEEG_Images\0917.jpg	NY	Right	Yes	0.822795099998984	0	515342	253
1007.33984375	0	decision	response	3	134	14	foodImage.109	FOODEEG_Images\0917.jpg	NY	Right	Yes	0.822795099998984	0	515759	235
1008.3828125	1	taste	trialStart	3	135	15	foodImage.10	FOODEEG_Images\0145.jpg	NY	Left	No	1.43619510000099	0	516293	251
1009.44140625	2	taste	foodImageDisplay	3	135	15	foodImage.10	FOODEEG_Images\0145.jpg	NY	Left	No	1.43619510000099	0	516835	252
1011.50390625	1.43619510000099	taste	choicePhaseStart	3	135	15	foodImage.10	FOODEEG_Images\0145.jpg	NY	Left	No	1.43619510000099	0	517891	253
1012.931640625	0	taste	response	3	135	15	foodImage.10	FOODEEG_Images\0145.jpg	NY	Left	No	1.43619510000099	0	518622	234
1013.97265625	1	taste	trialStart	3	136	16	foodImage.64	FOODEEG_Images\0647.jpg	NY	Right	Yes	0.698669600000358	0	519155	251
1015.03125	2	taste	foodImageDisplay	3	136	16	foodImage.64	FOODEEG_Images\0647.jpg	NY	Right	Yes	0.698669600000358	0	519697	252
1017.095703125	0.698669600000358	taste	choicePhaseStart	3	136	16	foodImage.64	FOODEEG_Images\0647.jpg	NY	Right	Yes	0.698669600000358	0	520754	253
1017.787109375	0	taste	response	3	136	16	foodImage.64	FOODEEG_Images\0647.jpg	NY	Right	Yes	0.698669600000358	0	521108	235
1018.833984375	1	health	trialStart	3	137	17	foodImage.101	FOODEEG_Images\0909.jpg	NY	Right	Yes	0.947197499999675	0	521644	251
1019.888671875	2	health	foodImageDisplay	3	137	17	foodImage.101	FOODEEG_Images\0909.jpg	NY	Right	Yes	0.947197499999675	0	522184	252
1021.953125	0.947197499999675	health	choicePhaseStart	3	137	17	foodImage.101	FOODEEG_Images\0909.jpg	NY	Right	Yes	0.947197499999675	0	523241	253
1022.890625	0	health	response	3	137	17	foodImage.101	FOODEEG_Images\0909.jpg	NY	Right	Yes	0.947197499999675	0	523721	235
1023.931640625	1	taste	trialStart	3	138	18	foodImage.34	FOODEEG_Images\0339.jpg	NY	Right	Yes	1.48945029999959	0	524254	251
1024.986328125	2	taste	foodImageDisplay	3	138	18	foodImage.34	FOODEEG_Images\0339.jpg	NY	Right	Yes	1.48945029999959	0	524794	252
1027.05078125	1.48945029999959	taste	choicePhaseStart	3	138	18	foodImage.34	FOODEEG_Images\0339.jpg	NY	Right	Yes	1.48945029999959	0	525851	253
1028.529296875	0	taste	response	3	138	18	foodImage.34	FOODEEG_Images\0339.jpg	NY	Right	Yes	1.48945029999959	0	526608	235
1029.5703125	1	health	trialStart	3	139	19	foodImage.61	FOODEEG_Images\0640.jpg	YN	Left	Yes	1.23016600000119	0	527141	251
1030.611328125	2	health	foodImageDisplay	3	139	19	foodImage.61	FOODEEG_Images\0640.jpg	YN	Left	Yes	1.23016600000119	0	527674	252
1032.67578125	1.23016600000119	health	choicePhaseStart	3	139	19	foodImage.61	FOODEEG_Images\0640.jpg	YN	Left	Yes	1.23016600000119	0	528731	253
1033.8984375	0	health	response	3	139	19	foodImage.61	FOODEEG_Images\0640.jpg	YN	Left	Yes	1.23016600000119	0	529357	234
1034.94140625	1	health	trialStart	3	140	20	foodImage.92	FOODEEG_Images\0900.jpg	YN	Left	Yes	1.04874610000115	0	529891	251
1035.978515625	2	health	foodImageDisplay	3	140	20	foodImage.92	FOODEEG_Images\0900.jpg	YN	Left	Yes	1.04874610000115	0	530422	252
1038.04296875	1.04874610000115	health	choicePhaseStart	3	140	20	foodImage.92	FOODEEG_Images\0900.jpg	YN	Left	Yes	1.04874610000115	0	531479	253
1039.08203125	0	health	response	3	140	20	foodImage.92	FOODEEG_Images\0900.jpg	YN	Left	Yes	1.04874610000115	0	532011	234
1040.125	1	taste	trialStart	3	141	21	foodImage.35	FOODEEG_Images\0350.jpg	YN	Left	Yes	0.791348200000357	0	532545	251
1041.1640625	2	taste	foodImageDisplay	3	141	21	foodImage.35	FOODEEG_Images\0350.jpg	YN	Left	Yes	0.791348200000357	0	533077	252
1043.232421875	0.791348200000357	taste	choicePhaseStart	3	141	21	foodImage.35	FOODEEG_Images\0350.jpg	YN	Left	Yes	0.791348200000357	0	534136	253
1044.017578125	0	taste	response	3	141	21	foodImage.35	FOODEEG_Images\0350.jpg	YN	Left	Yes	0.791348200000357	0	534538	234
1045.060546875	1	health	trialStart	3	142	22	foodImage.78	FOODEEG_Images\0787.jpg	YN	Left	Yes	0.633307000000059	0	535072	251
1046.103515625	2	health	foodImageDisplay	3	142	22	foodImage.78	FOODEEG_Images\0787.jpg	YN	Left	Yes	0.633307000000059	0	535606	252
1048.169921875	0.633307000000059	health	choicePhaseStart	3	142	22	foodImage.78	FOODEEG_Images\0787.jpg	YN	Left	Yes	0.633307000000059	0	536664	253
1048.79296875	0	health	response	3	142	22	foodImage.78	FOODEEG_Images\0787.jpg	YN	Left	Yes	0.633307000000059	0	536983	234
1049.8359375	1	health	trialStart	3	143	23	foodImage.68	FOODEEG_Images\0685.jpg	YN	Left	Yes	0.54576840000118	0	537517	251
1050.9140625	2	health	foodImageDisplay	3	143	23	foodImage.68	FOODEEG_Images\0685.jpg	YN	Left	Yes	0.54576840000118	0	538069	252
1052.9765625	0.54576840000118	health	choicePhaseStart	3	143	23	foodImage.68	FOODEEG_Images\0685.jpg	YN	Left	Yes	0.54576840000118	0	539125	253
1053.513671875	0	health	response	3	143	23	foodImage.68	FOODEEG_Images\0685.jpg	YN	Left	Yes	0.54576840000118	0	539400	234
1054.5546875	1	health	trialStart	3	144	24	foodImage.95	FOODEEG_Images\0903.jpg	NY	Left	No	0.82661840000037	0	539933	251
1055.609375	2	health	foodImageDisplay	3	144	24	foodImage.95	FOODEEG_Images\0903.jpg	NY	Left	No	0.82661840000037	0	540473	252
1057.677734375	0.82661840000037	health	choicePhaseStart	3	144	24	foodImage.95	FOODEEG_Images\0903.jpg	NY	Left	No	0.82661840000037	0	541532	253
1058.49609375	0	health	response	3	144	24	foodImage.95	FOODEEG_Images\0903.jpg	NY	Left	No	0.82661840000037	0	541951	234
1059.537109375	1	taste	trialStart	3	145	25	foodImage.66	FOODEEG_Images\0676.jpg	NY	Right	Yes	0.768905000000814	0	542484	251
1060.578125	2	taste	foodImageDisplay	3	145	25	foodImage.66	FOODEEG_Images\0676.jpg	NY	Right	Yes	0.768905000000814	0	543017	252
1062.640625	0.768905000000814	taste	choicePhaseStart	3	145	25	foodImage.66	FOODEEG_Images\0676.jpg	NY	Right	Yes	0.768905000000814	0	544073	253
1063.400390625	0	taste	response	3	145	25	foodImage.66	FOODEEG_Images\0676.jpg	NY	Right	Yes	0.768905000000814	0	544462	235
1064.4453125	1	decision	trialStart	3	146	26	foodImage.26	FOODEEG_Images\0262.jpg	YN	Left	Yes	0.984180400000696	0	544997	251
1065.48828125	2	decision	foodImageDisplay	3	146	26	foodImage.26	FOODEEG_Images\0262.jpg	YN	Left	Yes	0.984180400000696	0	545531	252
1067.552734375	0.984180400000696	decision	choicePhaseStart	3	146	26	foodImage.26	FOODEEG_Images\0262.jpg	YN	Left	Yes	0.984180400000696	0	546588	253
1068.529296875	0	decision	response	3	146	26	foodImage.26	FOODEEG_Images\0262.jpg	YN	Left	Yes	0.984180400000696	0	547088	234
1069.572265625	1	decision	trialStart	3	147	27	foodImage.30	FOODEEG_Images\0282.jpg	YN	Left	Yes	0.758459500000754	0	547622	251
1070.61328125	2	decision	foodImageDisplay	3	147	27	foodImage.30	FOODEEG_Images\0282.jpg	YN	Left	Yes	0.758459500000754	0	548155	252
1072.681640625	0.758459500000754	decision	choicePhaseStart	3	147	27	foodImage.30	FOODEEG_Images\0282.jpg	YN	Left	Yes	0.758459500000754	0	549214	253
1073.431640625	0	decision	response	3	147	27	foodImage.30	FOODEEG_Images\0282.jpg	YN	Left	Yes	0.758459500000754	0	549598	234
1074.4765625	1	decision	trialStart	3	148	28	foodImage.47	FOODEEG_Images\0488.jpg	NY	Right	Yes	0.677160000001095	0	550133	251
1075.53515625	2	decision	foodImageDisplay	3	148	28	foodImage.47	FOODEEG_Images\0488.jpg	NY	Right	Yes	0.677160000001095	0	550675	252
1077.6015625	0.677160000001095	decision	choicePhaseStart	3	148	28	foodImage.47	FOODEEG_Images\0488.jpg	NY	Right	Yes	0.677160000001095	0	551733	253
1078.271484375	0	decision	response	3	148	28	foodImage.47	FOODEEG_Images\0488.jpg	NY	Right	Yes	0.677160000001095	0	552076	235
1079.314453125	1	health	trialStart	3	149	29	foodImage.67	FOODEEG_Images\0679.jpg	YN	Left	Yes	2.12380300000041	0	552610	251
1080.373046875	2	health	foodImageDisplay	3	149	29	foodImage.67	FOODEEG_Images\0679.jpg	YN	Left	Yes	2.12380300000041	0	553152	252
1082.4375	2.12380300000041	health	choicePhaseStart	3	149	29	foodImage.67	FOODEEG_Images\0679.jpg	YN	Left	Yes	2.12380300000041	0	554209	253
1084.55078125	0	health	response	3	149	29	foodImage.67	FOODEEG_Images\0679.jpg	YN	Left	Yes	2.12380300000041	0	555291	234
1085.595703125	1	health	trialStart	3	150	30	foodImage.102	FOODEEG_Images\0910.jpg	YN	Right	No	0.777782999999545	0	555826	251
1086.640625	2	health	foodImageDisplay	3	150	30	foodImage.102	FOODEEG_Images\0910.jpg	YN	Right	No	0.777782999999545	0	556361	252
1088.703125	0.777782999999545	health	choicePhaseStart	3	150	30	foodImage.102	FOODEEG_Images\0910.jpg	YN	Right	No	0.777782999999545	0	557417	253
1089.470703125	0	health	response	3	150	30	foodImage.102	FOODEEG_Images\0910.jpg	YN	Right	No	0.777782999999545	0	557810	235
1090.513671875	1	decision	trialStart	3	151	31	foodImage.100	FOODEEG_Images\0908.jpg	NY	Left	No	1.56852759999856	0	558344	251
1091.552734375	2	decision	foodImageDisplay	3	151	31	foodImage.100	FOODEEG_Images\0908.jpg	NY	Left	No	1.56852759999856	0	558876	252
1093.6171875	1.56852759999856	decision	choicePhaseStart	3	151	31	foodImage.100	FOODEEG_Images\0908.jpg	NY	Left	No	1.56852759999856	0	559933	253
1095.17578125	0	decision	response	3	151	31	foodImage.100	FOODEEG_Images\0908.jpg	NY	Left	No	1.56852759999856	0	560731	234
1096.21875	1	taste	trialStart	3	152	32	foodImage.59	FOODEEG_Images\0607.jpg	NY	Right	Yes	0.938660199999504	0	561265	251
1097.265625	2	taste	foodImageDisplay	3	152	32	foodImage.59	FOODEEG_Images\0607.jpg	NY	Right	Yes	0.938660199999504	0	561801	252
1099.333984375	0.938660199999504	taste	choicePhaseStart	3	152	32	foodImage.59	FOODEEG_Images\0607.jpg	NY	Right	Yes	0.938660199999504	0	562860	253
1100.263671875	0	taste	response	3	152	32	foodImage.59	FOODEEG_Images\0607.jpg	NY	Right	Yes	0.938660199999504	0	563336	235
1101.30859375	1	decision	trialStart	3	153	33	foodImage.93	FOODEEG_Images\0901.jpg	YN	Right	No	2.35808709999947	0	563871	251
1102.34765625	2	decision	foodImageDisplay	3	153	33	foodImage.93	FOODEEG_Images\0901.jpg	YN	Right	No	2.35808709999947	0	564403	252
1104.41015625	2.35808709999947	decision	choicePhaseStart	3	153	33	foodImage.93	FOODEEG_Images\0901.jpg	YN	Right	No	2.35808709999947	0	565459	253
1106.759765625	0	decision	response	3	153	33	foodImage.93	FOODEEG_Images\0901.jpg	YN	Right	No	2.35808709999947	0	566662	235
1107.80078125	1	decision	trialStart	3	154	34	foodImage.87	FOODEEG_Images\0873.jpg	YN	Right	No	0.721124299998337	0	567195	251
1108.85546875	2	decision	foodImageDisplay	3	154	34	foodImage.87	FOODEEG_Images\0873.jpg	YN	Right	No	0.721124299998337	0	567735	252
1110.91796875	0.721124299998337	decision	choicePhaseStart	3	154	34	foodImage.87	FOODEEG_Images\0873.jpg	YN	Right	No	0.721124299998337	0	568791	253
1111.630859375	0	decision	response	3	154	34	foodImage.87	FOODEEG_Images\0873.jpg	YN	Right	No	0.721124299998337	0	569156	235
1112.677734375	1	health	trialStart	3	155	35	foodImage.43	FOODEEG_Images\0445.jpg	NY	Right	Yes	0.871893499999715	0	569692	251
1113.736328125	2	health	foodImageDisplay	3	155	35	foodImage.43	FOODEEG_Images\0445.jpg	NY	Right	Yes	0.871893499999715	0	570234	252
1115.80078125	0.871893499999715	health	choicePhaseStart	3	155	35	foodImage.43	FOODEEG_Images\0445.jpg	NY	Right	Yes	0.871893499999715	0	571291	253
1116.662109375	0	health	response	3	155	35	foodImage.43	FOODEEG_Images\0445.jpg	NY	Right	Yes	0.871893499999715	0	571732	235
1117.703125	1	taste	trialStart	3	156	36	foodImage.85	FOODEEG_Images\0841.jpg	NY	Right	Yes	1.14305950000016	0	572265	251
1118.76171875	2	taste	foodImageDisplay	3	156	36	foodImage.85	FOODEEG_Images\0841.jpg	NY	Right	Yes	1.14305950000016	0	572807	252
1120.82421875	1.14305950000016	taste	choicePhaseStart	3	156	36	foodImage.85	FOODEEG_Images\0841.jpg	NY	Right	Yes	1.14305950000016	0	573863	253
1121.958984375	0	taste	response	3	156	36	foodImage.85	FOODEEG_Images\0841.jpg	NY	Right	Yes	1.14305950000016	0	574444	235
1123	1	decision	trialStart	3	157	37	foodImage.27	FOODEEG_Images\0263.jpg	YN	Left	Yes	0.761907000000065	0	574977	251
1124.044921875	2	decision	foodImageDisplay	3	157	37	foodImage.27	FOODEEG_Images\0263.jpg	YN	Left	Yes	0.761907000000065	0	575512	252
1126.109375	0.761907000000065	decision	choicePhaseStart	3	157	37	foodImage.27	FOODEEG_Images\0263.jpg	YN	Left	Yes	0.761907000000065	0	576569	253
1126.861328125	0	decision	response	3	157	37	foodImage.27	FOODEEG_Images\0263.jpg	YN	Left	Yes	0.761907000000065	0	576954	234
1127.90625	1	taste	trialStart	3	158	38	foodImage.12	FOODEEG_Images\0181.jpg	NY	Right	Yes	1.43316129999948	0	577489	251
1128.947265625	2	taste	foodImageDisplay	3	158	38	foodImage.12	FOODEEG_Images\0181.jpg	NY	Right	Yes	1.43316129999948	0	578022	252
1131.013671875	1.43316129999948	taste	choicePhaseStart	3	158	38	foodImage.12	FOODEEG_Images\0181.jpg	NY	Right	Yes	1.43316129999948	0	579080	253
1132.4375	0	taste	response	3	158	38	foodImage.12	FOODEEG_Images\0181.jpg	NY	Right	Yes	1.43316129999948	0	579809	235
1133.48046875	1	decision	trialStart	3	159	39	foodImage.98	FOODEEG_Images\0906.jpg	YN	Right	No	1.53523419999874	0	580343	251
1134.517578125	2	decision	foodImageDisplay	3	159	39	foodImage.98	FOODEEG_Images\0906.jpg	YN	Right	No	1.53523419999874	0	580874	252
1136.58203125	1.53523419999874	decision	choicePhaseStart	3	159	39	foodImage.98	FOODEEG_Images\0906.jpg	YN	Right	No	1.53523419999874	0	581931	253
1138.109375	0	decision	response	3	159	39	foodImage.98	FOODEEG_Images\0906.jpg	YN	Right	No	1.53523419999874	0	582713	235
1139.150390625	1	decision	trialStart	3	160	40	foodImage.71	FOODEEG_Images\0713.jpg	NY	Right	Yes	0.572896499999842	0	583246	251
1140.1953125	2	decision	foodImageDisplay	3	160	40	foodImage.71	FOODEEG_Images\0713.jpg	NY	Right	Yes	0.572896499999842	0	583781	252
1142.259765625	0.572896499999842	decision	choicePhaseStart	3	160	40	foodImage.71	FOODEEG_Images\0713.jpg	NY	Right	Yes	0.572896499999842	0	584838	253
1142.822265625	0	decision	response	3	160	40	foodImage.71	FOODEEG_Images\0713.jpg	NY	Right	Yes	0.572896499999842	0	585126	235
1143.8671875	1	health	trialStart	3	161	41	foodImage.119	FOODEEG_Images\0927.jpg	YN	Left	Yes	2.78268810000009	0	585661	251
1144.904296875	2	health	foodImageDisplay	3	161	41	foodImage.119	FOODEEG_Images\0927.jpg	YN	Left	Yes	2.78268810000009	0	586192	252
1146.966796875	2.78268810000009	health	choicePhaseStart	3	161	41	foodImage.119	FOODEEG_Images\0927.jpg	YN	Left	Yes	2.78268810000009	0	587248	253
1149.740234375	0	health	response	3	161	41	foodImage.119	FOODEEG_Images\0927.jpg	YN	Left	Yes	2.78268810000009	0	588668	234
1150.783203125	1	taste	trialStart	3	162	42	foodImage.99	FOODEEG_Images\0907.jpg	YN	Right	No	0.990339099998891	0	589202	251
1151.82421875	2	taste	foodImageDisplay	3	162	42	foodImage.99	FOODEEG_Images\0907.jpg	YN	Right	No	0.990339099998891	0	589735	252
1153.88671875	0.990339099998891	taste	choicePhaseStart	3	162	42	foodImage.99	FOODEEG_Images\0907.jpg	YN	Right	No	0.990339099998891	0	590791	253
1154.869140625	0	taste	response	3	162	42	foodImage.99	FOODEEG_Images\0907.jpg	YN	Right	No	0.990339099998891	0	591294	235
1155.9140625	1	decision	trialStart	3	163	43	foodImage.24	FOODEEG_Images\0250.jpg	YN	Left	Yes	0.912362400000347	0	591829	251
1156.95703125	2	decision	foodImageDisplay	3	163	43	foodImage.24	FOODEEG_Images\0250.jpg	YN	Left	Yes	0.912362400000347	0	592363	252
1159.021484375	0.912362400000347	decision	choicePhaseStart	3	163	43	foodImage.24	FOODEEG_Images\0250.jpg	YN	Left	Yes	0.912362400000347	0	593420	253
1159.923828125	0	decision	response	3	163	43	foodImage.24	FOODEEG_Images\0250.jpg	YN	Left	Yes	0.912362400000347	0	593882	234
1160.970703125	1	decision	trialStart	3	164	44	foodImage.110	FOODEEG_Images\0918.jpg	YN	Left	Yes	1.74540209999941	0	594418	251
1162.009765625	2	decision	foodImageDisplay	3	164	44	foodImage.110	FOODEEG_Images\0918.jpg	YN	Left	Yes	1.74540209999941	0	594950	252
1164.07421875	1.74540209999941	decision	choicePhaseStart	3	164	44	foodImage.110	FOODEEG_Images\0918.jpg	YN	Left	Yes	1.74540209999941	0	596007	253
1165.8125	0	decision	response	3	164	44	foodImage.110	FOODEEG_Images\0918.jpg	YN	Left	Yes	1.74540209999941	0	596897	234
1166.85546875	1	taste	trialStart	3	165	45	foodImage.46	FOODEEG_Images\0479.jpg	YN	Left	Yes	1.1410747000009	0	597431	251
1167.912109375	2	taste	foodImageDisplay	3	165	45	foodImage.46	FOODEEG_Images\0479.jpg	YN	Left	Yes	1.1410747000009	0	597972	252
1169.9765625	1.1410747000009	taste	choicePhaseStart	3	165	45	foodImage.46	FOODEEG_Images\0479.jpg	YN	Left	Yes	1.1410747000009	0	599029	253
1171.109375	0	taste	response	3	165	45	foodImage.46	FOODEEG_Images\0479.jpg	YN	Left	Yes	1.1410747000009	0	599609	234
1172.15234375	1	health	trialStart	3	166	46	foodImage.75	FOODEEG_Images\0763.jpg	NY	Right	Yes	1.16446440000072	0	600143	251
1173.19921875	2	health	foodImageDisplay	3	166	46	foodImage.75	FOODEEG_Images\0763.jpg	NY	Right	Yes	1.16446440000072	0	600679	252
1175.265625	1.16446440000072	health	choicePhaseStart	3	166	46	foodImage.75	FOODEEG_Images\0763.jpg	NY	Right	Yes	1.16446440000072	0	601737	253
1176.419921875	0	health	response	3	166	46	foodImage.75	FOODEEG_Images\0763.jpg	NY	Right	Yes	1.16446440000072	0	602328	235
1177.46484375	1	decision	trialStart	3	167	47	foodImage.88	FOODEEG_Images\0878.jpg	YN	Left	Yes	0.629426000001331	0	602863	251
1178.521484375	2	decision	foodImageDisplay	3	167	47	foodImage.88	FOODEEG_Images\0878.jpg	YN	Left	Yes	0.629426000001331	0	603404	252
1180.583984375	0.629426000001331	decision	choicePhaseStart	3	167	47	foodImage.88	FOODEEG_Images\0878.jpg	YN	Left	Yes	0.629426000001331	0	604460	253
1181.203125	0	decision	response	3	167	47	foodImage.88	FOODEEG_Images\0878.jpg	YN	Left	Yes	0.629426000001331	0	604777	234
1182.2578125	1	taste	trialStart	3	168	48	foodImage.28	FOODEEG_Images\0273.jpg	YN	Right	No	0.935787500000515	0	605317	251
1183.302734375	2	taste	foodImageDisplay	3	168	48	foodImage.28	FOODEEG_Images\0273.jpg	YN	Right	No	0.935787500000515	0	605852	252
1185.365234375	0.935787500000515	taste	choicePhaseStart	3	168	48	foodImage.28	FOODEEG_Images\0273.jpg	YN	Right	No	0.935787500000515	0	606908	253
1186.291015625	0	taste	response	3	168	48	foodImage.28	FOODEEG_Images\0273.jpg	YN	Right	No	0.935787500000515	0	607382	235
1187.333984375	1	health	trialStart	3	169	49	foodImage.54	FOODEEG_Images\0560.jpg	NY	Right	Yes	1.34031839999989	0	607916	251
1188.392578125	2	health	foodImageDisplay	3	169	49	foodImage.54	FOODEEG_Images\0560.jpg	NY	Right	Yes	1.34031839999989	0	608458	252
1190.45703125	1.34031839999989	health	choicePhaseStart	3	169	49	foodImage.54	FOODEEG_Images\0560.jpg	NY	Right	Yes	1.34031839999989	0	609515	253
1191.787109375	0	health	response	3	169	49	foodImage.54	FOODEEG_Images\0560.jpg	NY	Right	Yes	1.34031839999989	0	610196	235
1192.830078125	1	taste	trialStart	3	170	50	foodImage.49	FOODEEG_Images\0515.jpg	YN	Left	Yes	0.647073000000091	0	610730	251
1193.873046875	2	taste	foodImageDisplay	3	170	50	foodImage.49	FOODEEG_Images\0515.jpg	YN	Left	Yes	0.647073000000091	0	611264	252
1195.94140625	0.647073000000091	taste	choicePhaseStart	3	170	50	foodImage.49	FOODEEG_Images\0515.jpg	YN	Left	Yes	0.647073000000091	0	612323	253
1196.580078125	0	taste	response	3	170	50	foodImage.49	FOODEEG_Images\0515.jpg	YN	Left	Yes	0.647073000000091	0	612650	234
1197.623046875	1	taste	trialStart	3	171	51	foodImage.63	FOODEEG_Images\0645.jpg	YN	Left	Yes	0.626204300000609	0	613184	251
1198.666015625	2	taste	foodImageDisplay	3	171	51	foodImage.63	FOODEEG_Images\0645.jpg	YN	Left	Yes	0.626204300000609	0	613718	252
1200.73046875	0.626204300000609	taste	choicePhaseStart	3	171	51	foodImage.63	FOODEEG_Images\0645.jpg	YN	Left	Yes	0.626204300000609	0	614775	253
1201.34765625	0	taste	response	3	171	51	foodImage.63	FOODEEG_Images\0645.jpg	YN	Left	Yes	0.626204300000609	0	615091	234
1202.388671875	1	health	trialStart	3	172	52	foodImage.26	FOODEEG_Images\0262.jpg	YN	Left	Yes	0.838837499999499	0	615624	251
1203.431640625	2	health	foodImageDisplay	3	172	52	foodImage.26	FOODEEG_Images\0262.jpg	YN	Left	Yes	0.838837499999499	0	616158	252
1205.494140625	0.838837499999499	health	choicePhaseStart	3	172	52	foodImage.26	FOODEEG_Images\0262.jpg	YN	Left	Yes	0.838837499999499	0	617214	253
1206.322265625	0	health	response	3	172	52	foodImage.26	FOODEEG_Images\0262.jpg	YN	Left	Yes	0.838837499999499	0	617638	234
1207.365234375	1	health	trialStart	3	173	53	foodImage.33	FOODEEG_Images\0329.jpg	NY	Left	No	1.80723910000052	0	618172	251
1208.40625	2	health	foodImageDisplay	3	173	53	foodImage.33	FOODEEG_Images\0329.jpg	NY	Left	No	1.80723910000052	0	618705	252
1210.46875	1.80723910000052	health	choicePhaseStart	3	173	53	foodImage.33	FOODEEG_Images\0329.jpg	NY	Left	No	1.80723910000052	0	619761	253
1212.267578125	0	health	response	3	173	53	foodImage.33	FOODEEG_Images\0329.jpg	NY	Left	No	1.80723910000052	0	620682	234
1213.3125	1	decision	trialStart	3	174	54	foodImage.70	FOODEEG_Images\0705.jpg	NY	Right	Yes	1.7910152000004	0	621217	251
1214.37109375	2	decision	foodImageDisplay	3	174	54	foodImage.70	FOODEEG_Images\0705.jpg	NY	Right	Yes	1.7910152000004	0	621759	252
1216.43359375	1.7910152000004	decision	choicePhaseStart	3	174	54	foodImage.70	FOODEEG_Images\0705.jpg	NY	Right	Yes	1.7910152000004	0	622815	253
1218.21875	0	decision	response	3	174	54	foodImage.70	FOODEEG_Images\0705.jpg	NY	Right	Yes	1.7910152000004	0	623729	235
1219.26171875	1	decision	trialStart	3	175	55	foodImage.29	FOODEEG_Images\0278.jpg	NY	Left	No	2.3656260000007	0	624263	251
1220.306640625	2	decision	foodImageDisplay	3	175	55	foodImage.29	FOODEEG_Images\0278.jpg	NY	Left	No	2.3656260000007	0	624798	252
1222.37109375	2.3656260000007	decision	choicePhaseStart	3	175	55	foodImage.29	FOODEEG_Images\0278.jpg	NY	Left	No	2.3656260000007	0	625855	253
1224.73046875	0	decision	response	3	175	55	foodImage.29	FOODEEG_Images\0278.jpg	NY	Left	No	2.3656260000007	0	627063	234
1225.7734375	1	taste	trialStart	3	176	56	foodImage.102	FOODEEG_Images\0910.jpg	YN	Left	Yes	0.669175400000313	0	627597	251
1226.8125	2	taste	foodImageDisplay	3	176	56	foodImage.102	FOODEEG_Images\0910.jpg	YN	Left	Yes	0.669175400000313	0	628129	252
1228.875	0.669175400000313	taste	choicePhaseStart	3	176	56	foodImage.102	FOODEEG_Images\0910.jpg	YN	Left	Yes	0.669175400000313	0	629185	253
1229.537109375	0	taste	response	3	176	56	foodImage.102	FOODEEG_Images\0910.jpg	YN	Left	Yes	0.669175400000313	0	629524	234
1230.58203125	1	health	trialStart	3	177	57	foodImage.93	FOODEEG_Images\0901.jpg	NY	Left	No	1.7087776999997	0	630059	251
1231.62109375	2	health	foodImageDisplay	3	177	57	foodImage.93	FOODEEG_Images\0901.jpg	NY	Left	No	1.7087776999997	0	630591	252
1233.6875	1.7087776999997	health	choicePhaseStart	3	177	57	foodImage.93	FOODEEG_Images\0901.jpg	NY	Left	No	1.7087776999997	0	631649	253
1235.38671875	0	health	response	3	177	57	foodImage.93	FOODEEG_Images\0901.jpg	NY	Left	No	1.7087776999997	0	632519	234
1236.427734375	1	decision	trialStart	3	178	58	foodImage.106	FOODEEG_Images\0914.jpg	YN	Left	Yes	0.671913000000131	0	633052	251
1237.46875	2	decision	foodImageDisplay	3	178	58	foodImage.106	FOODEEG_Images\0914.jpg	YN	Left	Yes	0.671913000000131	0	633585	252
1239.53125	0.671913000000131	decision	choicePhaseStart	3	178	58	foodImage.106	FOODEEG_Images\0914.jpg	YN	Left	Yes	0.671913000000131	0	634641	253
1240.193359375	0	decision	response	3	178	58	foodImage.106	FOODEEG_Images\0914.jpg	YN	Left	Yes	0.671913000000131	0	634980	234
1241.236328125	1	health	trialStart	3	179	59	foodImage.107	FOODEEG_Images\0915.jpg	YN	Left	Yes	1.00789649999933	0	635514	251
1242.275390625	2	health	foodImageDisplay	3	179	59	foodImage.107	FOODEEG_Images\0915.jpg	YN	Left	Yes	1.00789649999933	0	636046	252
1244.33984375	1.00789649999933	health	choicePhaseStart	3	179	59	foodImage.107	FOODEEG_Images\0915.jpg	YN	Left	Yes	1.00789649999933	0	637103	253
1245.337890625	0	health	response	3	179	59	foodImage.107	FOODEEG_Images\0915.jpg	YN	Left	Yes	1.00789649999933	0	637614	234
1246.37890625	1	health	trialStart	3	180	60	foodImage.22	FOODEEG_Images\0236.jpg	YN	Left	Yes	1.08030220000001	0	638147	251
1247.419921875	2	health	foodImageDisplay	3	180	60	foodImage.22	FOODEEG_Images\0236.jpg	YN	Left	Yes	1.08030220000001	0	638680	252
1249.48828125	1.08030220000001	health	choicePhaseStart	3	180	60	foodImage.22	FOODEEG_Images\0236.jpg	YN	Left	Yes	1.08030220000001	0	639739	253
1250.560546875	0	health	response	3	180	60	foodImage.22	FOODEEG_Images\0236.jpg	YN	Left	Yes	1.08030220000001	0	640288	234
1252.603515625	17.125	n/a	blockEnd	n/a	n/a	n/a	n/a	n/a	n/a	n/a	n/a	n/a	n/a	641334	254
1269.728515625	2	n/a	blockStart	4	n/a	n/a	n/a	n/a	n/a	n/a	n/a	n/a	n/a	650102	250
1271.76171875	1	health	trialStart	4	181	1	foodImage.7	FOODEEG_Images\0116.jpg	YN	Right	No	0.821825699998953	0	651143	251
1272.8046875	2	health	foodImageDisplay	4	181	1	foodImage.7	FOODEEG_Images\0116.jpg	YN	Right	No	0.821825699998953	0	651677	252
1274.869140625	0.821825699998953	health	choicePhaseStart	4	181	1	foodImage.7	FOODEEG_Images\0116.jpg	YN	Right	No	0.821825699998953	0	652734	253
1275.6796875	0	health	response	4	181	1	foodImage.7	FOODEEG_Images\0116.jpg	YN	Right	No	0.821825699998953	0	653149	235
1276.72265625	1	decision	trialStart	4	182	2	foodImage.99	FOODEEG_Images\0907.jpg	YN	Left	Yes	2.13938410000083	0	653683	251
1277.759765625	2	decision	foodImageDisplay	4	182	2	foodImage.99	FOODEEG_Images\0907.jpg	YN	Left	Yes	2.13938410000083	0	654214	252
1279.830078125	2.13938410000083	decision	choicePhaseStart	4	182	2	foodImage.99	FOODEEG_Images\0907.jpg	YN	Left	Yes	2.13938410000083	0	655274	253
1281.958984375	0	decision	response	4	182	2	foodImage.99	FOODEEG_Images\0907.jpg	YN	Left	Yes	2.13938410000083	0	656364	234
1283.00390625	1	taste	trialStart	4	183	3	foodImage.83	FOODEEG_Images\0827.jpg	YN	Left	Yes	0.456654599998728	0	656899	251
1284.064453125	2	taste	foodImageDisplay	4	183	3	foodImage.83	FOODEEG_Images\0827.jpg	YN	Left	Yes	0.456654599998728	0	657442	252
1286.12890625	0.456654599998728	taste	choicePhaseStart	4	183	3	foodImage.83	FOODEEG_Images\0827.jpg	YN	Left	Yes	0.456654599998728	0	658499	253
1286.576171875	0	taste	response	4	183	3	foodImage.83	FOODEEG_Images\0827.jpg	YN	Left	Yes	0.456654599998728	0	658728	234
1287.62109375	1	health	trialStart	4	184	4	foodImage.53	FOODEEG_Images\0547.jpg	YN	Right	No	0.885515100000703	0	659263	251
1288.677734375	2	health	foodImageDisplay	4	184	4	foodImage.53	FOODEEG_Images\0547.jpg	YN	Right	No	0.885515100000703	0	659804	252
1290.740234375	0.885515100000703	health	choicePhaseStart	4	184	4	foodImage.53	FOODEEG_Images\0547.jpg	YN	Right	No	0.885515100000703	0	660860	253
1291.615234375	0	health	response	4	184	4	foodImage.53	FOODEEG_Images\0547.jpg	YN	Right	No	0.885515100000703	0	661308	235
1292.658203125	1	taste	trialStart	4	185	5	foodImage.109	FOODEEG_Images\0917.jpg	NY	Right	Yes	1.24706779999906	0	661842	251
1293.697265625	2	taste	foodImageDisplay	4	185	5	foodImage.109	FOODEEG_Images\0917.jpg	NY	Right	Yes	1.24706779999906	0	662374	252
1295.76171875	1.24706779999906	taste	choicePhaseStart	4	185	5	foodImage.109	FOODEEG_Images\0917.jpg	NY	Right	Yes	1.24706779999906	0	663431	253
1297	0	taste	response	4	185	5	foodImage.109	FOODEEG_Images\0917.jpg	NY	Right	Yes	1.24706779999906	0	664065	235
1298.04296875	1	health	trialStart	4	186	6	foodImage.113	FOODEEG_Images\0921.jpg	YN	Right	No	3.08769870000106	0	664599	251
1299.080078125	2	health	foodImageDisplay	4	186	6	foodImage.113	FOODEEG_Images\0921.jpg	YN	Right	No	3.08769870000106	0	665130	252
1301.14453125	3.08769870000106	health	choicePhaseStart	4	186	6	foodImage.113	FOODEEG_Images\0921.jpg	YN	Right	No	3.08769870000106	0	666187	253
1304.22265625	0	health	response	4	186	6	foodImage.113	FOODEEG_Images\0921.jpg	YN	Right	No	3.08769870000106	0	667763	235
1305.265625	1	health	trialStart	4	187	7	foodImage.111	FOODEEG_Images\0919.jpg	YN	Left	Yes	1.65014900000097	0	668297	251
1306.302734375	2	health	foodImageDisplay	4	187	7	foodImage.111	FOODEEG_Images\0919.jpg	YN	Left	Yes	1.65014900000097	0	668828	252
1308.3671875	1.65014900000097	health	choicePhaseStart	4	187	7	foodImage.111	FOODEEG_Images\0919.jpg	YN	Left	Yes	1.65014900000097	0	669885	253
1310.0078125	0	health	response	4	187	7	foodImage.111	FOODEEG_Images\0919.jpg	YN	Left	Yes	1.65014900000097	0	670725	234
1311.05078125	1	health	trialStart	4	188	8	foodImage.2	FOODEEG_Images\0028.jpg	YN	Right	No	0.860175599998911	0	671259	251
1312.091796875	2	health	foodImageDisplay	4	188	8	foodImage.2	FOODEEG_Images\0028.jpg	YN	Right	No	0.860175599998911	0	671792	252
1314.15625	0.860175599998911	health	choicePhaseStart	4	188	8	foodImage.2	FOODEEG_Images\0028.jpg	YN	Right	No	0.860175599998911	0	672849	253
1315.005859375	0	health	response	4	188	8	foodImage.2	FOODEEG_Images\0028.jpg	YN	Right	No	0.860175599998911	0	673284	235
1316.046875	1	taste	trialStart	4	189	9	foodImage.90	FOODEEG_Images\0890.jpg	NY	Right	Yes	0.825597400000333	0	673817	251
1317.103515625	2	taste	foodImageDisplay	4	189	9	foodImage.90	FOODEEG_Images\0890.jpg	NY	Right	Yes	0.825597400000333	0	674358	252
1319.166015625	0.825597400000333	taste	choicePhaseStart	4	189	9	foodImage.90	FOODEEG_Images\0890.jpg	NY	Right	Yes	0.825597400000333	0	675414	253
1319.982421875	0	taste	response	4	189	9	foodImage.90	FOODEEG_Images\0890.jpg	NY	Right	Yes	0.825597400000333	0	675832	235
1321.025390625	1	taste	trialStart	4	190	10	foodImage.33	FOODEEG_Images\0329.jpg	YN	Left	Yes	0.764751499998965	0	676366	251
1322.068359375	2	taste	foodImageDisplay	4	190	10	foodImage.33	FOODEEG_Images\0329.jpg	YN	Left	Yes	0.764751499998965	0	676900	252
1324.130859375	0.764751499998965	taste	choicePhaseStart	4	190	10	foodImage.33	FOODEEG_Images\0329.jpg	YN	Left	Yes	0.764751499998965	0	677956	253
1324.88671875	0	taste	response	4	190	10	foodImage.33	FOODEEG_Images\0329.jpg	YN	Left	Yes	0.764751499998965	0	678343	234
1325.9296875	1	decision	trialStart	4	191	11	foodImage.84	FOODEEG_Images\0830.jpg	YN	Left	Yes	0.737505299999611	0	678877	251
1326.98828125	2	decision	foodImageDisplay	4	191	11	foodImage.84	FOODEEG_Images\0830.jpg	YN	Left	Yes	0.737505299999611	0	679419	252
1329.052734375	0.737505299999611	decision	choicePhaseStart	4	191	11	foodImage.84	FOODEEG_Images\0830.jpg	YN	Left	Yes	0.737505299999611	0	680476	253
1329.783203125	0	decision	response	4	191	11	foodImage.84	FOODEEG_Images\0830.jpg	YN	Left	Yes	0.737505299999611	0	680850	234
1330.82421875	1	taste	trialStart	4	192	12	foodImage.39	FOODEEG_Images\0367.jpg	YN	Left	Yes	1.15929169999981	0	681383	251
1331.865234375	2	taste	foodImageDisplay	4	192	12	foodImage.39	FOODEEG_Images\0367.jpg	YN	Left	Yes	1.15929169999981	0	681916	252
1333.927734375	1.15929169999981	taste	choicePhaseStart	4	192	12	foodImage.39	FOODEEG_Images\0367.jpg	YN	Left	Yes	1.15929169999981	0	682972	253
1335.078125	0	taste	response	4	192	12	foodImage.39	FOODEEG_Images\0367.jpg	YN	Left	Yes	1.15929169999981	0	683561	234
1336.12109375	1	health	trialStart	4	193	13	foodImage.63	FOODEEG_Images\0645.jpg	YN	Right	No	1.12903509999887	0	684095	251
1337.162109375	2	health	foodImageDisplay	4	193	13	foodImage.63	FOODEEG_Images\0645.jpg	YN	Right	No	1.12903509999887	0	684628	252
1339.23046875	1.12903509999887	health	choicePhaseStart	4	193	13	foodImage.63	FOODEEG_Images\0645.jpg	YN	Right	No	1.12903509999887	0	685687	253
1340.349609375	0	health	response	4	193	13	foodImage.63	FOODEEG_Images\0645.jpg	YN	Right	No	1.12903509999887	0	686260	235
1341.39453125	1	health	trialStart	4	194	14	foodImage.16	FOODEEG_Images\0196.jpg	YN	Left	Yes	0.583092599999873	0	686795	251
1342.453125	2	health	foodImageDisplay	4	194	14	foodImage.16	FOODEEG_Images\0196.jpg	YN	Left	Yes	0.583092599999873	0	687337	252
