onset	duration	trial_type	event_type	block	trial_total	trial_in_block	food_image_code	food_image_path	button_position	resp_position	resp_choice	choice_rt	resp_too_slow	sample	trigger
180.345703125	2	n/a	blockStart	1	n/a	n/a	n/a		YN	n/a	n/a	n/a	n/a	92338	250
182.37890625	1	taste	trialStart	1	1	1	foodImage.46	FOODEEG_Images\0479.jpg	NY	Right	Yes	1.07836209999959	0	93379	251
183.439453125	2	taste	foodImageDisplay	1	1	1	foodImage.46	FOODEEG_Images\0479.jpg	NY	Right	Yes	1.07836209999959	0	93922	252
185.50390625	1.07836209999959	taste	choicePhaseStart	1	1	1	foodImage.46	FOODEEG_Images\0479.jpg	NY	Right	Yes	1.07836209999959	0	94979	253
186.57421875	0	taste	response	1	1	1	foodImage.46	FOODEEG_Images\0479.jpg	NY	Right	Yes	1.07836209999959	0	95527	235
187.677734375	1	health	trialStart	1	2	2	foodImage.49	FOODEEG_Images\0515.jpg	NY	Right	Yes	0.903851799999757	0	96092	251
188.72265625	2	health	foodImageDisplay	1	2	2	foodImage.49	FOODEEG_Images\0515.jpg	NY	Right	Yes	0.903851799999757	0	96627	252
190.791015625	0.903851799999757	health	choicePhaseStart	1	2	2	foodImage.49	FOODEEG_Images\0515.jpg	NY	Right	Yes	0.903851799999757	0	97686	253
191.685546875	0	health	response	1	2	2	foodImage.49	FOODEEG_Images\0515.jpg	NY	Right	Yes	0.903851799999757	0	98144	235
192.7421875	1	decision	trialStart	1	3	3	foodImage.114	FOODEEG_Images\0922.jpg	NY	Left	No	0.912745500000256	0	98685	251
193.78125	2	decision	foodImageDisplay	1	3	3	foodImage.114	FOODEEG_Images\0922.jpg	NY	Left	No	0.912745500000256	0	99217	252
195.845703125	0.912745500000256	decision	choicePhaseStart	1	3	3	foodImage.114	FOODEEG_Images\0922.jpg	NY	Left	No	0.912745500000256	0	100274	253
196.75	0	decision	response	1	3	3	foodImage.114	FOODEEG_Images\0922.jpg	NY	Left	No	0.912745500000256	0	100737	234
197.79296875	1	taste	trialStart	1	4	4	foodImage.54	FOODEEG_Images\0560.jpg	NY	Right	Yes	0.850428400000055	0	101271	251
198.8515625	2	taste	foodImageDisplay	1	4	4	foodImage.54	FOODEEG_Images\0560.jpg	NY	Right	Yes	0.850428400000055	0	101813	252
200.919921875	0.850428400000055	taste	choicePhaseStart	1	4	4	foodImage.54	FOODEEG_Images\0560.jpg	NY	Right	Yes	0.850428400000055	0	102872	253
201.765625	0	taste	response	1	4	4	foodImage.54	FOODEEG_Images\0560.jpg	NY	Right	Yes	0.850428400000055	0	103305	235
202.810546875	1	health	trialStart	1	5	5	foodImage.98	FOODEEG_Images\0906.jpg	NY	Right	Yes	2.34298349999972	0	103840	251
203.853515625	2	health	foodImageDisplay	1	5	5	foodImage.98	FOODEEG_Images\0906.jpg	NY	Right	Yes	2.34298349999972	0	104374	252
205.923828125	2.34298349999972	health	choicePhaseStart	1	5	5	foodImage.98	FOODEEG_Images\0906.jpg	NY	Right	Yes	2.34298349999972	0	105434	253
208.26171875	0	health	response	1	5	5	foodImage.98	FOODEEG_Images\0906.jpg	NY	Right	Yes	2.34298349999972	0	106631	235
209.310546875	1	decision	trialStart	1	6	6	foodImage.61	FOODEEG_Images\0640.jpg	YN	Left	Yes	0.915773200000331	0	107168	251
210.353515625	2	decision	foodImageDisplay	1	6	6	foodImage.61	FOODEEG_Images\0640.jpg	YN	Left	Yes	0.915773200000331	0	107702	252
212.40234375	0.915773200000331	decision	choicePhaseStart	1	6	6	foodImage.61	FOODEEG_Images\0640.jpg	YN	Left	Yes	0.915773200000331	0	108751	253
213.318359375	0	decision	response	1	6	6	foodImage.61	FOODEEG_Images\0640.jpg	YN	Left	Yes	0.915773200000331	0	109220	234
214.361328125	1	decision	trialStart	1	7	7	foodImage.79	FOODEEG_Images\0794.jpg	NY	Right	Yes	0.935917399999198	0	109754	251
215.404296875	2	taste	foodImageDisplay	1	7	7	foodImage.79	FOODEEG_Images\0794.jpg	NY	Right	Yes	0.935917399999198	0	110288	252
217.46875	0.935917399999198	taste	choicePhaseStart	1	7	7	foodImage.79	FOODEEG_Images\0794.jpg	NY	Right	Yes	0.935917399999198	0	111345	253
218.3984375	0	taste	response	1	7	7	foodImage.79	FOODEEG_Images\0794.jpg	NY	Right	Yes	0.935917399999198	0	111821	235
219.443359375	1	decision	trialStart	1	8	8	foodImage.10	FOODEEG_Images\0145.jpg	YN	Left	Yes	0.88163429999986	0	112356	251
220.525390625	2	decision	foodImageDisplay	1	8	8	foodImage.10	FOODEEG_Images\0145.jpg	YN	Left	Yes	0.88163429999986	0	112910	252
222.57421875	0.88163429999986	decision	choicePhaseStart	1	8	8	foodImage.10	FOODEEG_Images\0145.jpg	YN	Left	Yes	0.88163429999986	0	113959	253
223.453125	0	decision	response	1	8	8	foodImage.10	FOODEEG_Images\0145.jpg	YN	Left	Yes	0.88163429999986	0	114409	234
224.49609375	1	decision	trialStart	1	9	9	foodImage.45	FOODEEG_Images\0478.jpg	YN	Left	Yes	0.79194969999935	0	114943	251
225.54296875	2	health	foodImageDisplay	1	9	9	foodImage.45	FOODEEG_Images\0478.jpg	YN	Left	Yes	0.79194969999935	0	115479	252
227.591796875	0.79194969999935	health	choicePhaseStart	1	9	9	foodImage.45	FOODEEG_Images\0478.jpg	YN	Left	Yes	0.79194969999935	0	116528	253
228.380859375	0	health	response	1	9	9	foodImage.45	FOODEEG_Images\0478.jpg	YN	Left	Yes	0.79194969999935	0	116932	234
229.421875	1	health	trialStart	1	10	10	foodImage.45	FOODEEG_Images\0478.jpg	YN	Left	Yes	0.90904909999972	0	117465	251
230.46484375	2	health	foodImageDisplay	1	10	10	foodImage.19	FOODEEG_Images\0225.jpg	YN	Left	Yes	0.90904909999972	0	117999	252
232.513671875	0.90904909999972	health	choicePhaseStart	1	10	10	foodImage.19	FOODEEG_Images\0225.jpg	YN	Left	Yes	0.90904909999972	0	119048	253
233.421875	0	health	response	1	10	10	foodImage.19	FOODEEG_Images\0225.jpg	YN	Left	Yes	0.90904909999972	0	119513	234
234.462890625	1	taste	trialStart	1	11	11	foodImage.36	FOODEEG_Images\0352.jpg	NY	Right	Yes	1.02220250000028	0	120046	251
235.51953125	2	taste	foodImageDisplay	1	11	11	foodImage.36	FOODEEG_Images\0352.jpg	NY	Right	Yes	1.02220250000028	0	120587	252
237.583984375	1.02220250000028	taste	choicePhaseStart	1	11	11	foodImage.36	FOODEEG_Images\0352.jpg	NY	Right	Yes	1.02220250000028	0	121644	253
238.59765625	0	taste	response	1	11	11	foodImage.36	FOODEEG_Images\0352.jpg	NY	Right	Yes	1.02220250000028	0	122163	235
239.640625	1	decision	trialStart	1	12	12	foodImage.59	FOODEEG_Images\0607.jpg	YN	Right	No	2.14509589999943	0	122697	251
240.693359375	2	decision	foodImageDisplay	1	12	12	foodImage.59	FOODEEG_Images\0607.jpg	YN	Right	No	2.14509589999943	0	123236	252
242.740234375	2.14509589999943	decision	choicePhaseStart	1	12	12	foodImage.59	FOODEEG_Images\0607.jpg	YN	Right	No	2.14509589999943	0	124284	253
244.884765625	0	decision	response	1	12	12	foodImage.59	FOODEEG_Images\0607.jpg	YN	Right	No	2.14509589999943	0	125382	235
245.92578125	1	decision	trialStart	1	13	13	foodImage.104	FOODEEG_Images\0912.jpg	NY	Left	No	0.82809189999989	0	125915	251
246.96484375	2	health	foodImageDisplay	1	13	13	foodImage.104	FOODEEG_Images\0912.jpg	NY	Left	No	0.82809189999989	0	126447	252
249.033203125	0.82809189999989	health	choicePhaseStart	1	13	13	foodImage.104	FOODEEG_Images\0912.jpg	NY	Left	No	0.82809189999989	0	127506	253
249.8515625	0	health	response	1	13	13	foodImage.104	FOODEEG_Images\0912.jpg	NY	Left	No	0.82809189999989	0	127925	234
250.896484375	1	taste	trialStart	1	14	14	foodImage.8	FOODEEG_Images\0136.jpg	YN	Right	No	1.18574319999971	0	128460	251
251.939453125	2	taste	foodImageDisplay	1	14	14	foodImage.8	FOODEEG_Images\0136.jpg	YN	Right	No	1.18574319999971	0	128994	252
253.98828125	1.18574319999971	taste	choicePhaseStart	1	14	14	foodImage.8	FOODEEG_Images\0136.jpg	YN	Right	No	1.18574319999971	0	130043	253
255.171875	0	taste	response	1	14	14	foodImage.8	FOODEEG_Images\0136.jpg	YN	Right	No	1.18574319999971	0	130649	235
256.21484375	1	taste	trialStart	1	15	15	foodImage.11	FOODEEG_Images\0180.jpg	YN	Left	Yes	0.953408200000013	0	131183	251
257.27734375	2	taste	foodImageDisplay	1	15	15	foodImage.11	FOODEEG_Images\0180.jpg	YN	Left	Yes	0.953408200000013	0	131727	252
259.326171875	0.953408200000013	taste	choicePhaseStart	1	15	15	foodImage.11	FOODEEG_Images\0180.jpg	YN	Left	Yes	0.953408200000013	0	132776	253
260.275390625	0	taste	response	1	15	15	foodImage.11	FOODEEG_Images\0180.jpg	YN	Left	Yes	0.953408200000013	0	133262	234
261.31640625	1	taste	trialStart	1	16	16	foodImage.21	FOODEEG_Images\0234.jpg	NY	Right	Yes	1.19474710000031	0	133795	251
262.384765625	2	health	foodImageDisplay	1	16	16	foodImage.21	FOODEEG_Images\0234.jpg	NY	Right	Yes	1.19474710000031	0	134342	252
264.447265625	1.19474710000031	health	choicePhaseStart	1	16	16	foodImage.21	FOODEEG_Images\0234.jpg	NY	Right	Yes	1.19474710000031	0	135398	253
265.634765625	0	health	response	1	16	16	foodImage.21	FOODEEG_Images\0234.jpg	NY	Right	Yes	1.19474710000031	0	136006	235
266.677734375	1	taste	trialStart	1	17	17	foodImage.58	FOODEEG_Images\0605.jpg	YN	Left	Yes	0.886151700000482	0	136540	251
267.734375	2	taste	foodImageDisplay	1	17	17	foodImage.58	FOODEEG_Images\0605.jpg	YN	Left	Yes	0.886151700000482	0	137081	252
269.783203125	0.886151700000482	taste	choicePhaseStart	1	17	17	foodImage.58	FOODEEG_Images\0605.jpg	YN	Left	Yes	0.886151700000482	0	138130	253
270.666015625	0	taste	response	1	17	17	foodImage.58	FOODEEG_Images\0605.jpg	YN	Left	Yes	0.886151700000482	0	138582	234
271.71484375	1	decision	trialStart	1	18	18	foodImage.58	FOODEEG_Images\0605.jpg	YN	Left	Yes	0.863753000000543	0	139119	251
272.7734375	2	decision	foodImageDisplay	1	18	18	foodImage.52	FOODEEG_Images\0539.jpg	YN	Left	Yes	0.863753000000543	0	139661	252
274.828125	0.863753000000543	decision	choicePhaseStart	1	18	18	foodImage.52	FOODEEG_Images\0539.jpg	YN	Left	Yes	0.863753000000543	0	140713	253
275.69140625	0	decision	response	1	18	18	foodImage.52	FOODEEG_Images\0539.jpg	YN	Left	Yes	0.863753000000543	0	141155	234
276.734375	1	decision	trialStart	1	19	19	foodImage.52	FOODEEG_Images\0539.jpg	YN	Left	Yes	0.713938099999723	0	141689	251
277.771484375	2	health	foodImageDisplay	1	19	19	foodImage.38	FOODEEG_Images\0365.jpg	YN	Left	Yes	0.713938099999723	0	142220	252
279.8203125	0.713938099999723	health	choicePhaseStart	1	19	19	foodImage.38	FOODEEG_Images\0365.jpg	YN	Left	Yes	0.713938099999723	0	143269	253
280.53125	0	health	response	1	19	19	foodImage.38	FOODEEG_Images\0365.jpg	YN	Left	Yes	0.713938099999723	0	143633	234
281.572265625	1	health	trialStart	1	20	20	foodImage.105	FOODEEG_Images\0913.jpg	NY	Left	No	1.15092559999994	0	144166	251
282.615234375	2	health	foodImageDisplay	1	20	20	foodImage.105	FOODEEG_Images\0913.jpg	NY	Left	No	1.15092559999994	0	144700	252
284.685546875	1.15092559999994	health	choicePhaseStart	1	20	20	foodImage.105	FOODEEG_Images\0913.jpg	NY	Left	No	1.15092559999994	0	145760	253
285.826171875	0	health	response	1	20	20	foodImage.105	FOODEEG_Images\0913.jpg	NY	Left	No	1.15092559999994	0	146344	234
286.87109375	1	taste	trialStart	1	21	21	foodImage.95	FOODEEG_Images\0903.jpg	YN	Right	No	0.937542100000428	0	146879	251
287.9140625	2	taste	foodImageDisplay	1	21	21	foodImage.95	FOODEEG_Images\0903.jpg	YN	Right	No	0.937542100000428	0	147413	252
289.962890625	0.937542100000428	taste	choicePhaseStart	1	21	21	foodImage.95	FOODEEG_Images\0903.jpg	YN	Right	No	0.937542100000428	0	148462	253
290.8984375	0	taste	response	1	21	21	foodImage.95	FOODEEG_Images\0903.jpg	YN	Right	No	0.937542100000428	0	148941	235
291.939453125	1	decision	trialStart	1	22	22	foodImage.96	FOODEEG_Images\0904.jpg	NY	Left	No	0.891412599999967	0	149474	251
292.9765625	2	decision	foodImageDisplay	1	22	22	foodImage.96	FOODEEG_Images\0904.jpg	NY	Left	No	0.891412599999967	0	150005	252
295.0390625	0.891412599999967	decision	choicePhaseStart	1	22	22	foodImage.96	FOODEEG_Images\0904.jpg	NY	Left	No	0.891412599999967	0	151061	253
295.921875	0	decision	response	1	22	22	foodImage.96	FOODEEG_Images\0904.jpg	NY	Left	No	0.891412599999967	0	151513	234
296.966796875	1	health	trialStart	1	23	23	foodImage.62	FOODEEG_Images\0644.jpg	YN	Left	Yes	0.822965400000612	0	152048	251
298.0234375	2	health	foodImageDisplay	1	23	23	foodImage.62	FOODEEG_Images\0644.jpg	YN	Left	Yes	0.822965400000612	0	152589	252
300.068359375	0.822965400000612	health	choicePhaseStart	1	23	23	foodImage.62	FOODEEG_Images\0644.jpg	YN	Left	Yes	0.822965400000612	0	153636	253
300.890625	0	health	response	1	23	23	foodImage.62	FOODEEG_Images\0644.jpg	YN	Left	Yes	0.822965400000612	0	154057	234
301.9296875	1	health	trialStart	1	24	24	foodImage.62	FOODEEG_Images\0644.jpg	YN	Left	Yes	0.936168199999884	0	154589	251
302.984375	2	health	foodImageDisplay	1	24	24	foodImage.46	FOODEEG_Images\0479.jpg	YN	Left	Yes	0.936168199999884	0	155129	252
305.029296875	0.936168199999884	health	choicePhaseStart	1	24	24	foodImage.46	FOODEEG_Images\0479.jpg	YN	Left	Yes	0.936168199999884	0	156176	253
305.9609375	0	health	response	1	24	24	foodImage.46	FOODEEG_Images\0479.jpg	YN	Left	Yes	0.936168199999884	0	156653	234
307.00390625	1	decision	trialStart	1	25	25	foodImage.46	FOODEEG_Images\0479.jpg	YN	Right	No	1.04904430000079	0	157187	251
308.044921875	2	decision	foodImageDisplay	1	25	25	foodImage.28	FOODEEG_Images\0273.jpg	YN	Right	No	1.04904430000079	0	157720	252
310.091796875	1.04904430000079	decision	choicePhaseStart	1	25	25	foodImage.28	FOODEEG_Images\0273.jpg	YN	Right	No	1.04904430000079	0	158768	253
311.13671875	0	decision	response	1	25	25	foodImage.28	FOODEEG_Images\0273.jpg	YN	Right	No	1.04904430000079	0	159303	235
312.17578125	1	decision	trialStart	1	26	26	foodImage.28	FOODEEG_Images\0273.jpg	YN	Left	Yes	1.53438660000029	0	159835	251
313.23046875	2	taste	foodImageDisplay	1	26	26	foodImage.14	FOODEEG_Images\0188.jpg	YN	Left	Yes	1.53438660000029	0	160375	252
315.27734375	1.53438660000029	taste	choicePhaseStart	1	26	26	foodImage.14	FOODEEG_Images\0188.jpg	YN	Left	Yes	1.53438660000029	0	161423	253
316.80859375	0	taste	response	1	26	26	foodImage.14	FOODEEG_Images\0188.jpg	YN	Left	Yes	1.53438660000029	0	162207	234
317.84765625	1	decision	trialStart	1	27	27	foodImage.115	FOODEEG_Images\0923.jpg	NY	Left	No	0.869709800000237	0	162739	251
318.884765625	2	decision	foodImageDisplay	1	27	27	foodImage.115	FOODEEG_Images\0923.jpg	NY	Left	No	0.869709800000237	0	163270	252
320.947265625	0.869709800000237	decision	choicePhaseStart	1	27	27	foodImage.115	FOODEEG_Images\0923.jpg	NY	Left	No	0.869709800000237	0	164326	253
321.80859375	0	decision	response	1	27	27	foodImage.115	FOODEEG_Images\0923.jpg	NY	Left	No	0.869709800000237	0	164767	234
322.8515625	1	health	trialStart	1	28	28	foodImage.78	FOODEEG_Images\0787.jpg	YN	Left	Yes	0.73217459999978	0	165301	251
323.896484375	2	health	foodImageDisplay	1	28	28	foodImage.78	FOODEEG_Images\0787.jpg	YN	Left	Yes	0.73217459999978	0	165836	252
325.943359375	0.73217459999978	health	choicePhaseStart	1	28	28	foodImage.78	FOODEEG_Images\0787.jpg	YN	Left	Yes	0.73217459999978	0	166884	253
326.671875	0	health	response	1	28	28	foodImage.78	FOODEEG_Images\0787.jpg	YN	Left	Yes	0.73217459999978	0	167257	234
327.716796875	1	decision	trialStart	1	29	29	foodImage.86	FOODEEG_Images\0844.jpg	NY	Right	Yes	0.978359800000362	0	167792	251
328.775390625	2	decision	foodImageDisplay	1	29	29	foodImage.86	FOODEEG_Images\0844.jpg	NY	Right	Yes	0.978359800000362	0	168334	252
330.83984375	0.978359800000362	decision	choicePhaseStart	1	29	29	foodImage.86	FOODEEG_Images\0844.jpg	NY	Right	Yes	0.978359800000362	0	169391	253
331.80859375	0	decision	response	1	29	29	foodImage.86	FOODEEG_Images\0844.jpg	NY	Right	Yes	0.978359800000362	0	169887	235
332.8515625	1	taste	trialStart	1	30	30	foodImage.6	FOODEEG_Images\0113.jpg	YN	Left	Yes	0.965837799999463	0	170421	251
333.89453125	2	taste	foodImageDisplay	1	30	30	foodImage.6	FOODEEG_Images\0113.jpg	YN	Left	Yes	0.965837799999463	0	170955	252
335.94140625	0.965837799999463	taste	choicePhaseStart	1	30	30	foodImage.6	FOODEEG_Images\0113.jpg	YN	Left	Yes	0.965837799999463	0	172003	253
336.904296875	0	taste	response	1	30	30	foodImage.6	FOODEEG_Images\0113.jpg	YN	Left	Yes	0.965837799999463	0	172496	234
337.9453125	1	decision	trialStart	1	31	31	foodImage.18	FOODEEG_Images\0202.jpg	YN	Left	Yes	0.751900500000374	0	173029	251
339.00390625	2	decision	foodImageDisplay	1	31	31	foodImage.18	FOODEEG_Images\0202.jpg	YN	Left	Yes	0.751900500000374	0	173571	252
341.05078125	0.751900500000374	decision	choicePhaseStart	1	31	31	foodImage.18	FOODEEG_Images\0202.jpg	YN	Left	Yes	0.751900500000374	0	174619	253
341.80078125	0	decision	response	1	31	31	foodImage.18	FOODEEG_Images\0202.jpg	YN	Left	Yes	0.751900500000374	0	175003	234
342.841796875	1	decision	trialStart	1	32	32	foodImage.36	FOODEEG_Images\0352.jpg	NY	Left	No	1.74065509999946	0	175536	251
343.92578125	2	health	foodImageDisplay	1	32	32	foodImage.36	FOODEEG_Images\0352.jpg	NY	Left	No	1.74065509999946	0	176091	252
345.98828125	1.74065509999946	health	choicePhaseStart	1	32	32	foodImage.36	FOODEEG_Images\0352.jpg	NY	Left	No	1.74065509999946	0	177147	253
347.720703125	0	health	response	1	32	32	foodImage.36	FOODEEG_Images\0352.jpg	NY	Left	No	1.74065509999946	0	178034	234
348.763671875	1	health	trialStart	1	33	33	foodImage.67	FOODEEG_Images\0679.jpg	NY	Left	No	1.26255690000016	0	178568	251
349.8203125	2	health	foodImageDisplay	1	33	33	foodImage.67	FOODEEG_Images\0679.jpg	NY	Left	No	1.26255690000016	0	179109	252
351.8828125	1.26255690000016	health	choicePhaseStart	1	33	33	foodImage.67	FOODEEG_Images\0679.jpg	NY	Left	No	1.26255690000016	0	180165	253
353.13671875	0	health	response	1	33	33	foodImage.67	FOODEEG_Images\0679.jpg	NY	Left	No	1.26255690000016	0	180807	234
354.173828125	1	health	trialStart	1	34	34	foodImage.113	FOODEEG_Images\0921.jpg	NY	Left	No	1.07068600000002	0	181338	251
355.212890625	2	health	foodImageDisplay	1	34	34	foodImage.113	FOODEEG_Images\0921.jpg	NY	Left	No	1.07068600000002	0	181870	252
357.2734375	1.07068600000002	health	choicePhaseStart	1	34	34	foodImage.113	FOODEEG_Images\0921.jpg	NY	Left	No	1.07068600000002	0	182925	253
358.3359375	0	health	response	1	34	34	foodImage.113	FOODEEG_Images\0921.jpg	NY	Left	No	1.07068600000002	0	183469	234
359.373046875	1	taste	trialStart	1	35	35	foodImage.94	FOODEEG_Images\0902.jpg	NY	Left	No	0.912069199999678	0	184000	251
360.41015625	2	taste	foodImageDisplay	1	35	35	foodImage.94	FOODEEG_Images\0902.jpg	NY	Left	No	0.912069199999678	0	184531	252
362.47265625	0.912069199999678	taste	choicePhaseStart	1	35	35	foodImage.94	FOODEEG_Images\0902.jpg	NY	Left	No	0.912069199999678	0	185587	253
363.375	0	taste	response	1	35	35	foodImage.94	FOODEEG_Images\0902.jpg	NY	Left	No	0.912069199999678	0	186049	234
364.41796875	1	decision	trialStart	1	36	36	foodImage.64	FOODEEG_Images\0647.jpg	YN	Left	Yes	0.879365400000097	0	186583	251
365.474609375	2	decision	foodImageDisplay	1	36	36	foodImage.64	FOODEEG_Images\0647.jpg	YN	Left	Yes	0.879365400000097	0	187124	252
367.5234375	0.879365400000097	decision	choicePhaseStart	1	36	36	foodImage.64	FOODEEG_Images\0647.jpg	YN	Left	Yes	0.879365400000097	0	188173	253
368.3984375	0	decision	response	1	36	36	foodImage.64	FOODEEG_Images\0647.jpg	YN	Left	Yes	0.879365400000097	0	188621	234
369.439453125	1	decision	trialStart	1	37	37	foodImage.101	FOODEEG_Images\0909.jpg	NY	Left	No	0.893604400000186	0	189154	251
370.478515625	2	decision	foodImageDisplay	1	37	37	foodImage.101	FOODEEG_Images\0909.jpg	NY	Left	No	0.893604400000186	0	189686	252
372.546875	0.893604400000186	decision	choicePhaseStart	1	37	37	foodImage.101	FOODEEG_Images\0909.jpg	NY	Left	No	0.893604400000186	0	190745	253
373.431640625	0	decision	response	1	37	37	foodImage.101	FOODEEG_Images\0909.jpg	NY	Left	No	0.893604400000186	0	191198	234
374.470703125	1	decision	trialStart	1	38	38	foodImage.19	FOODEEG_Images\0225.jpg	YN	Right	No	1.27031950000037	0	191730	251
375.513671875	2	decision	foodImageDisplay	1	38	38	foodImage.19	FOODEEG_Images\0225.jpg	YN	Right	No	1.27031950000037	0	192264	252
377.5625	1.27031950000037	decision	choicePhaseStart	1	38	38	foodImage.19	FOODEEG_Images\0225.jpg	YN	Right	No	1.27031950000037	0	193313	253
378.830078125	0	decision	response	1	38	38	foodImage.19	FOODEEG_Images\0225.jpg	YN	Right	No	1.27031950000037	0	193962	235
379.873046875	1	decision	trialStart	1	39	39	foodImage.81	FOODEEG_Images\0797.jpg	NY	Right	Yes	0.993787099999281	0	194496	251
380.931640625	2	decision	foodImageDisplay	1	39	39	foodImage.81	FOODEEG_Images\0797.jpg	NY	Right	Yes	0.993787099999281	0	195038	252
382.994140625	0.993787099999281	decision	choicePhaseStart	1	39	39	foodImage.81	FOODEEG_Images\0797.jpg	NY	Right	Yes	0.993787099999281	0	196094	253
383.982421875	0	decision	response	1	39	39	foodImage.81	FOODEEG_Images\0797.jpg	NY	Right	Yes	0.993787099999281	0	196600	235
385.0234375	1	taste	trialStart	1	40	40	foodImage.22	FOODEEG_Images\0236.jpg	YN	Left	Yes	1.15259090000018	0	197133	251
386.064453125	2	taste	foodImageDisplay	1	40	40	foodImage.22	FOODEEG_Images\0236.jpg	YN	Left	Yes	1.15259090000018	0	197666	252
388.11328125	1.15259090000018	taste	choicePhaseStart	1	40	40	foodImage.22	FOODEEG_Images\0236.jpg	YN	Left	Yes	1.15259090000018	0	198715	253
389.26171875	0	taste	response	1	40	40	foodImage.22	FOODEEG_Images\0236.jpg	YN	Left	Yes	1.15259090000018	0	199303	234
390.3046875	1	decision	trialStart	1	41	41	foodImage.22	FOODEEG_Images\0236.jpg	YN	Left	Yes	0.805843200000709	0	199837	251
391.36328125	2	decision	foodImageDisplay	1	41	41	foodImage.5	FOODEEG_Images\0107.jpg	YN	Left	Yes	0.805843200000709	0	200379	252
393.41015625	0.805843200000709	decision	choicePhaseStart	1	41	41	foodImage.5	FOODEEG_Images\0107.jpg	YN	Left	Yes	0.805843200000709	0	201427	253
394.21484375	0	decision	response	1	41	41	foodImage.5	FOODEEG_Images\0107.jpg	YN	Left	Yes	0.805843200000709	0	201839	234
395.255859375	1	decision	trialStart	1	42	42	foodImage.30	FOODEEG_Images\0282.jpg	YN	Left	Yes	0.792626899999959	0	202372	251
396.298828125	2	health	foodImageDisplay	1	42	42	foodImage.30	FOODEEG_Images\0282.jpg	YN	Left	Yes	0.792626899999959	0	202906	252
398.34375	0.792626899999959	health	choicePhaseStart	1	42	42	foodImage.30	FOODEEG_Images\0282.jpg	YN	Left	Yes	0.792626899999959	0	203953	253
399.134765625	0	health	response	1	42	42	foodImage.30	FOODEEG_Images\0282.jpg	YN	Left	Yes	0.792626899999959	0	204358	234
400.177734375	1	taste	trialStart	1	43	43	foodImage.67	FOODEEG_Images\0679.jpg	NY	Right	Yes	2.18013070000052	0	204892	251
401.234375	2	taste	foodImageDisplay	1	43	43	foodImage.67	FOODEEG_Images\0679.jpg	NY	Right	Yes	2.18013070000052	0	205433	252
403.298828125	2.18013070000052	taste	choicePhaseStart	1	43	43	foodImage.67	FOODEEG_Images\0679.jpg	NY	Right	Yes	2.18013070000052	0	206490	253
405.46875	0	taste	response	1	43	43	foodImage.67	FOODEEG_Images\0679.jpg	NY	Right	Yes	2.18013070000052	0	207601	235
406.517578125	1	health	trialStart	1	44	44	foodImage.87	FOODEEG_Images\0873.jpg	YN	Left	Yes	0.889334000000417	0	208138	251
407.57421875	2	health	foodImageDisplay	1	44	44	foodImage.87	FOODEEG_Images\0873.jpg	YN	Left	Yes	0.889334000000417	0	208679	252
409.623046875	0.889334000000417	health	choicePhaseStart	1	44	44	foodImage.87	FOODEEG_Images\0873.jpg	YN	Left	Yes	0.889334000000417	0	209728	253
410.509765625	0	health	response	1	44	44	foodImage.87	FOODEEG_Images\0873.jpg	YN	Left	Yes	0.889334000000417	0	210182	234
411.552734375	1	taste	trialStart	1	45	45	foodImage.110	FOODEEG_Images\0918.jpg	YN	Right	No	0.857826800000112	0	210716	251
412.58984375	2	taste	foodImageDisplay	1	45	45	foodImage.110	FOODEEG_Images\0918.jpg	YN	Right	No	0.857826800000112	0	211247	252
414.638671875	0.857826800000112	taste	choicePhaseStart	1	45	45	foodImage.110	FOODEEG_Images\0918.jpg	YN	Right	No	0.857826800000112	0	212296	253
415.4921875	0	taste	response	1	45	45	foodImage.110	FOODEEG_Images\0918.jpg	YN	Right	No	0.857826800000112	0	212733	235
416.541015625	1	taste	trialStart	1	46	46	foodImage.110	FOODEEG_Images\0918.jpg	YN	Left	Yes	2.21131310000055	0	213270	251
417.583984375	2	health	foodImageDisplay	1	46	46	foodImage.27	FOODEEG_Images\0263.jpg	YN	Left	Yes	2.21131310000055	0	213804	252
419.63671875	2.21131310000055	health	choicePhaseStart	1	46	46	foodImage.27	FOODEEG_Images\0263.jpg	YN	Left	Yes	2.21131310000055	0	214855	253
421.845703125	0	health	response	1	46	46	foodImage.27	FOODEEG_Images\0263.jpg	YN	Left	Yes	2.21131310000055	0	215986	234
422.88671875	1	health	trialStart	1	47	47	foodImage.28	FOODEEG_Images\0273.jpg	NY	Right	Yes	1.4177552000001	0	216519	251
423.9296875	2	health	foodImageDisplay	1	47	47	foodImage.28	FOODEEG_Images\0273.jpg	NY	Right	Yes	1.4177552000001	0	217053	252
425.994140625	1.4177552000001	health	choicePhaseStart	1	47	47	foodImage.28	FOODEEG_Images\0273.jpg	NY	Right	Yes	1.4177552000001	0	218110	253
427.404296875	0	health	response	1	47	47	foodImage.28	FOODEEG_Images\0273.jpg	NY	Right	Yes	1.4177552000001	0	218832	235
428.447265625	1	health	trialStart	1	48	48	foodImage.6	FOODEEG_Images\0113.jpg	YN	Right	No	1.35795710000002	0	219366	251
429.48828125	2	health	foodImageDisplay	1	48	48	foodImage.6	FOODEEG_Images\0113.jpg	YN	Right	No	1.35795710000002	0	219899	252
431.537109375	1.35795710000002	health	choicePhaseStart	1	48	48	foodImage.6	FOODEEG_Images\0113.jpg	YN	Right	No	1.35795710000002	0	220948	253
432.892578125	0	health	response	1	48	48	foodImage.6	FOODEEG_Images\0113.jpg	YN	Right	No	1.35795710000002	0	221642	235
433.93359375	1	taste	trialStart	1	49	49	foodImage.81	FOODEEG_Images\0797.jpg	NY	Right	Yes	0.94699589999982	0	222175	251
434.994140625	2	taste	foodImageDisplay	1	49	49	foodImage.81	FOODEEG_Images\0797.jpg	NY	Right	Yes	0.94699589999982	0	222718	252
437.05859375	0.94699589999982	taste	choicePhaseStart	1	49	49	foodImage.81	FOODEEG_Images\0797.jpg	NY	Right	Yes	0.94699589999982	0	223775	253
437.99609375	0	taste	response	1	49	49	foodImage.81	FOODEEG_Images\0797.jpg	NY	Right	Yes	0.94699589999982	0	224255	235
439.037109375	1	health	trialStart	1	50	50	foodImage.29	FOODEEG_Images\0278.jpg	NY	Right	Yes	1.00552289999996	0	224788	251
440.080078125	2	health	foodImageDisplay	1	50	50	foodImage.29	FOODEEG_Images\0278.jpg	NY	Right	Yes	1.00552289999996	0	225322	252
442.14453125	1.00552289999996	health	choicePhaseStart	1	50	50	foodImage.29	FOODEEG_Images\0278.jpg	NY	Right	Yes	1.00552289999996	0	226379	253
443.140625	0	health	response	1	50	50	foodImage.29	FOODEEG_Images\0278.jpg	NY	Right	Yes	1.00552289999996	0	226889	235
444.181640625	1	health	trialStart	1	51	51	foodImage.72	FOODEEG_Images\0714.jpg	YN	Left	Yes	1.25318580000021	0	227422	251
445.224609375	2	health	foodImageDisplay	1	51	51	foodImage.72	FOODEEG_Images\0714.jpg	YN	Left	Yes	1.25318580000021	0	227956	252
447.2734375	1.25318580000021	health	choicePhaseStart	1	51	51	foodImage.72	FOODEEG_Images\0714.jpg	YN	Left	Yes	1.25318580000021	0	229005	253
448.5234375	0	health	response	1	51	51	foodImage.72	FOODEEG_Images\0714.jpg	YN	Left	Yes	1.25318580000021	0	229645	234
449.56640625	1	taste	trialStart	1	52	52	foodImage.72	FOODEEG_Images\0714.jpg	YN	Left	Yes	0.949587000000065	0	230179	251
450.625	2	taste	foodImageDisplay	1	52	52	foodImage.64	FOODEEG_Images\0647.jpg	YN	Left	Yes	0.949587000000065	0	230721	252
452.673828125	0.949587000000065	taste	choicePhaseStart	1	52	52	foodImage.64	FOODEEG_Images\0647.jpg	YN	Left	Yes	0.949587000000065	0	231770	253
453.619140625	0	taste	response	1	52	52	foodImage.64	FOODEEG_Images\0647.jpg	YN	Left	Yes	0.949587000000065	0	232254	234
454.662109375	1	taste	trialStart	1	53	53	foodImage.64	FOODEEG_Images\0647.jpg	NY	Right	Yes	0.968419200000426	0	232788	251
455.708984375	2	taste	foodImageDisplay	1	53	53	foodImage.41	FOODEEG_Images\0409.jpg	NY	Right	Yes	0.968419200000426	0	233324	252
457.771484375	0.968419200000426	taste	choicePhaseStart	1	53	53	foodImage.41	FOODEEG_Images\0409.jpg	NY	Right	Yes	0.968419200000426	0	234380	253
458.73046875	0	taste	response	1	53	53	foodImage.41	FOODEEG_Images\0409.jpg	NY	Right	Yes	0.968419200000426	0	234871	235
459.7734375	1	decision	trialStart	1	54	54	foodImage.118	FOODEEG_Images\0926.jpg	NY	Left	No	0.635959500000354	0	235405	251
460.814453125	2	decision	foodImageDisplay	1	54	54	foodImage.118	FOODEEG_Images\0926.jpg	NY	Left	No	0.635959500000354	0	235938	252
462.87890625	0.635959500000354	decision	choicePhaseStart	1	54	54	foodImage.118	FOODEEG_Images\0926.jpg	NY	Left	No	0.635959500000354	0	236995	253
463.5078125	0	decision	response	1	54	54	foodImage.118	FOODEEG_Images\0926.jpg	NY	Left	No	0.635959500000354	0	237317	234
464.55078125	1	decision	trialStart	1	55	55	foodImage.1	FOODEEG_Images\0004.jpg	NY	Right	Yes	0.852530899999692	0	237851	251
465.591796875	2	decision	foodImageDisplay	1	55	55	foodImage.1	FOODEEG_Images\0004.jpg	NY	Right	Yes	0.852530899999692	0	238384	252
467.65625	0.852530899999692	decision	choicePhaseStart	1	55	55	foodImage.1	FOODEEG_Images\0004.jpg	NY	Right	Yes	0.852530899999692	0	239441	253
468.498046875	0	decision	response	1	55	55	foodImage.1	FOODEEG_Images\0004.jpg	NY	Right	Yes	0.852530899999692	0	239872	235
469.541015625	1	taste	trialStart	1	56	56	foodImage.78	FOODEEG_Images\0787.jpg	YN	Left	Yes	1.01349750000008	0	240406	251
470.5859375	2	taste	foodImageDisplay	1	56	56	foodImage.78	FOODEEG_Images\0787.jpg	YN	Left	Yes	1.01349750000008	0	240941	252
472.6328125	1.01349750000008	taste	choicePhaseStart	1	56	56	foodImage.78	FOODEEG_Images\0787.jpg	YN	Left	Yes	1.01349750000008	0	241989	253
473.642578125	0	taste	response	1	56	56	foodImage.78	FOODEEG_Images\0787.jpg	YN	Left	Yes	1.01349750000008	0	242506	234
474.685546875	1	decision	trialStart	1	57	57	foodImage.104	FOODEEG_Images\0912.jpg	NY	Left	No	0.922933799999555	0	243040	251
475.724609375	2	decision	foodImageDisplay	1	57	57	foodImage.104	FOODEEG_Images\0912.jpg	NY	Left	No	0.922933799999555	0	243572	252
477.7890625	0.922933799999555	decision	choicePhaseStart	1	57	57	foodImage.104	FOODEEG_Images\0912.jpg	NY	Left	No	0.922933799999555	0	244629	253
478.70703125	0	decision	response	1	57	57	foodImage.104	FOODEEG_Images\0912.jpg	NY	Left	No	0.922933799999555	0	245099	234
479.75	1	decision	trialStart	1	58	58	foodImage.84	FOODEEG_Images\0830.jpg	NY	Right	Yes	0.893039100000351	0	245633	251
480.806640625	2	decision	foodImageDisplay	1	58	58	foodImage.84	FOODEEG_Images\0830.jpg	NY	Right	Yes	0.893039100000351	0	246174	252
482.87109375	0.893039100000351	decision	choicePhaseStart	1	58	58	foodImage.84	FOODEEG_Images\0830.jpg	NY	Right	Yes	0.893039100000351	0	247231	253
483.75390625	0	decision	response	1	58	58	foodImage.84	FOODEEG_Images\0830.jpg	NY	Right	Yes	0.893039100000351	0	247683	235
484.796875	1	decision	trialStart	1	59	59	foodImage.119	FOODEEG_Images\0927.jpg	YN	Right	No	0.9229564999996	0	248217	251
485.8359375	2	decision	foodImageDisplay	1	59	59	foodImage.119	FOODEEG_Images\0927.jpg	YN	Right	No	0.9229564999996	0	248749	252
487.8828125	0.9229564999996	decision	choicePhaseStart	1	59	59	foodImage.119	FOODEEG_Images\0927.jpg	YN	Right	No	0.9229564999996	0	249797	253
488.802734375	0	decision	response	1	59	59	foodImage.119	FOODEEG_Images\0927.jpg	YN	Right	No	0.9229564999996	0	250268	235
489.845703125	1	decision	trialStart	1	60	60	foodImage.119	FOODEEG_Images\0927.jpg	NY	Right	Yes	0.859567499999685	0	250802	251
490.904296875	2	taste	foodImageDisplay	1	60	60	foodImage.21	FOODEEG_Images\0234.jpg	NY	Right	Yes	0.859567499999685	0	251344	252
492.96875	0.859567499999685	taste	choicePhaseStart	1	60	60	foodImage.21	FOODEEG_Images\0234.jpg	NY	Right	Yes	0.859567499999685	0	252401	253
493.818359375	0	taste	response	1	60	60	foodImage.21	FOODEEG_Images\0234.jpg	NY	Right	Yes	0.859567499999685	0	252836	235
495.859375	12.048828125	n/a	blockEnd	1	n/a	n/a	n/a		YN	n/a	n/a	n/a	n/a	253881	254
507.908203125	2	n/a	blockStart	2	n/a	n/a	n/a		YN	n/a	n/a	n/a	n/a	260050	250
509.94140625	1	taste	trialStart	2	61	1	foodImage.76	FOODEEG_Images\0766.jpg	NY	Right	Yes	1.00260619999972	0	261091	251
510.986328125	2	taste	foodImageDisplay	2	61	1	foodImage.76	FOODEEG_Images\0766.jpg	NY	Right	Yes	1.00260619999972	0	261626	252
513.052734375	1.00260619999972	taste	choicePhaseStart	2	61	1	foodImage.76	FOODEEG_Images\0766.jpg	NY	Right	Yes	1.00260619999972	0	262684	253
514.048828125	0	taste	response	2	61	1	foodImage.76	FOODEEG_Images\0766.jpg	NY	Right	Yes	1.00260619999972	0	263194	235
515.09765625	1	decision	trialStart	2	62	2	foodImage.111	FOODEEG_Images\0919.jpg	NY	Left	No	0.770396500000061	0	263731	251
516.13671875	2	decision	foodImageDisplay	2	62	2	foodImage.111	FOODEEG_Images\0919.jpg	NY	Left	No	0.770396500000061	0	264263	252
518.19921875	0.770396500000061	decision	choicePhaseStart	2	62	2	foodImage.111	FOODEEG_Images\0919.jpg	NY	Left	No	0.770396500000061	0	265319	253
518.9609375	0	decision	response	2	62	2	foodImage.111	FOODEEG_Images\0919.jpg	NY	Left	No	0.770396500000061	0	265709	234
520.001953125	1	taste	trialStart	2	63	3	foodImage.17	FOODEEG_Images\0199.jpg	NY	Right	Yes	0.884353399999782	0	266242	251
521.044921875	2	taste	foodImageDisplay	2	63	3	foodImage.17	FOODEEG_Images\0199.jpg	NY	Right	Yes	0.884353399999782	0	266776	252
523.109375	0.884353399999782	taste	choicePhaseStart	2	63	3	foodImage.17	FOODEEG_Images\0199.jpg	NY	Right	Yes	0.884353399999782	0	267833	253
523.984375	0	taste	response	2	63	3	foodImage.17	FOODEEG_Images\0199.jpg	NY	Right	Yes	0.884353399999782	0	268281	235
525.025390625	1	decision	trialStart	2	64	4	foodImage.14	FOODEEG_Images\0188.jpg	YN	Left	Yes	1.10243220000029	0	268814	251
526.083984375	2	decision	foodImageDisplay	2	64	4	foodImage.14	FOODEEG_Images\0188.jpg	YN	Left	Yes	1.10243220000029	0	269356	252
528.1328125	1.10243220000029	decision	choicePhaseStart	2	64	4	foodImage.14	FOODEEG_Images\0188.jpg	YN	Left	Yes	1.10243220000029	0	270405	253
529.232421875	0	decision	response	2	64	4	foodImage.14	FOODEEG_Images\0188.jpg	YN	Left	Yes	1.10243220000029	0	270968	234
530.275390625	1	decision	trialStart	2	65	5	foodImage.90	FOODEEG_Images\0890.jpg	YN	Right	No	1.09001609999996	0	271502	251
531.333984375	2	health	foodImageDisplay	2	65	5	foodImage.90	FOODEEG_Images\0890.jpg	YN	Right	No	1.09001609999996	0	272044	252
533.384765625	1.09001609999996	health	choicePhaseStart	2	65	5	foodImage.90	FOODEEG_Images\0890.jpg	YN	Right	No	1.09001609999996	0	273094	253
534.47265625	0	health	response	2	65	5	foodImage.90	FOODEEG_Images\0890.jpg	YN	Right	No	1.09001609999996	0	273651	235
535.513671875	1	decision	trialStart	2	66	6	foodImage.90	FOODEEG_Images\0890.jpg	YN	Left	Yes	0.838160199999948	0	274184	251
536.556640625	2	decision	foodImageDisplay	2	66	6	foodImage.17	FOODEEG_Images\0199.jpg	YN	Left	Yes	0.838160199999948	0	274718	252
538.60546875	0.838160199999948	decision	choicePhaseStart	2	66	6	foodImage.17	FOODEEG_Images\0199.jpg	YN	Left	Yes	0.838160199999948	0	275767	253
539.439453125	0	decision	response	2	66	6	foodImage.17	FOODEEG_Images\0199.jpg	YN	Left	Yes	0.838160199999948	0	276194	234
540.482421875	1	decision	trialStart	2	67	7	foodImage.45	FOODEEG_Images\0478.jpg	YN	Left	Yes	0.843947700000172	0	276728	251
541.52734375	2	taste	foodImageDisplay	2	67	7	foodImage.45	FOODEEG_Images\0478.jpg	YN	Left	Yes	0.843947700000172	0	277263	252
543.57421875	0.843947700000172	taste	choicePhaseStart	2	67	7	foodImage.45	FOODEEG_Images\0478.jpg	YN	Left	Yes	0.843947700000172	0	278311	253
544.416015625	0	taste	response	2	67	7	foodImage.45	FOODEEG_Images\0478.jpg	YN	Left	Yes	0.843947700000172	0	278742	234
545.458984375	1	taste	trialStart	2	68	8	foodImage.45	FOODEEG_Images\0478.jpg	YN	Left	Yes	0.847814499999913	0	279276	251
546.5	2	health	foodImageDisplay	2	68	8	foodImage.17	FOODEEG_Images\0199.jpg	YN	Left	Yes	0.847814499999913	0	279809	252
548.546875	0.847814499999913	health	choicePhaseStart	2	68	8	foodImage.17	FOODEEG_Images\0199.jpg	YN	Left	Yes	0.847814499999913	0	280857	253
549.392578125	0	health	response	2	68	8	foodImage.17	FOODEEG_Images\0199.jpg	YN	Left	Yes	0.847814499999913	0	281290	234
550.43359375	1	decision	trialStart	2	69	9	foodImage.23	FOODEEG_Images\0244.jpg	NY	Right	Yes	0.956949299999906	0	281823	251
551.4765625	2	decision	foodImageDisplay	2	69	9	foodImage.23	FOODEEG_Images\0244.jpg	NY	Right	Yes	0.956949299999906	0	282357	252
553.541015625	0.956949299999906	decision	choicePhaseStart	2	69	9	foodImage.23	FOODEEG_Images\0244.jpg	NY	Right	Yes	0.956949299999906	0	283414	253
554.48828125	0	decision	response	2	69	9	foodImage.23	FOODEEG_Images\0244.jpg	NY	Right	Yes	0.956949299999906	0	283899	235
555.529296875	1	taste	trialStart	2	70	10	foodImage.52	FOODEEG_Images\0539.jpg	YN	Right	No	2.05181439999978	0	284432	251
556.587890625	2	taste	foodImageDisplay	2	70	10	foodImage.52	FOODEEG_Images\0539.jpg	YN	Right	No	2.05181439999978	0	284974	252
558.638671875	2.05181439999978	taste	choicePhaseStart	2	70	10	foodImage.52	FOODEEG_Images\0539.jpg	YN	Right	No	2.05181439999978	0	286024	253
560.6875	0	taste	response	2	70	10	foodImage.52	FOODEEG_Images\0539.jpg	YN	Right	No	2.05181439999978	0	287073	235
561.73046875	1	decision	trialStart	2	71	11	foodImage.82	FOODEEG_Images\0805.jpg	YN	Left	Yes	0.816454899999371	0	287607	251
562.78515625	2	decision	foodImageDisplay	2	71	11	foodImage.82	FOODEEG_Images\0805.jpg	YN	Left	Yes	0.816454899999371	0	288147	252
564.833984375	0.816454899999371	decision	choicePhaseStart	2	71	11	foodImage.82	FOODEEG_Images\0805.jpg	YN	Left	Yes	0.816454899999371	0	289196	253
565.646484375	0	decision	response	2	71	11	foodImage.82	FOODEEG_Images\0805.jpg	YN	Left	Yes	0.816454899999371	0	289612	234
566.689453125	1	decision	trialStart	2	72	12	foodImage.114	FOODEEG_Images\0922.jpg	NY	Left	No	0.832655899999736	0	290146	251
567.744140625	2	taste	foodImageDisplay	2	72	12	foodImage.114	FOODEEG_Images\0922.jpg	NY	Left	No	0.832655899999736	0	290686	252
569.80859375	0.832655899999736	taste	choicePhaseStart	2	72	12	foodImage.114	FOODEEG_Images\0922.jpg	NY	Left	No	0.832655899999736	0	291743	253
570.630859375	0	taste	response	2	72	12	foodImage.114	FOODEEG_Images\0922.jpg	NY	Left	No	0.832655899999736	0	292164	234
571.671875	1	taste	trialStart	2	73	13	foodImage.31	FOODEEG_Images\0294.jpg	NY	Right	Yes	1.00595609999982	0	292697	251
572.71484375	2	taste	foodImageDisplay	2	73	13	foodImage.31	FOODEEG_Images\0294.jpg	NY	Right	Yes	1.00595609999982	0	293231	252
574.77734375	1.00595609999982	taste	choicePhaseStart	2	73	13	foodImage.31	FOODEEG_Images\0294.jpg	NY	Right	Yes	1.00595609999982	0	294287	253
575.775390625	0	taste	response	2	73	13	foodImage.31	FOODEEG_Images\0294.jpg	NY	Right	Yes	1.00595609999982	0	294798	235
576.818359375	1	taste	trialStart	2	74	14	foodImage.85	FOODEEG_Images\0841.jpg	YN	Left	Yes	0.721410299999661	0	295332	251
577.876953125	2	taste	foodImageDisplay	2	74	14	foodImage.85	FOODEEG_Images\0841.jpg	YN	Left	Yes	0.721410299999661	0	295874	252
579.927734375	0.721410299999661	taste	choicePhaseStart	2	74	14	foodImage.85	FOODEEG_Images\0841.jpg	YN	Left	Yes	0.721410299999661	0	296924	253
580.646484375	0	taste	response	2	74	14	foodImage.85	FOODEEG_Images\0841.jpg	YN	Left	Yes	0.721410299999661	0	297292	234
581.6953125	1	taste	trialStart	2	75	15	foodImage.85	FOODEEG_Images\0841.jpg	NY	Left	No	1.06199629999992	0	297829	251
582.75390625	2	health	foodImageDisplay	2	75	15	foodImage.9	FOODEEG_Images\0138.jpg	NY	Left	No	1.06199629999992	0	298371	252
584.818359375	1.06199629999992	health	choicePhaseStart	2	75	15	foodImage.9	FOODEEG_Images\0138.jpg	NY	Left	No	1.06199629999992	0	299428	253
585.87109375	0	health	response	2	75	15	foodImage.9	FOODEEG_Images\0138.jpg	NY	Left	No	1.06199629999992	0	299967	234
586.912109375	1	health	trialStart	2	76	16	foodImage.59	FOODEEG_Images\0607.jpg	YN	Right	No	1.01598890000059	0	300500	251
587.9609375	2	health	foodImageDisplay	2	76	16	foodImage.59	FOODEEG_Images\0607.jpg	YN	Right	No	1.01598890000059	0	301037	252
590.009765625	1.01598890000059	health	choicePhaseStart	2	76	16	foodImage.59	FOODEEG_Images\0607.jpg	YN	Right	No	1.01598890000059	0	302086	253
591.021484375	0	health	response	2	76	16	foodImage.59	FOODEEG_Images\0607.jpg	YN	Right	No	1.01598890000059	0	302604	235
592.064453125	1	taste	trialStart	2	77	17	foodImage.119	FOODEEG_Images\0927.jpg	YN	Right	No	0.994132099999661	0	303138	251
593.103515625	2	taste	foodImageDisplay	2	77	17	foodImage.119	FOODEEG_Images\0927.jpg	YN	Right	No	0.994132099999661	0	303670	252
595.150390625	0.994132099999661	taste	choicePhaseStart	2	77	17	foodImage.119	FOODEEG_Images\0927.jpg	YN	Right	No	0.994132099999661	0	304718	253
596.142578125	0	taste	response	2	77	17	foodImage.119	FOODEEG_Images\0927.jpg	YN	Right	No	0.994132099999661	0	305226	235
597.185546875	1	taste	trialStart	2	78	18	foodImage.119	FOODEEG_Images\0927.jpg	YN	Right	No	0.965765799999645	0	305760	251
598.2265625	2	health	foodImageDisplay	2	78	18	foodImage.1	FOODEEG_Images\0004.jpg	YN	Right	No	0.965765799999645	0	306293	252
600.275390625	0.965765799999645	health	choicePhaseStart	2	78	18	foodImage.1	FOODEEG_Images\0004.jpg	YN	Right	No	0.965765799999645	0	307342	253
601.23828125	0	health	response	2	78	18	foodImage.1	FOODEEG_Images\0004.jpg	YN	Right	No	0.965765799999645	0	307835	235
602.279296875	1	decision	trialStart	2	79	19	foodImage.116	FOODEEG_Images\0924.jpg	NY	Left	No	0.847868500000004	0	308368	251
603.3203125	2	decision	foodImageDisplay	2	79	19	foodImage.116	FOODEEG_Images\0924.jpg	NY	Left	No	0.847868500000004	0	308901	252
605.3828125	0.847868500000004	decision	choicePhaseStart	2	79	19	foodImage.116	FOODEEG_Images\0924.jpg	NY	Left	No	0.847868500000004	0	309957	253
606.22265625	0	decision	response	2	79	19	foodImage.116	FOODEEG_Images\0924.jpg	NY	Left	No	0.847868500000004	0	310387	234
607.263671875	1	taste	trialStart	2	80	20	foodImage.117	FOODEEG_Images\0925.jpg	NY	Right	Yes	0.88104149999981	0	310920	251
608.302734375	2	taste	foodImageDisplay	2	80	20	foodImage.117	FOODEEG_Images\0925.jpg	NY	Right	Yes	0.88104149999981	0	311452	252
610.3671875	0.88104149999981	taste	choicePhaseStart	2	80	20	foodImage.117	FOODEEG_Images\0925.jpg	NY	Right	Yes	0.88104149999981	0	312509	253
611.23828125	0	taste	response	2	80	20	foodImage.117	FOODEEG_Images\0925.jpg	NY	Right	Yes	0.88104149999981	0	312955	235
612.279296875	1	taste	trialStart	2	81	21	foodImage.111	FOODEEG_Images\0919.jpg	NY	Left	No	0.822578799999974	0	313488	251
613.3203125	2	taste	foodImageDisplay	2	81	21	foodImage.111	FOODEEG_Images\0919.jpg	NY	Left	No	0.822578799999974	0	314021	252
615.3828125	0.822578799999974	taste	choicePhaseStart	2	81	21	foodImage.111	FOODEEG_Images\0919.jpg	NY	Left	No	0.822578799999974	0	315077	253
616.197265625	0	taste	response	2	81	21	foodImage.111	FOODEEG_Images\0919.jpg	NY	Left	No	0.822578799999974	0	315494	234
617.240234375	1	taste	trialStart	2	82	22	foodImage.89	FOODEEG_Images\0881.jpg	NY	Right	Yes	0.824510599999485	0	316028	251
618.296875	2	taste	foodImageDisplay	2	82	22	foodImage.89	FOODEEG_Images\0881.jpg	NY	Right	Yes	0.824510599999485	0	316569	252
620.36328125	0.824510599999485	taste	choicePhaseStart	2	82	22	foodImage.89	FOODEEG_Images\0881.jpg	NY	Right	Yes	0.824510599999485	0	317627	253
621.181640625	0	taste	response	2	82	22	foodImage.89	FOODEEG_Images\0881.jpg	NY	Right	Yes	0.824510599999485	0	318046	235
622.23046875	1	decision	trialStart	2	83	23	foodImage.99	FOODEEG_Images\0907.jpg	NY	Left	No	0.762645300000258	0	318583	251
623.267578125	2	decision	foodImageDisplay	2	83	23	foodImage.99	FOODEEG_Images\0907.jpg	NY	Left	No	0.762645300000258	0	319114	252
625.33203125	0.762645300000258	decision	choicePhaseStart	2	83	23	foodImage.99	FOODEEG_Images\0907.jpg	NY	Left	No	0.762645300000258	0	320171	253
626.0859375	0	decision	response	2	83	23	foodImage.99	FOODEEG_Images\0907.jpg	NY	Left	No	0.762645300000258	0	320557	234
627.126953125	1	taste	trialStart	2	84	24	foodImage.98	FOODEEG_Images\0906.jpg	YN	Right	No	1.19478530000015	0	321090	251
628.171875	2	taste	foodImageDisplay	2	84	24	foodImage.98	FOODEEG_Images\0906.jpg	YN	Right	No	1.19478530000015	0	321625	252
630.220703125	1.19478530000015	taste	choicePhaseStart	2	84	24	foodImage.98	FOODEEG_Images\0906.jpg	YN	Right	No	1.19478530000015	0	322674	253
631.412109375	0	taste	response	2	84	24	foodImage.98	FOODEEG_Images\0906.jpg	YN	Right	No	1.19478530000015	0	323284	235
632.453125	1	taste	trialStart	2	85	25	foodImage.98	FOODEEG_Images\0906.jpg	NY	Right	Yes	0.996537600000011	0	323817	251
633.53125	2	taste	foodImageDisplay	2	85	25	foodImage.68	FOODEEG_Images\0685.jpg	NY	Right	Yes	0.996537600000011	0	324369	252
635.59375	0.996537600000011	taste	choicePhaseStart	2	85	25	foodImage.68	FOODEEG_Images\0685.jpg	NY	Right	Yes	0.996537600000011	0	325425	253
636.580078125	0	taste	response	2	85	25	foodImage.68	FOODEEG_Images\0685.jpg	NY	Right	Yes	0.996537600000011	0	325930	235
637.619140625	1	health	trialStart	2	86	26	foodImage.63	FOODEEG_Images\0645.jpg	YN	Right	No	0.87775480000073	0	326462	251
638.66015625	2	health	foodImageDisplay	2	86	26	foodImage.63	FOODEEG_Images\0645.jpg	YN	Right	No	0.87775480000073	0	326995	252
640.705078125	0.87775480000073	health	choicePhaseStart	2	86	26	foodImage.63	FOODEEG_Images\0645.jpg	YN	Right	No	0.87775480000073	0	328042	253
641.580078125	0	health	response	2	86	26	foodImage.63	FOODEEG_Images\0645.jpg	YN	Right	No	0.87775480000073	0	328490	235
642.619140625	1	taste	trialStart	2	87	27	foodImage.63	FOODEEG_Images\0645.jpg	YN	Left	Yes	0.874013900000136	0	329022	251
643.66015625	2	taste	foodImageDisplay	2	87	27	foodImage.32	FOODEEG_Images\0319.jpg	YN	Left	Yes	0.874013900000136	0	329555	252
645.708984375	0.874013900000136	taste	choicePhaseStart	2	87	27	foodImage.32	FOODEEG_Images\0319.jpg	YN	Left	Yes	0.874013900000136	0	330604	253
646.580078125	0	taste	response	2	87	27	foodImage.32	FOODEEG_Images\0319.jpg	YN	Left	Yes	0.874013900000136	0	331050	234
647.623046875	1	taste	trialStart	2	88	28	foodImage.32	FOODEEG_Images\0319.jpg	NY	Right	Yes	0.845997599999464	0	331584	251
648.6640625	2	taste	foodImageDisplay	2	88	28	foodImage.7	FOODEEG_Images\0116.jpg	NY	Right	Yes	0.845997599999464	0	332117	252
650.728515625	0.845997599999464	taste	choicePhaseStart	2	88	28	foodImage.7	FOODEEG_Images\0116.jpg	NY	Right	Yes	0.845997599999464	0	333174	253
651.564453125	0	taste	response	2	88	28	foodImage.7	FOODEEG_Images\0116.jpg	NY	Right	Yes	0.845997599999464	0	333602	235
652.607421875	1	taste	trialStart	2	89	29	foodImage.15	FOODEEG_Images\0189.jpg	NY	Right	Yes	0.922472899999775	0	334136	251
653.6640625	2	taste	foodImageDisplay	2	89	29	foodImage.15	FOODEEG_Images\0189.jpg	NY	Right	Yes	0.922472899999775	0	334677	252
655.728515625	0.922472899999775	taste	choicePhaseStart	2	89	29	foodImage.15	FOODEEG_Images\0189.jpg	NY	Right	Yes	0.922472899999775	0	335734	253
656.64453125	0	taste	response	2	89	29	foodImage.15	FOODEEG_Images\0189.jpg	NY	Right	Yes	0.922472899999775	0	336203	235
657.6875	1	health	trialStart	2	90	30	foodImage.112	FOODEEG_Images\0920.jpg	NY	Right	Yes	1.44889439999952	0	336737	251
658.7265625	2	health	foodImageDisplay	2	90	30	foodImage.112	FOODEEG_Images\0920.jpg	NY	Right	Yes	1.44889439999952	0	337269	252
660.7890625	1.44889439999952	health	choicePhaseStart	2	90	30	foodImage.112	FOODEEG_Images\0920.jpg	NY	Right	Yes	1.44889439999952	0	338325	253
662.228515625	0	health	response	2	90	30	foodImage.112	FOODEEG_Images\0920.jpg	NY	Right	Yes	1.44889439999952	0	339062	235
663.267578125	1	health	trialStart	2	91	31	foodImage.120	FOODEEG_Images\0928.jpg	YN	Right	No	1.4361928999997	0	339594	251
664.3046875	2	health	foodImageDisplay	2	91	31	foodImage.120	FOODEEG_Images\0928.jpg	YN	Right	No	1.4361928999997	0	340125	252
666.353515625	1.4361928999997	health	choicePhaseStart	2	91	31	foodImage.120	FOODEEG_Images\0928.jpg	YN	Right	No	1.4361928999997	0	341174	253
667.787109375	0	health	response	2	91	31	foodImage.120	FOODEEG_Images\0928.jpg	YN	Right	No	1.4361928999997	0	341908	235
668.830078125	1	health	trialStart	2	92	32	foodImage.120	FOODEEG_Images\0928.jpg	YN	Right	No	1.36126580000018	0	342442	251
669.87109375	2	health	foodImageDisplay	2	92	32	foodImage.3	FOODEEG_Images\0046.jpg	YN	Right	No	1.36126580000018	0	342975	252
671.91796875	1.36126580000018	health	choicePhaseStart	2	92	32	foodImage.3	FOODEEG_Images\0046.jpg	YN	Right	No	1.36126580000018	0	344023	253
673.275390625	0	health	response	2	92	32	foodImage.3	FOODEEG_Images\0046.jpg	YN	Right	No	1.36126580000018	0	344718	235
674.31640625	1	decision	trialStart	2	93	33	foodImage.98	FOODEEG_Images\0906.jpg	YN	Right	No	1.25883410000006	0	345251	251
675.35546875	2	decision	foodImageDisplay	2	93	33	foodImage.98	FOODEEG_Images\0906.jpg	YN	Right	No	1.25883410000006	0	345783	252
677.40234375	1.25883410000006	decision	choicePhaseStart	2	93	33	foodImage.98	FOODEEG_Images\0906.jpg	YN	Right	No	1.25883410000006	0	346831	253
678.658203125	0	decision	response	2	93	33	foodImage.98	FOODEEG_Images\0906.jpg	YN	Right	No	1.25883410000006	0	347474	235
679.701171875	1	decision	trialStart	2	94	34	foodImage.98	FOODEEG_Images\0906.jpg	YN	Left	Yes	0.894423200000347	0	348008	251
680.7578125	2	taste	foodImageDisplay	2	94	34	foodImage.88	FOODEEG_Images\0878.jpg	YN	Left	Yes	0.894423200000347	0	348549	252
682.806640625	0.894423200000347	taste	choicePhaseStart	2	94	34	foodImage.88	FOODEEG_Images\0878.jpg	YN	Left	Yes	0.894423200000347	0	349598	253
683.69921875	0	taste	response	2	94	34	foodImage.88	FOODEEG_Images\0878.jpg	YN	Left	Yes	0.894423200000347	0	350055	234
684.7421875	1	taste	trialStart	2	95	35	foodImage.102	FOODEEG_Images\0910.jpg	YN	Right	No	2.16010410000035	0	350589	251
685.78125	2	health	foodImageDisplay	2	95	35	foodImage.102	FOODEEG_Images\0910.jpg	YN	Right	No	2.16010410000035	0	351121	252
687.830078125	2.16010410000035	health	choicePhaseStart	2	95	35	foodImage.102	FOODEEG_Images\0910.jpg	YN	Right	No	2.16010410000035	0	352170	253
689.986328125	0	health	response	2	95	35	foodImage.102	FOODEEG_Images\0910.jpg	YN	Right	No	2.16010410000035	0	353274	235
691.029296875	1	decision	trialStart	2	96	36	foodImage.102	FOODEEG_Images\0910.jpg	YN	Left	Yes	1.0450523999998	0	353808	251
692.087890625	2	decision	foodImageDisplay	2	96	36	foodImage.50	FOODEEG_Images\0529.jpg	YN	Left	Yes	1.0450523999998	0	354350	252
694.13671875	1.0450523999998	decision	choicePhaseStart	2	96	36	foodImage.50	FOODEEG_Images\0529.jpg	YN	Left	Yes	1.0450523999998	0	355399	253
695.177734375	0	decision	response	2	96	36	foodImage.50	FOODEEG_Images\0529.jpg	YN	Left	Yes	1.0450523999998	0	355932	234
696.220703125	1	decision	trialStart	2	97	37	foodImage.50	FOODEEG_Images\0529.jpg	YN	Left	Yes	1.84916520000024	0	356466	251
697.263671875	2	taste	foodImageDisplay	2	97	37	foodImage.12	FOODEEG_Images\0181.jpg	YN	Left	Yes	1.84916520000024	0	357000	252
699.314453125	1.84916520000024	taste	choicePhaseStart	2	97	37	foodImage.12	FOODEEG_Images\0181.jpg	YN	Left	Yes	1.84916520000024	0	358050	253
701.162109375	0	taste	response	2	97	37	foodImage.12	FOODEEG_Images\0181.jpg	YN	Left	Yes	1.84916520000024	0	358996	234
702.205078125	1	taste	trialStart	2	98	38	foodImage.48	FOODEEG_Images\0494.jpg	NY	Left	No	1.08033210000031	0	359530	251
703.248046875	2	health	foodImageDisplay	2	98	38	foodImage.48	FOODEEG_Images\0494.jpg	NY	Left	No	1.08033210000031	0	360064	252
705.310546875	1.08033210000031	health	choicePhaseStart	2	98	38	foodImage.48	FOODEEG_Images\0494.jpg	NY	Left	No	1.08033210000031	0	361120	253
706.384765625	0	health	response	2	98	38	foodImage.48	FOODEEG_Images\0494.jpg	NY	Left	No	1.08033210000031	0	361670	234
707.42578125	1	health	trialStart	2	99	39	foodImage.15	FOODEEG_Images\0189.jpg	NY	Left	No	1.01779619999979	0	362203	251
708.48046875	2	health	foodImageDisplay	2	99	39	foodImage.15	FOODEEG_Images\0189.jpg	NY	Left	No	1.01779619999979	0	362743	252
710.544921875	1.01779619999979	health	choicePhaseStart	2	99	39	foodImage.15	FOODEEG_Images\0189.jpg	NY	Left	No	1.01779619999979	0	363800	253
711.552734375	0	health	response	2	99	39	foodImage.15	FOODEEG_Images\0189.jpg	NY	Left	No	1.01779619999979	0	364316	234
712.595703125	1	taste	trialStart	2	100	40	foodImage.96	FOODEEG_Images\0904.jpg	NY	Left	No	1.13613500000065	0	364850	251
713.634765625	2	taste	foodImageDisplay	2	100	40	foodImage.96	FOODEEG_Images\0904.jpg	NY	Left	No	1.13613500000065	0	365382	252
715.69921875	1.13613500000065	taste	choicePhaseStart	2	100	40	foodImage.96	FOODEEG_Images\0904.jpg	NY	Left	No	1.13613500000065	0	366439	253
716.826171875	0	taste	response	2	100	40	foodImage.96	FOODEEG_Images\0904.jpg	NY	Left	No	1.13613500000065	0	367016	234
717.8671875	1	health	trialStart	2	101	41	foodImage.44	FOODEEG_Images\0459.jpg	NY	Right	Yes	0.983649399999194	0	367549	251
718.9140625	2	health	foodImageDisplay	2	101	41	foodImage.44	FOODEEG_Images\0459.jpg	NY	Right	Yes	0.983649399999194	0	368085	252
720.978515625	0.983649399999194	health	choicePhaseStart	2	101	41	foodImage.44	FOODEEG_Images\0459.jpg	NY	Right	Yes	0.983649399999194	0	369142	253
721.953125	0	health	response	2	101	41	foodImage.44	FOODEEG_Images\0459.jpg	NY	Right	Yes	0.983649399999194	0	369641	235
722.99609375	1	decision	trialStart	2	102	42	foodImage.6	FOODEEG_Images\0113.jpg	YN	Left	Yes	1.78592810000009	0	370175	251
724.0390625	2	decision	foodImageDisplay	2	102	42	foodImage.6	FOODEEG_Images\0113.jpg	YN	Left	Yes	1.78592810000009	0	370709	252
726.08984375	1.78592810000009	decision	choicePhaseStart	2	102	42	foodImage.6	FOODEEG_Images\0113.jpg	YN	Left	Yes	1.78592810000009	0	371759	253
727.873046875	0	decision	response	2	102	42	foodImage.6	FOODEEG_Images\0113.jpg	YN	Left	Yes	1.78592810000009	0	372672	234
728.916015625	1	decision	trialStart	2	103	43	foodImage.115	FOODEEG_Images\0923.jpg	NY	Left	No	1.41627509999944	0	373206	251
729.955078125	2	health	foodImageDisplay	2	103	43	foodImage.115	FOODEEG_Images\0923.jpg	NY	Left	No	1.41627509999944	0	373738	252
732.01953125	1.41627509999944	health	choicePhaseStart	2	103	43	foodImage.115	FOODEEG_Images\0923.jpg	NY	Left	No	1.41627509999944	0	374795	253
733.42578125	0	health	response	2	103	43	foodImage.115	FOODEEG_Images\0923.jpg	NY	Left	No	1.41627509999944	0	375515	234
734.46875	1	decision	trialStart	2	104	44	foodImage.83	FOODEEG_Images\0827.jpg	YN	Left	Yes	0.918026199999986	0	376049	251
735.525390625	2	decision	foodImageDisplay	2	104	44	foodImage.83	FOODEEG_Images\0827.jpg	YN	Left	Yes	0.918026199999986	0	376590	252
737.572265625	0.918026199999986	decision	choicePhaseStart	2	104	44	foodImage.83	FOODEEG_Images\0827.jpg	YN	Left	Yes	0.918026199999986	0	377638	253
738.48828125	0	decision	response	2	104	44	foodImage.83	FOODEEG_Images\0827.jpg	YN	Left	Yes	0.918026199999986	0	378107	234
739.529296875	1	decision	trialStart	2	105	45	foodImage.83	FOODEEG_Images\0827.jpg	YN	Left	Yes	0.948264800000288	0	378640	251
740.591796875	2	decision	foodImageDisplay	2	105	45	foodImage.12	FOODEEG_Images\0181.jpg	YN	Left	Yes	0.948264800000288	0	379184	252
742.638671875	0.948264800000288	decision	choicePhaseStart	2	105	45	foodImage.12	FOODEEG_Images\0181.jpg	YN	Left	Yes	0.948264800000288	0	380232	253
743.583984375	0	decision	response	2	105	45	foodImage.12	FOODEEG_Images\0181.jpg	YN	Left	Yes	0.948264800000288	0	380716	234
744.626953125	1	decision	trialStart	2	106	46	foodImage.102	FOODEEG_Images\0910.jpg	NY	Left	No	0.943163800000548	0	381250	251
745.666015625	2	taste	foodImageDisplay	2	106	46	foodImage.102	FOODEEG_Images\0910.jpg	NY	Left	No	0.943163800000548	0	381782	252
747.73046875	0.943163800000548	taste	choicePhaseStart	2	106	46	foodImage.102	FOODEEG_Images\0910.jpg	NY	Left	No	0.943163800000548	0	382839	253
748.6640625	0	taste	response	2	106	46	foodImage.102	FOODEEG_Images\0910.jpg	NY	Left	No	0.943163800000548	0	383317	234
749.712890625	1	taste	trialStart	2	107	47	foodImage.37	FOODEEG_Images\0359.jpg	NY	Right	Yes	0.927992500000073	0	383854	251
750.75390625	2	taste	foodImageDisplay	2	107	47	foodImage.37	FOODEEG_Images\0359.jpg	NY	Right	Yes	0.927992500000073	0	384387	252
752.81640625	0.927992500000073	taste	choicePhaseStart	2	107	47	foodImage.37	FOODEEG_Images\0359.jpg	NY	Right	Yes	0.927992500000073	0	385443	253
753.736328125	0	taste	response	2	107	47	foodImage.37	FOODEEG_Images\0359.jpg	NY	Right	Yes	0.927992500000073	0	385914	235
754.779296875	1	taste	trialStart	2	108	48	foodImage.10	FOODEEG_Images\0145.jpg	YN	Left	Yes	0.853819599999952	0	386448	251
755.8359375	2	taste	foodImageDisplay	2	108	48	foodImage.10	FOODEEG_Images\0145.jpg	YN	Left	Yes	0.853819599999952	0	386989	252
757.884765625	0.853819599999952	taste	choicePhaseStart	2	108	48	foodImage.10	FOODEEG_Images\0145.jpg	YN	Left	Yes	0.853819599999952	0	388038	253
758.736328125	0	taste	response	2	108	48	foodImage.10	FOODEEG_Images\0145.jpg	YN	Left	Yes	0.853819599999952	0	388474	234
759.775390625	1	taste	trialStart	2	109	49	foodImage.88	FOODEEG_Images\0878.jpg	NY	Right	Yes	1.54912090000016	0	389006	251
760.8359375	2	health	foodImageDisplay	2	109	49	foodImage.88	FOODEEG_Images\0878.jpg	NY	Right	Yes	1.54912090000016	0	389549	252
762.900390625	1.54912090000016	health	choicePhaseStart	2	109	49	foodImage.88	FOODEEG_Images\0878.jpg	NY	Right	Yes	1.54912090000016	0	390606	253
764.439453125	0	health	response	2	109	49	foodImage.88	FOODEEG_Images\0878.jpg	NY	Right	Yes	1.54912090000016	0	391394	235
765.48046875	1	taste	trialStart	2	110	50	foodImage.120	FOODEEG_Images\0928.jpg	NY	Left	No	0.826051000000007	0	391927	251
766.51953125	2	taste	foodImageDisplay	2	110	50	foodImage.120	FOODEEG_Images\0928.jpg	NY	Left	No	0.826051000000007	0	392459	252
768.58203125	0.826051000000007	taste	choicePhaseStart	2	110	50	foodImage.120	FOODEEG_Images\0928.jpg	NY	Left	No	0.826051000000007	0	393515	253
769.400390625	0	taste	response	2	110	50	foodImage.120	FOODEEG_Images\0928.jpg	NY	Left	No	0.826051000000007	0	393934	234
770.44140625	1	decision	trialStart	2	111	51	foodImage.9	FOODEEG_Images\0138.jpg	NY	Right	Yes	0.979881899999782	0	394467	251
771.5	2	decision	foodImageDisplay	2	111	51	foodImage.9	FOODEEG_Images\0138.jpg	NY	Right	Yes	0.979881899999782	0	395009	252
773.564453125	0.979881899999782	decision	choicePhaseStart	2	111	51	foodImage.9	FOODEEG_Images\0138.jpg	NY	Right	Yes	0.979881899999782	0	396066	253
774.53515625	0	decision	response	2	111	51	foodImage.9	FOODEEG_Images\0138.jpg	NY	Right	Yes	0.979881899999782	0	396563	235
775.578125	1	decision	trialStart	2	112	52	foodImage.15	FOODEEG_Images\0189.jpg	YN	Left	Yes	0.88295350000044	0	397097	251
776.638671875	2	decision	foodImageDisplay	2	112	52	foodImage.15	FOODEEG_Images\0189.jpg	YN	Left	Yes	0.88295350000044	0	397640	252
778.6875	0.88295350000044	decision	choicePhaseStart	2	112	52	foodImage.15	FOODEEG_Images\0189.jpg	YN	Left	Yes	0.88295350000044	0	398689	253
779.56640625	0	decision	response	2	112	52	foodImage.15	FOODEEG_Images\0189.jpg	YN	Left	Yes	0.88295350000044	0	399139	234
780.615234375	1	decision	trialStart	2	113	53	foodImage.79	FOODEEG_Images\0794.jpg	YN	Left	Yes	0.87863920000018	0	399676	251
781.666015625	2	health	foodImageDisplay	2	113	53	foodImage.79	FOODEEG_Images\0794.jpg	YN	Left	Yes	0.87863920000018	0	400214	252
783.71484375	0.87863920000018	health	choicePhaseStart	2	113	53	foodImage.79	FOODEEG_Images\0794.jpg	YN	Left	Yes	0.87863920000018	0	401263	253
784.58984375	0	health	response	2	113	53	foodImage.79	FOODEEG_Images\0794.jpg	YN	Left	Yes	0.87863920000018	0	401711	234
785.6328125	1	taste	trialStart	2	114	54	foodImage.80	FOODEEG_Images\0796.jpg	NY	Right	Yes	1.22281969999949	0	402245	251
786.693359375	2	taste	foodImageDisplay	2	114	54	foodImage.80	FOODEEG_Images\0796.jpg	NY	Right	Yes	1.22281969999949	0	402788	252
788.759765625	1.22281969999949	taste	choicePhaseStart	2	114	54	foodImage.80	FOODEEG_Images\0796.jpg	NY	Right	Yes	1.22281969999949	0	403846	253
789.974609375	0	taste	response	2	114	54	foodImage.80	FOODEEG_Images\0796.jpg	NY	Right	Yes	1.22281969999949	0	404468	235
791.017578125	1	decision	trialStart	2	115	55	foodImage.87	FOODEEG_Images\0873.jpg	YN	Left	Yes	1.01380479999989	0	405002	251
792.076171875	2	decision	foodImageDisplay	2	115	55	foodImage.87	FOODEEG_Images\0873.jpg	YN	Left	Yes	1.01380479999989	0	405544	252
794.123046875	1.01380479999989	decision	choicePhaseStart	2	115	55	foodImage.87	FOODEEG_Images\0873.jpg	YN	Left	Yes	1.01380479999989	0	406592	253
795.134765625	0	decision	response	2	115	55	foodImage.87	FOODEEG_Images\0873.jpg	YN	Left	Yes	1.01380479999989	0	407110	234
796.17578125	1	decision	trialStart	2	116	56	foodImage.87	FOODEEG_Images\0873.jpg	NY	Left	No	0.986649299999954	0	407643	251
797.220703125	2	health	foodImageDisplay	2	116	56	foodImage.57	FOODEEG_Images\0587.jpg	NY	Left	No	0.986649299999954	0	408178	252
799.28515625	0.986649299999954	health	choicePhaseStart	2	116	56	foodImage.57	FOODEEG_Images\0587.jpg	NY	Left	No	0.986649299999954	0	409235	253
800.26171875	0	health	response	2	116	56	foodImage.57	FOODEEG_Images\0587.jpg	NY	Left	No	0.986649299999954	0	409735	234
801.3046875	1	taste	trialStart	2	117	57	foodImage.93	FOODEEG_Images\0901.jpg	YN	Right	No	0.786189100000229	0	410269	251
802.34375	2	taste	foodImageDisplay	2	117	57	foodImage.93	FOODEEG_Images\0901.jpg	YN	Right	No	0.786189100000229	0	410801	252
804.396484375	0.786189100000229	taste	choicePhaseStart	2	117	57	foodImage.93	FOODEEG_Images\0901.jpg	YN	Right	No	0.786189100000229	0	411852	253
805.181640625	0	taste	response	2	117	57	foodImage.93	FOODEEG_Images\0901.jpg	YN	Right	No	0.786189100000229	0	412254	235
806.224609375	1	taste	trialStart	2	118	58	foodImage.93	FOODEEG_Images\0901.jpg	YN	Left	Yes	0.660106500000438	0	412788	251
807.267578125	2	health	foodImageDisplay	2	118	58	foodImage.74	FOODEEG_Images\0752.jpg	YN	Left	Yes	0.660106500000438	0	413322	252
809.31640625	0.660106500000438	health	choicePhaseStart	2	118	58	foodImage.74	FOODEEG_Images\0752.jpg	YN	Left	Yes	0.660106500000438	0	414371	253
809.974609375	0	health	response	2	118	58	foodImage.74	FOODEEG_Images\0752.jpg	YN	Left	Yes	0.660106500000438	0	414708	234
811.021484375	1	taste	trialStart	2	119	59	foodImage.74	FOODEEG_Images\0752.jpg	YN	Left	Yes	0.683841199999733	0	415244	251
812.060546875	2	taste	foodImageDisplay	2	119	59	foodImage.35	FOODEEG_Images\0350.jpg	YN	Left	Yes	0.683841199999733	0	415776	252
814.107421875	0.683841199999733	taste	choicePhaseStart	2	119	59	foodImage.35	FOODEEG_Images\0350.jpg	YN	Left	Yes	0.683841199999733	0	416824	253
814.7890625	0	taste	response	2	119	59	foodImage.35	FOODEEG_Images\0350.jpg	YN	Left	Yes	0.683841199999733	0	417173	234
815.83203125	1	taste	trialStart	2	120	60	foodImage.80	FOODEEG_Images\0796.jpg	NY	Right	Yes	0.676259100000607	0	417707	251
816.888671875	2	health	foodImageDisplay	2	120	60	foodImage.80	FOODEEG_Images\0796.jpg	NY	Right	Yes	0.676259100000607	0	418248	252
818.953125	0.676259100000607	health	choicePhaseStart	2	120	60	foodImage.80	FOODEEG_Images\0796.jpg	NY	Right	Yes	0.676259100000607	0	419305	253
819.62109375	0	health	response	2	120	60	foodImage.80	FOODEEG_Images\0796.jpg	NY	Right	Yes	0.676259100000607	0	419647	235
821.6640625	8.13671875	n/a	blockEnd	2	n/a	n/a	n/a		YN	n/a	n/a	n/a	n/a	420693	254
829.80078125	2	n/a	blockStart	3	n/a	n/a	n/a		YN	n/a	n/a	n/a	n/a	424859	250
831.837890625	1	decision	trialStart	3	121	1	foodImage.89	FOODEEG_Images\0881.jpg	NY	Right	Yes	0.806652299999769	0	425902	251
832.89453125	2	decision	foodImageDisplay	3	121	1	foodImage.89	FOODEEG_Images\0881.jpg	NY	Right	Yes	0.806652299999769	0	426443	252
834.958984375	0.806652299999769	decision	choicePhaseStart	3	121	1	foodImage.89	FOODEEG_Images\0881.jpg	NY	Right	Yes	0.806652299999769	0	427500	253
835.755859375	0	decision	response	3	121	1	foodImage.89	FOODEEG_Images\0881.jpg	NY	Right	Yes	0.806652299999769	0	427908	235
836.798828125	1	decision	trialStart	3	122	2	foodImage.106	FOODEEG_Images\0914.jpg	NY	Left	No	0.717678400000295	0	428442	251
837.83984375	2	decision	foodImageDisplay	3	122	2	foodImage.106	FOODEEG_Images\0914.jpg	NY	Left	No	0.717678400000295	0	428975	252
839.904296875	0.717678400000295	decision	choicePhaseStart	3	122	2	foodImage.106	FOODEEG_Images\0914.jpg	NY	Left	No	0.717678400000295	0	430032	253
840.611328125	0	decision	response	3	122	2	foodImage.106	FOODEEG_Images\0914.jpg	NY	Left	No	0.717678400000295	0	430394	234
841.65625	1	health	trialStart	3	123	3	foodImage.34	FOODEEG_Images\0339.jpg	NY	Left	No	0.675909999999931	0	430929	251
842.712890625	2	health	foodImageDisplay	3	123	3	foodImage.34	FOODEEG_Images\0339.jpg	NY	Left	No	0.675909999999931	0	431470	252
844.77734375	0.675909999999931	health	choicePhaseStart	3	123	3	foodImage.34	FOODEEG_Images\0339.jpg	NY	Left	No	0.675909999999931	0	432527	253
845.443359375	0	health	response	3	123	3	foodImage.34	FOODEEG_Images\0339.jpg	NY	Left	No	0.675909999999931	0	432868	234
846.486328125	1	decision	trialStart	3	124	4	foodImage.71	FOODEEG_Images\0713.jpg	YN	Left	Yes	0.711501699999644	0	433402	251
847.529296875	2	decision	foodImageDisplay	3	124	4	foodImage.71	FOODEEG_Images\0713.jpg	YN	Left	Yes	0.711501699999644	0	433936	252
849.576171875	0.711501699999644	decision	choicePhaseStart	3	124	4	foodImage.71	FOODEEG_Images\0713.jpg	YN	Left	Yes	0.711501699999644	0	434984	253
850.283203125	0	decision	response	3	124	4	foodImage.71	FOODEEG_Images\0713.jpg	YN	Left	Yes	0.711501699999644	0	435346	234
851.326171875	1	decision	trialStart	3	125	5	foodImage.71	FOODEEG_Images\0713.jpg	YN	Left	Yes	0.653421600000001	0	435880	251
852.369140625	2	health	foodImageDisplay	3	125	5	foodImage.26	FOODEEG_Images\0262.jpg	YN	Left	Yes	0.653421600000001	0	436414	252
854.41796875	0.653421600000001	health	choicePhaseStart	3	125	5	foodImage.26	FOODEEG_Images\0262.jpg	YN	Left	Yes	0.653421600000001	0	437463	253
855.068359375	0	health	response	3	125	5	foodImage.26	FOODEEG_Images\0262.jpg	YN	Left	Yes	0.653421600000001	0	437796	234
856.109375	1	decision	trialStart	3	126	6	foodImage.88	FOODEEG_Images\0878.jpg	NY	Right	Yes	0.780606100000114	0	438329	251
857.18359375	2	decision	foodImageDisplay	3	126	6	foodImage.88	FOODEEG_Images\0878.jpg	NY	Right	Yes	0.780606100000114	0	438879	252
859.248046875	0.780606100000114	decision	choicePhaseStart	3	126	6	foodImage.88	FOODEEG_Images\0878.jpg	NY	Right	Yes	0.780606100000114	0	439936	253
860.01953125	0	decision	response	3	126	6	foodImage.88	FOODEEG_Images\0878.jpg	NY	Right	Yes	0.780606100000114	0	440331	235
861.0625	1	decision	trialStart	3	127	7	foodImage.13	FOODEEG_Images\0183.jpg	YN	Left	Yes	0.89862390000053	0	440865	251
862.115234375	2	decision	foodImageDisplay	3	127	7	foodImage.13	FOODEEG_Images\0183.jpg	YN	Left	Yes	0.89862390000053	0	441404	252
864.1640625	0.89862390000053	decision	choicePhaseStart	3	127	7	foodImage.13	FOODEEG_Images\0183.jpg	YN	Left	Yes	0.89862390000053	0	442453	253
865.05859375	0	decision	response	3	127	7	foodImage.13	FOODEEG_Images\0183.jpg	YN	Left	Yes	0.89862390000053	0	442911	234
866.1015625	1	decision	trialStart	3	128	8	foodImage.40	FOODEEG_Images\0373.jpg	NY	Right	Yes	0.861093800000162	0	443445	251
867.142578125	2	decision	foodImageDisplay	3	128	8	foodImage.40	FOODEEG_Images\0373.jpg	NY	Right	Yes	0.861093800000162	0	443978	252
869.20703125	0.861093800000162	decision	choicePhaseStart	3	128	8	foodImage.40	FOODEEG_Images\0373.jpg	NY	Right	Yes	0.861093800000162	0	445035	253
870.05859375	0	decision	response	3	128	8	foodImage.40	FOODEEG_Images\0373.jpg	NY	Right	Yes	0.861093800000162	0	445471	235
871.103515625	1	taste	trialStart	3	129	9	foodImage.112	FOODEEG_Images\0920.jpg	YN	Right	No	0.879322400000092	0	446006	251
872.142578125	2	taste	foodImageDisplay	3	129	9	foodImage.112	FOODEEG_Images\0920.jpg	YN	Right	No	0.879322400000092	0	446538	252
874.19140625	0.879322400000092	taste	choicePhaseStart	3	129	9	foodImage.112	FOODEEG_Images\0920.jpg	YN	Right	No	0.879322400000092	0	447587	253
875.06640625	0	taste	response	3	129	9	foodImage.112	FOODEEG_Images\0920.jpg	YN	Right	No	0.879322400000092	0	448035	235
876.109375	1	decision	trialStart	3	130	10	foodImage.112	FOODEEG_Images\0920.jpg	YN	Left	Yes	0.898445400000128	0	448569	251
877.15234375	2	decision	foodImageDisplay	3	130	10	foodImage.69	FOODEEG_Images\0693.jpg	YN	Left	Yes	0.898445400000128	0	449103	252
879.203125	0.898445400000128	decision	choicePhaseStart	3	130	10	foodImage.69	FOODEEG_Images\0693.jpg	YN	Left	Yes	0.898445400000128	0	450153	253
880.099609375	0	decision	response	3	130	10	foodImage.69	FOODEEG_Images\0693.jpg	YN	Left	Yes	0.898445400000128	0	450612	234
881.142578125	1	decision	trialStart	3	131	11	foodImage.69	FOODEEG_Images\0693.jpg	NY	Right	Yes	0.846203499999319	0	451146	251
882.18359375	2	taste	foodImageDisplay	3	131	11	foodImage.30	FOODEEG_Images\0282.jpg	NY	Right	Yes	0.846203499999319	0	451679	252
884.24609375	0.846203499999319	taste	choicePhaseStart	3	131	11	foodImage.30	FOODEEG_Images\0282.jpg	NY	Right	Yes	0.846203499999319	0	452735	253
885.08203125	0	taste	response	3	131	11	foodImage.30	FOODEEG_Images\0282.jpg	NY	Right	Yes	0.846203499999319	0	453163	235
886.125	1	health	trialStart	3	132	12	foodImage.16	FOODEEG_Images\0196.jpg	YN	Left	Yes	0.644966899999417	0	453697	251
887.18359375	2	health	foodImageDisplay	3	132	12	foodImage.16	FOODEEG_Images\0196.jpg	YN	Left	Yes	0.644966899999417	0	454239	252
889.23046875	0.644966899999417	health	choicePhaseStart	3	132	12	foodImage.16	FOODEEG_Images\0196.jpg	YN	Left	Yes	0.644966899999417	0	455287	253
889.875	0	health	response	3	132	12	foodImage.16	FOODEEG_Images\0196.jpg	YN	Left	Yes	0.644966899999417	0	455617	234
890.916015625	1	taste	trialStart	3	133	13	foodImage.39	FOODEEG_Images\0367.jpg	YN	Left	Yes	1.27167490000011	0	456150	251
891.95703125	2	taste	foodImageDisplay	3	133	13	foodImage.39	FOODEEG_Images\0367.jpg	YN	Left	Yes	1.27167490000011	0	456683	252
894.005859375	1.27167490000011	taste	choicePhaseStart	3	133	13	foodImage.39	FOODEEG_Images\0367.jpg	YN	Left	Yes	1.27167490000011	0	457732	253
895.2734375	0	taste	response	3	133	13	foodImage.39	FOODEEG_Images\0367.jpg	YN	Left	Yes	1.27167490000011	0	458381	234
896.31640625	1	taste	trialStart	3	134	14	foodImage.70	FOODEEG_Images\0705.jpg	NY	Left	No	1.20484889999989	0	458915	251
897.375	2	health	foodImageDisplay	3	134	14	foodImage.70	FOODEEG_Images\0705.jpg	NY	Left	No	1.20484889999989	0	459457	252
899.439453125	1.20484889999989	health	choicePhaseStart	3	134	14	foodImage.70	FOODEEG_Images\0705.jpg	NY	Left	No	1.20484889999989	0	460514	253
900.634765625	0	health	response	3	134	14	foodImage.70	FOODEEG_Images\0705.jpg	NY	Left	No	1.20484889999989	0	461126	234
901.693359375	1	taste	trialStart	3	135	15	foodImage.44	FOODEEG_Images\0459.jpg	NY	Right	Yes	0.952768299999661	0	461668	251
902.73828125	2	taste	foodImageDisplay	3	135	15	foodImage.44	FOODEEG_Images\0459.jpg	NY	Right	Yes	0.952768299999661	0	462203	252
904.802734375	0.952768299999661	taste	choicePhaseStart	3	135	15	foodImage.44	FOODEEG_Images\0459.jpg	NY	Right	Yes	0.952768299999661	0	463260	253
905.74609375	0	taste	response	3	135	15	foodImage.44	FOODEEG_Images\0459.jpg	NY	Right	Yes	0.952768299999661	0	463743	235
906.7890625	1	taste	trialStart	3	136	16	foodImage.48	FOODEEG_Images\0494.jpg	NY	Right	Yes	0.932552899999791	0	464277	251
907.830078125	2	taste	foodImageDisplay	3	136	16	foodImage.48	FOODEEG_Images\0494.jpg	NY	Right	Yes	0.932552899999791	0	464810	252
909.89453125	0.932552899999791	taste	choicePhaseStart	3	136	16	foodImage.48	FOODEEG_Images\0494.jpg	NY	Right	Yes	0.932552899999791	0	465867	253
910.818359375	0	taste	response	3	136	16	foodImage.48	FOODEEG_Images\0494.jpg	NY	Right	Yes	0.932552899999791	0	466340	235
911.859375	1	decision	trialStart	3	137	17	foodImage.20	FOODEEG_Images\0226.jpg	NY	Left	No	0.814356500000031	0	466873	251
912.900390625	2	decision	foodImageDisplay	3	137	17	foodImage.20	FOODEEG_Images\0226.jpg	NY	Left	No	0.814356500000031	0	467406	252
914.96484375	0.814356500000031	decision	choicePhaseStart	3	137	17	foodImage.20	FOODEEG_Images\0226.jpg	NY	Left	No	0.814356500000031	0	468463	253
915.76953125	0	decision	response	3	137	17	foodImage.20	FOODEEG_Images\0226.jpg	NY	Left	No	0.814356500000031	0	468875	234
916.8125	1	health	trialStart	3	138	18	foodImage.82	FOODEEG_Images\0805.jpg	YN	Left	Yes	0.858256800000163	0	469409	251
917.8671875	2	health	foodImageDisplay	3	138	18	foodImage.82	FOODEEG_Images\0805.jpg	YN	Left	Yes	0.858256800000163	0	469949	252
919.921875	0.858256800000163	health	choicePhaseStart	3	138	18	foodImage.82	FOODEEG_Images\0805.jpg	YN	Left	Yes	0.858256800000163	0	471001	253
920.77734375	0	health	response	3	138	18	foodImage.82	FOODEEG_Images\0805.jpg	YN	Left	Yes	0.858256800000163	0	471439	234
921.8203125	1	taste	trialStart	3	139	19	foodImage.108	FOODEEG_Images\0916.jpg	YN	Right	No	0.688745800000106	0	471973	251
922.861328125	2	taste	foodImageDisplay	3	139	19	foodImage.108	FOODEEG_Images\0916.jpg	YN	Right	No	0.688745800000106	0	472506	252
924.908203125	0.688745800000106	taste	choicePhaseStart	3	139	19	foodImage.108	FOODEEG_Images\0916.jpg	YN	Right	No	0.688745800000106	0	473554	253
925.59375	0	taste	response	3	139	19	foodImage.108	FOODEEG_Images\0916.jpg	YN	Right	No	0.688745800000106	0	473905	235
926.634765625	1	taste	trialStart	3	140	20	foodImage.108	FOODEEG_Images\0916.jpg	NY	Right	Yes	0.720093400000223	0	474438	251
927.69140625	2	taste	foodImageDisplay	3	140	20	foodImage.18	FOODEEG_Images\0202.jpg	NY	Right	Yes	0.720093400000223	0	474979	252
929.75390625	0.720093400000223	taste	choicePhaseStart	3	140	20	foodImage.18	FOODEEG_Images\0202.jpg	NY	Right	Yes	0.720093400000223	0	476035	253
930.46484375	0	taste	response	3	140	20	foodImage.18	FOODEEG_Images\0202.jpg	NY	Right	Yes	0.720093400000223	0	476399	235
931.5078125	1	health	trialStart	3	141	21	foodImage.96	FOODEEG_Images\0904.jpg	NY	Left	No	1.06731500000024	0	476933	251
932.55078125	2	health	foodImageDisplay	3	141	21	foodImage.96	FOODEEG_Images\0904.jpg	NY	Left	No	1.06731500000024	0	477467	252
934.615234375	1.06731500000024	health	choicePhaseStart	3	141	21	foodImage.96	FOODEEG_Images\0904.jpg	NY	Left	No	1.06731500000024	0	478524	253
935.671875	0	health	response	3	141	21	foodImage.96	FOODEEG_Images\0904.jpg	NY	Left	No	1.06731500000024	0	479065	234
936.71484375	1	decision	trialStart	3	142	22	foodImage.73	FOODEEG_Images\0717.jpg	YN	Right	No	0.952228899999682	0	479599	251
937.771484375	2	decision	foodImageDisplay	3	142	22	foodImage.73	FOODEEG_Images\0717.jpg	YN	Right	No	0.952228899999682	0	480140	252
939.818359375	0.952228899999682	decision	choicePhaseStart	3	142	22	foodImage.73	FOODEEG_Images\0717.jpg	YN	Right	No	0.952228899999682	0	481188	253
940.767578125	0	decision	response	3	142	22	foodImage.73	FOODEEG_Images\0717.jpg	YN	Right	No	0.952228899999682	0	481674	235
941.810546875	1	decision	trialStart	3	143	23	foodImage.92	FOODEEG_Images\0900.jpg	NY	Left	No	0.696400900000299	0	482208	251
942.849609375	2	decision	foodImageDisplay	3	143	23	foodImage.92	FOODEEG_Images\0900.jpg	NY	Left	No	0.696400900000299	0	482740	252
944.9140625	0.696400900000299	decision	choicePhaseStart	3	143	23	foodImage.92	FOODEEG_Images\0900.jpg	NY	Left	No	0.696400900000299	0	483797	253
945.599609375	0	decision	response	3	143	23	foodImage.92	FOODEEG_Images\0900.jpg	NY	Left	No	0.696400900000299	0	484148	234
946.642578125	1	health	trialStart	3	144	24	foodImage.8	FOODEEG_Images\0136.jpg	NY	Right	Yes	2.10620130000007	0	484682	251
947.6875	2	health	foodImageDisplay	3	144	24	foodImage.8	FOODEEG_Images\0136.jpg	NY	Right	Yes	2.10620130000007	0	485217	252
949.75	2.10620130000007	health	choicePhaseStart	3	144	24	foodImage.8	FOODEEG_Images\0136.jpg	NY	Right	Yes	2.10620130000007	0	486273	253
951.84765625	0	health	response	3	144	24	foodImage.8	FOODEEG_Images\0136.jpg	NY	Right	Yes	2.10620130000007	0	487347	235
952.890625	1	health	trialStart	3	145	25	foodImage.25	FOODEEG_Images\0261.jpg	YN	Left	Yes	0.877762999999504	0	487881	251
953.93359375	2	health	foodImageDisplay	3	145	25	foodImage.25	FOODEEG_Images\0261.jpg	YN	Left	Yes	0.877762999999504	0	488415	252
955.98046875	0.877762999999504	health	choicePhaseStart	3	145	25	foodImage.25	FOODEEG_Images\0261.jpg	YN	Left	Yes	0.877762999999504	0	489463	253
956.85546875	0	health	response	3	145	25	foodImage.25	FOODEEG_Images\0261.jpg	YN	Left	Yes	0.877762999999504	0	489911	234
957.8984375	1	taste	trialStart	3	146	26	foodImage.82	FOODEEG_Images\0805.jpg	NY	Right	Yes	0.835526300000311	0	490445	251
958.966796875	2	taste	foodImageDisplay	3	146	26	foodImage.82	FOODEEG_Images\0805.jpg	NY	Right	Yes	0.835526300000311	0	490992	252
961.03125	0.835526300000311	taste	choicePhaseStart	3	146	26	foodImage.82	FOODEEG_Images\0805.jpg	NY	Right	Yes	0.835526300000311	0	492049	253
961.85546875	0	taste	response	3	146	26	foodImage.82	FOODEEG_Images\0805.jpg	NY	Right	Yes	0.835526300000311	0	492471	235
962.8984375	1	decision	trialStart	3	147	27	foodImage.27	FOODEEG_Images\0263.jpg	NY	Right	Yes	0.768875299999308	0	493005	251
963.94140625	2	decision	foodImageDisplay	3	147	27	foodImage.27	FOODEEG_Images\0263.jpg	NY	Right	Yes	0.768875299999308	0	493539	252
966.005859375	0.768875299999308	decision	choicePhaseStart	3	147	27	foodImage.27	FOODEEG_Images\0263.jpg	NY	Right	Yes	0.768875299999308	0	494596	253
966.767578125	0	decision	response	3	147	27	foodImage.27	FOODEEG_Images\0263.jpg	NY	Right	Yes	0.768875299999308	0	494986	235
967.810546875	1	health	trialStart	3	148	28	foodImage.39	FOODEEG_Images\0367.jpg	YN	Right	No	0.679553199999646	0	495520	251
968.849609375	2	health	foodImageDisplay	3	148	28	foodImage.39	FOODEEG_Images\0367.jpg	YN	Right	No	0.679553199999646	0	496052	252
970.8984375	0.679553199999646	health	choicePhaseStart	3	148	28	foodImage.39	FOODEEG_Images\0367.jpg	YN	Right	No	0.679553199999646	0	497101	253
971.57421875	0	health	response	3	148	28	foodImage.39	FOODEEG_Images\0367.jpg	YN	Right	No	0.679553199999646	0	497447	235
972.6171875	1	taste	trialStart	3	149	29	foodImage.47	FOODEEG_Images\0488.jpg	YN	Left	Yes	0.759488700000475	0	497981	251
973.658203125	2	taste	foodImageDisplay	3	149	29	foodImage.47	FOODEEG_Images\0488.jpg	YN	Left	Yes	0.759488700000475	0	498514	252
975.70703125	0.759488700000475	taste	choicePhaseStart	3	149	29	foodImage.47	FOODEEG_Images\0488.jpg	YN	Left	Yes	0.759488700000475	0	499563	253
976.462890625	0	taste	response	3	149	29	foodImage.47	FOODEEG_Images\0488.jpg	YN	Left	Yes	0.759488700000475	0	499950	234
977.505859375	1	taste	trialStart	3	150	30	foodImage.47	FOODEEG_Images\0488.jpg	NY	Left	No	0.8521767000002	0	500484	251
978.5625	2	health	foodImageDisplay	3	150	30	foodImage.4	FOODEEG_Images\0065.jpg	NY	Left	No	0.8521767000002	0	501025	252
980.626953125	0.8521767000002	health	choicePhaseStart	3	150	30	foodImage.4	FOODEEG_Images\0065.jpg	NY	Left	No	0.8521767000002	0	502082	253
981.470703125	0	health	response	3	150	30	foodImage.4	FOODEEG_Images\0065.jpg	NY	Left	No	0.8521767000002	0	502514	234
982.513671875	1	health	trialStart	3	151	31	foodImage.58	FOODEEG_Images\0605.jpg	NY	Right	Yes	1.05826040000011	0	503048	251
983.5703125	2	health	foodImageDisplay	3	151	31	foodImage.58	FOODEEG_Images\0605.jpg	NY	Right	Yes	1.05826040000011	0	503589	252
985.634765625	1.05826040000011	health	choicePhaseStart	3	151	31	foodImage.58	FOODEEG_Images\0605.jpg	NY	Right	Yes	1.05826040000011	0	504646	253
986.6875	0	health	response	3	151	31	foodImage.58	FOODEEG_Images\0605.jpg	NY	Right	Yes	1.05826040000011	0	505185	235
987.728515625	1	taste	trialStart	3	152	32	foodImage.97	FOODEEG_Images\0905.jpg	YN	Right	No	0.696421199999349	0	505718	251
988.76953125	2	taste	foodImageDisplay	3	152	32	foodImage.97	FOODEEG_Images\0905.jpg	YN	Right	No	0.696421199999349	0	506251	252
990.81640625	0.696421199999349	taste	choicePhaseStart	3	152	32	foodImage.97	FOODEEG_Images\0905.jpg	YN	Right	No	0.696421199999349	0	507299	253
991.509765625	0	taste	response	3	152	32	foodImage.97	FOODEEG_Images\0905.jpg	YN	Right	No	0.696421199999349	0	507654	235
992.552734375	1	taste	trialStart	3	153	33	foodImage.97	FOODEEG_Images\0905.jpg	NY	Left	No	2.20892989999993	0	508188	251
993.591796875	2	health	foodImageDisplay	3	153	33	foodImage.35	FOODEEG_Images\0350.jpg	NY	Left	No	2.20892989999993	0	508720	252
995.654296875	2.20892989999993	health	choicePhaseStart	3	153	33	foodImage.35	FOODEEG_Images\0350.jpg	NY	Left	No	2.20892989999993	0	509776	253
997.853515625	0	health	response	3	153	33	foodImage.35	FOODEEG_Images\0350.jpg	NY	Left	No	2.20892989999993	0	510902	234
998.896484375	1	decision	trialStart	3	154	34	foodImage.63	FOODEEG_Images\0645.jpg	YN	Right	No	1.01073869999982	0	511436	251
999.939453125	2	decision	foodImageDisplay	3	154	34	foodImage.63	FOODEEG_Images\0645.jpg	YN	Right	No	1.01073869999982	0	511970	252
1001.990234375	1.01073869999982	decision	choicePhaseStart	3	154	34	foodImage.63	FOODEEG_Images\0645.jpg	YN	Right	No	1.01073869999982	0	513020	253
1002.998046875	0	decision	response	3	154	34	foodImage.63	FOODEEG_Images\0645.jpg	YN	Right	No	1.01073869999982	0	513536	235
1004.041015625	1	decision	trialStart	3	155	35	foodImage.63	FOODEEG_Images\0645.jpg	YN	Left	Yes	0.68323270000019	0	514070	251
1005.099609375	2	health	foodImageDisplay	3	155	35	foodImage.43	FOODEEG_Images\0445.jpg	YN	Left	Yes	0.68323270000019	0	514612	252
1007.1484375	0.68323270000019	health	choicePhaseStart	3	155	35	foodImage.43	FOODEEG_Images\0445.jpg	YN	Left	Yes	0.68323270000019	0	515661	253
1007.830078125	0	health	response	3	155	35	foodImage.43	FOODEEG_Images\0445.jpg	YN	Left	Yes	0.68323270000019	0	516010	234
1008.873046875	1	taste	trialStart	3	156	36	foodImage.118	FOODEEG_Images\0926.jpg	YN	Right	No	0.744289000000208	0	516544	251
1009.912109375	2	taste	foodImageDisplay	3	156	36	foodImage.118	FOODEEG_Images\0926.jpg	YN	Right	No	0.744289000000208	0	517076	252
1011.9609375	0.744289000000208	taste	choicePhaseStart	3	156	36	foodImage.118	FOODEEG_Images\0926.jpg	YN	Right	No	0.744289000000208	0	518125	253
1012.701171875	0	taste	response	3	156	36	foodImage.118	FOODEEG_Images\0926.jpg	YN	Right	No	0.744289000000208	0	518504	235
1013.744140625	1	taste	trialStart	3	157	37	foodImage.118	FOODEEG_Images\0926.jpg	YN	Left	Yes	0.71193459999995	0	519038	251
1014.80078125	2	taste	foodImageDisplay	3	157	37	foodImage.40	FOODEEG_Images\0373.jpg	YN	Left	Yes	0.71193459999995	0	519579	252
1016.84765625	0.71193459999995	taste	choicePhaseStart	3	157	37	foodImage.40	FOODEEG_Images\0373.jpg	YN	Left	Yes	0.71193459999995	0	520627	253
1017.556640625	0	taste	response	3	157	37	foodImage.40	FOODEEG_Images\0373.jpg	YN	Left	Yes	0.71193459999995	0	520990	234
1018.599609375	1	taste	trialStart	3	158	38	foodImage.101	FOODEEG_Images\0909.jpg	NY	Right	Yes	1.6144776000001	0	521524	251
1019.640625	2	health	foodImageDisplay	3	158	38	foodImage.101	FOODEEG_Images\0909.jpg	NY	Right	Yes	1.6144776000001	0	522057	252
1021.705078125	1.6144776000001	health	choicePhaseStart	3	158	38	foodImage.101	FOODEEG_Images\0909.jpg	NY	Right	Yes	1.6144776000001	0	523114	253
1023.30859375	0	health	response	3	158	38	foodImage.101	FOODEEG_Images\0909.jpg	NY	Right	Yes	1.6144776000001	0	523935	235
1024.3515625	1	health	trialStart	3	159	39	foodImage.109	FOODEEG_Images\0917.jpg	YN	Right	No	0.994268999999804	0	524469	251
1025.390625	2	health	foodImageDisplay	3	159	39	foodImage.109	FOODEEG_Images\0917.jpg	YN	Right	No	0.994268999999804	0	525001	252
1027.4375	0.994268999999804	health	choicePhaseStart	3	159	39	foodImage.109	FOODEEG_Images\0917.jpg	YN	Right	No	0.994268999999804	0	526049	253
1028.4296875	0	health	response	3	159	39	foodImage.109	FOODEEG_Images\0917.jpg	YN	Right	No	0.994268999999804	0	526557	235
1029.470703125	1	taste	trialStart	3	160	40	foodImage.109	FOODEEG_Images\0917.jpg	YN	Left	Yes	1.43145430000004	0	527090	251
1030.560546875	2	taste	foodImageDisplay	3	160	40	foodImage.42	FOODEEG_Images\0438.jpg	YN	Left	Yes	1.43145430000004	0	527648	252
1032.609375	1.43145430000004	taste	choicePhaseStart	3	160	40	foodImage.42	FOODEEG_Images\0438.jpg	YN	Left	Yes	1.43145430000004	0	528697	253
1034.037109375	0	taste	response	3	160	40	foodImage.42	FOODEEG_Images\0438.jpg	YN	Left	Yes	1.43145430000004	0	529428	234
1035.078125	1	taste	trialStart	3	161	41	foodImage.56	FOODEEG_Images\0586.jpg	YN	Right	No	1.43139020000035	0	529961	251
1036.12109375	2	health	foodImageDisplay	3	161	41	foodImage.56	FOODEEG_Images\0586.jpg	YN	Right	No	1.43139020000035	0	530495	252
1038.17578125	1.43139020000035	health	choicePhaseStart	3	161	41	foodImage.56	FOODEEG_Images\0586.jpg	YN	Right	No	1.43139020000035	0	531547	253
1039.603515625	0	health	response	3	161	41	foodImage.56	FOODEEG_Images\0586.jpg	YN	Right	No	1.43139020000035	0	532278	235
1040.646484375	1	health	trialStart	3	162	42	foodImage.106	FOODEEG_Images\0914.jpg	YN	Right	No	0.984803399999691	0	532812	251
1041.685546875	2	health	foodImageDisplay	3	162	42	foodImage.106	FOODEEG_Images\0914.jpg	YN	Right	No	0.984803399999691	0	533344	252
1043.734375	0.984803399999691	health	choicePhaseStart	3	162	42	foodImage.106	FOODEEG_Images\0914.jpg	YN	Right	No	0.984803399999691	0	534393	253
1044.716796875	0	health	response	3	162	42	foodImage.106	FOODEEG_Images\0914.jpg	YN	Right	No	0.984803399999691	0	534896	235
1045.763671875	1	decision	trialStart	3	163	43	foodImage.106	FOODEEG_Images\0914.jpg	YN	Left	Yes	0.80287060000046	0	535432	251
1046.8046875	2	decision	foodImageDisplay	3	163	43	foodImage.24	FOODEEG_Images\0250.jpg	YN	Left	Yes	0.80287060000046	0	535965	252
1048.8515625	0.80287060000046	decision	choicePhaseStart	3	163	43	foodImage.24	FOODEEG_Images\0250.jpg	YN	Left	Yes	0.80287060000046	0	537013	253
1049.65234375	0	decision	response	3	163	43	foodImage.24	FOODEEG_Images\0250.jpg	YN	Left	Yes	0.80287060000046	0	537423	234
1050.6953125	1	decision	trialStart	3	164	44	foodImage.24	FOODEEG_Images\0250.jpg	NY	Right	Yes	0.793681699999979	0	537957	251
1051.755859375	2	health	foodImageDisplay	3	164	44	foodImage.18	FOODEEG_Images\0202.jpg	NY	Right	Yes	0.793681699999979	0	538500	252
1053.8203125	0.793681699999979	health	choicePhaseStart	3	164	44	foodImage.18	FOODEEG_Images\0202.jpg	NY	Right	Yes	0.793681699999979	0	539557	253
1054.603515625	0	health	response	3	164	44	foodImage.18	FOODEEG_Images\0202.jpg	NY	Right	Yes	0.793681699999979	0	539958	235
1055.646484375	1	taste	trialStart	3	165	45	foodImage.77	FOODEEG_Images\0771.jpg	NY	Right	Yes	1.05065809999996	0	540492	251
1056.689453125	2	taste	foodImageDisplay	3	165	45	foodImage.77	FOODEEG_Images\0771.jpg	NY	Right	Yes	1.05065809999996	0	541026	252
1058.75390625	1.05065809999996	taste	choicePhaseStart	3	165	45	foodImage.77	FOODEEG_Images\0771.jpg	NY	Right	Yes	1.05065809999996	0	542083	253
1059.796875	0	taste	response	3	165	45	foodImage.77	FOODEEG_Images\0771.jpg	NY	Right	Yes	1.05065809999996	0	542617	235
1060.83984375	1	taste	trialStart	3	166	46	foodImage.49	FOODEEG_Images\0515.jpg	NY	Right	Yes	0.945373800000198	0	543151	251
1061.880859375	2	taste	foodImageDisplay	3	166	46	foodImage.49	FOODEEG_Images\0515.jpg	NY	Right	Yes	0.945373800000198	0	543684	252
1063.9453125	0.945373800000198	taste	choicePhaseStart	3	166	46	foodImage.49	FOODEEG_Images\0515.jpg	NY	Right	Yes	0.945373800000198	0	544741	253
1064.8828125	0	taste	response	3	166	46	foodImage.49	FOODEEG_Images\0515.jpg	NY	Right	Yes	0.945373800000198	0	545221	235
1065.927734375	1	decision	trialStart	3	167	47	foodImage.62	FOODEEG_Images\0644.jpg	NY	Right	Yes	1.188537	0	545756	251
1066.984375	2	decision	foodImageDisplay	3	167	47	foodImage.62	FOODEEG_Images\0644.jpg	NY	Right	Yes	1.188537	0	546297	252
1069.048828125	1.188537	decision	choicePhaseStart	3	167	47	foodImage.62	FOODEEG_Images\0644.jpg	NY	Right	Yes	1.188537	0	547354	253
1070.2265625	0	decision	response	3	167	47	foodImage.62	FOODEEG_Images\0644.jpg	NY	Right	Yes	1.188537	0	547957	235
1071.26953125	1	health	trialStart	3	168	48	foodImage.24	FOODEEG_Images\0250.jpg	NY	Right	Yes	0.748811899999964	0	548491	251
1072.310546875	2	health	foodImageDisplay	3	168	48	foodImage.24	FOODEEG_Images\0250.jpg	NY	Right	Yes	0.748811899999964	0	549024	252
1074.375	0.748811899999964	health	choicePhaseStart	3	168	48	foodImage.24	FOODEEG_Images\0250.jpg	NY	Right	Yes	0.748811899999964	0	550081	253
1075.115234375	0	health	response	3	168	48	foodImage.24	FOODEEG_Images\0250.jpg	NY	Right	Yes	0.748811899999964	0	550460	235
1076.158203125	1	taste	trialStart	3	169	49	foodImage.59	FOODEEG_Images\0607.jpg	YN	Right	No	1.28872750000028	0	550994	251
1077.205078125	2	taste	foodImageDisplay	3	169	49	foodImage.59	FOODEEG_Images\0607.jpg	YN	Right	No	1.28872750000028	0	551530	252
1079.251953125	1.28872750000028	taste	choicePhaseStart	3	169	49	foodImage.59	FOODEEG_Images\0607.jpg	YN	Right	No	1.28872750000028	0	552578	253
1080.5390625	0	taste	response	3	169	49	foodImage.59	FOODEEG_Images\0607.jpg	YN	Right	No	1.28872750000028	0	553237	235
1081.580078125	1	decision	trialStart	3	170	50	foodImage.59	FOODEEG_Images\0607.jpg	NY	Left	No	0.886650999999802	0	553770	251
1082.646484375	2	decision	foodImageDisplay	3	170	50	foodImage.51	FOODEEG_Images\0536.jpg	NY	Left	No	0.886650999999802	0	554316	252
1084.708984375	0.886650999999802	decision	choicePhaseStart	3	170	50	foodImage.51	FOODEEG_Images\0536.jpg	NY	Left	No	0.886650999999802	0	555372	253
1085.5859375	0	decision	response	3	170	50	foodImage.51	FOODEEG_Images\0536.jpg	NY	Left	No	0.886650999999802	0	555821	234
1086.62890625	1	decision	trialStart	3	171	51	foodImage.120	FOODEEG_Images\0928.jpg	NY	Left	No	0.743294400000195	0	556355	251
1087.66796875	2	decision	foodImageDisplay	3	171	51	foodImage.120	FOODEEG_Images\0928.jpg	NY	Left	No	0.743294400000195	0	556887	252
1089.732421875	0.743294400000195	decision	choicePhaseStart	3	171	51	foodImage.120	FOODEEG_Images\0928.jpg	NY	Left	No	0.743294400000195	0	557944	253
1090.466796875	0	decision	response	3	171	51	foodImage.120	FOODEEG_Images\0928.jpg	NY	Left	No	0.743294400000195	0	558320	234
1091.509765625	1	taste	trialStart	3	172	52	foodImage.72	FOODEEG_Images\0714.jpg	YN	Left	Yes	1.69381900000008	0	558854	251
1092.552734375	2	taste	foodImageDisplay	3	172	52	foodImage.72	FOODEEG_Images\0714.jpg	YN	Left	Yes	1.69381900000008	0	559388	252
1094.599609375	1.69381900000008	taste	choicePhaseStart	3	172	52	foodImage.72	FOODEEG_Images\0714.jpg	YN	Left	Yes	1.69381900000008	0	560436	253
1096.291015625	0	taste	response	3	172	52	foodImage.72	FOODEEG_Images\0714.jpg	YN	Left	Yes	1.69381900000008	0	561302	234
1097.333984375	1	taste	trialStart	3	173	53	foodImage.100	FOODEEG_Images\0908.jpg	NY	Left	No	0.91887670000051	0	561836	251
1098.388671875	2	health	foodImageDisplay	3	173	53	foodImage.100	FOODEEG_Images\0908.jpg	NY	Left	No	0.91887670000051	0	562376	252
1100.453125	0.91887670000051	health	choicePhaseStart	3	173	53	foodImage.100	FOODEEG_Images\0908.jpg	NY	Left	No	0.91887670000051	0	563433	253
1101.361328125	0	health	response	3	173	53	foodImage.100	FOODEEG_Images\0908.jpg	NY	Left	No	0.91887670000051	0	563898	234
1102.404296875	1	health	trialStart	3	174	54	foodImage.116	FOODEEG_Images\0924.jpg	NY	Right	Yes	1.62809499999912	0	564432	251
1103.4453125	2	health	foodImageDisplay	3	174	54	foodImage.116	FOODEEG_Images\0924.jpg	NY	Right	Yes	1.62809499999912	0	564965	252
1105.509765625	1.62809499999912	health	choicePhaseStart	3	174	54	foodImage.116	FOODEEG_Images\0924.jpg	NY	Right	Yes	1.62809499999912	0	566022	253
1107.130859375	0	health	response	3	174	54	foodImage.116	FOODEEG_Images\0924.jpg	NY	Right	Yes	1.62809499999912	0	566852	235
1108.173828125	1	taste	trialStart	3	175	55	foodImage.60	FOODEEG_Images\0614.jpg	YN	Left	Yes	1.3118086000004	0	567386	251
1109.23046875	2	taste	foodImageDisplay	3	175	55	foodImage.60	FOODEEG_Images\0614.jpg	YN	Left	Yes	1.3118086000004	0	567927	252
1111.27734375	1.3118086000004	taste	choicePhaseStart	3	175	55	foodImage.60	FOODEEG_Images\0614.jpg	YN	Left	Yes	1.3118086000004	0	568975	253
1112.5859375	0	taste	response	3	175	55	foodImage.60	FOODEEG_Images\0614.jpg	YN	Left	Yes	1.3118086000004	0	569645	234
1113.626953125	1	taste	trialStart	3	176	56	foodImage.60	FOODEEG_Images\0614.jpg	YN	Left	Yes	0.902717099999791	0	570178	251
1114.685546875	2	taste	foodImageDisplay	3	176	56	foodImage.50	FOODEEG_Images\0529.jpg	YN	Left	Yes	0.902717099999791	0	570720	252
1116.732421875	0.902717099999791	taste	choicePhaseStart	3	176	56	foodImage.50	FOODEEG_Images\0529.jpg	YN	Left	Yes	0.902717099999791	0	571768	253
1117.6328125	0	taste	response	3	176	56	foodImage.50	FOODEEG_Images\0529.jpg	YN	Left	Yes	0.902717099999791	0	572229	234
1118.673828125	1	decision	trialStart	3	177	57	foodImage.107	FOODEEG_Images\0915.jpg	NY	Left	No	1.09804050000002	0	572762	251
1119.712890625	2	decision	foodImageDisplay	3	177	57	foodImage.107	FOODEEG_Images\0915.jpg	NY	Left	No	1.09804050000002	0	573294	252
1121.775390625	1.09804050000002	decision	choicePhaseStart	3	177	57	foodImage.107	FOODEEG_Images\0915.jpg	NY	Left	No	1.09804050000002	0	574350	253
1122.865234375	0	decision	response	3	177	57	foodImage.107	FOODEEG_Images\0915.jpg	NY	Left	No	1.09804050000002	0	574908	234
1123.908203125	1	taste	trialStart	3	178	58	foodImage.115	FOODEEG_Images\0923.jpg	YN	Right	No	0.840459799999735	0	575442	251
1124.947265625	2	taste	foodImageDisplay	3	178	58	foodImage.115	FOODEEG_Images\0923.jpg	YN	Right	No	0.840459799999735	0	575974	252
1126.99609375	0.840459799999735	taste	choicePhaseStart	3	178	58	foodImage.115	FOODEEG_Images\0923.jpg	YN	Right	No	0.840459799999735	0	577023	253
1127.833984375	0	taste	response	3	178	58	foodImage.115	FOODEEG_Images\0923.jpg	YN	Right	No	0.840459799999735	0	577452	235
1128.875	1	taste	trialStart	3	179	59	foodImage.115	FOODEEG_Images\0923.jpg	NY	Right	Yes	0.811309499999879	0	577985	251
1129.935546875	2	taste	foodImageDisplay	3	179	59	foodImage.86	FOODEEG_Images\0844.jpg	NY	Right	Yes	0.811309499999879	0	578528	252
1132.001953125	0.811309499999879	taste	choicePhaseStart	3	179	59	foodImage.86	FOODEEG_Images\0844.jpg	NY	Right	Yes	0.811309499999879	0	579586	253
1132.80859375	0	taste	response	3	179	59	foodImage.86	FOODEEG_Images\0844.jpg	NY	Right	Yes	0.811309499999879	0	579999	235
1133.8515625	1	decision	trialStart	3	180	60	foodImage.67	FOODEEG_Images\0679.jpg	YN	Left	Yes	0.813511100000142	0	580533	251
1134.91015625	2	decision	foodImageDisplay	3	180	60	foodImage.67	FOODEEG_Images\0679.jpg	YN	Left	Yes	0.813511100000142	0	581075	252
1136.95703125	0.813511100000142	decision	choicePhaseStart	3	180	60	foodImage.67	FOODEEG_Images\0679.jpg	YN	Left	Yes	0.813511100000142	0	582123	253
1137.767578125	0	decision	response	3	180	60	foodImage.67	FOODEEG_Images\0679.jpg	YN	Left	Yes	0.813511100000142	0	582538	234
1139.80859375	13.79296875	decision	blockEnd	3	180	60	foodImage.67	FOODEEG_Images\0679.jpg	YN	n/a	n/a	0.813511100000142	0	583583	254
1153.6015625	2	n/a	blockStart	4	n/a	n/a	n/a		YN	n/a	n/a	n/a	n/a	590645	250
1155.63671875	1	decision	trialStart	4	181	1	foodImage.34	FOODEEG_Images\0339.jpg	NY	Left	No	0.70632999999998	0	591687	251
1156.6953125	2	decision	foodImageDisplay	4	181	1	foodImage.34	FOODEEG_Images\0339.jpg	NY	Left	No	0.70632999999998	0	592229	252
1158.759765625	0.70632999999998	decision	choicePhaseStart	4	181	1	foodImage.34	FOODEEG_Images\0339.jpg	NY	Left	No	0.70632999999998	0	593286	253
1159.45703125	0	decision	response	4	181	1	foodImage.34	FOODEEG_Images\0339.jpg	NY	Left	No	0.70632999999998	0	593643	234
1160.5	1	health	trialStart	4	182	2	foodImage.11	FOODEEG_Images\0180.jpg	NY	Right	Yes	1.26848199999949	0	594177	251
1161.541015625	2	health	foodImageDisplay	4	182	2	foodImage.11	FOODEEG_Images\0180.jpg	NY	Right	Yes	1.26848199999949	0	594710	252
1163.603515625	1.26848199999949	health	choicePhaseStart	4	182	2	foodImage.11	FOODEEG_Images\0180.jpg	NY	Right	Yes	1.26848199999949	0	595766	253
1164.86328125	0	health	response	4	182	2	foodImage.11	FOODEEG_Images\0180.jpg	NY	Right	Yes	1.26848199999949	0	596411	235
1165.90625	1	taste	trialStart	4	183	3	foodImage.34	FOODEEG_Images\0339.jpg	NY	Left	No	1.03611089999958	0	596945	251
1166.962890625	2	taste	foodImageDisplay	4	183	3	foodImage.34	FOODEEG_Images\0339.jpg	NY	Left	No	1.03611089999958	0	597486	252
1169.025390625	1.03611089999958	taste	choicePhaseStart	4	183	3	foodImage.34	FOODEEG_Images\0339.jpg	NY	Left	No	1.03611089999958	0	598542	253
1170.0546875	0	taste	response	4	183	3	foodImage.34	FOODEEG_Images\0339.jpg	NY	Left	No	1.03611089999958	0	599069	234
1171.09765625	1	health	trialStart	4	184	4	foodImage.7	FOODEEG_Images\0116.jpg	YN	Right	No	0.860747799999444	0	599603	251
1172.140625	2	health	foodImageDisplay	4	184	4	foodImage.7	FOODEEG_Images\0116.jpg	YN	Right	No	0.860747799999444	0	600137	252
1174.189453125	0.860747799999444	health	choicePhaseStart	4	184	4	foodImage.7	FOODEEG_Images\0116.jpg	YN	Right	No	0.860747799999444	0	601186	253
1175.046875	0	health	response	4	184	4	foodImage.7	FOODEEG_Images\0116.jpg	YN	Right	No	0.860747799999444	0	601625	235
1176.087890625	1	decision	trialStart	4	185	5	foodImage.45	FOODEEG_Images\0478.jpg	NY	Right	Yes	0.826330300000336	0	602158	251
1177.134765625	2	decision	foodImageDisplay	4	185	5	foodImage.45	FOODEEG_Images\0478.jpg	NY	Right	Yes	0.826330300000336	0	602694	252
1179.197265625	0.826330300000336	decision	choicePhaseStart	4	185	5	foodImage.45	FOODEEG_Images\0478.jpg	NY	Right	Yes	0.826330300000336	0	603750	253
1180.015625	0	decision	response	4	185	5	foodImage.45	FOODEEG_Images\0478.jpg	NY	Right	Yes	0.826330300000336	0	604169	235
1181.056640625	1	health	trialStart	4	186	6	foodImage.10	FOODEEG_Images\0145.jpg	NY	Left	No	0.886209999999664	0	604702	251
1182.115234375	2	health	foodImageDisplay	4	186	6	foodImage.10	FOODEEG_Images\0145.jpg	NY	Left	No	0.886209999999664	0	605244	252
1184.177734375	0.886209999999664	health	choicePhaseStart	4	186	6	foodImage.10	FOODEEG_Images\0145.jpg	NY	Left	No	0.886209999999664	0	606300	253
1185.0546875	0	health	response	4	186	6	foodImage.10	FOODEEG_Images\0145.jpg	NY	Left	No	0.886209999999664	0	606749	234
1186.09765625	1	health	trialStart	4	187	7	foodImage.75	FOODEEG_Images\0763.jpg	YN	Left	Yes	0.716514000000643	0	607283	251
1187.140625	2	health	foodImageDisplay	4	187	7	foodImage.75	FOODEEG_Images\0763.jpg	YN	Left	Yes	0.716514000000643	0	607817	252
1189.189453125	0.716514000000643	health	choicePhaseStart	4	187	7	foodImage.75	FOODEEG_Images\0763.jpg	YN	Left	Yes	0.716514000000643	0	608866	253
1189.90234375	0	health	response	4	187	7	foodImage.75	FOODEEG_Images\0763.jpg	YN	Left	Yes	0.716514000000643	0	609231	234
1190.9453125	1	taste	trialStart	4	188	8	foodImage.75	FOODEEG_Images\0763.jpg	NY	Right	Yes	0.979519800000162	0	609765	251
1191.98828125	2	taste	foodImageDisplay	4	188	8	foodImage.25	FOODEEG_Images\0261.jpg	NY	Right	Yes	0.979519800000162	0	610299	252
1194.052734375	0.979519800000162	taste	choicePhaseStart	4	188	8	foodImage.25	FOODEEG_Images\0261.jpg	NY	Right	Yes	0.979519800000162	0	611356	253
1195.0234375	0	taste	response	4	188	8	foodImage.25	FOODEEG_Images\0261.jpg	NY	Right	Yes	0.979519800000162	0	611853	235
1196.06640625	1	taste	trialStart	4	189	9	foodImage.109	FOODEEG_Images\0917.jpg	NY	Left	No	1.3996044000005	0	612387	251
1197.103515625	2	taste	foodImageDisplay	4	189	9	foodImage.109	FOODEEG_Images\0917.jpg	NY	Left	No	1.3996044000005	0	612918	252
1199.16796875	1.3996044000005	taste	choicePhaseStart	4	189	9	foodImage.109	FOODEEG_Images\0917.jpg	NY	Left	No	1.3996044000005	0	613975	253
1200.55859375	0	taste	response	4	189	9	foodImage.109	FOODEEG_Images\0917.jpg	NY	Left	No	1.3996044000005	0	614687	234
1201.6015625	1	health	trialStart	4	190	10	foodImage.31	FOODEEG_Images\0294.jpg	YN	Right	No	0.878852999999253	0	615221	251
1202.650390625	2	health	foodImageDisplay	4	190	10	foodImage.31	FOODEEG_Images\0294.jpg	YN	Right	No	0.878852999999253	0	615758	252
1204.697265625	0.878852999999253	health	choicePhaseStart	4	190	10	foodImage.31	FOODEEG_Images\0294.jpg	YN	Right	No	0.878852999999253	0	616806	253
1205.57421875	0	health	response	4	190	10	foodImage.31	FOODEEG_Images\0294.jpg	YN	Right	No	0.878852999999253	0	617255	235
1206.6171875	1	health	trialStart	4	191	11	foodImage.64	FOODEEG_Images\0647.jpg	YN	Left	Yes	0.821722599999703	0	617789	251
1207.67578125	2	health	foodImageDisplay	4	191	11	foodImage.64	FOODEEG_Images\0647.jpg	YN	Left	Yes	0.821722599999703	0	618331	252
1209.72265625	0.821722599999703	health	choicePhaseStart	4	191	11	foodImage.64	FOODEEG_Images\0647.jpg	YN	Left	Yes	0.821722599999703	0	619379	253
1210.541015625	0	health	response	4	191	11	foodImage.64	FOODEEG_Images\0647.jpg	YN	Left	Yes	0.821722599999703	0	619798	234
1211.583984375	1	health	trialStart	4	192	12	foodImage.86	FOODEEG_Images\0844.jpg	YN	Right	No	0.773557800000162	0	620332	251
1212.642578125	2	health	foodImageDisplay	4	192	12	foodImage.86	FOODEEG_Images\0844.jpg	YN	Right	No	0.773557800000162	0	620874	252
1214.689453125	0.773557800000162	health	choicePhaseStart	4	192	12	foodImage.86	FOODEEG_Images\0844.jpg	YN	Right	No	0.773557800000162	0	621922	253
1215.4609375	0	health	response	4	192	12	foodImage.86	FOODEEG_Images\0844.jpg	YN	Right	No	0.773557800000162	0	622317	235
1216.50390625	1	decision	trialStart	4	193	13	foodImage.86	FOODEEG_Images\0844.jpg	YN	Left	Yes	0.924527600000147	0	622851	251
1217.580078125	2	decision	foodImageDisplay	4	193	13	foodImage.68	FOODEEG_Images\0685.jpg	YN	Left	Yes	0.924527600000147	0	623402	252
