onset	duration	trial_type	event_type	block	trial_total	trial_in_block	food_image_code	food_image_path	button_position	resp_position	resp_choice	choice_rt	resp_too_slow	sample	trigger
253.787109375	2	n/a	blockStart	1	n/a	n/a	n/a	n/a	n/a	n/a	n/a	n/a	n/a	129940	250
255.82421875	1	decision	trialStart	1	1	1	foodImage.14	FOODEEG_Images\0188.jpg	NY	Right	Yes	0.830982899991795	0	130983	251
256.888671875	2	decision	foodImageDisplay	1	1	1	foodImage.14	FOODEEG_Images\0188.jpg	NY	Right	Yes	0.830982899991795	0	131528	252
258.955078125	0.830982899991795	decision	choicePhaseStart	1	1	1	foodImage.14	FOODEEG_Images\0188.jpg	NY	Right	Yes	0.830982899991795	0	132586	253
259.779296875	0	decision	response	1	1	1	foodImage.14	FOODEEG_Images\0188.jpg	NY	Right	Yes	0.830982899991795	0	133008	235
260.9765625	1	decision	trialStart	1	2	2	foodImage.89	FOODEEG_Images\0881.jpg	NY	Right	Yes	0.744917100004386	0	133621	251
262.03515625	2	decision	foodImageDisplay	1	2	2	foodImage.89	FOODEEG_Images\0881.jpg	NY	Right	Yes	0.744917100004386	0	134163	252
264.099609375	0.744917100004386	decision	choicePhaseStart	1	2	2	foodImage.89	FOODEEG_Images\0881.jpg	NY	Right	Yes	0.744917100004386	0	135220	253
264.833984375	0	decision	response	1	2	2	foodImage.89	FOODEEG_Images\0881.jpg	NY	Right	Yes	0.744917100004386	0	135596	235
265.88671875	1	health	trialStart	1	3	3	foodImage.109	FOODEEG_Images\0917.jpg	YN	Right	No	0.982834199967328	0	136135	251
266.927734375	2	health	foodImageDisplay	1	3	3	foodImage.109	FOODEEG_Images\0917.jpg	YN	Right	No	0.982834199967328	0	136668	252
269.00390625	0.982834199967328	health	choicePhaseStart	1	3	3	foodImage.109	FOODEEG_Images\0917.jpg	YN	Right	No	0.982834199967328	0	137731	253
269.978515625	0	health	response	1	3	3	foodImage.109	FOODEEG_Images\0917.jpg	YN	Right	No	0.982834199967328	0	138230	235
271.01953125	1	health	trialStart	1	4	4	foodImage.50	FOODEEG_Images\0529.jpg	NY	Right	Yes	0.771144800004549	0	138763	251
272.078125	2	health	foodImageDisplay	1	4	4	foodImage.50	FOODEEG_Images\0529.jpg	NY	Right	Yes	0.771144800004549	0	139305	252
274.14453125	0.771144800004549	health	choicePhaseStart	1	4	4	foodImage.50	FOODEEG_Images\0529.jpg	NY	Right	Yes	0.771144800004549	0	140363	253
274.90625	0	health	response	1	4	4	foodImage.50	FOODEEG_Images\0529.jpg	NY	Right	Yes	0.771144800004549	0	140753	235
275.947265625	1	health	trialStart	1	5	5	foodImage.103	FOODEEG_Images\0911.jpg	YN	Right	No	1.24902139999904	0	141286	251
276.9921875	2	health	foodImageDisplay	1	5	5	foodImage.103	FOODEEG_Images\0911.jpg	YN	Right	No	1.24902139999904	0	141821	252
279.056640625	1.24902139999904	health	choicePhaseStart	1	5	5	foodImage.103	FOODEEG_Images\0911.jpg	YN	Right	No	1.24902139999904	0	142878	253
280.298828125	0	health	response	1	5	5	foodImage.103	FOODEEG_Images\0911.jpg	YN	Right	No	1.24902139999904	0	143514	235
281.349609375	1	decision	trialStart	1	6	6	foodImage.104	FOODEEG_Images\0912.jpg	YN	Right	No	0.838175200042315	0	144052	251
282.388671875	2	decision	foodImageDisplay	1	6	6	foodImage.104	FOODEEG_Images\0912.jpg	YN	Right	No	0.838175200042315	0	144584	252
284.453125	0.838175200042315	decision	choicePhaseStart	1	6	6	foodImage.104	FOODEEG_Images\0912.jpg	YN	Right	No	0.838175200042315	0	145641	253
285.28125	0	decision	response	1	6	6	foodImage.104	FOODEEG_Images\0912.jpg	YN	Right	No	0.838175200042315	0	146065	235
286.330078125	1	decision	trialStart	1	7	7	foodImage.41	FOODEEG_Images\0409.jpg	YN	Left	Yes	0.667040600033943	0	146602	251
287.376953125	2	decision	foodImageDisplay	1	7	7	foodImage.41	FOODEEG_Images\0409.jpg	YN	Left	Yes	0.667040600033943	0	147138	252
289.439453125	0.667040600033943	decision	choicePhaseStart	1	7	7	foodImage.41	FOODEEG_Images\0409.jpg	YN	Left	Yes	0.667040600033943	0	148194	253
290.09765625	0	decision	response	1	7	7	foodImage.41	FOODEEG_Images\0409.jpg	YN	Left	Yes	0.667040600033943	0	148531	234
291.142578125	1	taste	trialStart	1	8	8	foodImage.45	FOODEEG_Images\0478.jpg	YN	Left	Yes	1.20392580004409	0	149066	251
292.1875	2	taste	foodImageDisplay	1	8	8	foodImage.45	FOODEEG_Images\0478.jpg	YN	Left	Yes	1.20392580004409	0	149601	252
294.251953125	1.20392580004409	taste	choicePhaseStart	1	8	8	foodImage.45	FOODEEG_Images\0478.jpg	YN	Left	Yes	1.20392580004409	0	150658	253
295.44921875	0	taste	response	1	8	8	foodImage.45	FOODEEG_Images\0478.jpg	YN	Left	Yes	1.20392580004409	0	151271	234
296.4921875	1	decision	trialStart	1	9	9	foodImage.12	FOODEEG_Images\0181.jpg	NY	Right	Yes	0.739250200043898	0	151805	251
297.533203125	2	decision	foodImageDisplay	1	9	9	foodImage.12	FOODEEG_Images\0181.jpg	NY	Right	Yes	0.739250200043898	0	152338	252
299.59765625	0.739250200043898	decision	choicePhaseStart	1	9	9	foodImage.12	FOODEEG_Images\0181.jpg	NY	Right	Yes	0.739250200043898	0	153395	253
300.328125	0	decision	response	1	9	9	foodImage.12	FOODEEG_Images\0181.jpg	NY	Right	Yes	0.739250200043898	0	153769	235
301.37109375	1	taste	trialStart	1	10	10	foodImage.107	FOODEEG_Images\0915.jpg	YN	Right	No	1.78549689997453	0	154303	251
302.408203125	2	taste	foodImageDisplay	1	10	10	foodImage.107	FOODEEG_Images\0915.jpg	YN	Right	No	1.78549689997453	0	154834	252
304.470703125	1.78549689997453	taste	choicePhaseStart	1	10	10	foodImage.107	FOODEEG_Images\0915.jpg	YN	Right	No	1.78549689997453	0	155890	253
306.248046875	0	taste	response	1	10	10	foodImage.107	FOODEEG_Images\0915.jpg	YN	Right	No	1.78549689997453	0	156800	235
307.291015625	1	decision	trialStart	1	11	11	foodImage.23	FOODEEG_Images\0244.jpg	NY	Right	Yes	0.77191320003476	0	157334	251
308.33203125	2	decision	foodImageDisplay	1	11	11	foodImage.23	FOODEEG_Images\0244.jpg	NY	Right	Yes	0.77191320003476	0	157867	252
310.396484375	0.77191320003476	decision	choicePhaseStart	1	11	11	foodImage.23	FOODEEG_Images\0244.jpg	NY	Right	Yes	0.77191320003476	0	158924	253
311.16015625	0	decision	response	1	11	11	foodImage.23	FOODEEG_Images\0244.jpg	NY	Right	Yes	0.77191320003476	0	159315	235
312.201171875	1	health	trialStart	1	12	12	foodImage.92	FOODEEG_Images\0900.jpg	YN	Right	No	1.47418309998466	0	159848	251
313.240234375	2	health	foodImageDisplay	1	12	12	foodImage.92	FOODEEG_Images\0900.jpg	YN	Right	No	1.47418309998466	0	160380	252
315.302734375	1.47418309998466	health	choicePhaseStart	1	12	12	foodImage.92	FOODEEG_Images\0900.jpg	YN	Right	No	1.47418309998466	0	161436	253
316.767578125	0	health	response	1	12	12	foodImage.92	FOODEEG_Images\0900.jpg	YN	Right	No	1.47418309998466	0	162186	235
317.8125	1	health	trialStart	1	13	13	foodImage.118	FOODEEG_Images\0926.jpg	YN	Right	No	0.676254999998491	0	162721	251
318.853515625	2	health	foodImageDisplay	1	13	13	foodImage.118	FOODEEG_Images\0926.jpg	YN	Right	No	0.676254999998491	0	163254	252
320.91796875	0.676254999998491	health	choicePhaseStart	1	13	13	foodImage.118	FOODEEG_Images\0926.jpg	YN	Right	No	0.676254999998491	0	164311	253
321.583984375	0	health	response	1	13	13	foodImage.118	FOODEEG_Images\0926.jpg	YN	Right	No	0.676254999998491	0	164652	235
322.62890625	1	decision	trialStart	1	14	14	foodImage.99	FOODEEG_Images\0907.jpg	NY	Left	No	1.08503379998729	0	165187	251
323.66796875	2	decision	foodImageDisplay	1	14	14	foodImage.99	FOODEEG_Images\0907.jpg	NY	Left	No	1.08503379998729	0	165719	252
325.73046875	1.08503379998729	decision	choicePhaseStart	1	14	14	foodImage.99	FOODEEG_Images\0907.jpg	NY	Left	No	1.08503379998729	0	166775	253
326.80859375	0	decision	response	1	14	14	foodImage.99	FOODEEG_Images\0907.jpg	NY	Left	No	1.08503379998729	0	167327	234
327.8515625	1	taste	trialStart	1	15	15	foodImage.68	FOODEEG_Images\0685.jpg	NY	Right	Yes	0.698597599985078	0	167861	251
328.927734375	2	taste	foodImageDisplay	1	15	15	foodImage.68	FOODEEG_Images\0685.jpg	NY	Right	Yes	0.698597599985078	0	168412	252
330.990234375	0.698597599985078	taste	choicePhaseStart	1	15	15	foodImage.68	FOODEEG_Images\0685.jpg	NY	Right	Yes	0.698597599985078	0	169468	253
331.6796875	0	taste	response	1	15	15	foodImage.68	FOODEEG_Images\0685.jpg	NY	Right	Yes	0.698597599985078	0	169821	235
332.72265625	1	health	trialStart	1	16	16	foodImage.64	FOODEEG_Images\0647.jpg	YN	Left	Yes	0.906499400036409	0	170355	251
333.78125	2	health	foodImageDisplay	1	16	16	foodImage.64	FOODEEG_Images\0647.jpg	YN	Left	Yes	0.906499400036409	0	170897	252
335.84375	0.906499400036409	health	choicePhaseStart	1	16	16	foodImage.64	FOODEEG_Images\0647.jpg	YN	Left	Yes	0.906499400036409	0	171953	253
336.744140625	0	health	response	1	16	16	foodImage.64	FOODEEG_Images\0647.jpg	YN	Left	Yes	0.906499400036409	0	172414	234
337.783203125	1	taste	trialStart	1	17	17	foodImage.102	FOODEEG_Images\0910.jpg	YN	Right	No	1.64916520001134	0	172946	251
338.82421875	2	taste	foodImageDisplay	1	17	17	foodImage.102	FOODEEG_Images\0910.jpg	YN	Right	No	1.64916520001134	0	173479	252
340.88671875	1.64916520001134	taste	choicePhaseStart	1	17	17	foodImage.102	FOODEEG_Images\0910.jpg	YN	Right	No	1.64916520001134	0	174535	253
342.52734375	0	taste	response	1	17	17	foodImage.102	FOODEEG_Images\0910.jpg	YN	Right	No	1.64916520001134	0	175375	235
343.5703125	1	decision	trialStart	1	18	18	foodImage.69	FOODEEG_Images\0693.jpg	YN	Left	Yes	0.732249200053047	0	175909	251
344.61328125	2	decision	foodImageDisplay	1	18	18	foodImage.69	FOODEEG_Images\0693.jpg	YN	Left	Yes	0.732249200053047	0	176443	252
346.67578125	0.732249200053047	decision	choicePhaseStart	1	18	18	foodImage.69	FOODEEG_Images\0693.jpg	YN	Left	Yes	0.732249200053047	0	177499	253
347.400390625	0	decision	response	1	18	18	foodImage.69	FOODEEG_Images\0693.jpg	YN	Left	Yes	0.732249200053047	0	177870	234
348.44140625	1	taste	trialStart	1	19	19	foodImage.92	FOODEEG_Images\0900.jpg	NY	Left	No	0.808868499996606	0	178403	251
349.48046875	2	taste	foodImageDisplay	1	19	19	foodImage.92	FOODEEG_Images\0900.jpg	NY	Left	No	0.808868499996606	0	178935	252
351.54296875	0.808868499996606	taste	choicePhaseStart	1	19	19	foodImage.92	FOODEEG_Images\0900.jpg	NY	Left	No	0.808868499996606	0	179991	253
352.34375	0	taste	response	1	19	19	foodImage.92	FOODEEG_Images\0900.jpg	NY	Left	No	0.808868499996606	0	180401	234
353.3828125	1	taste	trialStart	1	20	20	foodImage.44	FOODEEG_Images\0459.jpg	NY	Right	Yes	1.00654339999892	0	180933	251
354.443359375	2	taste	foodImageDisplay	1	20	20	foodImage.44	FOODEEG_Images\0459.jpg	NY	Right	Yes	1.00654339999892	0	181476	252
356.505859375	1.00654339999892	taste	choicePhaseStart	1	20	20	foodImage.44	FOODEEG_Images\0459.jpg	NY	Right	Yes	1.00654339999892	0	182532	253
357.501953125	0	taste	response	1	20	20	foodImage.44	FOODEEG_Images\0459.jpg	NY	Right	Yes	1.00654339999892	0	183042	235
358.54296875	1	taste	trialStart	1	21	21	foodImage.47	FOODEEG_Images\0488.jpg	NY	Right	Yes	0.639678800012916	0	183575	251
359.5859375	2	taste	foodImageDisplay	1	21	21	foodImage.47	FOODEEG_Images\0488.jpg	NY	Right	Yes	0.639678800012916	0	184109	252
361.6484375	0.639678800012916	taste	choicePhaseStart	1	21	21	foodImage.47	FOODEEG_Images\0488.jpg	NY	Right	Yes	0.639678800012916	0	185165	253
362.27734375	0	taste	response	1	21	21	foodImage.47	FOODEEG_Images\0488.jpg	NY	Right	Yes	0.639678800012916	0	185487	235
363.3203125	1	health	trialStart	1	22	22	foodImage.6	FOODEEG_Images\0113.jpg	YN	Right	No	0.743066800001543	0	186021	251
364.361328125	2	health	foodImageDisplay	1	22	22	foodImage.6	FOODEEG_Images\0113.jpg	YN	Right	No	0.743066800001543	0	186554	252
366.423828125	0.743066800001543	health	choicePhaseStart	1	22	22	foodImage.6	FOODEEG_Images\0113.jpg	YN	Right	No	0.743066800001543	0	187610	253
367.158203125	0	health	response	1	22	22	foodImage.6	FOODEEG_Images\0113.jpg	YN	Right	No	0.743066800001543	0	187986	235
368.197265625	1	decision	trialStart	1	23	23	foodImage.114	FOODEEG_Images\0922.jpg	YN	Left	Yes	0.835548500006553	0	188518	251
369.236328125	2	decision	foodImageDisplay	1	23	23	foodImage.114	FOODEEG_Images\0922.jpg	YN	Left	Yes	0.835548500006553	0	189050	252
371.298828125	0.835548500006553	decision	choicePhaseStart	1	23	23	foodImage.114	FOODEEG_Images\0922.jpg	YN	Left	Yes	0.835548500006553	0	190106	253
372.125	0	decision	response	1	23	23	foodImage.114	FOODEEG_Images\0922.jpg	YN	Left	Yes	0.835548500006553	0	190529	234
373.16796875	1	taste	trialStart	1	24	24	foodImage.23	FOODEEG_Images\0244.jpg	YN	Left	Yes	0.711761999991722	0	191063	251
374.20703125	2	taste	foodImageDisplay	1	24	24	foodImage.23	FOODEEG_Images\0244.jpg	YN	Left	Yes	0.711761999991722	0	191595	252
376.26953125	0.711761999991722	taste	choicePhaseStart	1	24	24	foodImage.23	FOODEEG_Images\0244.jpg	YN	Left	Yes	0.711761999991722	0	192651	253
376.97265625	0	taste	response	1	24	24	foodImage.23	FOODEEG_Images\0244.jpg	YN	Left	Yes	0.711761999991722	0	193011	234
378.013671875	1	health	trialStart	1	25	25	foodImage.22	FOODEEG_Images\0236.jpg	NY	Right	Yes	1.32811060000677	0	193544	251
379.056640625	2	health	foodImageDisplay	1	25	25	foodImage.22	FOODEEG_Images\0236.jpg	NY	Right	Yes	1.32811060000677	0	194078	252
381.125	1.32811060000677	health	choicePhaseStart	1	25	25	foodImage.22	FOODEEG_Images\0236.jpg	NY	Right	Yes	1.32811060000677	0	195137	253
382.4453125	0	health	response	1	25	25	foodImage.22	FOODEEG_Images\0236.jpg	NY	Right	Yes	1.32811060000677	0	195813	235
383.486328125	1	taste	trialStart	1	26	26	foodImage.114	FOODEEG_Images\0922.jpg	YN	Left	Yes	0.804347999976017	0	196346	251
384.525390625	2	taste	foodImageDisplay	1	26	26	foodImage.114	FOODEEG_Images\0922.jpg	YN	Left	Yes	0.804347999976017	0	196878	252
386.587890625	0.804347999976017	taste	choicePhaseStart	1	26	26	foodImage.114	FOODEEG_Images\0922.jpg	YN	Left	Yes	0.804347999976017	0	197934	253
387.380859375	0	taste	response	1	26	26	foodImage.114	FOODEEG_Images\0922.jpg	YN	Left	Yes	0.804347999976017	0	198340	234
388.42578125	1	decision	trialStart	1	27	27	foodImage.85	FOODEEG_Images\0841.jpg	YN	Left	Yes	0.779345899994951	0	198875	251
389.486328125	2	decision	foodImageDisplay	1	27	27	foodImage.85	FOODEEG_Images\0841.jpg	YN	Left	Yes	0.779345899994951	0	199418	252
391.548828125	0.779345899994951	decision	choicePhaseStart	1	27	27	foodImage.85	FOODEEG_Images\0841.jpg	YN	Left	Yes	0.779345899994951	0	200474	253
392.31640625	0	decision	response	1	27	27	foodImage.85	FOODEEG_Images\0841.jpg	YN	Left	Yes	0.779345899994951	0	200867	234
393.357421875	1	health	trialStart	1	28	28	foodImage.117	FOODEEG_Images\0925.jpg	NY	Right	Yes	0.793577400036156	0	201400	251
394.3984375	2	health	foodImageDisplay	1	28	28	foodImage.117	FOODEEG_Images\0925.jpg	NY	Right	Yes	0.793577400036156	0	201933	252
396.4609375	0.793577400036156	health	choicePhaseStart	1	28	28	foodImage.117	FOODEEG_Images\0925.jpg	NY	Right	Yes	0.793577400036156	0	202989	253
397.244140625	0	health	response	1	28	28	foodImage.117	FOODEEG_Images\0925.jpg	NY	Right	Yes	0.793577400036156	0	203390	235
398.287109375	1	taste	trialStart	1	29	29	foodImage.97	FOODEEG_Images\0905.jpg	YN	Left	Yes	0.827779799990822	0	203924	251
399.32421875	2	taste	foodImageDisplay	1	29	29	foodImage.97	FOODEEG_Images\0905.jpg	YN	Left	Yes	0.827779799990822	0	204455	252
401.38671875	0.827779799990822	taste	choicePhaseStart	1	29	29	foodImage.97	FOODEEG_Images\0905.jpg	YN	Left	Yes	0.827779799990822	0	205511	253
402.205078125	0	taste	response	1	29	29	foodImage.97	FOODEEG_Images\0905.jpg	YN	Left	Yes	0.827779799990822	0	205930	234
403.24609375	1	taste	trialStart	1	30	30	foodImage.95	FOODEEG_Images\0903.jpg	YN	Right	No	0.731359199970029	0	206463	251
404.283203125	2	taste	foodImageDisplay	1	30	30	foodImage.95	FOODEEG_Images\0903.jpg	YN	Right	No	0.731359199970029	0	206994	252
406.345703125	0.731359199970029	taste	choicePhaseStart	1	30	30	foodImage.95	FOODEEG_Images\0903.jpg	YN	Right	No	0.731359199970029	0	208050	253
407.068359375	0	taste	response	1	30	30	foodImage.95	FOODEEG_Images\0903.jpg	YN	Right	No	0.731359199970029	0	208420	235
408.107421875	1	decision	trialStart	1	31	31	foodImage.2	FOODEEG_Images\0028.jpg	NY	Right	Yes	0.857765200024005	0	208952	251
409.150390625	2	decision	foodImageDisplay	1	31	31	foodImage.2	FOODEEG_Images\0028.jpg	NY	Right	Yes	0.857765200024005	0	209486	252
411.212890625	0.857765200024005	decision	choicePhaseStart	1	31	31	foodImage.2	FOODEEG_Images\0028.jpg	NY	Right	Yes	0.857765200024005	0	210542	253
412.060546875	0	decision	response	1	31	31	foodImage.2	FOODEEG_Images\0028.jpg	NY	Right	Yes	0.857765200024005	0	210976	235
413.1015625	1	health	trialStart	1	32	32	foodImage.85	FOODEEG_Images\0841.jpg	NY	Left	No	0.72167990001617	0	211509	251
414.15625	2	health	foodImageDisplay	1	32	32	foodImage.85	FOODEEG_Images\0841.jpg	NY	Left	No	0.72167990001617	0	212049	252
416.21875	0.72167990001617	health	choicePhaseStart	1	32	32	foodImage.85	FOODEEG_Images\0841.jpg	NY	Left	No	0.72167990001617	0	213105	253
416.931640625	0	health	response	1	32	32	foodImage.85	FOODEEG_Images\0841.jpg	NY	Left	No	0.72167990001617	0	213470	234
417.974609375	1	decision	trialStart	1	33	33	foodImage.70	FOODEEG_Images\0705.jpg	YN	Left	Yes	0.688726600026712	0	214004	251
419.0390625	2	decision	foodImageDisplay	1	33	33	foodImage.70	FOODEEG_Images\0705.jpg	YN	Left	Yes	0.688726600026712	0	214549	252
421.1015625	0.688726600026712	decision	choicePhaseStart	1	33	33	foodImage.70	FOODEEG_Images\0705.jpg	YN	Left	Yes	0.688726600026712	0	215605	253
421.779296875	0	decision	response	1	33	33	foodImage.70	FOODEEG_Images\0705.jpg	YN	Left	Yes	0.688726600026712	0	215952	234
422.822265625	1	health	trialStart	1	34	34	foodImage.111	FOODEEG_Images\0919.jpg	YN	Right	No	0.652976800047327	0	216486	251
423.86328125	2	health	foodImageDisplay	1	34	34	foodImage.111	FOODEEG_Images\0919.jpg	YN	Right	No	0.652976800047327	0	217019	252
425.92578125	0.652976800047327	health	choicePhaseStart	1	34	34	foodImage.111	FOODEEG_Images\0919.jpg	YN	Right	No	0.652976800047327	0	218075	253
426.5703125	0	health	response	1	34	34	foodImage.111	FOODEEG_Images\0919.jpg	YN	Right	No	0.652976800047327	0	218405	235
427.615234375	1	taste	trialStart	1	35	35	foodImage.79	FOODEEG_Images\0794.jpg	YN	Left	Yes	0.699169599974994	0	218940	251
428.658203125	2	taste	foodImageDisplay	1	35	35	foodImage.79	FOODEEG_Images\0794.jpg	YN	Left	Yes	0.699169599974994	0	219474	252
430.720703125	0.699169599974994	taste	choicePhaseStart	1	35	35	foodImage.79	FOODEEG_Images\0794.jpg	YN	Left	Yes	0.699169599974994	0	220530	253
431.412109375	0	taste	response	1	35	35	foodImage.79	FOODEEG_Images\0794.jpg	YN	Left	Yes	0.699169599974994	0	220884	234
432.455078125	1	decision	trialStart	1	36	36	foodImage.52	FOODEEG_Images\0539.jpg	YN	Left	Yes	0.701746899983846	0	221418	251
433.537109375	2	decision	foodImageDisplay	1	36	36	foodImage.52	FOODEEG_Images\0539.jpg	YN	Left	Yes	0.701746899983846	0	221972	252
435.599609375	0.701746899983846	decision	choicePhaseStart	1	36	36	foodImage.52	FOODEEG_Images\0539.jpg	YN	Left	Yes	0.701746899983846	0	223028	253
436.291015625	0	decision	response	1	36	36	foodImage.52	FOODEEG_Images\0539.jpg	YN	Left	Yes	0.701746899983846	0	223382	234
437.333984375	1	decision	trialStart	1	37	37	foodImage.120	FOODEEG_Images\0928.jpg	NY	Left	No	0.799888500012457	0	223916	251
438.375	2	decision	foodImageDisplay	1	37	37	foodImage.120	FOODEEG_Images\0928.jpg	NY	Left	No	0.799888500012457	0	224449	252
440.4375	0.799888500012457	decision	choicePhaseStart	1	37	37	foodImage.120	FOODEEG_Images\0928.jpg	NY	Left	No	0.799888500012457	0	225505	253
441.2265625	0	decision	response	1	37	37	foodImage.120	FOODEEG_Images\0928.jpg	NY	Left	No	0.799888500012457	0	225909	234
442.26953125	1	taste	trialStart	1	38	38	foodImage.62	FOODEEG_Images\0644.jpg	YN	Left	Yes	0.709671699965838	0	226443	251
443.328125	2	taste	foodImageDisplay	1	38	38	foodImage.62	FOODEEG_Images\0644.jpg	YN	Left	Yes	0.709671699965838	0	226985	252
445.390625	0.709671699965838	taste	choicePhaseStart	1	38	38	foodImage.62	FOODEEG_Images\0644.jpg	YN	Left	Yes	0.709671699965838	0	228041	253
446.091796875	0	taste	response	1	38	38	foodImage.62	FOODEEG_Images\0644.jpg	YN	Left	Yes	0.709671699965838	0	228400	234
447.134765625	1	health	trialStart	1	39	39	foodImage.2	FOODEEG_Images\0028.jpg	NY	Left	No	0.996880999999121	0	228934	251
448.17578125	2	health	foodImageDisplay	1	39	39	foodImage.2	FOODEEG_Images\0028.jpg	NY	Left	No	0.996880999999121	0	229467	252
450.23828125	0.996880999999121	health	choicePhaseStart	1	39	39	foodImage.2	FOODEEG_Images\0028.jpg	NY	Left	No	0.996880999999121	0	230523	253
451.2265625	0	health	response	1	39	39	foodImage.2	FOODEEG_Images\0028.jpg	NY	Left	No	0.996880999999121	0	231029	234
452.26953125	1	decision	trialStart	1	40	40	foodImage.77	FOODEEG_Images\0771.jpg	YN	Left	Yes	0.689240800042171	0	231563	251
453.31640625	2	decision	foodImageDisplay	1	40	40	foodImage.77	FOODEEG_Images\0771.jpg	YN	Left	Yes	0.689240800042171	0	232099	252
455.37890625	0.689240800042171	decision	choicePhaseStart	1	40	40	foodImage.77	FOODEEG_Images\0771.jpg	YN	Left	Yes	0.689240800042171	0	233155	253
456.05859375	0	decision	response	1	40	40	foodImage.77	FOODEEG_Images\0771.jpg	YN	Left	Yes	0.689240800042171	0	233503	234
457.1015625	1	decision	trialStart	1	41	41	foodImage.11	FOODEEG_Images\0180.jpg	YN	Left	Yes	0.714614199998323	0	234037	251
458.14453125	2	decision	foodImageDisplay	1	41	41	foodImage.11	FOODEEG_Images\0180.jpg	YN	Left	Yes	0.714614199998323	0	234571	252
460.208984375	0.714614199998323	decision	choicePhaseStart	1	41	41	foodImage.11	FOODEEG_Images\0180.jpg	YN	Left	Yes	0.714614199998323	0	235628	253
460.9140625	0	decision	response	1	41	41	foodImage.11	FOODEEG_Images\0180.jpg	YN	Left	Yes	0.714614199998323	0	235989	234
461.96484375	1	taste	trialStart	1	42	42	foodImage.106	FOODEEG_Images\0914.jpg	NY	Right	Yes	0.760151599999517	0	236527	251
463.00390625	2	taste	foodImageDisplay	1	42	42	foodImage.106	FOODEEG_Images\0914.jpg	NY	Right	Yes	0.760151599999517	0	237059	252
465.06640625	0.760151599999517	taste	choicePhaseStart	1	42	42	foodImage.106	FOODEEG_Images\0914.jpg	NY	Right	Yes	0.760151599999517	0	238115	253
465.818359375	0	taste	response	1	42	42	foodImage.106	FOODEEG_Images\0914.jpg	NY	Right	Yes	0.760151599999517	0	238500	235
466.859375	1	health	trialStart	1	43	43	foodImage.14	FOODEEG_Images\0188.jpg	NY	Left	No	0.614614399964921	0	239033	251
467.91796875	2	health	foodImageDisplay	1	43	43	foodImage.14	FOODEEG_Images\0188.jpg	NY	Left	No	0.614614399964921	0	239575	252
469.98046875	0.614614399964921	health	choicePhaseStart	1	43	43	foodImage.14	FOODEEG_Images\0188.jpg	NY	Left	No	0.614614399964921	0	240631	253
470.5859375	0	health	response	1	43	43	foodImage.14	FOODEEG_Images\0188.jpg	NY	Left	No	0.614614399964921	0	240941	234
471.626953125	1	decision	trialStart	1	44	44	foodImage.55	FOODEEG_Images\0567.jpg	YN	Left	Yes	0.670965800003614	0	241474	251
472.685546875	2	decision	foodImageDisplay	1	44	44	foodImage.55	FOODEEG_Images\0567.jpg	YN	Left	Yes	0.670965800003614	0	242016	252
474.748046875	0.670965800003614	decision	choicePhaseStart	1	44	44	foodImage.55	FOODEEG_Images\0567.jpg	YN	Left	Yes	0.670965800003614	0	243072	253
475.41015625	0	decision	response	1	44	44	foodImage.55	FOODEEG_Images\0567.jpg	YN	Left	Yes	0.670965800003614	0	243411	234
476.453125	1	decision	trialStart	1	45	45	foodImage.100	FOODEEG_Images\0908.jpg	YN	Left	Yes	0.734949500008952	0	243945	251
477.4921875	2	decision	foodImageDisplay	1	45	45	foodImage.100	FOODEEG_Images\0908.jpg	YN	Left	Yes	0.734949500008952	0	244477	252
479.5546875	0.734949500008952	decision	choicePhaseStart	1	45	45	foodImage.100	FOODEEG_Images\0908.jpg	YN	Left	Yes	0.734949500008952	0	245533	253
480.28125	0	decision	response	1	45	45	foodImage.100	FOODEEG_Images\0908.jpg	YN	Left	Yes	0.734949500008952	0	245905	234
481.32421875	1	health	trialStart	1	46	46	foodImage.41	FOODEEG_Images\0409.jpg	NY	Right	Yes	0.960546300048009	0	246439	251
482.373046875	2	health	foodImageDisplay	1	46	46	foodImage.41	FOODEEG_Images\0409.jpg	NY	Right	Yes	0.960546300048009	0	246976	252
484.43359375	0.960546300048009	health	choicePhaseStart	1	46	46	foodImage.41	FOODEEG_Images\0409.jpg	NY	Right	Yes	0.960546300048009	0	248031	253
485.384765625	0	health	response	1	46	46	foodImage.41	FOODEEG_Images\0409.jpg	NY	Right	Yes	0.960546300048009	0	248518	235
486.4296875	1	decision	trialStart	1	47	47	foodImage.38	FOODEEG_Images\0365.jpg	YN	Left	Yes	0.656399000028614	0	249053	251
487.46875	2	decision	foodImageDisplay	1	47	47	foodImage.38	FOODEEG_Images\0365.jpg	YN	Left	Yes	0.656399000028614	0	249585	252
489.53125	0.656399000028614	decision	choicePhaseStart	1	47	47	foodImage.38	FOODEEG_Images\0365.jpg	YN	Left	Yes	0.656399000028614	0	250641	253
490.177734375	0	decision	response	1	47	47	foodImage.38	FOODEEG_Images\0365.jpg	YN	Left	Yes	0.656399000028614	0	250972	234
491.2265625	1	health	trialStart	1	48	48	foodImage.21	FOODEEG_Images\0234.jpg	NY	Right	Yes	0.709686099959072	0	251509	251
492.28515625	2	health	foodImageDisplay	1	48	48	foodImage.21	FOODEEG_Images\0234.jpg	NY	Right	Yes	0.709686099959072	0	252051	252
494.34765625	0.709686099959072	health	choicePhaseStart	1	48	48	foodImage.21	FOODEEG_Images\0234.jpg	NY	Right	Yes	0.709686099959072	0	253107	253
495.048828125	0	health	response	1	48	48	foodImage.21	FOODEEG_Images\0234.jpg	NY	Right	Yes	0.709686099959072	0	253466	235
496.091796875	1	taste	trialStart	1	49	49	foodImage.3	FOODEEG_Images\0046.jpg	NY	Right	Yes	0.771935100026894	0	254000	251
497.134765625	2	taste	foodImageDisplay	1	49	49	foodImage.3	FOODEEG_Images\0046.jpg	NY	Right	Yes	0.771935100026894	0	254534	252
499.197265625	0.771935100026894	taste	choicePhaseStart	1	49	49	foodImage.3	FOODEEG_Images\0046.jpg	NY	Right	Yes	0.771935100026894	0	255590	253
499.9609375	0	taste	response	1	49	49	foodImage.3	FOODEEG_Images\0046.jpg	NY	Right	Yes	0.771935100026894	0	255981	235
501	1	decision	trialStart	1	50	50	foodImage.27	FOODEEG_Images\0263.jpg	NY	Right	Yes	0.748074999952223	0	256513	251
502.046875	2	decision	foodImageDisplay	1	50	50	foodImage.27	FOODEEG_Images\0263.jpg	NY	Right	Yes	0.748074999952223	0	257049	252
504.109375	0.748074999952223	decision	choicePhaseStart	1	50	50	foodImage.27	FOODEEG_Images\0263.jpg	NY	Right	Yes	0.748074999952223	0	258105	253
504.849609375	0	decision	response	1	50	50	foodImage.27	FOODEEG_Images\0263.jpg	NY	Right	Yes	0.748074999952223	0	258484	235
505.892578125	1	health	trialStart	1	51	51	foodImage.37	FOODEEG_Images\0359.jpg	YN	Left	Yes	0.924828000017442	0	259018	251
506.93359375	2	health	foodImageDisplay	1	51	51	foodImage.37	FOODEEG_Images\0359.jpg	YN	Left	Yes	0.924828000017442	0	259551	252
508.99609375	0.924828000017442	health	choicePhaseStart	1	51	51	foodImage.37	FOODEEG_Images\0359.jpg	YN	Left	Yes	0.924828000017442	0	260607	253
509.912109375	0	health	response	1	51	51	foodImage.37	FOODEEG_Images\0359.jpg	YN	Left	Yes	0.924828000017442	0	261076	234
510.958984375	1	taste	trialStart	1	52	52	foodImage.22	FOODEEG_Images\0236.jpg	YN	Left	Yes	0.841384699975606	0	261612	251
512	2	taste	foodImageDisplay	1	52	52	foodImage.22	FOODEEG_Images\0236.jpg	YN	Left	Yes	0.841384699975606	0	262145	252
514.0625	0.841384699975606	taste	choicePhaseStart	1	52	52	foodImage.22	FOODEEG_Images\0236.jpg	YN	Left	Yes	0.841384699975606	0	263201	253
514.896484375	0	taste	response	1	52	52	foodImage.22	FOODEEG_Images\0236.jpg	YN	Left	Yes	0.841384699975606	0	263628	234
515.939453125	1	taste	trialStart	1	53	53	foodImage.36	FOODEEG_Images\0352.jpg	NY	Right	Yes	0.813125999993645	0	264162	251
516.998046875	2	taste	foodImageDisplay	1	53	53	foodImage.36	FOODEEG_Images\0352.jpg	NY	Right	Yes	0.813125999993645	0	264704	252
519.060546875	0.813125999993645	taste	choicePhaseStart	1	53	53	foodImage.36	FOODEEG_Images\0352.jpg	NY	Right	Yes	0.813125999993645	0	265760	253
519.86328125	0	taste	response	1	53	53	foodImage.36	FOODEEG_Images\0352.jpg	NY	Right	Yes	0.813125999993645	0	266171	235
520.91015625	1	taste	trialStart	1	54	54	foodImage.93	FOODEEG_Images\0901.jpg	NY	Left	No	0.56283979996806	0	266707	251
521.951171875	2	taste	foodImageDisplay	1	54	54	foodImage.93	FOODEEG_Images\0901.jpg	NY	Left	No	0.56283979996806	0	267240	252
524.013671875	0.56283979996806	taste	choicePhaseStart	1	54	54	foodImage.93	FOODEEG_Images\0901.jpg	NY	Left	No	0.56283979996806	0	268296	253
524.568359375	0	taste	response	1	54	54	foodImage.93	FOODEEG_Images\0901.jpg	NY	Left	No	0.56283979996806	0	268580	234
525.611328125	1	decision	trialStart	1	55	55	foodImage.91	FOODEEG_Images\0896.jpg	NY	Right	Yes	0.79556679999223	0	269114	251
526.669921875	2	decision	foodImageDisplay	1	55	55	foodImage.91	FOODEEG_Images\0896.jpg	NY	Right	Yes	0.79556679999223	0	269656	252
528.732421875	0.79556679999223	decision	choicePhaseStart	1	55	55	foodImage.91	FOODEEG_Images\0896.jpg	NY	Right	Yes	0.79556679999223	0	270712	253
529.51953125	0	decision	response	1	55	55	foodImage.91	FOODEEG_Images\0896.jpg	NY	Right	Yes	0.79556679999223	0	271115	235
530.564453125	1	health	trialStart	1	56	56	foodImage.24	FOODEEG_Images\0250.jpg	NY	Right	Yes	0.676319600024726	0	271650	251
531.60546875	2	health	foodImageDisplay	1	56	56	foodImage.24	FOODEEG_Images\0250.jpg	NY	Right	Yes	0.676319600024726	0	272183	252
533.66796875	0.676319600024726	health	choicePhaseStart	1	56	56	foodImage.24	FOODEEG_Images\0250.jpg	NY	Right	Yes	0.676319600024726	0	273239	253
534.3359375	0	health	response	1	56	56	foodImage.24	FOODEEG_Images\0250.jpg	NY	Right	Yes	0.676319600024726	0	273581	235
535.37890625	1	health	trialStart	1	57	57	foodImage.58	FOODEEG_Images\0605.jpg	NY	Right	Yes	0.527990399976261	0	274115	251
536.435546875	2	health	foodImageDisplay	1	57	57	foodImage.58	FOODEEG_Images\0605.jpg	NY	Right	Yes	0.527990399976261	0	274656	252
538.498046875	0.527990399976261	health	choicePhaseStart	1	57	57	foodImage.58	FOODEEG_Images\0605.jpg	NY	Right	Yes	0.527990399976261	0	275712	253
539.015625	0	health	response	1	57	57	foodImage.58	FOODEEG_Images\0605.jpg	NY	Right	Yes	0.527990399976261	0	275977	235
540.05859375	1	taste	trialStart	1	58	58	foodImage.64	FOODEEG_Images\0647.jpg	YN	Left	Yes	0.656987900030799	0	276511	251
541.119140625	2	taste	foodImageDisplay	1	58	58	foodImage.64	FOODEEG_Images\0647.jpg	YN	Left	Yes	0.656987900030799	0	277054	252
543.181640625	0.656987900030799	taste	choicePhaseStart	1	58	58	foodImage.64	FOODEEG_Images\0647.jpg	YN	Left	Yes	0.656987900030799	0	278110	253
543.830078125	0	taste	response	1	58	58	foodImage.64	FOODEEG_Images\0647.jpg	YN	Left	Yes	0.656987900030799	0	278442	234
544.875	1	taste	trialStart	1	59	59	foodImage.39	FOODEEG_Images\0367.jpg	YN	Left	Yes	0.622845999954734	0	278977	251
545.9140625	2	taste	foodImageDisplay	1	59	59	foodImage.39	FOODEEG_Images\0367.jpg	YN	Left	Yes	0.622845999954734	0	279509	252
547.9765625	0.622845999954734	taste	choicePhaseStart	1	59	59	foodImage.39	FOODEEG_Images\0367.jpg	YN	Left	Yes	0.622845999954734	0	280565	253
548.591796875	0	taste	response	1	59	59	foodImage.39	FOODEEG_Images\0367.jpg	YN	Left	Yes	0.622845999954734	0	280880	234
549.634765625	1	taste	trialStart	1	60	60	foodImage.116	FOODEEG_Images\0924.jpg	NY	Left	No	0.688894600025378	0	281414	251
550.673828125	2	taste	foodImageDisplay	1	60	60	foodImage.116	FOODEEG_Images\0924.jpg	NY	Left	No	0.688894600025378	0	281946	252
552.7421875	0.688894600025378	taste	choicePhaseStart	1	60	60	foodImage.116	FOODEEG_Images\0924.jpg	NY	Left	No	0.688894600025378	0	283005	253
553.421875	0	taste	response	1	60	60	foodImage.116	FOODEEG_Images\0924.jpg	NY	Left	No	0.688894600025378	0	283353	234
555.46484375	9.71484375	n/a	blockEnd	n/a	n/a	n/a	n/a	n/a	n/a	n/a	n/a	n/a	n/a	284399	254
565.1796875	2	n/a	blockStart	2	n/a	n/a	n/a	n/a	n/a	n/a	n/a	n/a	n/a	289373	250
567.21484375	1	health	trialStart	2	61	1	foodImage.11	FOODEEG_Images\0180.jpg	YN	Left	Yes	0.79590729996562	0	290415	251
568.2578125	2	health	foodImageDisplay	2	61	1	foodImage.11	FOODEEG_Images\0180.jpg	YN	Left	Yes	0.79590729996562	0	290949	252
570.322265625	0.79590729996562	health	choicePhaseStart	2	61	1	foodImage.11	FOODEEG_Images\0180.jpg	YN	Left	Yes	0.79590729996562	0	292006	253
571.109375	0	health	response	2	61	1	foodImage.11	FOODEEG_Images\0180.jpg	YN	Left	Yes	0.79590729996562	0	292409	234
572.154296875	1	decision	trialStart	2	62	2	foodImage.35	FOODEEG_Images\0350.jpg	YN	Left	Yes	0.635627700015903	0	292944	251
573.193359375	2	decision	foodImageDisplay	2	62	2	foodImage.35	FOODEEG_Images\0350.jpg	YN	Left	Yes	0.635627700015903	0	293476	252
575.255859375	0.635627700015903	decision	choicePhaseStart	2	62	2	foodImage.35	FOODEEG_Images\0350.jpg	YN	Left	Yes	0.635627700015903	0	294532	253
575.88671875	0	decision	response	2	62	2	foodImage.35	FOODEEG_Images\0350.jpg	YN	Left	Yes	0.635627700015903	0	294855	234
576.9296875	1	decision	trialStart	2	63	3	foodImage.24	FOODEEG_Images\0250.jpg	YN	Left	Yes	0.629116300027817	0	295389	251
577.970703125	2	decision	foodImageDisplay	2	63	3	foodImage.24	FOODEEG_Images\0250.jpg	YN	Left	Yes	0.629116300027817	0	295922	252
580.033203125	0.629116300027817	decision	choicePhaseStart	2	63	3	foodImage.24	FOODEEG_Images\0250.jpg	YN	Left	Yes	0.629116300027817	0	296978	253
580.654296875	0	decision	response	2	63	3	foodImage.24	FOODEEG_Images\0250.jpg	YN	Left	Yes	0.629116300027817	0	297296	234
581.697265625	1	decision	trialStart	2	64	4	foodImage.54	FOODEEG_Images\0560.jpg	NY	Right	Yes	0.725003700004891	0	297830	251
582.755859375	2	decision	foodImageDisplay	2	64	4	foodImage.54	FOODEEG_Images\0560.jpg	NY	Right	Yes	0.725003700004891	0	298372	252
584.818359375	0.725003700004891	decision	choicePhaseStart	2	64	4	foodImage.54	FOODEEG_Images\0560.jpg	NY	Right	Yes	0.725003700004891	0	299428	253
585.533203125	0	decision	response	2	64	4	foodImage.54	FOODEEG_Images\0560.jpg	NY	Right	Yes	0.725003700004891	0	299794	235
586.576171875	1	taste	trialStart	2	65	5	foodImage.32	FOODEEG_Images\0319.jpg	NY	Right	Yes	0.682997900003102	0	300328	251
587.62109375	2	taste	foodImageDisplay	2	65	5	foodImage.32	FOODEEG_Images\0319.jpg	NY	Right	Yes	0.682997900003102	0	300863	252
589.68359375	0.682997900003102	taste	choicePhaseStart	2	65	5	foodImage.32	FOODEEG_Images\0319.jpg	NY	Right	Yes	0.682997900003102	0	301919	253
590.357421875	0	taste	response	2	65	5	foodImage.32	FOODEEG_Images\0319.jpg	NY	Right	Yes	0.682997900003102	0	302264	235
591.400390625	1	health	trialStart	2	66	6	foodImage.75	FOODEEG_Images\0763.jpg	YN	Left	Yes	0.642560200009029	0	302798	251
592.4453125	2	health	foodImageDisplay	2	66	6	foodImage.75	FOODEEG_Images\0763.jpg	YN	Left	Yes	0.642560200009029	0	303333	252
594.5078125	0.642560200009029	health	choicePhaseStart	2	66	6	foodImage.75	FOODEEG_Images\0763.jpg	YN	Left	Yes	0.642560200009029	0	304389	253
595.140625	0	health	response	2	66	6	foodImage.75	FOODEEG_Images\0763.jpg	YN	Left	Yes	0.642560200009029	0	304713	234
596.18359375	1	health	trialStart	2	67	7	foodImage.20	FOODEEG_Images\0226.jpg	NY	Right	Yes	0.692634699982591	0	305247	251
597.2265625	2	health	foodImageDisplay	2	67	7	foodImage.20	FOODEEG_Images\0226.jpg	NY	Right	Yes	0.692634699982591	0	305781	252
599.2890625	0.692634699982591	health	choicePhaseStart	2	67	7	foodImage.20	FOODEEG_Images\0226.jpg	NY	Right	Yes	0.692634699982591	0	306837	253
599.97265625	0	health	response	2	67	7	foodImage.20	FOODEEG_Images\0226.jpg	NY	Right	Yes	0.692634699982591	0	307187	235
601.013671875	1	taste	trialStart	2	68	8	foodImage.2	FOODEEG_Images\0028.jpg	YN	Left	Yes	1.03887300001225	0	307720	251
602.056640625	2	taste	foodImageDisplay	2	68	8	foodImage.2	FOODEEG_Images\0028.jpg	YN	Left	Yes	1.03887300001225	0	308254	252
604.119140625	1.03887300001225	taste	choicePhaseStart	2	68	8	foodImage.2	FOODEEG_Images\0028.jpg	YN	Left	Yes	1.03887300001225	0	309310	253
605.1484375	0	taste	response	2	68	8	foodImage.2	FOODEEG_Images\0028.jpg	YN	Left	Yes	1.03887300001225	0	309837	234
606.19140625	1	health	trialStart	2	69	9	foodImage.7	FOODEEG_Images\0116.jpg	YN	Right	No	0.588833599991631	0	310371	251
607.234375	2	health	foodImageDisplay	2	69	9	foodImage.7	FOODEEG_Images\0116.jpg	YN	Right	No	0.588833599991631	0	310905	252
609.296875	0.588833599991631	health	choicePhaseStart	2	69	9	foodImage.7	FOODEEG_Images\0116.jpg	YN	Right	No	0.588833599991631	0	311961	253
609.876953125	0	health	response	2	69	9	foodImage.7	FOODEEG_Images\0116.jpg	YN	Right	No	0.588833599991631	0	312258	235
610.919921875	1	health	trialStart	2	70	10	foodImage.108	FOODEEG_Images\0916.jpg	YN	Right	No	0.608339399972465	0	312792	251
611.958984375	2	health	foodImageDisplay	2	70	10	foodImage.108	FOODEEG_Images\0916.jpg	YN	Right	No	0.608339399972465	0	313324	252
614.021484375	0.608339399972465	health	choicePhaseStart	2	70	10	foodImage.108	FOODEEG_Images\0916.jpg	YN	Right	No	0.608339399972465	0	314380	253
614.62109375	0	health	response	2	70	10	foodImage.108	FOODEEG_Images\0916.jpg	YN	Right	No	0.608339399972465	0	314687	235
615.6640625	1	decision	trialStart	2	71	11	foodImage.9	FOODEEG_Images\0138.jpg	NY	Right	Yes	0.756465399987064	0	315221	251
616.72265625	2	decision	foodImageDisplay	2	71	11	foodImage.9	FOODEEG_Images\0138.jpg	NY	Right	Yes	0.756465399987064	0	315763	252
618.78515625	0.756465399987064	decision	choicePhaseStart	2	71	11	foodImage.9	FOODEEG_Images\0138.jpg	NY	Right	Yes	0.756465399987064	0	316819	253
619.53125	0	decision	response	2	71	11	foodImage.9	FOODEEG_Images\0138.jpg	NY	Right	Yes	0.756465399987064	0	317201	235
620.57421875	1	decision	trialStart	2	72	12	foodImage.40	FOODEEG_Images\0373.jpg	NY	Right	Yes	0.606316899997182	0	317735	251
621.6171875	2	decision	foodImageDisplay	2	72	12	foodImage.40	FOODEEG_Images\0373.jpg	NY	Right	Yes	0.606316899997182	0	318269	252
623.6796875	0.606316899997182	decision	choicePhaseStart	2	72	12	foodImage.40	FOODEEG_Images\0373.jpg	NY	Right	Yes	0.606316899997182	0	319325	253
624.275390625	0	decision	response	2	72	12	foodImage.40	FOODEEG_Images\0373.jpg	NY	Right	Yes	0.606316899997182	0	319630	235
625.3203125	1	taste	trialStart	2	73	13	foodImage.111	FOODEEG_Images\0919.jpg	NY	Left	No	0.680570899974555	0	320165	251
626.357421875	2	taste	foodImageDisplay	2	73	13	foodImage.111	FOODEEG_Images\0919.jpg	NY	Left	No	0.680570899974555	0	320696	252
628.419921875	0.680570899974555	taste	choicePhaseStart	2	73	13	foodImage.111	FOODEEG_Images\0919.jpg	NY	Left	No	0.680570899974555	0	321752	253
629.091796875	0	taste	response	2	73	13	foodImage.111	FOODEEG_Images\0919.jpg	NY	Left	No	0.680570899974555	0	322096	234
630.134765625	1	decision	trialStart	2	74	14	foodImage.29	FOODEEG_Images\0278.jpg	NY	Right	Yes	0.739882399968337	0	322630	251
631.1796875	2	decision	foodImageDisplay	2	74	14	foodImage.29	FOODEEG_Images\0278.jpg	NY	Right	Yes	0.739882399968337	0	323165	252
633.2421875	0.739882399968337	decision	choicePhaseStart	2	74	14	foodImage.29	FOODEEG_Images\0278.jpg	NY	Right	Yes	0.739882399968337	0	324221	253
633.97265625	0	decision	response	2	74	14	foodImage.29	FOODEEG_Images\0278.jpg	NY	Right	Yes	0.739882399968337	0	324595	235
635.013671875	1	health	trialStart	2	75	15	foodImage.106	FOODEEG_Images\0914.jpg	NY	Right	Yes	0.725481200031936	0	325128	251
636.0546875	2	health	foodImageDisplay	2	75	15	foodImage.106	FOODEEG_Images\0914.jpg	NY	Right	Yes	0.725481200031936	0	325661	252
638.119140625	0.725481200031936	health	choicePhaseStart	2	75	15	foodImage.106	FOODEEG_Images\0914.jpg	NY	Right	Yes	0.725481200031936	0	326718	253
638.8359375	0	health	response	2	75	15	foodImage.106	FOODEEG_Images\0914.jpg	NY	Right	Yes	0.725481200031936	0	327085	235
639.87890625	1	decision	trialStart	2	76	16	foodImage.62	FOODEEG_Images\0644.jpg	YN	Left	Yes	0.703167200030293	0	327619	251
640.935546875	2	decision	foodImageDisplay	2	76	16	foodImage.62	FOODEEG_Images\0644.jpg	YN	Left	Yes	0.703167200030293	0	328160	252
642.99609375	0.703167200030293	decision	choicePhaseStart	2	76	16	foodImage.62	FOODEEG_Images\0644.jpg	YN	Left	Yes	0.703167200030293	0	329215	253
643.69140625	0	decision	response	2	76	16	foodImage.62	FOODEEG_Images\0644.jpg	YN	Left	Yes	0.703167200030293	0	329571	234
644.732421875	1	health	trialStart	2	77	17	foodImage.97	FOODEEG_Images\0905.jpg	YN	Left	Yes	0.889400899992324	0	330104	251
645.771484375	2	health	foodImageDisplay	2	77	17	foodImage.97	FOODEEG_Images\0905.jpg	YN	Left	Yes	0.889400899992324	0	330636	252
647.833984375	0.889400899992324	health	choicePhaseStart	2	77	17	foodImage.97	FOODEEG_Images\0905.jpg	YN	Left	Yes	0.889400899992324	0	331692	253
648.71484375	0	health	response	2	77	17	foodImage.97	FOODEEG_Images\0905.jpg	YN	Left	Yes	0.889400899992324	0	332143	234
649.7578125	1	health	trialStart	2	78	18	foodImage.91	FOODEEG_Images\0896.jpg	NY	Right	Yes	0.611315899994224	0	332677	251
650.818359375	2	health	foodImageDisplay	2	78	18	foodImage.91	FOODEEG_Images\0896.jpg	NY	Right	Yes	0.611315899994224	0	333220	252
652.87890625	0.611315899994224	health	choicePhaseStart	2	78	18	foodImage.91	FOODEEG_Images\0896.jpg	NY	Right	Yes	0.611315899994224	0	334275	253
653.482421875	0	health	response	2	78	18	foodImage.91	FOODEEG_Images\0896.jpg	NY	Right	Yes	0.611315899994224	0	334584	235
654.537109375	1	taste	trialStart	2	79	19	foodImage.41	FOODEEG_Images\0409.jpg	NY	Right	Yes	0.87591879995307	0	335124	251
655.583984375	2	taste	foodImageDisplay	2	79	19	foodImage.41	FOODEEG_Images\0409.jpg	NY	Right	Yes	0.87591879995307	0	335660	252
657.64453125	0.87591879995307	taste	choicePhaseStart	2	79	19	foodImage.41	FOODEEG_Images\0409.jpg	NY	Right	Yes	0.87591879995307	0	336715	253
658.513671875	0	taste	response	2	79	19	foodImage.41	FOODEEG_Images\0409.jpg	NY	Right	Yes	0.87591879995307	0	337160	235
659.55859375	1	health	trialStart	2	80	20	foodImage.81	FOODEEG_Images\0797.jpg	YN	Left	Yes	0.647496000048704	0	337695	251
660.615234375	2	health	foodImageDisplay	2	80	20	foodImage.81	FOODEEG_Images\0797.jpg	YN	Left	Yes	0.647496000048704	0	338236	252
662.67578125	0.647496000048704	health	choicePhaseStart	2	80	20	foodImage.81	FOODEEG_Images\0797.jpg	YN	Left	Yes	0.647496000048704	0	339291	253
663.314453125	0	health	response	2	80	20	foodImage.81	FOODEEG_Images\0797.jpg	YN	Left	Yes	0.647496000048704	0	339618	234
664.35546875	1	taste	trialStart	2	81	21	foodImage.89	FOODEEG_Images\0881.jpg	YN	Left	Yes	0.683971699967515	0	340151	251
665.41015625	2	taste	foodImageDisplay	2	81	21	foodImage.89	FOODEEG_Images\0881.jpg	YN	Left	Yes	0.683971699967515	0	340691	252
667.47265625	0.683971699967515	taste	choicePhaseStart	2	81	21	foodImage.89	FOODEEG_Images\0881.jpg	YN	Left	Yes	0.683971699967515	0	341747	253
668.146484375	0	taste	response	2	81	21	foodImage.89	FOODEEG_Images\0881.jpg	YN	Left	Yes	0.683971699967515	0	342092	234
669.19140625	1	decision	trialStart	2	82	22	foodImage.87	FOODEEG_Images\0873.jpg	NY	Right	Yes	0.592505299951881	0	342627	251
670.251953125	2	decision	foodImageDisplay	2	82	22	foodImage.87	FOODEEG_Images\0873.jpg	NY	Right	Yes	0.592505299951881	0	343170	252
672.314453125	0.592505299951881	decision	choicePhaseStart	2	82	22	foodImage.87	FOODEEG_Images\0873.jpg	NY	Right	Yes	0.592505299951881	0	344226	253
672.8984375	0	decision	response	2	82	22	foodImage.87	FOODEEG_Images\0873.jpg	NY	Right	Yes	0.592505299951881	0	344525	235
673.94140625	1	decision	trialStart	2	83	23	foodImage.46	FOODEEG_Images\0479.jpg	YN	Left	Yes	0.675408000010066	0	345059	251
675.001953125	2	decision	foodImageDisplay	2	83	23	foodImage.46	FOODEEG_Images\0479.jpg	YN	Left	Yes	0.675408000010066	0	345602	252
677.064453125	0.675408000010066	decision	choicePhaseStart	2	83	23	foodImage.46	FOODEEG_Images\0479.jpg	YN	Left	Yes	0.675408000010066	0	346658	253
677.73046875	0	decision	response	2	83	23	foodImage.46	FOODEEG_Images\0479.jpg	YN	Left	Yes	0.675408000010066	0	346999	234
678.771484375	1	health	trialStart	2	84	24	foodImage.120	FOODEEG_Images\0928.jpg	NY	Left	No	0.983876199985389	0	347532	251
679.8125	2	health	foodImageDisplay	2	84	24	foodImage.120	FOODEEG_Images\0928.jpg	NY	Left	No	0.983876199985389	0	348065	252
681.875	0.983876199985389	health	choicePhaseStart	2	84	24	foodImage.120	FOODEEG_Images\0928.jpg	NY	Left	No	0.983876199985389	0	349121	253
682.849609375	0	health	response	2	84	24	foodImage.120	FOODEEG_Images\0928.jpg	NY	Left	No	0.983876199985389	0	349620	234
683.890625	1	decision	trialStart	2	85	25	foodImage.13	FOODEEG_Images\0183.jpg	NY	Right	Yes	0.622473700030241	0	350153	251
684.93359375	2	decision	foodImageDisplay	2	85	25	foodImage.13	FOODEEG_Images\0183.jpg	NY	Right	Yes	0.622473700030241	0	350687	252
686.99609375	0.622473700030241	decision	choicePhaseStart	2	85	25	foodImage.13	FOODEEG_Images\0183.jpg	NY	Right	Yes	0.622473700030241	0	351743	253
687.609375	0	decision	response	2	85	25	foodImage.13	FOODEEG_Images\0183.jpg	NY	Right	Yes	0.622473700030241	0	352057	235
688.65234375	1	decision	trialStart	2	86	26	foodImage.115	FOODEEG_Images\0923.jpg	NY	Right	Yes	0.632031600049231	0	352591	251
689.69140625	2	decision	foodImageDisplay	2	86	26	foodImage.115	FOODEEG_Images\0923.jpg	NY	Right	Yes	0.632031600049231	0	353123	252
691.75390625	0.632031600049231	decision	choicePhaseStart	2	86	26	foodImage.115	FOODEEG_Images\0923.jpg	NY	Right	Yes	0.632031600049231	0	354179	253
692.376953125	0	decision	response	2	86	26	foodImage.115	FOODEEG_Images\0923.jpg	NY	Right	Yes	0.632031600049231	0	354498	235
693.421875	1	health	trialStart	2	87	27	foodImage.98	FOODEEG_Images\0906.jpg	NY	Left	No	1.19145039998693	0	355033	251
694.4609375	2	health	foodImageDisplay	2	87	27	foodImage.98	FOODEEG_Images\0906.jpg	NY	Left	No	1.19145039998693	0	355565	252
696.5234375	1.19145039998693	health	choicePhaseStart	2	87	27	foodImage.98	FOODEEG_Images\0906.jpg	NY	Left	No	1.19145039998693	0	356621	253
697.705078125	0	health	response	2	87	27	foodImage.98	FOODEEG_Images\0906.jpg	NY	Left	No	1.19145039998693	0	357226	234
698.74609375	1	taste	trialStart	2	88	28	foodImage.35	FOODEEG_Images\0350.jpg	NY	Right	Yes	0.776512300013565	0	357759	251
699.787109375	2	taste	foodImageDisplay	2	88	28	foodImage.35	FOODEEG_Images\0350.jpg	NY	Right	Yes	0.776512300013565	0	358292	252
701.849609375	0.776512300013565	taste	choicePhaseStart	2	88	28	foodImage.35	FOODEEG_Images\0350.jpg	NY	Right	Yes	0.776512300013565	0	359348	253
702.6171875	0	taste	response	2	88	28	foodImage.35	FOODEEG_Images\0350.jpg	NY	Right	Yes	0.776512300013565	0	359741	235
703.66015625	1	taste	trialStart	2	89	29	foodImage.56	FOODEEG_Images\0586.jpg	YN	Left	Yes	0.676418599963654	0	360275	251
704.703125	2	taste	foodImageDisplay	2	89	29	foodImage.56	FOODEEG_Images\0586.jpg	YN	Left	Yes	0.676418599963654	0	360809	252
706.765625	0.676418599963654	taste	choicePhaseStart	2	89	29	foodImage.56	FOODEEG_Images\0586.jpg	YN	Left	Yes	0.676418599963654	0	361865	253
707.431640625	0	taste	response	2	89	29	foodImage.56	FOODEEG_Images\0586.jpg	YN	Left	Yes	0.676418599963654	0	362206	234
708.474609375	1	taste	trialStart	2	90	30	foodImage.52	FOODEEG_Images\0539.jpg	YN	Left	Yes	0.639194900053553	0	362740	251
709.533203125	2	taste	foodImageDisplay	2	90	30	foodImage.52	FOODEEG_Images\0539.jpg	YN	Left	Yes	0.639194900053553	0	363282	252
711.595703125	0.639194900053553	taste	choicePhaseStart	2	90	30	foodImage.52	FOODEEG_Images\0539.jpg	YN	Left	Yes	0.639194900053553	0	364338	253
712.224609375	0	taste	response	2	90	30	foodImage.52	FOODEEG_Images\0539.jpg	YN	Left	Yes	0.639194900053553	0	364660	234
713.267578125	1	health	trialStart	2	91	31	foodImage.93	FOODEEG_Images\0901.jpg	YN	Right	No	1.58492049999768	0	365194	251
714.306640625	2	health	foodImageDisplay	2	91	31	foodImage.93	FOODEEG_Images\0901.jpg	YN	Right	No	1.58492049999768	0	365726	252
716.3671875	1.58492049999768	health	choicePhaseStart	2	91	31	foodImage.93	FOODEEG_Images\0901.jpg	YN	Right	No	1.58492049999768	0	366781	253
717.9453125	0	health	response	2	91	31	foodImage.93	FOODEEG_Images\0901.jpg	YN	Right	No	1.58492049999768	0	367589	235
718.986328125	1	health	trialStart	2	92	32	foodImage.96	FOODEEG_Images\0904.jpg	YN	Right	No	1.13634799997089	0	368122	251
720.025390625	2	health	foodImageDisplay	2	92	32	foodImage.96	FOODEEG_Images\0904.jpg	YN	Right	No	1.13634799997089	0	368654	252
722.08984375	1.13634799997089	health	choicePhaseStart	2	92	32	foodImage.96	FOODEEG_Images\0904.jpg	YN	Right	No	1.13634799997089	0	369711	253
723.216796875	0	health	response	2	92	32	foodImage.96	FOODEEG_Images\0904.jpg	YN	Right	No	1.13634799997089	0	370288	235
724.2578125	1	decision	trialStart	2	93	33	foodImage.109	FOODEEG_Images\0917.jpg	YN	Right	No	0.713835200003814	0	370821	251
725.296875	2	decision	foodImageDisplay	2	93	33	foodImage.109	FOODEEG_Images\0917.jpg	YN	Right	No	0.713835200003814	0	371353	252
727.359375	0.713835200003814	decision	choicePhaseStart	2	93	33	foodImage.109	FOODEEG_Images\0917.jpg	YN	Right	No	0.713835200003814	0	372409	253
728.064453125	0	decision	response	2	93	33	foodImage.109	FOODEEG_Images\0917.jpg	YN	Right	No	0.713835200003814	0	372770	235
729.107421875	1	decision	trialStart	2	94	34	foodImage.28	FOODEEG_Images\0273.jpg	YN	Left	Yes	0.890722500043921	0	373304	251
730.15234375	2	decision	foodImageDisplay	2	94	34	foodImage.28	FOODEEG_Images\0273.jpg	YN	Left	Yes	0.890722500043921	0	373839	252
732.212890625	0.890722500043921	decision	choicePhaseStart	2	94	34	foodImage.28	FOODEEG_Images\0273.jpg	YN	Left	Yes	0.890722500043921	0	374894	253
733.095703125	0	decision	response	2	94	34	foodImage.28	FOODEEG_Images\0273.jpg	YN	Left	Yes	0.890722500043921	0	375346	234
734.14453125	1	decision	trialStart	2	95	35	foodImage.83	FOODEEG_Images\0827.jpg	YN	Left	Yes	0.45618719997583	0	375883	251
735.203125	2	decision	foodImageDisplay	2	95	35	foodImage.83	FOODEEG_Images\0827.jpg	YN	Left	Yes	0.45618719997583	0	376425	252
737.263671875	0.45618719997583	decision	choicePhaseStart	2	95	35	foodImage.83	FOODEEG_Images\0827.jpg	YN	Left	Yes	0.45618719997583	0	377480	253
737.7109375	0	decision	response	2	95	35	foodImage.83	FOODEEG_Images\0827.jpg	YN	Left	Yes	0.45618719997583	0	377709	234
738.755859375	1	decision	trialStart	2	96	36	foodImage.74	FOODEEG_Images\0752.jpg	YN	Left	Yes	0.689826400019228	0	378244	251
739.80078125	2	decision	foodImageDisplay	2	96	36	foodImage.74	FOODEEG_Images\0752.jpg	YN	Left	Yes	0.689826400019228	0	378779	252
741.86328125	0.689826400019228	decision	choicePhaseStart	2	96	36	foodImage.74	FOODEEG_Images\0752.jpg	YN	Left	Yes	0.689826400019228	0	379835	253
742.54296875	0	decision	response	2	96	36	foodImage.74	FOODEEG_Images\0752.jpg	YN	Left	Yes	0.689826400019228	0	380183	234
743.5859375	1	taste	trialStart	2	97	37	foodImage.27	FOODEEG_Images\0263.jpg	NY	Right	Yes	0.814496799954213	0	380717	251
744.626953125	2	taste	foodImageDisplay	2	97	37	foodImage.27	FOODEEG_Images\0263.jpg	NY	Right	Yes	0.814496799954213	0	381250	252
746.689453125	0.814496799954213	taste	choicePhaseStart	2	97	37	foodImage.27	FOODEEG_Images\0263.jpg	NY	Right	Yes	0.814496799954213	0	382306	253
747.494140625	0	taste	response	2	97	37	foodImage.27	FOODEEG_Images\0263.jpg	NY	Right	Yes	0.814496799954213	0	382718	235
748.5390625	1	health	trialStart	2	98	38	foodImage.10	FOODEEG_Images\0145.jpg	YN	Right	No	1.29375940002501	0	383253	251
749.595703125	2	health	foodImageDisplay	2	98	38	foodImage.10	FOODEEG_Images\0145.jpg	YN	Right	No	1.29375940002501	0	383794	252
751.658203125	1.29375940002501	health	choicePhaseStart	2	98	38	foodImage.10	FOODEEG_Images\0145.jpg	YN	Right	No	1.29375940002501	0	384850	253
752.943359375	0	health	response	2	98	38	foodImage.10	FOODEEG_Images\0145.jpg	YN	Right	No	1.29375940002501	0	385508	235
753.986328125	1	taste	trialStart	2	99	39	foodImage.94	FOODEEG_Images\0902.jpg	YN	Left	Yes	0.695459400012624	0	386042	251
755.025390625	2	taste	foodImageDisplay	2	99	39	foodImage.94	FOODEEG_Images\0902.jpg	YN	Left	Yes	0.695459400012624	0	386574	252
757.087890625	0.695459400012624	taste	choicePhaseStart	2	99	39	foodImage.94	FOODEEG_Images\0902.jpg	YN	Left	Yes	0.695459400012624	0	387630	253
757.775390625	0	taste	response	2	99	39	foodImage.94	FOODEEG_Images\0902.jpg	YN	Left	Yes	0.695459400012624	0	387982	234
758.818359375	1	health	trialStart	2	100	40	foodImage.69	FOODEEG_Images\0693.jpg	YN	Left	Yes	0.732744999986608	0	388516	251
759.861328125	2	health	foodImageDisplay	2	100	40	foodImage.69	FOODEEG_Images\0693.jpg	YN	Left	Yes	0.732744999986608	0	389050	252
761.923828125	0.732744999986608	health	choicePhaseStart	2	100	40	foodImage.69	FOODEEG_Images\0693.jpg	YN	Left	Yes	0.732744999986608	0	390106	253
762.646484375	0	health	response	2	100	40	foodImage.69	FOODEEG_Images\0693.jpg	YN	Left	Yes	0.732744999986608	0	390476	234
763.689453125	1	health	trialStart	2	101	41	foodImage.87	FOODEEG_Images\0873.jpg	YN	Left	Yes	0.72483540000394	0	391010	251
764.748046875	2	health	foodImageDisplay	2	101	41	foodImage.87	FOODEEG_Images\0873.jpg	YN	Left	Yes	0.72483540000394	0	391552	252
766.810546875	0.72483540000394	health	choicePhaseStart	2	101	41	foodImage.87	FOODEEG_Images\0873.jpg	YN	Left	Yes	0.72483540000394	0	392608	253
767.525390625	0	health	response	2	101	41	foodImage.87	FOODEEG_Images\0873.jpg	YN	Left	Yes	0.72483540000394	0	392974	234
768.572265625	1	taste	trialStart	2	102	42	foodImage.28	FOODEEG_Images\0273.jpg	NY	Right	Yes	0.897456599981524	0	393510	251
769.615234375	2	taste	foodImageDisplay	2	102	42	foodImage.28	FOODEEG_Images\0273.jpg	NY	Right	Yes	0.897456599981524	0	394044	252
771.677734375	0.897456599981524	taste	choicePhaseStart	2	102	42	foodImage.28	FOODEEG_Images\0273.jpg	NY	Right	Yes	0.897456599981524	0	395100	253
772.56640625	0	taste	response	2	102	42	foodImage.28	FOODEEG_Images\0273.jpg	NY	Right	Yes	0.897456599981524	0	395555	235
773.609375	1	taste	trialStart	2	103	43	foodImage.112	FOODEEG_Images\0920.jpg	YN	Right	No	1.141787200002	0	396089	251
774.650390625	2	taste	foodImageDisplay	2	103	43	foodImage.112	FOODEEG_Images\0920.jpg	YN	Right	No	1.141787200002	0	396622	252
776.712890625	1.141787200002	taste	choicePhaseStart	2	103	43	foodImage.112	FOODEEG_Images\0920.jpg	YN	Right	No	1.141787200002	0	397678	253
777.845703125	0	taste	response	2	103	43	foodImage.112	FOODEEG_Images\0920.jpg	YN	Right	No	1.141787200002	0	398258	235
778.892578125	1	taste	trialStart	2	104	44	foodImage.50	FOODEEG_Images\0529.jpg	NY	Right	Yes	0.664144399983343	0	398794	251
779.951171875	2	taste	foodImageDisplay	2	104	44	foodImage.50	FOODEEG_Images\0529.jpg	NY	Right	Yes	0.664144399983343	0	399336	252
782.013671875	0.664144399983343	taste	choicePhaseStart	2	104	44	foodImage.50	FOODEEG_Images\0529.jpg	NY	Right	Yes	0.664144399983343	0	400392	253
782.669921875	0	taste	response	2	104	44	foodImage.50	FOODEEG_Images\0529.jpg	NY	Right	Yes	0.664144399983343	0	400728	235
783.71875	1	decision	trialStart	2	105	45	foodImage.68	FOODEEG_Images\0685.jpg	YN	Left	Yes	0.674670599983074	0	401265	251
784.798828125	2	decision	foodImageDisplay	2	105	45	foodImage.68	FOODEEG_Images\0685.jpg	YN	Left	Yes	0.674670599983074	0	401818	252
786.861328125	0.674670599983074	decision	choicePhaseStart	2	105	45	foodImage.68	FOODEEG_Images\0685.jpg	YN	Left	Yes	0.674670599983074	0	402874	253
787.525390625	0	decision	response	2	105	45	foodImage.68	FOODEEG_Images\0685.jpg	YN	Left	Yes	0.674670599983074	0	403214	234
788.568359375	1	decision	trialStart	2	106	46	foodImage.78	FOODEEG_Images\0787.jpg	YN	Left	Yes	1.33770070003811	0	403748	251
789.61328125	2	decision	foodImageDisplay	2	106	46	foodImage.78	FOODEEG_Images\0787.jpg	YN	Left	Yes	1.33770070003811	0	404283	252
791.67578125	1.33770070003811	decision	choicePhaseStart	2	106	46	foodImage.78	FOODEEG_Images\0787.jpg	YN	Left	Yes	1.33770070003811	0	405339	253
793.005859375	0	decision	response	2	106	46	foodImage.78	FOODEEG_Images\0787.jpg	YN	Left	Yes	1.33770070003811	0	406020	234
794.046875	1	health	trialStart	2	107	47	foodImage.114	FOODEEG_Images\0922.jpg	YN	Left	Yes	0.712818200001493	0	406553	251
795.0859375	2	health	foodImageDisplay	2	107	47	foodImage.114	FOODEEG_Images\0922.jpg	YN	Left	Yes	0.712818200001493	0	407085	252
797.1484375	0.712818200001493	health	choicePhaseStart	2	107	47	foodImage.114	FOODEEG_Images\0922.jpg	YN	Left	Yes	0.712818200001493	0	408141	253
797.853515625	0	health	response	2	107	47	foodImage.114	FOODEEG_Images\0922.jpg	YN	Left	Yes	0.712818200001493	0	408502	234
798.8984375	1	decision	trialStart	2	108	48	foodImage.57	FOODEEG_Images\0587.jpg	NY	Right	Yes	0.839918799989391	0	409037	251
799.94140625	2	decision	foodImageDisplay	2	108	48	foodImage.57	FOODEEG_Images\0587.jpg	NY	Right	Yes	0.839918799989391	0	409571	252
802.005859375	0.839918799989391	decision	choicePhaseStart	2	108	48	foodImage.57	FOODEEG_Images\0587.jpg	NY	Right	Yes	0.839918799989391	0	410628	253
802.8359375	0	decision	response	2	108	48	foodImage.57	FOODEEG_Images\0587.jpg	NY	Right	Yes	0.839918799989391	0	411053	235
803.8828125	1	health	trialStart	2	109	49	foodImage.63	FOODEEG_Images\0645.jpg	NY	Right	Yes	0.857334000000264	0	411589	251
804.92578125	2	health	foodImageDisplay	2	109	49	foodImage.63	FOODEEG_Images\0645.jpg	NY	Right	Yes	0.857334000000264	0	412123	252
806.98828125	0.857334000000264	health	choicePhaseStart	2	109	49	foodImage.63	FOODEEG_Images\0645.jpg	NY	Right	Yes	0.857334000000264	0	413179	253
807.8359375	0	health	response	2	109	49	foodImage.63	FOODEEG_Images\0645.jpg	NY	Right	Yes	0.857334000000264	0	413613	235
808.880859375	1	taste	trialStart	2	110	50	foodImage.103	FOODEEG_Images\0911.jpg	NY	Left	No	0.663069400005043	0	414148	251
809.919921875	2	taste	foodImageDisplay	2	110	50	foodImage.103	FOODEEG_Images\0911.jpg	NY	Left	No	0.663069400005043	0	414680	252
811.982421875	0.663069400005043	taste	choicePhaseStart	2	110	50	foodImage.103	FOODEEG_Images\0911.jpg	NY	Left	No	0.663069400005043	0	415736	253
812.63671875	0	taste	response	2	110	50	foodImage.103	FOODEEG_Images\0911.jpg	NY	Left	No	0.663069400005043	0	416071	234
813.681640625	1	health	trialStart	2	111	51	foodImage.8	FOODEEG_Images\0136.jpg	NY	Left	No	0.850974700006191	0	416606	251
814.724609375	2	health	foodImageDisplay	2	111	51	foodImage.8	FOODEEG_Images\0136.jpg	NY	Left	No	0.850974700006191	0	417140	252
816.787109375	0.850974700006191	health	choicePhaseStart	2	111	51	foodImage.8	FOODEEG_Images\0136.jpg	NY	Left	No	0.850974700006191	0	418196	253
817.62890625	0	health	response	2	111	51	foodImage.8	FOODEEG_Images\0136.jpg	NY	Left	No	0.850974700006191	0	418627	234
818.671875	1	decision	trialStart	2	112	52	foodImage.15	FOODEEG_Images\0189.jpg	YN	Left	Yes	0.588110000011511	0	419161	251
819.73046875	2	decision	foodImageDisplay	2	112	52	foodImage.15	FOODEEG_Images\0189.jpg	YN	Left	Yes	0.588110000011511	0	419703	252
821.79296875	0.588110000011511	decision	choicePhaseStart	2	112	52	foodImage.15	FOODEEG_Images\0189.jpg	YN	Left	Yes	0.588110000011511	0	420759	253
822.373046875	0	decision	response	2	112	52	foodImage.15	FOODEEG_Images\0189.jpg	YN	Left	Yes	0.588110000011511	0	421056	234
823.416015625	1	decision	trialStart	2	113	53	foodImage.119	FOODEEG_Images\0927.jpg	NY	Left	No	0.549217600026168	0	421590	251
824.462890625	2	decision	foodImageDisplay	2	113	53	foodImage.119	FOODEEG_Images\0927.jpg	NY	Left	No	0.549217600026168	0	422126	252
826.52734375	0.549217600026168	decision	choicePhaseStart	2	113	53	foodImage.119	FOODEEG_Images\0927.jpg	NY	Left	No	0.549217600026168	0	423183	253
827.068359375	0	decision	response	2	113	53	foodImage.119	FOODEEG_Images\0927.jpg	NY	Left	No	0.549217600026168	0	423460	234
828.11328125	1	decision	trialStart	2	114	54	foodImage.37	FOODEEG_Images\0359.jpg	YN	Left	Yes	0.921277699992061	0	423995	251
829.154296875	2	decision	foodImageDisplay	2	114	54	foodImage.37	FOODEEG_Images\0359.jpg	YN	Left	Yes	0.921277699992061	0	424528	252
831.216796875	0.921277699992061	decision	choicePhaseStart	2	114	54	foodImage.37	FOODEEG_Images\0359.jpg	YN	Left	Yes	0.921277699992061	0	425584	253
832.1328125	0	decision	response	2	114	54	foodImage.37	FOODEEG_Images\0359.jpg	YN	Left	Yes	0.921277699992061	0	426053	234
833.17578125	1	taste	trialStart	2	115	55	foodImage.6	FOODEEG_Images\0113.jpg	YN	Left	Yes	0.676753000007011	0	426587	251
834.216796875	2	taste	foodImageDisplay	2	115	55	foodImage.6	FOODEEG_Images\0113.jpg	YN	Left	Yes	0.676753000007011	0	427120	252
836.279296875	0.676753000007011	taste	choicePhaseStart	2	115	55	foodImage.6	FOODEEG_Images\0113.jpg	YN	Left	Yes	0.676753000007011	0	428176	253
836.947265625	0	taste	response	2	115	55	foodImage.6	FOODEEG_Images\0113.jpg	YN	Left	Yes	0.676753000007011	0	428518	234
837.998046875	1	decision	trialStart	2	116	56	foodImage.31	FOODEEG_Images\0294.jpg	YN	Left	Yes	0.788099900004454	0	429056	251
839.041015625	2	decision	foodImageDisplay	2	116	56	foodImage.31	FOODEEG_Images\0294.jpg	YN	Left	Yes	0.788099900004454	0	429590	252
841.103515625	0.788099900004454	decision	choicePhaseStart	2	116	56	foodImage.31	FOODEEG_Images\0294.jpg	YN	Left	Yes	0.788099900004454	0	430646	253
841.8828125	0	decision	response	2	116	56	foodImage.31	FOODEEG_Images\0294.jpg	YN	Left	Yes	0.788099900004454	0	431045	234
842.92578125	1	health	trialStart	2	117	57	foodImage.101	FOODEEG_Images\0909.jpg	NY	Left	No	0.861220200022217	0	431579	251
843.9765625	2	health	foodImageDisplay	2	117	57	foodImage.101	FOODEEG_Images\0909.jpg	NY	Left	No	0.861220200022217	0	432117	252
846.037109375	0.861220200022217	health	choicePhaseStart	2	117	57	foodImage.101	FOODEEG_Images\0909.jpg	NY	Left	No	0.861220200022217	0	433172	253
846.890625	0	health	response	2	117	57	foodImage.101	FOODEEG_Images\0909.jpg	NY	Left	No	0.861220200022217	0	433609	234
847.93359375	1	taste	trialStart	2	118	58	foodImage.84	FOODEEG_Images\0830.jpg	YN	Left	Yes	0.716160000010859	0	434143	251
848.994140625	2	taste	foodImageDisplay	2	118	58	foodImage.84	FOODEEG_Images\0830.jpg	YN	Left	Yes	0.716160000010859	0	434686	252
851.056640625	0.716160000010859	taste	choicePhaseStart	2	118	58	foodImage.84	FOODEEG_Images\0830.jpg	YN	Left	Yes	0.716160000010859	0	435742	253
851.763671875	0	taste	response	2	118	58	foodImage.84	FOODEEG_Images\0830.jpg	YN	Left	Yes	0.716160000010859	0	436104	234
852.806640625	1	health	trialStart	2	119	59	foodImage.78	FOODEEG_Images\0787.jpg	YN	Left	Yes	0.713338700006716	0	436638	251
853.8515625	2	health	foodImageDisplay	2	119	59	foodImage.78	FOODEEG_Images\0787.jpg	YN	Left	Yes	0.713338700006716	0	437173	252
855.9140625	0.713338700006716	health	choicePhaseStart	2	119	59	foodImage.78	FOODEEG_Images\0787.jpg	YN	Left	Yes	0.713338700006716	0	438229	253
856.619140625	0	health	response	2	119	59	foodImage.78	FOODEEG_Images\0787.jpg	YN	Left	Yes	0.713338700006716	0	438590	234
857.662109375	1	taste	trialStart	2	120	60	foodImage.69	FOODEEG_Images\0693.jpg	YN	Left	Yes	0.718588399991859	0	439124	251
858.705078125	2	taste	foodImageDisplay	2	120	60	foodImage.69	FOODEEG_Images\0693.jpg	YN	Left	Yes	0.718588399991859	0	439658	252
860.765625	0.718588399991859	taste	choicePhaseStart	2	120	60	foodImage.69	FOODEEG_Images\0693.jpg	YN	Left	Yes	0.718588399991859	0	440713	253
861.474609375	0	taste	response	2	120	60	foodImage.69	FOODEEG_Images\0693.jpg	YN	Left	Yes	0.718588399991859	0	441076	234
863.517578125	10.99609375	n/a	blockEnd	n/a	n/a	n/a	n/a	n/a	n/a	n/a	n/a	n/a	n/a	442122	254
874.513671875	2	n/a	blockStart	3	n/a	n/a	n/a	n/a	n/a	n/a	n/a	n/a	n/a	447752	250
876.544921875	1	taste	trialStart	3	121	1	foodImage.83	FOODEEG_Images\0827.jpg	NY	Right	Yes	0.630844899977092	0	448792	251
877.603515625	2	taste	foodImageDisplay	3	121	1	foodImage.83	FOODEEG_Images\0827.jpg	NY	Right	Yes	0.630844899977092	0	449334	252
879.66796875	0.630844899977092	taste	choicePhaseStart	3	121	1	foodImage.83	FOODEEG_Images\0827.jpg	NY	Right	Yes	0.630844899977092	0	450391	253
880.2890625	0	taste	response	3	121	1	foodImage.83	FOODEEG_Images\0827.jpg	NY	Right	Yes	0.630844899977092	0	450709	235
881.333984375	1	decision	trialStart	3	122	2	foodImage.102	FOODEEG_Images\0910.jpg	NY	Left	No	0.760253799962811	0	451244	251
882.373046875	2	decision	foodImageDisplay	3	122	2	foodImage.102	FOODEEG_Images\0910.jpg	NY	Left	No	0.760253799962811	0	451776	252
884.435546875	0.760253799962811	decision	choicePhaseStart	3	122	2	foodImage.102	FOODEEG_Images\0910.jpg	NY	Left	No	0.760253799962811	0	452832	253
885.185546875	0	decision	response	3	122	2	foodImage.102	FOODEEG_Images\0910.jpg	NY	Left	No	0.760253799962811	0	453216	234
886.228515625	1	taste	trialStart	3	123	3	foodImage.21	FOODEEG_Images\0234.jpg	NY	Right	Yes	0.540594500023872	0	453750	251
887.2890625	2	taste	foodImageDisplay	3	123	3	foodImage.21	FOODEEG_Images\0234.jpg	NY	Right	Yes	0.540594500023872	0	454293	252
889.3515625	0.540594500023872	taste	choicePhaseStart	3	123	3	foodImage.21	FOODEEG_Images\0234.jpg	NY	Right	Yes	0.540594500023872	0	455349	253
889.880859375	0	taste	response	3	123	3	foodImage.21	FOODEEG_Images\0234.jpg	NY	Right	Yes	0.540594500023872	0	455620	235
890.923828125	1	health	trialStart	3	124	4	foodImage.88	FOODEEG_Images\0878.jpg	YN	Left	Yes	0.639082600013353	0	456154	251
891.982421875	2	health	foodImageDisplay	3	124	4	foodImage.88	FOODEEG_Images\0878.jpg	YN	Left	Yes	0.639082600013353	0	456696	252
894.044921875	0.639082600013353	health	choicePhaseStart	3	124	4	foodImage.88	FOODEEG_Images\0878.jpg	YN	Left	Yes	0.639082600013353	0	457752	253
894.673828125	0	health	response	3	124	4	foodImage.88	FOODEEG_Images\0878.jpg	YN	Left	Yes	0.639082600013353	0	458074	234
895.716796875	1	health	trialStart	3	125	5	foodImage.47	FOODEEG_Images\0488.jpg	NY	Left	No	0.645650399965234	0	458608	251
896.7578125	2	health	foodImageDisplay	3	125	5	foodImage.47	FOODEEG_Images\0488.jpg	NY	Left	No	0.645650399965234	0	459141	252
898.8203125	0.645650399965234	health	choicePhaseStart	3	125	5	foodImage.47	FOODEEG_Images\0488.jpg	NY	Left	No	0.645650399965234	0	460197	253
899.45703125	0	health	response	3	125	5	foodImage.47	FOODEEG_Images\0488.jpg	NY	Left	No	0.645650399965234	0	460523	234
900.5	1	health	trialStart	3	126	6	foodImage.36	FOODEEG_Images\0352.jpg	YN	Left	Yes	1.57469779998064	0	461057	251
901.55859375	2	health	foodImageDisplay	3	126	6	foodImage.36	FOODEEG_Images\0352.jpg	YN	Left	Yes	1.57469779998064	0	461599	252
903.619140625	1.57469779998064	health	choicePhaseStart	3	126	6	foodImage.36	FOODEEG_Images\0352.jpg	YN	Left	Yes	1.57469779998064	0	462654	253
905.185546875	0	health	response	3	126	6	foodImage.36	FOODEEG_Images\0352.jpg	YN	Left	Yes	1.57469779998064	0	463456	234
906.228515625	1	health	trialStart	3	127	7	foodImage.80	FOODEEG_Images\0796.jpg	YN	Left	Yes	0.621628299995791	0	463990	251
907.287109375	2	health	foodImageDisplay	3	127	7	foodImage.80	FOODEEG_Images\0796.jpg	YN	Left	Yes	0.621628299995791	0	464532	252
909.349609375	0.621628299995791	health	choicePhaseStart	3	127	7	foodImage.80	FOODEEG_Images\0796.jpg	YN	Left	Yes	0.621628299995791	0	465588	253
909.9609375	0	health	response	3	127	7	foodImage.80	FOODEEG_Images\0796.jpg	YN	Left	Yes	0.621628299995791	0	465901	234
911.00390625	1	decision	trialStart	3	128	8	foodImage.16	FOODEEG_Images\0196.jpg	NY	Right	Yes	0.646227499993984	0	466435	251
912.0625	2	decision	foodImageDisplay	3	128	8	foodImage.16	FOODEEG_Images\0196.jpg	NY	Right	Yes	0.646227499993984	0	466977	252
914.125	0.646227499993984	decision	choicePhaseStart	3	128	8	foodImage.16	FOODEEG_Images\0196.jpg	NY	Right	Yes	0.646227499993984	0	468033	253
914.759765625	0	decision	response	3	128	8	foodImage.16	FOODEEG_Images\0196.jpg	NY	Right	Yes	0.646227499993984	0	468358	235
915.802734375	1	decision	trialStart	3	129	9	foodImage.105	FOODEEG_Images\0913.jpg	YN	Right	No	0.688604199967813	0	468892	251
916.841796875	2	decision	foodImageDisplay	3	129	9	foodImage.105	FOODEEG_Images\0913.jpg	YN	Right	No	0.688604199967813	0	469424	252
918.904296875	0.688604199967813	decision	choicePhaseStart	3	129	9	foodImage.105	FOODEEG_Images\0913.jpg	YN	Right	No	0.688604199967813	0	470480	253
919.583984375	0	decision	response	3	129	9	foodImage.105	FOODEEG_Images\0913.jpg	YN	Right	No	0.688604199967813	0	470828	235
920.626953125	1	taste	trialStart	3	130	10	foodImage.34	FOODEEG_Images\0339.jpg	NY	Right	Yes	0.733714200032409	0	471362	251
921.685546875	2	taste	foodImageDisplay	3	130	10	foodImage.34	FOODEEG_Images\0339.jpg	NY	Right	Yes	0.733714200032409	0	471904	252
923.748046875	0.733714200032409	taste	choicePhaseStart	3	130	10	foodImage.34	FOODEEG_Images\0339.jpg	NY	Right	Yes	0.733714200032409	0	472960	253
924.47265625	0	taste	response	3	130	10	foodImage.34	FOODEEG_Images\0339.jpg	NY	Right	Yes	0.733714200032409	0	473331	235
925.515625	1	taste	trialStart	3	131	11	foodImage.104	FOODEEG_Images\0912.jpg	NY	Left	No	0.697837799962144	0	473865	251
926.552734375	2	taste	foodImageDisplay	3	131	11	foodImage.104	FOODEEG_Images\0912.jpg	NY	Left	No	0.697837799962144	0	474396	252
928.615234375	0.697837799962144	taste	choicePhaseStart	3	131	11	foodImage.104	FOODEEG_Images\0912.jpg	NY	Left	No	0.697837799962144	0	475452	253
929.3046875	0	taste	response	3	131	11	foodImage.104	FOODEEG_Images\0912.jpg	NY	Left	No	0.697837799962144	0	475805	234
930.345703125	1	decision	trialStart	3	132	12	foodImage.101	FOODEEG_Images\0909.jpg	YN	Right	No	0.673968499992043	0	476338	251
931.384765625	2	decision	foodImageDisplay	3	132	12	foodImage.101	FOODEEG_Images\0909.jpg	YN	Right	No	0.673968499992043	0	476870	252
933.447265625	0.673968499992043	decision	choicePhaseStart	3	132	12	foodImage.101	FOODEEG_Images\0909.jpg	YN	Right	No	0.673968499992043	0	477926	253
934.111328125	0	decision	response	3	132	12	foodImage.101	FOODEEG_Images\0909.jpg	YN	Right	No	0.673968499992043	0	478266	235
935.154296875	1	taste	trialStart	3	133	13	foodImage.54	FOODEEG_Images\0560.jpg	YN	Left	Yes	0.631231300008949	0	478800	251
936.212890625	2	taste	foodImageDisplay	3	133	13	foodImage.54	FOODEEG_Images\0560.jpg	YN	Left	Yes	0.631231300008949	0	479342	252
938.275390625	0.631231300008949	taste	choicePhaseStart	3	133	13	foodImage.54	FOODEEG_Images\0560.jpg	YN	Left	Yes	0.631231300008949	0	480398	253
938.896484375	0	taste	response	3	133	13	foodImage.54	FOODEEG_Images\0560.jpg	YN	Left	Yes	0.631231300008949	0	480716	234
939.939453125	1	taste	trialStart	3	134	14	foodImage.99	FOODEEG_Images\0907.jpg	NY	Left	No	0.631363999971654	0	481250	251
940.978515625	2	taste	foodImageDisplay	3	134	14	foodImage.99	FOODEEG_Images\0907.jpg	NY	Left	No	0.631363999971654	0	481782	252
943.041015625	0.631363999971654	taste	choicePhaseStart	3	134	14	foodImage.99	FOODEEG_Images\0907.jpg	NY	Left	No	0.631363999971654	0	482838	253
943.6640625	0	taste	response	3	134	14	foodImage.99	FOODEEG_Images\0907.jpg	NY	Left	No	0.631363999971654	0	483157	234
944.70703125	1	taste	trialStart	3	135	15	foodImage.25	FOODEEG_Images\0261.jpg	NY	Right	Yes	1.20398740004748	0	483691	251
945.7578125	2	taste	foodImageDisplay	3	135	15	foodImage.25	FOODEEG_Images\0261.jpg	NY	Right	Yes	1.20398740004748	0	484229	252
947.8203125	1.20398740004748	taste	choicePhaseStart	3	135	15	foodImage.25	FOODEEG_Images\0261.jpg	NY	Right	Yes	1.20398740004748	0	485285	253
949.015625	0	taste	response	3	135	15	foodImage.25	FOODEEG_Images\0261.jpg	NY	Right	Yes	1.20398740004748	0	485897	235
950.05859375	1	taste	trialStart	3	136	16	foodImage.9	FOODEEG_Images\0138.jpg	YN	Left	Yes	0.563754500006326	0	486431	251
951.11328125	2	taste	foodImageDisplay	3	136	16	foodImage.9	FOODEEG_Images\0138.jpg	YN	Left	Yes	0.563754500006326	0	486971	252
953.177734375	0.563754500006326	taste	choicePhaseStart	3	136	16	foodImage.9	FOODEEG_Images\0138.jpg	YN	Left	Yes	0.563754500006326	0	488028	253
953.734375	0	taste	response	3	136	16	foodImage.9	FOODEEG_Images\0138.jpg	YN	Left	Yes	0.563754500006326	0	488313	234
954.77734375	1	taste	trialStart	3	137	17	foodImage.113	FOODEEG_Images\0921.jpg	YN	Left	Yes	0.85571799997706	0	488847	251
955.81640625	2	taste	foodImageDisplay	3	137	17	foodImage.113	FOODEEG_Images\0921.jpg	YN	Left	Yes	0.85571799997706	0	489379	252
957.87890625	0.85571799997706	taste	choicePhaseStart	3	137	17	foodImage.113	FOODEEG_Images\0921.jpg	YN	Left	Yes	0.85571799997706	0	490435	253
958.7265625	0	taste	response	3	137	17	foodImage.113	FOODEEG_Images\0921.jpg	YN	Left	Yes	0.85571799997706	0	490869	234
959.77734375	1	taste	trialStart	3	138	18	foodImage.115	FOODEEG_Images\0923.jpg	YN	Left	Yes	0.553021800005808	0	491407	251
960.81640625	2	taste	foodImageDisplay	3	138	18	foodImage.115	FOODEEG_Images\0923.jpg	YN	Left	Yes	0.553021800005808	0	491939	252
962.87890625	0.553021800005808	taste	choicePhaseStart	3	138	18	foodImage.115	FOODEEG_Images\0923.jpg	YN	Left	Yes	0.553021800005808	0	492995	253
963.421875	0	taste	response	3	138	18	foodImage.115	FOODEEG_Images\0923.jpg	YN	Left	Yes	0.553021800005808	0	493273	234
964.466796875	1	health	trialStart	3	139	19	foodImage.100	FOODEEG_Images\0908.jpg	NY	Right	Yes	0.910410700016655	0	493808	251
965.50390625	2	health	foodImageDisplay	3	139	19	foodImage.100	FOODEEG_Images\0908.jpg	NY	Right	Yes	0.910410700016655	0	494339	252
967.56640625	0.910410700016655	health	choicePhaseStart	3	139	19	foodImage.100	FOODEEG_Images\0908.jpg	NY	Right	Yes	0.910410700016655	0	495395	253
968.470703125	0	health	response	3	139	19	foodImage.100	FOODEEG_Images\0908.jpg	NY	Right	Yes	0.910410700016655	0	495858	235
969.513671875	1	health	trialStart	3	140	20	foodImage.107	FOODEEG_Images\0915.jpg	NY	Left	No	0.536234699946363	0	496392	251
970.552734375	2	health	foodImageDisplay	3	140	20	foodImage.107	FOODEEG_Images\0915.jpg	NY	Left	No	0.536234699946363	0	496924	252
972.615234375	0.536234699946363	health	choicePhaseStart	3	140	20	foodImage.107	FOODEEG_Images\0915.jpg	NY	Left	No	0.536234699946363	0	497980	253
973.142578125	0	health	response	3	140	20	foodImage.107	FOODEEG_Images\0915.jpg	NY	Left	No	0.536234699946363	0	498250	234
974.193359375	1	health	trialStart	3	141	21	foodImage.57	FOODEEG_Images\0587.jpg	YN	Right	No	1.1069541000179	0	498788	251
975.23828125	2	health	foodImageDisplay	3	141	21	foodImage.57	FOODEEG_Images\0587.jpg	YN	Right	No	1.1069541000179	0	499323	252
977.30078125	1.1069541000179	health	choicePhaseStart	3	141	21	foodImage.57	FOODEEG_Images\0587.jpg	YN	Right	No	1.1069541000179	0	500379	253
978.3984375	0	health	response	3	141	21	foodImage.57	FOODEEG_Images\0587.jpg	YN	Right	No	1.1069541000179	0	500941	235
979.439453125	1	decision	trialStart	3	142	22	foodImage.10	FOODEEG_Images\0145.jpg	YN	Left	Yes	0.646273299993481	0	501474	251
980.49609375	2	decision	foodImageDisplay	3	142	22	foodImage.10	FOODEEG_Images\0145.jpg	YN	Left	Yes	0.646273299993481	0	502015	252
982.560546875	0.646273299993481	decision	choicePhaseStart	3	142	22	foodImage.10	FOODEEG_Images\0145.jpg	YN	Left	Yes	0.646273299993481	0	503072	253
983.197265625	0	decision	response	3	142	22	foodImage.10	FOODEEG_Images\0145.jpg	YN	Left	Yes	0.646273299993481	0	503398	234
984.2421875	1	decision	trialStart	3	143	23	foodImage.76	FOODEEG_Images\0766.jpg	YN	Left	Yes	0.977852199983317	0	503933	251
985.287109375	2	decision	foodImageDisplay	3	143	23	foodImage.76	FOODEEG_Images\0766.jpg	YN	Left	Yes	0.977852199983317	0	504468	252
987.34765625	0.977852199983317	decision	choicePhaseStart	3	143	23	foodImage.76	FOODEEG_Images\0766.jpg	YN	Left	Yes	0.977852199983317	0	505523	253
988.318359375	0	decision	response	3	143	23	foodImage.76	FOODEEG_Images\0766.jpg	YN	Left	Yes	0.977852199983317	0	506020	234
989.361328125	1	decision	trialStart	3	144	24	foodImage.86	FOODEEG_Images\0844.jpg	YN	Left	Yes	0.508602800022345	0	506554	251
990.419921875	2	decision	foodImageDisplay	3	144	24	foodImage.86	FOODEEG_Images\0844.jpg	YN	Left	Yes	0.508602800022345	0	507096	252
992.482421875	0.508602800022345	decision	choicePhaseStart	3	144	24	foodImage.86	FOODEEG_Images\0844.jpg	YN	Left	Yes	0.508602800022345	0	508152	253
992.98046875	0	decision	response	3	144	24	foodImage.86	FOODEEG_Images\0844.jpg	YN	Left	Yes	0.508602800022345	0	508407	234
994.0234375	1	decision	trialStart	3	145	25	foodImage.113	FOODEEG_Images\0921.jpg	YN	Left	Yes	0.591166900005192	0	508941	251
995.064453125	2	decision	foodImageDisplay	3	145	25	foodImage.113	FOODEEG_Images\0921.jpg	YN	Left	Yes	0.591166900005192	0	509474	252
997.125	0.591166900005192	decision	choicePhaseStart	3	145	25	foodImage.113	FOODEEG_Images\0921.jpg	YN	Left	Yes	0.591166900005192	0	510529	253
997.708984375	0	decision	response	3	145	25	foodImage.113	FOODEEG_Images\0921.jpg	YN	Left	Yes	0.591166900005192	0	510828	234
998.75390625	1	taste	trialStart	3	146	26	foodImage.85	FOODEEG_Images\0841.jpg	NY	Right	Yes	0.570820199965965	0	511363	251
999.8125	2	taste	foodImageDisplay	3	146	26	foodImage.85	FOODEEG_Images\0841.jpg	NY	Right	Yes	0.570820199965965	0	511905	252
1001.875	0.570820199965965	taste	choicePhaseStart	3	146	26	foodImage.85	FOODEEG_Images\0841.jpg	NY	Right	Yes	0.570820199965965	0	512961	253
1002.4375	0	taste	response	3	146	26	foodImage.85	FOODEEG_Images\0841.jpg	NY	Right	Yes	0.570820199965965	0	513249	235
1003.48046875	1	taste	trialStart	3	147	27	foodImage.19	FOODEEG_Images\0225.jpg	NY	Right	Yes	0.686055199999828	0	513783	251
1004.521484375	2	taste	foodImageDisplay	3	147	27	foodImage.19	FOODEEG_Images\0225.jpg	NY	Right	Yes	0.686055199999828	0	514316	252
1006.583984375	0.686055199999828	taste	choicePhaseStart	3	147	27	foodImage.19	FOODEEG_Images\0225.jpg	NY	Right	Yes	0.686055199999828	0	515372	253
1007.259765625	0	taste	response	3	147	27	foodImage.19	FOODEEG_Images\0225.jpg	NY	Right	Yes	0.686055199999828	0	515718	235
1008.306640625	1	taste	trialStart	3	148	28	foodImage.53	FOODEEG_Images\0547.jpg	YN	Left	Yes	1.49895050004125	0	516254	251
1009.365234375	2	taste	foodImageDisplay	3	148	28	foodImage.53	FOODEEG_Images\0547.jpg	YN	Left	Yes	1.49895050004125	0	516796	252
1011.427734375	1.49895050004125	taste	choicePhaseStart	3	148	28	foodImage.53	FOODEEG_Images\0547.jpg	YN	Left	Yes	1.49895050004125	0	517852	253
1012.916015625	0	taste	response	3	148	28	foodImage.53	FOODEEG_Images\0547.jpg	YN	Left	Yes	1.49895050004125	0	518614	234
1013.958984375	1	decision	trialStart	3	149	29	foodImage.60	FOODEEG_Images\0614.jpg	NY	Right	Yes	0.55619229999138	0	519148	251
1015.01953125	2	decision	foodImageDisplay	3	149	29	foodImage.60	FOODEEG_Images\0614.jpg	NY	Right	Yes	0.55619229999138	0	519691	252
1017.08203125	0.55619229999138	decision	choicePhaseStart	3	149	29	foodImage.60	FOODEEG_Images\0614.jpg	NY	Right	Yes	0.55619229999138	0	520747	253
1017.62890625	0	decision	response	3	149	29	foodImage.60	FOODEEG_Images\0614.jpg	NY	Right	Yes	0.55619229999138	0	521027	235
1018.671875	1	taste	trialStart	3	150	30	foodImage.1	FOODEEG_Images\0004.jpg	NY	Right	Yes	0.801288199960254	0	521561	251
1019.71484375	2	taste	foodImageDisplay	3	150	30	foodImage.1	FOODEEG_Images\0004.jpg	NY	Right	Yes	0.801288199960254	0	522095	252
1021.779296875	0.801288199960254	taste	choicePhaseStart	3	150	30	foodImage.1	FOODEEG_Images\0004.jpg	NY	Right	Yes	0.801288199960254	0	523152	253
1022.572265625	0	taste	response	3	150	30	foodImage.1	FOODEEG_Images\0004.jpg	NY	Right	Yes	0.801288199960254	0	523558	235
1023.615234375	1	health	trialStart	3	151	31	foodImage.25	FOODEEG_Images\0261.jpg	NY	Right	Yes	0.687092900043353	0	524092	251
1024.65625	2	health	foodImageDisplay	3	151	31	foodImage.25	FOODEEG_Images\0261.jpg	NY	Right	Yes	0.687092900043353	0	524625	252
1026.71875	0.687092900043353	health	choicePhaseStart	3	151	31	foodImage.25	FOODEEG_Images\0261.jpg	NY	Right	Yes	0.687092900043353	0	525681	253
1027.396484375	0	health	response	3	151	31	foodImage.25	FOODEEG_Images\0261.jpg	NY	Right	Yes	0.687092900043353	0	526028	235
1028.439453125	1	decision	trialStart	3	152	32	foodImage.42	FOODEEG_Images\0438.jpg	YN	Left	Yes	0.622599099995568	0	526562	251
1029.529296875	2	decision	foodImageDisplay	3	152	32	foodImage.42	FOODEEG_Images\0438.jpg	YN	Left	Yes	0.622599099995568	0	527120	252
1031.591796875	0.622599099995568	decision	choicePhaseStart	3	152	32	foodImage.42	FOODEEG_Images\0438.jpg	YN	Left	Yes	0.622599099995568	0	528176	253
1032.205078125	0	decision	response	3	152	32	foodImage.42	FOODEEG_Images\0438.jpg	YN	Left	Yes	0.622599099995568	0	528490	234
1033.248046875	1	taste	trialStart	3	153	33	foodImage.110	FOODEEG_Images\0918.jpg	YN	Right	No	0.75193989998661	0	529024	251
1034.287109375	2	taste	foodImageDisplay	3	153	33	foodImage.110	FOODEEG_Images\0918.jpg	YN	Right	No	0.75193989998661	0	529556	252
1036.349609375	0.75193989998661	taste	choicePhaseStart	3	153	33	foodImage.110	FOODEEG_Images\0918.jpg	YN	Right	No	0.75193989998661	0	530612	253
1037.091796875	0	taste	response	3	153	33	foodImage.110	FOODEEG_Images\0918.jpg	YN	Right	No	0.75193989998661	0	530992	235
1038.142578125	1	taste	trialStart	3	154	34	foodImage.14	FOODEEG_Images\0188.jpg	NY	Right	Yes	0.581518699997105	0	531530	251
1039.19921875	2	taste	foodImageDisplay	3	154	34	foodImage.14	FOODEEG_Images\0188.jpg	NY	Right	Yes	0.581518699997105	0	532071	252
1041.26171875	0.581518699997105	taste	choicePhaseStart	3	154	34	foodImage.14	FOODEEG_Images\0188.jpg	NY	Right	Yes	0.581518699997105	0	533127	253
1041.8359375	0	taste	response	3	154	34	foodImage.14	FOODEEG_Images\0188.jpg	NY	Right	Yes	0.581518699997105	0	533421	235
1042.87890625	1	health	trialStart	3	155	35	foodImage.89	FOODEEG_Images\0881.jpg	YN	Left	Yes	0.854195999971125	0	533955	251
1043.93359375	2	health	foodImageDisplay	3	155	35	foodImage.89	FOODEEG_Images\0881.jpg	YN	Left	Yes	0.854195999971125	0	534495	252
1045.99609375	0.854195999971125	health	choicePhaseStart	3	155	35	foodImage.89	FOODEEG_Images\0881.jpg	YN	Left	Yes	0.854195999971125	0	535551	253
1046.84375	0	health	response	3	155	35	foodImage.89	FOODEEG_Images\0881.jpg	YN	Left	Yes	0.854195999971125	0	535985	234
1047.88671875	1	taste	trialStart	3	156	36	foodImage.17	FOODEEG_Images\0199.jpg	YN	Left	Yes	0.629726900020614	0	536519	251
1048.927734375	2	taste	foodImageDisplay	3	156	36	foodImage.17	FOODEEG_Images\0199.jpg	YN	Left	Yes	0.629726900020614	0	537052	252
1050.990234375	0.629726900020614	taste	choicePhaseStart	3	156	36	foodImage.17	FOODEEG_Images\0199.jpg	YN	Left	Yes	0.629726900020614	0	538108	253
1051.611328125	0	taste	response	3	156	36	foodImage.17	FOODEEG_Images\0199.jpg	YN	Left	Yes	0.629726900020614	0	538426	234
1052.65625	1	decision	trialStart	3	157	37	foodImage.39	FOODEEG_Images\0367.jpg	NY	Right	Yes	0.61510489997454	0	538961	251
1053.693359375	2	decision	foodImageDisplay	3	157	37	foodImage.39	FOODEEG_Images\0367.jpg	NY	Right	Yes	0.61510489997454	0	539492	252
1055.755859375	0.61510489997454	decision	choicePhaseStart	3	157	37	foodImage.39	FOODEEG_Images\0367.jpg	NY	Right	Yes	0.61510489997454	0	540548	253
1056.36328125	0	decision	response	3	157	37	foodImage.39	FOODEEG_Images\0367.jpg	NY	Right	Yes	0.61510489997454	0	540859	235
1057.40625	1	decision	trialStart	3	158	38	foodImage.64	FOODEEG_Images\0647.jpg	YN	Left	Yes	0.605329899990465	0	541393	251
1058.46484375	2	decision	foodImageDisplay	3	158	38	foodImage.64	FOODEEG_Images\0647.jpg	YN	Left	Yes	0.605329899990465	0	541935	252
1060.52734375	0.605329899990465	decision	choicePhaseStart	3	158	38	foodImage.64	FOODEEG_Images\0647.jpg	YN	Left	Yes	0.605329899990465	0	542991	253
1061.123046875	0	decision	response	3	158	38	foodImage.64	FOODEEG_Images\0647.jpg	YN	Left	Yes	0.605329899990465	0	543296	234
1062.166015625	1	health	trialStart	3	159	39	foodImage.9	FOODEEG_Images\0138.jpg	NY	Right	Yes	0.773346600006334	0	543830	251
1063.224609375	2	health	foodImageDisplay	3	159	39	foodImage.9	FOODEEG_Images\0138.jpg	NY	Right	Yes	0.773346600006334	0	544372	252
1065.287109375	0.773346600006334	health	choicePhaseStart	3	159	39	foodImage.9	FOODEEG_Images\0138.jpg	NY	Right	Yes	0.773346600006334	0	545428	253
1066.05078125	0	health	response	3	159	39	foodImage.9	FOODEEG_Images\0138.jpg	NY	Right	Yes	0.773346600006334	0	545819	235
1067.09375	1	decision	trialStart	3	160	40	foodImage.72	FOODEEG_Images\0714.jpg	YN	Left	Yes	0.674630200024694	0	546353	251
1068.138671875	2	decision	foodImageDisplay	3	160	40	foodImage.72	FOODEEG_Images\0714.jpg	YN	Left	Yes	0.674630200024694	0	546888	252
1070.201171875	0.674630200024694	decision	choicePhaseStart	3	160	40	foodImage.72	FOODEEG_Images\0714.jpg	YN	Left	Yes	0.674630200024694	0	547944	253
1070.8671875	0	decision	response	3	160	40	foodImage.72	FOODEEG_Images\0714.jpg	YN	Left	Yes	0.674630200024694	0	548285	234
1071.908203125	1	taste	trialStart	3	161	41	foodImage.98	FOODEEG_Images\0906.jpg	YN	Right	No	0.766721000021789	0	548818	251
1072.947265625	2	taste	foodImageDisplay	3	161	41	foodImage.98	FOODEEG_Images\0906.jpg	YN	Right	No	0.766721000021789	0	549350	252
1075.009765625	0.766721000021789	taste	choicePhaseStart	3	161	41	foodImage.98	FOODEEG_Images\0906.jpg	YN	Right	No	0.766721000021789	0	550406	253
1075.76953125	0	taste	response	3	161	41	foodImage.98	FOODEEG_Images\0906.jpg	YN	Right	No	0.766721000021789	0	550795	235
1076.8125	1	health	trialStart	3	162	42	foodImage.115	FOODEEG_Images\0923.jpg	YN	Left	Yes	1.09543710004073	0	551329	251
1077.853515625	2	health	foodImageDisplay	3	162	42	foodImage.115	FOODEEG_Images\0923.jpg	YN	Left	Yes	1.09543710004073	0	551862	252
1079.916015625	1.09543710004073	health	choicePhaseStart	3	162	42	foodImage.115	FOODEEG_Images\0923.jpg	YN	Left	Yes	1.09543710004073	0	552918	253
1081.001953125	0	health	response	3	162	42	foodImage.115	FOODEEG_Images\0923.jpg	YN	Left	Yes	1.09543710004073	0	553474	234
1082.044921875	1	decision	trialStart	3	163	43	foodImage.25	FOODEEG_Images\0261.jpg	NY	Right	Yes	0.929222799954005	0	554008	251
1083.087890625	2	decision	foodImageDisplay	3	163	43	foodImage.25	FOODEEG_Images\0261.jpg	NY	Right	Yes	0.929222799954005	0	554542	252
1085.154296875	0.929222799954005	decision	choicePhaseStart	3	163	43	foodImage.25	FOODEEG_Images\0261.jpg	NY	Right	Yes	0.929222799954005	0	555600	253
1086.07421875	0	decision	response	3	163	43	foodImage.25	FOODEEG_Images\0261.jpg	NY	Right	Yes	0.929222799954005	0	556071	235
1087.1171875	1	taste	trialStart	3	164	44	foodImage.31	FOODEEG_Images\0294.jpg	NY	Right	Yes	0.739913599973079	0	556605	251
1088.16015625	2	taste	foodImageDisplay	3	164	44	foodImage.31	FOODEEG_Images\0294.jpg	NY	Right	Yes	0.739913599973079	0	557139	252
1090.22265625	0.739913599973079	taste	choicePhaseStart	3	164	44	foodImage.31	FOODEEG_Images\0294.jpg	NY	Right	Yes	0.739913599973079	0	558195	253
1090.953125	0	taste	response	3	164	44	foodImage.31	FOODEEG_Images\0294.jpg	NY	Right	Yes	0.739913599973079	0	558569	235
1091.99609375	1	decision	trialStart	3	165	45	foodImage.63	FOODEEG_Images\0645.jpg	NY	Right	Yes	0.758944000001065	0	559103	251
1093.037109375	2	decision	foodImageDisplay	3	165	45	foodImage.63	FOODEEG_Images\0645.jpg	NY	Right	Yes	0.758944000001065	0	559636	252
1095.099609375	0.758944000001065	decision	choicePhaseStart	3	165	45	foodImage.63	FOODEEG_Images\0645.jpg	NY	Right	Yes	0.758944000001065	0	560692	253
1095.849609375	0	decision	response	3	165	45	foodImage.63	FOODEEG_Images\0645.jpg	NY	Right	Yes	0.758944000001065	0	561076	235
1096.892578125	1	health	trialStart	3	166	46	foodImage.79	FOODEEG_Images\0794.jpg	NY	Right	Yes	0.981799500004854	0	561610	251
1097.94140625	2	health	foodImageDisplay	3	166	46	foodImage.79	FOODEEG_Images\0794.jpg	NY	Right	Yes	0.981799500004854	0	562147	252
1100.00390625	0.981799500004854	health	choicePhaseStart	3	166	46	foodImage.79	FOODEEG_Images\0794.jpg	NY	Right	Yes	0.981799500004854	0	563203	253
1100.9765625	0	health	response	3	166	46	foodImage.79	FOODEEG_Images\0794.jpg	NY	Right	Yes	0.981799500004854	0	563701	235
1102.021484375	1	decision	trialStart	3	167	47	foodImage.103	FOODEEG_Images\0911.jpg	NY	Left	No	0.839492099999916	0	564236	251
1103.060546875	2	decision	foodImageDisplay	3	167	47	foodImage.103	FOODEEG_Images\0911.jpg	NY	Left	No	0.839492099999916	0	564768	252
1105.123046875	0.839492099999916	decision	choicePhaseStart	3	167	47	foodImage.103	FOODEEG_Images\0911.jpg	NY	Left	No	0.839492099999916	0	565824	253
1105.953125	0	decision	response	3	167	47	foodImage.103	FOODEEG_Images\0911.jpg	NY	Left	No	0.839492099999916	0	566249	234
1107.0078125	1	taste	trialStart	3	168	48	foodImage.16	FOODEEG_Images\0196.jpg	YN	Left	Yes	0.810066899983212	0	566789	251
1108.06640625	2	taste	foodImageDisplay	3	168	48	foodImage.16	FOODEEG_Images\0196.jpg	YN	Left	Yes	0.810066899983212	0	567331	252
1110.12890625	0.810066899983212	taste	choicePhaseStart	3	168	48	foodImage.16	FOODEEG_Images\0196.jpg	YN	Left	Yes	0.810066899983212	0	568387	253
1110.927734375	0	taste	response	3	168	48	foodImage.16	FOODEEG_Images\0196.jpg	YN	Left	Yes	0.810066899983212	0	568796	234
1111.97265625	1	taste	trialStart	3	169	49	foodImage.51	FOODEEG_Images\0536.jpg	NY	Left	No	1.32752799999435	0	569331	251
1113.01953125	2	taste	foodImageDisplay	3	169	49	foodImage.51	FOODEEG_Images\0536.jpg	NY	Left	No	1.32752799999435	0	569867	252
1115.08203125	1.32752799999435	taste	choicePhaseStart	3	169	49	foodImage.51	FOODEEG_Images\0536.jpg	NY	Left	No	1.32752799999435	0	570923	253
1116.400390625	0	taste	response	3	169	49	foodImage.51	FOODEEG_Images\0536.jpg	NY	Left	No	1.32752799999435	0	571598	234
1117.4453125	1	decision	trialStart	3	170	50	foodImage.17	FOODEEG_Images\0199.jpg	NY	Right	Yes	0.795764899987262	0	572133	251
1118.48828125	2	decision	foodImageDisplay	3	170	50	foodImage.17	FOODEEG_Images\0199.jpg	NY	Right	Yes	0.795764899987262	0	572667	252
1120.55078125	0.795764899987262	decision	choicePhaseStart	3	170	50	foodImage.17	FOODEEG_Images\0199.jpg	NY	Right	Yes	0.795764899987262	0	573723	253
1121.3359375	0	decision	response	3	170	50	foodImage.17	FOODEEG_Images\0199.jpg	NY	Right	Yes	0.795764899987262	0	574125	235
1122.380859375	1	taste	trialStart	3	171	51	foodImage.26	FOODEEG_Images\0262.jpg	NY	Right	Yes	0.987324299989268	0	574660	251
1123.423828125	2	taste	foodImageDisplay	3	171	51	foodImage.26	FOODEEG_Images\0262.jpg	NY	Right	Yes	0.987324299989268	0	575194	252
1125.486328125	0.987324299989268	taste	choicePhaseStart	3	171	51	foodImage.26	FOODEEG_Images\0262.jpg	NY	Right	Yes	0.987324299989268	0	576250	253
1126.46484375	0	taste	response	3	171	51	foodImage.26	FOODEEG_Images\0262.jpg	NY	Right	Yes	0.987324299989268	0	576751	235
1127.5078125	1	taste	trialStart	3	172	52	foodImage.73	FOODEEG_Images\0717.jpg	YN	Left	Yes	0.5547139000264	0	577285	251
1128.56640625	2	taste	foodImageDisplay	3	172	52	foodImage.73	FOODEEG_Images\0717.jpg	YN	Left	Yes	0.5547139000264	0	577827	252
1130.62890625	0.5547139000264	taste	choicePhaseStart	3	172	52	foodImage.73	FOODEEG_Images\0717.jpg	YN	Left	Yes	0.5547139000264	0	578883	253
1131.17578125	0	taste	response	3	172	52	foodImage.73	FOODEEG_Images\0717.jpg	YN	Left	Yes	0.5547139000264	0	579163	234
1132.220703125	1	decision	trialStart	3	173	53	foodImage.22	FOODEEG_Images\0236.jpg	NY	Right	Yes	0.7639081000234	0	579698	251
1133.26171875	2	decision	foodImageDisplay	3	173	53	foodImage.22	FOODEEG_Images\0236.jpg	NY	Right	Yes	0.7639081000234	0	580231	252
1135.32421875	0.7639081000234	decision	choicePhaseStart	3	173	53	foodImage.22	FOODEEG_Images\0236.jpg	NY	Right	Yes	0.7639081000234	0	581287	253
1136.080078125	0	decision	response	3	173	53	foodImage.22	FOODEEG_Images\0236.jpg	NY	Right	Yes	0.7639081000234	0	581674	235
1137.119140625	1	decision	trialStart	3	174	54	foodImage.34	FOODEEG_Images\0339.jpg	YN	Left	Yes	0.624487399996724	0	582206	251
1138.177734375	2	decision	foodImageDisplay	3	174	54	foodImage.34	FOODEEG_Images\0339.jpg	YN	Left	Yes	0.624487399996724	0	582748	252
1140.240234375	0.624487399996724	decision	choicePhaseStart	3	174	54	foodImage.34	FOODEEG_Images\0339.jpg	YN	Left	Yes	0.624487399996724	0	583804	253
1140.85546875	0	decision	response	3	174	54	foodImage.34	FOODEEG_Images\0339.jpg	YN	Left	Yes	0.624487399996724	0	584119	234
1141.8984375	1	health	trialStart	3	175	55	foodImage.104	FOODEEG_Images\0912.jpg	NY	Left	No	0.917648600006942	0	584653	251
1142.9375	2	health	foodImageDisplay	3	175	55	foodImage.104	FOODEEG_Images\0912.jpg	NY	Left	No	0.917648600006942	0	585185	252
1145.001953125	0.917648600006942	health	choicePhaseStart	3	175	55	foodImage.104	FOODEEG_Images\0912.jpg	NY	Left	No	0.917648600006942	0	586242	253
1145.912109375	0	health	response	3	175	55	foodImage.104	FOODEEG_Images\0912.jpg	NY	Left	No	0.917648600006942	0	586708	234
1146.955078125	1	decision	trialStart	3	176	56	foodImage.81	FOODEEG_Images\0797.jpg	NY	Right	Yes	0.733981199970003	0	587242	251
1148.01171875	2	decision	foodImageDisplay	3	176	56	foodImage.81	FOODEEG_Images\0797.jpg	NY	Right	Yes	0.733981199970003	0	587783	252
1150.07421875	0.733981199970003	decision	choicePhaseStart	3	176	56	foodImage.81	FOODEEG_Images\0797.jpg	NY	Right	Yes	0.733981199970003	0	588839	253
1150.798828125	0	decision	response	3	176	56	foodImage.81	FOODEEG_Images\0797.jpg	NY	Right	Yes	0.733981199970003	0	589210	235
1151.84375	1	decision	trialStart	3	177	57	foodImage.33	FOODEEG_Images\0329.jpg	NY	Right	Yes	0.897510199982207	0	589745	251
1152.88671875	2	decision	foodImageDisplay	3	177	57	foodImage.33	FOODEEG_Images\0329.jpg	NY	Right	Yes	0.897510199982207	0	590279	252
1154.94921875	0.897510199982207	decision	choicePhaseStart	3	177	57	foodImage.33	FOODEEG_Images\0329.jpg	NY	Right	Yes	0.897510199982207	0	591335	253
1155.83984375	0	decision	response	3	177	57	foodImage.33	FOODEEG_Images\0329.jpg	NY	Right	Yes	0.897510199982207	0	591791	235
1156.880859375	1	taste	trialStart	3	178	58	foodImage.72	FOODEEG_Images\0714.jpg	NY	Right	Yes	0.742391599982511	0	592324	251
1157.923828125	2	taste	foodImageDisplay	3	178	58	foodImage.72	FOODEEG_Images\0714.jpg	NY	Right	Yes	0.742391599982511	0	592858	252
1159.986328125	0.742391599982511	taste	choicePhaseStart	3	178	58	foodImage.72	FOODEEG_Images\0714.jpg	NY	Right	Yes	0.742391599982511	0	593914	253
1160.71875	0	taste	response	3	178	58	foodImage.72	FOODEEG_Images\0714.jpg	NY	Right	Yes	0.742391599982511	0	594289	235
1161.76171875	1	taste	trialStart	3	179	59	foodImage.77	FOODEEG_Images\0771.jpg	NY	Right	Yes	1.14658770000096	0	594823	251
1162.806640625	2	taste	foodImageDisplay	3	179	59	foodImage.77	FOODEEG_Images\0771.jpg	NY	Right	Yes	1.14658770000096	0	595358	252
1164.869140625	1.14658770000096	taste	choicePhaseStart	3	179	59	foodImage.77	FOODEEG_Images\0771.jpg	NY	Right	Yes	1.14658770000096	0	596414	253
1166.005859375	0	taste	response	3	179	59	foodImage.77	FOODEEG_Images\0771.jpg	NY	Right	Yes	1.14658770000096	0	596996	235
1167.05078125	1	health	trialStart	3	180	60	foodImage.74	FOODEEG_Images\0752.jpg	YN	Left	Yes	0.666470800002571	0	597531	251
1168.09375	2	health	foodImageDisplay	3	180	60	foodImage.74	FOODEEG_Images\0752.jpg	YN	Left	Yes	0.666470800002571	0	598065	252
1170.15625	0.666470800002571	health	choicePhaseStart	3	180	60	foodImage.74	FOODEEG_Images\0752.jpg	YN	Left	Yes	0.666470800002571	0	599121	253
1170.814453125	0	health	response	3	180	60	foodImage.74	FOODEEG_Images\0752.jpg	YN	Left	Yes	0.666470800002571	0	599458	234
1172.857421875	43.2109375	n/a	blockEnd	n/a	n/a	n/a	n/a	n/a	n/a	n/a	n/a	n/a	n/a	600504	254
1216.068359375	2	n/a	blockStart	4	n/a	n/a	n/a	n/a	n/a	n/a	n/a	n/a	n/a	622628	250
1218.1015625	1	taste	trialStart	4	181	1	foodImage.100	FOODEEG_Images\0908.jpg	YN	Left	Yes	0.611826000036672	0	623669	251
1219.142578125	2	taste	foodImageDisplay	4	181	1	foodImage.100	FOODEEG_Images\0908.jpg	YN	Left	Yes	0.611826000036672	0	624202	252
1221.20703125	0.611826000036672	taste	choicePhaseStart	4	181	1	foodImage.100	FOODEEG_Images\0908.jpg	YN	Left	Yes	0.611826000036672	0	625259	253
1221.810546875	0	taste	response	4	181	1	foodImage.100	FOODEEG_Images\0908.jpg	YN	Left	Yes	0.611826000036672	0	625568	234
1222.853515625	1	taste	trialStart	4	182	2	foodImage.29	FOODEEG_Images\0278.jpg	NY	Right	Yes	0.597589100012556	0	626102	251
1223.89453125	2	taste	foodImageDisplay	4	182	2	foodImage.29	FOODEEG_Images\0278.jpg	NY	Right	Yes	0.597589100012556	0	626635	252
1225.95703125	0.597589100012556	taste	choicePhaseStart	4	182	2	foodImage.29	FOODEEG_Images\0278.jpg	NY	Right	Yes	0.597589100012556	0	627691	253
1226.544921875	0	taste	response	4	182	2	foodImage.29	FOODEEG_Images\0278.jpg	NY	Right	Yes	0.597589100012556	0	627992	235
1227.58984375	1	health	trialStart	4	183	3	foodImage.13	FOODEEG_Images\0183.jpg	YN	Left	Yes	0.648141500016209	0	628527	251
1228.630859375	2	health	foodImageDisplay	4	183	3	foodImage.13	FOODEEG_Images\0183.jpg	YN	Left	Yes	0.648141500016209	0	629060	252
1230.697265625	0.648141500016209	health	choicePhaseStart	4	183	3	foodImage.13	FOODEEG_Images\0183.jpg	YN	Left	Yes	0.648141500016209	0	630118	253
1231.337890625	0	health	response	4	183	3	foodImage.13	FOODEEG_Images\0183.jpg	YN	Left	Yes	0.648141500016209	0	630446	234
1232.380859375	1	decision	trialStart	4	184	4	foodImage.111	FOODEEG_Images\0919.jpg	NY	Left	No	0.648159099975601	0	630980	251
1233.419921875	2	decision	foodImageDisplay	4	184	4	foodImage.111	FOODEEG_Images\0919.jpg	NY	Left	No	0.648159099975601	0	631512	252
1235.482421875	0.648159099975601	decision	choicePhaseStart	4	184	4	foodImage.111	FOODEEG_Images\0919.jpg	NY	Left	No	0.648159099975601	0	632568	253
1236.12109375	0	decision	response	4	184	4	foodImage.111	FOODEEG_Images\0919.jpg	NY	Left	No	0.648159099975601	0	632895	234
1237.1640625	1	decision	trialStart	4	185	5	foodImage.95	FOODEEG_Images\0903.jpg	YN	Right	No	0.849961300031282	0	633429	251
1238.201171875	2	decision	foodImageDisplay	4	185	5	foodImage.95	FOODEEG_Images\0903.jpg	YN	Right	No	0.849961300031282	0	633960	252
1240.263671875	0.849961300031282	decision	choicePhaseStart	4	185	5	foodImage.95	FOODEEG_Images\0903.jpg	YN	Right	No	0.849961300031282	0	635016	253
1241.10546875	0	decision	response	4	185	5	foodImage.95	FOODEEG_Images\0903.jpg	YN	Right	No	0.849961300031282	0	635447	235
1242.1484375	1	health	trialStart	4	186	6	foodImage.116	FOODEEG_Images\0924.jpg	YN	Right	No	0.631087799964007	0	635981	251
1243.1875	2	health	foodImageDisplay	4	186	6	foodImage.116	FOODEEG_Images\0924.jpg	YN	Right	No	0.631087799964007	0	636513	252
1245.25	0.631087799964007	health	choicePhaseStart	4	186	6	foodImage.116	FOODEEG_Images\0924.jpg	YN	Right	No	0.631087799964007	0	637569	253
1245.873046875	0	health	response	4	186	6	foodImage.116	FOODEEG_Images\0924.jpg	YN	Right	No	0.631087799964007	0	637888	235
1246.916015625	1	decision	trialStart	4	187	7	foodImage.45	FOODEEG_Images\0478.jpg	YN	Left	Yes	0.546614599996246	0	638422	251
1247.9609375	2	decision	foodImageDisplay	4	187	7	foodImage.45	FOODEEG_Images\0478.jpg	YN	Left	Yes	0.546614599996246	0	638957	252
1250.0234375	0.546614599996246	decision	choicePhaseStart	4	187	7	foodImage.45	FOODEEG_Images\0478.jpg	YN	Left	Yes	0.546614599996246	0	640013	253
1250.560546875	0	decision	response	4	187	7	foodImage.45	FOODEEG_Images\0478.jpg	YN	Left	Yes	0.546614599996246	0	640288	234
1251.603515625	1	taste	trialStart	4	188	8	foodImage.46	FOODEEG_Images\0479.jpg	YN	Left	Yes	0.589217000000644	0	640822	251
1252.662109375	2	taste	foodImageDisplay	4	188	8	foodImage.46	FOODEEG_Images\0479.jpg	YN	Left	Yes	0.589217000000644	0	641364	252
1254.724609375	0.589217000000644	taste	choicePhaseStart	4	188	8	foodImage.46	FOODEEG_Images\0479.jpg	YN	Left	Yes	0.589217000000644	0	642420	253
1255.3046875	0	taste	response	4	188	8	foodImage.46	FOODEEG_Images\0479.jpg	YN	Left	Yes	0.589217000000644	0	642717	234
1256.34765625	1	decision	trialStart	4	189	9	foodImage.97	FOODEEG_Images\0905.jpg	YN	Left	Yes	0.615706599957775	0	643251	251
1257.38671875	2	decision	foodImageDisplay	4	189	9	foodImage.97	FOODEEG_Images\0905.jpg	YN	Left	Yes	0.615706599957775	0	643783	252
1259.44921875	0.615706599957775	decision	choicePhaseStart	4	189	9	foodImage.97	FOODEEG_Images\0905.jpg	YN	Left	Yes	0.615706599957775	0	644839	253
1260.056640625	0	decision	response	4	189	9	foodImage.97	FOODEEG_Images\0905.jpg	YN	Left	Yes	0.615706599957775	0	645150	234
1261.099609375	1	health	trialStart	4	190	10	foodImage.30	FOODEEG_Images\0282.jpg	YN	Left	Yes	0.590610900020692	0	645684	251
1262.140625	2	health	foodImageDisplay	4	190	10	foodImage.30	FOODEEG_Images\0282.jpg	YN	Left	Yes	0.590610900020692	0	646217	252
1264.203125	0.590610900020692	health	choicePhaseStart	4	190	10	foodImage.30	FOODEEG_Images\0282.jpg	YN	Left	Yes	0.590610900020692	0	647273	253
1264.783203125	0	health	response	4	190	10	foodImage.30	FOODEEG_Images\0282.jpg	YN	Left	Yes	0.590610900020692	0	647570	234
1265.828125	1	taste	trialStart	4	191	11	foodImage.18	FOODEEG_Images\0202.jpg	YN	Left	Yes	0.632851500005927	0	648105	251
1266.890625	2	taste	foodImageDisplay	4	191	11	foodImage.18	FOODEEG_Images\0202.jpg	YN	Left	Yes	0.632851500005927	0	648649	252
1268.953125	0.632851500005927	taste	choicePhaseStart	4	191	11	foodImage.18	FOODEEG_Images\0202.jpg	YN	Left	Yes	0.632851500005927	0	649705	253
1269.576171875	0	taste	response	4	191	11	foodImage.18	FOODEEG_Images\0202.jpg	YN	Left	Yes	0.632851500005927	0	650024	234
1270.619140625	1	decision	trialStart	4	192	12	foodImage.56	FOODEEG_Images\0586.jpg	YN	Left	Yes	0.548386299982667	0	650558	251
1271.662109375	2	decision	foodImageDisplay	4	192	12	foodImage.56	FOODEEG_Images\0586.jpg	YN	Left	Yes	0.548386299982667	0	651092	252
