onset	duration	trial_type	event_type	block	trial_total	trial_in_block	food_image_code	food_image_path	button_position	resp_position	resp_choice	choice_rt	resp_too_slow	sample	trigger
370.97265625	2	n/a	blockStart	1	n/a	n/a	n/a	n/a	n/a	n/a	n/a	n/a	n/a	189939	250
373.0078125	1	health	trialStart	1	1	1	foodImage.35	FOODEEG_Images\0350.jpg	NY	Right	Yes	1.96625979989767	0	190981	251
374.052734375	2	health	foodImageDisplay	1	1	1	foodImage.35	FOODEEG_Images\0350.jpg	NY	Right	Yes	1.96625979989767	0	191516	252
376.12890625	1.96625979989767	health	choicePhaseStart	1	1	1	foodImage.35	FOODEEG_Images\0350.jpg	NY	Right	Yes	1.96625979989767	0	192579	253
378.08984375	0	health	response	1	1	1	foodImage.35	FOODEEG_Images\0350.jpg	NY	Right	Yes	1.96625979989767	0	193583	235
379.201171875	1	taste	trialStart	1	2	2	foodImage.39	FOODEEG_Images\0367.jpg	NY	Right	Yes	0.995655799750239	0	194152	251
380.240234375	2	taste	foodImageDisplay	1	2	2	foodImage.39	FOODEEG_Images\0367.jpg	NY	Right	Yes	0.995655799750239	0	194684	252
382.302734375	0.995655799750239	taste	choicePhaseStart	1	2	2	foodImage.39	FOODEEG_Images\0367.jpg	NY	Right	Yes	0.995655799750239	0	195740	253
383.2890625	0	taste	response	1	2	2	foodImage.39	FOODEEG_Images\0367.jpg	NY	Right	Yes	0.995655799750239	0	196245	235
384.341796875	1	health	trialStart	1	3	3	foodImage.89	FOODEEG_Images\0881.jpg	YN	Left	Yes	0.949483800213784	0	196784	251
385.3984375	2	health	foodImageDisplay	1	3	3	foodImage.89	FOODEEG_Images\0881.jpg	YN	Left	Yes	0.949483800213784	0	197325	252
387.4609375	0.949483800213784	health	choicePhaseStart	1	3	3	foodImage.89	FOODEEG_Images\0881.jpg	YN	Left	Yes	0.949483800213784	0	198381	253
388.40234375	0	health	response	1	3	3	foodImage.89	FOODEEG_Images\0881.jpg	YN	Left	Yes	0.949483800213784	0	198863	234
389.44140625	1	taste	trialStart	1	4	4	foodImage.50	FOODEEG_Images\0529.jpg	YN	Left	Yes	2.10875839972869	0	199395	251
390.515625	2	taste	foodImageDisplay	1	4	4	foodImage.50	FOODEEG_Images\0529.jpg	YN	Left	Yes	2.10875839972869	0	199945	252
392.578125	2.10875839972869	taste	choicePhaseStart	1	4	4	foodImage.50	FOODEEG_Images\0529.jpg	YN	Left	Yes	2.10875839972869	0	201001	253
394.681640625	0	taste	response	1	4	4	foodImage.50	FOODEEG_Images\0529.jpg	YN	Left	Yes	2.10875839972869	0	202078	234
395.724609375	1	taste	trialStart	1	5	5	foodImage.6	FOODEEG_Images\0113.jpg	NY	Right	Yes	0.927121299784631	0	202612	251
396.771484375	2	taste	foodImageDisplay	1	5	5	foodImage.6	FOODEEG_Images\0113.jpg	NY	Right	Yes	0.927121299784631	0	203148	252
398.8359375	0.927121299784631	taste	choicePhaseStart	1	5	5	foodImage.6	FOODEEG_Images\0113.jpg	NY	Right	Yes	0.927121299784631	0	204205	253
399.75390625	0	taste	response	1	5	5	foodImage.6	FOODEEG_Images\0113.jpg	NY	Right	Yes	0.927121299784631	0	204675	235
400.8046875	1	decision	trialStart	1	6	6	foodImage.28	FOODEEG_Images\0273.jpg	YN	Left	Yes	1.38012959994376	0	205213	251
401.85546875	2	decision	foodImageDisplay	1	6	6	foodImage.28	FOODEEG_Images\0273.jpg	YN	Left	Yes	1.38012959994376	0	205751	252
403.91796875	1.38012959994376	decision	choicePhaseStart	1	6	6	foodImage.28	FOODEEG_Images\0273.jpg	YN	Left	Yes	1.38012959994376	0	206807	253
405.2890625	0	decision	response	1	6	6	foodImage.28	FOODEEG_Images\0273.jpg	YN	Left	Yes	1.38012959994376	0	207509	234
406.330078125	1	taste	trialStart	1	7	7	foodImage.89	FOODEEG_Images\0881.jpg	NY	Right	Yes	2.23902999982238	0	208042	251
407.38671875	2	taste	foodImageDisplay	1	7	7	foodImage.89	FOODEEG_Images\0881.jpg	NY	Right	Yes	2.23902999982238	0	208583	252
409.44921875	2.23902999982238	taste	choicePhaseStart	1	7	7	foodImage.89	FOODEEG_Images\0881.jpg	NY	Right	Yes	2.23902999982238	0	209639	253
411.681640625	0	taste	response	1	7	7	foodImage.89	FOODEEG_Images\0881.jpg	NY	Right	Yes	2.23902999982238	0	210782	235
412.720703125	1	taste	trialStart	1	8	8	foodImage.115	FOODEEG_Images\0923.jpg	YN	Right	No	2.09587649954483	0	211314	251
413.7578125	2	taste	foodImageDisplay	1	8	8	foodImage.115	FOODEEG_Images\0923.jpg	YN	Right	No	2.09587649954483	0	211845	252
415.82421875	2.09587649954483	taste	choicePhaseStart	1	8	8	foodImage.115	FOODEEG_Images\0923.jpg	YN	Right	No	2.09587649954483	0	212903	253
417.9140625	0	taste	response	1	8	8	foodImage.115	FOODEEG_Images\0923.jpg	YN	Right	No	2.09587649954483	0	213973	235
418.958984375	1	taste	trialStart	1	9	9	foodImage.110	FOODEEG_Images\0918.jpg	NY	Right	Yes	0.964457199908793	0	214508	251
420.00390625	2	taste	foodImageDisplay	1	9	9	foodImage.110	FOODEEG_Images\0918.jpg	NY	Right	Yes	0.964457199908793	0	215043	252
422.06640625	0.964457199908793	taste	choicePhaseStart	1	9	9	foodImage.110	FOODEEG_Images\0918.jpg	NY	Right	Yes	0.964457199908793	0	216099	253
423.025390625	0	taste	response	1	9	9	foodImage.110	FOODEEG_Images\0918.jpg	NY	Right	Yes	0.964457199908793	0	216590	235
424.064453125	1	taste	trialStart	1	10	10	foodImage.2	FOODEEG_Images\0028.jpg	NY	Right	Yes	0.771855600178242	0	217122	251
425.109375	2	taste	foodImageDisplay	1	10	10	foodImage.2	FOODEEG_Images\0028.jpg	NY	Right	Yes	0.771855600178242	0	217657	252
427.173828125	0.771855600178242	taste	choicePhaseStart	1	10	10	foodImage.2	FOODEEG_Images\0028.jpg	NY	Right	Yes	0.771855600178242	0	218714	253
427.935546875	0	taste	response	1	10	10	foodImage.2	FOODEEG_Images\0028.jpg	NY	Right	Yes	0.771855600178242	0	219104	235
428.978515625	1	health	trialStart	1	11	11	foodImage.115	FOODEEG_Images\0923.jpg	NY	Right	Yes	3.81684680003673	0	219638	251
430.015625	2	health	foodImageDisplay	1	11	11	foodImage.115	FOODEEG_Images\0923.jpg	NY	Right	Yes	3.81684680003673	0	220169	252
432.080078125	3.81684680003673	health	choicePhaseStart	1	11	11	foodImage.115	FOODEEG_Images\0923.jpg	NY	Right	Yes	3.81684680003673	0	221226	253
435.88671875	0	health	response	1	11	11	foodImage.115	FOODEEG_Images\0923.jpg	NY	Right	Yes	3.81684680003673	0	223175	235
436.927734375	1	health	trialStart	1	12	12	foodImage.3	FOODEEG_Images\0046.jpg	NY	Left	No	0.82629119977355	0	223708	251
437.970703125	2	health	foodImageDisplay	1	12	12	foodImage.3	FOODEEG_Images\0046.jpg	NY	Left	No	0.82629119977355	0	224242	252
440.037109375	0.82629119977355	health	choicePhaseStart	1	12	12	foodImage.3	FOODEEG_Images\0046.jpg	NY	Left	No	0.82629119977355	0	225300	253
440.85546875	0	health	response	1	12	12	foodImage.3	FOODEEG_Images\0046.jpg	NY	Left	No	0.82629119977355	0	225719	234
441.89453125	1	decision	trialStart	1	13	13	foodImage.110	FOODEEG_Images\0918.jpg	YN	Left	Yes	1.36980699980631	0	226251	251
442.93359375	2	decision	foodImageDisplay	1	13	13	foodImage.110	FOODEEG_Images\0918.jpg	YN	Left	Yes	1.36980699980631	0	226783	252
444.998046875	1.36980699980631	decision	choicePhaseStart	1	13	13	foodImage.110	FOODEEG_Images\0918.jpg	YN	Left	Yes	1.36980699980631	0	227840	253
446.359375	0	decision	response	1	13	13	foodImage.110	FOODEEG_Images\0918.jpg	YN	Left	Yes	1.36980699980631	0	228537	234
447.40234375	1	taste	trialStart	1	14	14	foodImage.48	FOODEEG_Images\0494.jpg	NY	Right	Yes	1.50899779982865	0	229071	251
448.443359375	2	taste	foodImageDisplay	1	14	14	foodImage.48	FOODEEG_Images\0494.jpg	NY	Right	Yes	1.50899779982865	0	229604	252
450.505859375	1.50899779982865	taste	choicePhaseStart	1	14	14	foodImage.48	FOODEEG_Images\0494.jpg	NY	Right	Yes	1.50899779982865	0	230660	253
452.005859375	0	taste	response	1	14	14	foodImage.48	FOODEEG_Images\0494.jpg	NY	Right	Yes	1.50899779982865	0	231428	235
453.048828125	1	taste	trialStart	1	15	15	foodImage.28	FOODEEG_Images\0273.jpg	NY	Right	Yes	2.37383690010756	0	231962	251
454.09765625	2	taste	foodImageDisplay	1	15	15	foodImage.28	FOODEEG_Images\0273.jpg	NY	Right	Yes	2.37383690010756	0	232499	252
456.16015625	2.37383690010756	taste	choicePhaseStart	1	15	15	foodImage.28	FOODEEG_Images\0273.jpg	NY	Right	Yes	2.37383690010756	0	233555	253
458.52734375	0	taste	response	1	15	15	foodImage.28	FOODEEG_Images\0273.jpg	NY	Right	Yes	2.37383690010756	0	234767	235
459.568359375	1	health	trialStart	1	16	16	foodImage.5	FOODEEG_Images\0107.jpg	NY	Left	No	2.0448598000221	0	235300	251
460.642578125	2	health	foodImageDisplay	1	16	16	foodImage.5	FOODEEG_Images\0107.jpg	NY	Left	No	2.0448598000221	0	235850	252
462.705078125	2.0448598000221	health	choicePhaseStart	1	16	16	foodImage.5	FOODEEG_Images\0107.jpg	NY	Left	No	2.0448598000221	0	236906	253
464.7421875	0	health	response	1	16	16	foodImage.5	FOODEEG_Images\0107.jpg	NY	Left	No	2.0448598000221	0	237949	234
465.7890625	1	decision	trialStart	1	17	17	foodImage.108	FOODEEG_Images\0916.jpg	NY	Left	No	1.39579909993336	0	238485	251
466.828125	2	decision	foodImageDisplay	1	17	17	foodImage.108	FOODEEG_Images\0916.jpg	NY	Left	No	1.39579909993336	0	239017	252
468.890625	1.39579909993336	decision	choicePhaseStart	1	17	17	foodImage.108	FOODEEG_Images\0916.jpg	NY	Left	No	1.39579909993336	0	240073	253
470.279296875	0	decision	response	1	17	17	foodImage.108	FOODEEG_Images\0916.jpg	NY	Left	No	1.39579909993336	0	240784	234
471.3203125	1	health	trialStart	1	18	18	foodImage.71	FOODEEG_Images\0713.jpg	YN	Right	No	1.01645210012794	0	241317	251
472.361328125	2	health	foodImageDisplay	1	18	18	foodImage.71	FOODEEG_Images\0713.jpg	YN	Right	No	1.01645210012794	0	241850	252
474.423828125	1.01645210012794	health	choicePhaseStart	1	18	18	foodImage.71	FOODEEG_Images\0713.jpg	YN	Right	No	1.01645210012794	0	242906	253
475.4296875	0	health	response	1	18	18	foodImage.71	FOODEEG_Images\0713.jpg	YN	Right	No	1.01645210012794	0	243421	235
476.470703125	1	taste	trialStart	1	19	19	foodImage.32	FOODEEG_Images\0319.jpg	NY	Right	Yes	0.926420700270683	0	243954	251
477.529296875	2	taste	foodImageDisplay	1	19	19	foodImage.32	FOODEEG_Images\0319.jpg	NY	Right	Yes	0.926420700270683	0	244496	252
479.591796875	0.926420700270683	taste	choicePhaseStart	1	19	19	foodImage.32	FOODEEG_Images\0319.jpg	NY	Right	Yes	0.926420700270683	0	245552	253
480.509765625	0	taste	response	1	19	19	foodImage.32	FOODEEG_Images\0319.jpg	NY	Right	Yes	0.926420700270683	0	246022	235
481.552734375	1	health	trialStart	1	20	20	foodImage.43	FOODEEG_Images\0445.jpg	NY	Right	Yes	1.17372830025852	0	246556	251
482.609375	2	health	foodImageDisplay	1	20	20	foodImage.43	FOODEEG_Images\0445.jpg	NY	Right	Yes	1.17372830025852	0	247097	252
484.671875	1.17372830025852	health	choicePhaseStart	1	20	20	foodImage.43	FOODEEG_Images\0445.jpg	NY	Right	Yes	1.17372830025852	0	248153	253
485.837890625	0	health	response	1	20	20	foodImage.43	FOODEEG_Images\0445.jpg	NY	Right	Yes	1.17372830025852	0	248750	235
486.87890625	1	taste	trialStart	1	21	21	foodImage.8	FOODEEG_Images\0136.jpg	YN	Right	No	3.01656330004334	0	249283	251
487.935546875	2	taste	foodImageDisplay	1	21	21	foodImage.8	FOODEEG_Images\0136.jpg	YN	Right	No	3.01656330004334	0	249824	252
489.998046875	3.01656330004334	taste	choicePhaseStart	1	21	21	foodImage.8	FOODEEG_Images\0136.jpg	YN	Right	No	3.01656330004334	0	250880	253
493.005859375	0	taste	response	1	21	21	foodImage.8	FOODEEG_Images\0136.jpg	YN	Right	No	3.01656330004334	0	252420	235
494.046875	1	taste	trialStart	1	22	22	foodImage.23	FOODEEG_Images\0244.jpg	NY	Left	No	4.72807369986549	0	252953	251
495.087890625	2	taste	foodImageDisplay	1	22	22	foodImage.23	FOODEEG_Images\0244.jpg	NY	Left	No	4.72807369986549	0	253486	252
497.150390625	4.72807369986549	taste	choicePhaseStart	1	22	22	foodImage.23	FOODEEG_Images\0244.jpg	NY	Left	No	4.72807369986549	0	254542	253
501.869140625	0	taste	response	1	22	22	foodImage.23	FOODEEG_Images\0244.jpg	NY	Left	No	4.72807369986549	0	256958	234
502.916015625	1	health	trialStart	1	23	23	foodImage.97	FOODEEG_Images\0905.jpg	NY	Right	Yes	1.85436649993062	0	257494	251
503.9609375	2	health	foodImageDisplay	1	23	23	foodImage.97	FOODEEG_Images\0905.jpg	NY	Right	Yes	1.85436649993062	0	258029	252
506.0234375	1.85436649993062	health	choicePhaseStart	1	23	23	foodImage.97	FOODEEG_Images\0905.jpg	NY	Right	Yes	1.85436649993062	0	259085	253
507.869140625	0	health	response	1	23	23	foodImage.97	FOODEEG_Images\0905.jpg	NY	Right	Yes	1.85436649993062	0	260030	235
508.912109375	1	health	trialStart	1	24	24	foodImage.46	FOODEEG_Images\0479.jpg	NY	Right	Yes	0.683422199916095	0	260564	251
509.97265625	2	health	foodImageDisplay	1	24	24	foodImage.46	FOODEEG_Images\0479.jpg	NY	Right	Yes	0.683422199916095	0	261107	252
512.03515625	0.683422199916095	health	choicePhaseStart	1	24	24	foodImage.46	FOODEEG_Images\0479.jpg	NY	Right	Yes	0.683422199916095	0	262163	253
512.708984375	0	health	response	1	24	24	foodImage.46	FOODEEG_Images\0479.jpg	NY	Right	Yes	0.683422199916095	0	262508	235
513.75	1	decision	trialStart	1	25	25	foodImage.102	FOODEEG_Images\0910.jpg	YN	Left	Yes	1.03727619955316	0	263041	251
514.7890625	2	decision	foodImageDisplay	1	25	25	foodImage.102	FOODEEG_Images\0910.jpg	YN	Left	Yes	1.03727619955316	0	263573	252
516.85546875	1.03727619955316	decision	choicePhaseStart	1	25	25	foodImage.102	FOODEEG_Images\0910.jpg	YN	Left	Yes	1.03727619955316	0	264631	253
517.884765625	0	decision	response	1	25	25	foodImage.102	FOODEEG_Images\0910.jpg	YN	Left	Yes	1.03727619955316	0	265158	234
518.927734375	1	health	trialStart	1	26	26	foodImage.49	FOODEEG_Images\0515.jpg	YN	Left	Yes	1.07558250008151	0	265692	251
519.970703125	2	health	foodImageDisplay	1	26	26	foodImage.49	FOODEEG_Images\0515.jpg	YN	Left	Yes	1.07558250008151	0	266226	252
522.033203125	1.07558250008151	health	choicePhaseStart	1	26	26	foodImage.49	FOODEEG_Images\0515.jpg	YN	Left	Yes	1.07558250008151	0	267282	253
523.099609375	0	health	response	1	26	26	foodImage.49	FOODEEG_Images\0515.jpg	YN	Left	Yes	1.07558250008151	0	267828	234
524.146484375	1	decision	trialStart	1	27	27	foodImage.7	FOODEEG_Images\0116.jpg	NY	Right	Yes	0.976829700171947	0	268364	251
525.1875	2	decision	foodImageDisplay	1	27	27	foodImage.7	FOODEEG_Images\0116.jpg	NY	Right	Yes	0.976829700171947	0	268897	252
527.251953125	0.976829700171947	decision	choicePhaseStart	1	27	27	foodImage.7	FOODEEG_Images\0116.jpg	NY	Right	Yes	0.976829700171947	0	269954	253
528.220703125	0	decision	response	1	27	27	foodImage.7	FOODEEG_Images\0116.jpg	NY	Right	Yes	0.976829700171947	0	270450	235
529.263671875	1	decision	trialStart	1	28	28	foodImage.11	FOODEEG_Images\0180.jpg	YN	Left	Yes	0.822288999799639	0	270984	251
530.302734375	2	decision	foodImageDisplay	1	28	28	foodImage.11	FOODEEG_Images\0180.jpg	YN	Left	Yes	0.822288999799639	0	271516	252
532.365234375	0.822288999799639	decision	choicePhaseStart	1	28	28	foodImage.11	FOODEEG_Images\0180.jpg	YN	Left	Yes	0.822288999799639	0	272572	253
533.1796875	0	decision	response	1	28	28	foodImage.11	FOODEEG_Images\0180.jpg	YN	Left	Yes	0.822288999799639	0	272989	234
534.22265625	1	taste	trialStart	1	29	29	foodImage.25	FOODEEG_Images\0261.jpg	YN	Left	Yes	1.02167719975114	0	273523	251
535.265625	2	taste	foodImageDisplay	1	29	29	foodImage.25	FOODEEG_Images\0261.jpg	YN	Left	Yes	1.02167719975114	0	274057	252
537.328125	1.02167719975114	taste	choicePhaseStart	1	29	29	foodImage.25	FOODEEG_Images\0261.jpg	YN	Left	Yes	1.02167719975114	0	275113	253
538.33984375	0	taste	response	1	29	29	foodImage.25	FOODEEG_Images\0261.jpg	YN	Left	Yes	1.02167719975114	0	275631	234
539.380859375	1	taste	trialStart	1	30	30	foodImage.69	FOODEEG_Images\0693.jpg	NY	Right	Yes	0.838416100014001	0	276164	251
540.423828125	2	taste	foodImageDisplay	1	30	30	foodImage.69	FOODEEG_Images\0693.jpg	NY	Right	Yes	0.838416100014001	0	276698	252
542.486328125	0.838416100014001	taste	choicePhaseStart	1	30	30	foodImage.69	FOODEEG_Images\0693.jpg	NY	Right	Yes	0.838416100014001	0	277754	253
543.314453125	0	taste	response	1	30	30	foodImage.69	FOODEEG_Images\0693.jpg	NY	Right	Yes	0.838416100014001	0	278178	235
544.357421875	1	health	trialStart	1	31	31	foodImage.77	FOODEEG_Images\0771.jpg	NY	Right	Yes	3.12642290024087	0	278712	251
545.3984375	2	health	foodImageDisplay	1	31	31	foodImage.77	FOODEEG_Images\0771.jpg	NY	Right	Yes	3.12642290024087	0	279245	252
547.4609375	3.12642290024087	health	choicePhaseStart	1	31	31	foodImage.77	FOODEEG_Images\0771.jpg	NY	Right	Yes	3.12642290024087	0	280301	253
550.578125	0	health	response	1	31	31	foodImage.77	FOODEEG_Images\0771.jpg	NY	Right	Yes	3.12642290024087	0	281897	235
551.619140625	1	taste	trialStart	1	32	32	foodImage.11	FOODEEG_Images\0180.jpg	YN	Left	Yes	2.00331499986351	0	282430	251
552.66015625	2	taste	foodImageDisplay	1	32	32	foodImage.11	FOODEEG_Images\0180.jpg	YN	Left	Yes	2.00331499986351	0	282963	252
554.728515625	2.00331499986351	taste	choicePhaseStart	1	32	32	foodImage.11	FOODEEG_Images\0180.jpg	YN	Left	Yes	2.00331499986351	0	284022	253
556.72265625	0	taste	response	1	32	32	foodImage.11	FOODEEG_Images\0180.jpg	YN	Left	Yes	2.00331499986351	0	285043	234
557.763671875	1	taste	trialStart	1	33	33	foodImage.74	FOODEEG_Images\0752.jpg	NY	Right	Yes	0.899405300151557	0	285576	251
558.810546875	2	taste	foodImageDisplay	1	33	33	foodImage.74	FOODEEG_Images\0752.jpg	NY	Right	Yes	0.899405300151557	0	286112	252
560.873046875	0.899405300151557	taste	choicePhaseStart	1	33	33	foodImage.74	FOODEEG_Images\0752.jpg	NY	Right	Yes	0.899405300151557	0	287168	253
561.76171875	0	taste	response	1	33	33	foodImage.74	FOODEEG_Images\0752.jpg	NY	Right	Yes	0.899405300151557	0	287623	235
562.802734375	1	decision	trialStart	1	34	34	foodImage.117	FOODEEG_Images\0925.jpg	NY	Left	No	0.841988299973309	0	288156	251
563.841796875	2	decision	foodImageDisplay	1	34	34	foodImage.117	FOODEEG_Images\0925.jpg	NY	Left	No	0.841988299973309	0	288688	252
565.904296875	0.841988299973309	decision	choicePhaseStart	1	34	34	foodImage.117	FOODEEG_Images\0925.jpg	NY	Left	No	0.841988299973309	0	289744	253
566.73828125	0	decision	response	1	34	34	foodImage.117	FOODEEG_Images\0925.jpg	NY	Left	No	0.841988299973309	0	290171	234
567.78125	1	health	trialStart	1	35	35	foodImage.101	FOODEEG_Images\0909.jpg	NY	Right	Yes	1.77537079993635	0	290705	251
568.8203125	2	health	foodImageDisplay	1	35	35	foodImage.101	FOODEEG_Images\0909.jpg	NY	Right	Yes	1.77537079993635	0	291237	252
570.8828125	1.77537079993635	health	choicePhaseStart	1	35	35	foodImage.101	FOODEEG_Images\0909.jpg	NY	Right	Yes	1.77537079993635	0	292293	253
572.650390625	0	health	response	1	35	35	foodImage.101	FOODEEG_Images\0909.jpg	NY	Right	Yes	1.77537079993635	0	293198	235
573.689453125	1	taste	trialStart	1	36	36	foodImage.13	FOODEEG_Images\0183.jpg	YN	Left	Yes	0.931976600084454	0	293730	251
574.744140625	2	taste	foodImageDisplay	1	36	36	foodImage.13	FOODEEG_Images\0183.jpg	YN	Left	Yes	0.931976600084454	0	294270	252
576.806640625	0.931976600084454	taste	choicePhaseStart	1	36	36	foodImage.13	FOODEEG_Images\0183.jpg	YN	Left	Yes	0.931976600084454	0	295326	253
577.73046875	0	taste	response	1	36	36	foodImage.13	FOODEEG_Images\0183.jpg	YN	Left	Yes	0.931976600084454	0	295799	234
578.77734375	1	taste	trialStart	1	37	37	foodImage.59	FOODEEG_Images\0607.jpg	YN	Left	Yes	1.13905159989372	0	296335	251
579.82421875	2	taste	foodImageDisplay	1	37	37	foodImage.59	FOODEEG_Images\0607.jpg	YN	Left	Yes	1.13905159989372	0	296871	252
581.888671875	1.13905159989372	taste	choicePhaseStart	1	37	37	foodImage.59	FOODEEG_Images\0607.jpg	YN	Left	Yes	1.13905159989372	0	297928	253
583.017578125	0	taste	response	1	37	37	foodImage.59	FOODEEG_Images\0607.jpg	YN	Left	Yes	1.13905159989372	0	298506	234
584.064453125	1	health	trialStart	1	38	38	foodImage.60	FOODEEG_Images\0614.jpg	NY	Right	Yes	0.730390900280327	0	299042	251
585.138671875	2	health	foodImageDisplay	1	38	38	foodImage.60	FOODEEG_Images\0614.jpg	NY	Right	Yes	0.730390900280327	0	299592	252
587.201171875	0.730390900280327	health	choicePhaseStart	1	38	38	foodImage.60	FOODEEG_Images\0614.jpg	NY	Right	Yes	0.730390900280327	0	300648	253
587.921875	0	health	response	1	38	38	foodImage.60	FOODEEG_Images\0614.jpg	NY	Right	Yes	0.730390900280327	0	301017	235
588.962890625	1	decision	trialStart	1	39	39	foodImage.26	FOODEEG_Images\0262.jpg	NY	Right	Yes	0.903883500024676	0	301550	251
590.00390625	2	decision	foodImageDisplay	1	39	39	foodImage.26	FOODEEG_Images\0262.jpg	NY	Right	Yes	0.903883500024676	0	302083	252
592.06640625	0.903883500024676	decision	choicePhaseStart	1	39	39	foodImage.26	FOODEEG_Images\0262.jpg	NY	Right	Yes	0.903883500024676	0	303139	253
592.9609375	0	decision	response	1	39	39	foodImage.26	FOODEEG_Images\0262.jpg	NY	Right	Yes	0.903883500024676	0	303597	235
594.00390625	1	health	trialStart	1	40	40	foodImage.112	FOODEEG_Images\0920.jpg	YN	Left	Yes	0.886451800353825	0	304131	251
595.044921875	2	health	foodImageDisplay	1	40	40	foodImage.112	FOODEEG_Images\0920.jpg	YN	Left	Yes	0.886451800353825	0	304664	252
597.107421875	0.886451800353825	health	choicePhaseStart	1	40	40	foodImage.112	FOODEEG_Images\0920.jpg	YN	Left	Yes	0.886451800353825	0	305720	253
597.984375	0	health	response	1	40	40	foodImage.112	FOODEEG_Images\0920.jpg	YN	Left	Yes	0.886451800353825	0	306169	234
599.025390625	1	health	trialStart	1	41	41	foodImage.80	FOODEEG_Images\0796.jpg	YN	Left	Yes	1.55387499975041	0	306702	251
600.08984375	2	health	foodImageDisplay	1	41	41	foodImage.80	FOODEEG_Images\0796.jpg	YN	Left	Yes	1.55387499975041	0	307247	252
602.15234375	1.55387499975041	health	choicePhaseStart	1	41	41	foodImage.80	FOODEEG_Images\0796.jpg	YN	Left	Yes	1.55387499975041	0	308303	253
603.697265625	0	health	response	1	41	41	foodImage.80	FOODEEG_Images\0796.jpg	YN	Left	Yes	1.55387499975041	0	309094	234
604.740234375	1	taste	trialStart	1	42	42	foodImage.38	FOODEEG_Images\0365.jpg	YN	Left	Yes	0.977971899788827	0	309628	251
605.77734375	2	taste	foodImageDisplay	1	42	42	foodImage.38	FOODEEG_Images\0365.jpg	YN	Left	Yes	0.977971899788827	0	310159	252
607.83984375	0.977971899788827	taste	choicePhaseStart	1	42	42	foodImage.38	FOODEEG_Images\0365.jpg	YN	Left	Yes	0.977971899788827	0	311215	253
608.80859375	0	taste	response	1	42	42	foodImage.38	FOODEEG_Images\0365.jpg	YN	Left	Yes	0.977971899788827	0	311711	234
609.849609375	1	health	trialStart	1	43	43	foodImage.79	FOODEEG_Images\0794.jpg	NY	Right	Yes	1.01656919997185	0	312244	251
610.890625	2	health	foodImageDisplay	1	43	43	foodImage.79	FOODEEG_Images\0794.jpg	NY	Right	Yes	1.01656919997185	0	312777	252
612.953125	1.01656919997185	health	choicePhaseStart	1	43	43	foodImage.79	FOODEEG_Images\0794.jpg	NY	Right	Yes	1.01656919997185	0	313833	253
613.9609375	0	health	response	1	43	43	foodImage.79	FOODEEG_Images\0794.jpg	NY	Right	Yes	1.01656919997185	0	314349	235
615	1	taste	trialStart	1	44	44	foodImage.88	FOODEEG_Images\0878.jpg	NY	Right	Yes	1.06727850018069	0	314881	251
616.056640625	2	taste	foodImageDisplay	1	44	44	foodImage.88	FOODEEG_Images\0878.jpg	NY	Right	Yes	1.06727850018069	0	315422	252
618.119140625	1.06727850018069	taste	choicePhaseStart	1	44	44	foodImage.88	FOODEEG_Images\0878.jpg	NY	Right	Yes	1.06727850018069	0	316478	253
619.17578125	0	taste	response	1	44	44	foodImage.88	FOODEEG_Images\0878.jpg	NY	Right	Yes	1.06727850018069	0	317019	235
620.21875	1	decision	trialStart	1	45	45	foodImage.31	FOODEEG_Images\0294.jpg	YN	Left	Yes	2.60737849958241	0	317553	251
621.265625	2	decision	foodImageDisplay	1	45	45	foodImage.31	FOODEEG_Images\0294.jpg	YN	Left	Yes	2.60737849958241	0	318089	252
623.330078125	2.60737849958241	decision	choicePhaseStart	1	45	45	foodImage.31	FOODEEG_Images\0294.jpg	YN	Left	Yes	2.60737849958241	0	319146	253
625.927734375	0	decision	response	1	45	45	foodImage.31	FOODEEG_Images\0294.jpg	YN	Left	Yes	2.60737849958241	0	320476	234
626.96875	1	decision	trialStart	1	46	46	foodImage.17	FOODEEG_Images\0199.jpg	YN	Left	Yes	1.08238730020821	0	321009	251
628.009765625	2	decision	foodImageDisplay	1	46	46	foodImage.17	FOODEEG_Images\0199.jpg	YN	Left	Yes	1.08238730020821	0	321542	252
630.072265625	1.08238730020821	decision	choicePhaseStart	1	46	46	foodImage.17	FOODEEG_Images\0199.jpg	YN	Left	Yes	1.08238730020821	0	322598	253
631.14453125	0	decision	response	1	46	46	foodImage.17	FOODEEG_Images\0199.jpg	YN	Left	Yes	1.08238730020821	0	323147	234
632.185546875	1	taste	trialStart	1	47	47	foodImage.97	FOODEEG_Images\0905.jpg	YN	Left	Yes	2.84566609980538	0	323680	251
633.22265625	2	taste	foodImageDisplay	1	47	47	foodImage.97	FOODEEG_Images\0905.jpg	YN	Left	Yes	2.84566609980538	0	324211	252
635.2890625	2.84566609980538	taste	choicePhaseStart	1	47	47	foodImage.97	FOODEEG_Images\0905.jpg	YN	Left	Yes	2.84566609980538	0	325269	253
638.126953125	0	taste	response	1	47	47	foodImage.97	FOODEEG_Images\0905.jpg	YN	Left	Yes	2.84566609980538	0	326722	234
639.166015625	1	health	trialStart	1	48	48	foodImage.62	FOODEEG_Images\0644.jpg	NY	Right	Yes	1.80046189995483	0	327254	251
640.224609375	2	health	foodImageDisplay	1	48	48	foodImage.62	FOODEEG_Images\0644.jpg	NY	Right	Yes	1.80046189995483	0	327796	252
642.287109375	1.80046189995483	health	choicePhaseStart	1	48	48	foodImage.62	FOODEEG_Images\0644.jpg	NY	Right	Yes	1.80046189995483	0	328852	253
644.080078125	0	health	response	1	48	48	foodImage.62	FOODEEG_Images\0644.jpg	NY	Right	Yes	1.80046189995483	0	329770	235
645.119140625	1	decision	trialStart	1	49	49	foodImage.113	FOODEEG_Images\0921.jpg	NY	Right	Yes	0.83571910019964	0	330302	251
646.15625	2	decision	foodImageDisplay	1	49	49	foodImage.113	FOODEEG_Images\0921.jpg	NY	Right	Yes	0.83571910019964	0	330833	252
648.220703125	0.83571910019964	decision	choicePhaseStart	1	49	49	foodImage.113	FOODEEG_Images\0921.jpg	NY	Right	Yes	0.83571910019964	0	331890	253
649.046875	0	decision	response	1	49	49	foodImage.113	FOODEEG_Images\0921.jpg	NY	Right	Yes	0.83571910019964	0	332313	235
650.087890625	1	health	trialStart	1	50	50	foodImage.19	FOODEEG_Images\0225.jpg	NY	Right	Yes	1.3665203996934	0	332846	251
651.12890625	2	health	foodImageDisplay	1	50	50	foodImage.19	FOODEEG_Images\0225.jpg	NY	Right	Yes	1.3665203996934	0	333379	252
653.19140625	1.3665203996934	health	choicePhaseStart	1	50	50	foodImage.19	FOODEEG_Images\0225.jpg	NY	Right	Yes	1.3665203996934	0	334435	253
654.55078125	0	health	response	1	50	50	foodImage.19	FOODEEG_Images\0225.jpg	NY	Right	Yes	1.3665203996934	0	335131	235
655.595703125	1	taste	trialStart	1	51	51	foodImage.80	FOODEEG_Images\0796.jpg	YN	Left	Yes	0.773441500030458	0	335666	251
656.67578125	2	taste	foodImageDisplay	1	51	51	foodImage.80	FOODEEG_Images\0796.jpg	YN	Left	Yes	0.773441500030458	0	336219	252
658.73828125	0.773441500030458	taste	choicePhaseStart	1	51	51	foodImage.80	FOODEEG_Images\0796.jpg	YN	Left	Yes	0.773441500030458	0	337275	253
659.501953125	0	taste	response	1	51	51	foodImage.80	FOODEEG_Images\0796.jpg	YN	Left	Yes	0.773441500030458	0	337666	234
660.546875	1	decision	trialStart	1	52	52	foodImage.2	FOODEEG_Images\0028.jpg	YN	Left	Yes	1.20384379988536	0	338201	251
661.58984375	2	decision	foodImageDisplay	1	52	52	foodImage.2	FOODEEG_Images\0028.jpg	YN	Left	Yes	1.20384379988536	0	338735	252
663.65234375	1.20384379988536	decision	choicePhaseStart	1	52	52	foodImage.2	FOODEEG_Images\0028.jpg	YN	Left	Yes	1.20384379988536	0	339791	253
664.845703125	0	decision	response	1	52	52	foodImage.2	FOODEEG_Images\0028.jpg	YN	Left	Yes	1.20384379988536	0	340402	234
665.888671875	1	taste	trialStart	1	53	53	foodImage.104	FOODEEG_Images\0912.jpg	YN	Left	Yes	1.42628799984232	0	340936	251
666.935546875	2	taste	foodImageDisplay	1	53	53	foodImage.104	FOODEEG_Images\0912.jpg	YN	Left	Yes	1.42628799984232	0	341472	252
668.998046875	1.42628799984232	taste	choicePhaseStart	1	53	53	foodImage.104	FOODEEG_Images\0912.jpg	YN	Left	Yes	1.42628799984232	0	342528	253
670.4140625	0	taste	response	1	53	53	foodImage.104	FOODEEG_Images\0912.jpg	YN	Left	Yes	1.42628799984232	0	343253	234
671.455078125	1	taste	trialStart	1	54	54	foodImage.64	FOODEEG_Images\0647.jpg	YN	Left	Yes	2.44458119990304	0	343786	251
672.515625	2	taste	foodImageDisplay	1	54	54	foodImage.64	FOODEEG_Images\0647.jpg	YN	Left	Yes	2.44458119990304	0	344329	252
674.578125	2.44458119990304	taste	choicePhaseStart	1	54	54	foodImage.64	FOODEEG_Images\0647.jpg	YN	Left	Yes	2.44458119990304	0	345385	253
677.013671875	0	taste	response	1	54	54	foodImage.64	FOODEEG_Images\0647.jpg	YN	Left	Yes	2.44458119990304	0	346632	234
678.056640625	1	decision	trialStart	1	55	55	foodImage.57	FOODEEG_Images\0587.jpg	NY	Right	Yes	1.15415379963815	0	347166	251
679.103515625	2	decision	foodImageDisplay	1	55	55	foodImage.57	FOODEEG_Images\0587.jpg	NY	Right	Yes	1.15415379963815	0	347702	252
681.166015625	1.15415379963815	decision	choicePhaseStart	1	55	55	foodImage.57	FOODEEG_Images\0587.jpg	NY	Right	Yes	1.15415379963815	0	348758	253
682.310546875	0	decision	response	1	55	55	foodImage.57	FOODEEG_Images\0587.jpg	NY	Right	Yes	1.15415379963815	0	349344	235
683.3515625	1	decision	trialStart	1	56	56	foodImage.72	FOODEEG_Images\0714.jpg	YN	Left	Yes	1.3433081000112	0	349877	251
684.392578125	2	decision	foodImageDisplay	1	56	56	foodImage.72	FOODEEG_Images\0714.jpg	YN	Left	Yes	1.3433081000112	0	350410	252
686.455078125	1.3433081000112	decision	choicePhaseStart	1	56	56	foodImage.72	FOODEEG_Images\0714.jpg	YN	Left	Yes	1.3433081000112	0	351466	253
687.7890625	0	decision	response	1	56	56	foodImage.72	FOODEEG_Images\0714.jpg	YN	Left	Yes	1.3433081000112	0	352149	234
688.833984375	1	decision	trialStart	1	57	57	foodImage.43	FOODEEG_Images\0445.jpg	YN	Left	Yes	1.07991390023381	0	352684	251
689.892578125	2	decision	foodImageDisplay	1	57	57	foodImage.43	FOODEEG_Images\0445.jpg	YN	Left	Yes	1.07991390023381	0	353226	252
691.95703125	1.07991390023381	decision	choicePhaseStart	1	57	57	foodImage.43	FOODEEG_Images\0445.jpg	YN	Left	Yes	1.07991390023381	0	354283	253
693.029296875	0	decision	response	1	57	57	foodImage.43	FOODEEG_Images\0445.jpg	YN	Left	Yes	1.07991390023381	0	354832	234
694.072265625	1	decision	trialStart	1	58	58	foodImage.91	FOODEEG_Images\0896.jpg	YN	Left	Yes	2.05092159984633	0	355366	251
695.142578125	2	decision	foodImageDisplay	1	58	58	foodImage.91	FOODEEG_Images\0896.jpg	YN	Left	Yes	2.05092159984633	0	355914	252
697.205078125	2.05092159984633	decision	choicePhaseStart	1	58	58	foodImage.91	FOODEEG_Images\0896.jpg	YN	Left	Yes	2.05092159984633	0	356970	253
699.24609375	0	decision	response	1	58	58	foodImage.91	FOODEEG_Images\0896.jpg	YN	Left	Yes	2.05092159984633	0	358015	234
700.2890625	1	health	trialStart	1	59	59	foodImage.113	FOODEEG_Images\0921.jpg	NY	Right	Yes	0.722601800225675	0	358549	251
701.326171875	2	health	foodImageDisplay	1	59	59	foodImage.113	FOODEEG_Images\0921.jpg	NY	Right	Yes	0.722601800225675	0	359080	252
703.38671875	0.722601800225675	health	choicePhaseStart	1	59	59	foodImage.113	FOODEEG_Images\0921.jpg	NY	Right	Yes	0.722601800225675	0	360135	253
704.1015625	0	health	response	1	59	59	foodImage.113	FOODEEG_Images\0921.jpg	NY	Right	Yes	0.722601800225675	0	360501	235
705.142578125	1	health	trialStart	1	60	60	foodImage.119	FOODEEG_Images\0927.jpg	NY	Right	Yes	2.23263460025191	0	361034	251
706.18359375	2	health	foodImageDisplay	1	60	60	foodImage.119	FOODEEG_Images\0927.jpg	NY	Right	Yes	2.23263460025191	0	361567	252
708.24609375	2.23263460025191	health	choicePhaseStart	1	60	60	foodImage.119	FOODEEG_Images\0927.jpg	NY	Right	Yes	2.23263460025191	0	362623	253
710.46875	0	health	response	1	60	60	foodImage.119	FOODEEG_Images\0927.jpg	NY	Right	Yes	2.23263460025191	0	363761	235
712.5078125	16.8984375	n/a	blockEnd	n/a	n/a	n/a	n/a	n/a	n/a	n/a	n/a	n/a	n/a	364805	254
729.40625	2	n/a	blockStart	2	n/a	n/a	n/a	n/a	n/a	n/a	n/a	n/a	n/a	373457	250
731.4375	1	taste	trialStart	2	61	1	foodImage.52	FOODEEG_Images\0539.jpg	NY	Right	Yes	1.11733889998868	0	374497	251
732.49609375	2	taste	foodImageDisplay	2	61	1	foodImage.52	FOODEEG_Images\0539.jpg	NY	Right	Yes	1.11733889998868	0	375039	252
734.55859375	1.11733889998868	taste	choicePhaseStart	2	61	1	foodImage.52	FOODEEG_Images\0539.jpg	NY	Right	Yes	1.11733889998868	0	376095	253
735.66796875	0	taste	response	2	61	1	foodImage.52	FOODEEG_Images\0539.jpg	NY	Right	Yes	1.11733889998868	0	376663	235
736.708984375	1	decision	trialStart	2	62	2	foodImage.85	FOODEEG_Images\0841.jpg	NY	Right	Yes	1.74971560016274	0	377196	251
737.765625	2	decision	foodImageDisplay	2	62	2	foodImage.85	FOODEEG_Images\0841.jpg	NY	Right	Yes	1.74971560016274	0	377737	252
739.830078125	1.74971560016274	decision	choicePhaseStart	2	62	2	foodImage.85	FOODEEG_Images\0841.jpg	NY	Right	Yes	1.74971560016274	0	378794	253
741.572265625	0	decision	response	2	62	2	foodImage.85	FOODEEG_Images\0841.jpg	NY	Right	Yes	1.74971560016274	0	379686	235
742.611328125	1	decision	trialStart	2	63	3	foodImage.1	FOODEEG_Images\0004.jpg	NY	Right	Yes	1.36445029964671	0	380218	251
743.666015625	2	decision	foodImageDisplay	2	63	3	foodImage.1	FOODEEG_Images\0004.jpg	NY	Right	Yes	1.36445029964671	0	380758	252
745.728515625	1.36445029964671	decision	choicePhaseStart	2	63	3	foodImage.1	FOODEEG_Images\0004.jpg	NY	Right	Yes	1.36445029964671	0	381814	253
747.083984375	0	decision	response	2	63	3	foodImage.1	FOODEEG_Images\0004.jpg	NY	Right	Yes	1.36445029964671	0	382508	235
748.123046875	1	health	trialStart	2	64	4	foodImage.83	FOODEEG_Images\0827.jpg	NY	Right	Yes	1.80232510017231	0	383040	251
749.1875	2	health	foodImageDisplay	2	64	4	foodImage.83	FOODEEG_Images\0827.jpg	NY	Right	Yes	1.80232510017231	0	383585	252
751.25	1.80232510017231	health	choicePhaseStart	2	64	4	foodImage.83	FOODEEG_Images\0827.jpg	NY	Right	Yes	1.80232510017231	0	384641	253
753.04296875	0	health	response	2	64	4	foodImage.83	FOODEEG_Images\0827.jpg	NY	Right	Yes	1.80232510017231	0	385559	235
754.0859375	1	health	trialStart	2	65	5	foodImage.47	FOODEEG_Images\0488.jpg	NY	Right	Yes	1.3419356001541	0	386093	251
755.12890625	2	health	foodImageDisplay	2	65	5	foodImage.47	FOODEEG_Images\0488.jpg	NY	Right	Yes	1.3419356001541	0	386627	252
757.19140625	1.3419356001541	health	choicePhaseStart	2	65	5	foodImage.47	FOODEEG_Images\0488.jpg	NY	Right	Yes	1.3419356001541	0	387683	253
758.5234375	0	health	response	2	65	5	foodImage.47	FOODEEG_Images\0488.jpg	NY	Right	Yes	1.3419356001541	0	388365	235
759.5625	1	taste	trialStart	2	66	6	foodImage.54	FOODEEG_Images\0560.jpg	YN	Left	Yes	1.05305980006233	0	388897	251
760.6171875	2	taste	foodImageDisplay	2	66	6	foodImage.54	FOODEEG_Images\0560.jpg	YN	Left	Yes	1.05305980006233	0	389437	252
762.6796875	1.05305980006233	taste	choicePhaseStart	2	66	6	foodImage.54	FOODEEG_Images\0560.jpg	YN	Left	Yes	1.05305980006233	0	390493	253
763.72265625	0	taste	response	2	66	6	foodImage.54	FOODEEG_Images\0560.jpg	YN	Left	Yes	1.05305980006233	0	391027	234
764.763671875	1	decision	trialStart	2	67	7	foodImage.63	FOODEEG_Images\0645.jpg	NY	Right	Yes	2.11190710030496	0	391560	251
765.806640625	2	decision	foodImageDisplay	2	67	7	foodImage.63	FOODEEG_Images\0645.jpg	NY	Right	Yes	2.11190710030496	0	392094	252
767.869140625	2.11190710030496	decision	choicePhaseStart	2	67	7	foodImage.63	FOODEEG_Images\0645.jpg	NY	Right	Yes	2.11190710030496	0	393150	253
769.970703125	0	decision	response	2	67	7	foodImage.63	FOODEEG_Images\0645.jpg	NY	Right	Yes	2.11190710030496	0	394226	235
771.013671875	1	health	trialStart	2	68	8	foodImage.65	FOODEEG_Images\0658.jpg	YN	Left	Yes	2.70133159961551	0	394760	251
772.0546875	2	health	foodImageDisplay	2	68	8	foodImage.65	FOODEEG_Images\0658.jpg	YN	Left	Yes	2.70133159961551	0	395293	252
774.1171875	2.70133159961551	health	choicePhaseStart	2	68	8	foodImage.65	FOODEEG_Images\0658.jpg	YN	Left	Yes	2.70133159961551	0	396349	253
776.810546875	0	health	response	2	68	8	foodImage.65	FOODEEG_Images\0658.jpg	YN	Left	Yes	2.70133159961551	0	397728	234
777.8515625	1	taste	trialStart	2	69	9	foodImage.44	FOODEEG_Images\0459.jpg	NY	Right	Yes	1.56609030021355	0	398261	251
778.89453125	2	taste	foodImageDisplay	2	69	9	foodImage.44	FOODEEG_Images\0459.jpg	NY	Right	Yes	1.56609030021355	0	398795	252
780.95703125	1.56609030021355	taste	choicePhaseStart	2	69	9	foodImage.44	FOODEEG_Images\0459.jpg	NY	Right	Yes	1.56609030021355	0	399851	253
782.513671875	0	taste	response	2	69	9	foodImage.44	FOODEEG_Images\0459.jpg	NY	Right	Yes	1.56609030021355	0	400648	235
783.556640625	1	health	trialStart	2	70	10	foodImage.76	FOODEEG_Images\0766.jpg	NY	Right	Yes	0.781261499971151	0	401182	251
784.6171875	2	health	foodImageDisplay	2	70	10	foodImage.76	FOODEEG_Images\0766.jpg	NY	Right	Yes	0.781261499971151	0	401725	252
786.677734375	0.781261499971151	health	choicePhaseStart	2	70	10	foodImage.76	FOODEEG_Images\0766.jpg	NY	Right	Yes	0.781261499971151	0	402780	253
787.44921875	0	health	response	2	70	10	foodImage.76	FOODEEG_Images\0766.jpg	NY	Right	Yes	0.781261499971151	0	403175	235
788.4921875	1	decision	trialStart	2	71	11	foodImage.71	FOODEEG_Images\0713.jpg	YN	Left	Yes	0.907068100292236	0	403709	251
789.537109375	2	decision	foodImageDisplay	2	71	11	foodImage.71	FOODEEG_Images\0713.jpg	YN	Left	Yes	0.907068100292236	0	404244	252
791.599609375	0.907068100292236	decision	choicePhaseStart	2	71	11	foodImage.71	FOODEEG_Images\0713.jpg	YN	Left	Yes	0.907068100292236	0	405300	253
792.498046875	0	decision	response	2	71	11	foodImage.71	FOODEEG_Images\0713.jpg	YN	Left	Yes	0.907068100292236	0	405760	234
793.541015625	1	decision	trialStart	2	72	12	foodImage.103	FOODEEG_Images\0911.jpg	YN	Right	No	1.03640359966084	0	406294	251
794.58203125	2	decision	foodImageDisplay	2	72	12	foodImage.103	FOODEEG_Images\0911.jpg	YN	Right	No	1.03640359966084	0	406827	252
796.64453125	1.03640359966084	decision	choicePhaseStart	2	72	12	foodImage.103	FOODEEG_Images\0911.jpg	YN	Right	No	1.03640359966084	0	407883	253
797.673828125	0	decision	response	2	72	12	foodImage.103	FOODEEG_Images\0911.jpg	YN	Right	No	1.03640359966084	0	408410	235
798.716796875	1	health	trialStart	2	73	13	foodImage.69	FOODEEG_Images\0693.jpg	NY	Right	Yes	0.910549900028855	0	408944	251
799.7578125	2	health	foodImageDisplay	2	73	13	foodImage.69	FOODEEG_Images\0693.jpg	NY	Right	Yes	0.910549900028855	0	409477	252
801.8203125	0.910549900028855	health	choicePhaseStart	2	73	13	foodImage.69	FOODEEG_Images\0693.jpg	NY	Right	Yes	0.910549900028855	0	410533	253
802.720703125	0	health	response	2	73	13	foodImage.69	FOODEEG_Images\0693.jpg	NY	Right	Yes	0.910549900028855	0	410994	235
803.763671875	1	decision	trialStart	2	74	14	foodImage.74	FOODEEG_Images\0752.jpg	NY	Right	Yes	0.795678500086069	0	411528	251
804.80859375	2	decision	foodImageDisplay	2	74	14	foodImage.74	FOODEEG_Images\0752.jpg	NY	Right	Yes	0.795678500086069	0	412063	252
806.869140625	0.795678500086069	decision	choicePhaseStart	2	74	14	foodImage.74	FOODEEG_Images\0752.jpg	NY	Right	Yes	0.795678500086069	0	413118	253
807.65625	0	decision	response	2	74	14	foodImage.74	FOODEEG_Images\0752.jpg	NY	Right	Yes	0.795678500086069	0	413521	235
808.6953125	1	decision	trialStart	2	75	15	foodImage.29	FOODEEG_Images\0278.jpg	NY	Left	No	3.47336640022695	0	414053	251
809.73828125	2	decision	foodImageDisplay	2	75	15	foodImage.29	FOODEEG_Images\0278.jpg	NY	Left	No	3.47336640022695	0	414587	252
811.80078125	3.47336640022695	decision	choicePhaseStart	2	75	15	foodImage.29	FOODEEG_Images\0278.jpg	NY	Left	No	3.47336640022695	0	415643	253
815.265625	0	decision	response	2	75	15	foodImage.29	FOODEEG_Images\0278.jpg	NY	Left	No	3.47336640022695	0	417417	234
816.306640625	1	health	trialStart	2	76	16	foodImage.61	FOODEEG_Images\0640.jpg	NY	Right	Yes	0.768727299757302	0	417950	251
817.353515625	2	health	foodImageDisplay	2	76	16	foodImage.61	FOODEEG_Images\0640.jpg	NY	Right	Yes	0.768727299757302	0	418486	252
819.416015625	0.768727299757302	health	choicePhaseStart	2	76	16	foodImage.61	FOODEEG_Images\0640.jpg	NY	Right	Yes	0.768727299757302	0	419542	253
820.17578125	0	health	response	2	76	16	foodImage.61	FOODEEG_Images\0640.jpg	NY	Right	Yes	0.768727299757302	0	419931	235
821.21875	1	decision	trialStart	2	77	17	foodImage.73	FOODEEG_Images\0717.jpg	NY	Right	Yes	0.967972400132567	0	420465	251
822.275390625	2	decision	foodImageDisplay	2	77	17	foodImage.73	FOODEEG_Images\0717.jpg	NY	Right	Yes	0.967972400132567	0	421006	252
824.337890625	0.967972400132567	decision	choicePhaseStart	2	77	17	foodImage.73	FOODEEG_Images\0717.jpg	NY	Right	Yes	0.967972400132567	0	422062	253
825.296875	0	decision	response	2	77	17	foodImage.73	FOODEEG_Images\0717.jpg	NY	Right	Yes	0.967972400132567	0	422553	235
826.341796875	1	decision	trialStart	2	78	18	foodImage.18	FOODEEG_Images\0202.jpg	YN	Left	Yes	0.878012199886143	0	423088	251
827.404296875	2	decision	foodImageDisplay	2	78	18	foodImage.18	FOODEEG_Images\0202.jpg	YN	Left	Yes	0.878012199886143	0	423632	252
829.466796875	0.878012199886143	decision	choicePhaseStart	2	78	18	foodImage.18	FOODEEG_Images\0202.jpg	YN	Left	Yes	0.878012199886143	0	424688	253
830.3359375	0	decision	response	2	78	18	foodImage.18	FOODEEG_Images\0202.jpg	YN	Left	Yes	0.878012199886143	0	425133	234
831.376953125	1	decision	trialStart	2	79	19	foodImage.45	FOODEEG_Images\0478.jpg	NY	Right	Yes	0.723964999895543	0	425666	251
832.421875	2	decision	foodImageDisplay	2	79	19	foodImage.45	FOODEEG_Images\0478.jpg	NY	Right	Yes	0.723964999895543	0	426201	252
834.484375	0.723964999895543	decision	choicePhaseStart	2	79	19	foodImage.45	FOODEEG_Images\0478.jpg	NY	Right	Yes	0.723964999895543	0	427257	253
835.19921875	0	decision	response	2	79	19	foodImage.45	FOODEEG_Images\0478.jpg	NY	Right	Yes	0.723964999895543	0	427623	235
836.2421875	1	decision	trialStart	2	80	20	foodImage.58	FOODEEG_Images\0605.jpg	YN	Left	Yes	1.07058089971542	0	428157	251
837.298828125	2	decision	foodImageDisplay	2	80	20	foodImage.58	FOODEEG_Images\0605.jpg	YN	Left	Yes	1.07058089971542	0	428698	252
839.36328125	1.07058089971542	decision	choicePhaseStart	2	80	20	foodImage.58	FOODEEG_Images\0605.jpg	YN	Left	Yes	1.07058089971542	0	429755	253
840.423828125	0	decision	response	2	80	20	foodImage.58	FOODEEG_Images\0605.jpg	YN	Left	Yes	1.07058089971542	0	430298	234
841.470703125	1	taste	trialStart	2	81	21	foodImage.93	FOODEEG_Images\0901.jpg	YN	Left	Yes	1.30571380024776	0	430834	251
842.509765625	2	taste	foodImageDisplay	2	81	21	foodImage.93	FOODEEG_Images\0901.jpg	YN	Left	Yes	1.30571380024776	0	431366	252
844.572265625	1.30571380024776	taste	choicePhaseStart	2	81	21	foodImage.93	FOODEEG_Images\0901.jpg	YN	Left	Yes	1.30571380024776	0	432422	253
845.87109375	0	taste	response	2	81	21	foodImage.93	FOODEEG_Images\0901.jpg	YN	Left	Yes	1.30571380024776	0	433087	234
846.9140625	1	health	trialStart	2	82	22	foodImage.75	FOODEEG_Images\0763.jpg	NY	Right	Yes	1.12323139980435	0	433621	251
847.95703125	2	health	foodImageDisplay	2	82	22	foodImage.75	FOODEEG_Images\0763.jpg	NY	Right	Yes	1.12323139980435	0	434155	252
850.021484375	1.12323139980435	health	choicePhaseStart	2	82	22	foodImage.75	FOODEEG_Images\0763.jpg	NY	Right	Yes	1.12323139980435	0	435212	253
851.134765625	0	health	response	2	82	22	foodImage.75	FOODEEG_Images\0763.jpg	NY	Right	Yes	1.12323139980435	0	435782	235
852.173828125	1	health	trialStart	2	83	23	foodImage.29	FOODEEG_Images\0278.jpg	NY	Right	Yes	2.48385119996965	0	436314	251
853.220703125	2	health	foodImageDisplay	2	83	23	foodImage.29	FOODEEG_Images\0278.jpg	NY	Right	Yes	2.48385119996965	0	436850	252
855.28515625	2.48385119996965	health	choicePhaseStart	2	83	23	foodImage.29	FOODEEG_Images\0278.jpg	NY	Right	Yes	2.48385119996965	0	437907	253
857.759765625	0	health	response	2	83	23	foodImage.29	FOODEEG_Images\0278.jpg	NY	Right	Yes	2.48385119996965	0	439174	235
858.80078125	1	decision	trialStart	2	84	24	foodImage.42	FOODEEG_Images\0438.jpg	NY	Right	Yes	1.28858530009165	0	439707	251
859.888671875	2	decision	foodImageDisplay	2	84	24	foodImage.42	FOODEEG_Images\0438.jpg	NY	Right	Yes	1.28858530009165	0	440264	252
861.951171875	1.28858530009165	decision	choicePhaseStart	2	84	24	foodImage.42	FOODEEG_Images\0438.jpg	NY	Right	Yes	1.28858530009165	0	441320	253
863.23046875	0	decision	response	2	84	24	foodImage.42	FOODEEG_Images\0438.jpg	NY	Right	Yes	1.28858530009165	0	441975	235
864.271484375	1	decision	trialStart	2	85	25	foodImage.56	FOODEEG_Images\0586.jpg	YN	Right	No	2.14067029999569	0	442508	251
865.33203125	2	decision	foodImageDisplay	2	85	25	foodImage.56	FOODEEG_Images\0586.jpg	YN	Right	No	2.14067029999569	0	443051	252
867.39453125	2.14067029999569	decision	choicePhaseStart	2	85	25	foodImage.56	FOODEEG_Images\0586.jpg	YN	Right	No	2.14067029999569	0	444107	253
869.52734375	0	decision	response	2	85	25	foodImage.56	FOODEEG_Images\0586.jpg	YN	Right	No	2.14067029999569	0	445199	235
870.5703125	1	health	trialStart	2	86	26	foodImage.114	FOODEEG_Images\0922.jpg	YN	Left	Yes	1.28181880014017	0	445733	251
871.61328125	2	health	foodImageDisplay	2	86	26	foodImage.114	FOODEEG_Images\0922.jpg	YN	Left	Yes	1.28181880014017	0	446267	252
873.67578125	1.28181880014017	health	choicePhaseStart	2	86	26	foodImage.114	FOODEEG_Images\0922.jpg	YN	Left	Yes	1.28181880014017	0	447323	253
874.951171875	0	health	response	2	86	26	foodImage.114	FOODEEG_Images\0922.jpg	YN	Left	Yes	1.28181880014017	0	447976	234
875.994140625	1	taste	trialStart	2	87	27	foodImage.73	FOODEEG_Images\0717.jpg	YN	Left	Yes	1.13942970009521	0	448510	251
877.060546875	2	taste	foodImageDisplay	2	87	27	foodImage.73	FOODEEG_Images\0717.jpg	YN	Left	Yes	1.13942970009521	0	449056	252
879.123046875	1.13942970009521	taste	choicePhaseStart	2	87	27	foodImage.73	FOODEEG_Images\0717.jpg	YN	Left	Yes	1.13942970009521	0	450112	253
880.25390625	0	taste	response	2	87	27	foodImage.73	FOODEEG_Images\0717.jpg	YN	Left	Yes	1.13942970009521	0	450691	234
881.294921875	1	taste	trialStart	2	88	28	foodImage.5	FOODEEG_Images\0107.jpg	NY	Right	Yes	1.9472973998636	0	451224	251
882.349609375	2	taste	foodImageDisplay	2	88	28	foodImage.5	FOODEEG_Images\0107.jpg	NY	Right	Yes	1.9472973998636	0	451764	252
884.412109375	1.9472973998636	taste	choicePhaseStart	2	88	28	foodImage.5	FOODEEG_Images\0107.jpg	NY	Right	Yes	1.9472973998636	0	452820	253
886.349609375	0	taste	response	2	88	28	foodImage.5	FOODEEG_Images\0107.jpg	NY	Right	Yes	1.9472973998636	0	453812	235
887.390625	1	health	trialStart	2	89	29	foodImage.44	FOODEEG_Images\0459.jpg	NY	Right	Yes	2.55251660011709	0	454345	251
888.439453125	2	health	foodImageDisplay	2	89	29	foodImage.44	FOODEEG_Images\0459.jpg	NY	Right	Yes	2.55251660011709	0	454882	252
890.501953125	2.55251660011709	health	choicePhaseStart	2	89	29	foodImage.44	FOODEEG_Images\0459.jpg	NY	Right	Yes	2.55251660011709	0	455938	253
893.044921875	0	health	response	2	89	29	foodImage.44	FOODEEG_Images\0459.jpg	NY	Right	Yes	2.55251660011709	0	457240	235
894.08984375	1	health	trialStart	2	90	30	foodImage.109	FOODEEG_Images\0917.jpg	YN	Right	No	1.8629672001116	0	457775	251
895.12890625	2	health	foodImageDisplay	2	90	30	foodImage.109	FOODEEG_Images\0917.jpg	YN	Right	No	1.8629672001116	0	458307	252
897.19140625	1.8629672001116	health	choicePhaseStart	2	90	30	foodImage.109	FOODEEG_Images\0917.jpg	YN	Right	No	1.8629672001116	0	459363	253
899.044921875	0	health	response	2	90	30	foodImage.109	FOODEEG_Images\0917.jpg	YN	Right	No	1.8629672001116	0	460312	235
900.087890625	1	taste	trialStart	2	91	31	foodImage.9	FOODEEG_Images\0138.jpg	NY	Right	Yes	0.842074400279671	0	460846	251
901.1484375	2	taste	foodImageDisplay	2	91	31	foodImage.9	FOODEEG_Images\0138.jpg	NY	Right	Yes	0.842074400279671	0	461389	252
903.2109375	0.842074400279671	taste	choicePhaseStart	2	91	31	foodImage.9	FOODEEG_Images\0138.jpg	NY	Right	Yes	0.842074400279671	0	462445	253
904.044921875	0	taste	response	2	91	31	foodImage.9	FOODEEG_Images\0138.jpg	NY	Right	Yes	0.842074400279671	0	462872	235
905.087890625	1	decision	trialStart	2	92	32	foodImage.49	FOODEEG_Images\0515.jpg	YN	Left	Yes	1.26256970036775	0	463406	251
906.12890625	2	decision	foodImageDisplay	2	92	32	foodImage.49	FOODEEG_Images\0515.jpg	YN	Left	Yes	1.26256970036775	0	463939	252
908.19140625	1.26256970036775	decision	choicePhaseStart	2	92	32	foodImage.49	FOODEEG_Images\0515.jpg	YN	Left	Yes	1.26256970036775	0	464995	253
909.4453125	0	decision	response	2	92	32	foodImage.49	FOODEEG_Images\0515.jpg	YN	Left	Yes	1.26256970036775	0	465637	234
910.486328125	1	decision	trialStart	2	93	33	foodImage.59	FOODEEG_Images\0607.jpg	YN	Left	Yes	1.62895630020648	0	466170	251
911.53125	2	decision	foodImageDisplay	2	93	33	foodImage.59	FOODEEG_Images\0607.jpg	YN	Left	Yes	1.62895630020648	0	466705	252
913.59375	1.62895630020648	decision	choicePhaseStart	2	93	33	foodImage.59	FOODEEG_Images\0607.jpg	YN	Left	Yes	1.62895630020648	0	467761	253
915.212890625	0	decision	response	2	93	33	foodImage.59	FOODEEG_Images\0607.jpg	YN	Left	Yes	1.62895630020648	0	468590	234
916.2578125	1	taste	trialStart	2	94	34	foodImage.15	FOODEEG_Images\0189.jpg	YN	Left	Yes	1.96012350032106	0	469125	251
917.31640625	2	taste	foodImageDisplay	2	94	34	foodImage.15	FOODEEG_Images\0189.jpg	YN	Left	Yes	1.96012350032106	0	469667	252
919.380859375	1.96012350032106	taste	choicePhaseStart	2	94	34	foodImage.15	FOODEEG_Images\0189.jpg	YN	Left	Yes	1.96012350032106	0	470724	253
921.33203125	0	taste	response	2	94	34	foodImage.15	FOODEEG_Images\0189.jpg	YN	Left	Yes	1.96012350032106	0	471723	234
922.375	1	taste	trialStart	2	95	35	foodImage.82	FOODEEG_Images\0805.jpg	NY	Right	Yes	2.05809140019119	0	472257	251
923.4296875	2	taste	foodImageDisplay	2	95	35	foodImage.82	FOODEEG_Images\0805.jpg	NY	Right	Yes	2.05809140019119	0	472797	252
925.4921875	2.05809140019119	taste	choicePhaseStart	2	95	35	foodImage.82	FOODEEG_Images\0805.jpg	NY	Right	Yes	2.05809140019119	0	473853	253
927.541015625	0	taste	response	2	95	35	foodImage.82	FOODEEG_Images\0805.jpg	NY	Right	Yes	2.05809140019119	0	474902	235
928.58203125	1	taste	trialStart	2	96	36	foodImage.70	FOODEEG_Images\0705.jpg	YN	Left	Yes	1.16587309958413	0	475435	251
929.638671875	2	taste	foodImageDisplay	2	96	36	foodImage.70	FOODEEG_Images\0705.jpg	YN	Left	Yes	1.16587309958413	0	475976	252
931.701171875	1.16587309958413	taste	choicePhaseStart	2	96	36	foodImage.70	FOODEEG_Images\0705.jpg	YN	Left	Yes	1.16587309958413	0	477032	253
932.859375	0	taste	response	2	96	36	foodImage.70	FOODEEG_Images\0705.jpg	YN	Left	Yes	1.16587309958413	0	477625	234
933.900390625	1	taste	trialStart	2	97	37	foodImage.31	FOODEEG_Images\0294.jpg	NY	Right	Yes	0.690380299929529	0	478158	251
934.94140625	2	taste	foodImageDisplay	2	97	37	foodImage.31	FOODEEG_Images\0294.jpg	NY	Right	Yes	0.690380299929529	0	478691	252
937.00390625	0.690380299929529	taste	choicePhaseStart	2	97	37	foodImage.31	FOODEEG_Images\0294.jpg	NY	Right	Yes	0.690380299929529	0	479747	253
937.68359375	0	taste	response	2	97	37	foodImage.31	FOODEEG_Images\0294.jpg	NY	Right	Yes	0.690380299929529	0	480095	235
938.724609375	1	decision	trialStart	2	98	38	foodImage.21	FOODEEG_Images\0234.jpg	NY	Right	Yes	0.984632200095803	0	480628	251
939.78125	2	decision	foodImageDisplay	2	98	38	foodImage.21	FOODEEG_Images\0234.jpg	NY	Right	Yes	0.984632200095803	0	481169	252
941.84375	0.984632200095803	decision	choicePhaseStart	2	98	38	foodImage.21	FOODEEG_Images\0234.jpg	NY	Right	Yes	0.984632200095803	0	482225	253
942.8203125	0	decision	response	2	98	38	foodImage.21	FOODEEG_Images\0234.jpg	NY	Right	Yes	0.984632200095803	0	482725	235
943.859375	1	decision	trialStart	2	99	39	foodImage.119	FOODEEG_Images\0927.jpg	YN	Right	No	1.92551749991253	0	483257	251
944.904296875	2	decision	foodImageDisplay	2	99	39	foodImage.119	FOODEEG_Images\0927.jpg	YN	Right	No	1.92551749991253	0	483792	252
946.966796875	1.92551749991253	decision	choicePhaseStart	2	99	39	foodImage.119	FOODEEG_Images\0927.jpg	YN	Right	No	1.92551749991253	0	484848	253
948.8828125	0	decision	response	2	99	39	foodImage.119	FOODEEG_Images\0927.jpg	YN	Right	No	1.92551749991253	0	485829	235
949.921875	1	taste	trialStart	2	100	40	foodImage.76	FOODEEG_Images\0766.jpg	YN	Right	No	1.75923499977216	0	486361	251
950.982421875	2	taste	foodImageDisplay	2	100	40	foodImage.76	FOODEEG_Images\0766.jpg	YN	Right	No	1.75923499977216	0	486904	252
953.044921875	1.75923499977216	taste	choicePhaseStart	2	100	40	foodImage.76	FOODEEG_Images\0766.jpg	YN	Right	No	1.75923499977216	0	487960	253
954.794921875	0	taste	response	2	100	40	foodImage.76	FOODEEG_Images\0766.jpg	YN	Right	No	1.75923499977216	0	488856	235
955.83984375	1	health	trialStart	2	101	41	foodImage.1	FOODEEG_Images\0004.jpg	YN	Right	No	1.05348729994148	0	489391	251
956.880859375	2	health	foodImageDisplay	2	101	41	foodImage.1	FOODEEG_Images\0004.jpg	YN	Right	No	1.05348729994148	0	489924	252
958.943359375	1.05348729994148	health	choicePhaseStart	2	101	41	foodImage.1	FOODEEG_Images\0004.jpg	YN	Right	No	1.05348729994148	0	490980	253
959.986328125	0	health	response	2	101	41	foodImage.1	FOODEEG_Images\0004.jpg	YN	Right	No	1.05348729994148	0	491514	235
961.029296875	1	health	trialStart	2	102	42	foodImage.6	FOODEEG_Images\0113.jpg	NY	Left	No	1.24515370000154	0	492048	251
962.072265625	2	health	foodImageDisplay	2	102	42	foodImage.6	FOODEEG_Images\0113.jpg	NY	Left	No	1.24515370000154	0	492582	252
964.134765625	1.24515370000154	health	choicePhaseStart	2	102	42	foodImage.6	FOODEEG_Images\0113.jpg	NY	Left	No	1.24515370000154	0	493638	253
965.37109375	0	health	response	2	102	42	foodImage.6	FOODEEG_Images\0113.jpg	NY	Left	No	1.24515370000154	0	494271	234
966.4140625	1	taste	trialStart	2	103	43	foodImage.100	FOODEEG_Images\0908.jpg	NY	Right	Yes	1.24659960018471	0	494805	251
967.455078125	2	taste	foodImageDisplay	2	103	43	foodImage.100	FOODEEG_Images\0908.jpg	NY	Right	Yes	1.24659960018471	0	495338	252
969.517578125	1.24659960018471	taste	choicePhaseStart	2	103	43	foodImage.100	FOODEEG_Images\0908.jpg	NY	Right	Yes	1.24659960018471	0	496394	253
970.75390625	0	taste	response	2	103	43	foodImage.100	FOODEEG_Images\0908.jpg	NY	Right	Yes	1.24659960018471	0	497027	235
971.796875	1	taste	trialStart	2	104	44	foodImage.34	FOODEEG_Images\0339.jpg	NY	Right	Yes	0.685808700043708	0	497561	251
972.853515625	2	taste	foodImageDisplay	2	104	44	foodImage.34	FOODEEG_Images\0339.jpg	NY	Right	Yes	0.685808700043708	0	498102	252
974.916015625	0.685808700043708	taste	choicePhaseStart	2	104	44	foodImage.34	FOODEEG_Images\0339.jpg	NY	Right	Yes	0.685808700043708	0	499158	253
975.59375	0	taste	response	2	104	44	foodImage.34	FOODEEG_Images\0339.jpg	NY	Right	Yes	0.685808700043708	0	499505	235
976.63671875	1	health	trialStart	2	105	45	foodImage.102	FOODEEG_Images\0910.jpg	YN	Left	Yes	1.01464759977534	0	500039	251
977.67578125	2	health	foodImageDisplay	2	105	45	foodImage.102	FOODEEG_Images\0910.jpg	YN	Left	Yes	1.01464759977534	0	500571	252
979.740234375	1.01464759977534	health	choicePhaseStart	2	105	45	foodImage.102	FOODEEG_Images\0910.jpg	YN	Left	Yes	1.01464759977534	0	501628	253
980.74609375	0	health	response	2	105	45	foodImage.102	FOODEEG_Images\0910.jpg	YN	Left	Yes	1.01464759977534	0	502143	234
981.7890625	1	health	trialStart	2	106	46	foodImage.24	FOODEEG_Images\0250.jpg	YN	Left	Yes	1.2694581001997	0	502677	251
982.830078125	2	health	foodImageDisplay	2	106	46	foodImage.24	FOODEEG_Images\0250.jpg	YN	Left	Yes	1.2694581001997	0	503210	252
984.892578125	1.2694581001997	health	choicePhaseStart	2	106	46	foodImage.24	FOODEEG_Images\0250.jpg	YN	Left	Yes	1.2694581001997	0	504266	253
986.154296875	0	health	response	2	106	46	foodImage.24	FOODEEG_Images\0250.jpg	YN	Left	Yes	1.2694581001997	0	504912	234
987.19921875	1	decision	trialStart	2	107	47	foodImage.82	FOODEEG_Images\0805.jpg	YN	Right	No	3.33114030025899	0	505447	251
988.263671875	2	decision	foodImageDisplay	2	107	47	foodImage.82	FOODEEG_Images\0805.jpg	YN	Right	No	3.33114030025899	0	505992	252
990.328125	3.33114030025899	decision	choicePhaseStart	2	107	47	foodImage.82	FOODEEG_Images\0805.jpg	YN	Right	No	3.33114030025899	0	507049	253
993.650390625	0	decision	response	2	107	47	foodImage.82	FOODEEG_Images\0805.jpg	YN	Right	No	3.33114030025899	0	508750	235
994.693359375	1	taste	trialStart	2	108	48	foodImage.26	FOODEEG_Images\0262.jpg	YN	Left	Yes	1.79885970009491	0	509284	251
995.734375	2	taste	foodImageDisplay	2	108	48	foodImage.26	FOODEEG_Images\0262.jpg	YN	Left	Yes	1.79885970009491	0	509817	252
997.796875	1.79885970009491	taste	choicePhaseStart	2	108	48	foodImage.26	FOODEEG_Images\0262.jpg	YN	Left	Yes	1.79885970009491	0	510873	253
999.5859375	0	taste	response	2	108	48	foodImage.26	FOODEEG_Images\0262.jpg	YN	Left	Yes	1.79885970009491	0	511789	234
1000.626953125	1	health	trialStart	2	109	49	foodImage.116	FOODEEG_Images\0924.jpg	YN	Left	Yes	3.00703529966995	0	512322	251
1001.671875	2	health	foodImageDisplay	2	109	49	foodImage.116	FOODEEG_Images\0924.jpg	YN	Left	Yes	3.00703529966995	0	512857	252
1003.73828125	3.00703529966995	health	choicePhaseStart	2	109	49	foodImage.116	FOODEEG_Images\0924.jpg	YN	Left	Yes	3.00703529966995	0	513915	253
1006.73828125	0	health	response	2	109	49	foodImage.116	FOODEEG_Images\0924.jpg	YN	Left	Yes	3.00703529966995	0	515451	234
1007.78125	1	health	trialStart	2	110	50	foodImage.9	FOODEEG_Images\0138.jpg	NY	Left	No	1.15660799993202	0	515985	251
1008.85546875	2	health	foodImageDisplay	2	110	50	foodImage.9	FOODEEG_Images\0138.jpg	NY	Left	No	1.15660799993202	0	516535	252
1010.916015625	1.15660799993202	health	choicePhaseStart	2	110	50	foodImage.9	FOODEEG_Images\0138.jpg	NY	Left	No	1.15660799993202	0	517590	253
1012.064453125	0	health	response	2	110	50	foodImage.9	FOODEEG_Images\0138.jpg	NY	Left	No	1.15660799993202	0	518178	234
1013.10546875	1	decision	trialStart	2	111	51	foodImage.5	FOODEEG_Images\0107.jpg	NY	Right	Yes	1.49068799987435	0	518711	251
1014.16015625	2	decision	foodImageDisplay	2	111	51	foodImage.5	FOODEEG_Images\0107.jpg	NY	Right	Yes	1.49068799987435	0	519251	252
1016.22265625	1.49068799987435	decision	choicePhaseStart	2	111	51	foodImage.5	FOODEEG_Images\0107.jpg	NY	Right	Yes	1.49068799987435	0	520307	253
1017.705078125	0	decision	response	2	111	51	foodImage.5	FOODEEG_Images\0107.jpg	NY	Right	Yes	1.49068799987435	0	521066	235
1018.748046875	1	health	trialStart	2	112	52	foodImage.13	FOODEEG_Images\0183.jpg	YN	Left	Yes	1.72717810003087	0	521600	251
1019.796875	2	health	foodImageDisplay	2	112	52	foodImage.13	FOODEEG_Images\0183.jpg	YN	Left	Yes	1.72717810003087	0	522137	252
1021.859375	1.72717810003087	health	choicePhaseStart	2	112	52	foodImage.13	FOODEEG_Images\0183.jpg	YN	Left	Yes	1.72717810003087	0	523193	253
1023.576171875	0	health	response	2	112	52	foodImage.13	FOODEEG_Images\0183.jpg	YN	Left	Yes	1.72717810003087	0	524072	234
1024.619140625	1	health	trialStart	2	113	53	foodImage.84	FOODEEG_Images\0830.jpg	YN	Left	Yes	1.19571410026401	0	524606	251
1025.6796875	2	health	foodImageDisplay	2	113	53	foodImage.84	FOODEEG_Images\0830.jpg	YN	Left	Yes	1.19571410026401	0	525149	252
1027.7421875	1.19571410026401	health	choicePhaseStart	2	113	53	foodImage.84	FOODEEG_Images\0830.jpg	YN	Left	Yes	1.19571410026401	0	526205	253
1028.927734375	0	health	response	2	113	53	foodImage.84	FOODEEG_Images\0830.jpg	YN	Left	Yes	1.19571410026401	0	526812	234
1029.970703125	1	health	trialStart	2	114	54	foodImage.105	FOODEEG_Images\0913.jpg	YN	Left	Yes	1.68933370010927	0	527346	251
1031.02734375	2	health	foodImageDisplay	2	114	54	foodImage.105	FOODEEG_Images\0913.jpg	YN	Left	Yes	1.68933370010927	0	527887	252
1033.095703125	1.68933370010927	health	choicePhaseStart	2	114	54	foodImage.105	FOODEEG_Images\0913.jpg	YN	Left	Yes	1.68933370010927	0	528946	253
1034.775390625	0	health	response	2	114	54	foodImage.105	FOODEEG_Images\0913.jpg	YN	Left	Yes	1.68933370010927	0	529806	234
1035.818359375	1	health	trialStart	2	115	55	foodImage.53	FOODEEG_Images\0547.jpg	YN	Right	No	0.511518100276589	0	530340	251
1036.87890625	2	health	foodImageDisplay	2	115	55	foodImage.53	FOODEEG_Images\0547.jpg	YN	Right	No	0.511518100276589	0	530883	252
1038.943359375	0.511518100276589	health	choicePhaseStart	2	115	55	foodImage.53	FOODEEG_Images\0547.jpg	YN	Right	No	0.511518100276589	0	531940	253
1039.447265625	0	health	response	2	115	55	foodImage.53	FOODEEG_Images\0547.jpg	YN	Right	No	0.511518100276589	0	532198	235
1040.48828125	1	taste	trialStart	2	116	56	foodImage.117	FOODEEG_Images\0925.jpg	NY	Right	Yes	2.58913849992678	0	532731	251
1041.525390625	2	taste	foodImageDisplay	2	116	56	foodImage.117	FOODEEG_Images\0925.jpg	NY	Right	Yes	2.58913849992678	0	533262	252
1043.587890625	2.58913849992678	taste	choicePhaseStart	2	116	56	foodImage.117	FOODEEG_Images\0925.jpg	NY	Right	Yes	2.58913849992678	0	534318	253
1046.16796875	0	taste	response	2	116	56	foodImage.117	FOODEEG_Images\0925.jpg	NY	Right	Yes	2.58913849992678	0	535639	235
1047.2109375	1	taste	trialStart	2	117	57	foodImage.45	FOODEEG_Images\0478.jpg	YN	Left	Yes	1.02848959993571	0	536173	251
1048.25390625	2	taste	foodImageDisplay	2	117	57	foodImage.45	FOODEEG_Images\0478.jpg	YN	Left	Yes	1.02848959993571	0	536707	252
1050.31640625	1.02848959993571	taste	choicePhaseStart	2	117	57	foodImage.45	FOODEEG_Images\0478.jpg	YN	Left	Yes	1.02848959993571	0	537763	253
1051.3359375	0	taste	response	2	117	57	foodImage.45	FOODEEG_Images\0478.jpg	YN	Left	Yes	1.02848959993571	0	538285	234
1052.376953125	1	decision	trialStart	2	118	58	foodImage.40	FOODEEG_Images\0373.jpg	YN	Left	Yes	0.894675999879837	0	538818	251
1053.419921875	2	decision	foodImageDisplay	2	118	58	foodImage.40	FOODEEG_Images\0373.jpg	YN	Left	Yes	0.894675999879837	0	539352	252
1055.48828125	0.894675999879837	decision	choicePhaseStart	2	118	58	foodImage.40	FOODEEG_Images\0373.jpg	YN	Left	Yes	0.894675999879837	0	540411	253
1056.375	0	decision	response	2	118	58	foodImage.40	FOODEEG_Images\0373.jpg	YN	Left	Yes	0.894675999879837	0	540865	234
1057.423828125	1	health	trialStart	2	119	59	foodImage.64	FOODEEG_Images\0647.jpg	NY	Right	Yes	1.04959760000929	0	541402	251
1058.498046875	2	health	foodImageDisplay	2	119	59	foodImage.64	FOODEEG_Images\0647.jpg	NY	Right	Yes	1.04959760000929	0	541952	252
1060.560546875	1.04959760000929	health	choicePhaseStart	2	119	59	foodImage.64	FOODEEG_Images\0647.jpg	NY	Right	Yes	1.04959760000929	0	543008	253
1061.599609375	0	health	response	2	119	59	foodImage.64	FOODEEG_Images\0647.jpg	NY	Right	Yes	1.04959760000929	0	543540	235
1062.64453125	1	taste	trialStart	2	120	60	foodImage.84	FOODEEG_Images\0830.jpg	YN	Left	Yes	0.886807600036263	0	544075	251
1063.70703125	2	taste	foodImageDisplay	2	120	60	foodImage.84	FOODEEG_Images\0830.jpg	YN	Left	Yes	0.886807600036263	0	544619	252
1065.76953125	0.886807600036263	taste	choicePhaseStart	2	120	60	foodImage.84	FOODEEG_Images\0830.jpg	YN	Left	Yes	0.886807600036263	0	545675	253
1066.646484375	0	taste	response	2	120	60	foodImage.84	FOODEEG_Images\0830.jpg	YN	Left	Yes	0.886807600036263	0	546124	234
1068.69140625	42.35546875	n/a	blockEnd	n/a	n/a	n/a	n/a	n/a	n/a	n/a	n/a	n/a	n/a	547171	254
1111.046875	2	n/a	blockStart	3	n/a	n/a	n/a	n/a	n/a	n/a	n/a	n/a	n/a	568857	250
1113.078125	1	decision	trialStart	3	121	1	foodImage.118	FOODEEG_Images\0926.jpg	NY	Right	Yes	1.2473732996732	0	569897	251
1114.119140625	2	decision	foodImageDisplay	3	121	1	foodImage.118	FOODEEG_Images\0926.jpg	NY	Right	Yes	1.2473732996732	0	570430	252
1116.18359375	1.2473732996732	decision	choicePhaseStart	3	121	1	foodImage.118	FOODEEG_Images\0926.jpg	NY	Right	Yes	1.2473732996732	0	571487	253
1117.421875	0	decision	response	3	121	1	foodImage.118	FOODEEG_Images\0926.jpg	NY	Right	Yes	1.2473732996732	0	572121	235
1118.46484375	1	health	trialStart	3	122	2	foodImage.74	FOODEEG_Images\0752.jpg	YN	Left	Yes	1.04208170017228	0	572655	251
1119.509765625	2	health	foodImageDisplay	3	122	2	foodImage.74	FOODEEG_Images\0752.jpg	YN	Left	Yes	1.04208170017228	0	573190	252
1121.5703125	1.04208170017228	health	choicePhaseStart	3	122	2	foodImage.74	FOODEEG_Images\0752.jpg	YN	Left	Yes	1.04208170017228	0	574245	253
1122.60546875	0	health	response	3	122	2	foodImage.74	FOODEEG_Images\0752.jpg	YN	Left	Yes	1.04208170017228	0	574775	234
1123.6484375	1	taste	trialStart	3	123	3	foodImage.79	FOODEEG_Images\0794.jpg	NY	Right	Yes	2.02818749984726	0	575309	251
1124.693359375	2	taste	foodImageDisplay	3	123	3	foodImage.79	FOODEEG_Images\0794.jpg	NY	Right	Yes	2.02818749984726	0	575844	252
1126.75390625	2.02818749984726	taste	choicePhaseStart	3	123	3	foodImage.79	FOODEEG_Images\0794.jpg	NY	Right	Yes	2.02818749984726	0	576899	253
1128.7734375	0	taste	response	3	123	3	foodImage.79	FOODEEG_Images\0794.jpg	NY	Right	Yes	2.02818749984726	0	577933	235
1129.8125	1	taste	trialStart	3	124	4	foodImage.29	FOODEEG_Images\0278.jpg	NY	Left	No	2.1528779999353	0	578465	251
1130.8515625	2	taste	foodImageDisplay	3	124	4	foodImage.29	FOODEEG_Images\0278.jpg	NY	Left	No	2.1528779999353	0	578997	252
1132.9140625	2.1528779999353	taste	choicePhaseStart	3	124	4	foodImage.29	FOODEEG_Images\0278.jpg	NY	Left	No	2.1528779999353	0	580053	253
1135.060546875	0	taste	response	3	124	4	foodImage.29	FOODEEG_Images\0278.jpg	NY	Left	No	2.1528779999353	0	581152	234
1136.1015625	1	taste	trialStart	3	125	5	foodImage.114	FOODEEG_Images\0922.jpg	NY	Right	Yes	0.692591699771583	0	581685	251
1137.146484375	2	taste	foodImageDisplay	3	125	5	foodImage.114	FOODEEG_Images\0922.jpg	NY	Right	Yes	0.692591699771583	0	582220	252
1139.208984375	0.692591699771583	taste	choicePhaseStart	3	125	5	foodImage.114	FOODEEG_Images\0922.jpg	NY	Right	Yes	0.692591699771583	0	583276	253
1139.892578125	0	taste	response	3	125	5	foodImage.114	FOODEEG_Images\0922.jpg	NY	Right	Yes	0.692591699771583	0	583626	235
1140.931640625	1	health	trialStart	3	126	6	foodImage.67	FOODEEG_Images\0679.jpg	YN	Left	Yes	1.43456290010363	0	584158	251
1141.98828125	2	health	foodImageDisplay	3	126	6	foodImage.67	FOODEEG_Images\0679.jpg	YN	Left	Yes	1.43456290010363	0	584699	252
1144.05078125	1.43456290010363	health	choicePhaseStart	3	126	6	foodImage.67	FOODEEG_Images\0679.jpg	YN	Left	Yes	1.43456290010363	0	585755	253
1145.4765625	0	health	response	3	126	6	foodImage.67	FOODEEG_Images\0679.jpg	YN	Left	Yes	1.43456290010363	0	586485	234
1146.521484375	1	taste	trialStart	3	127	7	foodImage.103	FOODEEG_Images\0911.jpg	NY	Left	No	1.45381190022454	0	587020	251
1147.55859375	2	taste	foodImageDisplay	3	127	7	foodImage.103	FOODEEG_Images\0911.jpg	NY	Left	No	1.45381190022454	0	587551	252
1149.623046875	1.45381190022454	taste	choicePhaseStart	3	127	7	foodImage.103	FOODEEG_Images\0911.jpg	NY	Left	No	1.45381190022454	0	588608	253
1151.068359375	0	taste	response	3	127	7	foodImage.103	FOODEEG_Images\0911.jpg	NY	Left	No	1.45381190022454	0	589348	234
1152.107421875	1	health	trialStart	3	128	8	foodImage.51	FOODEEG_Images\0536.jpg	YN	Right	No	0.978947500232607	0	589880	251
1153.154296875	2	health	foodImageDisplay	3	128	8	foodImage.51	FOODEEG_Images\0536.jpg	YN	Right	No	0.978947500232607	0	590416	252
1155.216796875	0.978947500232607	health	choicePhaseStart	3	128	8	foodImage.51	FOODEEG_Images\0536.jpg	YN	Right	No	0.978947500232607	0	591472	253
1156.1875	0	health	response	3	128	8	foodImage.51	FOODEEG_Images\0536.jpg	YN	Right	No	0.978947500232607	0	591969	235
1157.23046875	1	decision	trialStart	3	129	9	foodImage.37	FOODEEG_Images\0359.jpg	NY	Left	No	1.2789893001318	0	592503	251
1158.271484375	2	decision	foodImageDisplay	3	129	9	foodImage.37	FOODEEG_Images\0359.jpg	NY	Left	No	1.2789893001318	0	593036	252
1160.33203125	1.2789893001318	decision	choicePhaseStart	3	129	9	foodImage.37	FOODEEG_Images\0359.jpg	NY	Left	No	1.2789893001318	0	594091	253
1161.603515625	0	decision	response	3	129	9	foodImage.37	FOODEEG_Images\0359.jpg	NY	Left	No	1.2789893001318	0	594742	234
1162.646484375	1	health	trialStart	3	130	10	foodImage.33	FOODEEG_Images\0329.jpg	YN	Left	Yes	0.678009599912912	0	595276	251
1163.697265625	2	health	foodImageDisplay	3	130	10	foodImage.33	FOODEEG_Images\0329.jpg	YN	Left	Yes	0.678009599912912	0	595814	252
1165.759765625	0.678009599912912	health	choicePhaseStart	3	130	10	foodImage.33	FOODEEG_Images\0329.jpg	YN	Left	Yes	0.678009599912912	0	596870	253
1166.427734375	0	health	response	3	130	10	foodImage.33	FOODEEG_Images\0329.jpg	YN	Left	Yes	0.678009599912912	0	597212	234
1167.470703125	1	health	trialStart	3	131	11	foodImage.88	FOODEEG_Images\0878.jpg	YN	Right	No	0.997265299782157	0	597746	251
1168.52734375	2	health	foodImageDisplay	3	131	11	foodImage.88	FOODEEG_Images\0878.jpg	YN	Right	No	0.997265299782157	0	598287	252
1170.58984375	0.997265299782157	health	choicePhaseStart	3	131	11	foodImage.88	FOODEEG_Images\0878.jpg	YN	Right	No	0.997265299782157	0	599343	253
1171.578125	0	health	response	3	131	11	foodImage.88	FOODEEG_Images\0878.jpg	YN	Right	No	0.997265299782157	0	599849	235
1172.62109375	1	health	trialStart	3	132	12	foodImage.120	FOODEEG_Images\0928.jpg	NY	Right	Yes	0.6507702996023	0	600383	251
1173.658203125	2	health	foodImageDisplay	3	132	12	foodImage.120	FOODEEG_Images\0928.jpg	NY	Right	Yes	0.6507702996023	0	600914	252
1175.720703125	0.6507702996023	health	choicePhaseStart	3	132	12	foodImage.120	FOODEEG_Images\0928.jpg	NY	Right	Yes	0.6507702996023	0	601970	253
1176.36328125	0	health	response	3	132	12	foodImage.120	FOODEEG_Images\0928.jpg	NY	Right	Yes	0.6507702996023	0	602299	235
1177.404296875	1	taste	trialStart	3	133	13	foodImage.55	FOODEEG_Images\0567.jpg	NY	Right	Yes	0.810258300043643	0	602832	251
1178.482421875	2	taste	foodImageDisplay	3	133	13	foodImage.55	FOODEEG_Images\0567.jpg	NY	Right	Yes	0.810258300043643	0	603384	252
1180.544921875	0.810258300043643	taste	choicePhaseStart	3	133	13	foodImage.55	FOODEEG_Images\0567.jpg	NY	Right	Yes	0.810258300043643	0	604440	253
1181.345703125	0	taste	response	3	133	13	foodImage.55	FOODEEG_Images\0567.jpg	NY	Right	Yes	0.810258300043643	0	604850	235
1182.388671875	1	taste	trialStart	3	134	14	foodImage.81	FOODEEG_Images\0797.jpg	YN	Left	Yes	0.9390429998748	0	605384	251
1183.451171875	2	taste	foodImageDisplay	3	134	14	foodImage.81	FOODEEG_Images\0797.jpg	YN	Left	Yes	0.9390429998748	0	605928	252
1185.513671875	0.9390429998748	taste	choicePhaseStart	3	134	14	foodImage.81	FOODEEG_Images\0797.jpg	YN	Left	Yes	0.9390429998748	0	606984	253
1186.44140625	0	taste	response	3	134	14	foodImage.81	FOODEEG_Images\0797.jpg	YN	Left	Yes	0.9390429998748	0	607459	234
1187.484375	1	health	trialStart	3	135	15	foodImage.63	FOODEEG_Images\0645.jpg	YN	Left	Yes	2.93547850009054	0	607993	251
1188.525390625	2	health	foodImageDisplay	3	135	15	foodImage.63	FOODEEG_Images\0645.jpg	YN	Left	Yes	2.93547850009054	0	608526	252
1190.587890625	2.93547850009054	health	choicePhaseStart	3	135	15	foodImage.63	FOODEEG_Images\0645.jpg	YN	Left	Yes	2.93547850009054	0	609582	253
1193.513671875	0	health	response	3	135	15	foodImage.63	FOODEEG_Images\0645.jpg	YN	Left	Yes	2.93547850009054	0	611080	234
1194.556640625	1	health	trialStart	3	136	16	foodImage.41	FOODEEG_Images\0409.jpg	YN	Left	Yes	1.01202889997512	0	611614	251
1195.6015625	2	health	foodImageDisplay	3	136	16	foodImage.41	FOODEEG_Images\0409.jpg	YN	Left	Yes	1.01202889997512	0	612149	252
1197.6640625	1.01202889997512	health	choicePhaseStart	3	136	16	foodImage.41	FOODEEG_Images\0409.jpg	YN	Left	Yes	1.01202889997512	0	613205	253
1198.666015625	0	health	response	3	136	16	foodImage.41	FOODEEG_Images\0409.jpg	YN	Left	Yes	1.01202889997512	0	613718	234
1199.708984375	1	decision	trialStart	3	137	17	foodImage.77	FOODEEG_Images\0771.jpg	NY	Right	Yes	0.858910799957812	0	614252	251
1200.75390625	2	decision	foodImageDisplay	3	137	17	foodImage.77	FOODEEG_Images\0771.jpg	NY	Right	Yes	0.858910799957812	0	614787	252
1202.81640625	0.858910799957812	decision	choicePhaseStart	3	137	17	foodImage.77	FOODEEG_Images\0771.jpg	NY	Right	Yes	0.858910799957812	0	615843	253
1203.666015625	0	decision	response	3	137	17	foodImage.77	FOODEEG_Images\0771.jpg	NY	Right	Yes	0.858910799957812	0	616278	235
1204.70703125	1	taste	trialStart	3	138	18	foodImage.108	FOODEEG_Images\0916.jpg	NY	Left	No	1.32095580035821	0	616811	251
1205.74609375	2	taste	foodImageDisplay	3	138	18	foodImage.108	FOODEEG_Images\0916.jpg	NY	Left	No	1.32095580035821	0	617343	252
1207.80859375	1.32095580035821	taste	choicePhaseStart	3	138	18	foodImage.108	FOODEEG_Images\0916.jpg	NY	Left	No	1.32095580035821	0	618399	253
1209.12109375	0	taste	response	3	138	18	foodImage.108	FOODEEG_Images\0916.jpg	NY	Left	No	1.32095580035821	0	619071	234
1210.1640625	1	taste	trialStart	3	139	19	foodImage.105	FOODEEG_Images\0913.jpg	NY	Left	No	0.841828600037843	0	619605	251
1211.19921875	2	taste	foodImageDisplay	3	139	19	foodImage.105	FOODEEG_Images\0913.jpg	NY	Left	No	0.841828600037843	0	620135	252
1213.263671875	0.841828600037843	taste	choicePhaseStart	3	139	19	foodImage.105	FOODEEG_Images\0913.jpg	NY	Left	No	0.841828600037843	0	621192	253
1214.09765625	0	taste	response	3	139	19	foodImage.105	FOODEEG_Images\0913.jpg	NY	Left	No	0.841828600037843	0	621619	234
1215.140625	1	taste	trialStart	3	140	20	foodImage.111	FOODEEG_Images\0919.jpg	YN	Right	No	1.83313179994002	0	622153	251
1216.1796875	2	taste	foodImageDisplay	3	140	20	foodImage.111	FOODEEG_Images\0919.jpg	YN	Right	No	1.83313179994002	0	622685	252
1218.240234375	1.83313179994002	taste	choicePhaseStart	3	140	20	foodImage.111	FOODEEG_Images\0919.jpg	YN	Right	No	1.83313179994002	0	623740	253
1220.064453125	0	taste	response	3	140	20	foodImage.111	FOODEEG_Images\0919.jpg	YN	Right	No	1.83313179994002	0	624674	235
1221.107421875	1	health	trialStart	3	141	21	foodImage.45	FOODEEG_Images\0478.jpg	YN	Left	Yes	0.832464099861681	0	625208	251
1222.154296875	2	health	foodImageDisplay	3	141	21	foodImage.45	FOODEEG_Images\0478.jpg	YN	Left	Yes	0.832464099861681	0	625744	252
1224.216796875	0.832464099861681	health	choicePhaseStart	3	141	21	foodImage.45	FOODEEG_Images\0478.jpg	YN	Left	Yes	0.832464099861681	0	626800	253
1225.041015625	0	health	response	3	141	21	foodImage.45	FOODEEG_Images\0478.jpg	YN	Left	Yes	0.832464099861681	0	627222	234
1226.083984375	1	taste	trialStart	3	142	22	foodImage.60	FOODEEG_Images\0614.jpg	NY	Right	Yes	0.553284599911422	0	627756	251
1227.146484375	2	taste	foodImageDisplay	3	142	22	foodImage.60	FOODEEG_Images\0614.jpg	NY	Right	Yes	0.553284599911422	0	628300	252
1229.208984375	0.553284599911422	taste	choicePhaseStart	3	142	22	foodImage.60	FOODEEG_Images\0614.jpg	NY	Right	Yes	0.553284599911422	0	629356	253
1229.751953125	0	taste	response	3	142	22	foodImage.60	FOODEEG_Images\0614.jpg	NY	Right	Yes	0.553284599911422	0	629634	235
1230.796875	1	taste	trialStart	3	143	23	foodImage.68	FOODEEG_Images\0685.jpg	NY	Right	Yes	0.636214800179005	0	630169	251
1231.888671875	2	taste	foodImageDisplay	3	143	23	foodImage.68	FOODEEG_Images\0685.jpg	NY	Right	Yes	0.636214800179005	0	630728	252
1233.951171875	0.636214800179005	taste	choicePhaseStart	3	143	23	foodImage.68	FOODEEG_Images\0685.jpg	NY	Right	Yes	0.636214800179005	0	631784	253
1234.576171875	0	taste	response	3	143	23	foodImage.68	FOODEEG_Images\0685.jpg	NY	Right	Yes	0.636214800179005	0	632104	235
1235.619140625	1	taste	trialStart	3	144	24	foodImage.3	FOODEEG_Images\0046.jpg	NY	Right	Yes	0.586594799999148	0	632638	251
1236.669921875	2	taste	foodImageDisplay	3	144	24	foodImage.3	FOODEEG_Images\0046.jpg	NY	Right	Yes	0.586594799999148	0	633176	252
1238.734375	0.586594799999148	taste	choicePhaseStart	3	144	24	foodImage.3	FOODEEG_Images\0046.jpg	NY	Right	Yes	0.586594799999148	0	634233	253
1239.3125	0	taste	response	3	144	24	foodImage.3	FOODEEG_Images\0046.jpg	NY	Right	Yes	0.586594799999148	0	634529	235
1240.35546875	1	health	trialStart	3	145	25	foodImage.25	FOODEEG_Images\0261.jpg	NY	Right	Yes	1.28958219988272	0	635063	251
1241.40234375	2	health	foodImageDisplay	3	145	25	foodImage.25	FOODEEG_Images\0261.jpg	NY	Right	Yes	1.28958219988272	0	635599	252
1243.462890625	1.28958219988272	health	choicePhaseStart	3	145	25	foodImage.25	FOODEEG_Images\0261.jpg	NY	Right	Yes	1.28958219988272	0	636654	253
1244.744140625	0	health	response	3	145	25	foodImage.25	FOODEEG_Images\0261.jpg	NY	Right	Yes	1.28958219988272	0	637310	235
1245.787109375	1	taste	trialStart	3	146	26	foodImage.109	FOODEEG_Images\0917.jpg	YN	Left	Yes	2.61617789976299	0	637844	251
1246.826171875	2	taste	foodImageDisplay	3	146	26	foodImage.109	FOODEEG_Images\0917.jpg	YN	Left	Yes	2.61617789976299	0	638376	252
1248.888671875	2.61617789976299	taste	choicePhaseStart	3	146	26	foodImage.109	FOODEEG_Images\0917.jpg	YN	Left	Yes	2.61617789976299	0	639432	253
1251.49609375	0	taste	response	3	146	26	foodImage.109	FOODEEG_Images\0917.jpg	YN	Left	Yes	2.61617789976299	0	640767	234
1252.537109375	1	decision	trialStart	3	147	27	foodImage.104	FOODEEG_Images\0912.jpg	NY	Right	Yes	0.797020200174302	0	641300	251
1253.57421875	2	decision	foodImageDisplay	3	147	27	foodImage.104	FOODEEG_Images\0912.jpg	NY	Right	Yes	0.797020200174302	0	641831	252
1255.634765625	0.797020200174302	decision	choicePhaseStart	3	147	27	foodImage.104	FOODEEG_Images\0912.jpg	NY	Right	Yes	0.797020200174302	0	642886	253
1256.423828125	0	decision	response	3	147	27	foodImage.104	FOODEEG_Images\0912.jpg	NY	Right	Yes	0.797020200174302	0	643290	235
1257.466796875	1	health	trialStart	3	148	28	foodImage.90	FOODEEG_Images\0890.jpg	YN	Left	Yes	2.4863650999032	0	643824	251
1258.525390625	2	health	foodImageDisplay	3	148	28	foodImage.90	FOODEEG_Images\0890.jpg	YN	Left	Yes	2.4863650999032	0	644366	252
1260.587890625	2.4863650999032	health	choicePhaseStart	3	148	28	foodImage.90	FOODEEG_Images\0890.jpg	YN	Left	Yes	2.4863650999032	0	645422	253
1263.0625	0	health	response	3	148	28	foodImage.90	FOODEEG_Images\0890.jpg	YN	Left	Yes	2.4863650999032	0	646689	234
1264.10546875	1	decision	trialStart	3	149	29	foodImage.23	FOODEEG_Images\0244.jpg	NY	Right	Yes	1.21805940009654	0	647223	251
1265.150390625	2	decision	foodImageDisplay	3	149	29	foodImage.23	FOODEEG_Images\0244.jpg	NY	Right	Yes	1.21805940009654	0	647758	252
1267.212890625	1.21805940009654	decision	choicePhaseStart	3	149	29	foodImage.23	FOODEEG_Images\0244.jpg	NY	Right	Yes	1.21805940009654	0	648814	253
1268.423828125	0	decision	response	3	149	29	foodImage.23	FOODEEG_Images\0244.jpg	NY	Right	Yes	1.21805940009654	0	649434	235
1269.46875	1	decision	trialStart	3	150	30	foodImage.50	FOODEEG_Images\0529.jpg	YN	Left	Yes	0.931519899982959	0	649969	251
1270.52734375	2	decision	foodImageDisplay	3	150	30	foodImage.50	FOODEEG_Images\0529.jpg	YN	Left	Yes	0.931519899982959	0	650511	252
1272.58984375	0.931519899982959	decision	choicePhaseStart	3	150	30	foodImage.50	FOODEEG_Images\0529.jpg	YN	Left	Yes	0.931519899982959	0	651567	253
1273.51171875	0	decision	response	3	150	30	foodImage.50	FOODEEG_Images\0529.jpg	YN	Left	Yes	0.931519899982959	0	652039	234
1274.5546875	1	decision	trialStart	3	151	31	foodImage.10	FOODEEG_Images\0145.jpg	YN	Left	Yes	0.692883200012147	0	652573	251
1275.623046875	2	decision	foodImageDisplay	3	151	31	foodImage.10	FOODEEG_Images\0145.jpg	YN	Left	Yes	0.692883200012147	0	653120	252
1277.68359375	0.692883200012147	decision	choicePhaseStart	3	151	31	foodImage.10	FOODEEG_Images\0145.jpg	YN	Left	Yes	0.692883200012147	0	654175	253
1278.3671875	0	decision	response	3	151	31	foodImage.10	FOODEEG_Images\0145.jpg	YN	Left	Yes	0.692883200012147	0	654525	234
1279.41015625	1	taste	trialStart	3	152	32	foodImage.21	FOODEEG_Images\0234.jpg	NY	Right	Yes	1.03912479989231	0	655059	251
1280.466796875	2	taste	foodImageDisplay	3	152	32	foodImage.21	FOODEEG_Images\0234.jpg	NY	Right	Yes	1.03912479989231	0	655600	252
1282.529296875	1.03912479989231	taste	choicePhaseStart	3	152	32	foodImage.21	FOODEEG_Images\0234.jpg	NY	Right	Yes	1.03912479989231	0	656656	253
1283.55859375	0	taste	response	3	152	32	foodImage.21	FOODEEG_Images\0234.jpg	NY	Right	Yes	1.03912479989231	0	657183	235
1284.603515625	1	decision	trialStart	3	153	33	foodImage.55	FOODEEG_Images\0567.jpg	NY	Right	Yes	0.901473799720407	0	657718	251
1285.658203125	2	decision	foodImageDisplay	3	153	33	foodImage.55	FOODEEG_Images\0567.jpg	NY	Right	Yes	0.901473799720407	0	658258	252
1287.720703125	0.901473799720407	decision	choicePhaseStart	3	153	33	foodImage.55	FOODEEG_Images\0567.jpg	NY	Right	Yes	0.901473799720407	0	659314	253
1288.615234375	0	decision	response	3	153	33	foodImage.55	FOODEEG_Images\0567.jpg	NY	Right	Yes	0.901473799720407	0	659772	235
1289.662109375	1	health	trialStart	3	154	34	foodImage.26	FOODEEG_Images\0262.jpg	YN	Left	Yes	0.793000299949199	0	660308	251
1290.705078125	2	health	foodImageDisplay	3	154	34	foodImage.26	FOODEEG_Images\0262.jpg	YN	Left	Yes	0.793000299949199	0	660842	252
1292.765625	0.793000299949199	health	choicePhaseStart	3	154	34	foodImage.26	FOODEEG_Images\0262.jpg	YN	Left	Yes	0.793000299949199	0	661897	253
1293.55078125	0	health	response	3	154	34	foodImage.26	FOODEEG_Images\0262.jpg	YN	Left	Yes	0.793000299949199	0	662299	234
1294.59375	1	health	trialStart	3	155	35	foodImage.16	FOODEEG_Images\0196.jpg	YN	Left	Yes	1.47156539978459	0	662833	251
1295.666015625	2	health	foodImageDisplay	3	155	35	foodImage.16	FOODEEG_Images\0196.jpg	YN	Left	Yes	1.47156539978459	0	663382	252
1297.7265625	1.47156539978459	health	choicePhaseStart	3	155	35	foodImage.16	FOODEEG_Images\0196.jpg	YN	Left	Yes	1.47156539978459	0	664437	253
1299.189453125	0	health	response	3	155	35	foodImage.16	FOODEEG_Images\0196.jpg	YN	Left	Yes	1.47156539978459	0	665186	234
1300.23828125	1	decision	trialStart	3	156	36	foodImage.66	FOODEEG_Images\0676.jpg	NY	Right	Yes	0.869162499904633	0	665723	251
1301.28125	2	decision	foodImageDisplay	3	156	36	foodImage.66	FOODEEG_Images\0676.jpg	NY	Right	Yes	0.869162499904633	0	666257	252
1303.34375	0.869162499904633	decision	choicePhaseStart	3	156	36	foodImage.66	FOODEEG_Images\0676.jpg	NY	Right	Yes	0.869162499904633	0	667313	253
1304.205078125	0	decision	response	3	156	36	foodImage.66	FOODEEG_Images\0676.jpg	NY	Right	Yes	0.869162499904633	0	667754	235
1305.248046875	1	taste	trialStart	3	157	37	foodImage.33	FOODEEG_Images\0329.jpg	YN	Left	Yes	0.731484999880195	0	668288	251
1306.291015625	2	taste	foodImageDisplay	3	157	37	foodImage.33	FOODEEG_Images\0329.jpg	YN	Left	Yes	0.731484999880195	0	668822	252
1308.35546875	0.731484999880195	taste	choicePhaseStart	3	157	37	foodImage.33	FOODEEG_Images\0329.jpg	YN	Left	Yes	0.731484999880195	0	669879	253
1309.078125	0	taste	response	3	157	37	foodImage.33	FOODEEG_Images\0329.jpg	YN	Left	Yes	0.731484999880195	0	670249	234
1310.1171875	1	decision	trialStart	3	158	38	foodImage.88	FOODEEG_Images\0878.jpg	YN	Left	Yes	0.730423400178552	0	670781	251
1311.181640625	2	decision	foodImageDisplay	3	158	38	foodImage.88	FOODEEG_Images\0878.jpg	YN	Left	Yes	0.730423400178552	0	671326	252
1313.244140625	0.730423400178552	decision	choicePhaseStart	3	158	38	foodImage.88	FOODEEG_Images\0878.jpg	YN	Left	Yes	0.730423400178552	0	672382	253
1313.96484375	0	decision	response	3	158	38	foodImage.88	FOODEEG_Images\0878.jpg	YN	Left	Yes	0.730423400178552	0	672751	234
1315.0078125	1	health	trialStart	3	159	39	foodImage.30	FOODEEG_Images\0282.jpg	NY	Right	Yes	1.38327930029482	0	673285	251
1316.048828125	2	health	foodImageDisplay	3	159	39	foodImage.30	FOODEEG_Images\0282.jpg	NY	Right	Yes	1.38327930029482	0	673818	252
1318.111328125	1.38327930029482	health	choicePhaseStart	3	159	39	foodImage.30	FOODEEG_Images\0282.jpg	NY	Right	Yes	1.38327930029482	0	674874	253
1319.484375	0	health	response	3	159	39	foodImage.30	FOODEEG_Images\0282.jpg	NY	Right	Yes	1.38327930029482	0	675577	235
1320.52734375	1	decision	trialStart	3	160	40	foodImage.8	FOODEEG_Images\0136.jpg	NY	Left	No	1.25807440001518	0	676111	251
1321.568359375	2	decision	foodImageDisplay	3	160	40	foodImage.8	FOODEEG_Images\0136.jpg	NY	Left	No	1.25807440001518	0	676644	252
1323.63671875	1.25807440001518	decision	choicePhaseStart	3	160	40	foodImage.8	FOODEEG_Images\0136.jpg	NY	Left	No	1.25807440001518	0	677703	253
1324.884765625	0	decision	response	3	160	40	foodImage.8	FOODEEG_Images\0136.jpg	NY	Left	No	1.25807440001518	0	678342	234
1325.927734375	1	decision	trialStart	3	161	41	foodImage.93	FOODEEG_Images\0901.jpg	NY	Right	Yes	0.690696600358933	0	678876	251
1326.97265625	2	decision	foodImageDisplay	3	161	41	foodImage.93	FOODEEG_Images\0901.jpg	NY	Right	Yes	0.690696600358933	0	679411	252
1329.03515625	0.690696600358933	decision	choicePhaseStart	3	161	41	foodImage.93	FOODEEG_Images\0901.jpg	NY	Right	Yes	0.690696600358933	0	680467	253
1329.716796875	0	decision	response	3	161	41	foodImage.93	FOODEEG_Images\0901.jpg	NY	Right	Yes	0.690696600358933	0	680816	235
1330.759765625	1	taste	trialStart	3	162	42	foodImage.57	FOODEEG_Images\0587.jpg	NY	Right	Yes	0.722167799714953	0	681350	251
1331.822265625	2	taste	foodImageDisplay	3	162	42	foodImage.57	FOODEEG_Images\0587.jpg	NY	Right	Yes	0.722167799714953	0	681894	252
1333.884765625	0.722167799714953	taste	choicePhaseStart	3	162	42	foodImage.57	FOODEEG_Images\0587.jpg	NY	Right	Yes	0.722167799714953	0	682950	253
1334.595703125	0	taste	response	3	162	42	foodImage.57	FOODEEG_Images\0587.jpg	NY	Right	Yes	0.722167799714953	0	683314	235
1335.638671875	1	taste	trialStart	3	163	43	foodImage.53	FOODEEG_Images\0547.jpg	YN	Left	Yes	1.02369950013235	0	683848	251
1336.6953125	2	taste	foodImageDisplay	3	163	43	foodImage.53	FOODEEG_Images\0547.jpg	YN	Left	Yes	1.02369950013235	0	684389	252
1338.7578125	1.02369950013235	taste	choicePhaseStart	3	163	43	foodImage.53	FOODEEG_Images\0547.jpg	YN	Left	Yes	1.02369950013235	0	685445	253
1339.771484375	0	taste	response	3	163	43	foodImage.53	FOODEEG_Images\0547.jpg	YN	Left	Yes	1.02369950013235	0	685964	234
1340.818359375	1	health	trialStart	3	164	44	foodImage.95	FOODEEG_Images\0903.jpg	YN	Left	Yes	3.34398519992828	0	686500	251
1341.85546875	2	health	foodImageDisplay	3	164	44	foodImage.95	FOODEEG_Images\0903.jpg	YN	Left	Yes	3.34398519992828	0	687031	252
1343.91796875	3.34398519992828	health	choicePhaseStart	3	164	44	foodImage.95	FOODEEG_Images\0903.jpg	YN	Left	Yes	3.34398519992828	0	688087	253
1347.251953125	0	health	response	3	164	44	foodImage.95	FOODEEG_Images\0903.jpg	YN	Left	Yes	3.34398519992828	0	689794	234
1348.29296875	1	decision	trialStart	3	165	45	foodImage.20	FOODEEG_Images\0226.jpg	NY	Right	Yes	0.861860100179911	0	690327	251
1349.3359375	2	decision	foodImageDisplay	3	165	45	foodImage.20	FOODEEG_Images\0226.jpg	NY	Right	Yes	0.861860100179911	0	690861	252
1351.3984375	0.861860100179911	decision	choicePhaseStart	3	165	45	foodImage.20	FOODEEG_Images\0226.jpg	NY	Right	Yes	0.861860100179911	0	691917	253
1352.251953125	0	decision	response	3	165	45	foodImage.20	FOODEEG_Images\0226.jpg	NY	Right	Yes	0.861860100179911	0	692354	235
1353.29296875	1	taste	trialStart	3	166	46	foodImage.35	FOODEEG_Images\0350.jpg	NY	Right	Yes	0.787790500093251	0	692887	251
1354.33203125	2	taste	foodImageDisplay	3	166	46	foodImage.35	FOODEEG_Images\0350.jpg	NY	Right	Yes	0.787790500093251	0	693419	252
1356.392578125	0.787790500093251	taste	choicePhaseStart	3	166	46	foodImage.35	FOODEEG_Images\0350.jpg	NY	Right	Yes	0.787790500093251	0	694474	253
1357.171875	0	taste	response	3	166	46	foodImage.35	FOODEEG_Images\0350.jpg	NY	Right	Yes	0.787790500093251	0	694873	235
1358.220703125	1	taste	trialStart	3	167	47	foodImage.98	FOODEEG_Images\0906.jpg	YN	Left	Yes	1.90258170012385	0	695410	251
1359.265625	2	taste	foodImageDisplay	3	167	47	foodImage.98	FOODEEG_Images\0906.jpg	YN	Left	Yes	1.90258170012385	0	695945	252
1361.326171875	1.90258170012385	taste	choicePhaseStart	3	167	47	foodImage.98	FOODEEG_Images\0906.jpg	YN	Left	Yes	1.90258170012385	0	697000	253
1363.21875	0	taste	response	3	167	47	foodImage.98	FOODEEG_Images\0906.jpg	YN	Left	Yes	1.90258170012385	0	697969	234
1364.263671875	1	decision	trialStart	3	168	48	foodImage.25	FOODEEG_Images\0261.jpg	NY	Right	Yes	0.765690799802542	0	698504	251
1365.3046875	2	decision	foodImageDisplay	3	168	48	foodImage.25	FOODEEG_Images\0261.jpg	NY	Right	Yes	0.765690799802542	0	699037	252
1367.3671875	0.765690799802542	decision	choicePhaseStart	3	168	48	foodImage.25	FOODEEG_Images\0261.jpg	NY	Right	Yes	0.765690799802542	0	700093	253
1368.123046875	0	decision	response	3	168	48	foodImage.25	FOODEEG_Images\0261.jpg	NY	Right	Yes	0.765690799802542	0	700480	235
1369.16796875	1	health	trialStart	3	169	49	foodImage.23	FOODEEG_Images\0244.jpg	NY	Right	Yes	0.792376900091767	0	701015	251
1370.212890625	2	health	foodImageDisplay	3	169	49	foodImage.23	FOODEEG_Images\0244.jpg	NY	Right	Yes	0.792376900091767	0	701550	252
1372.275390625	0.792376900091767	health	choicePhaseStart	3	169	49	foodImage.23	FOODEEG_Images\0244.jpg	NY	Right	Yes	0.792376900091767	0	702606	253
1373.05859375	0	health	response	3	169	49	foodImage.23	FOODEEG_Images\0244.jpg	NY	Right	Yes	0.792376900091767	0	703007	235
1374.09765625	1	taste	trialStart	3	170	50	foodImage.72	FOODEEG_Images\0714.jpg	YN	Left	Yes	0.724795199930668	0	703539	251
1375.13671875	2	taste	foodImageDisplay	3	170	50	foodImage.72	FOODEEG_Images\0714.jpg	YN	Left	Yes	0.724795199930668	0	704071	252
1377.20703125	0.724795199930668	taste	choicePhaseStart	3	170	50	foodImage.72	FOODEEG_Images\0714.jpg	YN	Left	Yes	0.724795199930668	0	705131	253
1377.923828125	0	taste	response	3	170	50	foodImage.72	FOODEEG_Images\0714.jpg	YN	Left	Yes	0.724795199930668	0	705498	234
1378.966796875	1	taste	trialStart	3	171	51	foodImage.30	FOODEEG_Images\0282.jpg	NY	Right	Yes	1.54868429992348	0	706032	251
1380.0078125	2	taste	foodImageDisplay	3	171	51	foodImage.30	FOODEEG_Images\0282.jpg	NY	Right	Yes	1.54868429992348	0	706565	252
1382.0703125	1.54868429992348	taste	choicePhaseStart	3	171	51	foodImage.30	FOODEEG_Images\0282.jpg	NY	Right	Yes	1.54868429992348	0	707621	253
1383.611328125	0	taste	response	3	171	51	foodImage.30	FOODEEG_Images\0282.jpg	NY	Right	Yes	1.54868429992348	0	708410	235
1384.65625	1	health	trialStart	3	172	52	foodImage.110	FOODEEG_Images\0918.jpg	YN	Right	No	1.59128340007737	0	708945	251
1385.708984375	2	health	foodImageDisplay	3	172	52	foodImage.110	FOODEEG_Images\0918.jpg	YN	Right	No	1.59128340007737	0	709484	252
1387.771484375	1.59128340007737	health	choicePhaseStart	3	172	52	foodImage.110	FOODEEG_Images\0918.jpg	YN	Right	No	1.59128340007737	0	710540	253
1389.35546875	0	health	response	3	172	52	foodImage.110	FOODEEG_Images\0918.jpg	YN	Right	No	1.59128340007737	0	711351	235
1390.3984375	1	taste	trialStart	3	173	53	foodImage.14	FOODEEG_Images\0188.jpg	YN	Left	Yes	0.770685699768364	0	711885	251
1391.458984375	2	taste	foodImageDisplay	3	173	53	foodImage.14	FOODEEG_Images\0188.jpg	YN	Left	Yes	0.770685699768364	0	712428	252
1393.51953125	0.770685699768364	taste	choicePhaseStart	3	173	53	foodImage.14	FOODEEG_Images\0188.jpg	YN	Left	Yes	0.770685699768364	0	713483	253
1394.28125	0	taste	response	3	173	53	foodImage.14	FOODEEG_Images\0188.jpg	YN	Left	Yes	0.770685699768364	0	713873	234
1395.32421875	1	health	trialStart	3	174	54	foodImage.93	FOODEEG_Images\0901.jpg	YN	Left	Yes	0.944788799621165	0	714407	251
1396.36328125	2	health	foodImageDisplay	3	174	54	foodImage.93	FOODEEG_Images\0901.jpg	YN	Left	Yes	0.944788799621165	0	714939	252
1398.42578125	0.944788799621165	health	choicePhaseStart	3	174	54	foodImage.93	FOODEEG_Images\0901.jpg	YN	Left	Yes	0.944788799621165	0	715995	253
1399.361328125	0	health	response	3	174	54	foodImage.93	FOODEEG_Images\0901.jpg	YN	Left	Yes	0.944788799621165	0	716474	234
1400.408203125	1	taste	trialStart	3	175	55	foodImage.51	FOODEEG_Images\0536.jpg	NY	Right	Yes	0.719420299865305	0	717010	251
1401.453125	2	taste	foodImageDisplay	3	175	55	foodImage.51	FOODEEG_Images\0536.jpg	NY	Right	Yes	0.719420299865305	0	717545	252
1403.513671875	0.719420299865305	taste	choicePhaseStart	3	175	55	foodImage.51	FOODEEG_Images\0536.jpg	NY	Right	Yes	0.719420299865305	0	718600	253
1404.2265625	0	taste	response	3	175	55	foodImage.51	FOODEEG_Images\0536.jpg	NY	Right	Yes	0.719420299865305	0	718965	235
1405.26953125	1	health	trialStart	3	176	56	foodImage.85	FOODEEG_Images\0841.jpg	YN	Left	Yes	0.836495399940759	0	719499	251
1406.349609375	2	health	foodImageDisplay	3	176	56	foodImage.85	FOODEEG_Images\0841.jpg	YN	Left	Yes	0.836495399940759	0	720052	252
1408.412109375	0.836495399940759	health	choicePhaseStart	3	176	56	foodImage.85	FOODEEG_Images\0841.jpg	YN	Left	Yes	0.836495399940759	0	721108	253
1409.2421875	0	health	response	3	176	56	foodImage.85	FOODEEG_Images\0841.jpg	YN	Left	Yes	0.836495399940759	0	721533	234
1410.28515625	1	health	trialStart	3	177	57	foodImage.91	FOODEEG_Images\0896.jpg	YN	Left	Yes	1.2841801000759	0	722067	251
1411.341796875	2	health	foodImageDisplay	3	177	57	foodImage.91	FOODEEG_Images\0896.jpg	YN	Left	Yes	1.2841801000759	0	722608	252
1413.40625	1.2841801000759	health	choicePhaseStart	3	177	57	foodImage.91	FOODEEG_Images\0896.jpg	YN	Left	Yes	1.2841801000759	0	723665	253
1414.681640625	0	health	response	3	177	57	foodImage.91	FOODEEG_Images\0896.jpg	YN	Left	Yes	1.2841801000759	0	724318	234
1415.72265625	1	taste	trialStart	3	178	58	foodImage.71	FOODEEG_Images\0713.jpg	NY	Right	Yes	0.712310099974275	0	724851	251
1416.763671875	2	taste	foodImageDisplay	3	178	58	foodImage.71	FOODEEG_Images\0713.jpg	NY	Right	Yes	0.712310099974275	0	725384	252
1418.826171875	0.712310099974275	taste	choicePhaseStart	3	178	58	foodImage.71	FOODEEG_Images\0713.jpg	NY	Right	Yes	0.712310099974275	0	726440	253
1419.529296875	0	taste	response	3	178	58	foodImage.71	FOODEEG_Images\0713.jpg	NY	Right	Yes	0.712310099974275	0	726800	235
1420.5703125	1	taste	trialStart	3	179	59	foodImage.63	FOODEEG_Images\0645.jpg	NY	Right	Yes	0.697038799989969	0	727333	251
1421.611328125	2	taste	foodImageDisplay	3	179	59	foodImage.63	FOODEEG_Images\0645.jpg	NY	Right	Yes	0.697038799989969	0	727866	252
1423.673828125	0.697038799989969	taste	choicePhaseStart	3	179	59	foodImage.63	FOODEEG_Images\0645.jpg	NY	Right	Yes	0.697038799989969	0	728922	253
1424.361328125	0	taste	response	3	179	59	foodImage.63	FOODEEG_Images\0645.jpg	NY	Right	Yes	0.697038799989969	0	729274	235
1425.40625	1	decision	trialStart	3	180	60	foodImage.16	FOODEEG_Images\0196.jpg	NY	Right	Yes	0.865906999912113	0	729809	251
1426.46484375	2	decision	foodImageDisplay	3	180	60	foodImage.16	FOODEEG_Images\0196.jpg	NY	Right	Yes	0.865906999912113	0	730351	252
1428.52734375	0.865906999912113	decision	choicePhaseStart	3	180	60	foodImage.16	FOODEEG_Images\0196.jpg	NY	Right	Yes	0.865906999912113	0	731407	253
1429.384765625	0	decision	response	3	180	60	foodImage.16	FOODEEG_Images\0196.jpg	NY	Right	Yes	0.865906999912113	0	731846	235
1431.42578125	51.15234375	n/a	blockEnd	n/a	n/a	n/a	n/a	n/a	n/a	n/a	n/a	n/a	n/a	732891	254
1482.578125	2	n/a	blockStart	4	n/a	n/a	n/a	n/a	n/a	n/a	n/a	n/a	n/a	759081	250
1484.611328125	1	health	trialStart	4	181	1	foodImage.108	FOODEEG_Images\0916.jpg	YN	Right	No	5.31550789996982	1	760122	251
1485.650390625	2	health	foodImageDisplay	4	181	1	foodImage.108	FOODEEG_Images\0916.jpg	YN	Right	No	5.31550789996982	1	760654	252
1487.71484375	5.31550789996982	health	choicePhaseStart	4	181	1	foodImage.108	FOODEEG_Images\0916.jpg	YN	Right	No	5.31550789996982	1	761711	253
1493.0234375	0	health	response	4	181	1	foodImage.108	FOODEEG_Images\0916.jpg	YN	Right	No	5.31550789996982	1	764429	235
1494.0625	1	health	trialStart	4	182	2	foodImage.58	FOODEEG_Images\0605.jpg	YN	Left	Yes	0.761507299728692	0	764961	251
1495.119140625	2	health	foodImageDisplay	4	182	2	foodImage.58	FOODEEG_Images\0605.jpg	YN	Left	Yes	0.761507299728692	0	765502	252
1497.181640625	0.761507299728692	health	choicePhaseStart	4	182	2	foodImage.58	FOODEEG_Images\0605.jpg	YN	Left	Yes	0.761507299728692	0	766558	253
1497.93359375	0	health	response	4	182	2	foodImage.58	FOODEEG_Images\0605.jpg	YN	Left	Yes	0.761507299728692	0	766943	234
1498.9765625	1	taste	trialStart	4	183	3	foodImage.36	FOODEEG_Images\0352.jpg	NY	Right	Yes	1.26568019995466	0	767477	251
1500.03125	2	taste	foodImageDisplay	4	183	3	foodImage.36	FOODEEG_Images\0352.jpg	NY	Right	Yes	1.26568019995466	0	768017	252
1502.09375	1.26568019995466	taste	choicePhaseStart	4	183	3	foodImage.36	FOODEEG_Images\0352.jpg	NY	Right	Yes	1.26568019995466	0	769073	253
1503.349609375	0	taste	response	4	183	3	foodImage.36	FOODEEG_Images\0352.jpg	NY	Right	Yes	1.26568019995466	0	769716	235
1504.392578125	1	decision	trialStart	4	184	4	foodImage.98	FOODEEG_Images\0906.jpg	YN	Right	No	1.50463570002466	0	770250	251
1505.431640625	2	decision	foodImageDisplay	4	184	4	foodImage.98	FOODEEG_Images\0906.jpg	YN	Right	No	1.50463570002466	0	770782	252
1507.494140625	1.50463570002466	decision	choicePhaseStart	4	184	4	foodImage.98	FOODEEG_Images\0906.jpg	YN	Right	No	1.50463570002466	0	771838	253
1508.990234375	0	decision	response	4	184	4	foodImage.98	FOODEEG_Images\0906.jpg	YN	Right	No	1.50463570002466	0	772604	235
1510.033203125	1	health	trialStart	4	185	5	foodImage.57	FOODEEG_Images\0587.jpg	NY	Right	Yes	2.6300000003539	0	773138	251
1511.07421875	2	health	foodImageDisplay	4	185	5	foodImage.57	FOODEEG_Images\0587.jpg	NY	Right	Yes	2.6300000003539	0	773671	252
1513.13671875	2.6300000003539	health	choicePhaseStart	4	185	5	foodImage.57	FOODEEG_Images\0587.jpg	NY	Right	Yes	2.6300000003539	0	774727	253
1515.7578125	0	health	response	4	185	5	foodImage.57	FOODEEG_Images\0587.jpg	NY	Right	Yes	2.6300000003539	0	776069	235
1516.80078125	1	taste	trialStart	4	186	6	foodImage.18	FOODEEG_Images\0202.jpg	YN	Left	Yes	1.2959713996388	0	776603	251
1517.857421875	2	taste	foodImageDisplay	4	186	6	foodImage.18	FOODEEG_Images\0202.jpg	YN	Left	Yes	1.2959713996388	0	777144	252
1519.91796875	1.2959713996388	taste	choicePhaseStart	4	186	6	foodImage.18	FOODEEG_Images\0202.jpg	YN	Left	Yes	1.2959713996388	0	778199	253
1521.205078125	0	taste	response	4	186	6	foodImage.18	FOODEEG_Images\0202.jpg	YN	Left	Yes	1.2959713996388	0	778858	234
1522.24609375	1	decision	trialStart	4	187	7	foodImage.3	FOODEEG_Images\0046.jpg	NY	Right	Yes	1.39296349976212	0	779391	251
1523.287109375	2	decision	foodImageDisplay	4	187	7	foodImage.3	FOODEEG_Images\0046.jpg	NY	Right	Yes	1.39296349976212	0	779924	252
1525.349609375	1.39296349976212	decision	choicePhaseStart	4	187	7	foodImage.3	FOODEEG_Images\0046.jpg	NY	Right	Yes	1.39296349976212	0	780980	253
1526.732421875	0	decision	response	4	187	7	foodImage.3	FOODEEG_Images\0046.jpg	NY	Right	Yes	1.39296349976212	0	781688	235
1527.775390625	1	health	trialStart	4	188	8	foodImage.12	FOODEEG_Images\0181.jpg	NY	Right	Yes	1.4358828002587	0	782222	251
1528.8203125	2	health	foodImageDisplay	4	188	8	foodImage.12	FOODEEG_Images\0181.jpg	NY	Right	Yes	1.4358828002587	0	782757	252
1530.8828125	1.4358828002587	health	choicePhaseStart	4	188	8	foodImage.12	FOODEEG_Images\0181.jpg	NY	Right	Yes	1.4358828002587	0	783813	253
1532.30859375	0	health	response	4	188	8	foodImage.12	FOODEEG_Images\0181.jpg	NY	Right	Yes	1.4358828002587	0	784543	235
1533.353515625	1	decision	trialStart	4	189	9	foodImage.53	FOODEEG_Images\0547.jpg	NY	Right	Yes	2.72903450019658	0	785078	251
1534.408203125	2	decision	foodImageDisplay	4	189	9	foodImage.53	FOODEEG_Images\0547.jpg	NY	Right	Yes	2.72903450019658	0	785618	252
1536.470703125	2.72903450019658	decision	choicePhaseStart	4	189	9	foodImage.53	FOODEEG_Images\0547.jpg	NY	Right	Yes	2.72903450019658	0	786674	253
1539.189453125	0	decision	response	4	189	9	foodImage.53	FOODEEG_Images\0547.jpg	NY	Right	Yes	2.72903450019658	0	788066	235
1540.232421875	1	decision	trialStart	4	190	10	foodImage.14	FOODEEG_Images\0188.jpg	YN	Left	Yes	0.937412000261247	0	788600	251
1541.302734375	2	decision	foodImageDisplay	4	190	10	foodImage.14	FOODEEG_Images\0188.jpg	YN	Left	Yes	0.937412000261247	0	789148	252
1543.36328125	0.937412000261247	decision	choicePhaseStart	4	190	10	foodImage.14	FOODEEG_Images\0188.jpg	YN	Left	Yes	0.937412000261247	0	790203	253
1544.29296875	0	decision	response	4	190	10	foodImage.14	FOODEEG_Images\0188.jpg	YN	Left	Yes	0.937412000261247	0	790679	234
1545.3359375	1	decision	trialStart	4	191	11	foodImage.70	FOODEEG_Images\0705.jpg	NY	Right	Yes	1.14619220001623	0	791213	251
1546.4140625	2	decision	foodImageDisplay	4	191	11	foodImage.70	FOODEEG_Images\0705.jpg	NY	Right	Yes	1.14619220001623	0	791765	252
1548.4765625	1.14619220001623	decision	choicePhaseStart	4	191	11	foodImage.70	FOODEEG_Images\0705.jpg	NY	Right	Yes	1.14619220001623	0	792821	253
1549.611328125	0	decision	response	4	191	11	foodImage.70	FOODEEG_Images\0705.jpg	NY	Right	Yes	1.14619220001623	0	793402	235
1550.654296875	1	decision	trialStart	4	192	12	foodImage.34	FOODEEG_Images\0339.jpg	YN	Left	Yes	1.8640171000734	0	793936	251
1551.71875	2	decision	foodImageDisplay	4	192	12	foodImage.34	FOODEEG_Images\0339.jpg	YN	Left	Yes	1.8640171000734	0	794481	252
1553.78125	1.8640171000734	decision	choicePhaseStart	4	192	12	foodImage.34	FOODEEG_Images\0339.jpg	YN	Left	Yes	1.8640171000734	0	795537	253
1555.63671875	0	decision	response	4	192	12	foodImage.34	FOODEEG_Images\0339.jpg	YN	Left	Yes	1.8640171000734	0	796487	234
1556.677734375	1	decision	trialStart	4	193	13	foodImage.38	FOODEEG_Images\0365.jpg	YN	Left	Yes	2.69841970037669	0	797020	251
1557.71484375	2	decision	foodImageDisplay	4	193	13	foodImage.38	FOODEEG_Images\0365.jpg	YN	Left	Yes	2.69841970037669	0	797551	252
1559.77734375	2.69841970037669	decision	choicePhaseStart	4	193	13	foodImage.38	FOODEEG_Images\0365.jpg	YN	Left	Yes	2.69841970037669	0	798607	253
1562.466796875	0	decision	response	4	193	13	foodImage.38	FOODEEG_Images\0365.jpg	YN	Left	Yes	2.69841970037669	0	799984	234
1563.509765625	1	decision	trialStart	4	194	14	foodImage.105	FOODEEG_Images\0913.jpg	YN	Right	No	1.05304619995877	0	800518	251
1564.546875	2	decision	foodImageDisplay	4	194	14	foodImage.105	FOODEEG_Images\0913.jpg	YN	Right	No	1.05304619995877	0	801049	252
