onset	duration	trial_type	event_type	block	trial_total	trial_in_block	food_image_code	food_image_path	button_position	resp_position	resp_choice	choice_rt	resp_too_slow	sample	trigger
303.376953125	2	n/a	blockStart	1	n/a	n/a	n/a	n/a	n/a	n/a	n/a	n/a	n/a	155330	250
305.416015625	1	health	trialStart	1	1	1	foodImage.64	FOODEEG_Images\0647.jpg	NY	Right	Yes	0.721948000020348	0	156374	251
306.490234375	2	health	foodImageDisplay	1	1	1	foodImage.64	FOODEEG_Images\0647.jpg	NY	Right	Yes	0.721948000020348	0	156924	252
308.5546875	0.721948000020348	health	choicePhaseStart	1	1	1	foodImage.64	FOODEEG_Images\0647.jpg	NY	Right	Yes	0.721948000020348	0	157981	253
309.26953125	0	health	response	1	1	1	foodImage.64	FOODEEG_Images\0647.jpg	NY	Right	Yes	0.721948000020348	0	158347	235
310.359375	1	decision	trialStart	1	2	2	foodImage.30	FOODEEG_Images\0282.jpg	YN	Left	Yes	0.809174999943934	0	158905	251
311.40234375	2	decision	foodImageDisplay	1	2	2	foodImage.30	FOODEEG_Images\0282.jpg	YN	Left	Yes	0.809174999943934	0	159439	252
313.466796875	0.809174999943934	decision	choicePhaseStart	1	2	2	foodImage.30	FOODEEG_Images\0282.jpg	YN	Left	Yes	0.809174999943934	0	160496	253
314.26953125	0	decision	response	1	2	2	foodImage.30	FOODEEG_Images\0282.jpg	YN	Left	Yes	0.809174999943934	0	160907	234
315.322265625	1	taste	trialStart	1	3	3	foodImage.37	FOODEEG_Images\0359.jpg	YN	Right	No	1.00348820001818	0	161446	251
316.3671875	2	taste	foodImageDisplay	1	3	3	foodImage.37	FOODEEG_Images\0359.jpg	YN	Right	No	1.00348820001818	0	161981	252
318.431640625	1.00348820001818	taste	choicePhaseStart	1	3	3	foodImage.37	FOODEEG_Images\0359.jpg	YN	Right	No	1.00348820001818	0	163038	253
319.4296875	0	taste	response	1	3	3	foodImage.37	FOODEEG_Images\0359.jpg	YN	Right	No	1.00348820001818	0	163549	235
320.47265625	1	decision	trialStart	1	4	4	foodImage.43	FOODEEG_Images\0445.jpg	YN	Right	No	0.787450300063938	0	164083	251
321.546875	2	decision	foodImageDisplay	1	4	4	foodImage.43	FOODEEG_Images\0445.jpg	YN	Right	No	0.787450300063938	0	164633	252
323.611328125	0.787450300063938	decision	choicePhaseStart	1	4	4	foodImage.43	FOODEEG_Images\0445.jpg	YN	Right	No	0.787450300063938	0	165690	253
324.388671875	0	decision	response	1	4	4	foodImage.43	FOODEEG_Images\0445.jpg	YN	Right	No	0.787450300063938	0	166088	235
325.431640625	1	health	trialStart	1	5	5	foodImage.59	FOODEEG_Images\0607.jpg	YN	Right	No	0.870968400035053	0	166622	251
326.482421875	2	health	foodImageDisplay	1	5	5	foodImage.59	FOODEEG_Images\0607.jpg	YN	Right	No	0.870968400035053	0	167160	252
328.548828125	0.870968400035053	health	choicePhaseStart	1	5	5	foodImage.59	FOODEEG_Images\0607.jpg	YN	Right	No	0.870968400035053	0	168218	253
329.412109375	0	health	response	1	5	5	foodImage.59	FOODEEG_Images\0607.jpg	YN	Right	No	0.870968400035053	0	168660	235
330.4609375	1	health	trialStart	1	6	6	foodImage.93	FOODEEG_Images\0901.jpg	YN	Right	No	0.780357999959961	0	169197	251
331.501953125	2	health	foodImageDisplay	1	6	6	foodImage.93	FOODEEG_Images\0901.jpg	YN	Right	No	0.780357999959961	0	169730	252
333.56640625	0.780357999959961	health	choicePhaseStart	1	6	6	foodImage.93	FOODEEG_Images\0901.jpg	YN	Right	No	0.780357999959961	0	170787	253
334.341796875	0	health	response	1	6	6	foodImage.93	FOODEEG_Images\0901.jpg	YN	Right	No	0.780357999959961	0	171184	235
335.384765625	1	taste	trialStart	1	7	7	foodImage.49	FOODEEG_Images\0515.jpg	NY	Left	No	0.922747100004926	0	171718	251
336.427734375	2	taste	foodImageDisplay	1	7	7	foodImage.49	FOODEEG_Images\0515.jpg	NY	Left	No	0.922747100004926	0	172252	252
338.490234375	0.922747100004926	taste	choicePhaseStart	1	7	7	foodImage.49	FOODEEG_Images\0515.jpg	NY	Left	No	0.922747100004926	0	173308	253
339.404296875	0	taste	response	1	7	7	foodImage.49	FOODEEG_Images\0515.jpg	NY	Left	No	0.922747100004926	0	173776	234
340.453125	1	taste	trialStart	1	8	8	foodImage.117	FOODEEG_Images\0925.jpg	YN	Right	No	0.850592000060715	0	174313	251
341.4921875	2	taste	foodImageDisplay	1	8	8	foodImage.117	FOODEEG_Images\0925.jpg	YN	Right	No	0.850592000060715	0	174845	252
343.5546875	0.850592000060715	taste	choicePhaseStart	1	8	8	foodImage.117	FOODEEG_Images\0925.jpg	YN	Right	No	0.850592000060715	0	175901	253
344.396484375	0	taste	response	1	8	8	foodImage.117	FOODEEG_Images\0925.jpg	YN	Right	No	0.850592000060715	0	176332	235
345.439453125	1	health	trialStart	1	9	9	foodImage.1	FOODEEG_Images\0004.jpg	NY	Left	No	0.945162400021218	0	176866	251
346.482421875	2	health	foodImageDisplay	1	9	9	foodImage.1	FOODEEG_Images\0004.jpg	NY	Left	No	0.945162400021218	0	177400	252
348.546875	0.945162400021218	health	choicePhaseStart	1	9	9	foodImage.1	FOODEEG_Images\0004.jpg	NY	Left	No	0.945162400021218	0	178457	253
349.482421875	0	health	response	1	9	9	foodImage.1	FOODEEG_Images\0004.jpg	NY	Left	No	0.945162400021218	0	178936	234
350.525390625	1	taste	trialStart	1	10	10	foodImage.72	FOODEEG_Images\0714.jpg	NY	Left	No	1.01720150001347	0	179470	251
351.568359375	2	taste	foodImageDisplay	1	10	10	foodImage.72	FOODEEG_Images\0714.jpg	NY	Left	No	1.01720150001347	0	180004	252
353.634765625	1.01720150001347	taste	choicePhaseStart	1	10	10	foodImage.72	FOODEEG_Images\0714.jpg	NY	Left	No	1.01720150001347	0	181062	253
354.642578125	0	taste	response	1	10	10	foodImage.72	FOODEEG_Images\0714.jpg	NY	Left	No	1.01720150001347	0	181578	234
355.685546875	1	health	trialStart	1	11	11	foodImage.88	FOODEEG_Images\0878.jpg	NY	Left	No	0.935539899975993	0	182112	251
356.73828125	2	health	foodImageDisplay	1	11	11	foodImage.88	FOODEEG_Images\0878.jpg	NY	Left	No	0.935539899975993	0	182651	252
358.802734375	0.935539899975993	health	choicePhaseStart	1	11	11	foodImage.88	FOODEEG_Images\0878.jpg	NY	Left	No	0.935539899975993	0	183708	253
359.732421875	0	health	response	1	11	11	foodImage.88	FOODEEG_Images\0878.jpg	NY	Left	No	0.935539899975993	0	184184	234
360.77734375	1	taste	trialStart	1	12	12	foodImage.111	FOODEEG_Images\0919.jpg	YN	Right	No	0.688581800088286	0	184719	251
361.814453125	2	taste	foodImageDisplay	1	12	12	foodImage.111	FOODEEG_Images\0919.jpg	YN	Right	No	0.688581800088286	0	185250	252
363.888671875	0.688581800088286	taste	choicePhaseStart	1	12	12	foodImage.111	FOODEEG_Images\0919.jpg	YN	Right	No	0.688581800088286	0	186312	253
364.5703125	0	taste	response	1	12	12	foodImage.111	FOODEEG_Images\0919.jpg	YN	Right	No	0.688581800088286	0	186661	235
365.61328125	1	decision	trialStart	1	13	13	foodImage.37	FOODEEG_Images\0359.jpg	NY	Left	No	0.652433000039309	0	187195	251
366.654296875	2	decision	foodImageDisplay	1	13	13	foodImage.37	FOODEEG_Images\0359.jpg	NY	Left	No	0.652433000039309	0	187728	252
368.71875	0.652433000039309	decision	choicePhaseStart	1	13	13	foodImage.37	FOODEEG_Images\0359.jpg	NY	Left	No	0.652433000039309	0	188785	253
369.36328125	0	decision	response	1	13	13	foodImage.37	FOODEEG_Images\0359.jpg	NY	Left	No	0.652433000039309	0	189115	234
370.40625	1	taste	trialStart	1	14	14	foodImage.116	FOODEEG_Images\0924.jpg	NY	Left	No	1.54837729991414	0	189649	251
371.4453125	2	taste	foodImageDisplay	1	14	14	foodImage.116	FOODEEG_Images\0924.jpg	NY	Left	No	1.54837729991414	0	190181	252
373.51171875	1.54837729991414	taste	choicePhaseStart	1	14	14	foodImage.116	FOODEEG_Images\0924.jpg	NY	Left	No	1.54837729991414	0	191239	253
375.05078125	0	taste	response	1	14	14	foodImage.116	FOODEEG_Images\0924.jpg	NY	Left	No	1.54837729991414	0	192027	234
376.09375	1	taste	trialStart	1	15	15	foodImage.4	FOODEEG_Images\0065.jpg	YN	Left	Yes	1.35152710007969	0	192561	251
377.150390625	2	taste	foodImageDisplay	1	15	15	foodImage.4	FOODEEG_Images\0065.jpg	YN	Left	Yes	1.35152710007969	0	193102	252
379.212890625	1.35152710007969	taste	choicePhaseStart	1	15	15	foodImage.4	FOODEEG_Images\0065.jpg	YN	Left	Yes	1.35152710007969	0	194158	253
380.5546875	0	taste	response	1	15	15	foodImage.4	FOODEEG_Images\0065.jpg	YN	Left	Yes	1.35152710007969	0	194845	234
381.595703125	1	taste	trialStart	1	16	16	foodImage.46	FOODEEG_Images\0479.jpg	YN	Right	No	1.09499380004127	0	195378	251
382.65234375	2	taste	foodImageDisplay	1	16	16	foodImage.46	FOODEEG_Images\0479.jpg	YN	Right	No	1.09499380004127	0	195919	252
384.716796875	1.09499380004127	taste	choicePhaseStart	1	16	16	foodImage.46	FOODEEG_Images\0479.jpg	YN	Right	No	1.09499380004127	0	196976	253
385.802734375	0	taste	response	1	16	16	foodImage.46	FOODEEG_Images\0479.jpg	YN	Right	No	1.09499380004127	0	197532	235
386.84375	1	taste	trialStart	1	17	17	foodImage.43	FOODEEG_Images\0445.jpg	NY	Left	No	0.666086600045674	0	198065	251
387.8984375	2	taste	foodImageDisplay	1	17	17	foodImage.43	FOODEEG_Images\0445.jpg	NY	Left	No	0.666086600045674	0	198605	252
389.9609375	0.666086600045674	taste	choicePhaseStart	1	17	17	foodImage.43	FOODEEG_Images\0445.jpg	NY	Left	No	0.666086600045674	0	199661	253
390.6171875	0	taste	response	1	17	17	foodImage.43	FOODEEG_Images\0445.jpg	NY	Left	No	0.666086600045674	0	199997	234
391.66015625	1	taste	trialStart	1	18	18	foodImage.77	FOODEEG_Images\0771.jpg	NY	Left	No	1.38668459991459	0	200531	251
392.705078125	2	taste	foodImageDisplay	1	18	18	foodImage.77	FOODEEG_Images\0771.jpg	NY	Left	No	1.38668459991459	0	201066	252
394.76953125	1.38668459991459	taste	choicePhaseStart	1	18	18	foodImage.77	FOODEEG_Images\0771.jpg	NY	Left	No	1.38668459991459	0	202123	253
396.146484375	0	taste	response	1	18	18	foodImage.77	FOODEEG_Images\0771.jpg	NY	Left	No	1.38668459991459	0	202828	234
397.1875	1	decision	trialStart	1	19	19	foodImage.31	FOODEEG_Images\0294.jpg	YN	Left	Yes	1.49220910004806	0	203361	251
398.23046875	2	decision	foodImageDisplay	1	19	19	foodImage.31	FOODEEG_Images\0294.jpg	YN	Left	Yes	1.49220910004806	0	203895	252
400.29296875	1.49220910004806	decision	choicePhaseStart	1	19	19	foodImage.31	FOODEEG_Images\0294.jpg	YN	Left	Yes	1.49220910004806	0	204951	253
401.77734375	0	decision	response	1	19	19	foodImage.31	FOODEEG_Images\0294.jpg	YN	Left	Yes	1.49220910004806	0	205711	234
402.8203125	1	health	trialStart	1	20	20	foodImage.28	FOODEEG_Images\0273.jpg	YN	Left	Yes	0.725390199921094	0	206245	251
403.861328125	2	health	foodImageDisplay	1	20	20	foodImage.28	FOODEEG_Images\0273.jpg	YN	Left	Yes	0.725390199921094	0	206778	252
405.92578125	0.725390199921094	health	choicePhaseStart	1	20	20	foodImage.28	FOODEEG_Images\0273.jpg	YN	Left	Yes	0.725390199921094	0	207835	253
406.640625	0	health	response	1	20	20	foodImage.28	FOODEEG_Images\0273.jpg	YN	Left	Yes	0.725390199921094	0	208201	234
407.6875	1	decision	trialStart	1	21	21	foodImage.5	FOODEEG_Images\0107.jpg	NY	Right	Yes	0.555078799952753	0	208737	251
408.75	2	decision	foodImageDisplay	1	21	21	foodImage.5	FOODEEG_Images\0107.jpg	NY	Right	Yes	0.555078799952753	0	209281	252
410.814453125	0.555078799952753	decision	choicePhaseStart	1	21	21	foodImage.5	FOODEEG_Images\0107.jpg	NY	Right	Yes	0.555078799952753	0	210338	253
411.361328125	0	decision	response	1	21	21	foodImage.5	FOODEEG_Images\0107.jpg	NY	Right	Yes	0.555078799952753	0	210618	235
412.404296875	1	taste	trialStart	1	22	22	foodImage.18	FOODEEG_Images\0202.jpg	NY	Left	No	0.987070000031963	0	211152	251
413.462890625	2	taste	foodImageDisplay	1	22	22	foodImage.18	FOODEEG_Images\0202.jpg	NY	Left	No	0.987070000031963	0	211694	252
415.52734375	0.987070000031963	taste	choicePhaseStart	1	22	22	foodImage.18	FOODEEG_Images\0202.jpg	NY	Left	No	0.987070000031963	0	212751	253
416.50390625	0	taste	response	1	22	22	foodImage.18	FOODEEG_Images\0202.jpg	NY	Left	No	0.987070000031963	0	213251	234
417.546875	1	health	trialStart	1	23	23	foodImage.57	FOODEEG_Images\0587.jpg	YN	Right	No	0.941744400071912	0	213785	251
418.58984375	2	health	foodImageDisplay	1	23	23	foodImage.57	FOODEEG_Images\0587.jpg	YN	Right	No	0.941744400071912	0	214319	252
420.658203125	0.941744400071912	health	choicePhaseStart	1	23	23	foodImage.57	FOODEEG_Images\0587.jpg	YN	Right	No	0.941744400071912	0	215378	253
421.591796875	0	health	response	1	23	23	foodImage.57	FOODEEG_Images\0587.jpg	YN	Right	No	0.941744400071912	0	215856	235
422.634765625	1	health	trialStart	1	24	24	foodImage.47	FOODEEG_Images\0488.jpg	YN	Right	No	1.03900150000118	0	216390	251
423.67578125	2	health	foodImageDisplay	1	24	24	foodImage.47	FOODEEG_Images\0488.jpg	YN	Right	No	1.03900150000118	0	216923	252
425.744140625	1.03900150000118	health	choicePhaseStart	1	24	24	foodImage.47	FOODEEG_Images\0488.jpg	YN	Right	No	1.03900150000118	0	217982	253
426.775390625	0	health	response	1	24	24	foodImage.47	FOODEEG_Images\0488.jpg	YN	Right	No	1.03900150000118	0	218510	235
427.818359375	1	taste	trialStart	1	25	25	foodImage.32	FOODEEG_Images\0319.jpg	NY	Right	Yes	0.711950399912894	0	219044	251
428.86328125	2	taste	foodImageDisplay	1	25	25	foodImage.32	FOODEEG_Images\0319.jpg	NY	Right	Yes	0.711950399912894	0	219579	252
430.92578125	0.711950399912894	taste	choicePhaseStart	1	25	25	foodImage.32	FOODEEG_Images\0319.jpg	NY	Right	Yes	0.711950399912894	0	220635	253
431.6328125	0	taste	response	1	25	25	foodImage.32	FOODEEG_Images\0319.jpg	NY	Right	Yes	0.711950399912894	0	220997	235
432.673828125	1	taste	trialStart	1	26	26	foodImage.26	FOODEEG_Images\0262.jpg	NY	Right	Yes	1.36494190001395	0	221530	251
433.716796875	2	taste	foodImageDisplay	1	26	26	foodImage.26	FOODEEG_Images\0262.jpg	NY	Right	Yes	1.36494190001395	0	222064	252
435.779296875	1.36494190001395	taste	choicePhaseStart	1	26	26	foodImage.26	FOODEEG_Images\0262.jpg	NY	Right	Yes	1.36494190001395	0	223120	253
437.134765625	0	taste	response	1	26	26	foodImage.26	FOODEEG_Images\0262.jpg	NY	Right	Yes	1.36494190001395	0	223814	235
438.177734375	1	decision	trialStart	1	27	27	foodImage.115	FOODEEG_Images\0923.jpg	YN	Right	No	0.666814199998043	0	224348	251
439.216796875	2	decision	foodImageDisplay	1	27	27	foodImage.115	FOODEEG_Images\0923.jpg	YN	Right	No	0.666814199998043	0	224880	252
441.279296875	0.666814199998043	decision	choicePhaseStart	1	27	27	foodImage.115	FOODEEG_Images\0923.jpg	YN	Right	No	0.666814199998043	0	225936	253
441.935546875	0	decision	response	1	27	27	foodImage.115	FOODEEG_Images\0923.jpg	YN	Right	No	0.666814199998043	0	226272	235
442.984375	1	decision	trialStart	1	28	28	foodImage.97	FOODEEG_Images\0905.jpg	NY	Left	No	0.59204330004286	0	226809	251
444.0234375	2	decision	foodImageDisplay	1	28	28	foodImage.97	FOODEEG_Images\0905.jpg	NY	Left	No	0.59204330004286	0	227341	252
446.08984375	0.59204330004286	decision	choicePhaseStart	1	28	28	foodImage.97	FOODEEG_Images\0905.jpg	NY	Left	No	0.59204330004286	0	228399	253
446.671875	0	decision	response	1	28	28	foodImage.97	FOODEEG_Images\0905.jpg	NY	Left	No	0.59204330004286	0	228697	234
447.71484375	1	health	trialStart	1	29	29	foodImage.21	FOODEEG_Images\0234.jpg	YN	Left	Yes	1.21884420001879	0	229231	251
448.771484375	2	health	foodImageDisplay	1	29	29	foodImage.21	FOODEEG_Images\0234.jpg	YN	Left	Yes	1.21884420001879	0	229772	252
450.841796875	1.21884420001879	health	choicePhaseStart	1	29	29	foodImage.21	FOODEEG_Images\0234.jpg	YN	Left	Yes	1.21884420001879	0	230832	253
452.0546875	0	health	response	1	29	29	foodImage.21	FOODEEG_Images\0234.jpg	YN	Left	Yes	1.21884420001879	0	231453	234
453.09765625	1	decision	trialStart	1	30	30	foodImage.62	FOODEEG_Images\0644.jpg	NY	Left	No	0.503776199999265	0	231987	251
454.154296875	2	decision	foodImageDisplay	1	30	30	foodImage.62	FOODEEG_Images\0644.jpg	NY	Left	No	0.503776199999265	0	232528	252
456.22265625	0.503776199999265	decision	choicePhaseStart	1	30	30	foodImage.62	FOODEEG_Images\0644.jpg	NY	Left	No	0.503776199999265	0	233587	253
456.71875	0	decision	response	1	30	30	foodImage.62	FOODEEG_Images\0644.jpg	NY	Left	No	0.503776199999265	0	233841	234
457.76171875	1	health	trialStart	1	31	31	foodImage.8	FOODEEG_Images\0136.jpg	NY	Right	Yes	0.621541199972853	0	234375	251
458.8046875	2	health	foodImageDisplay	1	31	31	foodImage.8	FOODEEG_Images\0136.jpg	NY	Right	Yes	0.621541199972853	0	234909	252
460.8671875	0.621541199972853	health	choicePhaseStart	1	31	31	foodImage.8	FOODEEG_Images\0136.jpg	NY	Right	Yes	0.621541199972853	0	235965	253
461.478515625	0	health	response	1	31	31	foodImage.8	FOODEEG_Images\0136.jpg	NY	Right	Yes	0.621541199972853	0	236278	235
462.521484375	1	decision	trialStart	1	32	32	foodImage.9	FOODEEG_Images\0138.jpg	NY	Left	No	1.03952620003838	0	236812	251
463.578125	2	decision	foodImageDisplay	1	32	32	foodImage.9	FOODEEG_Images\0138.jpg	NY	Left	No	1.03952620003838	0	237353	252
465.646484375	1.03952620003838	decision	choicePhaseStart	1	32	32	foodImage.9	FOODEEG_Images\0138.jpg	NY	Left	No	1.03952620003838	0	238412	253
466.6796875	0	decision	response	1	32	32	foodImage.9	FOODEEG_Images\0138.jpg	NY	Left	No	1.03952620003838	0	238941	234
467.720703125	1	health	trialStart	1	33	33	foodImage.32	FOODEEG_Images\0319.jpg	NY	Right	Yes	0.635626300005242	0	239474	251
468.763671875	2	health	foodImageDisplay	1	33	33	foodImage.32	FOODEEG_Images\0319.jpg	NY	Right	Yes	0.635626300005242	0	240008	252
470.828125	0.635626300005242	health	choicePhaseStart	1	33	33	foodImage.32	FOODEEG_Images\0319.jpg	NY	Right	Yes	0.635626300005242	0	241065	253
471.455078125	0	health	response	1	33	33	foodImage.32	FOODEEG_Images\0319.jpg	NY	Right	Yes	0.635626300005242	0	241386	235
472.49609375	1	health	trialStart	1	34	34	foodImage.97	FOODEEG_Images\0905.jpg	YN	Right	No	0.842842400074005	0	241919	251
473.533203125	2	health	foodImageDisplay	1	34	34	foodImage.97	FOODEEG_Images\0905.jpg	YN	Right	No	0.842842400074005	0	242450	252
475.59765625	0.842842400074005	health	choicePhaseStart	1	34	34	foodImage.97	FOODEEG_Images\0905.jpg	YN	Right	No	0.842842400074005	0	243507	253
476.4296875	0	health	response	1	34	34	foodImage.97	FOODEEG_Images\0905.jpg	YN	Right	No	0.842842400074005	0	243933	235
477.478515625	1	health	trialStart	1	35	35	foodImage.3	FOODEEG_Images\0046.jpg	NY	Left	No	0.648348299902864	0	244470	251
478.521484375	2	health	foodImageDisplay	1	35	35	foodImage.3	FOODEEG_Images\0046.jpg	NY	Left	No	0.648348299902864	0	245004	252
480.58984375	0.648348299902864	health	choicePhaseStart	1	35	35	foodImage.3	FOODEEG_Images\0046.jpg	NY	Left	No	0.648348299902864	0	246063	253
481.23046875	0	health	response	1	35	35	foodImage.3	FOODEEG_Images\0046.jpg	NY	Left	No	0.648348299902864	0	246391	234
482.2734375	1	taste	trialStart	1	36	36	foodImage.15	FOODEEG_Images\0189.jpg	NY	Right	Yes	0.788062200066634	0	246925	251
483.341796875	2	taste	foodImageDisplay	1	36	36	foodImage.15	FOODEEG_Images\0189.jpg	NY	Right	Yes	0.788062200066634	0	247472	252
485.408203125	0.788062200066634	taste	choicePhaseStart	1	36	36	foodImage.15	FOODEEG_Images\0189.jpg	NY	Right	Yes	0.788062200066634	0	248530	253
486.189453125	0	taste	response	1	36	36	foodImage.15	FOODEEG_Images\0189.jpg	NY	Right	Yes	0.788062200066634	0	248930	235
487.232421875	1	taste	trialStart	1	37	37	foodImage.114	FOODEEG_Images\0922.jpg	NY	Right	Yes	0.526645200094208	0	249464	251
488.271484375	2	taste	foodImageDisplay	1	37	37	foodImage.114	FOODEEG_Images\0922.jpg	NY	Right	Yes	0.526645200094208	0	249996	252
490.333984375	0.526645200094208	taste	choicePhaseStart	1	37	37	foodImage.114	FOODEEG_Images\0922.jpg	NY	Right	Yes	0.526645200094208	0	251052	253
490.853515625	0	taste	response	1	37	37	foodImage.114	FOODEEG_Images\0922.jpg	NY	Right	Yes	0.526645200094208	0	251318	235
491.896484375	1	taste	trialStart	1	38	38	foodImage.11	FOODEEG_Images\0180.jpg	NY	Right	Yes	0.485223599942401	0	251852	251
492.9375	2	taste	foodImageDisplay	1	38	38	foodImage.11	FOODEEG_Images\0180.jpg	NY	Right	Yes	0.485223599942401	0	252385	252
495	0.485223599942401	taste	choicePhaseStart	1	38	38	foodImage.11	FOODEEG_Images\0180.jpg	NY	Right	Yes	0.485223599942401	0	253441	253
495.4765625	0	taste	response	1	38	38	foodImage.11	FOODEEG_Images\0180.jpg	NY	Right	Yes	0.485223599942401	0	253685	235
496.51953125	1	health	trialStart	1	39	39	foodImage.36	FOODEEG_Images\0352.jpg	NY	Right	Yes	0.690513900015503	0	254219	251
497.59765625	2	health	foodImageDisplay	1	39	39	foodImage.36	FOODEEG_Images\0352.jpg	NY	Right	Yes	0.690513900015503	0	254771	252
499.66015625	0.690513900015503	health	choicePhaseStart	1	39	39	foodImage.36	FOODEEG_Images\0352.jpg	NY	Right	Yes	0.690513900015503	0	255827	253
500.341796875	0	health	response	1	39	39	foodImage.36	FOODEEG_Images\0352.jpg	NY	Right	Yes	0.690513900015503	0	256176	235
501.384765625	1	health	trialStart	1	40	40	foodImage.84	FOODEEG_Images\0830.jpg	YN	Left	Yes	0.484886200050823	0	256710	251
502.44140625	2	health	foodImageDisplay	1	40	40	foodImage.84	FOODEEG_Images\0830.jpg	YN	Left	Yes	0.484886200050823	0	257251	252
504.505859375	0.484886200050823	health	choicePhaseStart	1	40	40	foodImage.84	FOODEEG_Images\0830.jpg	YN	Left	Yes	0.484886200050823	0	258308	253
504.98046875	0	health	response	1	40	40	foodImage.84	FOODEEG_Images\0830.jpg	YN	Left	Yes	0.484886200050823	0	258551	234
506.025390625	1	decision	trialStart	1	41	41	foodImage.36	FOODEEG_Images\0352.jpg	NY	Right	Yes	0.458971099928021	0	259086	251
507.080078125	2	decision	foodImageDisplay	1	41	41	foodImage.36	FOODEEG_Images\0352.jpg	NY	Right	Yes	0.458971099928021	0	259626	252
509.146484375	0.458971099928021	decision	choicePhaseStart	1	41	41	foodImage.36	FOODEEG_Images\0352.jpg	NY	Right	Yes	0.458971099928021	0	260684	253
509.59765625	0	decision	response	1	41	41	foodImage.36	FOODEEG_Images\0352.jpg	NY	Right	Yes	0.458971099928021	0	260915	235
510.640625	1	taste	trialStart	1	42	42	foodImage.71	FOODEEG_Images\0713.jpg	NY	Right	Yes	0.501974400016479	0	261449	251
511.681640625	2	taste	foodImageDisplay	1	42	42	foodImage.71	FOODEEG_Images\0713.jpg	NY	Right	Yes	0.501974400016479	0	261982	252
513.75	0.501974400016479	taste	choicePhaseStart	1	42	42	foodImage.71	FOODEEG_Images\0713.jpg	NY	Right	Yes	0.501974400016479	0	263041	253
514.244140625	0	taste	response	1	42	42	foodImage.71	FOODEEG_Images\0713.jpg	NY	Right	Yes	0.501974400016479	0	263294	235
515.287109375	1	health	trialStart	1	43	43	foodImage.115	FOODEEG_Images\0923.jpg	YN	Right	No	0.954498899984173	0	263828	251
516.326171875	2	health	foodImageDisplay	1	43	43	foodImage.115	FOODEEG_Images\0923.jpg	YN	Right	No	0.954498899984173	0	264360	252
518.39453125	0.954498899984173	health	choicePhaseStart	1	43	43	foodImage.115	FOODEEG_Images\0923.jpg	YN	Right	No	0.954498899984173	0	265419	253
519.33984375	0	health	response	1	43	43	foodImage.115	FOODEEG_Images\0923.jpg	YN	Right	No	0.954498899984173	0	265903	235
520.3828125	1	health	trialStart	1	44	44	foodImage.56	FOODEEG_Images\0586.jpg	NY	Left	No	1.32396859989967	0	266437	251
521.42578125	2	health	foodImageDisplay	1	44	44	foodImage.56	FOODEEG_Images\0586.jpg	NY	Left	No	1.32396859989967	0	266971	252
523.490234375	1.32396859989967	health	choicePhaseStart	1	44	44	foodImage.56	FOODEEG_Images\0586.jpg	NY	Left	No	1.32396859989967	0	268028	253
524.8046875	0	health	response	1	44	44	foodImage.56	FOODEEG_Images\0586.jpg	NY	Left	No	1.32396859989967	0	268701	234
525.845703125	1	health	trialStart	1	45	45	foodImage.100	FOODEEG_Images\0908.jpg	YN	Right	No	0.503718399908394	0	269234	251
526.884765625	2	health	foodImageDisplay	1	45	45	foodImage.100	FOODEEG_Images\0908.jpg	YN	Right	No	0.503718399908394	0	269766	252
528.947265625	0.503718399908394	health	choicePhaseStart	1	45	45	foodImage.100	FOODEEG_Images\0908.jpg	YN	Right	No	0.503718399908394	0	270822	253
529.4453125	0	health	response	1	45	45	foodImage.100	FOODEEG_Images\0908.jpg	YN	Right	No	0.503718399908394	0	271077	235
530.48828125	1	health	trialStart	1	46	46	foodImage.17	FOODEEG_Images\0199.jpg	NY	Right	Yes	0.701647500041872	0	271611	251
531.529296875	2	health	foodImageDisplay	1	46	46	foodImage.17	FOODEEG_Images\0199.jpg	NY	Right	Yes	0.701647500041872	0	272144	252
533.59765625	0.701647500041872	health	choicePhaseStart	1	46	46	foodImage.17	FOODEEG_Images\0199.jpg	NY	Right	Yes	0.701647500041872	0	273203	253
534.29296875	0	health	response	1	46	46	foodImage.17	FOODEEG_Images\0199.jpg	NY	Right	Yes	0.701647500041872	0	273559	235
535.333984375	1	taste	trialStart	1	47	47	foodImage.42	FOODEEG_Images\0438.jpg	NY	Right	Yes	0.552516199997626	0	274092	251
536.421875	2	taste	foodImageDisplay	1	47	47	foodImage.42	FOODEEG_Images\0438.jpg	NY	Right	Yes	0.552516199997626	0	274649	252
538.490234375	0.552516199997626	taste	choicePhaseStart	1	47	47	foodImage.42	FOODEEG_Images\0438.jpg	NY	Right	Yes	0.552516199997626	0	275708	253
539.03515625	0	taste	response	1	47	47	foodImage.42	FOODEEG_Images\0438.jpg	NY	Right	Yes	0.552516199997626	0	275987	235
540.083984375	1	taste	trialStart	1	48	48	foodImage.82	FOODEEG_Images\0805.jpg	NY	Right	Yes	0.507614800008014	0	276524	251
541.13671875	2	taste	foodImageDisplay	1	48	48	foodImage.82	FOODEEG_Images\0805.jpg	NY	Right	Yes	0.507614800008014	0	277063	252
543.208984375	0.507614800008014	taste	choicePhaseStart	1	48	48	foodImage.82	FOODEEG_Images\0805.jpg	NY	Right	Yes	0.507614800008014	0	278124	253
543.70703125	0	taste	response	1	48	48	foodImage.82	FOODEEG_Images\0805.jpg	NY	Right	Yes	0.507614800008014	0	278379	235
544.75	1	health	trialStart	1	49	49	foodImage.73	FOODEEG_Images\0717.jpg	NY	Left	No	0.929122400004417	0	278913	251
545.80859375	2	health	foodImageDisplay	1	49	49	foodImage.73	FOODEEG_Images\0717.jpg	NY	Left	No	0.929122400004417	0	279455	252
547.875	0.929122400004417	health	choicePhaseStart	1	49	49	foodImage.73	FOODEEG_Images\0717.jpg	NY	Left	No	0.929122400004417	0	280513	253
548.794921875	0	health	response	1	49	49	foodImage.73	FOODEEG_Images\0717.jpg	NY	Left	No	0.929122400004417	0	280984	234
549.83984375	1	health	trialStart	1	50	50	foodImage.42	FOODEEG_Images\0438.jpg	YN	Left	Yes	0.595917700091377	0	281519	251
550.9296875	2	health	foodImageDisplay	1	50	50	foodImage.42	FOODEEG_Images\0438.jpg	YN	Left	Yes	0.595917700091377	0	282077	252
552.9921875	0.595917700091377	health	choicePhaseStart	1	50	50	foodImage.42	FOODEEG_Images\0438.jpg	YN	Left	Yes	0.595917700091377	0	283133	253
553.580078125	0	health	response	1	50	50	foodImage.42	FOODEEG_Images\0438.jpg	YN	Left	Yes	0.595917700091377	0	283434	234
554.62109375	1	taste	trialStart	1	51	51	foodImage.93	FOODEEG_Images\0901.jpg	YN	Right	No	0.538476099958643	0	283967	251
555.662109375	2	taste	foodImageDisplay	1	51	51	foodImage.93	FOODEEG_Images\0901.jpg	YN	Right	No	0.538476099958643	0	284500	252
557.728515625	0.538476099958643	taste	choicePhaseStart	1	51	51	foodImage.93	FOODEEG_Images\0901.jpg	YN	Right	No	0.538476099958643	0	285558	253
558.259765625	0	taste	response	1	51	51	foodImage.93	FOODEEG_Images\0901.jpg	YN	Right	No	0.538476099958643	0	285830	235
559.30078125	1	decision	trialStart	1	52	52	foodImage.4	FOODEEG_Images\0065.jpg	NY	Right	Yes	0.882074499968439	0	286363	251
560.35546875	2	decision	foodImageDisplay	1	52	52	foodImage.4	FOODEEG_Images\0065.jpg	NY	Right	Yes	0.882074499968439	0	286903	252
562.41796875	0.882074499968439	decision	choicePhaseStart	1	52	52	foodImage.4	FOODEEG_Images\0065.jpg	NY	Right	Yes	0.882074499968439	0	287959	253
563.291015625	0	decision	response	1	52	52	foodImage.4	FOODEEG_Images\0065.jpg	NY	Right	Yes	0.882074499968439	0	288406	235
564.333984375	1	health	trialStart	1	53	53	foodImage.33	FOODEEG_Images\0329.jpg	YN	Left	Yes	0.478049200028181	0	288940	251
565.373046875	2	health	foodImageDisplay	1	53	53	foodImage.33	FOODEEG_Images\0329.jpg	YN	Left	Yes	0.478049200028181	0	289472	252
567.435546875	0.478049200028181	health	choicePhaseStart	1	53	53	foodImage.33	FOODEEG_Images\0329.jpg	YN	Left	Yes	0.478049200028181	0	290528	253
567.90625	0	health	response	1	53	53	foodImage.33	FOODEEG_Images\0329.jpg	YN	Left	Yes	0.478049200028181	0	290769	234
568.951171875	1	decision	trialStart	1	54	54	foodImage.75	FOODEEG_Images\0763.jpg	YN	Left	Yes	0.576225899974816	0	291304	251
569.99609375	2	decision	foodImageDisplay	1	54	54	foodImage.75	FOODEEG_Images\0763.jpg	YN	Left	Yes	0.576225899974816	0	291839	252
572.060546875	0.576225899974816	decision	choicePhaseStart	1	54	54	foodImage.75	FOODEEG_Images\0763.jpg	YN	Left	Yes	0.576225899974816	0	292896	253
572.626953125	0	decision	response	1	54	54	foodImage.75	FOODEEG_Images\0763.jpg	YN	Left	Yes	0.576225899974816	0	293186	234
573.66796875	1	decision	trialStart	1	55	55	foodImage.81	FOODEEG_Images\0797.jpg	NY	Left	No	0.719543699990027	0	293719	251
574.7265625	2	decision	foodImageDisplay	1	55	55	foodImage.81	FOODEEG_Images\0797.jpg	NY	Left	No	0.719543699990027	0	294261	252
576.7890625	0.719543699990027	decision	choicePhaseStart	1	55	55	foodImage.81	FOODEEG_Images\0797.jpg	NY	Left	No	0.719543699990027	0	295317	253
577.498046875	0	decision	response	1	55	55	foodImage.81	FOODEEG_Images\0797.jpg	NY	Left	No	0.719543699990027	0	295680	234
578.541015625	1	taste	trialStart	1	56	56	foodImage.105	FOODEEG_Images\0913.jpg	YN	Right	No	0.568508500000462	0	296214	251
579.578125	2	taste	foodImageDisplay	1	56	56	foodImage.105	FOODEEG_Images\0913.jpg	YN	Right	No	0.568508500000462	0	296745	252
581.642578125	0.568508500000462	taste	choicePhaseStart	1	56	56	foodImage.105	FOODEEG_Images\0913.jpg	YN	Right	No	0.568508500000462	0	297802	253
582.201171875	0	taste	response	1	56	56	foodImage.105	FOODEEG_Images\0913.jpg	YN	Right	No	0.568508500000462	0	298088	235
583.24609375	1	decision	trialStart	1	57	57	foodImage.88	FOODEEG_Images\0878.jpg	NY	Right	Yes	0.417393899988383	0	298623	251
584.30078125	2	decision	foodImageDisplay	1	57	57	foodImage.88	FOODEEG_Images\0878.jpg	NY	Right	Yes	0.417393899988383	0	299163	252
586.369140625	0.417393899988383	decision	choicePhaseStart	1	57	57	foodImage.88	FOODEEG_Images\0878.jpg	NY	Right	Yes	0.417393899988383	0	300222	253
586.77734375	0	decision	response	1	57	57	foodImage.88	FOODEEG_Images\0878.jpg	NY	Right	Yes	0.417393899988383	0	300431	235
587.8203125	1	health	trialStart	1	58	58	foodImage.71	FOODEEG_Images\0713.jpg	YN	Right	No	0.603599000023678	0	300965	251
588.873046875	2	health	foodImageDisplay	1	58	58	foodImage.71	FOODEEG_Images\0713.jpg	YN	Right	No	0.603599000023678	0	301504	252
590.94140625	0.603599000023678	health	choicePhaseStart	1	58	58	foodImage.71	FOODEEG_Images\0713.jpg	YN	Right	No	0.603599000023678	0	302563	253
591.537109375	0	health	response	1	58	58	foodImage.71	FOODEEG_Images\0713.jpg	YN	Right	No	0.603599000023678	0	302868	235
592.580078125	1	taste	trialStart	1	59	59	foodImage.20	FOODEEG_Images\0226.jpg	YN	Right	No	1.19387270009611	0	303402	251
593.623046875	2	taste	foodImageDisplay	1	59	59	foodImage.20	FOODEEG_Images\0226.jpg	YN	Right	No	1.19387270009611	0	303936	252
595.689453125	1.19387270009611	taste	choicePhaseStart	1	59	59	foodImage.20	FOODEEG_Images\0226.jpg	YN	Right	No	1.19387270009611	0	304994	253
596.873046875	0	taste	response	1	59	59	foodImage.20	FOODEEG_Images\0226.jpg	YN	Right	No	1.19387270009611	0	305600	235
597.916015625	1	health	trialStart	1	60	60	foodImage.37	FOODEEG_Images\0359.jpg	NY	Right	Yes	0.539554900024086	0	306134	251
598.958984375	2	health	foodImageDisplay	1	60	60	foodImage.37	FOODEEG_Images\0359.jpg	NY	Right	Yes	0.539554900024086	0	306668	252
601.02734375	0.539554900024086	health	choicePhaseStart	1	60	60	foodImage.37	FOODEEG_Images\0359.jpg	NY	Right	Yes	0.539554900024086	0	307727	253
601.560546875	0	health	response	1	60	60	foodImage.37	FOODEEG_Images\0359.jpg	NY	Right	Yes	0.539554900024086	0	308000	235
603.6015625	26.29296875	n/a	blockEnd	n/a	n/a	n/a	n/a	n/a	n/a	n/a	n/a	n/a	n/a	309045	254
629.89453125	2	n/a	blockStart	2	n/a	n/a	n/a	n/a	n/a	n/a	n/a	n/a	n/a	322507	250
631.92578125	1	decision	trialStart	2	61	1	foodImage.41	FOODEEG_Images\0409.jpg	NY	Right	Yes	0.594207699992694	0	323547	251
632.974609375	2	decision	foodImageDisplay	2	61	1	foodImage.41	FOODEEG_Images\0409.jpg	NY	Right	Yes	0.594207699992694	0	324084	252
635.0390625	0.594207699992694	decision	choicePhaseStart	2	61	1	foodImage.41	FOODEEG_Images\0409.jpg	NY	Right	Yes	0.594207699992694	0	325141	253
635.625	0	decision	response	2	61	1	foodImage.41	FOODEEG_Images\0409.jpg	NY	Right	Yes	0.594207699992694	0	325441	235
636.666015625	1	health	trialStart	2	62	2	foodImage.109	FOODEEG_Images\0917.jpg	YN	Right	No	2.26134710002225	0	325974	251
637.703125	2	health	foodImageDisplay	2	62	2	foodImage.109	FOODEEG_Images\0917.jpg	YN	Right	No	2.26134710002225	0	326505	252
639.771484375	2.26134710002225	health	choicePhaseStart	2	62	2	foodImage.109	FOODEEG_Images\0917.jpg	YN	Right	No	2.26134710002225	0	327564	253
642.0234375	0	health	response	2	62	2	foodImage.109	FOODEEG_Images\0917.jpg	YN	Right	No	2.26134710002225	0	328717	235
643.06640625	1	taste	trialStart	2	63	3	foodImage.7	FOODEEG_Images\0116.jpg	YN	Left	Yes	0.534460599999875	0	329251	251
644.107421875	2	taste	foodImageDisplay	2	63	3	foodImage.7	FOODEEG_Images\0116.jpg	YN	Left	Yes	0.534460599999875	0	329784	252
646.169921875	0.534460599999875	taste	choicePhaseStart	2	63	3	foodImage.7	FOODEEG_Images\0116.jpg	YN	Left	Yes	0.534460599999875	0	330840	253
646.6953125	0	taste	response	2	63	3	foodImage.7	FOODEEG_Images\0116.jpg	YN	Left	Yes	0.534460599999875	0	331109	234
647.73828125	1	health	trialStart	2	64	4	foodImage.77	FOODEEG_Images\0771.jpg	YN	Left	Yes	0.837786999996752	0	331643	251
648.779296875	2	health	foodImageDisplay	2	64	4	foodImage.77	FOODEEG_Images\0771.jpg	YN	Left	Yes	0.837786999996752	0	332176	252
650.84375	0.837786999996752	health	choicePhaseStart	2	64	4	foodImage.77	FOODEEG_Images\0771.jpg	YN	Left	Yes	0.837786999996752	0	333233	253
651.671875	0	health	response	2	64	4	foodImage.77	FOODEEG_Images\0771.jpg	YN	Left	Yes	0.837786999996752	0	333657	234
652.7109375	1	decision	trialStart	2	65	5	foodImage.33	FOODEEG_Images\0329.jpg	NY	Right	Yes	0.528407600009814	0	334189	251
653.75390625	2	decision	foodImageDisplay	2	65	5	foodImage.33	FOODEEG_Images\0329.jpg	NY	Right	Yes	0.528407600009814	0	334723	252
655.822265625	0.528407600009814	decision	choicePhaseStart	2	65	5	foodImage.33	FOODEEG_Images\0329.jpg	NY	Right	Yes	0.528407600009814	0	335782	253
656.34375	0	decision	response	2	65	5	foodImage.33	FOODEEG_Images\0329.jpg	NY	Right	Yes	0.528407600009814	0	336049	235
657.38671875	1	health	trialStart	2	66	6	foodImage.65	FOODEEG_Images\0658.jpg	NY	Left	No	0.700223800027743	0	336583	251
658.427734375	2	health	foodImageDisplay	2	66	6	foodImage.65	FOODEEG_Images\0658.jpg	NY	Left	No	0.700223800027743	0	337116	252
660.490234375	0.700223800027743	health	choicePhaseStart	2	66	6	foodImage.65	FOODEEG_Images\0658.jpg	NY	Left	No	0.700223800027743	0	338172	253
661.18359375	0	health	response	2	66	6	foodImage.65	FOODEEG_Images\0658.jpg	NY	Left	No	0.700223800027743	0	338527	234
662.2265625	1	decision	trialStart	2	67	7	foodImage.13	FOODEEG_Images\0183.jpg	YN	Left	Yes	0.565848900005221	0	339061	251
663.27734375	2	decision	foodImageDisplay	2	67	7	foodImage.13	FOODEEG_Images\0183.jpg	YN	Left	Yes	0.565848900005221	0	339599	252
665.345703125	0.565848900005221	decision	choicePhaseStart	2	67	7	foodImage.13	FOODEEG_Images\0183.jpg	YN	Left	Yes	0.565848900005221	0	340658	253
665.90234375	0	decision	response	2	67	7	foodImage.13	FOODEEG_Images\0183.jpg	YN	Left	Yes	0.565848900005221	0	340943	234
666.947265625	1	taste	trialStart	2	68	8	foodImage.113	FOODEEG_Images\0921.jpg	YN	Right	No	0.680893799988553	0	341478	251
667.984375	2	taste	foodImageDisplay	2	68	8	foodImage.113	FOODEEG_Images\0921.jpg	YN	Right	No	0.680893799988553	0	342009	252
670.052734375	0.680893799988553	taste	choicePhaseStart	2	68	8	foodImage.113	FOODEEG_Images\0921.jpg	YN	Right	No	0.680893799988553	0	343068	253
670.7265625	0	taste	response	2	68	8	foodImage.113	FOODEEG_Images\0921.jpg	YN	Right	No	0.680893799988553	0	343413	235
671.767578125	1	taste	trialStart	2	69	9	foodImage.47	FOODEEG_Images\0488.jpg	NY	Right	Yes	0.577584600076079	0	343946	251
672.810546875	2	taste	foodImageDisplay	2	69	9	foodImage.47	FOODEEG_Images\0488.jpg	NY	Right	Yes	0.577584600076079	0	344480	252
674.875	0.577584600076079	taste	choicePhaseStart	2	69	9	foodImage.47	FOODEEG_Images\0488.jpg	NY	Right	Yes	0.577584600076079	0	345537	253
675.447265625	0	taste	response	2	69	9	foodImage.47	FOODEEG_Images\0488.jpg	NY	Right	Yes	0.577584600076079	0	345830	235
676.490234375	1	taste	trialStart	2	70	10	foodImage.95	FOODEEG_Images\0903.jpg	YN	Right	No	0.482047499972396	0	346364	251
677.52734375	2	taste	foodImageDisplay	2	70	10	foodImage.95	FOODEEG_Images\0903.jpg	YN	Right	No	0.482047499972396	0	346895	252
679.595703125	0.482047499972396	taste	choicePhaseStart	2	70	10	foodImage.95	FOODEEG_Images\0903.jpg	YN	Right	No	0.482047499972396	0	347954	253
680.0703125	0	taste	response	2	70	10	foodImage.95	FOODEEG_Images\0903.jpg	YN	Right	No	0.482047499972396	0	348197	235
681.115234375	1	taste	trialStart	2	71	11	foodImage.73	FOODEEG_Images\0717.jpg	YN	Left	Yes	1.26484800002072	0	348732	251
682.173828125	2	taste	foodImageDisplay	2	71	11	foodImage.73	FOODEEG_Images\0717.jpg	YN	Left	Yes	1.26484800002072	0	349274	252
684.23828125	1.26484800002072	taste	choicePhaseStart	2	71	11	foodImage.73	FOODEEG_Images\0717.jpg	YN	Left	Yes	1.26484800002072	0	350331	253
685.494140625	0	taste	response	2	71	11	foodImage.73	FOODEEG_Images\0717.jpg	YN	Left	Yes	1.26484800002072	0	350974	234
686.537109375	1	taste	trialStart	2	72	12	foodImage.58	FOODEEG_Images\0605.jpg	YN	Right	No	0.7247244999744	0	351508	251
687.59765625	2	taste	foodImageDisplay	2	72	12	foodImage.58	FOODEEG_Images\0605.jpg	YN	Right	No	0.7247244999744	0	352051	252
689.66015625	0.7247244999744	taste	choicePhaseStart	2	72	12	foodImage.58	FOODEEG_Images\0605.jpg	YN	Right	No	0.7247244999744	0	353107	253
690.375	0	taste	response	2	72	12	foodImage.58	FOODEEG_Images\0605.jpg	YN	Right	No	0.7247244999744	0	353473	235
691.416015625	1	health	trialStart	2	73	13	foodImage.29	FOODEEG_Images\0278.jpg	NY	Right	Yes	0.822812799946405	0	354006	251
692.45703125	2	health	foodImageDisplay	2	73	13	foodImage.29	FOODEEG_Images\0278.jpg	NY	Right	Yes	0.822812799946405	0	354539	252
694.51953125	0.822812799946405	health	choicePhaseStart	2	73	13	foodImage.29	FOODEEG_Images\0278.jpg	NY	Right	Yes	0.822812799946405	0	355595	253
695.333984375	0	health	response	2	73	13	foodImage.29	FOODEEG_Images\0278.jpg	NY	Right	Yes	0.822812799946405	0	356012	235
696.376953125	1	taste	trialStart	2	74	14	foodImage.44	FOODEEG_Images\0459.jpg	NY	Right	Yes	0.503243300016038	0	356546	251
697.421875	2	taste	foodImageDisplay	2	74	14	foodImage.44	FOODEEG_Images\0459.jpg	NY	Right	Yes	0.503243300016038	0	357081	252
699.484375	0.503243300016038	taste	choicePhaseStart	2	74	14	foodImage.44	FOODEEG_Images\0459.jpg	NY	Right	Yes	0.503243300016038	0	358137	253
699.982421875	0	taste	response	2	74	14	foodImage.44	FOODEEG_Images\0459.jpg	NY	Right	Yes	0.503243300016038	0	358392	235
701.025390625	1	health	trialStart	2	75	15	foodImage.85	FOODEEG_Images\0841.jpg	NY	Left	No	0.749468200025149	0	358926	251
702.08203125	2	health	foodImageDisplay	2	75	15	foodImage.85	FOODEEG_Images\0841.jpg	NY	Left	No	0.749468200025149	0	359467	252
704.14453125	0.749468200025149	health	choicePhaseStart	2	75	15	foodImage.85	FOODEEG_Images\0841.jpg	NY	Left	No	0.749468200025149	0	360523	253
704.884765625	0	health	response	2	75	15	foodImage.85	FOODEEG_Images\0841.jpg	NY	Left	No	0.749468200025149	0	360902	234
705.927734375	1	health	trialStart	2	76	16	foodImage.105	FOODEEG_Images\0913.jpg	YN	Right	No	1.6904327000957	0	361436	251
706.96484375	2	health	foodImageDisplay	2	76	16	foodImage.105	FOODEEG_Images\0913.jpg	YN	Right	No	1.6904327000957	0	361967	252
709.02734375	1.6904327000957	health	choicePhaseStart	2	76	16	foodImage.105	FOODEEG_Images\0913.jpg	YN	Right	No	1.6904327000957	0	363023	253
710.708984375	0	health	response	2	76	16	foodImage.105	FOODEEG_Images\0913.jpg	YN	Right	No	1.6904327000957	0	363884	235
711.75390625	1	taste	trialStart	2	77	17	foodImage.106	FOODEEG_Images\0914.jpg	NY	Left	No	0.887680600048043	0	364419	251
712.79296875	2	taste	foodImageDisplay	2	77	17	foodImage.106	FOODEEG_Images\0914.jpg	NY	Left	No	0.887680600048043	0	364951	252
714.85546875	0.887680600048043	taste	choicePhaseStart	2	77	17	foodImage.106	FOODEEG_Images\0914.jpg	NY	Left	No	0.887680600048043	0	366007	253
715.732421875	0	taste	response	2	77	17	foodImage.106	FOODEEG_Images\0914.jpg	NY	Left	No	0.887680600048043	0	366456	234
716.775390625	1	decision	trialStart	2	78	18	foodImage.26	FOODEEG_Images\0262.jpg	NY	Left	No	0.651816600002348	0	366990	251
717.818359375	2	decision	foodImageDisplay	2	78	18	foodImage.26	FOODEEG_Images\0262.jpg	NY	Left	No	0.651816600002348	0	367524	252
719.8828125	0.651816600002348	decision	choicePhaseStart	2	78	18	foodImage.26	FOODEEG_Images\0262.jpg	NY	Left	No	0.651816600002348	0	368581	253
720.525390625	0	decision	response	2	78	18	foodImage.26	FOODEEG_Images\0262.jpg	NY	Left	No	0.651816600002348	0	368910	234
721.568359375	1	taste	trialStart	2	79	19	foodImage.30	FOODEEG_Images\0282.jpg	YN	Right	No	0.781833400018513	0	369444	251
722.609375	2	taste	foodImageDisplay	2	79	19	foodImage.30	FOODEEG_Images\0282.jpg	YN	Right	No	0.781833400018513	0	369977	252
724.671875	0.781833400018513	taste	choicePhaseStart	2	79	19	foodImage.30	FOODEEG_Images\0282.jpg	YN	Right	No	0.781833400018513	0	371033	253
725.4453125	0	taste	response	2	79	19	foodImage.30	FOODEEG_Images\0282.jpg	YN	Right	No	0.781833400018513	0	371429	235
726.48828125	1	health	trialStart	2	80	20	foodImage.15	FOODEEG_Images\0189.jpg	NY	Left	No	1.51646369998343	0	371963	251
727.546875	2	health	foodImageDisplay	2	80	20	foodImage.15	FOODEEG_Images\0189.jpg	NY	Left	No	1.51646369998343	0	372505	252
729.609375	1.51646369998343	health	choicePhaseStart	2	80	20	foodImage.15	FOODEEG_Images\0189.jpg	NY	Left	No	1.51646369998343	0	373561	253
731.1171875	0	health	response	2	80	20	foodImage.15	FOODEEG_Images\0189.jpg	NY	Left	No	1.51646369998343	0	374333	234
732.158203125	1	health	trialStart	2	81	21	foodImage.22	FOODEEG_Images\0236.jpg	NY	Right	Yes	0.647999199922197	0	374866	251
733.21484375	2	health	foodImageDisplay	2	81	21	foodImage.22	FOODEEG_Images\0236.jpg	NY	Right	Yes	0.647999199922197	0	375407	252
735.27734375	0.647999199922197	health	choicePhaseStart	2	81	21	foodImage.22	FOODEEG_Images\0236.jpg	NY	Right	Yes	0.647999199922197	0	376463	253
735.916015625	0	health	response	2	81	21	foodImage.22	FOODEEG_Images\0236.jpg	NY	Right	Yes	0.647999199922197	0	376790	235
736.958984375	1	taste	trialStart	2	82	22	foodImage.118	FOODEEG_Images\0926.jpg	YN	Right	No	0.688871699967422	0	377324	251
737.99609375	2	taste	foodImageDisplay	2	82	22	foodImage.118	FOODEEG_Images\0926.jpg	YN	Right	No	0.688871699967422	0	377855	252
740.060546875	0.688871699967422	taste	choicePhaseStart	2	82	22	foodImage.118	FOODEEG_Images\0926.jpg	YN	Right	No	0.688871699967422	0	378912	253
740.740234375	0	taste	response	2	82	22	foodImage.118	FOODEEG_Images\0926.jpg	YN	Right	No	0.688871699967422	0	379260	235
741.783203125	1	taste	trialStart	2	83	23	foodImage.5	FOODEEG_Images\0107.jpg	YN	Left	Yes	0.651523199980147	0	379794	251
742.841796875	2	taste	foodImageDisplay	2	83	23	foodImage.5	FOODEEG_Images\0107.jpg	YN	Left	Yes	0.651523199980147	0	380336	252
744.90625	0.651523199980147	taste	choicePhaseStart	2	83	23	foodImage.5	FOODEEG_Images\0107.jpg	YN	Left	Yes	0.651523199980147	0	381393	253
745.548828125	0	taste	response	2	83	23	foodImage.5	FOODEEG_Images\0107.jpg	YN	Left	Yes	0.651523199980147	0	381722	234
746.58984375	1	decision	trialStart	2	84	24	foodImage.89	FOODEEG_Images\0881.jpg	YN	Left	Yes	0.5843942000065	0	382255	251
747.6484375	2	decision	foodImageDisplay	2	84	24	foodImage.89	FOODEEG_Images\0881.jpg	YN	Left	Yes	0.5843942000065	0	382797	252
749.716796875	0.5843942000065	decision	choicePhaseStart	2	84	24	foodImage.89	FOODEEG_Images\0881.jpg	YN	Left	Yes	0.5843942000065	0	383856	253
750.291015625	0	decision	response	2	84	24	foodImage.89	FOODEEG_Images\0881.jpg	YN	Left	Yes	0.5843942000065	0	384150	234
751.333984375	1	taste	trialStart	2	85	25	foodImage.75	FOODEEG_Images\0763.jpg	YN	Left	Yes	1.3984401000198	0	384684	251
752.3828125	2	taste	foodImageDisplay	2	85	25	foodImage.75	FOODEEG_Images\0763.jpg	YN	Left	Yes	1.3984401000198	0	385221	252
754.451171875	1.3984401000198	taste	choicePhaseStart	2	85	25	foodImage.75	FOODEEG_Images\0763.jpg	YN	Left	Yes	1.3984401000198	0	386280	253
755.84375	0	taste	response	2	85	25	foodImage.75	FOODEEG_Images\0763.jpg	YN	Left	Yes	1.3984401000198	0	386993	234
756.88671875	1	health	trialStart	2	86	26	foodImage.76	FOODEEG_Images\0766.jpg	YN	Left	Yes	0.619094500085339	0	387527	251
757.931640625	2	health	foodImageDisplay	2	86	26	foodImage.76	FOODEEG_Images\0766.jpg	YN	Left	Yes	0.619094500085339	0	388062	252
760	0.619094500085339	health	choicePhaseStart	2	86	26	foodImage.76	FOODEEG_Images\0766.jpg	YN	Left	Yes	0.619094500085339	0	389121	253
760.611328125	0	health	response	2	86	26	foodImage.76	FOODEEG_Images\0766.jpg	YN	Left	Yes	0.619094500085339	0	389434	234
761.65234375	1	taste	trialStart	2	87	27	foodImage.13	FOODEEG_Images\0183.jpg	NY	Right	Yes	0.574164099991322	0	389967	251
762.6953125	2	taste	foodImageDisplay	2	87	27	foodImage.13	FOODEEG_Images\0183.jpg	NY	Right	Yes	0.574164099991322	0	390501	252
764.763671875	0.574164099991322	taste	choicePhaseStart	2	87	27	foodImage.13	FOODEEG_Images\0183.jpg	NY	Right	Yes	0.574164099991322	0	391560	253
765.33203125	0	taste	response	2	87	27	foodImage.13	FOODEEG_Images\0183.jpg	NY	Right	Yes	0.574164099991322	0	391851	235
766.375	1	health	trialStart	2	88	28	foodImage.87	FOODEEG_Images\0873.jpg	YN	Left	Yes	0.804586800048128	0	392385	251
767.431640625	2	health	foodImageDisplay	2	88	28	foodImage.87	FOODEEG_Images\0873.jpg	YN	Left	Yes	0.804586800048128	0	392926	252
769.49609375	0.804586800048128	health	choicePhaseStart	2	88	28	foodImage.87	FOODEEG_Images\0873.jpg	YN	Left	Yes	0.804586800048128	0	393983	253
770.291015625	0	health	response	2	88	28	foodImage.87	FOODEEG_Images\0873.jpg	YN	Left	Yes	0.804586800048128	0	394390	234
771.333984375	1	health	trialStart	2	89	29	foodImage.16	FOODEEG_Images\0196.jpg	YN	Left	Yes	0.631382400053553	0	394924	251
772.390625	2	health	foodImageDisplay	2	89	29	foodImage.16	FOODEEG_Images\0196.jpg	YN	Left	Yes	0.631382400053553	0	395465	252
774.453125	0.631382400053553	health	choicePhaseStart	2	89	29	foodImage.16	FOODEEG_Images\0196.jpg	YN	Left	Yes	0.631382400053553	0	396521	253
775.07421875	0	health	response	2	89	29	foodImage.16	FOODEEG_Images\0196.jpg	YN	Left	Yes	0.631382400053553	0	396839	234
776.12109375	1	decision	trialStart	2	90	30	foodImage.100	FOODEEG_Images\0908.jpg	YN	Right	No	0.636114499997348	0	397375	251
777.16015625	2	decision	foodImageDisplay	2	90	30	foodImage.100	FOODEEG_Images\0908.jpg	YN	Right	No	0.636114499997348	0	397907	252
779.224609375	0.636114499997348	decision	choicePhaseStart	2	90	30	foodImage.100	FOODEEG_Images\0908.jpg	YN	Right	No	0.636114499997348	0	398964	253
779.8515625	0	decision	response	2	90	30	foodImage.100	FOODEEG_Images\0908.jpg	YN	Right	No	0.636114499997348	0	399285	235
780.89453125	1	decision	trialStart	2	91	31	foodImage.80	FOODEEG_Images\0796.jpg	YN	Left	Yes	0.501175899989903	0	399819	251
781.953125	2	decision	foodImageDisplay	2	91	31	foodImage.80	FOODEEG_Images\0796.jpg	YN	Left	Yes	0.501175899989903	0	400361	252
784.015625	0.501175899989903	decision	choicePhaseStart	2	91	31	foodImage.80	FOODEEG_Images\0796.jpg	YN	Left	Yes	0.501175899989903	0	401417	253
784.505859375	0	decision	response	2	91	31	foodImage.80	FOODEEG_Images\0796.jpg	YN	Left	Yes	0.501175899989903	0	401668	234
785.548828125	1	taste	trialStart	2	92	32	foodImage.110	FOODEEG_Images\0918.jpg	YN	Right	No	0.602453799918294	0	402202	251
786.587890625	2	taste	foodImageDisplay	2	92	32	foodImage.110	FOODEEG_Images\0918.jpg	YN	Right	No	0.602453799918294	0	402734	252
788.650390625	0.602453799918294	taste	choicePhaseStart	2	92	32	foodImage.110	FOODEEG_Images\0918.jpg	YN	Right	No	0.602453799918294	0	403790	253
789.2421875	0	taste	response	2	92	32	foodImage.110	FOODEEG_Images\0918.jpg	YN	Right	No	0.602453799918294	0	404093	235
790.283203125	1	taste	trialStart	2	93	33	foodImage.45	FOODEEG_Images\0478.jpg	YN	Left	Yes	1.97888790001161	0	404626	251
791.328125	2	taste	foodImageDisplay	2	93	33	foodImage.45	FOODEEG_Images\0478.jpg	YN	Left	Yes	1.97888790001161	0	405161	252
793.392578125	1.97888790001161	taste	choicePhaseStart	2	93	33	foodImage.45	FOODEEG_Images\0478.jpg	YN	Left	Yes	1.97888790001161	0	406218	253
795.361328125	0	taste	response	2	93	33	foodImage.45	FOODEEG_Images\0478.jpg	YN	Left	Yes	1.97888790001161	0	407226	234
796.40625	1	health	trialStart	2	94	34	foodImage.110	FOODEEG_Images\0918.jpg	YN	Right	No	1.01975830004085	0	407761	251
797.443359375	2	health	foodImageDisplay	2	94	34	foodImage.110	FOODEEG_Images\0918.jpg	YN	Right	No	1.01975830004085	0	408292	252
799.51171875	1.01975830004085	health	choicePhaseStart	2	94	34	foodImage.110	FOODEEG_Images\0918.jpg	YN	Right	No	1.01975830004085	0	409351	253
800.521484375	0	health	response	2	94	34	foodImage.110	FOODEEG_Images\0918.jpg	YN	Right	No	1.01975830004085	0	409868	235
801.564453125	1	taste	trialStart	2	95	35	foodImage.63	FOODEEG_Images\0645.jpg	NY	Right	Yes	0.522174500045367	0	410402	251
802.60546875	2	taste	foodImageDisplay	2	95	35	foodImage.63	FOODEEG_Images\0645.jpg	NY	Right	Yes	0.522174500045367	0	410935	252
804.677734375	0.522174500045367	taste	choicePhaseStart	2	95	35	foodImage.63	FOODEEG_Images\0645.jpg	NY	Right	Yes	0.522174500045367	0	411996	253
805.193359375	0	taste	response	2	95	35	foodImage.63	FOODEEG_Images\0645.jpg	NY	Right	Yes	0.522174500045367	0	412260	235
806.23828125	1	decision	trialStart	2	96	36	foodImage.11	FOODEEG_Images\0180.jpg	YN	Left	Yes	1.14862420002464	0	412795	251
807.27734375	2	decision	foodImageDisplay	2	96	36	foodImage.11	FOODEEG_Images\0180.jpg	YN	Left	Yes	1.14862420002464	0	413327	252
809.345703125	1.14862420002464	decision	choicePhaseStart	2	96	36	foodImage.11	FOODEEG_Images\0180.jpg	YN	Left	Yes	1.14862420002464	0	414386	253
810.48828125	0	decision	response	2	96	36	foodImage.11	FOODEEG_Images\0180.jpg	YN	Left	Yes	1.14862420002464	0	414971	234
811.533203125	1	decision	trialStart	2	97	37	foodImage.69	FOODEEG_Images\0693.jpg	NY	Right	Yes	0.562420799979009	0	415506	251
812.576171875	2	decision	foodImageDisplay	2	97	37	foodImage.69	FOODEEG_Images\0693.jpg	NY	Right	Yes	0.562420799979009	0	416040	252
814.640625	0.562420799979009	decision	choicePhaseStart	2	97	37	foodImage.69	FOODEEG_Images\0693.jpg	NY	Right	Yes	0.562420799979009	0	417097	253
815.193359375	0	decision	response	2	97	37	foodImage.69	FOODEEG_Images\0693.jpg	NY	Right	Yes	0.562420799979009	0	417380	235
816.236328125	1	health	trialStart	2	98	38	foodImage.38	FOODEEG_Images\0365.jpg	YN	Left	Yes	0.637924100039527	0	417914	251
817.275390625	2	health	foodImageDisplay	2	98	38	foodImage.38	FOODEEG_Images\0365.jpg	YN	Left	Yes	0.637924100039527	0	418446	252
819.34765625	0.637924100039527	health	choicePhaseStart	2	98	38	foodImage.38	FOODEEG_Images\0365.jpg	YN	Left	Yes	0.637924100039527	0	419507	253
819.9765625	0	health	response	2	98	38	foodImage.38	FOODEEG_Images\0365.jpg	YN	Left	Yes	0.637924100039527	0	419829	234
821.01953125	1	decision	trialStart	2	99	39	foodImage.50	FOODEEG_Images\0529.jpg	YN	Right	No	0.6147511000745	0	420363	251
822.076171875	2	decision	foodImageDisplay	2	99	39	foodImage.50	FOODEEG_Images\0529.jpg	YN	Right	No	0.6147511000745	0	420904	252
824.14453125	0.6147511000745	decision	choicePhaseStart	2	99	39	foodImage.50	FOODEEG_Images\0529.jpg	YN	Right	No	0.6147511000745	0	421963	253
824.751953125	0	decision	response	2	99	39	foodImage.50	FOODEEG_Images\0529.jpg	YN	Right	No	0.6147511000745	0	422274	235
825.794921875	1	health	trialStart	2	100	40	foodImage.6	FOODEEG_Images\0113.jpg	YN	Right	No	0.525552599923685	0	422808	251
826.837890625	2	health	foodImageDisplay	2	100	40	foodImage.6	FOODEEG_Images\0113.jpg	YN	Right	No	0.525552599923685	0	423342	252
828.90625	0.525552599923685	health	choicePhaseStart	2	100	40	foodImage.6	FOODEEG_Images\0113.jpg	YN	Right	No	0.525552599923685	0	424401	253
829.423828125	0	health	response	2	100	40	foodImage.6	FOODEEG_Images\0113.jpg	YN	Right	No	0.525552599923685	0	424666	235
830.466796875	1	health	trialStart	2	101	41	foodImage.119	FOODEEG_Images\0927.jpg	NY	Left	No	0.675899700028822	0	425200	251
831.50390625	2	health	foodImageDisplay	2	101	41	foodImage.119	FOODEEG_Images\0927.jpg	NY	Left	No	0.675899700028822	0	425731	252
833.56640625	0.675899700028822	health	choicePhaseStart	2	101	41	foodImage.119	FOODEEG_Images\0927.jpg	NY	Left	No	0.675899700028822	0	426787	253
834.232421875	0	health	response	2	101	41	foodImage.119	FOODEEG_Images\0927.jpg	NY	Left	No	0.675899700028822	0	427128	234
835.27734375	1	health	trialStart	2	102	42	foodImage.18	FOODEEG_Images\0202.jpg	NY	Right	Yes	0.701221900060773	0	427663	251
836.333984375	2	health	foodImageDisplay	2	102	42	foodImage.18	FOODEEG_Images\0202.jpg	NY	Right	Yes	0.701221900060773	0	428204	252
838.40234375	0.701221900060773	health	choicePhaseStart	2	102	42	foodImage.18	FOODEEG_Images\0202.jpg	NY	Right	Yes	0.701221900060773	0	429263	253
839.095703125	0	health	response	2	102	42	foodImage.18	FOODEEG_Images\0202.jpg	NY	Right	Yes	0.701221900060773	0	429618	235
840.138671875	1	taste	trialStart	2	103	43	foodImage.88	FOODEEG_Images\0878.jpg	YN	Left	Yes	0.71069599990733	0	430152	251
841.19140625	2	taste	foodImageDisplay	2	103	43	foodImage.88	FOODEEG_Images\0878.jpg	YN	Left	Yes	0.71069599990733	0	430691	252
843.259765625	0.71069599990733	taste	choicePhaseStart	2	103	43	foodImage.88	FOODEEG_Images\0878.jpg	YN	Left	Yes	0.71069599990733	0	431750	253
843.9609375	0	taste	response	2	103	43	foodImage.88	FOODEEG_Images\0878.jpg	YN	Left	Yes	0.71069599990733	0	432109	234
845.00390625	1	decision	trialStart	2	104	44	foodImage.60	FOODEEG_Images\0614.jpg	YN	Right	No	0.718644699896686	0	432643	251
846.0625	2	decision	foodImageDisplay	2	104	44	foodImage.60	FOODEEG_Images\0614.jpg	YN	Right	No	0.718644699896686	0	433185	252
848.12890625	0.718644699896686	decision	choicePhaseStart	2	104	44	foodImage.60	FOODEEG_Images\0614.jpg	YN	Right	No	0.718644699896686	0	434243	253
848.83984375	0	decision	response	2	104	44	foodImage.60	FOODEEG_Images\0614.jpg	YN	Right	No	0.718644699896686	0	434607	235
849.888671875	1	health	trialStart	2	105	45	foodImage.46	FOODEEG_Images\0479.jpg	NY	Right	Yes	0.76359109999612	0	435144	251
850.943359375	2	health	foodImageDisplay	2	105	45	foodImage.46	FOODEEG_Images\0479.jpg	NY	Right	Yes	0.76359109999612	0	435684	252
853.01171875	0.76359109999612	health	choicePhaseStart	2	105	45	foodImage.46	FOODEEG_Images\0479.jpg	NY	Right	Yes	0.76359109999612	0	436743	253
853.767578125	0	health	response	2	105	45	foodImage.46	FOODEEG_Images\0479.jpg	NY	Right	Yes	0.76359109999612	0	437130	235
854.810546875	1	decision	trialStart	2	106	46	foodImage.28	FOODEEG_Images\0273.jpg	YN	Right	No	0.805594700039364	0	437664	251
855.853515625	2	decision	foodImageDisplay	2	106	46	foodImage.28	FOODEEG_Images\0273.jpg	YN	Right	No	0.805594700039364	0	438198	252
857.916015625	0.805594700039364	decision	choicePhaseStart	2	106	46	foodImage.28	FOODEEG_Images\0273.jpg	YN	Right	No	0.805594700039364	0	439254	253
858.7109375	0	decision	response	2	106	46	foodImage.28	FOODEEG_Images\0273.jpg	YN	Right	No	0.805594700039364	0	439661	235
859.75390625	1	taste	trialStart	2	107	47	foodImage.120	FOODEEG_Images\0928.jpg	YN	Left	Yes	2.07440330006648	0	440195	251
860.791015625	2	taste	foodImageDisplay	2	107	47	foodImage.120	FOODEEG_Images\0928.jpg	YN	Left	Yes	2.07440330006648	0	440726	252
862.853515625	2.07440330006648	taste	choicePhaseStart	2	107	47	foodImage.120	FOODEEG_Images\0928.jpg	YN	Left	Yes	2.07440330006648	0	441782	253
864.919921875	0	taste	response	2	107	47	foodImage.120	FOODEEG_Images\0928.jpg	YN	Left	Yes	2.07440330006648	0	442840	234
865.9609375	1	taste	trialStart	2	108	48	foodImage.104	FOODEEG_Images\0912.jpg	YN	Left	Yes	0.617768500000238	0	443373	251
867	2	taste	foodImageDisplay	2	108	48	foodImage.104	FOODEEG_Images\0912.jpg	YN	Left	Yes	0.617768500000238	0	443905	252
869.068359375	0.617768500000238	taste	choicePhaseStart	2	108	48	foodImage.104	FOODEEG_Images\0912.jpg	YN	Left	Yes	0.617768500000238	0	444964	253
869.6796875	0	taste	response	2	108	48	foodImage.104	FOODEEG_Images\0912.jpg	YN	Left	Yes	0.617768500000238	0	445277	234
870.72265625	1	taste	trialStart	2	109	49	foodImage.25	FOODEEG_Images\0261.jpg	NY	Left	No	0.983577499981038	0	445811	251
871.76171875	2	taste	foodImageDisplay	2	109	49	foodImage.25	FOODEEG_Images\0261.jpg	NY	Left	No	0.983577499981038	0	446343	252
873.82421875	0.983577499981038	taste	choicePhaseStart	2	109	49	foodImage.25	FOODEEG_Images\0261.jpg	NY	Left	No	0.983577499981038	0	447399	253
874.798828125	0	taste	response	2	109	49	foodImage.25	FOODEEG_Images\0261.jpg	NY	Left	No	0.983577499981038	0	447898	234
875.83984375	1	health	trialStart	2	110	50	foodImage.12	FOODEEG_Images\0181.jpg	YN	Left	Yes	0.675997099955566	0	448431	251
876.8828125	2	health	foodImageDisplay	2	110	50	foodImage.12	FOODEEG_Images\0181.jpg	YN	Left	Yes	0.675997099955566	0	448965	252
878.947265625	0.675997099955566	health	choicePhaseStart	2	110	50	foodImage.12	FOODEEG_Images\0181.jpg	YN	Left	Yes	0.675997099955566	0	450022	253
879.615234375	0	health	response	2	110	50	foodImage.12	FOODEEG_Images\0181.jpg	YN	Left	Yes	0.675997099955566	0	450364	234
880.658203125	1	decision	trialStart	2	111	51	foodImage.27	FOODEEG_Images\0263.jpg	NY	Left	No	0.917989599984139	0	450898	251
881.69921875	2	decision	foodImageDisplay	2	111	51	foodImage.27	FOODEEG_Images\0263.jpg	NY	Left	No	0.917989599984139	0	451431	252
883.767578125	0.917989599984139	decision	choicePhaseStart	2	111	51	foodImage.27	FOODEEG_Images\0263.jpg	NY	Left	No	0.917989599984139	0	452490	253
884.677734375	0	decision	response	2	111	51	foodImage.27	FOODEEG_Images\0263.jpg	NY	Left	No	0.917989599984139	0	452956	234
885.720703125	1	decision	trialStart	2	112	52	foodImage.78	FOODEEG_Images\0787.jpg	YN	Left	Yes	1.38887929997873	0	453490	251
886.765625	2	decision	foodImageDisplay	2	112	52	foodImage.78	FOODEEG_Images\0787.jpg	YN	Left	Yes	1.38887929997873	0	454025	252
888.833984375	1.38887929997873	decision	choicePhaseStart	2	112	52	foodImage.78	FOODEEG_Images\0787.jpg	YN	Left	Yes	1.38887929997873	0	455084	253
890.21484375	0	decision	response	2	112	52	foodImage.78	FOODEEG_Images\0787.jpg	YN	Left	Yes	1.38887929997873	0	455791	234
891.26171875	1	taste	trialStart	2	113	53	foodImage.2	FOODEEG_Images\0028.jpg	YN	Left	Yes	0.771153599955142	0	456327	251
892.302734375	2	taste	foodImageDisplay	2	113	53	foodImage.2	FOODEEG_Images\0028.jpg	YN	Left	Yes	0.771153599955142	0	456860	252
894.365234375	0.771153599955142	taste	choicePhaseStart	2	113	53	foodImage.2	FOODEEG_Images\0028.jpg	YN	Left	Yes	0.771153599955142	0	457916	253
895.126953125	0	taste	response	2	113	53	foodImage.2	FOODEEG_Images\0028.jpg	YN	Left	Yes	0.771153599955142	0	458306	234
896.169921875	1	taste	trialStart	2	114	54	foodImage.68	FOODEEG_Images\0685.jpg	YN	Left	Yes	0.649435200029984	0	458840	251
897.263671875	2	taste	foodImageDisplay	2	114	54	foodImage.68	FOODEEG_Images\0685.jpg	YN	Left	Yes	0.649435200029984	0	459400	252
899.33203125	0.649435200029984	taste	choicePhaseStart	2	114	54	foodImage.68	FOODEEG_Images\0685.jpg	YN	Left	Yes	0.649435200029984	0	460459	253
899.974609375	0	taste	response	2	114	54	foodImage.68	FOODEEG_Images\0685.jpg	YN	Left	Yes	0.649435200029984	0	460788	234
901.015625	1	decision	trialStart	2	115	55	foodImage.40	FOODEEG_Images\0373.jpg	YN	Left	Yes	0.59439260000363	0	461321	251
902.0625	2	decision	foodImageDisplay	2	115	55	foodImage.40	FOODEEG_Images\0373.jpg	YN	Left	Yes	0.59439260000363	0	461857	252
904.130859375	0.59439260000363	decision	choicePhaseStart	2	115	55	foodImage.40	FOODEEG_Images\0373.jpg	YN	Left	Yes	0.59439260000363	0	462916	253
904.716796875	0	decision	response	2	115	55	foodImage.40	FOODEEG_Images\0373.jpg	YN	Left	Yes	0.59439260000363	0	463216	234
905.759765625	1	decision	trialStart	2	116	56	foodImage.55	FOODEEG_Images\0567.jpg	YN	Right	No	0.45829350000713	0	463750	251
906.818359375	2	decision	foodImageDisplay	2	116	56	foodImage.55	FOODEEG_Images\0567.jpg	YN	Right	No	0.45829350000713	0	464292	252
908.880859375	0.45829350000713	decision	choicePhaseStart	2	116	56	foodImage.55	FOODEEG_Images\0567.jpg	YN	Right	No	0.45829350000713	0	465348	253
909.333984375	0	decision	response	2	116	56	foodImage.55	FOODEEG_Images\0567.jpg	YN	Right	No	0.45829350000713	0	465580	235
910.376953125	1	taste	trialStart	2	117	57	foodImage.65	FOODEEG_Images\0658.jpg	YN	Right	No	0.862321700085886	0	466114	251
911.42578125	2	taste	foodImageDisplay	2	117	57	foodImage.65	FOODEEG_Images\0658.jpg	YN	Right	No	0.862321700085886	0	466651	252
913.48828125	0.862321700085886	taste	choicePhaseStart	2	117	57	foodImage.65	FOODEEG_Images\0658.jpg	YN	Right	No	0.862321700085886	0	467707	253
914.341796875	0	taste	response	2	117	57	foodImage.65	FOODEEG_Images\0658.jpg	YN	Right	No	0.862321700085886	0	468144	235
915.3828125	1	decision	trialStart	2	118	58	foodImage.98	FOODEEG_Images\0906.jpg	YN	Right	No	0.616850699996576	0	468677	251
916.421875	2	decision	foodImageDisplay	2	118	58	foodImage.98	FOODEEG_Images\0906.jpg	YN	Right	No	0.616850699996576	0	469209	252
918.486328125	0.616850699996576	decision	choicePhaseStart	2	118	58	foodImage.98	FOODEEG_Images\0906.jpg	YN	Right	No	0.616850699996576	0	470266	253
919.09375	0	decision	response	2	118	58	foodImage.98	FOODEEG_Images\0906.jpg	YN	Right	No	0.616850699996576	0	470577	235
920.13671875	1	decision	trialStart	2	119	59	foodImage.15	FOODEEG_Images\0189.jpg	NY	Right	Yes	0.774626599973999	0	471111	251
921.193359375	2	decision	foodImageDisplay	2	119	59	foodImage.15	FOODEEG_Images\0189.jpg	NY	Right	Yes	0.774626599973999	0	471652	252
923.255859375	0.774626599973999	decision	choicePhaseStart	2	119	59	foodImage.15	FOODEEG_Images\0189.jpg	NY	Right	Yes	0.774626599973999	0	472708	253
924.021484375	0	decision	response	2	119	59	foodImage.15	FOODEEG_Images\0189.jpg	NY	Right	Yes	0.774626599973999	0	473100	235
925.064453125	1	taste	trialStart	2	120	60	foodImage.51	FOODEEG_Images\0536.jpg	NY	Right	Yes	0.522151299985126	0	473634	251
926.107421875	2	taste	foodImageDisplay	2	120	60	foodImage.51	FOODEEG_Images\0536.jpg	NY	Right	Yes	0.522151299985126	0	474168	252
928.169921875	0.522151299985126	taste	choicePhaseStart	2	120	60	foodImage.51	FOODEEG_Images\0536.jpg	NY	Right	Yes	0.522151299985126	0	475224	253
928.685546875	0	taste	response	2	120	60	foodImage.51	FOODEEG_Images\0536.jpg	NY	Right	Yes	0.522151299985126	0	475488	235
930.7265625	28.10546875	n/a	blockEnd	n/a	n/a	n/a	n/a	n/a	n/a	n/a	n/a	n/a	n/a	476533	254
958.83203125	2	n/a	blockStart	3	n/a	n/a	n/a	n/a	n/a	n/a	n/a	n/a	n/a	490923	250
960.8671875	1	taste	trialStart	3	121	1	foodImage.53	FOODEEG_Images\0547.jpg	NY	Right	Yes	0.494796999963	0	491965	251
961.92578125	2	taste	foodImageDisplay	3	121	1	foodImage.53	FOODEEG_Images\0547.jpg	NY	Right	Yes	0.494796999963	0	492507	252
963.990234375	0.494796999963	taste	choicePhaseStart	3	121	1	foodImage.53	FOODEEG_Images\0547.jpg	NY	Right	Yes	0.494796999963	0	493564	253
964.474609375	0	taste	response	3	121	1	foodImage.53	FOODEEG_Images\0547.jpg	NY	Right	Yes	0.494796999963	0	493812	235
965.517578125	1	health	trialStart	3	122	2	foodImage.2	FOODEEG_Images\0028.jpg	YN	Left	Yes	1.16015960008372	0	494346	251
966.55859375	2	health	foodImageDisplay	3	122	2	foodImage.2	FOODEEG_Images\0028.jpg	YN	Left	Yes	1.16015960008372	0	494879	252
968.626953125	1.16015960008372	health	choicePhaseStart	3	122	2	foodImage.2	FOODEEG_Images\0028.jpg	YN	Left	Yes	1.16015960008372	0	495938	253
969.779296875	0	health	response	3	122	2	foodImage.2	FOODEEG_Images\0028.jpg	YN	Left	Yes	1.16015960008372	0	496528	234
970.822265625	1	decision	trialStart	3	123	3	foodImage.118	FOODEEG_Images\0926.jpg	YN	Right	No	0.595596899976954	0	497062	251
971.859375	2	decision	foodImageDisplay	3	123	3	foodImage.118	FOODEEG_Images\0926.jpg	YN	Right	No	0.595596899976954	0	497593	252
973.927734375	0.595596899976954	decision	choicePhaseStart	3	123	3	foodImage.118	FOODEEG_Images\0926.jpg	YN	Right	No	0.595596899976954	0	498652	253
974.515625	0	decision	response	3	123	3	foodImage.118	FOODEEG_Images\0926.jpg	YN	Right	No	0.595596899976954	0	498953	235
975.55859375	1	health	trialStart	3	124	4	foodImage.70	FOODEEG_Images\0705.jpg	NY	Right	Yes	1.12488039990421	0	499487	251
976.615234375	2	health	foodImageDisplay	3	124	4	foodImage.70	FOODEEG_Images\0705.jpg	NY	Right	Yes	1.12488039990421	0	500028	252
978.6796875	1.12488039990421	health	choicePhaseStart	3	124	4	foodImage.70	FOODEEG_Images\0705.jpg	NY	Right	Yes	1.12488039990421	0	501085	253
979.794921875	0	health	response	3	124	4	foodImage.70	FOODEEG_Images\0705.jpg	NY	Right	Yes	1.12488039990421	0	501656	235
980.837890625	1	health	trialStart	3	125	5	foodImage.41	FOODEEG_Images\0409.jpg	NY	Right	Yes	0.574103499995545	0	502190	251
981.884765625	2	health	foodImageDisplay	3	125	5	foodImage.41	FOODEEG_Images\0409.jpg	NY	Right	Yes	0.574103499995545	0	502726	252
983.947265625	0.574103499995545	health	choicePhaseStart	3	125	5	foodImage.41	FOODEEG_Images\0409.jpg	NY	Right	Yes	0.574103499995545	0	503782	253
984.513671875	0	health	response	3	125	5	foodImage.41	FOODEEG_Images\0409.jpg	NY	Right	Yes	0.574103499995545	0	504072	235
985.55859375	1	decision	trialStart	3	126	6	foodImage.25	FOODEEG_Images\0261.jpg	YN	Right	No	0.713197499979287	0	504607	251
986.599609375	2	decision	foodImageDisplay	3	126	6	foodImage.25	FOODEEG_Images\0261.jpg	YN	Right	No	0.713197499979287	0	505140	252
988.671875	0.713197499979287	decision	choicePhaseStart	3	126	6	foodImage.25	FOODEEG_Images\0261.jpg	YN	Right	No	0.713197499979287	0	506201	253
989.37890625	0	decision	response	3	126	6	foodImage.25	FOODEEG_Images\0261.jpg	YN	Right	No	0.713197499979287	0	506563	235
990.421875	1	taste	trialStart	3	127	7	foodImage.78	FOODEEG_Images\0787.jpg	NY	Right	Yes	1.00447220006026	0	507097	251
991.46484375	2	taste	foodImageDisplay	3	127	7	foodImage.78	FOODEEG_Images\0787.jpg	NY	Right	Yes	1.00447220006026	0	507631	252
993.52734375	1.00447220006026	taste	choicePhaseStart	3	127	7	foodImage.78	FOODEEG_Images\0787.jpg	NY	Right	Yes	1.00447220006026	0	508687	253
994.521484375	0	taste	response	3	127	7	foodImage.78	FOODEEG_Images\0787.jpg	NY	Right	Yes	1.00447220006026	0	509196	235
995.564453125	1	decision	trialStart	3	128	8	foodImage.93	FOODEEG_Images\0901.jpg	NY	Left	No	1.16974239994306	0	509730	251
996.6015625	2	decision	foodImageDisplay	3	128	8	foodImage.93	FOODEEG_Images\0901.jpg	NY	Left	No	1.16974239994306	0	510261	252
998.666015625	1.16974239994306	decision	choicePhaseStart	3	128	8	foodImage.93	FOODEEG_Images\0901.jpg	NY	Left	No	1.16974239994306	0	511318	253
999.826171875	0	decision	response	3	128	8	foodImage.93	FOODEEG_Images\0901.jpg	NY	Left	No	1.16974239994306	0	511912	234
1000.8671875	1	taste	trialStart	3	129	9	foodImage.48	FOODEEG_Images\0494.jpg	YN	Left	Yes	0.986591699998826	0	512445	251
1001.908203125	2	taste	foodImageDisplay	3	129	9	foodImage.48	FOODEEG_Images\0494.jpg	YN	Left	Yes	0.986591699998826	0	512978	252
1003.982421875	0.986591699998826	taste	choicePhaseStart	3	129	9	foodImage.48	FOODEEG_Images\0494.jpg	YN	Left	Yes	0.986591699998826	0	514040	253
1004.9609375	0	taste	response	3	129	9	foodImage.48	FOODEEG_Images\0494.jpg	YN	Left	Yes	0.986591699998826	0	514541	234
1006.00390625	1	decision	trialStart	3	130	10	foodImage.77	FOODEEG_Images\0771.jpg	NY	Left	No	1.03409690002445	0	515075	251
1007.048828125	2	decision	foodImageDisplay	3	130	10	foodImage.77	FOODEEG_Images\0771.jpg	NY	Left	No	1.03409690002445	0	515610	252
1009.1171875	1.03409690002445	decision	choicePhaseStart	3	130	10	foodImage.77	FOODEEG_Images\0771.jpg	NY	Left	No	1.03409690002445	0	516669	253
1010.146484375	0	decision	response	3	130	10	foodImage.77	FOODEEG_Images\0771.jpg	NY	Left	No	1.03409690002445	0	517196	234
1011.1875	1	health	trialStart	3	131	11	foodImage.14	FOODEEG_Images\0188.jpg	YN	Right	No	0.790100499987602	0	517729	251
1012.24609375	2	health	foodImageDisplay	3	131	11	foodImage.14	FOODEEG_Images\0188.jpg	YN	Right	No	0.790100499987602	0	518271	252
1014.30859375	0.790100499987602	health	choicePhaseStart	3	131	11	foodImage.14	FOODEEG_Images\0188.jpg	YN	Right	No	0.790100499987602	0	519327	253
1015.08984375	0	health	response	3	131	11	foodImage.14	FOODEEG_Images\0188.jpg	YN	Right	No	0.790100499987602	0	519727	235
1016.1328125	1	taste	trialStart	3	132	12	foodImage.9	FOODEEG_Images\0138.jpg	YN	Left	Yes	0.945197600056417	0	520261	251
1017.197265625	2	taste	foodImageDisplay	3	132	12	foodImage.9	FOODEEG_Images\0138.jpg	YN	Left	Yes	0.945197600056417	0	520806	252
1019.265625	0.945197600056417	taste	choicePhaseStart	3	132	12	foodImage.9	FOODEEG_Images\0138.jpg	YN	Left	Yes	0.945197600056417	0	521865	253
1020.201171875	0	taste	response	3	132	12	foodImage.9	FOODEEG_Images\0138.jpg	YN	Left	Yes	0.945197600056417	0	522344	234
1021.24609375	1	health	trialStart	3	133	13	foodImage.43	FOODEEG_Images\0445.jpg	NY	Right	Yes	1.07339689997025	0	522879	251
1022.3046875	2	health	foodImageDisplay	3	133	13	foodImage.43	FOODEEG_Images\0445.jpg	NY	Right	Yes	1.07339689997025	0	523421	252
1024.369140625	1.07339689997025	health	choicePhaseStart	3	133	13	foodImage.43	FOODEEG_Images\0445.jpg	NY	Right	Yes	1.07339689997025	0	524478	253
1025.43359375	0	health	response	3	133	13	foodImage.43	FOODEEG_Images\0445.jpg	NY	Right	Yes	1.07339689997025	0	525023	235
1026.474609375	1	health	trialStart	3	134	14	foodImage.60	FOODEEG_Images\0614.jpg	NY	Right	Yes	0.853739799931645	0	525556	251
1027.533203125	2	health	foodImageDisplay	3	134	14	foodImage.60	FOODEEG_Images\0614.jpg	NY	Right	Yes	0.853739799931645	0	526098	252
1029.595703125	0.853739799931645	health	choicePhaseStart	3	134	14	foodImage.60	FOODEEG_Images\0614.jpg	NY	Right	Yes	0.853739799931645	0	527154	253
1030.44140625	0	health	response	3	134	14	foodImage.60	FOODEEG_Images\0614.jpg	NY	Right	Yes	0.853739799931645	0	527587	235
1031.484375	1	decision	trialStart	3	135	15	foodImage.48	FOODEEG_Images\0494.jpg	YN	Left	Yes	1.57294700003695	0	528121	251
1032.525390625	2	decision	foodImageDisplay	3	135	15	foodImage.48	FOODEEG_Images\0494.jpg	YN	Left	Yes	1.57294700003695	0	528654	252
1034.587890625	1.57294700003695	decision	choicePhaseStart	3	135	15	foodImage.48	FOODEEG_Images\0494.jpg	YN	Left	Yes	1.57294700003695	0	529710	253
1036.15234375	0	decision	response	3	135	15	foodImage.48	FOODEEG_Images\0494.jpg	YN	Left	Yes	1.57294700003695	0	530511	234
1037.1953125	1	health	trialStart	3	136	16	foodImage.72	FOODEEG_Images\0714.jpg	YN	Left	Yes	1.01933549996465	0	531045	251
1038.236328125	2	health	foodImageDisplay	3	136	16	foodImage.72	FOODEEG_Images\0714.jpg	YN	Left	Yes	1.01933549996465	0	531578	252
1040.306640625	1.01933549996465	health	choicePhaseStart	3	136	16	foodImage.72	FOODEEG_Images\0714.jpg	YN	Left	Yes	1.01933549996465	0	532638	253
1041.3203125	0	health	response	3	136	16	foodImage.72	FOODEEG_Images\0714.jpg	YN	Left	Yes	1.01933549996465	0	533157	234
1042.361328125	1	decision	trialStart	3	137	17	foodImage.105	FOODEEG_Images\0913.jpg	NY	Left	No	0.595145700033754	0	533690	251
1043.400390625	2	decision	foodImageDisplay	3	137	17	foodImage.105	FOODEEG_Images\0913.jpg	NY	Left	No	0.595145700033754	0	534222	252
1045.466796875	0.595145700033754	decision	choicePhaseStart	3	137	17	foodImage.105	FOODEEG_Images\0913.jpg	NY	Left	No	0.595145700033754	0	535280	253
1046.056640625	0	decision	response	3	137	17	foodImage.105	FOODEEG_Images\0913.jpg	NY	Left	No	0.595145700033754	0	535582	234
1047.099609375	1	taste	trialStart	3	138	18	foodImage.107	FOODEEG_Images\0915.jpg	NY	Left	No	0.832935900078155	0	536116	251
1048.13671875	2	taste	foodImageDisplay	3	138	18	foodImage.107	FOODEEG_Images\0915.jpg	NY	Left	No	0.832935900078155	0	536647	252
1050.19921875	0.832935900078155	taste	choicePhaseStart	3	138	18	foodImage.107	FOODEEG_Images\0915.jpg	NY	Left	No	0.832935900078155	0	537703	253
1051.0234375	0	taste	response	3	138	18	foodImage.107	FOODEEG_Images\0915.jpg	NY	Left	No	0.832935900078155	0	538125	234
1052.06640625	1	decision	trialStart	3	139	19	foodImage.59	FOODEEG_Images\0607.jpg	YN	Left	Yes	0.960018799989484	0	538659	251
1053.11328125	2	decision	foodImageDisplay	3	139	19	foodImage.59	FOODEEG_Images\0607.jpg	YN	Left	Yes	0.960018799989484	0	539195	252
1055.17578125	0.960018799989484	decision	choicePhaseStart	3	139	19	foodImage.59	FOODEEG_Images\0607.jpg	YN	Left	Yes	0.960018799989484	0	540251	253
1056.126953125	0	decision	response	3	139	19	foodImage.59	FOODEEG_Images\0607.jpg	YN	Left	Yes	0.960018799989484	0	540738	234
1057.169921875	1	decision	trialStart	3	140	20	foodImage.51	FOODEEG_Images\0536.jpg	NY	Right	Yes	0.756854400038719	0	541272	251
1058.212890625	2	decision	foodImageDisplay	3	140	20	foodImage.51	FOODEEG_Images\0536.jpg	NY	Right	Yes	0.756854400038719	0	541806	252
1060.27734375	0.756854400038719	decision	choicePhaseStart	3	140	20	foodImage.51	FOODEEG_Images\0536.jpg	NY	Right	Yes	0.756854400038719	0	542863	253
1061.0234375	0	decision	response	3	140	20	foodImage.51	FOODEEG_Images\0536.jpg	NY	Right	Yes	0.756854400038719	0	543245	235
1062.06640625	1	decision	trialStart	3	141	21	foodImage.87	FOODEEG_Images\0873.jpg	YN	n/a	n/a	0.814728899975307	0	543779	251
1063.125	2	decision	foodImageDisplay	3	141	21	foodImage.87	FOODEEG_Images\0873.jpg	YN	Right	No	0.814728899975307	0	544321	252
1065.1875	0.814728899975307	decision	choicePhaseStart	3	141	21	foodImage.87	FOODEEG_Images\0873.jpg	YN	Right	No	0.814728899975307	0	545377	253
1065.990234375	1	decision	trialStart	3	142	21	foodImage.87	FOODEEG_Images\0873.jpg	YN	Right	No	0.810123699950054	0	545788	251
1065.9921875	0	decision	response	3	142	21	foodImage.87	FOODEEG_Images\0873.jpg	YN	Right	No	0.810123699950054	0	545789	235
1067.033203125	1	taste	trialStart	3	143	22	foodImage.102	FOODEEG_Images\0910.jpg	YN	Right	No	0.569455799995922	0	546322	251
1068.080078125	2	taste	foodImageDisplay	3	143	22	foodImage.102	FOODEEG_Images\0910.jpg	YN	Right	No	0.569455799995922	0	546858	252
1070.1484375	0.569455799995922	taste	choicePhaseStart	3	143	22	foodImage.102	FOODEEG_Images\0910.jpg	YN	Right	No	0.569455799995922	0	547917	253
1070.951171875	0	taste	response	3	143	22	foodImage.102	FOODEEG_Images\0910.jpg	YN	Right	No	0.569455799995922	0	548328	235
1071.994140625	1	taste	trialStart	3	144	23	foodImage.109	FOODEEG_Images\0917.jpg	YN	Right	No	1.45988219999708	0	548862	251
1073.03125	2	taste	foodImageDisplay	3	144	23	foodImage.109	FOODEEG_Images\0917.jpg	YN	Right	No	1.45988219999708	0	549393	252
1075.095703125	1.45988219999708	taste	choicePhaseStart	3	144	23	foodImage.109	FOODEEG_Images\0917.jpg	YN	Right	No	1.45988219999708	0	550450	253
1075.654296875	0	taste	response	3	144	23	foodImage.109	FOODEEG_Images\0917.jpg	YN	Right	No	1.45988219999708	0	550736	235
1076.697265625	1	taste	trialStart	3	145	24	foodImage.108	FOODEEG_Images\0916.jpg	NY	Left	No	0.501473799929954	0	551270	251
1077.734375	2	taste	foodImageDisplay	3	145	24	foodImage.108	FOODEEG_Images\0916.jpg	NY	Left	No	0.501473799929954	0	551801	252
1079.8046875	0.501473799929954	taste	choicePhaseStart	3	145	24	foodImage.108	FOODEEG_Images\0916.jpg	NY	Left	No	0.501473799929954	0	552861	253
1081.25390625	0	taste	response	3	145	24	foodImage.108	FOODEEG_Images\0916.jpg	NY	Left	No	0.501473799929954	0	553603	234
1082.294921875	1	taste	trialStart	3	146	25	foodImage.33	FOODEEG_Images\0329.jpg	NY	Right	Yes	0.950669500045478	0	554136	251
1083.3359375	2	taste	foodImageDisplay	3	146	25	foodImage.33	FOODEEG_Images\0329.jpg	NY	Right	Yes	0.950669500045478	0	554669	252
1085.400390625	0.950669500045478	taste	choicePhaseStart	3	146	25	foodImage.33	FOODEEG_Images\0329.jpg	NY	Right	Yes	0.950669500045478	0	555726	253
1085.89453125	0	taste	response	3	146	25	foodImage.33	FOODEEG_Images\0329.jpg	NY	Right	Yes	0.950669500045478	0	555979	235
1086.9375	1	decision	trialStart	3	147	26	foodImage.46	FOODEEG_Images\0479.jpg	YN	Right	No	0.619702199939638	0	556513	251
1087.994140625	2	decision	foodImageDisplay	3	147	26	foodImage.46	FOODEEG_Images\0479.jpg	YN	Right	No	0.619702199939638	0	557054	252
1090.056640625	0.619702199939638	decision	choicePhaseStart	3	147	26	foodImage.46	FOODEEG_Images\0479.jpg	YN	Right	No	0.619702199939638	0	558110	253
1090.998046875	0	decision	response	3	147	26	foodImage.46	FOODEEG_Images\0479.jpg	YN	Right	No	0.619702199939638	0	558592	235
1092.041015625	1	taste	trialStart	3	148	27	foodImage.56	FOODEEG_Images\0586.jpg	YN	Left	Yes	0.941957500064746	0	559126	251
1093.083984375	2	taste	foodImageDisplay	3	148	27	foodImage.56	FOODEEG_Images\0586.jpg	YN	Left	Yes	0.941957500064746	0	559660	252
1095.1484375	0.941957500064746	taste	choicePhaseStart	3	148	27	foodImage.56	FOODEEG_Images\0586.jpg	YN	Left	Yes	0.941957500064746	0	560717	253
1095.7578125	0	taste	response	3	148	27	foodImage.56	FOODEEG_Images\0586.jpg	YN	Left	Yes	0.941957500064746	0	561029	234
1096.802734375	1	taste	trialStart	3	149	28	foodImage.22	FOODEEG_Images\0236.jpg	NY	Right	Yes	0.923290999955498	0	561564	251
1097.84375	2	taste	foodImageDisplay	3	149	28	foodImage.22	FOODEEG_Images\0236.jpg	NY	Right	Yes	0.923290999955498	0	562097	252
1099.912109375	0.923290999955498	taste	choicePhaseStart	3	149	28	foodImage.22	FOODEEG_Images\0236.jpg	NY	Right	Yes	0.923290999955498	0	563156	253
1100.845703125	0	taste	response	3	149	28	foodImage.22	FOODEEG_Images\0236.jpg	NY	Right	Yes	0.923290999955498	0	563634	235
1101.888671875	1	health	trialStart	3	150	29	foodImage.99	FOODEEG_Images\0907.jpg	NY	Left	No	1.06982900004368	0	564168	251
1102.927734375	2	health	foodImageDisplay	3	150	29	foodImage.99	FOODEEG_Images\0907.jpg	NY	Left	No	1.06982900004368	0	564700	252
1104.99609375	1.06982900004368	health	choicePhaseStart	3	150	29	foodImage.99	FOODEEG_Images\0907.jpg	NY	Left	No	1.06982900004368	0	565759	253
1105.91015625	0	health	response	3	150	29	foodImage.99	FOODEEG_Images\0907.jpg	NY	Left	No	1.06982900004368	0	566227	234
1106.953125	1	health	trialStart	3	151	30	foodImage.101	FOODEEG_Images\0909.jpg	YN	Right	No	1.04616149992216	0	566761	251
1107.990234375	2	health	foodImageDisplay	3	151	30	foodImage.101	FOODEEG_Images\0909.jpg	YN	Right	No	1.04616149992216	0	567292	252
1110.056640625	1.04616149992216	health	choicePhaseStart	3	151	30	foodImage.101	FOODEEG_Images\0909.jpg	YN	Right	No	1.04616149992216	0	568350	253
1111.1171875	0	health	response	3	151	30	foodImage.101	FOODEEG_Images\0909.jpg	YN	Right	No	1.04616149992216	0	568893	235
1112.16015625	1	decision	trialStart	3	152	31	foodImage.73	FOODEEG_Images\0717.jpg	NY	Left	No	0.971708500059322	0	569427	251
1113.216796875	2	decision	foodImageDisplay	3	152	31	foodImage.73	FOODEEG_Images\0717.jpg	NY	Left	No	0.971708500059322	0	569968	252
1115.287109375	0.971708500059322	decision	choicePhaseStart	3	152	31	foodImage.73	FOODEEG_Images\0717.jpg	NY	Left	No	0.971708500059322	0	571028	253
1116.326171875	0	decision	response	3	152	31	foodImage.73	FOODEEG_Images\0717.jpg	NY	Left	No	0.971708500059322	0	571560	234
1117.369140625	1	decision	trialStart	3	153	32	foodImage.14	FOODEEG_Images\0188.jpg	YN	Right	No	0.617890099994838	0	572094	251
1118.427734375	2	decision	foodImageDisplay	3	153	32	foodImage.14	FOODEEG_Images\0188.jpg	YN	Right	No	0.617890099994838	0	572636	252
1120.490234375	0.617890099994838	decision	choicePhaseStart	3	153	32	foodImage.14	FOODEEG_Images\0188.jpg	YN	Right	No	0.617890099994838	0	573692	253
1121.453125	0	decision	response	3	153	32	foodImage.14	FOODEEG_Images\0188.jpg	YN	Right	No	0.617890099994838	0	574185	235
1122.49609375	1	decision	trialStart	3	154	33	foodImage.102	FOODEEG_Images\0910.jpg	YN	Right	No	0.924590499955229	0	574719	251
1123.53515625	2	decision	foodImageDisplay	3	154	33	foodImage.102	FOODEEG_Images\0910.jpg	YN	Right	No	0.924590499955229	0	575251	252
1125.59765625	0.924590499955229	decision	choicePhaseStart	3	154	33	foodImage.102	FOODEEG_Images\0910.jpg	YN	Right	No	0.924590499955229	0	576307	253
1126.205078125	0	decision	response	3	154	33	foodImage.102	FOODEEG_Images\0910.jpg	YN	Right	No	0.924590499955229	0	576618	235
1127.248046875	1	health	trialStart	3	155	34	foodImage.53	FOODEEG_Images\0547.jpg	NY	Left	No	0.709368000039831	0	577152	251
1128.306640625	2	health	foodImageDisplay	3	155	34	foodImage.53	FOODEEG_Images\0547.jpg	NY	Left	No	0.709368000039831	0	577694	252
1130.375	0.709368000039831	health	choicePhaseStart	3	155	34	foodImage.53	FOODEEG_Images\0547.jpg	NY	Left	No	0.709368000039831	0	578753	253
1131.29296875	0	health	response	3	155	34	foodImage.53	FOODEEG_Images\0547.jpg	NY	Left	No	0.709368000039831	0	579223	234
1132.3359375	1	health	trialStart	3	156	35	foodImage.5	FOODEEG_Images\0107.jpg	NY	Left	No	0.660954300081357	0	579757	251
1133.390625	2	health	foodImageDisplay	3	156	35	foodImage.5	FOODEEG_Images\0107.jpg	NY	Left	No	0.660954300081357	0	580297	252
1135.45703125	0.660954300081357	health	choicePhaseStart	3	156	35	foodImage.5	FOODEEG_Images\0107.jpg	NY	Left	No	0.660954300081357	0	581355	253
1136.15625	0	health	response	3	156	35	foodImage.5	FOODEEG_Images\0107.jpg	NY	Left	No	0.660954300081357	0	581713	234
1137.19921875	1	decision	trialStart	3	157	36	foodImage.35	FOODEEG_Images\0350.jpg	YN	Left	Yes	0.53881579998415	0	582247	251
1138.23828125	2	decision	foodImageDisplay	3	157	36	foodImage.35	FOODEEG_Images\0350.jpg	YN	Left	Yes	0.53881579998415	0	582779	252
1140.3046875	0.53881579998415	decision	choicePhaseStart	3	157	36	foodImage.35	FOODEEG_Images\0350.jpg	YN	Left	Yes	0.53881579998415	0	583837	253
1140.95703125	0	decision	response	3	157	36	foodImage.35	FOODEEG_Images\0350.jpg	YN	Left	Yes	0.53881579998415	0	584171	234
1141.998046875	1	taste	trialStart	3	158	37	foodImage.86	FOODEEG_Images\0844.jpg	NY	Right	Yes	0.566130200051703	0	584704	251
1143.0625	2	taste	foodImageDisplay	3	158	37	foodImage.86	FOODEEG_Images\0844.jpg	NY	Right	Yes	0.566130200051703	0	585249	252
1145.130859375	0.566130200051703	taste	choicePhaseStart	3	158	37	foodImage.86	FOODEEG_Images\0844.jpg	NY	Right	Yes	0.566130200051703	0	586308	253
1145.66015625	0	taste	response	3	158	37	foodImage.86	FOODEEG_Images\0844.jpg	NY	Right	Yes	0.566130200051703	0	586579	235
1146.703125	1	health	trialStart	3	159	38	foodImage.52	FOODEEG_Images\0539.jpg	NY	Right	Yes	1.25778929993976	0	587113	251
1147.76171875	2	health	foodImageDisplay	3	159	38	foodImage.52	FOODEEG_Images\0539.jpg	NY	Right	Yes	1.25778929993976	0	587655	252
1149.822265625	1.25778929993976	health	choicePhaseStart	3	159	38	foodImage.52	FOODEEG_Images\0539.jpg	NY	Right	Yes	1.25778929993976	0	588710	253
1150.380859375	0	health	response	3	159	38	foodImage.52	FOODEEG_Images\0539.jpg	NY	Right	Yes	1.25778929993976	0	588996	235
1151.421875	1	health	trialStart	3	160	39	foodImage.108	FOODEEG_Images\0916.jpg	YN	Left	Yes	0.54308360000141	0	589529	251
1152.4609375	2	health	foodImageDisplay	3	160	39	foodImage.108	FOODEEG_Images\0916.jpg	YN	Left	Yes	0.54308360000141	0	590061	252
1154.529296875	0.54308360000141	health	choicePhaseStart	3	160	39	foodImage.108	FOODEEG_Images\0916.jpg	YN	Left	Yes	0.54308360000141	0	591120	253
1155.779296875	0	health	response	3	160	39	foodImage.108	FOODEEG_Images\0916.jpg	YN	Left	Yes	0.54308360000141	0	591760	234
1156.822265625	1	health	trialStart	3	161	40	foodImage.24	FOODEEG_Images\0250.jpg	YN	Left	Yes	1.35403639997821	0	592294	251
1157.86328125	2	health	foodImageDisplay	3	161	40	foodImage.24	FOODEEG_Images\0250.jpg	YN	Left	Yes	1.35403639997821	0	592827	252
1159.92578125	1.35403639997821	health	choicePhaseStart	3	161	40	foodImage.24	FOODEEG_Images\0250.jpg	YN	Left	Yes	1.35403639997821	0	593883	253
1160.458984375	0	health	response	3	161	40	foodImage.24	FOODEEG_Images\0250.jpg	YN	Left	Yes	1.35403639997821	0	594156	234
1161.501953125	1	health	trialStart	3	162	41	foodImage.4	FOODEEG_Images\0065.jpg	NY	Left	No	1.41750989994034	0	594690	251
1162.5625	2	health	foodImageDisplay	3	162	41	foodImage.4	FOODEEG_Images\0065.jpg	NY	Left	No	1.41750989994034	0	595233	252
1164.626953125	1.41750989994034	health	choicePhaseStart	3	162	41	foodImage.4	FOODEEG_Images\0065.jpg	NY	Left	No	1.41750989994034	0	596290	253
1165.970703125	0	health	response	3	162	41	foodImage.4	FOODEEG_Images\0065.jpg	NY	Left	No	1.41750989994034	0	596978	234
1167.013671875	1	taste	trialStart	3	163	42	foodImage.92	FOODEEG_Images\0900.jpg	YN	Right	No	1.03854009998031	0	597512	251
1168.052734375	2	taste	foodImageDisplay	3	163	42	foodImage.92	FOODEEG_Images\0900.jpg	YN	Right	No	1.03854009998031	0	598044	252
1170.115234375	1.03854009998031	taste	choicePhaseStart	3	163	42	foodImage.92	FOODEEG_Images\0900.jpg	YN	Right	No	1.03854009998031	0	599100	253
1171.5234375	0	taste	response	3	163	42	foodImage.92	FOODEEG_Images\0900.jpg	YN	Right	No	1.03854009998031	0	599821	235
1172.56640625	1	taste	trialStart	3	164	43	foodImage.16	FOODEEG_Images\0196.jpg	NY	Left	No	0.596529499976896	0	600355	251
1173.625	2	taste	foodImageDisplay	3	164	43	foodImage.16	FOODEEG_Images\0196.jpg	NY	Left	No	0.596529499976896	0	600897	252
1175.685546875	0.596529499976896	taste	choicePhaseStart	3	164	43	foodImage.16	FOODEEG_Images\0196.jpg	NY	Left	No	0.596529499976896	0	601952	253
1176.71484375	0	taste	response	3	164	43	foodImage.16	FOODEEG_Images\0196.jpg	NY	Left	No	0.596529499976896	0	602479	234
1177.759765625	1	decision	trialStart	3	165	44	foodImage.8	FOODEEG_Images\0136.jpg	YN	Right	No	0.588451800053008	0	603014	251
1178.81640625	2	decision	foodImageDisplay	3	165	44	foodImage.8	FOODEEG_Images\0136.jpg	YN	Right	No	0.588451800053008	0	603555	252
1180.884765625	0.588451800053008	decision	choicePhaseStart	3	165	44	foodImage.8	FOODEEG_Images\0136.jpg	YN	Right	No	0.588451800053008	0	604614	253
1181.474609375	0	decision	response	3	165	44	foodImage.8	FOODEEG_Images\0136.jpg	YN	Right	No	0.588451800053008	0	604916	235
1182.517578125	1	health	trialStart	3	166	45	foodImage.30	FOODEEG_Images\0282.jpg	NY	Right	Yes	0.655237899976783	0	605450	251
1183.560546875	2	health	foodImageDisplay	3	166	45	foodImage.30	FOODEEG_Images\0282.jpg	NY	Right	Yes	0.655237899976783	0	605984	252
1185.623046875	0.655237899976783	health	choicePhaseStart	3	166	45	foodImage.30	FOODEEG_Images\0282.jpg	NY	Right	Yes	0.655237899976783	0	607040	253
1186.203125	0	health	response	3	166	45	foodImage.30	FOODEEG_Images\0282.jpg	NY	Right	Yes	0.655237899976783	0	607337	235
1187.24609375	1	health	trialStart	3	167	46	foodImage.81	FOODEEG_Images\0797.jpg	NY	Right	Yes	0.702173999976367	0	607871	251
1188.302734375	2	health	foodImageDisplay	3	167	46	foodImage.81	FOODEEG_Images\0797.jpg	NY	Right	Yes	0.702173999976367	0	608412	252
1190.37109375	0.702173999976367	health	choicePhaseStart	3	167	46	foodImage.81	FOODEEG_Images\0797.jpg	NY	Right	Yes	0.702173999976367	0	609471	253
1191.01953125	0	health	response	3	167	46	foodImage.81	FOODEEG_Images\0797.jpg	NY	Right	Yes	0.702173999976367	0	609803	235
1192.060546875	1	health	trialStart	3	168	47	foodImage.26	FOODEEG_Images\0262.jpg	YN	Left	Yes	0.67012889997568	0	610336	251
1193.1015625	2	health	foodImageDisplay	3	168	47	foodImage.26	FOODEEG_Images\0262.jpg	YN	Left	Yes	0.67012889997568	0	610869	252
1195.166015625	0.67012889997568	health	choicePhaseStart	3	168	47	foodImage.26	FOODEEG_Images\0262.jpg	YN	Left	Yes	0.67012889997568	0	611926	253
1195.859375	0	health	response	3	168	47	foodImage.26	FOODEEG_Images\0262.jpg	YN	Left	Yes	0.67012889997568	0	612281	234
1196.900390625	1	decision	trialStart	3	169	48	foodImage.29	FOODEEG_Images\0278.jpg	YN	Right	No	0.704419699963182	0	612814	251
1197.94140625	2	decision	foodImageDisplay	3	169	48	foodImage.29	FOODEEG_Images\0278.jpg	YN	Right	No	0.704419699963182	0	613347	252
1200.005859375	0.704419699963182	decision	choicePhaseStart	3	169	48	foodImage.29	FOODEEG_Images\0278.jpg	YN	Right	No	0.704419699963182	0	614404	253
1200.666015625	0	decision	response	3	169	48	foodImage.29	FOODEEG_Images\0278.jpg	YN	Right	No	0.704419699963182	0	614742	235
1201.708984375	1	taste	trialStart	3	170	49	foodImage.66	FOODEEG_Images\0676.jpg	NY	Right	Yes	0.674138700007461	0	615276	251
1202.75	2	taste	foodImageDisplay	3	170	49	foodImage.66	FOODEEG_Images\0676.jpg	NY	Right	Yes	0.674138700007461	0	615809	252
1204.818359375	0.674138700007461	taste	choicePhaseStart	3	170	49	foodImage.66	FOODEEG_Images\0676.jpg	NY	Right	Yes	0.674138700007461	0	616868	253
1205.513671875	0	taste	response	3	170	49	foodImage.66	FOODEEG_Images\0676.jpg	NY	Right	Yes	0.674138700007461	0	617224	235
1206.556640625	1	decision	trialStart	3	171	50	foodImage.110	FOODEEG_Images\0918.jpg	NY	Left	No	0.664004400023259	0	617758	251
1207.59375	2	decision	foodImageDisplay	3	171	50	foodImage.110	FOODEEG_Images\0918.jpg	NY	Left	No	0.664004400023259	0	618289	252
1209.65625	0.664004400023259	decision	choicePhaseStart	3	171	50	foodImage.110	FOODEEG_Images\0918.jpg	NY	Left	No	0.664004400023259	0	619345	253
1210.322265625	0	decision	response	3	171	50	foodImage.110	FOODEEG_Images\0918.jpg	NY	Left	No	0.664004400023259	0	619686	234
1211.365234375	1	taste	trialStart	3	172	51	foodImage.38	FOODEEG_Images\0365.jpg	NY	Right	Yes	0.743034900049679	0	620220	251
1212.40234375	2	taste	foodImageDisplay	3	172	51	foodImage.38	FOODEEG_Images\0365.jpg	NY	Right	Yes	0.743034900049679	0	620751	252
1214.470703125	0.743034900049679	taste	choicePhaseStart	3	172	51	foodImage.38	FOODEEG_Images\0365.jpg	NY	Right	Yes	0.743034900049679	0	621810	253
1215.12890625	0	taste	response	3	172	51	foodImage.38	FOODEEG_Images\0365.jpg	NY	Right	Yes	0.743034900049679	0	622147	235
1216.171875	1	taste	trialStart	3	173	52	foodImage.29	FOODEEG_Images\0278.jpg	YN	Right	No	0.944258300005458	0	622681	251
1217.212890625	2	taste	foodImageDisplay	3	173	52	foodImage.29	FOODEEG_Images\0278.jpg	YN	Right	No	0.944258300005458	0	623214	252
1219.275390625	0.944258300005458	taste	choicePhaseStart	3	173	52	foodImage.29	FOODEEG_Images\0278.jpg	YN	Right	No	0.944258300005458	0	624270	253
1220.009765625	0	taste	response	3	173	52	foodImage.29	FOODEEG_Images\0278.jpg	YN	Right	No	0.944258300005458	0	624646	235
1221.052734375	1	health	trialStart	3	174	53	foodImage.39	FOODEEG_Images\0367.jpg	YN	Right	No	0.606179700000212	0	625180	251
1222.08984375	2	health	foodImageDisplay	3	174	53	foodImage.39	FOODEEG_Images\0367.jpg	YN	Right	No	0.606179700000212	0	625711	252
1224.16015625	0.606179700000212	health	choicePhaseStart	3	174	53	foodImage.39	FOODEEG_Images\0367.jpg	YN	Right	No	0.606179700000212	0	626771	253
1225.09765625	0	health	response	3	174	53	foodImage.39	FOODEEG_Images\0367.jpg	YN	Right	No	0.606179700000212	0	627251	235
1226.140625	1	taste	trialStart	3	175	54	foodImage.24	FOODEEG_Images\0250.jpg	NY	Right	Yes	1.59788769995794	0	627785	251
1227.181640625	2	taste	foodImageDisplay	3	175	54	foodImage.24	FOODEEG_Images\0250.jpg	NY	Right	Yes	1.59788769995794	0	628318	252
1229.244140625	1.59788769995794	taste	choicePhaseStart	3	175	54	foodImage.24	FOODEEG_Images\0250.jpg	NY	Right	Yes	1.59788769995794	0	629374	253
1229.841796875	0	taste	response	3	175	54	foodImage.24	FOODEEG_Images\0250.jpg	NY	Right	Yes	1.59788769995794	0	629680	235
1230.884765625	1	taste	trialStart	3	176	55	foodImage.12	FOODEEG_Images\0181.jpg	NY	Right	Yes	2.21972380008083	0	630214	251
1231.92578125	2	taste	foodImageDisplay	3	176	55	foodImage.12	FOODEEG_Images\0181.jpg	NY	Right	Yes	2.21972380008083	0	630747	252
1233.98828125	2.21972380008083	taste	choicePhaseStart	3	176	55	foodImage.12	FOODEEG_Images\0181.jpg	NY	Right	Yes	2.21972380008083	0	631803	253
1235.576171875	0	taste	response	3	176	55	foodImage.12	FOODEEG_Images\0181.jpg	NY	Right	Yes	2.21972380008083	0	632616	235
1236.6171875	1	health	trialStart	3	177	56	foodImage.10	FOODEEG_Images\0145.jpg	YN	Left	Yes	0.794018700020388	0	633149	251
1237.67578125	2	health	foodImageDisplay	3	177	56	foodImage.10	FOODEEG_Images\0145.jpg	YN	Left	Yes	0.794018700020388	0	633691	252
1239.7421875	0.794018700020388	health	choicePhaseStart	3	177	56	foodImage.10	FOODEEG_Images\0145.jpg	YN	Left	Yes	0.794018700020388	0	634749	253
1241.953125	0	health	response	3	177	56	foodImage.10	FOODEEG_Images\0145.jpg	YN	Left	Yes	0.794018700020388	0	635881	234
1243	1	health	trialStart	3	178	57	foodImage.83	FOODEEG_Images\0827.jpg	NY	Right	Yes	0.581679000053555	0	636417	251
1244.056640625	2	health	foodImageDisplay	3	178	57	foodImage.83	FOODEEG_Images\0827.jpg	NY	Right	Yes	0.581679000053555	0	636958	252
1246.119140625	0.581679000053555	health	choicePhaseStart	3	178	57	foodImage.83	FOODEEG_Images\0827.jpg	NY	Right	Yes	0.581679000053555	0	638014	253
1246.904296875	0	health	response	3	178	57	foodImage.83	FOODEEG_Images\0827.jpg	NY	Right	Yes	0.581679000053555	0	638416	235
1247.947265625	1	taste	trialStart	3	179	58	foodImage.40	FOODEEG_Images\0373.jpg	NY	Right	Yes	0.679142000037245	0	638950	251
1248.98828125	2	taste	foodImageDisplay	3	179	58	foodImage.40	FOODEEG_Images\0373.jpg	NY	Right	Yes	0.679142000037245	0	639483	252
1251.052734375	0.679142000037245	taste	choicePhaseStart	3	179	58	foodImage.40	FOODEEG_Images\0373.jpg	NY	Right	Yes	0.679142000037245	0	640540	253
1251.625	0	taste	response	3	179	58	foodImage.40	FOODEEG_Images\0373.jpg	NY	Right	Yes	0.679142000037245	0	640833	235
1252.66796875	1	decision	trialStart	3	180	59	foodImage.101	FOODEEG_Images\0909.jpg	YN	Right	No	0.964264199952595	0	641367	251
1253.70703125	2	decision	foodImageDisplay	3	180	59	foodImage.101	FOODEEG_Images\0909.jpg	YN	Right	No	0.964264199952595	0	641899	252
1255.775390625	0.964264199952595	decision	choicePhaseStart	3	180	59	foodImage.101	FOODEEG_Images\0909.jpg	YN	Right	No	0.964264199952595	0	642958	253
1256.447265625	0	decision	response	3	180	59	foodImage.101	FOODEEG_Images\0909.jpg	YN	Right	No	0.964264199952595	0	643302	235
1257.494140625	1	health	trialStart	3	181	60	foodImage.120	FOODEEG_Images\0928.jpg	NY	Left	No	0.999896500026807	0	643838	251
1258.53515625	2	health	foodImageDisplay	3	181	60	foodImage.120	FOODEEG_Images\0928.jpg	NY	Left	No	0.999896500026807	0	644371	252
1260.595703125	0.999896500026807	health	choicePhaseStart	3	181	60	foodImage.120	FOODEEG_Images\0928.jpg	NY	Left	No	0.999896500026807	0	645426	253
1261.55078125	0	health	response	3	181	60	foodImage.120	FOODEEG_Images\0928.jpg	NY	Left	No	0.999896500026807	0	645915	234
1263.59765625	46.4609375	n/a	blockEnd	n/a	n/a	n/a	n/a	n/a	n/a	n/a	n/a	n/a	n/a	646963	254
1310.05859375	2	n/a	blockStart	4	n/a	n/a	n/a	n/a	n/a	n/a	n/a	n/a	n/a	670751	250
1312.091796875	1	taste	trialStart	4	182	1	foodImage.60	FOODEEG_Images\0614.jpg	NY	Right	Yes	0.747718799975701	0	671792	251
1313.150390625	2	taste	foodImageDisplay	4	182	1	foodImage.60	FOODEEG_Images\0614.jpg	NY	Right	Yes	0.747718799975701	0	672334	252
1315.21484375	0.747718799975701	taste	choicePhaseStart	4	182	1	foodImage.60	FOODEEG_Images\0614.jpg	NY	Right	Yes	0.747718799975701	0	673391	253
1316.205078125	0	taste	response	4	182	1	foodImage.60	FOODEEG_Images\0614.jpg	NY	Right	Yes	0.747718799975701	0	673898	235
1317.248046875	1	health	trialStart	4	183	2	foodImage.44	FOODEEG_Images\0459.jpg	YN	Left	Yes	0.959809200023301	0	674432	251
1318.310546875	2	health	foodImageDisplay	4	183	2	foodImage.44	FOODEEG_Images\0459.jpg	YN	Left	Yes	0.959809200023301	0	674976	252
1320.37890625	0.959809200023301	health	choicePhaseStart	4	183	2	foodImage.44	FOODEEG_Images\0459.jpg	YN	Left	Yes	0.959809200023301	0	676035	253
1321.1171875	0	health	response	4	183	2	foodImage.44	FOODEEG_Images\0459.jpg	YN	Left	Yes	0.959809200023301	0	676413	234
1322.16015625	1	health	trialStart	4	184	3	foodImage.96	FOODEEG_Images\0904.jpg	YN	Left	Yes	0.566170000005513	0	676947	251
1323.19921875	2	health	foodImageDisplay	4	184	3	foodImage.96	FOODEEG_Images\0904.jpg	YN	Left	Yes	0.566170000005513	0	677479	252
1325.26171875	0.566170000005513	health	choicePhaseStart	4	184	3	foodImage.96	FOODEEG_Images\0904.jpg	YN	Left	Yes	0.566170000005513	0	678535	253
1326.212890625	0	health	response	4	184	3	foodImage.96	FOODEEG_Images\0904.jpg	YN	Left	Yes	0.566170000005513	0	679022	234
1327.255859375	1	decision	trialStart	4	185	4	foodImage.44	FOODEEG_Images\0459.jpg	NY	Right	Yes	0.503699900000356	0	679556	251
1328.298828125	2	decision	foodImageDisplay	4	185	4	foodImage.44	FOODEEG_Images\0459.jpg	NY	Right	Yes	0.503699900000356	0	680090	252
1330.3671875	0.503699900000356	decision	choicePhaseStart	4	185	4	foodImage.44	FOODEEG_Images\0459.jpg	NY	Right	Yes	0.503699900000356	0	681149	253
1330.92578125	0	decision	response	4	185	4	foodImage.44	FOODEEG_Images\0459.jpg	NY	Right	Yes	0.503699900000356	0	681435	235
1331.96875	1	decision	trialStart	4	186	5	foodImage.20	FOODEEG_Images\0226.jpg	YN	Right	No	0.615583700011484	0	681969	251
1333.009765625	2	decision	foodImageDisplay	4	186	5	foodImage.20	FOODEEG_Images\0226.jpg	YN	Right	No	0.615583700011484	0	682502	252
1335.076171875	0.615583700011484	decision	choicePhaseStart	4	186	5	foodImage.20	FOODEEG_Images\0226.jpg	YN	Right	No	0.615583700011484	0	683560	253
1335.572265625	0	decision	response	4	186	5	foodImage.20	FOODEEG_Images\0226.jpg	YN	Right	No	0.615583700011484	0	683814	235
1336.615234375	1	decision	trialStart	4	187	6	foodImage.94	FOODEEG_Images\0902.jpg	YN	Left	Yes	0.772145599941723	0	684348	251
1337.654296875	2	decision	foodImageDisplay	4	187	6	foodImage.94	FOODEEG_Images\0902.jpg	YN	Left	Yes	0.772145599941723	0	684880	252
1339.724609375	0.772145599941723	decision	choicePhaseStart	4	187	6	foodImage.94	FOODEEG_Images\0902.jpg	YN	Left	Yes	0.772145599941723	0	685940	253
1340.33203125	0	decision	response	4	187	6	foodImage.94	FOODEEG_Images\0902.jpg	YN	Left	Yes	0.772145599941723	0	686251	234
1341.376953125	1	taste	trialStart	4	188	7	foodImage.87	FOODEEG_Images\0873.jpg	NY	Left	No	1.36625959991943	0	686786	251
1342.44921875	2	taste	foodImageDisplay	4	188	7	foodImage.87	FOODEEG_Images\0873.jpg	NY	Left	No	1.36625959991943	0	687335	252
1344.51171875	1.36625959991943	taste	choicePhaseStart	4	188	7	foodImage.87	FOODEEG_Images\0873.jpg	NY	Left	No	1.36625959991943	0	688391	253
1345.27734375	0	taste	response	4	188	7	foodImage.87	FOODEEG_Images\0873.jpg	NY	Left	No	1.36625959991943	0	688783	234
1346.318359375	1	health	trialStart	4	189	8	foodImage.13	FOODEEG_Images\0183.jpg	YN	Left	Yes	0.614273500046693	0	689316	251
1347.361328125	2	health	foodImageDisplay	4	189	8	foodImage.13	FOODEEG_Images\0183.jpg	YN	Left	Yes	0.614273500046693	0	689850	252
1349.423828125	0.614273500046693	health	choicePhaseStart	4	189	8	foodImage.13	FOODEEG_Images\0183.jpg	YN	Left	Yes	0.614273500046693	0	690906	253
1350.779296875	0	health	response	4	189	8	foodImage.13	FOODEEG_Images\0183.jpg	YN	Left	Yes	0.614273500046693	0	691600	234
1351.822265625	1	decision	trialStart	4	190	9	foodImage.54	FOODEEG_Images\0560.jpg	NY	Right	Yes	0.559120699996129	0	692134	251
1352.880859375	2	decision	foodImageDisplay	4	190	9	foodImage.54	FOODEEG_Images\0560.jpg	NY	Right	Yes	0.559120699996129	0	692676	252
1354.943359375	0.559120699996129	decision	choicePhaseStart	4	190	9	foodImage.54	FOODEEG_Images\0560.jpg	NY	Right	Yes	0.559120699996129	0	693732	253
1355.548828125	0	decision	response	4	190	9	foodImage.54	FOODEEG_Images\0560.jpg	NY	Right	Yes	0.559120699996129	0	694042	235
1356.591796875	1	taste	trialStart	4	191	10	foodImage.101	FOODEEG_Images\0909.jpg	YN	Right	No	0.895598499919288	0	694576	251
1357.62890625	2	taste	foodImageDisplay	4	191	10	foodImage.101	FOODEEG_Images\0909.jpg	YN	Right	No	0.895598499919288	0	695107	252
1359.69140625	0.895598499919288	taste	choicePhaseStart	4	191	10	foodImage.101	FOODEEG_Images\0909.jpg	YN	Right	No	0.895598499919288	0	696163	253
1360.244140625	0	taste	response	4	191	10	foodImage.101	FOODEEG_Images\0909.jpg	YN	Right	No	0.895598499919288	0	696446	235
1361.287109375	1	decision	trialStart	4	192	11	foodImage.63	FOODEEG_Images\0645.jpg	NY	Right	Yes	1.00454560003709	0	696980	251
1362.328125	2	decision	foodImageDisplay	4	192	11	foodImage.63	FOODEEG_Images\0645.jpg	NY	Right	Yes	1.00454560003709	0	697513	252
1364.396484375	1.00454560003709	decision	choicePhaseStart	4	192	11	foodImage.63	FOODEEG_Images\0645.jpg	NY	Right	Yes	1.00454560003709	0	698572	253
1365.283203125	0	decision	response	4	192	11	foodImage.63	FOODEEG_Images\0645.jpg	NY	Right	Yes	1.00454560003709	0	699026	235
1366.326171875	1	taste	trialStart	4	193	12	foodImage.61	FOODEEG_Images\0640.jpg	YN	Left	Yes	0.929982699919492	0	699560	251
1367.37109375	2	taste	foodImageDisplay	4	193	12	foodImage.61	FOODEEG_Images\0640.jpg	YN	Left	Yes	0.929982699919492	0	700095	252
1369.439453125	0.929982699919492	taste	choicePhaseStart	4	193	12	foodImage.61	FOODEEG_Images\0640.jpg	YN	Left	Yes	0.929982699919492	0	701154	253
1370.435546875	0	taste	response	4	193	12	foodImage.61	FOODEEG_Images\0640.jpg	YN	Left	Yes	0.929982699919492	0	701664	234
1371.478515625	1	taste	trialStart	4	194	13	foodImage.112	FOODEEG_Images\0920.jpg	YN	Right	No	0.622239800053649	0	702198	251
1372.517578125	2	taste	foodImageDisplay	4	194	13	foodImage.112	FOODEEG_Images\0920.jpg	YN	Right	No	0.622239800053649	0	702730	252
1374.583984375	0.622239800053649	taste	choicePhaseStart	4	194	13	foodImage.112	FOODEEG_Images\0920.jpg	YN	Right	No	0.622239800053649	0	703788	253
1375.5078125	0	taste	response	4	194	13	foodImage.112	FOODEEG_Images\0920.jpg	YN	Right	No	0.622239800053649	0	704261	235
1376.548828125	1	decision	trialStart	4	195	14	foodImage.24	FOODEEG_Images\0250.jpg	NY	Right	Yes	0.490002600010484	0	704794	251
