onset	duration	trial_type	event_type	block	trial_total	trial_in_block	food_image_code	food_image_path	button_position	resp_position	resp_choice	choice_rt	resp_too_slow	sample	trigger
176.041015625	2	n/a	blockStart	1	n/a	n/a	n/a		n/a	n/a	n/a	n/a	n/a	90134	250
178.076171875	1	taste	trialStart	1	1	1	foodImage.5	FOODEEG_Images\0107.jpg	NY	Right	Yes	0.697429899999406	0	91176	251
179.138671875	2	taste	foodImageDisplay	1	1	1	foodImage.5	FOODEEG_Images\0107.jpg	NY	Right	Yes	0.697429899999406	0	91720	252
181.21484375	0.697429899999406	taste	choicePhaseStart	1	1	1	foodImage.5	FOODEEG_Images\0107.jpg	NY	Right	Yes	0.697429899999406	0	92783	253
181.91015625	0	taste	response	1	1	1	foodImage.5	FOODEEG_Images\0107.jpg	NY	Right	Yes	0.697429899999406	0	93139	235
183.00390625	1	taste	trialStart	1	2	2	foodImage.41	FOODEEG_Images\0409.jpg	YN	Left	Yes	0.777893700000277	0	93699	251
184.05078125	2	taste	foodImageDisplay	1	2	2	foodImage.41	FOODEEG_Images\0409.jpg	YN	Left	Yes	0.777893700000277	0	94235	252
186.115234375	0.777893700000277	taste	choicePhaseStart	1	2	2	foodImage.41	FOODEEG_Images\0409.jpg	YN	Left	Yes	0.777893700000277	0	95292	253
186.884765625	0	taste	response	1	2	2	foodImage.41	FOODEEG_Images\0409.jpg	YN	Left	Yes	0.777893700000277	0	95686	234
187.94140625	1	decision	trialStart	1	3	3	foodImage.76	FOODEEG_Images\0766.jpg	NY	Right	Yes	0.684409199999209	0	96227	251
188.98828125	2	decision	foodImageDisplay	1	3	3	foodImage.76	FOODEEG_Images\0766.jpg	NY	Right	Yes	0.684409199999209	0	96763	252
191.056640625	0.684409199999209	decision	choicePhaseStart	1	3	3	foodImage.76	FOODEEG_Images\0766.jpg	NY	Right	Yes	0.684409199999209	0	97822	253
191.732421875	0	decision	response	1	3	3	foodImage.76	FOODEEG_Images\0766.jpg	NY	Right	Yes	0.684409199999209	0	98168	235
192.77734375	1	health	trialStart	1	4	4	foodImage.2	FOODEEG_Images\0028.jpg	YN	Right	No	0.702855999999883	0	98703	251
193.8203125	2	health	foodImageDisplay	1	4	4	foodImage.2	FOODEEG_Images\0028.jpg	YN	Right	No	0.702855999999883	0	99237	252
195.884765625	0.702855999999883	health	choicePhaseStart	1	4	4	foodImage.2	FOODEEG_Images\0028.jpg	YN	Right	No	0.702855999999883	0	100294	253
196.580078125	0	health	response	1	4	4	foodImage.2	FOODEEG_Images\0028.jpg	YN	Right	No	0.702855999999883	0	100650	235
197.625	1	taste	trialStart	1	5	5	foodImage.31	FOODEEG_Images\0294.jpg	YN	Left	Yes	0.682378499999686	0	101185	251
198.669921875	2	taste	foodImageDisplay	1	5	5	foodImage.31	FOODEEG_Images\0294.jpg	YN	Left	Yes	0.682378499999686	0	101720	252
200.736328125	0.682378499999686	taste	choicePhaseStart	1	5	5	foodImage.31	FOODEEG_Images\0294.jpg	YN	Left	Yes	0.682378499999686	0	102778	253
201.412109375	0	taste	response	1	5	5	foodImage.31	FOODEEG_Images\0294.jpg	YN	Left	Yes	0.682378499999686	0	103124	234
202.46484375	1	taste	trialStart	1	6	6	foodImage.68	FOODEEG_Images\0685.jpg	YN	Left	Yes	0.587319199999911	0	103663	251
203.544921875	2	taste	foodImageDisplay	1	6	6	foodImage.68	FOODEEG_Images\0685.jpg	YN	Left	Yes	0.587319199999911	0	104216	252
205.609375	0.587319199999911	taste	choicePhaseStart	1	6	6	foodImage.68	FOODEEG_Images\0685.jpg	YN	Left	Yes	0.587319199999911	0	105273	253
206.1875	0	taste	response	1	6	6	foodImage.68	FOODEEG_Images\0685.jpg	YN	Left	Yes	0.587319199999911	0	105569	234
207.232421875	1	decision	trialStart	1	7	7	foodImage.111	FOODEEG_Images\0919.jpg	YN	Right	No	0.81234029999905	0	106104	251
208.271484375	2	decision	foodImageDisplay	1	7	7	foodImage.111	FOODEEG_Images\0919.jpg	YN	Right	No	0.81234029999905	0	106636	252
210.333984375	0.81234029999905	decision	choicePhaseStart	1	7	7	foodImage.111	FOODEEG_Images\0919.jpg	YN	Right	No	0.81234029999905	0	107692	253
211.140625	0	decision	response	1	7	7	foodImage.111	FOODEEG_Images\0919.jpg	YN	Right	No	0.81234029999905	0	108105	235
212.18359375	1	taste	trialStart	1	8	8	foodImage.10	FOODEEG_Images\0145.jpg	NY	Right	Yes	0.874941300000501	0	108639	251
213.23828125	2	taste	foodImageDisplay	1	8	8	foodImage.10	FOODEEG_Images\0145.jpg	NY	Right	Yes	0.874941300000501	0	109179	252
215.3046875	0.874941300000501	taste	choicePhaseStart	1	8	8	foodImage.10	FOODEEG_Images\0145.jpg	NY	Right	Yes	0.874941300000501	0	110237	253
216.173828125	0	taste	response	1	8	8	foodImage.10	FOODEEG_Images\0145.jpg	NY	Right	Yes	0.874941300000501	0	110682	235
217.216796875	1	taste	trialStart	1	9	9	foodImage.119	FOODEEG_Images\0927.jpg	YN	Left	Yes	0.685202099999515	0	111216	251
218.265625	2	taste	foodImageDisplay	1	9	9	foodImage.119	FOODEEG_Images\0927.jpg	YN	Left	Yes	0.685202099999515	0	111753	252
220.330078125	0.685202099999515	taste	choicePhaseStart	1	9	9	foodImage.119	FOODEEG_Images\0927.jpg	YN	Left	Yes	0.685202099999515	0	112810	253
221.01171875	0	taste	response	1	9	9	foodImage.119	FOODEEG_Images\0927.jpg	YN	Left	Yes	0.685202099999515	0	113159	234
222.0546875	1	decision	trialStart	1	10	10	foodImage.97	FOODEEG_Images\0905.jpg	NY	Left	No	0.660189099999116	0	113693	251
223.099609375	2	decision	foodImageDisplay	1	10	10	foodImage.97	FOODEEG_Images\0905.jpg	NY	Left	No	0.660189099999116	0	114228	252
225.16796875	0.660189099999116	decision	choicePhaseStart	1	10	10	foodImage.97	FOODEEG_Images\0905.jpg	NY	Left	No	0.660189099999116	0	115287	253
225.8203125	0	decision	response	1	10	10	foodImage.97	FOODEEG_Images\0905.jpg	NY	Left	No	0.660189099999116	0	115621	234
226.86328125	1	health	trialStart	1	11	11	foodImage.57	FOODEEG_Images\0587.jpg	YN	Left	Yes	0.497595200000433	0	116155	251
227.908203125	2	health	foodImageDisplay	1	11	11	foodImage.57	FOODEEG_Images\0587.jpg	YN	Left	Yes	0.497595200000433	0	116690	252
229.970703125	0.497595200000433	health	choicePhaseStart	1	11	11	foodImage.57	FOODEEG_Images\0587.jpg	YN	Left	Yes	0.497595200000433	0	117746	253
230.458984375	0	health	response	1	11	11	foodImage.57	FOODEEG_Images\0587.jpg	YN	Left	Yes	0.497595200000433	0	117996	234
231.501953125	1	decision	trialStart	1	12	12	foodImage.108	FOODEEG_Images\0916.jpg	NY	Left	No	0.723062600000048	0	118530	251
232.556640625	2	decision	foodImageDisplay	1	12	12	foodImage.108	FOODEEG_Images\0916.jpg	NY	Left	No	0.723062600000048	0	119070	252
234.623046875	0.723062600000048	decision	choicePhaseStart	1	12	12	foodImage.108	FOODEEG_Images\0916.jpg	NY	Left	No	0.723062600000048	0	120128	253
235.337890625	0	decision	response	1	12	12	foodImage.108	FOODEEG_Images\0916.jpg	NY	Left	No	0.723062600000048	0	120494	234
236.380859375	1	health	trialStart	1	13	13	foodImage.5	FOODEEG_Images\0107.jpg	NY	Left	No	1.45080120000057	0	121028	251
237.439453125	2	health	foodImageDisplay	1	13	13	foodImage.5	FOODEEG_Images\0107.jpg	NY	Left	No	1.45080120000057	0	121570	252
239.50390625	1.45080120000057	health	choicePhaseStart	1	13	13	foodImage.5	FOODEEG_Images\0107.jpg	NY	Left	No	1.45080120000057	0	122627	253
240.947265625	0	health	response	1	13	13	foodImage.5	FOODEEG_Images\0107.jpg	NY	Left	No	1.45080120000057	0	123366	234
241.990234375	1	health	trialStart	1	14	14	foodImage.112	FOODEEG_Images\0920.jpg	YN	Right	No	0.446598100001211	0	123900	251
243.03125	2	health	foodImageDisplay	1	14	14	foodImage.112	FOODEEG_Images\0920.jpg	YN	Right	No	0.446598100001211	0	124433	252
245.09375	0.446598100001211	health	choicePhaseStart	1	14	14	foodImage.112	FOODEEG_Images\0920.jpg	YN	Right	No	0.446598100001211	0	125489	253
245.53125	0	health	response	1	14	14	foodImage.112	FOODEEG_Images\0920.jpg	YN	Right	No	0.446598100001211	0	125713	235
246.572265625	1	taste	trialStart	1	15	15	foodImage.8	FOODEEG_Images\0136.jpg	YN	Left	Yes	0.723903899999641	0	126246	251
247.6171875	2	taste	foodImageDisplay	1	15	15	foodImage.8	FOODEEG_Images\0136.jpg	YN	Left	Yes	0.723903899999641	0	126781	252
249.6796875	0.723903899999641	taste	choicePhaseStart	1	15	15	foodImage.8	FOODEEG_Images\0136.jpg	YN	Left	Yes	0.723903899999641	0	127837	253
250.39453125	0	taste	response	1	15	15	foodImage.8	FOODEEG_Images\0136.jpg	YN	Left	Yes	0.723903899999641	0	128203	234
251.4375	1	health	trialStart	1	16	16	foodImage.28	FOODEEG_Images\0273.jpg	YN	Left	Yes	0.547835600000326	0	128737	251
252.478515625	2	health	foodImageDisplay	1	16	16	foodImage.28	FOODEEG_Images\0273.jpg	YN	Left	Yes	0.547835600000326	0	129270	252
254.54296875	0.547835600000326	health	choicePhaseStart	1	16	16	foodImage.28	FOODEEG_Images\0273.jpg	YN	Left	Yes	0.547835600000326	0	130327	253
255.08203125	0	health	response	1	16	16	foodImage.28	FOODEEG_Images\0273.jpg	YN	Left	Yes	0.547835600000326	0	130603	234
256.125	1	decision	trialStart	1	17	17	foodImage.14	FOODEEG_Images\0188.jpg	NY	Right	Yes	0.805264099999476	0	131137	251
257.181640625	2	decision	foodImageDisplay	1	17	17	foodImage.14	FOODEEG_Images\0188.jpg	NY	Right	Yes	0.805264099999476	0	131678	252
259.24609375	0.805264099999476	decision	choicePhaseStart	1	17	17	foodImage.14	FOODEEG_Images\0188.jpg	NY	Right	Yes	0.805264099999476	0	132735	253
260.041015625	0	decision	response	1	17	17	foodImage.14	FOODEEG_Images\0188.jpg	NY	Right	Yes	0.805264099999476	0	133142	235
261.083984375	1	health	trialStart	1	18	18	foodImage.99	FOODEEG_Images\0907.jpg	YN	Left	Yes	0.550381900000502	0	133676	251
262.1328125	2	health	foodImageDisplay	1	18	18	foodImage.99	FOODEEG_Images\0907.jpg	YN	Left	Yes	0.550381900000502	0	134213	252
264.1953125	0.550381900000502	health	choicePhaseStart	1	18	18	foodImage.99	FOODEEG_Images\0907.jpg	YN	Left	Yes	0.550381900000502	0	135269	253
264.73828125	0	health	response	1	18	18	foodImage.99	FOODEEG_Images\0907.jpg	YN	Left	Yes	0.550381900000502	0	135547	234
265.779296875	1	taste	trialStart	1	19	19	foodImage.118	FOODEEG_Images\0926.jpg	NY	Left	No	0.719861699999456	0	136080	251
266.8203125	2	taste	foodImageDisplay	1	19	19	foodImage.118	FOODEEG_Images\0926.jpg	NY	Left	No	0.719861699999456	0	136613	252
268.8828125	0.719861699999456	taste	choicePhaseStart	1	19	19	foodImage.118	FOODEEG_Images\0926.jpg	NY	Left	No	0.719861699999456	0	137669	253
269.59375	0	taste	response	1	19	19	foodImage.118	FOODEEG_Images\0926.jpg	NY	Left	No	0.719861699999456	0	138033	234
270.63671875	1	taste	trialStart	1	20	20	foodImage.54	FOODEEG_Images\0560.jpg	NY	Right	Yes	0.667818400001124	0	138567	251
271.6953125	2	taste	foodImageDisplay	1	20	20	foodImage.54	FOODEEG_Images\0560.jpg	NY	Right	Yes	0.667818400001124	0	139109	252
273.759765625	0.667818400001124	taste	choicePhaseStart	1	20	20	foodImage.54	FOODEEG_Images\0560.jpg	NY	Right	Yes	0.667818400001124	0	140166	253
274.41796875	0	taste	response	1	20	20	foodImage.54	FOODEEG_Images\0560.jpg	NY	Right	Yes	0.667818400001124	0	140503	235
275.462890625	1	health	trialStart	1	21	21	foodImage.32	FOODEEG_Images\0319.jpg	NY	Left	No	0.721485100000791	0	141038	251
276.529296875	2	health	foodImageDisplay	1	21	21	foodImage.32	FOODEEG_Images\0319.jpg	NY	Left	No	0.721485100000791	0	141584	252
278.59375	0.721485100000791	health	choicePhaseStart	1	21	21	foodImage.32	FOODEEG_Images\0319.jpg	NY	Left	No	0.721485100000791	0	142641	253
279.3046875	0	health	response	1	21	21	foodImage.32	FOODEEG_Images\0319.jpg	NY	Left	No	0.721485100000791	0	143005	234
280.349609375	1	taste	trialStart	1	22	22	foodImage.112	FOODEEG_Images\0920.jpg	YN	Left	Yes	1.23019869999916	0	143540	251
281.388671875	2	taste	foodImageDisplay	1	22	22	foodImage.112	FOODEEG_Images\0920.jpg	YN	Left	Yes	1.23019869999916	0	144072	252
283.451171875	1.23019869999916	taste	choicePhaseStart	1	22	22	foodImage.112	FOODEEG_Images\0920.jpg	YN	Left	Yes	1.23019869999916	0	145128	253
284.671875	0	taste	response	1	22	22	foodImage.112	FOODEEG_Images\0920.jpg	YN	Left	Yes	1.23019869999916	0	145753	234
285.716796875	1	taste	trialStart	1	23	23	foodImage.13	FOODEEG_Images\0183.jpg	YN	Left	Yes	0.734430300000895	0	146288	251
286.763671875	2	taste	foodImageDisplay	1	23	23	foodImage.13	FOODEEG_Images\0183.jpg	YN	Left	Yes	0.734430300000895	0	146824	252
288.828125	0.734430300000895	taste	choicePhaseStart	1	23	23	foodImage.13	FOODEEG_Images\0183.jpg	YN	Left	Yes	0.734430300000895	0	147881	253
289.552734375	0	taste	response	1	23	23	foodImage.13	FOODEEG_Images\0183.jpg	YN	Left	Yes	0.734430300000895	0	148252	234
290.595703125	1	health	trialStart	1	24	24	foodImage.73	FOODEEG_Images\0717.jpg	NY	Right	Yes	1.10121299999992	0	148786	251
291.65234375	2	health	foodImageDisplay	1	24	24	foodImage.73	FOODEEG_Images\0717.jpg	NY	Right	Yes	1.10121299999992	0	149327	252
293.716796875	1.10121299999992	health	choicePhaseStart	1	24	24	foodImage.73	FOODEEG_Images\0717.jpg	NY	Right	Yes	1.10121299999992	0	150384	253
294.80859375	0	health	response	1	24	24	foodImage.73	FOODEEG_Images\0717.jpg	NY	Right	Yes	1.10121299999992	0	150943	235
295.8515625	1	taste	trialStart	1	25	25	foodImage.81	FOODEEG_Images\0797.jpg	YN	Right	No	0.770511599999736	0	151477	251
296.91015625	2	taste	foodImageDisplay	1	25	25	foodImage.81	FOODEEG_Images\0797.jpg	YN	Right	No	0.770511599999736	0	152019	252
298.974609375	0.770511599999736	taste	choicePhaseStart	1	25	25	foodImage.81	FOODEEG_Images\0797.jpg	YN	Right	No	0.770511599999736	0	153076	253
299.736328125	0	taste	response	1	25	25	foodImage.81	FOODEEG_Images\0797.jpg	YN	Right	No	0.770511599999736	0	153466	235
300.779296875	1	health	trialStart	1	26	26	foodImage.66	FOODEEG_Images\0676.jpg	NY	Left	No	0.637823099999878	0	154000	251
301.8203125	2	health	foodImageDisplay	1	26	26	foodImage.66	FOODEEG_Images\0676.jpg	NY	Left	No	0.637823099999878	0	154533	252
303.8828125	0.637823099999878	health	choicePhaseStart	1	26	26	foodImage.66	FOODEEG_Images\0676.jpg	NY	Left	No	0.637823099999878	0	155589	253
304.51171875	0	health	response	1	26	26	foodImage.66	FOODEEG_Images\0676.jpg	NY	Left	No	0.637823099999878	0	155911	234
305.5546875	1	health	trialStart	1	27	27	foodImage.52	FOODEEG_Images\0539.jpg	NY	Right	Yes	0.915729000000283	0	156445	251
306.61328125	2	health	foodImageDisplay	1	27	27	foodImage.52	FOODEEG_Images\0539.jpg	NY	Right	Yes	0.915729000000283	0	156987	252
308.677734375	0.915729000000283	health	choicePhaseStart	1	27	27	foodImage.52	FOODEEG_Images\0539.jpg	NY	Right	Yes	0.915729000000283	0	158044	253
309.583984375	0	health	response	1	27	27	foodImage.52	FOODEEG_Images\0539.jpg	NY	Right	Yes	0.915729000000283	0	158508	235
310.626953125	1	taste	trialStart	1	28	28	foodImage.48	FOODEEG_Images\0494.jpg	NY	Left	No	0.610337500000242	0	159042	251
311.6875	2	taste	foodImageDisplay	1	28	28	foodImage.48	FOODEEG_Images\0494.jpg	NY	Left	No	0.610337500000242	0	159585	252
313.75	0.610337500000242	taste	choicePhaseStart	1	28	28	foodImage.48	FOODEEG_Images\0494.jpg	NY	Left	No	0.610337500000242	0	160641	253
314.3515625	0	taste	response	1	28	28	foodImage.48	FOODEEG_Images\0494.jpg	NY	Left	No	0.610337500000242	0	160949	234
315.39453125	1	decision	trialStart	1	29	29	foodImage.93	FOODEEG_Images\0901.jpg	NY	Left	No	0.976040600000488	0	161483	251
316.43359375	2	decision	foodImageDisplay	1	29	29	foodImage.93	FOODEEG_Images\0901.jpg	NY	Left	No	0.976040600000488	0	162015	252
318.49609375	0.976040600000488	decision	choicePhaseStart	1	29	29	foodImage.93	FOODEEG_Images\0901.jpg	NY	Left	No	0.976040600000488	0	163071	253
319.462890625	0	decision	response	1	29	29	foodImage.93	FOODEEG_Images\0901.jpg	NY	Left	No	0.976040600000488	0	163566	234
320.505859375	1	taste	trialStart	1	30	30	foodImage.28	FOODEEG_Images\0273.jpg	NY	Left	No	1.07820439999887	0	164100	251
321.548828125	2	taste	foodImageDisplay	1	30	30	foodImage.28	FOODEEG_Images\0273.jpg	NY	Left	No	1.07820439999887	0	164634	252
323.611328125	1.07820439999887	taste	choicePhaseStart	1	30	30	foodImage.28	FOODEEG_Images\0273.jpg	NY	Left	No	1.07820439999887	0	165690	253
324.6796875	0	taste	response	1	30	30	foodImage.28	FOODEEG_Images\0273.jpg	NY	Left	No	1.07820439999887	0	166237	234
325.72265625	1	decision	trialStart	1	31	31	foodImage.17	FOODEEG_Images\0199.jpg	NY	Right	Yes	0.604371299999912	0	166771	251
326.765625	2	decision	foodImageDisplay	1	31	31	foodImage.17	FOODEEG_Images\0199.jpg	NY	Right	Yes	0.604371299999912	0	167305	252
328.828125	0.604371299999912	decision	choicePhaseStart	1	31	31	foodImage.17	FOODEEG_Images\0199.jpg	NY	Right	Yes	0.604371299999912	0	168361	253
329.423828125	0	decision	response	1	31	31	foodImage.17	FOODEEG_Images\0199.jpg	NY	Right	Yes	0.604371299999912	0	168666	235
330.466796875	1	health	trialStart	1	32	32	foodImage.117	FOODEEG_Images\0925.jpg	NY	Left	No	0.775727500000357	0	169200	251
331.50390625	2	health	foodImageDisplay	1	32	32	foodImage.117	FOODEEG_Images\0925.jpg	NY	Left	No	0.775727500000357	0	169731	252
333.568359375	0.775727500000357	health	choicePhaseStart	1	32	32	foodImage.117	FOODEEG_Images\0925.jpg	NY	Left	No	0.775727500000357	0	170788	253
334.333984375	0	health	response	1	32	32	foodImage.117	FOODEEG_Images\0925.jpg	NY	Left	No	0.775727500000357	0	171180	234
335.376953125	1	taste	trialStart	1	33	33	foodImage.109	FOODEEG_Images\0917.jpg	NY	Left	No	0.544045599999663	0	171714	251
336.416015625	2	taste	foodImageDisplay	1	33	33	foodImage.109	FOODEEG_Images\0917.jpg	NY	Left	No	0.544045599999663	0	172246	252
338.48046875	0.544045599999663	taste	choicePhaseStart	1	33	33	foodImage.109	FOODEEG_Images\0917.jpg	NY	Left	No	0.544045599999663	0	173303	253
339.013671875	0	taste	response	1	33	33	foodImage.109	FOODEEG_Images\0917.jpg	NY	Left	No	0.544045599999663	0	173576	234
340.056640625	1	taste	trialStart	1	34	34	foodImage.21	FOODEEG_Images\0234.jpg	YN	Left	Yes	0.64544979999846	0	174110	251
341.115234375	2	taste	foodImageDisplay	1	34	34	foodImage.21	FOODEEG_Images\0234.jpg	YN	Left	Yes	0.64544979999846	0	174652	252
343.177734375	0.64544979999846	taste	choicePhaseStart	1	34	34	foodImage.21	FOODEEG_Images\0234.jpg	YN	Left	Yes	0.64544979999846	0	175708	253
343.814453125	0	taste	response	1	34	34	foodImage.21	FOODEEG_Images\0234.jpg	YN	Left	Yes	0.64544979999846	0	176034	234
344.857421875	1	decision	trialStart	1	35	35	foodImage.57	FOODEEG_Images\0587.jpg	YN	Left	Yes	0.632592500000101	0	176568	251
345.904296875	2	decision	foodImageDisplay	1	35	35	foodImage.57	FOODEEG_Images\0587.jpg	YN	Left	Yes	0.632592500000101	0	177104	252
347.966796875	0.632592500000101	decision	choicePhaseStart	1	35	35	foodImage.57	FOODEEG_Images\0587.jpg	YN	Left	Yes	0.632592500000101	0	178160	253
348.58984375	0	decision	response	1	35	35	foodImage.57	FOODEEG_Images\0587.jpg	YN	Left	Yes	0.632592500000101	0	178479	234
349.6328125	1	health	trialStart	1	36	36	foodImage.38	FOODEEG_Images\0365.jpg	NY	Right	Yes	0.60904599999958	0	179013	251
350.671875	2	health	foodImageDisplay	1	36	36	foodImage.38	FOODEEG_Images\0365.jpg	NY	Right	Yes	0.60904599999958	0	179545	252
352.734375	0.60904599999958	health	choicePhaseStart	1	36	36	foodImage.38	FOODEEG_Images\0365.jpg	NY	Right	Yes	0.60904599999958	0	180601	253
353.333984375	0	health	response	1	36	36	foodImage.38	FOODEEG_Images\0365.jpg	NY	Right	Yes	0.60904599999958	0	180908	235
354.376953125	1	taste	trialStart	1	37	37	foodImage.14	FOODEEG_Images\0188.jpg	YN	Left	Yes	0.55623210000158	0	181442	251
355.435546875	2	taste	foodImageDisplay	1	37	37	foodImage.14	FOODEEG_Images\0188.jpg	YN	Left	Yes	0.55623210000158	0	181984	252
357.5	0.55623210000158	taste	choicePhaseStart	1	37	37	foodImage.14	FOODEEG_Images\0188.jpg	YN	Left	Yes	0.55623210000158	0	183041	253
358.044921875	0	taste	response	1	37	37	foodImage.14	FOODEEG_Images\0188.jpg	YN	Left	Yes	0.55623210000158	0	183320	234
359.087890625	1	decision	trialStart	1	38	38	foodImage.103	FOODEEG_Images\0911.jpg	YN	Left	Yes	0.553367000000435	0	183854	251
360.126953125	2	decision	foodImageDisplay	1	38	38	foodImage.103	FOODEEG_Images\0911.jpg	YN	Left	Yes	0.553367000000435	0	184386	252
362.189453125	0.553367000000435	decision	choicePhaseStart	1	38	38	foodImage.103	FOODEEG_Images\0911.jpg	YN	Left	Yes	0.553367000000435	0	185442	253
362.734375	0	decision	response	1	38	38	foodImage.103	FOODEEG_Images\0911.jpg	YN	Left	Yes	0.553367000000435	0	185721	234
363.77734375	1	taste	trialStart	1	39	39	foodImage.85	FOODEEG_Images\0841.jpg	YN	Left	Yes	0.42073530000016	0	186255	251
364.8359375	2	taste	foodImageDisplay	1	39	39	foodImage.85	FOODEEG_Images\0841.jpg	YN	Left	Yes	0.42073530000016	0	186797	252
366.8984375	0.42073530000016	taste	choicePhaseStart	1	39	39	foodImage.85	FOODEEG_Images\0841.jpg	YN	Left	Yes	0.42073530000016	0	187853	253
367.30859375	0	taste	response	1	39	39	foodImage.85	FOODEEG_Images\0841.jpg	YN	Left	Yes	0.42073530000016	0	188063	234
368.3515625	1	decision	trialStart	1	40	40	foodImage.86	FOODEEG_Images\0844.jpg	YN	Left	Yes	0.542388100000608	0	188597	251
369.41015625	2	decision	foodImageDisplay	1	40	40	foodImage.86	FOODEEG_Images\0844.jpg	YN	Left	Yes	0.542388100000608	0	189139	252
371.47265625	0.542388100000608	decision	choicePhaseStart	1	40	40	foodImage.86	FOODEEG_Images\0844.jpg	YN	Left	Yes	0.542388100000608	0	190195	253
372.005859375	0	decision	response	1	40	40	foodImage.86	FOODEEG_Images\0844.jpg	YN	Left	Yes	0.542388100000608	0	190468	234
373.048828125	1	taste	trialStart	1	41	41	foodImage.52	FOODEEG_Images\0539.jpg	YN	Left	Yes	0.612668699999631	0	191002	251
374.130859375	2	taste	foodImageDisplay	1	41	41	foodImage.52	FOODEEG_Images\0539.jpg	YN	Left	Yes	0.612668699999631	0	191556	252
376.193359375	0.612668699999631	taste	choicePhaseStart	1	41	41	foodImage.52	FOODEEG_Images\0539.jpg	YN	Left	Yes	0.612668699999631	0	192612	253
376.796875	0	taste	response	1	41	41	foodImage.52	FOODEEG_Images\0539.jpg	YN	Left	Yes	0.612668699999631	0	192921	234
377.83984375	1	taste	trialStart	1	42	42	foodImage.32	FOODEEG_Images\0319.jpg	NY	Right	Yes	0.717432100000224	0	193455	251
378.884765625	2	taste	foodImageDisplay	1	42	42	foodImage.32	FOODEEG_Images\0319.jpg	NY	Right	Yes	0.717432100000224	0	193990	252
380.947265625	0.717432100000224	taste	choicePhaseStart	1	42	42	foodImage.32	FOODEEG_Images\0319.jpg	NY	Right	Yes	0.717432100000224	0	195046	253
381.654296875	0	taste	response	1	42	42	foodImage.32	FOODEEG_Images\0319.jpg	NY	Right	Yes	0.717432100000224	0	195408	235
382.697265625	1	health	trialStart	1	43	43	foodImage.85	FOODEEG_Images\0841.jpg	NY	Left	No	0.68944719999854	0	195942	251
383.755859375	2	health	foodImageDisplay	1	43	43	foodImage.85	FOODEEG_Images\0841.jpg	NY	Left	No	0.68944719999854	0	196484	252
385.8203125	0.68944719999854	health	choicePhaseStart	1	43	43	foodImage.85	FOODEEG_Images\0841.jpg	NY	Left	No	0.68944719999854	0	197541	253
386.5	0	health	response	1	43	43	foodImage.85	FOODEEG_Images\0841.jpg	NY	Left	No	0.68944719999854	0	197889	234
387.54296875	1	decision	trialStart	1	44	44	foodImage.12	FOODEEG_Images\0181.jpg	YN	Left	Yes	0.787712699999247	0	198423	251
388.5859375	2	decision	foodImageDisplay	1	44	44	foodImage.12	FOODEEG_Images\0181.jpg	YN	Left	Yes	0.787712699999247	0	198957	252
390.650390625	0.787712699999247	decision	choicePhaseStart	1	44	44	foodImage.12	FOODEEG_Images\0181.jpg	YN	Left	Yes	0.787712699999247	0	200014	253
391.427734375	0	decision	response	1	44	44	foodImage.12	FOODEEG_Images\0181.jpg	YN	Left	Yes	0.787712699999247	0	200412	234
392.470703125	1	health	trialStart	1	45	45	foodImage.64	FOODEEG_Images\0647.jpg	YN	Left	Yes	0.596870600000329	0	200946	251
393.544921875	2	health	foodImageDisplay	1	45	45	foodImage.64	FOODEEG_Images\0647.jpg	YN	Left	Yes	0.596870600000329	0	201496	252
395.607421875	0.596870600000329	health	choicePhaseStart	1	45	45	foodImage.64	FOODEEG_Images\0647.jpg	YN	Left	Yes	0.596870600000329	0	202552	253
396.1953125	0	health	response	1	45	45	foodImage.64	FOODEEG_Images\0647.jpg	YN	Left	Yes	0.596870600000329	0	202853	234
397.23828125	1	health	trialStart	1	46	46	foodImage.40	FOODEEG_Images\0373.jpg	YN	Right	No	0.838351899999907	0	203387	251
398.279296875	2	health	foodImageDisplay	1	46	46	foodImage.40	FOODEEG_Images\0373.jpg	YN	Right	No	0.838351899999907	0	203920	252
400.341796875	0.838351899999907	health	choicePhaseStart	1	46	46	foodImage.40	FOODEEG_Images\0373.jpg	YN	Right	No	0.838351899999907	0	204976	253
401.171875	0	health	response	1	46	46	foodImage.40	FOODEEG_Images\0373.jpg	YN	Right	No	0.838351899999907	0	205401	235
402.216796875	1	decision	trialStart	1	47	47	foodImage.71	FOODEEG_Images\0713.jpg	NY	Left	No	0.730608500000017	0	205936	251
403.259765625	2	decision	foodImageDisplay	1	47	47	foodImage.71	FOODEEG_Images\0713.jpg	NY	Left	No	0.730608500000017	0	206470	252
405.322265625	0.730608500000017	decision	choicePhaseStart	1	47	47	foodImage.71	FOODEEG_Images\0713.jpg	NY	Left	No	0.730608500000017	0	207526	253
406.044921875	0	decision	response	1	47	47	foodImage.71	FOODEEG_Images\0713.jpg	NY	Left	No	0.730608500000017	0	207896	234
407.0859375	1	taste	trialStart	1	48	48	foodImage.111	FOODEEG_Images\0919.jpg	NY	Right	Yes	0.858187999998336	0	208429	251
408.125	2	taste	foodImageDisplay	1	48	48	foodImage.111	FOODEEG_Images\0919.jpg	NY	Right	Yes	0.858187999998336	0	208961	252
410.1875	0.858187999998336	taste	choicePhaseStart	1	48	48	foodImage.111	FOODEEG_Images\0919.jpg	NY	Right	Yes	0.858187999998336	0	210017	253
411.03515625	0	taste	response	1	48	48	foodImage.111	FOODEEG_Images\0919.jpg	NY	Right	Yes	0.858187999998336	0	210451	235
412.076171875	1	taste	trialStart	1	49	49	foodImage.37	FOODEEG_Images\0359.jpg	YN	Left	Yes	0.68821620000017	0	210984	251
413.119140625	2	taste	foodImageDisplay	1	49	49	foodImage.37	FOODEEG_Images\0359.jpg	YN	Left	Yes	0.68821620000017	0	211518	252
415.181640625	0.68821620000017	taste	choicePhaseStart	1	49	49	foodImage.37	FOODEEG_Images\0359.jpg	YN	Left	Yes	0.68821620000017	0	212574	253
415.859375	0	taste	response	1	49	49	foodImage.37	FOODEEG_Images\0359.jpg	YN	Left	Yes	0.68821620000017	0	212921	234
416.90234375	1	health	trialStart	1	50	50	foodImage.105	FOODEEG_Images\0913.jpg	YN	Left	Yes	0.585524899999655	0	213455	251
417.939453125	2	health	foodImageDisplay	1	50	50	foodImage.105	FOODEEG_Images\0913.jpg	YN	Left	Yes	0.585524899999655	0	213986	252
420.001953125	0.585524899999655	health	choicePhaseStart	1	50	50	foodImage.105	FOODEEG_Images\0913.jpg	YN	Left	Yes	0.585524899999655	0	215042	253
420.580078125	0	health	response	1	50	50	foodImage.105	FOODEEG_Images\0913.jpg	YN	Left	Yes	0.585524899999655	0	215338	234
421.62109375	1	decision	trialStart	1	51	51	foodImage.90	FOODEEG_Images\0890.jpg	NY	Left	No	0.662200900000244	0	215871	251
422.6796875	2	decision	foodImageDisplay	1	51	51	foodImage.90	FOODEEG_Images\0890.jpg	NY	Left	No	0.662200900000244	0	216413	252
424.7421875	0.662200900000244	decision	choicePhaseStart	1	51	51	foodImage.90	FOODEEG_Images\0890.jpg	NY	Left	No	0.662200900000244	0	217469	253
425.39453125	0	decision	response	1	51	51	foodImage.90	FOODEEG_Images\0890.jpg	NY	Left	No	0.662200900000244	0	217803	234
426.4375	1	taste	trialStart	1	52	52	foodImage.91	FOODEEG_Images\0896.jpg	NY	Left	No	0.517233900000065	0	218337	251
427.494140625	2	taste	foodImageDisplay	1	52	52	foodImage.91	FOODEEG_Images\0896.jpg	NY	Left	No	0.517233900000065	0	218878	252
429.55859375	0.517233900000065	taste	choicePhaseStart	1	52	52	foodImage.91	FOODEEG_Images\0896.jpg	NY	Left	No	0.517233900000065	0	219935	253
430.06640625	0	taste	response	1	52	52	foodImage.91	FOODEEG_Images\0896.jpg	NY	Left	No	0.517233900000065	0	220195	234
431.109375	1	decision	trialStart	1	53	53	foodImage.34	FOODEEG_Images\0339.jpg	NY	Right	Yes	0.757977899998878	0	220729	251
432.16796875	2	decision	foodImageDisplay	1	53	53	foodImage.34	FOODEEG_Images\0339.jpg	NY	Right	Yes	0.757977899998878	0	221271	252
434.236328125	0.757977899998878	decision	choicePhaseStart	1	53	53	foodImage.34	FOODEEG_Images\0339.jpg	NY	Right	Yes	0.757977899998878	0	222330	253
434.986328125	0	decision	response	1	53	53	foodImage.34	FOODEEG_Images\0339.jpg	NY	Right	Yes	0.757977899998878	0	222714	235
436.029296875	1	health	trialStart	1	54	54	foodImage.114	FOODEEG_Images\0922.jpg	NY	Right	Yes	0.617723899998964	0	223248	251
437.068359375	2	health	foodImageDisplay	1	54	54	foodImage.114	FOODEEG_Images\0922.jpg	NY	Right	Yes	0.617723899998964	0	223780	252
439.130859375	0.617723899998964	health	choicePhaseStart	1	54	54	foodImage.114	FOODEEG_Images\0922.jpg	NY	Right	Yes	0.617723899998964	0	224836	253
439.73828125	0	health	response	1	54	54	foodImage.114	FOODEEG_Images\0922.jpg	NY	Right	Yes	0.617723899998964	0	225147	235
440.78125	1	taste	trialStart	1	55	55	foodImage.7	FOODEEG_Images\0116.jpg	NY	Right	Yes	1.32608450000043	0	225681	251
441.822265625	2	taste	foodImageDisplay	1	55	55	foodImage.7	FOODEEG_Images\0116.jpg	NY	Right	Yes	1.32608450000043	0	226214	252
443.88671875	1.32608450000043	taste	choicePhaseStart	1	55	55	foodImage.7	FOODEEG_Images\0116.jpg	NY	Right	Yes	1.32608450000043	0	227271	253
445.203125	0	taste	response	1	55	55	foodImage.7	FOODEEG_Images\0116.jpg	NY	Right	Yes	1.32608450000043	0	227945	235
446.24609375	1	taste	trialStart	1	56	56	foodImage.78	FOODEEG_Images\0787.jpg	YN	Left	Yes	0.532385599999543	0	228479	251
447.296875	2	taste	foodImageDisplay	1	56	56	foodImage.78	FOODEEG_Images\0787.jpg	YN	Left	Yes	0.532385599999543	0	229017	252
449.359375	0.532385599999543	taste	choicePhaseStart	1	56	56	foodImage.78	FOODEEG_Images\0787.jpg	YN	Left	Yes	0.532385599999543	0	230073	253
449.8828125	0	taste	response	1	56	56	foodImage.78	FOODEEG_Images\0787.jpg	YN	Left	Yes	0.532385599999543	0	230341	234
450.92578125	1	decision	trialStart	1	57	57	foodImage.88	FOODEEG_Images\0878.jpg	YN	Left	Yes	0.783403999999791	0	230875	251
451.978515625	2	decision	foodImageDisplay	1	57	57	foodImage.88	FOODEEG_Images\0878.jpg	YN	Left	Yes	0.783403999999791	0	231414	252
454.044921875	0.783403999999791	decision	choicePhaseStart	1	57	57	foodImage.88	FOODEEG_Images\0878.jpg	YN	Left	Yes	0.783403999999791	0	232472	253
454.818359375	0	decision	response	1	57	57	foodImage.88	FOODEEG_Images\0878.jpg	YN	Left	Yes	0.783403999999791	0	232868	234
455.861328125	1	taste	trialStart	1	58	58	foodImage.27	FOODEEG_Images\0263.jpg	YN	Left	Yes	0.525748000000021	0	233402	251
456.90234375	2	taste	foodImageDisplay	1	58	58	foodImage.27	FOODEEG_Images\0263.jpg	YN	Left	Yes	0.525748000000021	0	233935	252
458.96484375	0.525748000000021	taste	choicePhaseStart	1	58	58	foodImage.27	FOODEEG_Images\0263.jpg	YN	Left	Yes	0.525748000000021	0	234991	253
459.482421875	0	taste	response	1	58	58	foodImage.27	FOODEEG_Images\0263.jpg	YN	Left	Yes	0.525748000000021	0	235256	234
460.525390625	1	health	trialStart	1	59	59	foodImage.97	FOODEEG_Images\0905.jpg	NY	Left	No	1.04307789999984	0	235790	251
461.576171875	2	health	foodImageDisplay	1	59	59	foodImage.97	FOODEEG_Images\0905.jpg	NY	Left	No	1.04307789999984	0	236328	252
463.640625	1.04307789999984	health	choicePhaseStart	1	59	59	foodImage.97	FOODEEG_Images\0905.jpg	NY	Left	No	1.04307789999984	0	237385	253
464.673828125	0	health	response	1	59	59	foodImage.97	FOODEEG_Images\0905.jpg	NY	Left	No	1.04307789999984	0	237914	234
465.716796875	1	decision	trialStart	1	60	60	foodImage.25	FOODEEG_Images\0261.jpg	NY	Right	Yes	0.927026999999725	0	238448	251
466.7578125	2	decision	foodImageDisplay	1	60	60	foodImage.25	FOODEEG_Images\0261.jpg	NY	Right	Yes	0.927026999999725	0	238981	252
468.8203125	0.927026999999725	decision	choicePhaseStart	1	60	60	foodImage.25	FOODEEG_Images\0261.jpg	NY	Right	Yes	0.927026999999725	0	240037	253
469.73828125	0	decision	response	1	60	60	foodImage.25	FOODEEG_Images\0261.jpg	NY	Right	Yes	0.927026999999725	0	240507	235
471.78125	5.853515625	n/a	blockEnd	n/a	n/a	n/a	n/a		n/a	n/a	n/a	n/a	n/a	241553	254
477.634765625	2	n/a	blockStart	2	n/a	n/a	n/a		n/a	n/a	n/a	n/a	n/a	244550	250
479.66796875	1	health	trialStart	2	61	1	foodImage.92	FOODEEG_Images\0900.jpg	YN	Left	Yes	0.725686499999938	0	245591	251
480.70703125	2	health	foodImageDisplay	2	61	1	foodImage.92	FOODEEG_Images\0900.jpg	YN	Left	Yes	0.725686499999938	0	246123	252
482.771484375	0.725686499999938	health	choicePhaseStart	2	61	1	foodImage.92	FOODEEG_Images\0900.jpg	YN	Left	Yes	0.725686499999938	0	247180	253
483.48828125	0	health	response	2	61	1	foodImage.92	FOODEEG_Images\0900.jpg	YN	Left	Yes	0.725686499999938	0	247547	234
484.529296875	1	taste	trialStart	2	62	2	foodImage.87	FOODEEG_Images\0873.jpg	YN	Left	Yes	0.513057399999525	0	248080	251
485.587890625	2	taste	foodImageDisplay	2	62	2	foodImage.87	FOODEEG_Images\0873.jpg	YN	Left	Yes	0.513057399999525	0	248622	252
487.650390625	0.513057399999525	taste	choicePhaseStart	2	62	2	foodImage.87	FOODEEG_Images\0873.jpg	YN	Left	Yes	0.513057399999525	0	249678	253
488.154296875	0	taste	response	2	62	2	foodImage.87	FOODEEG_Images\0873.jpg	YN	Left	Yes	0.513057399999525	0	249936	234
489.197265625	1	decision	trialStart	2	63	3	foodImage.39	FOODEEG_Images\0367.jpg	YN	Left	Yes	0.588643200000661	0	250470	251
490.234375	2	decision	foodImageDisplay	2	63	3	foodImage.39	FOODEEG_Images\0367.jpg	YN	Left	Yes	0.588643200000661	0	251001	252
492.298828125	0.588643200000661	decision	choicePhaseStart	2	63	3	foodImage.39	FOODEEG_Images\0367.jpg	YN	Left	Yes	0.588643200000661	0	252058	253
492.880859375	0	decision	response	2	63	3	foodImage.39	FOODEEG_Images\0367.jpg	YN	Left	Yes	0.588643200000661	0	252356	234
493.921875	1	taste	trialStart	2	64	4	foodImage.61	FOODEEG_Images\0640.jpg	YN	Left	Yes	0.606257899999036	0	252889	251
494.962890625	2	taste	foodImageDisplay	2	64	4	foodImage.61	FOODEEG_Images\0640.jpg	YN	Left	Yes	0.606257899999036	0	253422	252
497.02734375	0.606257899999036	taste	choicePhaseStart	2	64	4	foodImage.61	FOODEEG_Images\0640.jpg	YN	Left	Yes	0.606257899999036	0	254479	253
497.625	0	taste	response	2	64	4	foodImage.61	FOODEEG_Images\0640.jpg	YN	Left	Yes	0.606257899999036	0	254785	234
498.66796875	1	decision	trialStart	2	65	5	foodImage.13	FOODEEG_Images\0183.jpg	NY	Right	Yes	1.76587619999918	0	255319	251
499.708984375	2	decision	foodImageDisplay	2	65	5	foodImage.13	FOODEEG_Images\0183.jpg	NY	Right	Yes	1.76587619999918	0	255852	252
501.771484375	1.76587619999918	decision	choicePhaseStart	2	65	5	foodImage.13	FOODEEG_Images\0183.jpg	NY	Right	Yes	1.76587619999918	0	256908	253
503.52734375	0	decision	response	2	65	5	foodImage.13	FOODEEG_Images\0183.jpg	NY	Right	Yes	1.76587619999918	0	257807	235
504.572265625	1	health	trialStart	2	66	6	foodImage.80	FOODEEG_Images\0796.jpg	NY	Right	Yes	0.630032699998992	0	258342	251
505.62890625	2	health	foodImageDisplay	2	66	6	foodImage.80	FOODEEG_Images\0796.jpg	NY	Right	Yes	0.630032699998992	0	258883	252
507.69140625	0.630032699998992	health	choicePhaseStart	2	66	6	foodImage.80	FOODEEG_Images\0796.jpg	NY	Right	Yes	0.630032699998992	0	259939	253
508.3125	0	health	response	2	66	6	foodImage.80	FOODEEG_Images\0796.jpg	NY	Right	Yes	0.630032699998992	0	260257	235
509.35546875	1	health	trialStart	2	67	7	foodImage.16	FOODEEG_Images\0196.jpg	YN	Left	Yes	0.541909499999747	0	260791	251
510.412109375	2	health	foodImageDisplay	2	67	7	foodImage.16	FOODEEG_Images\0196.jpg	YN	Left	Yes	0.541909499999747	0	261332	252
512.474609375	0.541909499999747	health	choicePhaseStart	2	67	7	foodImage.16	FOODEEG_Images\0196.jpg	YN	Left	Yes	0.541909499999747	0	262388	253
513.0078125	0	health	response	2	67	7	foodImage.16	FOODEEG_Images\0196.jpg	YN	Left	Yes	0.541909499999747	0	262661	234
514.05078125	1	taste	trialStart	2	68	8	foodImage.49	FOODEEG_Images\0515.jpg	YN	Left	Yes	0.605678399999306	0	263195	251
515.091796875	2	taste	foodImageDisplay	2	68	8	foodImage.49	FOODEEG_Images\0515.jpg	YN	Left	Yes	0.605678399999306	0	263728	252
517.162109375	0.605678399999306	taste	choicePhaseStart	2	68	8	foodImage.49	FOODEEG_Images\0515.jpg	YN	Left	Yes	0.605678399999306	0	264788	253
517.759765625	0	taste	response	2	68	8	foodImage.49	FOODEEG_Images\0515.jpg	YN	Left	Yes	0.605678399999306	0	265094	234
518.802734375	1	health	trialStart	2	69	9	foodImage.78	FOODEEG_Images\0787.jpg	NY	Right	Yes	0.528561600000103	0	265628	251
519.84765625	2	health	foodImageDisplay	2	69	9	foodImage.78	FOODEEG_Images\0787.jpg	NY	Right	Yes	0.528561600000103	0	266163	252
521.912109375	0.528561600000103	health	choicePhaseStart	2	69	9	foodImage.78	FOODEEG_Images\0787.jpg	NY	Right	Yes	0.528561600000103	0	267220	253
522.431640625	0	health	response	2	69	9	foodImage.78	FOODEEG_Images\0787.jpg	NY	Right	Yes	0.528561600000103	0	267486	235
523.48046875	1	health	trialStart	2	70	10	foodImage.25	FOODEEG_Images\0261.jpg	YN	Left	Yes	0.543715699999666	0	268023	251
524.521484375	2	health	foodImageDisplay	2	70	10	foodImage.25	FOODEEG_Images\0261.jpg	YN	Left	Yes	0.543715699999666	0	268556	252
526.583984375	0.543715699999666	health	choicePhaseStart	2	70	10	foodImage.25	FOODEEG_Images\0261.jpg	YN	Left	Yes	0.543715699999666	0	269612	253
527.119140625	0	health	response	2	70	10	foodImage.25	FOODEEG_Images\0261.jpg	YN	Left	Yes	0.543715699999666	0	269886	234
528.162109375	1	taste	trialStart	2	71	11	foodImage.104	FOODEEG_Images\0912.jpg	NY	Right	Yes	0.594233699999677	0	270420	251
529.19921875	2	taste	foodImageDisplay	2	71	11	foodImage.104	FOODEEG_Images\0912.jpg	NY	Right	Yes	0.594233699999677	0	270951	252
531.26171875	0.594233699999677	taste	choicePhaseStart	2	71	11	foodImage.104	FOODEEG_Images\0912.jpg	NY	Right	Yes	0.594233699999677	0	272007	253
531.84765625	0	taste	response	2	71	11	foodImage.104	FOODEEG_Images\0912.jpg	NY	Right	Yes	0.594233699999677	0	272307	235
532.890625	1	taste	trialStart	2	72	12	foodImage.106	FOODEEG_Images\0914.jpg	YN	Left	Yes	0.608209699999861	0	272841	251
533.9296875	2	taste	foodImageDisplay	2	72	12	foodImage.106	FOODEEG_Images\0914.jpg	YN	Left	Yes	0.608209699999861	0	273373	252
535.9921875	0.608209699999861	taste	choicePhaseStart	2	72	12	foodImage.106	FOODEEG_Images\0914.jpg	YN	Left	Yes	0.608209699999861	0	274429	253
536.591796875	0	taste	response	2	72	12	foodImage.106	FOODEEG_Images\0914.jpg	YN	Left	Yes	0.608209699999861	0	274736	234
537.6328125	1	taste	trialStart	2	73	13	foodImage.1	FOODEEG_Images\0004.jpg	YN	Left	Yes	1.06926419999945	0	275269	251
538.67578125	2	taste	foodImageDisplay	2	73	13	foodImage.1	FOODEEG_Images\0004.jpg	YN	Left	Yes	1.06926419999945	0	275803	252
540.73828125	1.06926419999945	taste	choicePhaseStart	2	73	13	foodImage.1	FOODEEG_Images\0004.jpg	YN	Left	Yes	1.06926419999945	0	276859	253
541.798828125	0	taste	response	2	73	13	foodImage.1	FOODEEG_Images\0004.jpg	YN	Left	Yes	1.06926419999945	0	277402	234
542.84765625	1	health	trialStart	2	74	14	foodImage.53	FOODEEG_Images\0547.jpg	YN	Left	Yes	1.03085890000148	0	277939	251
543.90625	2	health	foodImageDisplay	2	74	14	foodImage.53	FOODEEG_Images\0547.jpg	YN	Left	Yes	1.03085890000148	0	278481	252
545.96875	1.03085890000148	health	choicePhaseStart	2	74	14	foodImage.53	FOODEEG_Images\0547.jpg	YN	Left	Yes	1.03085890000148	0	279537	253
546.990234375	0	health	response	2	74	14	foodImage.53	FOODEEG_Images\0547.jpg	YN	Left	Yes	1.03085890000148	0	280060	234
548.033203125	1	health	trialStart	2	75	15	foodImage.87	FOODEEG_Images\0873.jpg	NY	Right	Yes	0.844877600000473	0	280594	251
549.08984375	2	health	foodImageDisplay	2	75	15	foodImage.87	FOODEEG_Images\0873.jpg	NY	Right	Yes	0.844877600000473	0	281135	252
551.154296875	0.844877600000473	health	choicePhaseStart	2	75	15	foodImage.87	FOODEEG_Images\0873.jpg	NY	Right	Yes	0.844877600000473	0	282192	253
551.990234375	0	health	response	2	75	15	foodImage.87	FOODEEG_Images\0873.jpg	NY	Right	Yes	0.844877600000473	0	282620	235
553.033203125	1	health	trialStart	2	76	16	foodImage.108	FOODEEG_Images\0916.jpg	YN	Left	Yes	1.13730779999969	0	283154	251
554.0703125	2	health	foodImageDisplay	2	76	16	foodImage.108	FOODEEG_Images\0916.jpg	YN	Left	Yes	1.13730779999969	0	283685	252
556.1328125	1.13730779999969	health	choicePhaseStart	2	76	16	foodImage.108	FOODEEG_Images\0916.jpg	YN	Left	Yes	1.13730779999969	0	284741	253
557.26171875	0	health	response	2	76	16	foodImage.108	FOODEEG_Images\0916.jpg	YN	Left	Yes	1.13730779999969	0	285319	234
558.3046875	1	health	trialStart	2	77	17	foodImage.19	FOODEEG_Images\0225.jpg	YN	Left	Yes	0.535288399998535	0	285853	251
559.353515625	2	health	foodImageDisplay	2	77	17	foodImage.19	FOODEEG_Images\0225.jpg	YN	Left	Yes	0.535288399998535	0	286390	252
561.416015625	0.535288399998535	health	choicePhaseStart	2	77	17	foodImage.19	FOODEEG_Images\0225.jpg	YN	Left	Yes	0.535288399998535	0	287446	253
561.94140625	0	health	response	2	77	17	foodImage.19	FOODEEG_Images\0225.jpg	YN	Left	Yes	0.535288399998535	0	287715	234
562.984375	1	health	trialStart	2	78	18	foodImage.103	FOODEEG_Images\0911.jpg	YN	Right	No	0.657254499999908	0	288249	251
564.0234375	2	health	foodImageDisplay	2	78	18	foodImage.103	FOODEEG_Images\0911.jpg	YN	Right	No	0.657254499999908	0	288781	252
566.09375	0.657254499999908	health	choicePhaseStart	2	78	18	foodImage.103	FOODEEG_Images\0911.jpg	YN	Right	No	0.657254499999908	0	289841	253
566.7421875	0	health	response	2	78	18	foodImage.103	FOODEEG_Images\0911.jpg	YN	Right	No	0.657254499999908	0	290173	235
567.78515625	1	taste	trialStart	2	79	19	foodImage.84	FOODEEG_Images\0830.jpg	YN	Left	Yes	0.629320000000007	0	290707	251
568.841796875	2	taste	foodImageDisplay	2	79	19	foodImage.84	FOODEEG_Images\0830.jpg	YN	Left	Yes	0.629320000000007	0	291248	252
570.904296875	0.629320000000007	taste	choicePhaseStart	2	79	19	foodImage.84	FOODEEG_Images\0830.jpg	YN	Left	Yes	0.629320000000007	0	292304	253
571.525390625	0	taste	response	2	79	19	foodImage.84	FOODEEG_Images\0830.jpg	YN	Left	Yes	0.629320000000007	0	292622	234
572.57421875	1	decision	trialStart	2	80	20	foodImage.45	FOODEEG_Images\0478.jpg	NY	Right	Yes	0.819408600000315	0	293159	251
573.62109375	2	decision	foodImageDisplay	2	80	20	foodImage.45	FOODEEG_Images\0478.jpg	NY	Right	Yes	0.819408600000315	0	293695	252
575.68359375	0.819408600000315	decision	choicePhaseStart	2	80	20	foodImage.45	FOODEEG_Images\0478.jpg	NY	Right	Yes	0.819408600000315	0	294751	253
576.494140625	0	decision	response	2	80	20	foodImage.45	FOODEEG_Images\0478.jpg	NY	Right	Yes	0.819408600000315	0	295166	235
577.537109375	1	decision	trialStart	2	81	21	foodImage.74	FOODEEG_Images\0752.jpg	NY	Right	Yes	0.496079700000337	0	295700	251
578.59765625	2	decision	foodImageDisplay	2	81	21	foodImage.74	FOODEEG_Images\0752.jpg	NY	Right	Yes	0.496079700000337	0	296243	252
580.662109375	0.496079700000337	decision	choicePhaseStart	2	81	21	foodImage.74	FOODEEG_Images\0752.jpg	NY	Right	Yes	0.496079700000337	0	297300	253
581.1484375	0	decision	response	2	81	21	foodImage.74	FOODEEG_Images\0752.jpg	NY	Right	Yes	0.496079700000337	0	297549	235
582.19140625	1	taste	trialStart	2	82	22	foodImage.113	FOODEEG_Images\0921.jpg	NY	Left	No	0.657380000000558	0	298083	251
583.228515625	2	taste	foodImageDisplay	2	82	22	foodImage.113	FOODEEG_Images\0921.jpg	NY	Left	No	0.657380000000558	0	298614	252
585.29296875	0.657380000000558	taste	choicePhaseStart	2	82	22	foodImage.113	FOODEEG_Images\0921.jpg	NY	Left	No	0.657380000000558	0	299671	253
585.94140625	0	taste	response	2	82	22	foodImage.113	FOODEEG_Images\0921.jpg	NY	Left	No	0.657380000000558	0	300003	234
586.984375	1	health	trialStart	2	83	23	foodImage.61	FOODEEG_Images\0640.jpg	NY	Right	Yes	0.686009499999273	0	300537	251
588.025390625	2	health	foodImageDisplay	2	83	23	foodImage.61	FOODEEG_Images\0640.jpg	NY	Right	Yes	0.686009499999273	0	301070	252
590.087890625	0.686009499999273	health	choicePhaseStart	2	83	23	foodImage.61	FOODEEG_Images\0640.jpg	NY	Right	Yes	0.686009499999273	0	302126	253
590.765625	0	health	response	2	83	23	foodImage.61	FOODEEG_Images\0640.jpg	NY	Right	Yes	0.686009499999273	0	302473	235
591.80859375	1	taste	trialStart	2	84	24	foodImage.29	FOODEEG_Images\0278.jpg	YN	Left	Yes	0.75056240000049	0	303007	251
592.849609375	2	taste	foodImageDisplay	2	84	24	foodImage.29	FOODEEG_Images\0278.jpg	YN	Left	Yes	0.75056240000049	0	303540	252
594.912109375	0.75056240000049	taste	choicePhaseStart	2	84	24	foodImage.29	FOODEEG_Images\0278.jpg	YN	Left	Yes	0.75056240000049	0	304596	253
595.65234375	0	taste	response	2	84	24	foodImage.29	FOODEEG_Images\0278.jpg	YN	Left	Yes	0.75056240000049	0	304975	234
596.6953125	1	decision	trialStart	2	85	25	foodImage.82	FOODEEG_Images\0805.jpg	NY	Right	Yes	1.13724999999977	0	305509	251
597.765625	2	decision	foodImageDisplay	2	85	25	foodImage.82	FOODEEG_Images\0805.jpg	NY	Right	Yes	1.13724999999977	0	306057	252
599.828125	1.13724999999977	decision	choicePhaseStart	2	85	25	foodImage.82	FOODEEG_Images\0805.jpg	NY	Right	Yes	1.13724999999977	0	307113	253
600.95703125	0	decision	response	2	85	25	foodImage.82	FOODEEG_Images\0805.jpg	NY	Right	Yes	1.13724999999977	0	307691	235
602	1	taste	trialStart	2	86	26	foodImage.59	FOODEEG_Images\0607.jpg	YN	Left	Yes	0.831351200000427	0	308225	251
603.046875	2	taste	foodImageDisplay	2	86	26	foodImage.59	FOODEEG_Images\0607.jpg	YN	Left	Yes	0.831351200000427	0	308761	252
605.109375	0.831351200000427	taste	choicePhaseStart	2	86	26	foodImage.59	FOODEEG_Images\0607.jpg	YN	Left	Yes	0.831351200000427	0	309817	253
605.931640625	0	taste	response	2	86	26	foodImage.59	FOODEEG_Images\0607.jpg	YN	Left	Yes	0.831351200000427	0	310238	234
606.974609375	1	health	trialStart	2	87	27	foodImage.118	FOODEEG_Images\0926.jpg	YN	Left	Yes	1.08744120000119	0	310772	251
608.013671875	2	health	foodImageDisplay	2	87	27	foodImage.118	FOODEEG_Images\0926.jpg	YN	Left	Yes	1.08744120000119	0	311304	252
610.078125	1.08744120000119	health	choicePhaseStart	2	87	27	foodImage.118	FOODEEG_Images\0926.jpg	YN	Left	Yes	1.08744120000119	0	312361	253
611.15625	0	health	response	2	87	27	foodImage.118	FOODEEG_Images\0926.jpg	YN	Left	Yes	1.08744120000119	0	312913	234
612.197265625	1	health	trialStart	2	88	28	foodImage.54	FOODEEG_Images\0560.jpg	YN	Left	Yes	0.638350100000025	0	313446	251
613.255859375	2	health	foodImageDisplay	2	88	28	foodImage.54	FOODEEG_Images\0560.jpg	YN	Left	Yes	0.638350100000025	0	313988	252
615.318359375	0.638350100000025	health	choicePhaseStart	2	88	28	foodImage.54	FOODEEG_Images\0560.jpg	YN	Left	Yes	0.638350100000025	0	315044	253
615.947265625	0	health	response	2	88	28	foodImage.54	FOODEEG_Images\0560.jpg	YN	Left	Yes	0.638350100000025	0	315366	234
616.990234375	1	health	trialStart	2	89	29	foodImage.94	FOODEEG_Images\0902.jpg	NY	Left	No	1.0503559000008	0	315900	251
618.02734375	2	health	foodImageDisplay	2	89	29	foodImage.94	FOODEEG_Images\0902.jpg	NY	Left	No	1.0503559000008	0	316431	252
620.08984375	1.0503559000008	health	choicePhaseStart	2	89	29	foodImage.94	FOODEEG_Images\0902.jpg	NY	Left	No	1.0503559000008	0	317487	253
621.130859375	0	health	response	2	89	29	foodImage.94	FOODEEG_Images\0902.jpg	NY	Left	No	1.0503559000008	0	318020	234
622.173828125	1	health	trialStart	2	90	30	foodImage.51	FOODEEG_Images\0536.jpg	YN	Right	No	0.983728899998823	0	318554	251
623.21875	2	health	foodImageDisplay	2	90	30	foodImage.51	FOODEEG_Images\0536.jpg	YN	Right	No	0.983728899998823	0	319089	252
625.28515625	0.983728899998823	health	choicePhaseStart	2	90	30	foodImage.51	FOODEEG_Images\0536.jpg	YN	Right	No	0.983728899998823	0	320147	253
626.259765625	0	health	response	2	90	30	foodImage.51	FOODEEG_Images\0536.jpg	YN	Right	No	0.983728899998823	0	320646	235
627.30859375	1	decision	trialStart	2	91	31	foodImage.120	FOODEEG_Images\0928.jpg	NY	Left	No	0.832080000000133	0	321183	251
628.345703125	2	decision	foodImageDisplay	2	91	31	foodImage.120	FOODEEG_Images\0928.jpg	NY	Left	No	0.832080000000133	0	321714	252
630.412109375	0.832080000000133	decision	choicePhaseStart	2	91	31	foodImage.120	FOODEEG_Images\0928.jpg	NY	Left	No	0.832080000000133	0	322772	253
631.234375	0	decision	response	2	91	31	foodImage.120	FOODEEG_Images\0928.jpg	NY	Left	No	0.832080000000133	0	323193	234
632.27734375	1	decision	trialStart	2	92	32	foodImage.23	FOODEEG_Images\0244.jpg	YN	Left	Yes	0.844664000000193	0	323727	251
633.333984375	2	decision	foodImageDisplay	2	92	32	foodImage.23	FOODEEG_Images\0244.jpg	YN	Left	Yes	0.844664000000193	0	324268	252
635.396484375	0.844664000000193	decision	choicePhaseStart	2	92	32	foodImage.23	FOODEEG_Images\0244.jpg	YN	Left	Yes	0.844664000000193	0	325324	253
636.234375	0	decision	response	2	92	32	foodImage.23	FOODEEG_Images\0244.jpg	YN	Left	Yes	0.844664000000193	0	325753	234
637.27734375	1	decision	trialStart	2	93	33	foodImage.107	FOODEEG_Images\0915.jpg	NY	Right	Yes	0.529368400000749	0	326287	251
638.318359375	2	decision	foodImageDisplay	2	93	33	foodImage.107	FOODEEG_Images\0915.jpg	NY	Right	Yes	0.529368400000749	0	326820	252
640.38671875	0.529368400000749	decision	choicePhaseStart	2	93	33	foodImage.107	FOODEEG_Images\0915.jpg	NY	Right	Yes	0.529368400000749	0	327879	253
640.90625	0	decision	response	2	93	33	foodImage.107	FOODEEG_Images\0915.jpg	NY	Right	Yes	0.529368400000749	0	328145	235
641.951171875	1	health	trialStart	2	94	34	foodImage.81	FOODEEG_Images\0797.jpg	YN	Left	Yes	0.707294399999228	0	328680	251
643.009765625	2	health	foodImageDisplay	2	94	34	foodImage.81	FOODEEG_Images\0797.jpg	YN	Left	Yes	0.707294399999228	0	329222	252
645.072265625	0.707294399999228	health	choicePhaseStart	2	94	34	foodImage.81	FOODEEG_Images\0797.jpg	YN	Left	Yes	0.707294399999228	0	330278	253
645.76953125	0	health	response	2	94	34	foodImage.81	FOODEEG_Images\0797.jpg	YN	Left	Yes	0.707294399999228	0	330635	234
646.814453125	1	taste	trialStart	2	95	35	foodImage.79	FOODEEG_Images\0794.jpg	YN	Left	Yes	0.503798800000368	0	331170	251
647.857421875	2	taste	foodImageDisplay	2	95	35	foodImage.79	FOODEEG_Images\0794.jpg	YN	Left	Yes	0.503798800000368	0	331704	252
649.921875	0.503798800000368	taste	choicePhaseStart	2	95	35	foodImage.79	FOODEEG_Images\0794.jpg	YN	Left	Yes	0.503798800000368	0	332761	253
650.41796875	0	taste	response	2	95	35	foodImage.79	FOODEEG_Images\0794.jpg	YN	Left	Yes	0.503798800000368	0	333015	234
651.4609375	1	decision	trialStart	2	96	36	foodImage.27	FOODEEG_Images\0263.jpg	YN	Left	Yes	0.524603800000477	0	333549	251
652.501953125	2	decision	foodImageDisplay	2	96	36	foodImage.27	FOODEEG_Images\0263.jpg	YN	Left	Yes	0.524603800000477	0	334082	252
654.56640625	0.524603800000477	decision	choicePhaseStart	2	96	36	foodImage.27	FOODEEG_Images\0263.jpg	YN	Left	Yes	0.524603800000477	0	335139	253
655.08203125	0	decision	response	2	96	36	foodImage.27	FOODEEG_Images\0263.jpg	YN	Left	Yes	0.524603800000477	0	335403	234
656.125	1	health	trialStart	2	97	37	foodImage.104	FOODEEG_Images\0912.jpg	YN	Left	Yes	0.597537399999055	0	335937	251
657.1640625	2	health	foodImageDisplay	2	97	37	foodImage.104	FOODEEG_Images\0912.jpg	YN	Left	Yes	0.597537399999055	0	336469	252
659.2265625	0.597537399999055	health	choicePhaseStart	2	97	37	foodImage.104	FOODEEG_Images\0912.jpg	YN	Left	Yes	0.597537399999055	0	337525	253
659.818359375	0	health	response	2	97	37	foodImage.104	FOODEEG_Images\0912.jpg	YN	Left	Yes	0.597537399999055	0	337828	234
660.861328125	1	health	trialStart	2	98	38	foodImage.3	FOODEEG_Images\0046.jpg	YN	Left	Yes	0.579897300000084	0	338362	251
661.90234375	2	health	foodImageDisplay	2	98	38	foodImage.3	FOODEEG_Images\0046.jpg	YN	Left	Yes	0.579897300000084	0	338895	252
663.966796875	0.579897300000084	health	choicePhaseStart	2	98	38	foodImage.3	FOODEEG_Images\0046.jpg	YN	Left	Yes	0.579897300000084	0	339952	253
664.537109375	0	health	response	2	98	38	foodImage.3	FOODEEG_Images\0046.jpg	YN	Left	Yes	0.579897300000084	0	340244	234
665.58203125	1	taste	trialStart	2	99	39	foodImage.69	FOODEEG_Images\0693.jpg	YN	Left	Yes	0.547544700000799	0	340779	251
666.623046875	2	taste	foodImageDisplay	2	99	39	foodImage.69	FOODEEG_Images\0693.jpg	YN	Left	Yes	0.547544700000799	0	341312	252
668.685546875	0.547544700000799	taste	choicePhaseStart	2	99	39	foodImage.69	FOODEEG_Images\0693.jpg	YN	Left	Yes	0.547544700000799	0	342368	253
669.224609375	0	taste	response	2	99	39	foodImage.69	FOODEEG_Images\0693.jpg	YN	Left	Yes	0.547544700000799	0	342644	234
670.26953125	1	decision	trialStart	2	100	40	foodImage.72	FOODEEG_Images\0714.jpg	YN	Right	No	1.08560550000038	0	343179	251
671.310546875	2	decision	foodImageDisplay	2	100	40	foodImage.72	FOODEEG_Images\0714.jpg	YN	Right	No	1.08560550000038	0	343712	252
673.373046875	1.08560550000038	decision	choicePhaseStart	2	100	40	foodImage.72	FOODEEG_Images\0714.jpg	YN	Right	No	1.08560550000038	0	344768	253
674.44921875	0	decision	response	2	100	40	foodImage.72	FOODEEG_Images\0714.jpg	YN	Right	No	1.08560550000038	0	345319	235
675.490234375	1	decision	trialStart	2	101	41	foodImage.26	FOODEEG_Images\0262.jpg	YN	Left	Yes	0.589978199999678	0	345852	251
676.53125	2	decision	foodImageDisplay	2	101	41	foodImage.26	FOODEEG_Images\0262.jpg	YN	Left	Yes	0.589978199999678	0	346385	252
678.59375	0.589978199999678	decision	choicePhaseStart	2	101	41	foodImage.26	FOODEEG_Images\0262.jpg	YN	Left	Yes	0.589978199999678	0	347441	253
679.177734375	0	decision	response	2	101	41	foodImage.26	FOODEEG_Images\0262.jpg	YN	Left	Yes	0.589978199999678	0	347740	234
680.220703125	1	health	trialStart	2	102	42	foodImage.110	FOODEEG_Images\0918.jpg	YN	Right	No	0.839315200000783	0	348274	251
681.2578125	2	health	foodImageDisplay	2	102	42	foodImage.110	FOODEEG_Images\0918.jpg	YN	Right	No	0.839315200000783	0	348805	252
683.3203125	0.839315200000783	health	choicePhaseStart	2	102	42	foodImage.110	FOODEEG_Images\0918.jpg	YN	Right	No	0.839315200000783	0	349861	253
684.15234375	0	health	response	2	102	42	foodImage.110	FOODEEG_Images\0918.jpg	YN	Right	No	0.839315200000783	0	350287	235
685.197265625	1	taste	trialStart	2	103	43	foodImage.45	FOODEEG_Images\0478.jpg	YN	Left	Yes	0.942631200001415	0	350822	251
686.240234375	2	taste	foodImageDisplay	2	103	43	foodImage.45	FOODEEG_Images\0478.jpg	YN	Left	Yes	0.942631200001415	0	351356	252
688.30859375	0.942631200001415	taste	choicePhaseStart	2	103	43	foodImage.45	FOODEEG_Images\0478.jpg	YN	Left	Yes	0.942631200001415	0	352415	253
689.240234375	0	taste	response	2	103	43	foodImage.45	FOODEEG_Images\0478.jpg	YN	Left	Yes	0.942631200001415	0	352892	234
690.2890625	1	health	trialStart	2	104	44	foodImage.102	FOODEEG_Images\0910.jpg	YN	Right	No	1.15469789999952	0	353429	251
691.328125	2	health	foodImageDisplay	2	104	44	foodImage.102	FOODEEG_Images\0910.jpg	YN	Right	No	1.15469789999952	0	353961	252
693.392578125	1.15469789999952	health	choicePhaseStart	2	104	44	foodImage.102	FOODEEG_Images\0910.jpg	YN	Right	No	1.15469789999952	0	355018	253
694.537109375	0	health	response	2	104	44	foodImage.102	FOODEEG_Images\0910.jpg	YN	Right	No	1.15469789999952	0	355604	235
695.578125	1	decision	trialStart	2	105	45	foodImage.36	FOODEEG_Images\0352.jpg	NY	Left	No	1.28606349999973	0	356137	251
696.63671875	2	decision	foodImageDisplay	2	105	45	foodImage.36	FOODEEG_Images\0352.jpg	NY	Left	No	1.28606349999973	0	356679	252
698.69921875	1.28606349999973	decision	choicePhaseStart	2	105	45	foodImage.36	FOODEEG_Images\0352.jpg	NY	Left	No	1.28606349999973	0	357735	253
699.9765625	0	decision	response	2	105	45	foodImage.36	FOODEEG_Images\0352.jpg	NY	Left	No	1.28606349999973	0	358389	234
701.01953125	1	decision	trialStart	2	106	46	foodImage.5	FOODEEG_Images\0107.jpg	YN	Left	Yes	0.627742800001215	0	358923	251
702.080078125	2	decision	foodImageDisplay	2	106	46	foodImage.5	FOODEEG_Images\0107.jpg	YN	Left	Yes	0.627742800001215	0	359466	252
704.142578125	0.627742800001215	decision	choicePhaseStart	2	106	46	foodImage.5	FOODEEG_Images\0107.jpg	YN	Left	Yes	0.627742800001215	0	360522	253
704.759765625	0	decision	response	2	106	46	foodImage.5	FOODEEG_Images\0107.jpg	YN	Left	Yes	0.627742800001215	0	360838	234
705.80859375	1	taste	trialStart	2	107	47	foodImage.73	FOODEEG_Images\0717.jpg	NY	Right	Yes	0.820127700000739	0	361375	251
706.8671875	2	taste	foodImageDisplay	2	107	47	foodImage.73	FOODEEG_Images\0717.jpg	NY	Right	Yes	0.820127700000739	0	361917	252
708.931640625	0.820127700000739	taste	choicePhaseStart	2	107	47	foodImage.73	FOODEEG_Images\0717.jpg	NY	Right	Yes	0.820127700000739	0	362974	253
709.744140625	0	taste	response	2	107	47	foodImage.73	FOODEEG_Images\0717.jpg	NY	Right	Yes	0.820127700000739	0	363390	235
710.787109375	1	decision	trialStart	2	108	48	foodImage.81	FOODEEG_Images\0797.jpg	YN	Right	No	0.91872610000064	0	363924	251
711.84375	2	decision	foodImageDisplay	2	108	48	foodImage.81	FOODEEG_Images\0797.jpg	YN	Right	No	0.91872610000064	0	364465	252
713.90625	0.91872610000064	decision	choicePhaseStart	2	108	48	foodImage.81	FOODEEG_Images\0797.jpg	YN	Right	No	0.91872610000064	0	365521	253
714.81640625	0	decision	response	2	108	48	foodImage.81	FOODEEG_Images\0797.jpg	YN	Right	No	0.91872610000064	0	365987	235
715.859375	1	health	trialStart	2	109	49	foodImage.14	FOODEEG_Images\0188.jpg	YN	Right	No	1.05164160000095	0	366521	251
716.919921875	2	health	foodImageDisplay	2	109	49	foodImage.14	FOODEEG_Images\0188.jpg	YN	Right	No	1.05164160000095	0	367064	252
718.982421875	1.05164160000095	health	choicePhaseStart	2	109	49	foodImage.14	FOODEEG_Images\0188.jpg	YN	Right	No	1.05164160000095	0	368120	253
720.0234375	0	health	response	2	109	49	foodImage.14	FOODEEG_Images\0188.jpg	YN	Right	No	1.05164160000095	0	368653	235
721.068359375	1	decision	trialStart	2	110	50	foodImage.113	FOODEEG_Images\0921.jpg	YN	Right	No	0.723735999999917	0	369188	251
722.109375	2	decision	foodImageDisplay	2	110	50	foodImage.113	FOODEEG_Images\0921.jpg	YN	Right	No	0.723735999999917	0	369721	252
724.171875	0.723735999999917	decision	choicePhaseStart	2	110	50	foodImage.113	FOODEEG_Images\0921.jpg	YN	Right	No	0.723735999999917	0	370777	253
724.88671875	0	decision	response	2	110	50	foodImage.113	FOODEEG_Images\0921.jpg	YN	Right	No	0.723735999999917	0	371143	235
725.931640625	1	health	trialStart	2	111	51	foodImage.76	FOODEEG_Images\0766.jpg	NY	Left	No	0.978199300001506	0	371678	251
726.974609375	2	health	foodImageDisplay	2	111	51	foodImage.76	FOODEEG_Images\0766.jpg	NY	Left	No	0.978199300001506	0	372212	252
729.0390625	0.978199300001506	health	choicePhaseStart	2	111	51	foodImage.76	FOODEEG_Images\0766.jpg	NY	Left	No	0.978199300001506	0	373269	253
730.0078125	0	health	response	2	111	51	foodImage.76	FOODEEG_Images\0766.jpg	NY	Left	No	0.978199300001506	0	373765	234
731.048828125	1	decision	trialStart	2	112	52	foodImage.110	FOODEEG_Images\0918.jpg	YN	Right	No	0.730326599999898	0	374298	251
732.087890625	2	decision	foodImageDisplay	2	112	52	foodImage.110	FOODEEG_Images\0918.jpg	YN	Right	No	0.730326599999898	0	374830	252
734.150390625	0.730326599999898	decision	choicePhaseStart	2	112	52	foodImage.110	FOODEEG_Images\0918.jpg	YN	Right	No	0.730326599999898	0	375886	253
734.87109375	0	decision	response	2	112	52	foodImage.110	FOODEEG_Images\0918.jpg	YN	Right	No	0.730326599999898	0	376255	235
735.916015625	1	decision	trialStart	2	113	53	foodImage.114	FOODEEG_Images\0922.jpg	YN	Right	No	0.64805879999949	0	376790	251
736.953125	2	decision	foodImageDisplay	2	113	53	foodImage.114	FOODEEG_Images\0922.jpg	YN	Right	No	0.64805879999949	0	377321	252
739.015625	0.64805879999949	decision	choicePhaseStart	2	113	53	foodImage.114	FOODEEG_Images\0922.jpg	YN	Right	No	0.64805879999949	0	378377	253
739.654296875	0	decision	response	2	113	53	foodImage.114	FOODEEG_Images\0922.jpg	YN	Right	No	0.64805879999949	0	378704	235
740.69921875	1	taste	trialStart	2	114	54	foodImage.98	FOODEEG_Images\0906.jpg	YN	Left	Yes	0.926910900001531	0	379239	251
741.73828125	2	taste	foodImageDisplay	2	114	54	foodImage.98	FOODEEG_Images\0906.jpg	YN	Left	Yes	0.926910900001531	0	379771	252
743.80078125	0.926910900001531	taste	choicePhaseStart	2	114	54	foodImage.98	FOODEEG_Images\0906.jpg	YN	Left	Yes	0.926910900001531	0	380827	253
744.71875	0	taste	response	2	114	54	foodImage.98	FOODEEG_Images\0906.jpg	YN	Left	Yes	0.926910900001531	0	381297	234
745.76171875	1	health	trialStart	2	115	55	foodImage.37	FOODEEG_Images\0359.jpg	NY	Right	Yes	0.666792199999691	0	381831	251
746.822265625	2	health	foodImageDisplay	2	115	55	foodImage.37	FOODEEG_Images\0359.jpg	NY	Right	Yes	0.666792199999691	0	382374	252
748.884765625	0.666792199999691	health	choicePhaseStart	2	115	55	foodImage.37	FOODEEG_Images\0359.jpg	NY	Right	Yes	0.666792199999691	0	383430	253
749.54296875	0	health	response	2	115	55	foodImage.37	FOODEEG_Images\0359.jpg	NY	Right	Yes	0.666792199999691	0	383767	235
750.5859375	1	decision	trialStart	2	116	56	foodImage.70	FOODEEG_Images\0705.jpg	YN	Left	Yes	0.540227199999208	0	384301	251
751.64453125	2	decision	foodImageDisplay	2	116	56	foodImage.70	FOODEEG_Images\0705.jpg	YN	Left	Yes	0.540227199999208	0	384843	252
753.708984375	0.540227199999208	decision	choicePhaseStart	2	116	56	foodImage.70	FOODEEG_Images\0705.jpg	YN	Left	Yes	0.540227199999208	0	385900	253
754.23828125	0	decision	response	2	116	56	foodImage.70	FOODEEG_Images\0705.jpg	YN	Left	Yes	0.540227199999208	0	386171	234
755.28125	1	health	trialStart	2	117	57	foodImage.120	FOODEEG_Images\0928.jpg	NY	Right	Yes	0.655809200001386	0	386705	251
756.3203125	2	health	foodImageDisplay	2	117	57	foodImage.120	FOODEEG_Images\0928.jpg	NY	Right	Yes	0.655809200001386	0	387237	252
758.384765625	0.655809200001386	health	choicePhaseStart	2	117	57	foodImage.120	FOODEEG_Images\0928.jpg	NY	Right	Yes	0.655809200001386	0	388294	253
759.029296875	0	health	response	2	117	57	foodImage.120	FOODEEG_Images\0928.jpg	NY	Right	Yes	0.655809200001386	0	388624	235
760.072265625	1	decision	trialStart	2	118	58	foodImage.24	FOODEEG_Images\0250.jpg	YN	Left	Yes	0.630430100000012	0	389158	251
761.11328125	2	decision	foodImageDisplay	2	118	58	foodImage.24	FOODEEG_Images\0250.jpg	YN	Left	Yes	0.630430100000012	0	389691	252
763.17578125	0.630430100000012	decision	choicePhaseStart	2	118	58	foodImage.24	FOODEEG_Images\0250.jpg	YN	Left	Yes	0.630430100000012	0	390747	253
763.798828125	0	decision	response	2	118	58	foodImage.24	FOODEEG_Images\0250.jpg	YN	Left	Yes	0.630430100000012	0	391066	234
764.841796875	1	decision	trialStart	2	119	59	foodImage.52	FOODEEG_Images\0539.jpg	YN	Left	Yes	0.557348500000444	0	391600	251
765.8984375	2	decision	foodImageDisplay	2	119	59	foodImage.52	FOODEEG_Images\0539.jpg	YN	Left	Yes	0.557348500000444	0	392141	252
767.9609375	0.557348500000444	decision	choicePhaseStart	2	119	59	foodImage.52	FOODEEG_Images\0539.jpg	YN	Left	Yes	0.557348500000444	0	393197	253
768.509765625	0	decision	response	2	119	59	foodImage.52	FOODEEG_Images\0539.jpg	YN	Left	Yes	0.557348500000444	0	393478	234
769.552734375	1	decision	trialStart	2	120	60	foodImage.118	FOODEEG_Images\0926.jpg	YN	Left	Yes	0.504377499999464	0	394012	251
770.591796875	2	decision	foodImageDisplay	2	120	60	foodImage.118	FOODEEG_Images\0926.jpg	YN	Left	Yes	0.504377499999464	0	394544	252
772.662109375	0.504377499999464	decision	choicePhaseStart	2	120	60	foodImage.118	FOODEEG_Images\0926.jpg	YN	Left	Yes	0.504377499999464	0	395604	253
773.158203125	0	decision	response	2	120	60	foodImage.118	FOODEEG_Images\0926.jpg	YN	Left	Yes	0.504377499999464	0	395858	234
775.19921875	57.6875	n/a	blockEnd	n/a	n/a	n/a	n/a		n/a	n/a	n/a	n/a	n/a	396903	254
832.88671875	2	n/a	blockStart	3	n/a	n/a	n/a		n/a	n/a	n/a	n/a	n/a	426439	250
834.919921875	1	health	trialStart	3	121	1	foodImage.21	FOODEEG_Images\0234.jpg	NY	Right	Yes	0.601313199998913	0	427480	251
835.978515625	2	health	foodImageDisplay	3	121	1	foodImage.21	FOODEEG_Images\0234.jpg	NY	Right	Yes	0.601313199998913	0	428022	252
838.04296875	0.601313199998913	health	choicePhaseStart	3	121	1	foodImage.21	FOODEEG_Images\0234.jpg	NY	Right	Yes	0.601313199998913	0	429079	253
838.634765625	0	health	response	3	121	1	foodImage.21	FOODEEG_Images\0234.jpg	NY	Right	Yes	0.601313199998913	0	429382	235
839.6796875	1	taste	trialStart	3	122	2	foodImage.51	FOODEEG_Images\0536.jpg	NY	Right	Yes	0.686816199999157	0	429917	251
840.724609375	2	taste	foodImageDisplay	3	122	2	foodImage.51	FOODEEG_Images\0536.jpg	NY	Right	Yes	0.686816199999157	0	430452	252
842.7890625	0.686816199999157	taste	choicePhaseStart	3	122	2	foodImage.51	FOODEEG_Images\0536.jpg	NY	Right	Yes	0.686816199999157	0	431509	253
843.466796875	0	taste	response	3	122	2	foodImage.51	FOODEEG_Images\0536.jpg	NY	Right	Yes	0.686816199999157	0	431856	235
844.5078125	1	decision	trialStart	3	123	3	foodImage.116	FOODEEG_Images\0924.jpg	NY	Left	No	0.545369499999651	0	432389	251
845.546875	2	decision	foodImageDisplay	3	123	3	foodImage.116	FOODEEG_Images\0924.jpg	NY	Left	No	0.545369499999651	0	432921	252
847.611328125	0.545369499999651	decision	choicePhaseStart	3	123	3	foodImage.116	FOODEEG_Images\0924.jpg	NY	Left	No	0.545369499999651	0	433978	253
848.146484375	0	decision	response	3	123	3	foodImage.116	FOODEEG_Images\0924.jpg	NY	Left	No	0.545369499999651	0	434252	234
849.189453125	1	health	trialStart	3	124	4	foodImage.62	FOODEEG_Images\0644.jpg	NY	Right	Yes	0.677474000000075	0	434786	251
850.248046875	2	health	foodImageDisplay	3	124	4	foodImage.62	FOODEEG_Images\0644.jpg	NY	Right	Yes	0.677474000000075	0	435328	252
852.31640625	0.677474000000075	health	choicePhaseStart	3	124	4	foodImage.62	FOODEEG_Images\0644.jpg	NY	Right	Yes	0.677474000000075	0	436387	253
852.986328125	0	health	response	3	124	4	foodImage.62	FOODEEG_Images\0644.jpg	NY	Right	Yes	0.677474000000075	0	436730	235
854.029296875	1	decision	trialStart	3	125	5	foodImage.35	FOODEEG_Images\0350.jpg	YN	Left	Yes	1.00625740000032	0	437264	251
855.068359375	2	decision	foodImageDisplay	3	125	5	foodImage.35	FOODEEG_Images\0350.jpg	YN	Left	Yes	1.00625740000032	0	437796	252
857.1328125	1.00625740000032	decision	choicePhaseStart	3	125	5	foodImage.35	FOODEEG_Images\0350.jpg	YN	Left	Yes	1.00625740000032	0	438853	253
858.130859375	0	decision	response	3	125	5	foodImage.35	FOODEEG_Images\0350.jpg	YN	Left	Yes	1.00625740000032	0	439364	234
859.173828125	1	decision	trialStart	3	126	6	foodImage.89	FOODEEG_Images\0881.jpg	NY	Right	Yes	0.589760299999398	0	439898	251
860.228515625	2	decision	foodImageDisplay	3	126	6	foodImage.89	FOODEEG_Images\0881.jpg	NY	Right	Yes	0.589760299999398	0	440438	252
862.29296875	0.589760299999398	decision	choicePhaseStart	3	126	6	foodImage.89	FOODEEG_Images\0881.jpg	NY	Right	Yes	0.589760299999398	0	441495	253
862.875	0	decision	response	3	126	6	foodImage.89	FOODEEG_Images\0881.jpg	NY	Right	Yes	0.589760299999398	0	441793	235
863.91796875	1	taste	trialStart	3	127	7	foodImage.107	FOODEEG_Images\0915.jpg	YN	Left	Yes	1.15165439999873	0	442327	251
864.95703125	2	taste	foodImageDisplay	3	127	7	foodImage.107	FOODEEG_Images\0915.jpg	YN	Left	Yes	1.15165439999873	0	442859	252
867.01953125	1.15165439999873	taste	choicePhaseStart	3	127	7	foodImage.107	FOODEEG_Images\0915.jpg	YN	Left	Yes	1.15165439999873	0	443915	253
868.162109375	0	taste	response	3	127	7	foodImage.107	FOODEEG_Images\0915.jpg	YN	Left	Yes	1.15165439999873	0	444500	234
869.205078125	1	health	trialStart	3	128	8	foodImage.59	FOODEEG_Images\0607.jpg	YN	Right	No	0.937175200000638	0	445034	251
870.25	2	health	foodImageDisplay	3	128	8	foodImage.59	FOODEEG_Images\0607.jpg	YN	Right	No	0.937175200000638	0	445569	252
872.314453125	0.937175200000638	health	choicePhaseStart	3	128	8	foodImage.59	FOODEEG_Images\0607.jpg	YN	Right	No	0.937175200000638	0	446626	253
873.2421875	0	health	response	3	128	8	foodImage.59	FOODEEG_Images\0607.jpg	YN	Right	No	0.937175200000638	0	447101	235
874.28515625	1	taste	trialStart	3	129	9	foodImage.82	FOODEEG_Images\0805.jpg	YN	Left	Yes	0.753100599999016	0	447635	251
875.353515625	2	taste	foodImageDisplay	3	129	9	foodImage.82	FOODEEG_Images\0805.jpg	YN	Left	Yes	0.753100599999016	0	448182	252
877.416015625	0.753100599999016	taste	choicePhaseStart	3	129	9	foodImage.82	FOODEEG_Images\0805.jpg	YN	Left	Yes	0.753100599999016	0	449238	253
878.162109375	0	taste	response	3	129	9	foodImage.82	FOODEEG_Images\0805.jpg	YN	Left	Yes	0.753100599999016	0	449620	234
879.203125	1	health	trialStart	3	130	10	foodImage.96	FOODEEG_Images\0904.jpg	NY	Right	Yes	1.14481669999986	0	450153	251
880.244140625	2	health	foodImageDisplay	3	130	10	foodImage.96	FOODEEG_Images\0904.jpg	NY	Right	Yes	1.14481669999986	0	450686	252
882.306640625	1.14481669999986	health	choicePhaseStart	3	130	10	foodImage.96	FOODEEG_Images\0904.jpg	NY	Right	Yes	1.14481669999986	0	451742	253
883.44140625	0	health	response	3	130	10	foodImage.96	FOODEEG_Images\0904.jpg	NY	Right	Yes	1.14481669999986	0	452323	235
884.484375	1	decision	trialStart	3	131	11	foodImage.106	FOODEEG_Images\0914.jpg	NY	Right	Yes	0.85632600000099	0	452857	251
885.5234375	2	decision	foodImageDisplay	3	131	11	foodImage.106	FOODEEG_Images\0914.jpg	NY	Right	Yes	0.85632600000099	0	453389	252
887.5859375	0.85632600000099	decision	choicePhaseStart	3	131	11	foodImage.106	FOODEEG_Images\0914.jpg	NY	Right	Yes	0.85632600000099	0	454445	253
888.43359375	0	decision	response	3	131	11	foodImage.106	FOODEEG_Images\0914.jpg	NY	Right	Yes	0.85632600000099	0	454879	235
889.474609375	1	decision	trialStart	3	132	12	foodImage.7	FOODEEG_Images\0116.jpg	YN	Right	No	0.84593169999971	0	455412	251
890.515625	2	decision	foodImageDisplay	3	132	12	foodImage.7	FOODEEG_Images\0116.jpg	YN	Right	No	0.84593169999971	0	455945	252
892.580078125	0.84593169999971	decision	choicePhaseStart	3	132	12	foodImage.7	FOODEEG_Images\0116.jpg	YN	Right	No	0.84593169999971	0	457002	253
893.416015625	0	decision	response	3	132	12	foodImage.7	FOODEEG_Images\0116.jpg	YN	Right	No	0.84593169999971	0	457430	235
894.4609375	1	health	trialStart	3	133	13	foodImage.50	FOODEEG_Images\0529.jpg	NY	Right	Yes	0.621005999999397	0	457965	251
895.517578125	2	health	foodImageDisplay	3	133	13	foodImage.50	FOODEEG_Images\0529.jpg	NY	Right	Yes	0.621005999999397	0	458506	252
897.58203125	0.621005999999397	health	choicePhaseStart	3	133	13	foodImage.50	FOODEEG_Images\0529.jpg	NY	Right	Yes	0.621005999999397	0	459563	253
898.193359375	0	health	response	3	133	13	foodImage.50	FOODEEG_Images\0529.jpg	NY	Right	Yes	0.621005999999397	0	459876	235
899.234375	1	decision	trialStart	3	134	14	foodImage.63	FOODEEG_Images\0645.jpg	NY	Left	No	1.09366199999931	0	460409	251
900.27734375	2	decision	foodImageDisplay	3	134	14	foodImage.63	FOODEEG_Images\0645.jpg	NY	Left	No	1.09366199999931	0	460943	252
902.33984375	1.09366199999931	decision	choicePhaseStart	3	134	14	foodImage.63	FOODEEG_Images\0645.jpg	NY	Left	No	1.09366199999931	0	461999	253
903.423828125	0	decision	response	3	134	14	foodImage.63	FOODEEG_Images\0645.jpg	NY	Left	No	1.09366199999931	0	462554	234
904.466796875	1	health	trialStart	3	135	15	foodImage.49	FOODEEG_Images\0515.jpg	YN	Left	Yes	1.62678499999856	0	463088	251
905.509765625	2	health	foodImageDisplay	3	135	15	foodImage.49	FOODEEG_Images\0515.jpg	YN	Left	Yes	1.62678499999856	0	463622	252
907.572265625	1.62678499999856	health	choicePhaseStart	3	135	15	foodImage.49	FOODEEG_Images\0515.jpg	YN	Left	Yes	1.62678499999856	0	464678	253
909.193359375	0	health	response	3	135	15	foodImage.49	FOODEEG_Images\0515.jpg	YN	Left	Yes	1.62678499999856	0	465508	234
910.234375	1	health	trialStart	3	136	16	foodImage.67	FOODEEG_Images\0679.jpg	NY	Right	Yes	1.30850240000109	0	466041	251
911.294921875	2	health	foodImageDisplay	3	136	16	foodImage.67	FOODEEG_Images\0679.jpg	NY	Right	Yes	1.30850240000109	0	466584	252
913.357421875	1.30850240000109	health	choicePhaseStart	3	136	16	foodImage.67	FOODEEG_Images\0679.jpg	NY	Right	Yes	1.30850240000109	0	467640	253
914.658203125	0	health	response	3	136	16	foodImage.67	FOODEEG_Images\0679.jpg	NY	Right	Yes	1.30850240000109	0	468306	235
915.69921875	1	decision	trialStart	3	137	17	foodImage.29	FOODEEG_Images\0278.jpg	NY	Right	Yes	0.695417700000689	0	468839	251
916.740234375	2	decision	foodImageDisplay	3	137	17	foodImage.29	FOODEEG_Images\0278.jpg	NY	Right	Yes	0.695417700000689	0	469372	252
918.802734375	0.695417700000689	decision	choicePhaseStart	3	137	17	foodImage.29	FOODEEG_Images\0278.jpg	NY	Right	Yes	0.695417700000689	0	470428	253
919.490234375	0	decision	response	3	137	17	foodImage.29	FOODEEG_Images\0278.jpg	NY	Right	Yes	0.695417700000689	0	470780	235
920.533203125	1	taste	trialStart	3	138	18	foodImage.11	FOODEEG_Images\0180.jpg	YN	Left	Yes	0.67482899999959	0	471314	251
921.57421875	2	taste	foodImageDisplay	3	138	18	foodImage.11	FOODEEG_Images\0180.jpg	YN	Left	Yes	0.67482899999959	0	471847	252
923.638671875	0.67482899999959	taste	choicePhaseStart	3	138	18	foodImage.11	FOODEEG_Images\0180.jpg	YN	Left	Yes	0.67482899999959	0	472904	253
924.3046875	0	taste	response	3	138	18	foodImage.11	FOODEEG_Images\0180.jpg	YN	Left	Yes	0.67482899999959	0	473245	234
925.34765625	1	decision	trialStart	3	139	19	foodImage.84	FOODEEG_Images\0830.jpg	NY	Right	Yes	0.728621599999315	0	473779	251
926.408203125	2	decision	foodImageDisplay	3	139	19	foodImage.84	FOODEEG_Images\0830.jpg	NY	Right	Yes	0.728621599999315	0	474322	252
928.47265625	0.728621599999315	decision	choicePhaseStart	3	139	19	foodImage.84	FOODEEG_Images\0830.jpg	NY	Right	Yes	0.728621599999315	0	475379	253
929.19140625	0	decision	response	3	139	19	foodImage.84	FOODEEG_Images\0830.jpg	NY	Right	Yes	0.728621599999315	0	475747	235
930.234375	1	taste	trialStart	3	140	20	foodImage.62	FOODEEG_Images\0644.jpg	NY	Right	Yes	0.619550299999901	0	476281	251
931.29296875	2	taste	foodImageDisplay	3	140	20	foodImage.62	FOODEEG_Images\0644.jpg	NY	Right	Yes	0.619550299999901	0	476823	252
933.357421875	0.619550299999901	taste	choicePhaseStart	3	140	20	foodImage.62	FOODEEG_Images\0644.jpg	NY	Right	Yes	0.619550299999901	0	477880	253
933.966796875	0	taste	response	3	140	20	foodImage.62	FOODEEG_Images\0644.jpg	NY	Right	Yes	0.619550299999901	0	478192	235
935.01171875	1	decision	trialStart	3	141	21	foodImage.33	FOODEEG_Images\0329.jpg	YN	Left	Yes	0.587256000000707	0	478727	251
936.052734375	2	decision	foodImageDisplay	3	141	21	foodImage.33	FOODEEG_Images\0329.jpg	YN	Left	Yes	0.587256000000707	0	479260	252
938.1171875	0.587256000000707	decision	choicePhaseStart	3	141	21	foodImage.33	FOODEEG_Images\0329.jpg	YN	Left	Yes	0.587256000000707	0	480317	253
938.6953125	0	decision	response	3	141	21	foodImage.33	FOODEEG_Images\0329.jpg	YN	Left	Yes	0.587256000000707	0	480613	234
939.74609375	1	taste	trialStart	3	142	22	foodImage.6	FOODEEG_Images\0113.jpg	YN	Right	No	0.979967700000998	0	481151	251
940.787109375	2	taste	foodImageDisplay	3	142	22	foodImage.6	FOODEEG_Images\0113.jpg	YN	Right	No	0.979967700000998	0	481684	252
942.8515625	0.979967700000998	taste	choicePhaseStart	3	142	22	foodImage.6	FOODEEG_Images\0113.jpg	YN	Right	No	0.979967700000998	0	482741	253
943.822265625	0	taste	response	3	142	22	foodImage.6	FOODEEG_Images\0113.jpg	YN	Right	No	0.979967700000998	0	483238	235
944.865234375	1	taste	trialStart	3	143	23	foodImage.9	FOODEEG_Images\0138.jpg	YN	Left	Yes	0.805720500000461	0	483772	251
945.923828125	2	taste	foodImageDisplay	3	143	23	foodImage.9	FOODEEG_Images\0138.jpg	YN	Left	Yes	0.805720500000461	0	484314	252
947.986328125	0.805720500000461	taste	choicePhaseStart	3	143	23	foodImage.9	FOODEEG_Images\0138.jpg	YN	Left	Yes	0.805720500000461	0	485370	253
948.783203125	0	taste	response	3	143	23	foodImage.9	FOODEEG_Images\0138.jpg	YN	Left	Yes	0.805720500000461	0	485778	234
949.826171875	1	health	trialStart	3	144	24	foodImage.11	FOODEEG_Images\0180.jpg	NY	Left	No	2.5370225000006	0	486312	251
950.8671875	2	health	foodImageDisplay	3	144	24	foodImage.11	FOODEEG_Images\0180.jpg	NY	Left	No	2.5370225000006	0	486845	252
952.93359375	2.5370225000006	health	choicePhaseStart	3	144	24	foodImage.11	FOODEEG_Images\0180.jpg	NY	Left	No	2.5370225000006	0	487903	253
955.462890625	0	health	response	3	144	24	foodImage.11	FOODEEG_Images\0180.jpg	NY	Left	No	2.5370225000006	0	489198	234
956.505859375	1	taste	trialStart	3	145	25	foodImage.50	FOODEEG_Images\0529.jpg	NY	Right	Yes	0.75623590000032	0	489732	251
957.564453125	2	taste	foodImageDisplay	3	145	25	foodImage.50	FOODEEG_Images\0529.jpg	NY	Right	Yes	0.75623590000032	0	490274	252
959.626953125	0.75623590000032	taste	choicePhaseStart	3	145	25	foodImage.50	FOODEEG_Images\0529.jpg	NY	Right	Yes	0.75623590000032	0	491330	253
960.375	0	taste	response	3	145	25	foodImage.50	FOODEEG_Images\0529.jpg	NY	Right	Yes	0.75623590000032	0	491713	235
961.416015625	1	decision	trialStart	3	146	26	foodImage.104	FOODEEG_Images\0912.jpg	NY	Right	Yes	0.680476100000305	0	492246	251
962.455078125	2	decision	foodImageDisplay	3	146	26	foodImage.104	FOODEEG_Images\0912.jpg	NY	Right	Yes	0.680476100000305	0	492778	252
964.51953125	0.680476100000305	decision	choicePhaseStart	3	146	26	foodImage.104	FOODEEG_Images\0912.jpg	NY	Right	Yes	0.680476100000305	0	493835	253
965.189453125	0	decision	response	3	146	26	foodImage.104	FOODEEG_Images\0912.jpg	NY	Right	Yes	0.680476100000305	0	494178	235
966.232421875	1	health	trialStart	3	147	27	foodImage.8	FOODEEG_Images\0136.jpg	YN	Left	Yes	0.908104199999798	0	494712	251
967.29296875	2	health	foodImageDisplay	3	147	27	foodImage.8	FOODEEG_Images\0136.jpg	YN	Left	Yes	0.908104199999798	0	495255	252
969.35546875	0.908104199999798	health	choicePhaseStart	3	147	27	foodImage.8	FOODEEG_Images\0136.jpg	YN	Left	Yes	0.908104199999798	0	496311	253
970.25390625	0	health	response	3	147	27	foodImage.8	FOODEEG_Images\0136.jpg	YN	Left	Yes	0.908104199999798	0	496771	234
971.296875	1	taste	trialStart	3	148	28	foodImage.2	FOODEEG_Images\0028.jpg	YN	Left	Yes	1.44578179999917	0	497305	251
972.33984375	2	taste	foodImageDisplay	3	148	28	foodImage.2	FOODEEG_Images\0028.jpg	YN	Left	Yes	1.44578179999917	0	497839	252
974.400390625	1.44578179999917	taste	choicePhaseStart	3	148	28	foodImage.2	FOODEEG_Images\0028.jpg	YN	Left	Yes	1.44578179999917	0	498894	253
975.837890625	0	taste	response	3	148	28	foodImage.2	FOODEEG_Images\0028.jpg	YN	Left	Yes	1.44578179999917	0	499630	234
976.880859375	1	health	trialStart	3	149	29	foodImage.41	FOODEEG_Images\0409.jpg	YN	Left	Yes	0.776430800000526	0	500164	251
977.927734375	2	health	foodImageDisplay	3	149	29	foodImage.41	FOODEEG_Images\0409.jpg	YN	Left	Yes	0.776430800000526	0	500700	252
979.990234375	0.776430800000526	health	choicePhaseStart	3	149	29	foodImage.41	FOODEEG_Images\0409.jpg	YN	Left	Yes	0.776430800000526	0	501756	253
980.7578125	0	health	response	3	149	29	foodImage.41	FOODEEG_Images\0409.jpg	YN	Left	Yes	0.776430800000526	0	502149	234
981.798828125	1	taste	trialStart	3	150	30	foodImage.67	FOODEEG_Images\0679.jpg	NY	Left	No	0.612992700000177	0	502682	251
982.857421875	2	taste	foodImageDisplay	3	150	30	foodImage.67	FOODEEG_Images\0679.jpg	NY	Left	No	0.612992700000177	0	503224	252
984.921875	0.612992700000177	taste	choicePhaseStart	3	150	30	foodImage.67	FOODEEG_Images\0679.jpg	NY	Left	No	0.612992700000177	0	504281	253
985.525390625	0	taste	response	3	150	30	foodImage.67	FOODEEG_Images\0679.jpg	NY	Left	No	0.612992700000177	0	504590	234
986.568359375	1	decision	trialStart	3	151	31	foodImage.105	FOODEEG_Images\0913.jpg	NY	Left	No	1.61746010000024	0	505124	251
987.607421875	2	decision	foodImageDisplay	3	151	31	foodImage.105	FOODEEG_Images\0913.jpg	NY	Left	No	1.61746010000024	0	505656	252
989.669921875	1.61746010000024	decision	choicePhaseStart	3	151	31	foodImage.105	FOODEEG_Images\0913.jpg	NY	Left	No	1.61746010000024	0	506712	253
991.27734375	0	decision	response	3	151	31	foodImage.105	FOODEEG_Images\0913.jpg	NY	Left	No	1.61746010000024	0	507535	234
992.3203125	1	health	trialStart	3	152	32	foodImage.23	FOODEEG_Images\0244.jpg	NY	Right	Yes	0.820280100000673	0	508069	251
993.361328125	2	health	foodImageDisplay	3	152	32	foodImage.23	FOODEEG_Images\0244.jpg	NY	Right	Yes	0.820280100000673	0	508602	252
995.42578125	0.820280100000673	health	choicePhaseStart	3	152	32	foodImage.23	FOODEEG_Images\0244.jpg	NY	Right	Yes	0.820280100000673	0	509659	253
996.236328125	0	health	response	3	152	32	foodImage.23	FOODEEG_Images\0244.jpg	NY	Right	Yes	0.820280100000673	0	510074	235
997.279296875	1	health	trialStart	3	153	33	foodImage.46	FOODEEG_Images\0479.jpg	NY	Right	Yes	0.716319799999837	0	510608	251
998.337890625	2	health	foodImageDisplay	3	153	33	foodImage.46	FOODEEG_Images\0479.jpg	NY	Right	Yes	0.716319799999837	0	511150	252
1000.400390625	0.716319799999837	health	choicePhaseStart	3	153	33	foodImage.46	FOODEEG_Images\0479.jpg	NY	Right	Yes	0.716319799999837	0	512206	253
1001.109375	0	health	response	3	153	33	foodImage.46	FOODEEG_Images\0479.jpg	NY	Right	Yes	0.716319799999837	0	512569	235
1002.150390625	1	health	trialStart	3	154	34	foodImage.6	FOODEEG_Images\0113.jpg	YN	Right	No	0.76887859999988	0	513102	251
1003.193359375	2	health	foodImageDisplay	3	154	34	foodImage.6	FOODEEG_Images\0113.jpg	YN	Right	No	0.76887859999988	0	513636	252
1005.26171875	0.76887859999988	health	choicePhaseStart	3	154	34	foodImage.6	FOODEEG_Images\0113.jpg	YN	Right	No	0.76887859999988	0	514695	253
1006.021484375	0	health	response	3	154	34	foodImage.6	FOODEEG_Images\0113.jpg	YN	Right	No	0.76887859999988	0	515084	235
1007.064453125	1	taste	trialStart	3	155	35	foodImage.43	FOODEEG_Images\0445.jpg	NY	Left	No	1.03698420000001	0	515618	251
1008.123046875	2	taste	foodImageDisplay	3	155	35	foodImage.43	FOODEEG_Images\0445.jpg	NY	Left	No	1.03698420000001	0	516160	252
1010.185546875	1.03698420000001	taste	choicePhaseStart	3	155	35	foodImage.43	FOODEEG_Images\0445.jpg	NY	Left	No	1.03698420000001	0	517216	253
1011.212890625	0	taste	response	3	155	35	foodImage.43	FOODEEG_Images\0445.jpg	NY	Left	No	1.03698420000001	0	517742	234
1012.255859375	1	decision	trialStart	3	156	36	foodImage.46	FOODEEG_Images\0479.jpg	NY	Right	Yes	0.612676499998997	0	518276	251
1013.314453125	2	decision	foodImageDisplay	3	156	36	foodImage.46	FOODEEG_Images\0479.jpg	NY	Right	Yes	0.612676499998997	0	518818	252
1015.376953125	0.612676499998997	decision	choicePhaseStart	3	156	36	foodImage.46	FOODEEG_Images\0479.jpg	NY	Right	Yes	0.612676499998997	0	519874	253
1015.98046875	0	decision	response	3	156	36	foodImage.46	FOODEEG_Images\0479.jpg	NY	Right	Yes	0.612676499998997	0	520183	235
1017.0234375	1	health	trialStart	3	157	37	foodImage.77	FOODEEG_Images\0771.jpg	YN	Left	Yes	0.721577799999068	0	520717	251
1018.068359375	2	health	foodImageDisplay	3	157	37	foodImage.77	FOODEEG_Images\0771.jpg	YN	Left	Yes	0.721577799999068	0	521252	252
1020.1328125	0.721577799999068	health	choicePhaseStart	3	157	37	foodImage.77	FOODEEG_Images\0771.jpg	YN	Left	Yes	0.721577799999068	0	522309	253
1020.84375	0	health	response	3	157	37	foodImage.77	FOODEEG_Images\0771.jpg	YN	Left	Yes	0.721577799999068	0	522673	234
1021.88671875	1	taste	trialStart	3	158	38	foodImage.116	FOODEEG_Images\0924.jpg	NY	Left	No	0.786825500001214	0	523207	251
1022.92578125	2	taste	foodImageDisplay	3	158	38	foodImage.116	FOODEEG_Images\0924.jpg	NY	Left	No	0.786825500001214	0	523739	252
1024.994140625	0.786825500001214	taste	choicePhaseStart	3	158	38	foodImage.116	FOODEEG_Images\0924.jpg	NY	Left	No	0.786825500001214	0	524798	253
1025.771484375	0	taste	response	3	158	38	foodImage.116	FOODEEG_Images\0924.jpg	NY	Left	No	0.786825500001214	0	525196	234
1026.814453125	1	health	trialStart	3	159	39	foodImage.34	FOODEEG_Images\0339.jpg	YN	Right	No	0.790350499999477	0	525730	251
1027.873046875	2	health	foodImageDisplay	3	159	39	foodImage.34	FOODEEG_Images\0339.jpg	YN	Right	No	0.790350499999477	0	526272	252
1029.935546875	0.790350499999477	health	choicePhaseStart	3	159	39	foodImage.34	FOODEEG_Images\0339.jpg	YN	Right	No	0.790350499999477	0	527328	253
1030.71484375	0	health	response	3	159	39	foodImage.34	FOODEEG_Images\0339.jpg	YN	Right	No	0.790350499999477	0	527727	235
1031.7578125	1	decision	trialStart	3	160	40	foodImage.43	FOODEEG_Images\0445.jpg	YN	Right	No	1.13454509999974	0	528261	251
1032.814453125	2	decision	foodImageDisplay	3	160	40	foodImage.43	FOODEEG_Images\0445.jpg	YN	Right	No	1.13454509999974	0	528802	252
1034.87890625	1.13454509999974	decision	choicePhaseStart	3	160	40	foodImage.43	FOODEEG_Images\0445.jpg	YN	Right	No	1.13454509999974	0	529859	253
1036.00390625	0	decision	response	3	160	40	foodImage.43	FOODEEG_Images\0445.jpg	YN	Right	No	1.13454509999974	0	530435	235
1037.046875	1	health	trialStart	3	161	41	foodImage.24	FOODEEG_Images\0250.jpg	YN	Left	Yes	1.16286949999994	0	530969	251
1038.08984375	2	health	foodImageDisplay	3	161	41	foodImage.24	FOODEEG_Images\0250.jpg	YN	Left	Yes	1.16286949999994	0	531503	252
1040.154296875	1.16286949999994	health	choicePhaseStart	3	161	41	foodImage.24	FOODEEG_Images\0250.jpg	YN	Left	Yes	1.16286949999994	0	532560	253
1041.306640625	0	health	response	3	161	41	foodImage.24	FOODEEG_Images\0250.jpg	YN	Left	Yes	1.16286949999994	0	533150	234
1042.349609375	1	decision	trialStart	3	162	42	foodImage.32	FOODEEG_Images\0319.jpg	NY	Right	Yes	1.35172160000002	0	533684	251
1043.3984375	2	decision	foodImageDisplay	3	162	42	foodImage.32	FOODEEG_Images\0319.jpg	NY	Right	Yes	1.35172160000002	0	534221	252
1045.4609375	1.35172160000002	decision	choicePhaseStart	3	162	42	foodImage.32	FOODEEG_Images\0319.jpg	NY	Right	Yes	1.35172160000002	0	535277	253
1046.802734375	0	decision	response	3	162	42	foodImage.32	FOODEEG_Images\0319.jpg	NY	Right	Yes	1.35172160000002	0	535964	235
1047.845703125	1	health	trialStart	3	163	43	foodImage.30	FOODEEG_Images\0282.jpg	YN	Left	Yes	0.764625099998739	0	536498	251
1048.88671875	2	health	foodImageDisplay	3	163	43	foodImage.30	FOODEEG_Images\0282.jpg	YN	Left	Yes	0.764625099998739	0	537031	252
1050.951171875	0.764625099998739	health	choicePhaseStart	3	163	43	foodImage.30	FOODEEG_Images\0282.jpg	YN	Left	Yes	0.764625099998739	0	538088	253
1051.70703125	0	health	response	3	163	43	foodImage.30	FOODEEG_Images\0282.jpg	YN	Left	Yes	0.764625099998739	0	538475	234
1052.75	1	decision	trialStart	3	164	44	foodImage.53	FOODEEG_Images\0547.jpg	NY	Left	No	0.970654999999169	0	539009	251
1053.80859375	2	decision	foodImageDisplay	3	164	44	foodImage.53	FOODEEG_Images\0547.jpg	NY	Left	No	0.970654999999169	0	539551	252
1055.87109375	0.970654999999169	decision	choicePhaseStart	3	164	44	foodImage.53	FOODEEG_Images\0547.jpg	NY	Left	No	0.970654999999169	0	540607	253
1056.833984375	0	decision	response	3	164	44	foodImage.53	FOODEEG_Images\0547.jpg	NY	Left	No	0.970654999999169	0	541100	234
1057.87890625	1	decision	trialStart	3	165	45	foodImage.95	FOODEEG_Images\0903.jpg	NY	Left	No	0.695513499998924	0	541635	251
1058.91796875	2	decision	foodImageDisplay	3	165	45	foodImage.95	FOODEEG_Images\0903.jpg	NY	Left	No	0.695513499998924	0	542167	252
1060.98046875	0.695513499998924	decision	choicePhaseStart	3	165	45	foodImage.95	FOODEEG_Images\0903.jpg	NY	Left	No	0.695513499998924	0	543223	253
1061.666015625	0	decision	response	3	165	45	foodImage.95	FOODEEG_Images\0903.jpg	NY	Left	No	0.695513499998924	0	543574	234
1062.708984375	1	health	trialStart	3	166	46	foodImage.83	FOODEEG_Images\0827.jpg	YN	Left	Yes	0.543561599999521	0	544108	251
1063.7890625	2	health	foodImageDisplay	3	166	46	foodImage.83	FOODEEG_Images\0827.jpg	YN	Left	Yes	0.543561599999521	0	544661	252
1065.8515625	0.543561599999521	health	choicePhaseStart	3	166	46	foodImage.83	FOODEEG_Images\0827.jpg	YN	Left	Yes	0.543561599999521	0	545717	253
1066.38671875	0	health	response	3	166	46	foodImage.83	FOODEEG_Images\0827.jpg	YN	Left	Yes	0.543561599999521	0	545991	234
1067.427734375	1	health	trialStart	3	167	47	foodImage.82	FOODEEG_Images\0805.jpg	NY	Right	Yes	0.702318799998466	0	546524	251
1068.484375	2	health	foodImageDisplay	3	167	47	foodImage.82	FOODEEG_Images\0805.jpg	NY	Right	Yes	0.702318799998466	0	547065	252
1070.548828125	0.702318799998466	health	choicePhaseStart	3	167	47	foodImage.82	FOODEEG_Images\0805.jpg	NY	Right	Yes	0.702318799998466	0	548122	253
1071.2421875	0	health	response	3	167	47	foodImage.82	FOODEEG_Images\0805.jpg	NY	Right	Yes	0.702318799998466	0	548477	235
1072.28515625	1	health	trialStart	3	168	48	foodImage.90	FOODEEG_Images\0890.jpg	YN	Left	Yes	0.813365500000145	0	549011	251
1073.3671875	2	health	foodImageDisplay	3	168	48	foodImage.90	FOODEEG_Images\0890.jpg	YN	Left	Yes	0.813365500000145	0	549565	252
1075.435546875	0.813365500000145	health	choicePhaseStart	3	168	48	foodImage.90	FOODEEG_Images\0890.jpg	YN	Left	Yes	0.813365500000145	0	550624	253
1076.2421875	0	health	response	3	168	48	foodImage.90	FOODEEG_Images\0890.jpg	YN	Left	Yes	0.813365500000145	0	551037	234
1077.2890625	1	taste	trialStart	3	169	49	foodImage.77	FOODEEG_Images\0771.jpg	NY	Right	Yes	0.734713199999533	0	551573	251
1078.33203125	2	taste	foodImageDisplay	3	169	49	foodImage.77	FOODEEG_Images\0771.jpg	NY	Right	Yes	0.734713199999533	0	552107	252
1080.39453125	0.734713199999533	taste	choicePhaseStart	3	169	49	foodImage.77	FOODEEG_Images\0771.jpg	NY	Right	Yes	0.734713199999533	0	553163	253
1081.12109375	0	taste	response	3	169	49	foodImage.77	FOODEEG_Images\0771.jpg	NY	Right	Yes	0.734713199999533	0	553535	235
1082.1640625	1	taste	trialStart	3	170	50	foodImage.63	FOODEEG_Images\0645.jpg	YN	Left	Yes	0.566329799999949	0	554069	251
1083.205078125	2	taste	foodImageDisplay	3	170	50	foodImage.63	FOODEEG_Images\0645.jpg	YN	Left	Yes	0.566329799999949	0	554602	252
1085.267578125	0.566329799999949	taste	choicePhaseStart	3	170	50	foodImage.63	FOODEEG_Images\0645.jpg	YN	Left	Yes	0.566329799999949	0	555658	253
1085.826171875	0	taste	response	3	170	50	foodImage.63	FOODEEG_Images\0645.jpg	YN	Left	Yes	0.566329799999949	0	555944	234
1086.873046875	1	health	trialStart	3	171	51	foodImage.86	FOODEEG_Images\0844.jpg	YN	Left	Yes	0.687285899999551	0	556480	251
1087.931640625	2	health	foodImageDisplay	3	171	51	foodImage.86	FOODEEG_Images\0844.jpg	YN	Left	Yes	0.687285899999551	0	557022	252
1089.99609375	0.687285899999551	health	choicePhaseStart	3	171	51	foodImage.86	FOODEEG_Images\0844.jpg	YN	Left	Yes	0.687285899999551	0	558079	253
1090.673828125	0	health	response	3	171	51	foodImage.86	FOODEEG_Images\0844.jpg	YN	Left	Yes	0.687285899999551	0	558426	234
1091.716796875	1	decision	trialStart	3	172	52	foodImage.61	FOODEEG_Images\0640.jpg	YN	Left	Yes	0.592498100000739	0	558960	251
1092.779296875	2	decision	foodImageDisplay	3	172	52	foodImage.61	FOODEEG_Images\0640.jpg	YN	Left	Yes	0.592498100000739	0	559504	252
1094.841796875	0.592498100000739	decision	choicePhaseStart	3	172	52	foodImage.61	FOODEEG_Images\0640.jpg	YN	Left	Yes	0.592498100000739	0	560560	253
1095.42578125	0	decision	response	3	172	52	foodImage.61	FOODEEG_Images\0640.jpg	YN	Left	Yes	0.592498100000739	0	560859	234
1096.46875	1	taste	trialStart	3	173	53	foodImage.75	FOODEEG_Images\0763.jpg	YN	Right	No	1.15463219999947	0	561393	251
1097.51171875	2	taste	foodImageDisplay	3	173	53	foodImage.75	FOODEEG_Images\0763.jpg	YN	Right	No	1.15463219999947	0	561927	252
1099.57421875	1.15463219999947	taste	choicePhaseStart	3	173	53	foodImage.75	FOODEEG_Images\0763.jpg	YN	Right	No	1.15463219999947	0	562983	253
1100.720703125	0	taste	response	3	173	53	foodImage.75	FOODEEG_Images\0763.jpg	YN	Right	No	1.15463219999947	0	563570	235
1101.763671875	1	decision	trialStart	3	174	54	foodImage.119	FOODEEG_Images\0927.jpg	YN	Right	No	0.862892799999827	0	564104	251
1102.802734375	2	decision	foodImageDisplay	3	174	54	foodImage.119	FOODEEG_Images\0927.jpg	YN	Right	No	0.862892799999827	0	564636	252
1104.8671875	0.862892799999827	decision	choicePhaseStart	3	174	54	foodImage.119	FOODEEG_Images\0927.jpg	YN	Right	No	0.862892799999827	0	565693	253
1105.720703125	0	decision	response	3	174	54	foodImage.119	FOODEEG_Images\0927.jpg	YN	Right	No	0.862892799999827	0	566130	235
1106.76171875	1	health	trialStart	3	175	55	foodImage.109	FOODEEG_Images\0917.jpg	YN	Left	Yes	0.742738999999347	0	566663	251
1107.798828125	2	health	foodImageDisplay	3	175	55	foodImage.109	FOODEEG_Images\0917.jpg	YN	Left	Yes	0.742738999999347	0	567194	252
1109.86328125	0.742738999999347	health	choicePhaseStart	3	175	55	foodImage.109	FOODEEG_Images\0917.jpg	YN	Left	Yes	0.742738999999347	0	568251	253
1110.599609375	0	health	response	3	175	55	foodImage.109	FOODEEG_Images\0917.jpg	YN	Left	Yes	0.742738999999347	0	568628	234
1111.64453125	1	decision	trialStart	3	176	56	foodImage.21	FOODEEG_Images\0234.jpg	YN	Left	Yes	0.511872999999468	0	569163	251
1112.703125	2	decision	foodImageDisplay	3	176	56	foodImage.21	FOODEEG_Images\0234.jpg	YN	Left	Yes	0.511872999999468	0	569705	252
1114.765625	0.511872999999468	decision	choicePhaseStart	3	176	56	foodImage.21	FOODEEG_Images\0234.jpg	YN	Left	Yes	0.511872999999468	0	570761	253
1115.271484375	0	decision	response	3	176	56	foodImage.21	FOODEEG_Images\0234.jpg	YN	Left	Yes	0.511872999999468	0	571020	234
1116.314453125	1	taste	trialStart	3	177	57	foodImage.25	FOODEEG_Images\0261.jpg	YN	Right	No	0.853916100000788	0	571554	251
1117.35546875	2	taste	foodImageDisplay	3	177	57	foodImage.25	FOODEEG_Images\0261.jpg	YN	Right	No	0.853916100000788	0	572087	252
1119.419921875	0.853916100000788	taste	choicePhaseStart	3	177	57	foodImage.25	FOODEEG_Images\0261.jpg	YN	Right	No	0.853916100000788	0	573144	253
1120.263671875	0	taste	response	3	177	57	foodImage.25	FOODEEG_Images\0261.jpg	YN	Right	No	0.853916100000788	0	573576	235
1121.306640625	1	taste	trialStart	3	178	58	foodImage.76	FOODEEG_Images\0766.jpg	YN	Left	Yes	1.22128200000043	0	574110	251
1122.349609375	2	taste	foodImageDisplay	3	178	58	foodImage.76	FOODEEG_Images\0766.jpg	YN	Left	Yes	1.22128200000043	0	574644	252
1124.412109375	1.22128200000043	taste	choicePhaseStart	3	178	58	foodImage.76	FOODEEG_Images\0766.jpg	YN	Left	Yes	1.22128200000043	0	575700	253
1125.623046875	0	taste	response	3	178	58	foodImage.76	FOODEEG_Images\0766.jpg	YN	Left	Yes	1.22128200000043	0	576320	234
1126.6640625	1	health	trialStart	3	179	59	foodImage.101	FOODEEG_Images\0909.jpg	YN	Right	No	3.65144920000057	0	576853	251
1127.703125	2	health	foodImageDisplay	3	179	59	foodImage.101	FOODEEG_Images\0909.jpg	YN	Right	No	3.65144920000057	0	577385	252
1129.765625	3.65144920000057	health	choicePhaseStart	3	179	59	foodImage.101	FOODEEG_Images\0909.jpg	YN	Right	No	3.65144920000057	0	578441	253
1133.408203125	0	health	response	3	179	59	foodImage.101	FOODEEG_Images\0909.jpg	YN	Right	No	3.65144920000057	0	580306	235
1134.451171875	1	decision	trialStart	3	180	60	foodImage.37	FOODEEG_Images\0359.jpg	YN	Left	Yes	0.586724799999502	0	580840	251
1135.4921875	2	decision	foodImageDisplay	3	180	60	foodImage.37	FOODEEG_Images\0359.jpg	YN	Left	Yes	0.586724799999502	0	581373	252
1137.55859375	0.586724799999502	decision	choicePhaseStart	3	180	60	foodImage.37	FOODEEG_Images\0359.jpg	YN	Left	Yes	0.586724799999502	0	582431	253
1138.134765625	0	decision	response	3	180	60	foodImage.37	FOODEEG_Images\0359.jpg	YN	Left	Yes	0.586724799999502	0	582726	234
1140.177734375	44.416015625	n/a	blockEnd	n/a	n/a	n/a	n/a		n/a	n/a	n/a	n/a	n/a	583772	254
1184.59375	2	n/a	blockStart	4	n/a	n/a	n/a		n/a	n/a	n/a	n/a	n/a	606513	250
1186.626953125	1	decision	trialStart	4	181	1	foodImage.77	FOODEEG_Images\0771.jpg	YN	Left	Yes	0.550164700000096	0	607554	251
1187.673828125	2	decision	foodImageDisplay	4	181	1	foodImage.77	FOODEEG_Images\0771.jpg	YN	Left	Yes	0.550164700000096	0	608090	252
1189.736328125	0.550164700000096	decision	choicePhaseStart	4	181	1	foodImage.77	FOODEEG_Images\0771.jpg	YN	Left	Yes	0.550164700000096	0	609146	253
1190.27734375	0	decision	response	4	181	1	foodImage.77	FOODEEG_Images\0771.jpg	YN	Left	Yes	0.550164700000096	0	609423	234
1191.31640625	1	decision	trialStart	4	182	2	foodImage.87	FOODEEG_Images\0873.jpg	NY	Right	Yes	0.606349199999386	0	609955	251
1192.375	2	decision	foodImageDisplay	4	182	2	foodImage.87	FOODEEG_Images\0873.jpg	NY	Right	Yes	0.606349199999386	0	610497	252
1194.439453125	0.606349199999386	decision	choicePhaseStart	4	182	2	foodImage.87	FOODEEG_Images\0873.jpg	NY	Right	Yes	0.606349199999386	0	611554	253
1195.037109375	0	decision	response	4	182	2	foodImage.87	FOODEEG_Images\0873.jpg	NY	Right	Yes	0.606349199999386	0	611860	235
1196.080078125	1	decision	trialStart	4	183	3	foodImage.50	FOODEEG_Images\0529.jpg	YN	Left	Yes	0.592926199999056	0	612394	251
1197.138671875	2	decision	foodImageDisplay	4	183	3	foodImage.50	FOODEEG_Images\0529.jpg	YN	Left	Yes	0.592926199999056	0	612936	252
1199.203125	0.592926199999056	decision	choicePhaseStart	4	183	3	foodImage.50	FOODEEG_Images\0529.jpg	YN	Left	Yes	0.592926199999056	0	613993	253
1199.7890625	0	decision	response	4	183	3	foodImage.50	FOODEEG_Images\0529.jpg	YN	Left	Yes	0.592926199999056	0	614293	234
1200.83203125	1	decision	trialStart	4	184	4	foodImage.55	FOODEEG_Images\0567.jpg	YN	Right	No	1.14490669999941	0	614827	251
1201.89453125	2	decision	foodImageDisplay	4	184	4	foodImage.55	FOODEEG_Images\0567.jpg	YN	Right	No	1.14490669999941	0	615371	252
1203.95703125	1.14490669999941	decision	choicePhaseStart	4	184	4	foodImage.55	FOODEEG_Images\0567.jpg	YN	Right	No	1.14490669999941	0	616427	253
1205.091796875	0	decision	response	4	184	4	foodImage.55	FOODEEG_Images\0567.jpg	YN	Right	No	1.14490669999941	0	617008	235
1206.13671875	1	health	trialStart	4	185	5	foodImage.115	FOODEEG_Images\0923.jpg	YN	Right	No	1.50491539999894	0	617543	251
1207.173828125	2	health	foodImageDisplay	4	185	5	foodImage.115	FOODEEG_Images\0923.jpg	YN	Right	No	1.50491539999894	0	618074	252
1209.236328125	1.50491539999894	health	choicePhaseStart	4	185	5	foodImage.115	FOODEEG_Images\0923.jpg	YN	Right	No	1.50491539999894	0	619130	253
1210.732421875	0	health	response	4	185	5	foodImage.115	FOODEEG_Images\0923.jpg	YN	Right	No	1.50491539999894	0	619896	235
1211.77734375	1	taste	trialStart	4	186	6	foodImage.18	FOODEEG_Images\0202.jpg	YN	Left	Yes	0.931095199999618	0	620431	251
1212.833984375	2	taste	foodImageDisplay	4	186	6	foodImage.18	FOODEEG_Images\0202.jpg	YN	Left	Yes	0.931095199999618	0	620972	252
1214.8984375	0.931095199999618	taste	choicePhaseStart	4	186	6	foodImage.18	FOODEEG_Images\0202.jpg	YN	Left	Yes	0.931095199999618	0	622029	253
1215.8203125	0	taste	response	4	186	6	foodImage.18	FOODEEG_Images\0202.jpg	YN	Left	Yes	0.931095199999618	0	622501	234
1216.86328125	1	decision	trialStart	4	187	7	foodImage.56	FOODEEG_Images\0586.jpg	NY	Left	No	0.805582199998753	0	623035	251
1217.90625	2	decision	foodImageDisplay	4	187	7	foodImage.56	FOODEEG_Images\0586.jpg	NY	Left	No	0.805582199998753	0	623569	252
1219.96875	0.805582199998753	decision	choicePhaseStart	4	187	7	foodImage.56	FOODEEG_Images\0586.jpg	NY	Left	No	0.805582199998753	0	624625	253
1220.763671875	0	decision	response	4	187	7	foodImage.56	FOODEEG_Images\0586.jpg	NY	Left	No	0.805582199998753	0	625032	234
1221.806640625	1	taste	trialStart	4	188	8	foodImage.42	FOODEEG_Images\0438.jpg	YN	Left	Yes	2.01131429999987	0	625566	251
1222.8984375	2	taste	foodImageDisplay	4	188	8	foodImage.42	FOODEEG_Images\0438.jpg	YN	Left	Yes	2.01131429999987	0	626125	252
1224.962890625	2.01131429999987	taste	choicePhaseStart	4	188	8	foodImage.42	FOODEEG_Images\0438.jpg	YN	Left	Yes	2.01131429999987	0	627182	253
1226.96484375	0	taste	response	4	188	8	foodImage.42	FOODEEG_Images\0438.jpg	YN	Left	Yes	2.01131429999987	0	628207	234
1228.0078125	1	taste	trialStart	4	189	9	foodImage.30	FOODEEG_Images\0282.jpg	YN	Left	Yes	0.707480700000815	0	628741	251
1229.056640625	2	taste	foodImageDisplay	4	189	9	foodImage.30	FOODEEG_Images\0282.jpg	YN	Left	Yes	0.707480700000815	0	629278	252
1231.12109375	0.707480700000815	taste	choicePhaseStart	4	189	9	foodImage.30	FOODEEG_Images\0282.jpg	YN	Left	Yes	0.707480700000815	0	630335	253
1231.8203125	0	taste	response	4	189	9	foodImage.30	FOODEEG_Images\0282.jpg	YN	Left	Yes	0.707480700000815	0	630693	234
1232.86328125	1	health	trialStart	4	190	10	foodImage.116	FOODEEG_Images\0924.jpg	YN	Left	Yes	0.745719700000336	0	631227	251
1233.900390625	2	health	foodImageDisplay	4	190	10	foodImage.116	FOODEEG_Images\0924.jpg	YN	Left	Yes	0.745719700000336	0	631758	252
1235.962890625	0.745719700000336	health	choicePhaseStart	4	190	10	foodImage.116	FOODEEG_Images\0924.jpg	YN	Left	Yes	0.745719700000336	0	632814	253
1236.69921875	0	health	response	4	190	10	foodImage.116	FOODEEG_Images\0924.jpg	YN	Left	Yes	0.745719700000336	0	633191	234
1237.7421875	1	taste	trialStart	4	191	11	foodImage.94	FOODEEG_Images\0902.jpg	YN	Right	No	0.881965500000661	0	633725	251
1238.78125	2	taste	foodImageDisplay	4	191	11	foodImage.94	FOODEEG_Images\0902.jpg	YN	Right	No	0.881965500000661	0	634257	252
1240.84375	0.881965500000661	taste	choicePhaseStart	4	191	11	foodImage.94	FOODEEG_Images\0902.jpg	YN	Right	No	0.881965500000661	0	635313	253
1241.71484375	0	taste	response	4	191	11	foodImage.94	FOODEEG_Images\0902.jpg	YN	Right	No	0.881965500000661	0	635759	235
1242.759765625	1	decision	trialStart	4	192	12	foodImage.73	FOODEEG_Images\0717.jpg	YN	Left	Yes	0.6472145000007	0	636294	251
1243.837890625	2	decision	foodImageDisplay	4	192	12	foodImage.73	FOODEEG_Images\0717.jpg	YN	Left	Yes	0.6472145000007	0	636846	252
1245.90234375	0.6472145000007	decision	choicePhaseStart	4	192	12	foodImage.73	FOODEEG_Images\0717.jpg	YN	Left	Yes	0.6472145000007	0	637903	253
1246.5390625	0	decision	response	4	192	12	foodImage.73	FOODEEG_Images\0717.jpg	YN	Left	Yes	0.6472145000007	0	638229	234
1247.58203125	1	decision	trialStart	4	193	13	foodImage.64	FOODEEG_Images\0647.jpg	NY	Right	Yes	0.668766299999334	0	638763	251
1248.640625	2	decision	foodImageDisplay	4	193	13	foodImage.64	FOODEEG_Images\0647.jpg	NY	Right	Yes	0.668766299999334	0	639305	252
1250.703125	0.668766299999334	decision	choicePhaseStart	4	193	13	foodImage.64	FOODEEG_Images\0647.jpg	NY	Right	Yes	0.668766299999334	0	640361	253
1251.36328125	0	decision	response	4	193	13	foodImage.64	FOODEEG_Images\0647.jpg	NY	Right	Yes	0.668766299999334	0	640699	235
1252.41015625	1	health	trialStart	4	194	14	foodImage.20	FOODEEG_Images\0226.jpg	NY	Right	Yes	0.694461400000364	0	641235	251
1253.470703125	2	health	foodImageDisplay	4	194	14	foodImage.20	FOODEEG_Images\0226.jpg	NY	Right	Yes	0.694461400000364	0	641778	252
