onset	duration	trial_type	event_type	block	trial_total	trial_in_block	food_image_code	food_image_path	button_position	resp_position	resp_choice	choice_rt	resp_too_slow	sample	trigger
533.3515625	2	n/a	blockStart	1	n/a	n/a	n/a	n/a	n/a	n/a	n/a	n/a	n/a	273077	250
535.392578125	1	decision	trialStart	1	1	1	foodImage.79	FOODEEG_Images\0794.jpg	YN	Left	Yes	0.93782370002009	0	274122	251
536.439453125	2	decision	foodImageDisplay	1	1	1	foodImage.79	FOODEEG_Images\0794.jpg	YN	Left	Yes	0.93782370002009	0	274658	252
538.50390625	0.93782370002009	decision	choicePhaseStart	1	1	1	foodImage.79	FOODEEG_Images\0794.jpg	YN	Left	Yes	0.93782370002009	0	275715	253
539.43359375	0	decision	response	1	1	1	foodImage.79	FOODEEG_Images\0794.jpg	YN	Left	Yes	0.93782370002009	0	276191	234
540.521484375	1	decision	trialStart	1	2	2	foodImage.17	FOODEEG_Images\0199.jpg	YN	Right	No	0.860879099927843	0	276748	251
541.564453125	2	decision	foodImageDisplay	1	2	2	foodImage.17	FOODEEG_Images\0199.jpg	YN	Right	No	0.860879099927843	0	277282	252
543.626953125	0.860879099927843	decision	choicePhaseStart	1	2	2	foodImage.17	FOODEEG_Images\0199.jpg	YN	Right	No	0.860879099927843	0	278338	253
544.48046875	0	decision	response	1	2	2	foodImage.17	FOODEEG_Images\0199.jpg	YN	Right	No	0.860879099927843	0	278775	235
545.53125	1	health	trialStart	1	3	3	foodImage.14	FOODEEG_Images\0188.jpg	YN	Right	No	1.61339960014448	0	279313	251
546.58984375	2	health	foodImageDisplay	1	3	3	foodImage.14	FOODEEG_Images\0188.jpg	YN	Right	No	1.61339960014448	0	279855	252
548.65234375	1.61339960014448	health	choicePhaseStart	1	3	3	foodImage.14	FOODEEG_Images\0188.jpg	YN	Right	No	1.61339960014448	0	280911	253
550.255859375	0	health	response	1	3	3	foodImage.14	FOODEEG_Images\0188.jpg	YN	Right	No	1.61339960014448	0	281732	235
551.296875	1	health	trialStart	1	4	4	foodImage.72	FOODEEG_Images\0714.jpg	NY	Right	Yes	1.56553440005518	0	282265	251
552.33984375	2	health	foodImageDisplay	1	4	4	foodImage.72	FOODEEG_Images\0714.jpg	NY	Right	Yes	1.56553440005518	0	282799	252
554.412109375	1.56553440005518	health	choicePhaseStart	1	4	4	foodImage.72	FOODEEG_Images\0714.jpg	NY	Right	Yes	1.56553440005518	0	283860	253
555.96875	0	health	response	1	4	4	foodImage.72	FOODEEG_Images\0714.jpg	NY	Right	Yes	1.56553440005518	0	284657	235
557.01171875	1	health	trialStart	1	5	5	foodImage.96	FOODEEG_Images\0904.jpg	NY	Left	No	1.51406419998966	0	285191	251
558.0546875	2	health	foodImageDisplay	1	5	5	foodImage.96	FOODEEG_Images\0904.jpg	NY	Left	No	1.51406419998966	0	285725	252
560.119140625	1.51406419998966	health	choicePhaseStart	1	5	5	foodImage.96	FOODEEG_Images\0904.jpg	NY	Left	No	1.51406419998966	0	286782	253
561.625	0	health	response	1	5	5	foodImage.96	FOODEEG_Images\0904.jpg	NY	Left	No	1.51406419998966	0	287553	234
562.677734375	1	health	trialStart	1	6	6	foodImage.81	FOODEEG_Images\0797.jpg	NY	Right	Yes	1.11234019999392	0	288092	251
563.734375	2	health	foodImageDisplay	1	6	6	foodImage.81	FOODEEG_Images\0797.jpg	NY	Right	Yes	1.11234019999392	0	288633	252
565.80078125	1.11234019999392	health	choicePhaseStart	1	6	6	foodImage.81	FOODEEG_Images\0797.jpg	NY	Right	Yes	1.11234019999392	0	289691	253
566.904296875	0	health	response	1	6	6	foodImage.81	FOODEEG_Images\0797.jpg	NY	Right	Yes	1.11234019999392	0	290256	235
567.953125	1	decision	trialStart	1	7	7	foodImage.11	FOODEEG_Images\0180.jpg	NY	Right	Yes	1.13170400005765	0	290793	251
568.994140625	2	decision	foodImageDisplay	1	7	7	foodImage.11	FOODEEG_Images\0180.jpg	NY	Right	Yes	1.13170400005765	0	291326	252
571.056640625	1.13170400005765	decision	choicePhaseStart	1	7	7	foodImage.11	FOODEEG_Images\0180.jpg	NY	Right	Yes	1.13170400005765	0	292382	253
572.18359375	0	decision	response	1	7	7	foodImage.11	FOODEEG_Images\0180.jpg	NY	Right	Yes	1.13170400005765	0	292959	235
573.228515625	1	taste	trialStart	1	8	8	foodImage.33	FOODEEG_Images\0329.jpg	NY	Right	Yes	1.09566380013712	0	293494	251
574.271484375	2	taste	foodImageDisplay	1	8	8	foodImage.33	FOODEEG_Images\0329.jpg	NY	Right	Yes	1.09566380013712	0	294028	252
576.3359375	1.09566380013712	taste	choicePhaseStart	1	8	8	foodImage.33	FOODEEG_Images\0329.jpg	NY	Right	Yes	1.09566380013712	0	295085	253
577.423828125	0	taste	response	1	8	8	foodImage.33	FOODEEG_Images\0329.jpg	NY	Right	Yes	1.09566380013712	0	295642	235
578.46484375	1	decision	trialStart	1	9	9	foodImage.39	FOODEEG_Images\0367.jpg	NY	Right	Yes	0.974839099915698	0	296175	251
579.501953125	2	decision	foodImageDisplay	1	9	9	foodImage.39	FOODEEG_Images\0367.jpg	NY	Right	Yes	0.974839099915698	0	296706	252
581.5703125	0.974839099915698	decision	choicePhaseStart	1	9	9	foodImage.39	FOODEEG_Images\0367.jpg	NY	Right	Yes	0.974839099915698	0	297765	253
582.53515625	0	decision	response	1	9	9	foodImage.39	FOODEEG_Images\0367.jpg	NY	Right	Yes	0.974839099915698	0	298259	235
583.576171875	1	decision	trialStart	1	10	10	foodImage.54	FOODEEG_Images\0560.jpg	NY	Right	Yes	0.9482774999924	0	298792	251
584.63671875	2	decision	foodImageDisplay	1	10	10	foodImage.54	FOODEEG_Images\0560.jpg	NY	Right	Yes	0.9482774999924	0	299335	252
586.69921875	0.9482774999924	decision	choicePhaseStart	1	10	10	foodImage.54	FOODEEG_Images\0560.jpg	NY	Right	Yes	0.9482774999924	0	300391	253
587.638671875	0	decision	response	1	10	10	foodImage.54	FOODEEG_Images\0560.jpg	NY	Right	Yes	0.9482774999924	0	300872	235
588.6796875	1	taste	trialStart	1	11	11	foodImage.28	FOODEEG_Images\0273.jpg	YN	Left	Yes	1.49672660022043	0	301405	251
589.720703125	2	taste	foodImageDisplay	1	11	11	foodImage.28	FOODEEG_Images\0273.jpg	YN	Left	Yes	1.49672660022043	0	301938	252
591.783203125	1.49672660022043	taste	choicePhaseStart	1	11	11	foodImage.28	FOODEEG_Images\0273.jpg	YN	Left	Yes	1.49672660022043	0	302994	253
593.26953125	0	taste	response	1	11	11	foodImage.28	FOODEEG_Images\0273.jpg	YN	Left	Yes	1.49672660022043	0	303755	234
594.3125	1	health	trialStart	1	12	12	foodImage.107	FOODEEG_Images\0915.jpg	NY	Right	Yes	1.48220500000753	0	304289	251
595.3515625	2	health	foodImageDisplay	1	12	12	foodImage.107	FOODEEG_Images\0915.jpg	NY	Right	Yes	1.48220500000753	0	304821	252
597.4140625	1.48220500000753	health	choicePhaseStart	1	12	12	foodImage.107	FOODEEG_Images\0915.jpg	NY	Right	Yes	1.48220500000753	0	305877	253
598.88671875	0	health	response	1	12	12	foodImage.107	FOODEEG_Images\0915.jpg	NY	Right	Yes	1.48220500000753	0	306631	235
599.927734375	1	taste	trialStart	1	13	13	foodImage.61	FOODEEG_Images\0640.jpg	NY	Right	Yes	0.974991999799386	0	307164	251
600.96875	2	taste	foodImageDisplay	1	13	13	foodImage.61	FOODEEG_Images\0640.jpg	NY	Right	Yes	0.974991999799386	0	307697	252
603.03125	0.974991999799386	taste	choicePhaseStart	1	13	13	foodImage.61	FOODEEG_Images\0640.jpg	NY	Right	Yes	0.974991999799386	0	308753	253
603.998046875	0	taste	response	1	13	13	foodImage.61	FOODEEG_Images\0640.jpg	NY	Right	Yes	0.974991999799386	0	309248	235
605.041015625	1	taste	trialStart	1	14	14	foodImage.88	FOODEEG_Images\0878.jpg	YN	Left	Yes	1.0961815000046	0	309782	251
606.095703125	2	taste	foodImageDisplay	1	14	14	foodImage.88	FOODEEG_Images\0878.jpg	YN	Left	Yes	1.0961815000046	0	310322	252
608.158203125	1.0961815000046	taste	choicePhaseStart	1	14	14	foodImage.88	FOODEEG_Images\0878.jpg	YN	Left	Yes	1.0961815000046	0	311378	253
609.24609375	0	taste	response	1	14	14	foodImage.88	FOODEEG_Images\0878.jpg	YN	Left	Yes	1.0961815000046	0	311935	234
610.291015625	1	health	trialStart	1	15	15	foodImage.79	FOODEEG_Images\0794.jpg	YN	Left	Yes	2.99456959986128	0	312470	251
611.333984375	2	health	foodImageDisplay	1	15	15	foodImage.79	FOODEEG_Images\0794.jpg	YN	Left	Yes	2.99456959986128	0	313004	252
613.396484375	2.99456959986128	health	choicePhaseStart	1	15	15	foodImage.79	FOODEEG_Images\0794.jpg	YN	Left	Yes	2.99456959986128	0	314060	253
616.3828125	0	health	response	1	15	15	foodImage.79	FOODEEG_Images\0794.jpg	YN	Left	Yes	2.99456959986128	0	315589	234
617.42578125	1	health	trialStart	1	16	16	foodImage.120	FOODEEG_Images\0928.jpg	NY	Right	Yes	1.32941880007274	0	316123	251
618.462890625	2	health	foodImageDisplay	1	16	16	foodImage.120	FOODEEG_Images\0928.jpg	NY	Right	Yes	1.32941880007274	0	316654	252
620.525390625	1.32941880007274	health	choicePhaseStart	1	16	16	foodImage.120	FOODEEG_Images\0928.jpg	NY	Right	Yes	1.32941880007274	0	317710	253
621.845703125	0	health	response	1	16	16	foodImage.120	FOODEEG_Images\0928.jpg	NY	Right	Yes	1.32941880007274	0	318386	235
622.888671875	1	decision	trialStart	1	17	17	foodImage.58	FOODEEG_Images\0605.jpg	NY	Right	Yes	1.01478060008958	0	318920	251
623.9453125	2	decision	foodImageDisplay	1	17	17	foodImage.58	FOODEEG_Images\0605.jpg	NY	Right	Yes	1.01478060008958	0	319461	252
626.0078125	1.01478060008958	decision	choicePhaseStart	1	17	17	foodImage.58	FOODEEG_Images\0605.jpg	NY	Right	Yes	1.01478060008958	0	320517	253
627.013671875	0	decision	response	1	17	17	foodImage.58	FOODEEG_Images\0605.jpg	NY	Right	Yes	1.01478060008958	0	321032	235
628.0546875	1	health	trialStart	1	18	18	foodImage.102	FOODEEG_Images\0910.jpg	YN	Left	Yes	1.37103619985282	0	321565	251
629.091796875	2	health	foodImageDisplay	1	18	18	foodImage.102	FOODEEG_Images\0910.jpg	YN	Left	Yes	1.37103619985282	0	322096	252
631.154296875	1.37103619985282	health	choicePhaseStart	1	18	18	foodImage.102	FOODEEG_Images\0910.jpg	YN	Left	Yes	1.37103619985282	0	323152	253
632.517578125	0	health	response	1	18	18	foodImage.102	FOODEEG_Images\0910.jpg	YN	Left	Yes	1.37103619985282	0	323850	234
633.55859375	1	taste	trialStart	1	19	19	foodImage.75	FOODEEG_Images\0763.jpg	YN	Left	Yes	1.01053199986927	0	324383	251
634.603515625	2	taste	foodImageDisplay	1	19	19	foodImage.75	FOODEEG_Images\0763.jpg	YN	Left	Yes	1.01053199986927	0	324918	252
636.66796875	1.01053199986927	taste	choicePhaseStart	1	19	19	foodImage.75	FOODEEG_Images\0763.jpg	YN	Left	Yes	1.01053199986927	0	325975	253
637.66796875	0	taste	response	1	19	19	foodImage.75	FOODEEG_Images\0763.jpg	YN	Left	Yes	1.01053199986927	0	326487	234
638.7109375	1	taste	trialStart	1	20	20	foodImage.16	FOODEEG_Images\0196.jpg	YN	Left	Yes	0.982480099890381	0	327021	251
639.76953125	2	taste	foodImageDisplay	1	20	20	foodImage.16	FOODEEG_Images\0196.jpg	YN	Left	Yes	0.982480099890381	0	327563	252
641.83203125	0.982480099890381	taste	choicePhaseStart	1	20	20	foodImage.16	FOODEEG_Images\0196.jpg	YN	Left	Yes	0.982480099890381	0	328619	253
642.8046875	0	taste	response	1	20	20	foodImage.16	FOODEEG_Images\0196.jpg	YN	Left	Yes	0.982480099890381	0	329117	234
643.845703125	1	health	trialStart	1	21	21	foodImage.100	FOODEEG_Images\0908.jpg	YN	Right	No	1.51431949995458	0	329650	251
644.884765625	2	health	foodImageDisplay	1	21	21	foodImage.100	FOODEEG_Images\0908.jpg	YN	Right	No	1.51431949995458	0	330182	252
646.947265625	1.51431949995458	health	choicePhaseStart	1	21	21	foodImage.100	FOODEEG_Images\0908.jpg	YN	Right	No	1.51431949995458	0	331238	253
648.453125	0	health	response	1	21	21	foodImage.100	FOODEEG_Images\0908.jpg	YN	Right	No	1.51431949995458	0	332009	235
649.49609375	1	health	trialStart	1	22	22	foodImage.49	FOODEEG_Images\0515.jpg	YN	Left	Yes	1.06596499984153	0	332543	251
650.537109375	2	health	foodImageDisplay	1	22	22	foodImage.49	FOODEEG_Images\0515.jpg	YN	Left	Yes	1.06596499984153	0	333076	252
652.603515625	1.06596499984153	health	choicePhaseStart	1	22	22	foodImage.49	FOODEEG_Images\0515.jpg	YN	Left	Yes	1.06596499984153	0	334134	253
653.66015625	0	health	response	1	22	22	foodImage.49	FOODEEG_Images\0515.jpg	YN	Left	Yes	1.06596499984153	0	334675	234
654.705078125	1	taste	trialStart	1	23	23	foodImage.41	FOODEEG_Images\0409.jpg	NY	Right	Yes	1.09137939987704	0	335210	251
655.751953125	2	taste	foodImageDisplay	1	23	23	foodImage.41	FOODEEG_Images\0409.jpg	NY	Right	Yes	1.09137939987704	0	335746	252
657.814453125	1.09137939987704	taste	choicePhaseStart	1	23	23	foodImage.41	FOODEEG_Images\0409.jpg	NY	Right	Yes	1.09137939987704	0	336802	253
658.900390625	0	taste	response	1	23	23	foodImage.41	FOODEEG_Images\0409.jpg	NY	Right	Yes	1.09137939987704	0	337358	235
659.939453125	1	health	trialStart	1	24	24	foodImage.58	FOODEEG_Images\0605.jpg	NY	Right	Yes	2.81185990013182	0	337890	251
660.994140625	2	health	foodImageDisplay	1	24	24	foodImage.58	FOODEEG_Images\0605.jpg	NY	Right	Yes	2.81185990013182	0	338430	252
663.056640625	2.81185990013182	health	choicePhaseStart	1	24	24	foodImage.58	FOODEEG_Images\0605.jpg	NY	Right	Yes	2.81185990013182	0	339486	253
665.859375	0	health	response	1	24	24	foodImage.58	FOODEEG_Images\0605.jpg	NY	Right	Yes	2.81185990013182	0	340921	235
666.90234375	1	decision	trialStart	1	25	25	foodImage.41	FOODEEG_Images\0409.jpg	YN	Left	Yes	0.953466800041497	0	341455	251
667.94921875	2	decision	foodImageDisplay	1	25	25	foodImage.41	FOODEEG_Images\0409.jpg	YN	Left	Yes	0.953466800041497	0	341991	252
670.01171875	0.953466800041497	decision	choicePhaseStart	1	25	25	foodImage.41	FOODEEG_Images\0409.jpg	YN	Left	Yes	0.953466800041497	0	343047	253
670.955078125	0	decision	response	1	25	25	foodImage.41	FOODEEG_Images\0409.jpg	YN	Left	Yes	0.953466800041497	0	343530	234
671.99609375	1	taste	trialStart	1	26	26	foodImage.10	FOODEEG_Images\0145.jpg	YN	Left	Yes	1.48920610011555	0	344063	251
673.052734375	2	taste	foodImageDisplay	1	26	26	foodImage.10	FOODEEG_Images\0145.jpg	YN	Left	Yes	1.48920610011555	0	344604	252
675.115234375	1.48920610011555	taste	choicePhaseStart	1	26	26	foodImage.10	FOODEEG_Images\0145.jpg	YN	Left	Yes	1.48920610011555	0	345660	253
676.595703125	0	taste	response	1	26	26	foodImage.10	FOODEEG_Images\0145.jpg	YN	Left	Yes	1.48920610011555	0	346418	234
677.63671875	1	taste	trialStart	1	27	27	foodImage.27	FOODEEG_Images\0263.jpg	YN	Right	No	1.26488299993798	0	346951	251
678.677734375	2	taste	foodImageDisplay	1	27	27	foodImage.27	FOODEEG_Images\0263.jpg	YN	Right	No	1.26488299993798	0	347484	252
680.740234375	1.26488299993798	taste	choicePhaseStart	1	27	27	foodImage.27	FOODEEG_Images\0263.jpg	YN	Right	No	1.26488299993798	0	348540	253
681.994140625	0	taste	response	1	27	27	foodImage.27	FOODEEG_Images\0263.jpg	YN	Right	No	1.26488299993798	0	349182	235
683.037109375	1	decision	trialStart	1	28	28	foodImage.72	FOODEEG_Images\0714.jpg	NY	Left	No	1.06877389992587	0	349716	251
684.080078125	2	decision	foodImageDisplay	1	28	28	foodImage.72	FOODEEG_Images\0714.jpg	NY	Left	No	1.06877389992587	0	350250	252
686.142578125	1.06877389992587	decision	choicePhaseStart	1	28	28	foodImage.72	FOODEEG_Images\0714.jpg	NY	Left	No	1.06877389992587	0	351306	253
687.203125	0	decision	response	1	28	28	foodImage.72	FOODEEG_Images\0714.jpg	NY	Left	No	1.06877389992587	0	351849	234
688.244140625	1	health	trialStart	1	29	29	foodImage.86	FOODEEG_Images\0844.jpg	YN	Right	No	1.15103579987772	0	352382	251
689.302734375	2	health	foodImageDisplay	1	29	29	foodImage.86	FOODEEG_Images\0844.jpg	YN	Right	No	1.15103579987772	0	352924	252
691.365234375	1.15103579987772	health	choicePhaseStart	1	29	29	foodImage.86	FOODEEG_Images\0844.jpg	YN	Right	No	1.15103579987772	0	353980	253
692.505859375	0	health	response	1	29	29	foodImage.86	FOODEEG_Images\0844.jpg	YN	Right	No	1.15103579987772	0	354564	235
693.546875	1	decision	trialStart	1	30	30	foodImage.36	FOODEEG_Images\0352.jpg	NY	Left	No	1.24559869989753	0	355097	251
694.6015625	2	decision	foodImageDisplay	1	30	30	foodImage.36	FOODEEG_Images\0352.jpg	NY	Left	No	1.24559869989753	0	355637	252
696.6640625	1.24559869989753	decision	choicePhaseStart	1	30	30	foodImage.36	FOODEEG_Images\0352.jpg	NY	Left	No	1.24559869989753	0	356693	253
697.8984375	0	decision	response	1	30	30	foodImage.36	FOODEEG_Images\0352.jpg	NY	Left	No	1.24559869989753	0	357325	234
698.9375	1	decision	trialStart	1	31	31	foodImage.81	FOODEEG_Images\0797.jpg	NY	Right	Yes	1.26893619983457	0	357857	251
699.9921875	2	decision	foodImageDisplay	1	31	31	foodImage.81	FOODEEG_Images\0797.jpg	NY	Right	Yes	1.26893619983457	0	358397	252
702.052734375	1.26893619983457	decision	choicePhaseStart	1	31	31	foodImage.81	FOODEEG_Images\0797.jpg	NY	Right	Yes	1.26893619983457	0	359452	253
703.314453125	0	decision	response	1	31	31	foodImage.81	FOODEEG_Images\0797.jpg	NY	Right	Yes	1.26893619983457	0	360098	235
704.3515625	1	decision	trialStart	1	32	32	foodImage.16	FOODEEG_Images\0196.jpg	YN	Left	Yes	0.915273199789226	0	360629	251
705.408203125	2	decision	foodImageDisplay	1	32	32	foodImage.16	FOODEEG_Images\0196.jpg	YN	Left	Yes	0.915273199789226	0	361170	252
707.470703125	0.915273199789226	decision	choicePhaseStart	1	32	32	foodImage.16	FOODEEG_Images\0196.jpg	YN	Left	Yes	0.915273199789226	0	362226	253
708.376953125	0	decision	response	1	32	32	foodImage.16	FOODEEG_Images\0196.jpg	YN	Left	Yes	0.915273199789226	0	362690	234
709.419921875	1	taste	trialStart	1	33	33	foodImage.44	FOODEEG_Images\0459.jpg	NY	Right	Yes	1.08306390000507	0	363224	251
710.482421875	2	taste	foodImageDisplay	1	33	33	foodImage.44	FOODEEG_Images\0459.jpg	NY	Right	Yes	1.08306390000507	0	363768	252
712.544921875	1.08306390000507	taste	choicePhaseStart	1	33	33	foodImage.44	FOODEEG_Images\0459.jpg	NY	Right	Yes	1.08306390000507	0	364824	253
713.6171875	0	taste	response	1	33	33	foodImage.44	FOODEEG_Images\0459.jpg	NY	Right	Yes	1.08306390000507	0	365373	235
714.6640625	1	health	trialStart	1	34	34	foodImage.11	FOODEEG_Images\0180.jpg	YN	Right	No	1.77424659999087	0	365909	251
715.71875	2	health	foodImageDisplay	1	34	34	foodImage.11	FOODEEG_Images\0180.jpg	YN	Right	No	1.77424659999087	0	366449	252
717.787109375	1.77424659999087	health	choicePhaseStart	1	34	34	foodImage.11	FOODEEG_Images\0180.jpg	YN	Right	No	1.77424659999087	0	367508	253
719.552734375	0	health	response	1	34	34	foodImage.11	FOODEEG_Images\0180.jpg	YN	Right	No	1.77424659999087	0	368412	235
720.595703125	1	health	trialStart	1	35	35	foodImage.20	FOODEEG_Images\0226.jpg	NY	Left	No	1.17563220020384	0	368946	251
721.63671875	2	health	foodImageDisplay	1	35	35	foodImage.20	FOODEEG_Images\0226.jpg	NY	Left	No	1.17563220020384	0	369479	252
723.69921875	1.17563220020384	health	choicePhaseStart	1	35	35	foodImage.20	FOODEEG_Images\0226.jpg	NY	Left	No	1.17563220020384	0	370535	253
724.865234375	0	health	response	1	35	35	foodImage.20	FOODEEG_Images\0226.jpg	NY	Left	No	1.17563220020384	0	371132	234
725.908203125	1	health	trialStart	1	36	36	foodImage.60	FOODEEG_Images\0614.jpg	YN	Left	Yes	1.22466000006534	0	371666	251
726.96484375	2	health	foodImageDisplay	1	36	36	foodImage.60	FOODEEG_Images\0614.jpg	YN	Left	Yes	1.22466000006534	0	372207	252
729.02734375	1.22466000006534	health	choicePhaseStart	1	36	36	foodImage.60	FOODEEG_Images\0614.jpg	YN	Left	Yes	1.22466000006534	0	373263	253
730.2421875	0	health	response	1	36	36	foodImage.60	FOODEEG_Images\0614.jpg	YN	Left	Yes	1.22466000006534	0	373885	234
731.28125	1	taste	trialStart	1	37	37	foodImage.5	FOODEEG_Images\0107.jpg	YN	Left	Yes	1.25764070008881	0	374417	251
732.337890625	2	taste	foodImageDisplay	1	37	37	foodImage.5	FOODEEG_Images\0107.jpg	YN	Left	Yes	1.25764070008881	0	374958	252
734.400390625	1.25764070008881	taste	choicePhaseStart	1	37	37	foodImage.5	FOODEEG_Images\0107.jpg	YN	Left	Yes	1.25764070008881	0	376014	253
735.6484375	0	taste	response	1	37	37	foodImage.5	FOODEEG_Images\0107.jpg	YN	Left	Yes	1.25764070008881	0	376653	234
736.6875	1	decision	trialStart	1	38	38	foodImage.112	FOODEEG_Images\0920.jpg	YN	Right	No	1.37665610015392	0	377185	251
737.7265625	2	decision	foodImageDisplay	1	38	38	foodImage.112	FOODEEG_Images\0920.jpg	YN	Right	No	1.37665610015392	0	377717	252
739.791015625	1.37665610015392	decision	choicePhaseStart	1	38	38	foodImage.112	FOODEEG_Images\0920.jpg	YN	Right	No	1.37665610015392	0	378774	253
741.16015625	0	decision	response	1	38	38	foodImage.112	FOODEEG_Images\0920.jpg	YN	Right	No	1.37665610015392	0	379475	235
742.203125	1	health	trialStart	1	39	39	foodImage.34	FOODEEG_Images\0339.jpg	YN	Right	No	1.23793950001709	0	380009	251
743.26171875	2	health	foodImageDisplay	1	39	39	foodImage.34	FOODEEG_Images\0339.jpg	YN	Right	No	1.23793950001709	0	380551	252
745.32421875	1.23793950001709	health	choicePhaseStart	1	39	39	foodImage.34	FOODEEG_Images\0339.jpg	YN	Right	No	1.23793950001709	0	381607	253
746.552734375	0	health	response	1	39	39	foodImage.34	FOODEEG_Images\0339.jpg	YN	Right	No	1.23793950001709	0	382236	235
747.59375	1	decision	trialStart	1	40	40	foodImage.66	FOODEEG_Images\0676.jpg	YN	Left	Yes	1.00990629987791	0	382769	251
748.6328125	2	decision	foodImageDisplay	1	40	40	foodImage.66	FOODEEG_Images\0676.jpg	YN	Left	Yes	1.00990629987791	0	383301	252
750.6953125	1.00990629987791	decision	choicePhaseStart	1	40	40	foodImage.66	FOODEEG_Images\0676.jpg	YN	Left	Yes	1.00990629987791	0	384357	253
751.6953125	0	decision	response	1	40	40	foodImage.66	FOODEEG_Images\0676.jpg	YN	Left	Yes	1.00990629987791	0	384869	234
752.73828125	1	taste	trialStart	1	41	41	foodImage.102	FOODEEG_Images\0910.jpg	YN	Right	No	1.02005920000374	0	385403	251
753.787109375	2	taste	foodImageDisplay	1	41	41	foodImage.102	FOODEEG_Images\0910.jpg	YN	Right	No	1.02005920000374	0	385940	252
755.849609375	1.02005920000374	taste	choicePhaseStart	1	41	41	foodImage.102	FOODEEG_Images\0910.jpg	YN	Right	No	1.02005920000374	0	386996	253
756.86328125	0	taste	response	1	41	41	foodImage.102	FOODEEG_Images\0910.jpg	YN	Right	No	1.02005920000374	0	387515	235
757.908203125	1	health	trialStart	1	42	42	foodImage.103	FOODEEG_Images\0911.jpg	YN	Right	No	1.10576000018045	0	388050	251
758.9453125	2	health	foodImageDisplay	1	42	42	foodImage.103	FOODEEG_Images\0911.jpg	YN	Right	No	1.10576000018045	0	388581	252
761.0078125	1.10576000018045	health	choicePhaseStart	1	42	42	foodImage.103	FOODEEG_Images\0911.jpg	YN	Right	No	1.10576000018045	0	389637	253
762.103515625	0	health	response	1	42	42	foodImage.103	FOODEEG_Images\0911.jpg	YN	Right	No	1.10576000018045	0	390198	235
763.146484375	1	taste	trialStart	1	43	43	foodImage.73	FOODEEG_Images\0717.jpg	NY	Left	No	1.97934139985591	0	390732	251
764.20703125	2	taste	foodImageDisplay	1	43	43	foodImage.73	FOODEEG_Images\0717.jpg	NY	Left	No	1.97934139985591	0	391275	252
766.26953125	1.97934139985591	taste	choicePhaseStart	1	43	43	foodImage.73	FOODEEG_Images\0717.jpg	NY	Left	No	1.97934139985591	0	392331	253
768.240234375	0	taste	response	1	43	43	foodImage.73	FOODEEG_Images\0717.jpg	NY	Left	No	1.97934139985591	0	393340	234
769.28125	1	decision	trialStart	1	44	44	foodImage.2	FOODEEG_Images\0028.jpg	YN	Left	Yes	1.19369730004109	0	393873	251
770.326171875	2	decision	foodImageDisplay	1	44	44	foodImage.2	FOODEEG_Images\0028.jpg	YN	Left	Yes	1.19369730004109	0	394408	252
772.388671875	1.19369730004109	decision	choicePhaseStart	1	44	44	foodImage.2	FOODEEG_Images\0028.jpg	YN	Left	Yes	1.19369730004109	0	395464	253
773.57421875	0	decision	response	1	44	44	foodImage.2	FOODEEG_Images\0028.jpg	YN	Left	Yes	1.19369730004109	0	396071	234
774.6171875	1	health	trialStart	1	45	45	foodImage.17	FOODEEG_Images\0199.jpg	YN	Left	Yes	1.60036460007541	0	396605	251
775.658203125	2	health	foodImageDisplay	1	45	45	foodImage.17	FOODEEG_Images\0199.jpg	YN	Left	Yes	1.60036460007541	0	397138	252
777.720703125	1.60036460007541	health	choicePhaseStart	1	45	45	foodImage.17	FOODEEG_Images\0199.jpg	YN	Left	Yes	1.60036460007541	0	398194	253
779.3125	0	health	response	1	45	45	foodImage.17	FOODEEG_Images\0199.jpg	YN	Left	Yes	1.60036460007541	0	399009	234
780.353515625	1	health	trialStart	1	46	46	foodImage.41	FOODEEG_Images\0409.jpg	NY	Right	Yes	2.03272080002353	0	399542	251
781.400390625	2	health	foodImageDisplay	1	46	46	foodImage.41	FOODEEG_Images\0409.jpg	NY	Right	Yes	2.03272080002353	0	400078	252
783.462890625	2.03272080002353	health	choicePhaseStart	1	46	46	foodImage.41	FOODEEG_Images\0409.jpg	NY	Right	Yes	2.03272080002353	0	401134	253
785.486328125	0	health	response	1	46	46	foodImage.41	FOODEEG_Images\0409.jpg	NY	Right	Yes	2.03272080002353	0	402170	235
786.52734375	1	taste	trialStart	1	47	47	foodImage.51	FOODEEG_Images\0536.jpg	NY	Right	Yes	1.29463879996911	0	402703	251
787.572265625	2	taste	foodImageDisplay	1	47	47	foodImage.51	FOODEEG_Images\0536.jpg	NY	Right	Yes	1.29463879996911	0	403238	252
789.6328125	1.29463879996911	taste	choicePhaseStart	1	47	47	foodImage.51	FOODEEG_Images\0536.jpg	NY	Right	Yes	1.29463879996911	0	404293	253
790.91796875	0	taste	response	1	47	47	foodImage.51	FOODEEG_Images\0536.jpg	NY	Right	Yes	1.29463879996911	0	404951	235
791.9609375	1	health	trialStart	1	48	48	foodImage.50	FOODEEG_Images\0529.jpg	YN	Left	Yes	1.19997529988177	0	405485	251
793.017578125	2	health	foodImageDisplay	1	48	48	foodImage.50	FOODEEG_Images\0529.jpg	YN	Left	Yes	1.19997529988177	0	406026	252
795.080078125	1.19997529988177	health	choicePhaseStart	1	48	48	foodImage.50	FOODEEG_Images\0529.jpg	YN	Left	Yes	1.19997529988177	0	407082	253
796.271484375	0	health	response	1	48	48	foodImage.50	FOODEEG_Images\0529.jpg	YN	Left	Yes	1.19997529988177	0	407692	234
797.3125	1	health	trialStart	1	49	49	foodImage.16	FOODEEG_Images\0196.jpg	NY	Right	Yes	1.37448640004732	0	408225	251
798.37109375	2	health	foodImageDisplay	1	49	49	foodImage.16	FOODEEG_Images\0196.jpg	NY	Right	Yes	1.37448640004732	0	408767	252
800.43359375	1.37448640004732	health	choicePhaseStart	1	49	49	foodImage.16	FOODEEG_Images\0196.jpg	NY	Right	Yes	1.37448640004732	0	409823	253
801.798828125	0	health	response	1	49	49	foodImage.16	FOODEEG_Images\0196.jpg	NY	Right	Yes	1.37448640004732	0	410522	235
802.83984375	1	health	trialStart	1	50	50	foodImage.109	FOODEEG_Images\0917.jpg	YN	Right	No	1.90526819997467	0	411055	251
803.876953125	2	health	foodImageDisplay	1	50	50	foodImage.109	FOODEEG_Images\0917.jpg	YN	Right	No	1.90526819997467	0	411586	252
805.939453125	1.90526819997467	health	choicePhaseStart	1	50	50	foodImage.109	FOODEEG_Images\0917.jpg	YN	Right	No	1.90526819997467	0	412642	253
807.837890625	0	health	response	1	50	50	foodImage.109	FOODEEG_Images\0917.jpg	YN	Right	No	1.90526819997467	0	413614	235
808.87890625	1	health	trialStart	1	51	51	foodImage.2	FOODEEG_Images\0028.jpg	NY	Left	No	1.05606710002758	0	414147	251
809.919921875	2	health	foodImageDisplay	1	51	51	foodImage.2	FOODEEG_Images\0028.jpg	NY	Left	No	1.05606710002758	0	414680	252
811.984375	1.05606710002758	health	choicePhaseStart	1	51	51	foodImage.2	FOODEEG_Images\0028.jpg	NY	Left	No	1.05606710002758	0	415737	253
813.029296875	0	health	response	1	51	51	foodImage.2	FOODEEG_Images\0028.jpg	NY	Left	No	1.05606710002758	0	416272	234
814.072265625	1	taste	trialStart	1	52	52	foodImage.3	FOODEEG_Images\0046.jpg	NY	Right	Yes	1.20979819982313	0	416806	251
815.119140625	2	taste	foodImageDisplay	1	52	52	foodImage.3	FOODEEG_Images\0046.jpg	NY	Right	Yes	1.20979819982313	0	417342	252
817.181640625	1.20979819982313	taste	choicePhaseStart	1	52	52	foodImage.3	FOODEEG_Images\0046.jpg	NY	Right	Yes	1.20979819982313	0	418398	253
818.380859375	0	taste	response	1	52	52	foodImage.3	FOODEEG_Images\0046.jpg	NY	Right	Yes	1.20979819982313	0	419012	235
819.42578125	1	health	trialStart	1	53	53	foodImage.70	FOODEEG_Images\0705.jpg	NY	Right	Yes	2.10526589979418	0	419547	251
820.484375	2	health	foodImageDisplay	1	53	53	foodImage.70	FOODEEG_Images\0705.jpg	NY	Right	Yes	2.10526589979418	0	420089	252
822.546875	2.10526589979418	health	choicePhaseStart	1	53	53	foodImage.70	FOODEEG_Images\0705.jpg	NY	Right	Yes	2.10526589979418	0	421145	253
824.64453125	0	health	response	1	53	53	foodImage.70	FOODEEG_Images\0705.jpg	NY	Right	Yes	2.10526589979418	0	422219	235
825.6875	1	decision	trialStart	1	54	54	foodImage.26	FOODEEG_Images\0262.jpg	NY	Right	Yes	1.22333920001984	0	422753	251
826.728515625	2	decision	foodImageDisplay	1	54	54	foodImage.26	FOODEEG_Images\0262.jpg	NY	Right	Yes	1.22333920001984	0	423286	252
828.791015625	1.22333920001984	decision	choicePhaseStart	1	54	54	foodImage.26	FOODEEG_Images\0262.jpg	NY	Right	Yes	1.22333920001984	0	424342	253
830.005859375	0	decision	response	1	54	54	foodImage.26	FOODEEG_Images\0262.jpg	NY	Right	Yes	1.22333920001984	0	424964	235
831.052734375	1	taste	trialStart	1	55	55	foodImage.45	FOODEEG_Images\0478.jpg	YN	Left	Yes	1.15043850010261	0	425500	251
832.09765625	2	taste	foodImageDisplay	1	55	55	foodImage.45	FOODEEG_Images\0478.jpg	YN	Left	Yes	1.15043850010261	0	426035	252
834.16015625	1.15043850010261	taste	choicePhaseStart	1	55	55	foodImage.45	FOODEEG_Images\0478.jpg	YN	Left	Yes	1.15043850010261	0	427091	253
835.30078125	0	taste	response	1	55	55	foodImage.45	FOODEEG_Images\0478.jpg	YN	Left	Yes	1.15043850010261	0	427675	234
836.34375	1	health	trialStart	1	56	56	foodImage.80	FOODEEG_Images\0796.jpg	NY	Right	Yes	1.03591369977221	0	428209	251
837.40234375	2	health	foodImageDisplay	1	56	56	foodImage.80	FOODEEG_Images\0796.jpg	NY	Right	Yes	1.03591369977221	0	428751	252
839.466796875	1.03591369977221	health	choicePhaseStart	1	56	56	foodImage.80	FOODEEG_Images\0796.jpg	NY	Right	Yes	1.03591369977221	0	429808	253
840.4921875	0	health	response	1	56	56	foodImage.80	FOODEEG_Images\0796.jpg	NY	Right	Yes	1.03591369977221	0	430333	235
841.537109375	1	health	trialStart	1	57	57	foodImage.36	FOODEEG_Images\0352.jpg	YN	Right	No	1.76472760015167	0	430868	251
842.595703125	2	health	foodImageDisplay	1	57	57	foodImage.36	FOODEEG_Images\0352.jpg	YN	Right	No	1.76472760015167	0	431410	252
844.658203125	1.76472760015167	health	choicePhaseStart	1	57	57	foodImage.36	FOODEEG_Images\0352.jpg	YN	Right	No	1.76472760015167	0	432466	253
846.412109375	0	health	response	1	57	57	foodImage.36	FOODEEG_Images\0352.jpg	YN	Right	No	1.76472760015167	0	433364	235
847.458984375	1	decision	trialStart	1	58	58	foodImage.20	FOODEEG_Images\0226.jpg	NY	Left	No	1.19875360000879	0	433900	251
848.501953125	2	decision	foodImageDisplay	1	58	58	foodImage.20	FOODEEG_Images\0226.jpg	NY	Left	No	1.19875360000879	0	434434	252
850.564453125	1.19875360000879	decision	choicePhaseStart	1	58	58	foodImage.20	FOODEEG_Images\0226.jpg	NY	Left	No	1.19875360000879	0	435490	253
851.755859375	0	decision	response	1	58	58	foodImage.20	FOODEEG_Images\0226.jpg	NY	Left	No	1.19875360000879	0	436100	234
852.796875	1	decision	trialStart	1	59	59	foodImage.67	FOODEEG_Images\0679.jpg	YN	Right	No	1.1058910000138	0	436633	251
853.861328125	2	decision	foodImageDisplay	1	59	59	foodImage.67	FOODEEG_Images\0679.jpg	YN	Right	No	1.1058910000138	0	437178	252
855.923828125	1.1058910000138	decision	choicePhaseStart	1	59	59	foodImage.67	FOODEEG_Images\0679.jpg	YN	Right	No	1.1058910000138	0	438234	253
857.01953125	0	decision	response	1	59	59	foodImage.67	FOODEEG_Images\0679.jpg	YN	Right	No	1.1058910000138	0	438795	235
858.060546875	1	taste	trialStart	1	60	60	foodImage.77	FOODEEG_Images\0771.jpg	YN	Right	No	2.00456180004403	0	439328	251
859.103515625	2	taste	foodImageDisplay	1	60	60	foodImage.77	FOODEEG_Images\0771.jpg	YN	Right	No	2.00456180004403	0	439862	252
861.166015625	2.00456180004403	taste	choicePhaseStart	1	60	60	foodImage.77	FOODEEG_Images\0771.jpg	YN	Right	No	2.00456180004403	0	440918	253
863.1640625	0	taste	response	1	60	60	foodImage.77	FOODEEG_Images\0771.jpg	YN	Right	No	2.00456180004403	0	441941	235
865.205078125	14.046875	n/a	blockEnd	n/a	n/a	n/a	n/a	n/a	n/a	n/a	n/a	n/a	n/a	442986	254
879.251953125	2	n/a	blockStart	2	n/a	n/a	n/a	n/a	n/a	n/a	n/a	n/a	n/a	450178	250
881.28125	1	decision	trialStart	2	61	1	foodImage.118	FOODEEG_Images\0926.jpg	YN	Right	No	0.926908700028434	0	451217	251
882.318359375	2	decision	foodImageDisplay	2	61	1	foodImage.118	FOODEEG_Images\0926.jpg	YN	Right	No	0.926908700028434	0	451748	252
884.380859375	0.926908700028434	decision	choicePhaseStart	2	61	1	foodImage.118	FOODEEG_Images\0926.jpg	YN	Right	No	0.926908700028434	0	452804	253
885.298828125	0	decision	response	2	61	1	foodImage.118	FOODEEG_Images\0926.jpg	YN	Right	No	0.926908700028434	0	453274	235
886.341796875	1	taste	trialStart	2	62	2	foodImage.89	FOODEEG_Images\0881.jpg	YN	Right	No	1.05950589990243	0	453808	251
887.39453125	2	taste	foodImageDisplay	2	62	2	foodImage.89	FOODEEG_Images\0881.jpg	YN	Right	No	1.05950589990243	0	454347	252
889.45703125	1.05950589990243	taste	choicePhaseStart	2	62	2	foodImage.89	FOODEEG_Images\0881.jpg	YN	Right	No	1.05950589990243	0	455403	253
890.505859375	0	taste	response	2	62	2	foodImage.89	FOODEEG_Images\0881.jpg	YN	Right	No	1.05950589990243	0	455940	235
891.546875	1	health	trialStart	2	63	3	foodImage.37	FOODEEG_Images\0359.jpg	NY	Right	Yes	1.01805220008828	0	456473	251
892.587890625	2	health	foodImageDisplay	2	63	3	foodImage.37	FOODEEG_Images\0359.jpg	NY	Right	Yes	1.01805220008828	0	457006	252
894.650390625	1.01805220008828	health	choicePhaseStart	2	63	3	foodImage.37	FOODEEG_Images\0359.jpg	NY	Right	Yes	1.01805220008828	0	458062	253
895.658203125	0	health	response	2	63	3	foodImage.37	FOODEEG_Images\0359.jpg	NY	Right	Yes	1.01805220008828	0	458578	235
896.69921875	1	health	trialStart	2	64	4	foodImage.98	FOODEEG_Images\0906.jpg	NY	Left	No	1.2692791998852	0	459111	251
897.736328125	2	health	foodImageDisplay	2	64	4	foodImage.98	FOODEEG_Images\0906.jpg	NY	Left	No	1.2692791998852	0	459642	252
899.798828125	1.2692791998852	health	choicePhaseStart	2	64	4	foodImage.98	FOODEEG_Images\0906.jpg	NY	Left	No	1.2692791998852	0	460698	253
901.05859375	0	health	response	2	64	4	foodImage.98	FOODEEG_Images\0906.jpg	NY	Left	No	1.2692791998852	0	461343	234
902.09765625	1	health	trialStart	2	65	5	foodImage.51	FOODEEG_Images\0536.jpg	YN	Right	No	1.42800269997679	0	461875	251
903.142578125	2	health	foodImageDisplay	2	65	5	foodImage.51	FOODEEG_Images\0536.jpg	YN	Right	No	1.42800269997679	0	462410	252
905.205078125	1.42800269997679	health	choicePhaseStart	2	65	5	foodImage.51	FOODEEG_Images\0536.jpg	YN	Right	No	1.42800269997679	0	463466	253
906.626953125	0	health	response	2	65	5	foodImage.51	FOODEEG_Images\0536.jpg	YN	Right	No	1.42800269997679	0	464194	235
907.66796875	1	decision	trialStart	2	66	6	foodImage.82	FOODEEG_Images\0805.jpg	NY	Left	No	1.45565690007061	0	464727	251
908.724609375	2	decision	foodImageDisplay	2	66	6	foodImage.82	FOODEEG_Images\0805.jpg	NY	Left	No	1.45565690007061	0	465268	252
910.7890625	1.45565690007061	decision	choicePhaseStart	2	66	6	foodImage.82	FOODEEG_Images\0805.jpg	NY	Left	No	1.45565690007061	0	466325	253
912.234375	0	decision	response	2	66	6	foodImage.82	FOODEEG_Images\0805.jpg	NY	Left	No	1.45565690007061	0	467065	234
913.279296875	1	health	trialStart	2	67	7	foodImage.116	FOODEEG_Images\0924.jpg	NY	Left	No	1.24515930004418	0	467600	251
914.318359375	2	health	foodImageDisplay	2	67	7	foodImage.116	FOODEEG_Images\0924.jpg	NY	Left	No	1.24515930004418	0	468132	252
916.380859375	1.24515930004418	health	choicePhaseStart	2	67	7	foodImage.116	FOODEEG_Images\0924.jpg	NY	Left	No	1.24515930004418	0	469188	253
917.6171875	0	health	response	2	67	7	foodImage.116	FOODEEG_Images\0924.jpg	NY	Left	No	1.24515930004418	0	469821	234
918.658203125	1	taste	trialStart	2	68	8	foodImage.38	FOODEEG_Images\0365.jpg	NY	Right	Yes	1.77439090004191	0	470354	251
919.6953125	2	taste	foodImageDisplay	2	68	8	foodImage.38	FOODEEG_Images\0365.jpg	NY	Right	Yes	1.77439090004191	0	470885	252
921.7578125	1.77439090004191	taste	choicePhaseStart	2	68	8	foodImage.38	FOODEEG_Images\0365.jpg	NY	Right	Yes	1.77439090004191	0	471941	253
923.521484375	0	taste	response	2	68	8	foodImage.38	FOODEEG_Images\0365.jpg	NY	Right	Yes	1.77439090004191	0	472844	235
924.564453125	1	decision	trialStart	2	69	9	foodImage.8	FOODEEG_Images\0136.jpg	NY	Left	No	1.01432590000331	0	473378	251
925.60546875	2	decision	foodImageDisplay	2	69	9	foodImage.8	FOODEEG_Images\0136.jpg	NY	Left	No	1.01432590000331	0	473911	252
927.66796875	1.01432590000331	decision	choicePhaseStart	2	69	9	foodImage.8	FOODEEG_Images\0136.jpg	NY	Left	No	1.01432590000331	0	474967	253
928.673828125	0	decision	response	2	69	9	foodImage.8	FOODEEG_Images\0136.jpg	NY	Left	No	1.01432590000331	0	475482	234
929.71484375	1	health	trialStart	2	70	10	foodImage.29	FOODEEG_Images\0278.jpg	NY	Right	Yes	1.45418410003185	0	476015	251
930.755859375	2	health	foodImageDisplay	2	70	10	foodImage.29	FOODEEG_Images\0278.jpg	NY	Right	Yes	1.45418410003185	0	476548	252
932.818359375	1.45418410003185	health	choicePhaseStart	2	70	10	foodImage.29	FOODEEG_Images\0278.jpg	NY	Right	Yes	1.45418410003185	0	477604	253
934.265625	0	health	response	2	70	10	foodImage.29	FOODEEG_Images\0278.jpg	NY	Right	Yes	1.45418410003185	0	478345	235
935.306640625	1	decision	trialStart	2	71	11	foodImage.13	FOODEEG_Images\0183.jpg	YN	Right	No	1.18988319998607	0	478878	251
936.349609375	2	decision	foodImageDisplay	2	71	11	foodImage.13	FOODEEG_Images\0183.jpg	YN	Right	No	1.18988319998607	0	479412	252
938.412109375	1.18988319998607	decision	choicePhaseStart	2	71	11	foodImage.13	FOODEEG_Images\0183.jpg	YN	Right	No	1.18988319998607	0	480468	253
939.59375	0	decision	response	2	71	11	foodImage.13	FOODEEG_Images\0183.jpg	YN	Right	No	1.18988319998607	0	481073	235
940.634765625	1	taste	trialStart	2	72	12	foodImage.6	FOODEEG_Images\0113.jpg	NY	Right	Yes	1.22898850007914	0	481606	251
941.677734375	2	taste	foodImageDisplay	2	72	12	foodImage.6	FOODEEG_Images\0113.jpg	NY	Right	Yes	1.22898850007914	0	482140	252
943.740234375	1.22898850007914	taste	choicePhaseStart	2	72	12	foodImage.6	FOODEEG_Images\0113.jpg	NY	Right	Yes	1.22898850007914	0	483196	253
944.9609375	0	taste	response	2	72	12	foodImage.6	FOODEEG_Images\0113.jpg	NY	Right	Yes	1.22898850007914	0	483821	235
946.00390625	1	health	trialStart	2	73	13	foodImage.75	FOODEEG_Images\0763.jpg	NY	Right	Yes	1.29717130004428	0	484355	251
947.05078125	2	health	foodImageDisplay	2	73	13	foodImage.75	FOODEEG_Images\0763.jpg	NY	Right	Yes	1.29717130004428	0	484891	252
949.11328125	1.29717130004428	health	choicePhaseStart	2	73	13	foodImage.75	FOODEEG_Images\0763.jpg	NY	Right	Yes	1.29717130004428	0	485947	253
950.400390625	0	health	response	2	73	13	foodImage.75	FOODEEG_Images\0763.jpg	NY	Right	Yes	1.29717130004428	0	486606	235
951.447265625	1	taste	trialStart	2	74	14	foodImage.17	FOODEEG_Images\0199.jpg	NY	Left	No	0.983613900141791	0	487142	251
952.490234375	2	taste	foodImageDisplay	2	74	14	foodImage.17	FOODEEG_Images\0199.jpg	NY	Left	No	0.983613900141791	0	487676	252
954.552734375	0.983613900141791	taste	choicePhaseStart	2	74	14	foodImage.17	FOODEEG_Images\0199.jpg	NY	Left	No	0.983613900141791	0	488732	253
955.52734375	0	taste	response	2	74	14	foodImage.17	FOODEEG_Images\0199.jpg	NY	Left	No	0.983613900141791	0	489231	234
956.5703125	1	decision	trialStart	2	75	15	foodImage.48	FOODEEG_Images\0494.jpg	NY	Left	No	1.22043290012516	0	489765	251
957.61328125	2	decision	foodImageDisplay	2	75	15	foodImage.48	FOODEEG_Images\0494.jpg	NY	Left	No	1.22043290012516	0	490299	252
959.67578125	1.22043290012516	decision	choicePhaseStart	2	75	15	foodImage.48	FOODEEG_Images\0494.jpg	NY	Left	No	1.22043290012516	0	491355	253
960.888671875	0	decision	response	2	75	15	foodImage.48	FOODEEG_Images\0494.jpg	NY	Left	No	1.22043290012516	0	491976	234
961.93359375	1	taste	trialStart	2	76	16	foodImage.63	FOODEEG_Images\0645.jpg	NY	Right	Yes	1.71605550008826	0	492511	251
962.974609375	2	taste	foodImageDisplay	2	76	16	foodImage.63	FOODEEG_Images\0645.jpg	NY	Right	Yes	1.71605550008826	0	493044	252
965.037109375	1.71605550008826	taste	choicePhaseStart	2	76	16	foodImage.63	FOODEEG_Images\0645.jpg	NY	Right	Yes	1.71605550008826	0	494100	253
966.744140625	0	taste	response	2	76	16	foodImage.63	FOODEEG_Images\0645.jpg	NY	Right	Yes	1.71605550008826	0	494974	235
967.787109375	1	health	trialStart	2	77	17	foodImage.6	FOODEEG_Images\0113.jpg	YN	Right	No	1.56947139999829	0	495508	251
968.826171875	2	health	foodImageDisplay	2	77	17	foodImage.6	FOODEEG_Images\0113.jpg	YN	Right	No	1.56947139999829	0	496040	252
970.888671875	1.56947139999829	health	choicePhaseStart	2	77	17	foodImage.6	FOODEEG_Images\0113.jpg	YN	Right	No	1.56947139999829	0	497096	253
972.447265625	0	health	response	2	77	17	foodImage.6	FOODEEG_Images\0113.jpg	YN	Right	No	1.56947139999829	0	497894	235
973.48828125	1	taste	trialStart	2	78	18	foodImage.72	FOODEEG_Images\0714.jpg	YN	Right	No	1.52786729997024	0	498427	251
974.529296875	2	taste	foodImageDisplay	2	78	18	foodImage.72	FOODEEG_Images\0714.jpg	YN	Right	No	1.52786729997024	0	498960	252
976.591796875	1.52786729997024	taste	choicePhaseStart	2	78	18	foodImage.72	FOODEEG_Images\0714.jpg	YN	Right	No	1.52786729997024	0	500016	253
978.111328125	0	taste	response	2	78	18	foodImage.72	FOODEEG_Images\0714.jpg	YN	Right	No	1.52786729997024	0	500794	235
979.15234375	1	decision	trialStart	2	79	19	foodImage.1	FOODEEG_Images\0004.jpg	YN	Left	Yes	1.201254399959	0	501327	251
980.193359375	2	decision	foodImageDisplay	2	79	19	foodImage.1	FOODEEG_Images\0004.jpg	YN	Left	Yes	1.201254399959	0	501860	252
982.255859375	1.201254399959	decision	choicePhaseStart	2	79	19	foodImage.1	FOODEEG_Images\0004.jpg	YN	Left	Yes	1.201254399959	0	502916	253
983.447265625	0	decision	response	2	79	19	foodImage.1	FOODEEG_Images\0004.jpg	YN	Left	Yes	1.201254399959	0	503526	234
984.48828125	1	decision	trialStart	2	80	20	foodImage.65	FOODEEG_Images\0658.jpg	NY	Left	No	1.50440320000052	0	504059	251
985.529296875	2	decision	foodImageDisplay	2	80	20	foodImage.65	FOODEEG_Images\0658.jpg	NY	Left	No	1.50440320000052	0	504592	252
987.591796875	1.50440320000052	decision	choicePhaseStart	2	80	20	foodImage.65	FOODEEG_Images\0658.jpg	NY	Left	No	1.50440320000052	0	505648	253
989.087890625	0	decision	response	2	80	20	foodImage.65	FOODEEG_Images\0658.jpg	NY	Left	No	1.50440320000052	0	506414	234
990.12890625	1	decision	trialStart	2	81	21	foodImage.21	FOODEEG_Images\0234.jpg	YN	Left	Yes	1.31381159997545	0	506947	251
991.197265625	2	decision	foodImageDisplay	2	81	21	foodImage.21	FOODEEG_Images\0234.jpg	YN	Left	Yes	1.31381159997545	0	507494	252
993.26171875	1.31381159997545	decision	choicePhaseStart	2	81	21	foodImage.21	FOODEEG_Images\0234.jpg	YN	Left	Yes	1.31381159997545	0	508551	253
994.56640625	0	decision	response	2	81	21	foodImage.21	FOODEEG_Images\0234.jpg	YN	Left	Yes	1.31381159997545	0	509219	234
995.609375	1	decision	trialStart	2	82	22	foodImage.117	FOODEEG_Images\0925.jpg	YN	Left	Yes	0.945397799834609	0	509753	251
996.6484375	2	decision	foodImageDisplay	2	82	22	foodImage.117	FOODEEG_Images\0925.jpg	YN	Left	Yes	0.945397799834609	0	510285	252
998.708984375	0.945397799834609	decision	choicePhaseStart	2	82	22	foodImage.117	FOODEEG_Images\0925.jpg	YN	Left	Yes	0.945397799834609	0	511340	253
999.646484375	0	decision	response	2	82	22	foodImage.117	FOODEEG_Images\0925.jpg	YN	Left	Yes	0.945397799834609	0	511820	234
1000.689453125	1	taste	trialStart	2	83	23	foodImage.57	FOODEEG_Images\0587.jpg	NY	Right	Yes	1.36567160021514	0	512354	251
1001.732421875	2	taste	foodImageDisplay	2	83	23	foodImage.57	FOODEEG_Images\0587.jpg	NY	Right	Yes	1.36567160021514	0	512888	252
1003.79296875	1.36567160021514	taste	choicePhaseStart	2	83	23	foodImage.57	FOODEEG_Images\0587.jpg	NY	Right	Yes	1.36567160021514	0	513943	253
1005.150390625	0	taste	response	2	83	23	foodImage.57	FOODEEG_Images\0587.jpg	NY	Right	Yes	1.36567160021514	0	514638	235
1006.19140625	1	decision	trialStart	2	84	24	foodImage.49	FOODEEG_Images\0515.jpg	YN	Left	Yes	0.911418400006369	0	515171	251
1007.232421875	2	decision	foodImageDisplay	2	84	24	foodImage.49	FOODEEG_Images\0515.jpg	YN	Left	Yes	0.911418400006369	0	515704	252
1009.294921875	0.911418400006369	decision	choicePhaseStart	2	84	24	foodImage.49	FOODEEG_Images\0515.jpg	YN	Left	Yes	0.911418400006369	0	516760	253
1010.197265625	0	decision	response	2	84	24	foodImage.49	FOODEEG_Images\0515.jpg	YN	Left	Yes	0.911418400006369	0	517222	234
1011.23828125	1	decision	trialStart	2	85	25	foodImage.57	FOODEEG_Images\0587.jpg	NY	Right	Yes	1.1125360999722	0	517755	251
1012.279296875	2	decision	foodImageDisplay	2	85	25	foodImage.57	FOODEEG_Images\0587.jpg	NY	Right	Yes	1.1125360999722	0	518288	252
1014.34375	1.1125360999722	decision	choicePhaseStart	2	85	25	foodImage.57	FOODEEG_Images\0587.jpg	NY	Right	Yes	1.1125360999722	0	519345	253
1015.4453125	0	decision	response	2	85	25	foodImage.57	FOODEEG_Images\0587.jpg	NY	Right	Yes	1.1125360999722	0	519909	235
1016.486328125	1	taste	trialStart	2	86	26	foodImage.93	FOODEEG_Images\0901.jpg	YN	Left	Yes	0.931253799935803	0	520442	251
1017.525390625	2	taste	foodImageDisplay	2	86	26	foodImage.93	FOODEEG_Images\0901.jpg	YN	Left	Yes	0.931253799935803	0	520974	252
1019.587890625	0.931253799935803	taste	choicePhaseStart	2	86	26	foodImage.93	FOODEEG_Images\0901.jpg	YN	Left	Yes	0.931253799935803	0	522030	253
1020.509765625	0	taste	response	2	86	26	foodImage.93	FOODEEG_Images\0901.jpg	YN	Left	Yes	0.931253799935803	0	522502	234
1021.556640625	1	taste	trialStart	2	87	27	foodImage.18	FOODEEG_Images\0202.jpg	YN	Left	Yes	0.992571400012821	0	523038	251
1022.615234375	2	taste	foodImageDisplay	2	87	27	foodImage.18	FOODEEG_Images\0202.jpg	YN	Left	Yes	0.992571400012821	0	523580	252
1024.677734375	0.992571400012821	taste	choicePhaseStart	2	87	27	foodImage.18	FOODEEG_Images\0202.jpg	YN	Left	Yes	0.992571400012821	0	524636	253
1025.662109375	0	taste	response	2	87	27	foodImage.18	FOODEEG_Images\0202.jpg	YN	Left	Yes	0.992571400012821	0	525140	234
1026.705078125	1	taste	trialStart	2	88	28	foodImage.119	FOODEEG_Images\0927.jpg	YN	Right	No	1.55032319994643	0	525674	251
1027.744140625	2	taste	foodImageDisplay	2	88	28	foodImage.119	FOODEEG_Images\0927.jpg	YN	Right	No	1.55032319994643	0	526206	252
1029.806640625	1.55032319994643	taste	choicePhaseStart	2	88	28	foodImage.119	FOODEEG_Images\0927.jpg	YN	Right	No	1.55032319994643	0	527262	253
1031.349609375	0	taste	response	2	88	28	foodImage.119	FOODEEG_Images\0927.jpg	YN	Right	No	1.55032319994643	0	528052	235
1032.392578125	1	decision	trialStart	2	89	29	foodImage.91	FOODEEG_Images\0896.jpg	NY	Left	No	1.08672509994358	0	528586	251
1033.44921875	2	decision	foodImageDisplay	2	89	29	foodImage.91	FOODEEG_Images\0896.jpg	NY	Left	No	1.08672509994358	0	529127	252
1035.51171875	1.08672509994358	decision	choicePhaseStart	2	89	29	foodImage.91	FOODEEG_Images\0896.jpg	NY	Left	No	1.08672509994358	0	530183	253
1036.587890625	0	decision	response	2	89	29	foodImage.91	FOODEEG_Images\0896.jpg	NY	Left	No	1.08672509994358	0	530734	234
1037.63671875	1	health	trialStart	2	90	30	foodImage.105	FOODEEG_Images\0913.jpg	NY	Right	Yes	2.05960260005668	0	531271	251
1038.67578125	2	health	foodImageDisplay	2	90	30	foodImage.105	FOODEEG_Images\0913.jpg	NY	Right	Yes	2.05960260005668	0	531803	252
1040.73828125	2.05960260005668	health	choicePhaseStart	2	90	30	foodImage.105	FOODEEG_Images\0913.jpg	NY	Right	Yes	2.05960260005668	0	532859	253
1042.7890625	0	health	response	2	90	30	foodImage.105	FOODEEG_Images\0913.jpg	NY	Right	Yes	2.05960260005668	0	533909	235
1043.833984375	1	health	trialStart	2	91	31	foodImage.88	FOODEEG_Images\0878.jpg	NY	Left	No	1.68732709996402	0	534444	251
1044.888671875	2	health	foodImageDisplay	2	91	31	foodImage.88	FOODEEG_Images\0878.jpg	NY	Left	No	1.68732709996402	0	534984	252
1046.951171875	1.68732709996402	health	choicePhaseStart	2	91	31	foodImage.88	FOODEEG_Images\0878.jpg	NY	Left	No	1.68732709996402	0	536040	253
1048.62890625	0	health	response	2	91	31	foodImage.88	FOODEEG_Images\0878.jpg	NY	Left	No	1.68732709996402	0	536899	234
1049.671875	1	taste	trialStart	2	92	32	foodImage.47	FOODEEG_Images\0488.jpg	YN	Left	Yes	2.02931150002405	0	537433	251
1050.71484375	2	taste	foodImageDisplay	2	92	32	foodImage.47	FOODEEG_Images\0488.jpg	YN	Left	Yes	2.02931150002405	0	537967	252
1052.77734375	2.02931150002405	taste	choicePhaseStart	2	92	32	foodImage.47	FOODEEG_Images\0488.jpg	YN	Left	Yes	2.02931150002405	0	539023	253
1054.796875	0	taste	response	2	92	32	foodImage.47	FOODEEG_Images\0488.jpg	YN	Left	Yes	2.02931150002405	0	540057	234
1055.84375	1	taste	trialStart	2	93	33	foodImage.74	FOODEEG_Images\0752.jpg	NY	Left	No	1.11107729980722	0	540593	251
1056.88671875	2	taste	foodImageDisplay	2	93	33	foodImage.74	FOODEEG_Images\0752.jpg	NY	Left	No	1.11107729980722	0	541127	252
1058.951171875	1.11107729980722	taste	choicePhaseStart	2	93	33	foodImage.74	FOODEEG_Images\0752.jpg	NY	Left	No	1.11107729980722	0	542184	253
1060.052734375	0	taste	response	2	93	33	foodImage.74	FOODEEG_Images\0752.jpg	NY	Left	No	1.11107729980722	0	542748	234
1061.09375	1	decision	trialStart	2	94	34	foodImage.113	FOODEEG_Images\0921.jpg	YN	Left	Yes	2.0503244001884	0	543281	251
1062.1328125	2	decision	foodImageDisplay	2	94	34	foodImage.113	FOODEEG_Images\0921.jpg	YN	Left	Yes	2.0503244001884	0	543813	252
1064.1953125	2.0503244001884	decision	choicePhaseStart	2	94	34	foodImage.113	FOODEEG_Images\0921.jpg	YN	Left	Yes	2.0503244001884	0	544869	253
1066.236328125	0	decision	response	2	94	34	foodImage.113	FOODEEG_Images\0921.jpg	YN	Left	Yes	2.0503244001884	0	545914	234
1067.279296875	1	taste	trialStart	2	95	35	foodImage.32	FOODEEG_Images\0319.jpg	NY	Right	Yes	1.9577084002085	0	546448	251
1068.3203125	2	taste	foodImageDisplay	2	95	35	foodImage.32	FOODEEG_Images\0319.jpg	NY	Right	Yes	1.9577084002085	0	546981	252
1070.3828125	1.9577084002085	taste	choicePhaseStart	2	95	35	foodImage.32	FOODEEG_Images\0319.jpg	NY	Right	Yes	1.9577084002085	0	548037	253
1072.33203125	0	taste	response	2	95	35	foodImage.32	FOODEEG_Images\0319.jpg	NY	Right	Yes	1.9577084002085	0	549035	235
1073.375	1	health	trialStart	2	96	36	foodImage.114	FOODEEG_Images\0922.jpg	NY	Right	Yes	1.37020089989528	0	549569	251
1074.412109375	2	health	foodImageDisplay	2	96	36	foodImage.114	FOODEEG_Images\0922.jpg	NY	Right	Yes	1.37020089989528	0	550100	252
1076.474609375	1.37020089989528	health	choicePhaseStart	2	96	36	foodImage.114	FOODEEG_Images\0922.jpg	NY	Right	Yes	1.37020089989528	0	551156	253
1077.8359375	0	health	response	2	96	36	foodImage.114	FOODEEG_Images\0922.jpg	NY	Right	Yes	1.37020089989528	0	551853	235
1078.87890625	1	decision	trialStart	2	97	37	foodImage.107	FOODEEG_Images\0915.jpg	YN	Left	Yes	1.39278049999848	0	552387	251
1079.91796875	2	decision	foodImageDisplay	2	97	37	foodImage.107	FOODEEG_Images\0915.jpg	YN	Left	Yes	1.39278049999848	0	552919	252
1081.98046875	1.39278049999848	decision	choicePhaseStart	2	97	37	foodImage.107	FOODEEG_Images\0915.jpg	YN	Left	Yes	1.39278049999848	0	553975	253
1083.36328125	0	decision	response	2	97	37	foodImage.107	FOODEEG_Images\0915.jpg	YN	Left	Yes	1.39278049999848	0	554683	234
1084.40625	1	decision	trialStart	2	98	38	foodImage.14	FOODEEG_Images\0188.jpg	YN	Right	No	3.22998149995692	0	555217	251
1085.462890625	2	decision	foodImageDisplay	2	98	38	foodImage.14	FOODEEG_Images\0188.jpg	YN	Right	No	3.22998149995692	0	555758	252
1087.5234375	3.22998149995692	decision	choicePhaseStart	2	98	38	foodImage.14	FOODEEG_Images\0188.jpg	YN	Right	No	3.22998149995692	0	556813	253
1090.748046875	0	decision	response	2	98	38	foodImage.14	FOODEEG_Images\0188.jpg	YN	Right	No	3.22998149995692	0	558464	235
1091.791015625	1	health	trialStart	2	99	39	foodImage.91	FOODEEG_Images\0896.jpg	NY	Right	Yes	1.53254729998298	0	558998	251
1092.84765625	2	health	foodImageDisplay	2	99	39	foodImage.91	FOODEEG_Images\0896.jpg	NY	Right	Yes	1.53254729998298	0	559539	252
1094.91015625	1.53254729998298	health	choicePhaseStart	2	99	39	foodImage.91	FOODEEG_Images\0896.jpg	NY	Right	Yes	1.53254729998298	0	560595	253
1096.43359375	0	health	response	2	99	39	foodImage.91	FOODEEG_Images\0896.jpg	NY	Right	Yes	1.53254729998298	0	561375	235
1097.478515625	1	health	trialStart	2	100	40	foodImage.87	FOODEEG_Images\0873.jpg	NY	Right	Yes	2.04777900013141	0	561910	251
1098.533203125	2	health	foodImageDisplay	2	100	40	foodImage.87	FOODEEG_Images\0873.jpg	NY	Right	Yes	2.04777900013141	0	562450	252
1100.59765625	2.04777900013141	health	choicePhaseStart	2	100	40	foodImage.87	FOODEEG_Images\0873.jpg	NY	Right	Yes	2.04777900013141	0	563507	253
1102.634765625	0	health	response	2	100	40	foodImage.87	FOODEEG_Images\0873.jpg	NY	Right	Yes	2.04777900013141	0	564550	235
1103.67578125	1	health	trialStart	2	101	41	foodImage.55	FOODEEG_Images\0567.jpg	YN	Left	Yes	1.09525240003131	0	565083	251
1104.734375	2	health	foodImageDisplay	2	101	41	foodImage.55	FOODEEG_Images\0567.jpg	YN	Left	Yes	1.09525240003131	0	565625	252
1106.796875	1.09525240003131	health	choicePhaseStart	2	101	41	foodImage.55	FOODEEG_Images\0567.jpg	YN	Left	Yes	1.09525240003131	0	566681	253
1107.8828125	0	health	response	2	101	41	foodImage.55	FOODEEG_Images\0567.jpg	YN	Left	Yes	1.09525240003131	0	567237	234
1108.927734375	1	health	trialStart	2	102	42	foodImage.62	FOODEEG_Images\0644.jpg	NY	Right	Yes	1.55788699979894	0	567772	251
1109.984375	2	health	foodImageDisplay	2	102	42	foodImage.62	FOODEEG_Images\0644.jpg	NY	Right	Yes	1.55788699979894	0	568313	252
1112.046875	1.55788699979894	health	choicePhaseStart	2	102	42	foodImage.62	FOODEEG_Images\0644.jpg	NY	Right	Yes	1.55788699979894	0	569369	253
1113.59375	0	health	response	2	102	42	foodImage.62	FOODEEG_Images\0644.jpg	NY	Right	Yes	1.55788699979894	0	570161	235
1114.63671875	1	taste	trialStart	2	103	43	foodImage.11	FOODEEG_Images\0180.jpg	NY	Right	Yes	1.24532050010748	0	570695	251
1115.6796875	2	taste	foodImageDisplay	2	103	43	foodImage.11	FOODEEG_Images\0180.jpg	NY	Right	Yes	1.24532050010748	0	571229	252
1117.7421875	1.24532050010748	taste	choicePhaseStart	2	103	43	foodImage.11	FOODEEG_Images\0180.jpg	NY	Right	Yes	1.24532050010748	0	572285	253
1118.978515625	0	taste	response	2	103	43	foodImage.11	FOODEEG_Images\0180.jpg	NY	Right	Yes	1.24532050010748	0	572918	235
1120.021484375	1	taste	trialStart	2	104	44	foodImage.40	FOODEEG_Images\0373.jpg	NY	Right	Yes	1.70608270005323	0	573452	251
1121.06640625	2	taste	foodImageDisplay	2	104	44	foodImage.40	FOODEEG_Images\0373.jpg	NY	Right	Yes	1.70608270005323	0	573987	252
1123.12890625	1.70608270005323	taste	choicePhaseStart	2	104	44	foodImage.40	FOODEEG_Images\0373.jpg	NY	Right	Yes	1.70608270005323	0	575043	253
1124.826171875	0	taste	response	2	104	44	foodImage.40	FOODEEG_Images\0373.jpg	NY	Right	Yes	1.70608270005323	0	575912	235
1125.873046875	1	health	trialStart	2	105	45	foodImage.110	FOODEEG_Images\0918.jpg	YN	Right	No	2.15867049992085	0	576448	251
1126.91015625	2	health	foodImageDisplay	2	105	45	foodImage.110	FOODEEG_Images\0918.jpg	YN	Right	No	2.15867049992085	0	576979	252
1128.97265625	2.15867049992085	health	choicePhaseStart	2	105	45	foodImage.110	FOODEEG_Images\0918.jpg	YN	Right	No	2.15867049992085	0	578035	253
1131.12109375	0	health	response	2	105	45	foodImage.110	FOODEEG_Images\0918.jpg	YN	Right	No	2.15867049992085	0	579135	235
1132.1640625	1	health	trialStart	2	106	46	foodImage.28	FOODEEG_Images\0273.jpg	YN	Left	Yes	1.12867320002988	0	579669	251
1133.220703125	2	health	foodImageDisplay	2	106	46	foodImage.28	FOODEEG_Images\0273.jpg	YN	Left	Yes	1.12867320002988	0	580210	252
1135.283203125	1.12867320002988	health	choicePhaseStart	2	106	46	foodImage.28	FOODEEG_Images\0273.jpg	YN	Left	Yes	1.12867320002988	0	581266	253
1136.400390625	0	health	response	2	106	46	foodImage.28	FOODEEG_Images\0273.jpg	YN	Left	Yes	1.12867320002988	0	581838	234
1137.4453125	1	taste	trialStart	2	107	47	foodImage.7	FOODEEG_Images\0116.jpg	YN	Right	No	1.06222090008669	0	582373	251
1138.486328125	2	taste	foodImageDisplay	2	107	47	foodImage.7	FOODEEG_Images\0116.jpg	YN	Right	No	1.06222090008669	0	582906	252
1140.548828125	1.06222090008669	taste	choicePhaseStart	2	107	47	foodImage.7	FOODEEG_Images\0116.jpg	YN	Right	No	1.06222090008669	0	583962	253
1141.6015625	0	taste	response	2	107	47	foodImage.7	FOODEEG_Images\0116.jpg	YN	Right	No	1.06222090008669	0	584501	235
1142.642578125	1	decision	trialStart	2	108	48	foodImage.34	FOODEEG_Images\0339.jpg	YN	Left	Yes	1.34196220012382	0	585034	251
1143.703125	2	decision	foodImageDisplay	2	108	48	foodImage.34	FOODEEG_Images\0339.jpg	YN	Left	Yes	1.34196220012382	0	585577	252
1145.765625	1.34196220012382	decision	choicePhaseStart	2	108	48	foodImage.34	FOODEEG_Images\0339.jpg	YN	Left	Yes	1.34196220012382	0	586633	253
1147.09765625	0	decision	response	2	108	48	foodImage.34	FOODEEG_Images\0339.jpg	YN	Left	Yes	1.34196220012382	0	587315	234
1148.13671875	1	decision	trialStart	2	109	49	foodImage.68	FOODEEG_Images\0685.jpg	YN	Left	Yes	1.76940839993767	0	587847	251
1149.2109375	2	decision	foodImageDisplay	2	109	49	foodImage.68	FOODEEG_Images\0685.jpg	YN	Left	Yes	1.76940839993767	0	588397	252
1151.2734375	1.76940839993767	decision	choicePhaseStart	2	109	49	foodImage.68	FOODEEG_Images\0685.jpg	YN	Left	Yes	1.76940839993767	0	589453	253
1153.033203125	0	decision	response	2	109	49	foodImage.68	FOODEEG_Images\0685.jpg	YN	Left	Yes	1.76940839993767	0	590354	234
1154.072265625	1	taste	trialStart	2	110	50	foodImage.49	FOODEEG_Images\0515.jpg	YN	Left	Yes	1.33640190004371	0	590886	251
1155.115234375	2	taste	foodImageDisplay	2	110	50	foodImage.49	FOODEEG_Images\0515.jpg	YN	Left	Yes	1.33640190004371	0	591420	252
1157.177734375	1.33640190004371	taste	choicePhaseStart	2	110	50	foodImage.49	FOODEEG_Images\0515.jpg	YN	Left	Yes	1.33640190004371	0	592476	253
1158.50390625	0	taste	response	2	110	50	foodImage.49	FOODEEG_Images\0515.jpg	YN	Left	Yes	1.33640190004371	0	593155	234
1159.544921875	1	decision	trialStart	2	111	51	foodImage.56	FOODEEG_Images\0586.jpg	YN	Right	No	1.30306859989651	0	593688	251
1160.587890625	2	decision	foodImageDisplay	2	111	51	foodImage.56	FOODEEG_Images\0586.jpg	YN	Right	No	1.30306859989651	0	594222	252
1162.650390625	1.30306859989651	decision	choicePhaseStart	2	111	51	foodImage.56	FOODEEG_Images\0586.jpg	YN	Right	No	1.30306859989651	0	595278	253
1163.943359375	0	decision	response	2	111	51	foodImage.56	FOODEEG_Images\0586.jpg	YN	Right	No	1.30306859989651	0	595940	235
1164.984375	1	decision	trialStart	2	112	52	foodImage.87	FOODEEG_Images\0873.jpg	YN	Left	Yes	1.46514549991116	0	596473	251
1166.041015625	2	decision	foodImageDisplay	2	112	52	foodImage.87	FOODEEG_Images\0873.jpg	YN	Left	Yes	1.46514549991116	0	597014	252
1168.103515625	1.46514549991116	decision	choicePhaseStart	2	112	52	foodImage.87	FOODEEG_Images\0873.jpg	YN	Left	Yes	1.46514549991116	0	598070	253
1169.55859375	0	decision	response	2	112	52	foodImage.87	FOODEEG_Images\0873.jpg	YN	Left	Yes	1.46514549991116	0	598815	234
1170.60546875	1	decision	trialStart	2	113	53	foodImage.90	FOODEEG_Images\0890.jpg	NY	Left	No	1.28267700015567	0	599351	251
1171.671875	2	decision	foodImageDisplay	2	113	53	foodImage.90	FOODEEG_Images\0890.jpg	NY	Left	No	1.28267700015567	0	599897	252
1173.734375	1.28267700015567	decision	choicePhaseStart	2	113	53	foodImage.90	FOODEEG_Images\0890.jpg	NY	Left	No	1.28267700015567	0	600953	253
1175.0078125	0	decision	response	2	113	53	foodImage.90	FOODEEG_Images\0890.jpg	NY	Left	No	1.28267700015567	0	601605	234
1176.048828125	1	decision	trialStart	2	114	54	foodImage.37	FOODEEG_Images\0359.jpg	YN	Left	Yes	1.06988859991543	0	602138	251
1177.087890625	2	decision	foodImageDisplay	2	114	54	foodImage.37	FOODEEG_Images\0359.jpg	YN	Left	Yes	1.06988859991543	0	602670	252
1179.15234375	1.06988859991543	decision	choicePhaseStart	2	114	54	foodImage.37	FOODEEG_Images\0359.jpg	YN	Left	Yes	1.06988859991543	0	603727	253
1180.21484375	0	decision	response	2	114	54	foodImage.37	FOODEEG_Images\0359.jpg	YN	Left	Yes	1.06988859991543	0	604271	234
1181.259765625	1	health	trialStart	2	115	55	foodImage.42	FOODEEG_Images\0438.jpg	YN	Left	Yes	1.63888779981062	0	604806	251
1182.34765625	2	health	foodImageDisplay	2	115	55	foodImage.42	FOODEEG_Images\0438.jpg	YN	Left	Yes	1.63888779981062	0	605363	252
1184.41015625	1.63888779981062	health	choicePhaseStart	2	115	55	foodImage.42	FOODEEG_Images\0438.jpg	YN	Left	Yes	1.63888779981062	0	606419	253
1186.0390625	0	health	response	2	115	55	foodImage.42	FOODEEG_Images\0438.jpg	YN	Left	Yes	1.63888779981062	0	607253	234
1187.080078125	1	health	trialStart	2	116	56	foodImage.66	FOODEEG_Images\0676.jpg	YN	Right	No	1.23343140003271	0	607786	251
1188.12109375	2	health	foodImageDisplay	2	116	56	foodImage.66	FOODEEG_Images\0676.jpg	YN	Right	No	1.23343140003271	0	608319	252
1190.18359375	1.23343140003271	health	choicePhaseStart	2	116	56	foodImage.66	FOODEEG_Images\0676.jpg	YN	Right	No	1.23343140003271	0	609375	253
1191.40625	0	health	response	2	116	56	foodImage.66	FOODEEG_Images\0676.jpg	YN	Right	No	1.23343140003271	0	610001	235
1192.44921875	1	decision	trialStart	2	117	57	foodImage.115	FOODEEG_Images\0923.jpg	NY	Left	No	1.89194049988873	0	610535	251
1193.4921875	2	decision	foodImageDisplay	2	117	57	foodImage.115	FOODEEG_Images\0923.jpg	NY	Left	No	1.89194049988873	0	611069	252
1195.5546875	1.89194049988873	decision	choicePhaseStart	2	117	57	foodImage.115	FOODEEG_Images\0923.jpg	NY	Left	No	1.89194049988873	0	612125	253
1197.439453125	0	decision	response	2	117	57	foodImage.115	FOODEEG_Images\0923.jpg	NY	Left	No	1.89194049988873	0	613090	234
1198.484375	1	decision	trialStart	2	118	58	foodImage.42	FOODEEG_Images\0438.jpg	YN	Right	No	2.35393310012296	0	613625	251
1199.57421875	2	decision	foodImageDisplay	2	118	58	foodImage.42	FOODEEG_Images\0438.jpg	YN	Right	No	2.35393310012296	0	614183	252
1201.638671875	2.35393310012296	decision	choicePhaseStart	2	118	58	foodImage.42	FOODEEG_Images\0438.jpg	YN	Right	No	2.35393310012296	0	615240	253
1203.982421875	0	decision	response	2	118	58	foodImage.42	FOODEEG_Images\0438.jpg	YN	Right	No	2.35393310012296	0	616440	235
1205.025390625	1	health	trialStart	2	119	59	foodImage.26	FOODEEG_Images\0262.jpg	NY	Right	Yes	1.17395279998891	0	616974	251
1206.068359375	2	health	foodImageDisplay	2	119	59	foodImage.26	FOODEEG_Images\0262.jpg	NY	Right	Yes	1.17395279998891	0	617508	252
1208.130859375	1.17395279998891	health	choicePhaseStart	2	119	59	foodImage.26	FOODEEG_Images\0262.jpg	NY	Right	Yes	1.17395279998891	0	618564	253
1209.294921875	0	health	response	2	119	59	foodImage.26	FOODEEG_Images\0262.jpg	NY	Right	Yes	1.17395279998891	0	619160	235
1210.333984375	1	taste	trialStart	2	120	60	foodImage.53	FOODEEG_Images\0547.jpg	YN	Left	Yes	1.64038420002908	0	619692	251
1211.392578125	2	taste	foodImageDisplay	2	120	60	foodImage.53	FOODEEG_Images\0547.jpg	YN	Left	Yes	1.64038420002908	0	620234	252
1213.455078125	1.64038420002908	taste	choicePhaseStart	2	120	60	foodImage.53	FOODEEG_Images\0547.jpg	YN	Left	Yes	1.64038420002908	0	621290	253
1215.0859375	0	taste	response	2	120	60	foodImage.53	FOODEEG_Images\0547.jpg	YN	Left	Yes	1.64038420002908	0	622125	234
1217.125	30.583984375	n/a	blockEnd	n/a	n/a	n/a	n/a	n/a	n/a	n/a	n/a	n/a	n/a	623169	254
1247.708984375	2	n/a	blockStart	3	n/a	n/a	n/a	n/a	n/a	n/a	n/a	n/a	n/a	638828	250
1249.7421875	1	health	trialStart	3	121	1	foodImage.89	FOODEEG_Images\0881.jpg	NY	Right	Yes	1.63146220007911	0	639869	251
1250.798828125	2	health	foodImageDisplay	3	121	1	foodImage.89	FOODEEG_Images\0881.jpg	NY	Right	Yes	1.63146220007911	0	640410	252
1252.861328125	1.63146220007911	health	choicePhaseStart	3	121	1	foodImage.89	FOODEEG_Images\0881.jpg	NY	Right	Yes	1.63146220007911	0	641466	253
1254.484375	0	health	response	3	121	1	foodImage.89	FOODEEG_Images\0881.jpg	NY	Right	Yes	1.63146220007911	0	642297	235
1255.525390625	1	decision	trialStart	3	122	2	foodImage.94	FOODEEG_Images\0902.jpg	NY	Left	No	1.90766880009323	0	642830	251
1256.564453125	2	decision	foodImageDisplay	3	122	2	foodImage.94	FOODEEG_Images\0902.jpg	NY	Left	No	1.90766880009323	0	643362	252
1258.626953125	1.90766880009323	decision	choicePhaseStart	3	122	2	foodImage.94	FOODEEG_Images\0902.jpg	NY	Left	No	1.90766880009323	0	644418	253
1260.5234375	0	decision	response	3	122	2	foodImage.94	FOODEEG_Images\0902.jpg	NY	Left	No	1.90766880009323	0	645389	234
1261.564453125	1	decision	trialStart	3	123	3	foodImage.31	FOODEEG_Images\0294.jpg	YN	Left	Yes	1.32859679986723	0	645922	251
1262.607421875	2	decision	foodImageDisplay	3	123	3	foodImage.31	FOODEEG_Images\0294.jpg	YN	Left	Yes	1.32859679986723	0	646456	252
1264.66796875	1.32859679986723	decision	choicePhaseStart	3	123	3	foodImage.31	FOODEEG_Images\0294.jpg	YN	Left	Yes	1.32859679986723	0	647511	253
1265.98828125	0	decision	response	3	123	3	foodImage.31	FOODEEG_Images\0294.jpg	YN	Left	Yes	1.32859679986723	0	648187	234
1267.03125	1	taste	trialStart	3	124	4	foodImage.110	FOODEEG_Images\0918.jpg	YN	Right	No	1.76764760003425	0	648721	251
1268.0703125	2	taste	foodImageDisplay	3	124	4	foodImage.110	FOODEEG_Images\0918.jpg	YN	Right	No	1.76764760003425	0	649253	252
1270.1328125	1.76764760003425	taste	choicePhaseStart	3	124	4	foodImage.110	FOODEEG_Images\0918.jpg	YN	Right	No	1.76764760003425	0	650309	253
1271.890625	0	taste	response	3	124	4	foodImage.110	FOODEEG_Images\0918.jpg	YN	Right	No	1.76764760003425	0	651209	235
1272.93359375	1	health	trialStart	3	125	5	foodImage.15	FOODEEG_Images\0189.jpg	YN	Right	No	1.43525830004364	0	651743	251
1273.9921875	2	health	foodImageDisplay	3	125	5	foodImage.15	FOODEEG_Images\0189.jpg	YN	Right	No	1.43525830004364	0	652285	252
1276.0546875	1.43525830004364	health	choicePhaseStart	3	125	5	foodImage.15	FOODEEG_Images\0189.jpg	YN	Right	No	1.43525830004364	0	653341	253
1277.484375	0	health	response	3	125	5	foodImage.15	FOODEEG_Images\0189.jpg	YN	Right	No	1.43525830004364	0	654073	235
1278.52734375	1	taste	trialStart	3	126	6	foodImage.85	FOODEEG_Images\0841.jpg	YN	Left	Yes	1.47819360019639	0	654607	251
1279.5859375	2	taste	foodImageDisplay	3	126	6	foodImage.85	FOODEEG_Images\0841.jpg	YN	Left	Yes	1.47819360019639	0	655149	252
1281.6484375	1.47819360019639	taste	choicePhaseStart	3	126	6	foodImage.85	FOODEEG_Images\0841.jpg	YN	Left	Yes	1.47819360019639	0	656205	253
1283.115234375	0	taste	response	3	126	6	foodImage.85	FOODEEG_Images\0841.jpg	YN	Left	Yes	1.47819360019639	0	656956	234
1284.158203125	1	health	trialStart	3	127	7	foodImage.18	FOODEEG_Images\0202.jpg	YN	Left	Yes	1.75873290002346	0	657490	251
1285.21484375	2	health	foodImageDisplay	3	127	7	foodImage.18	FOODEEG_Images\0202.jpg	YN	Left	Yes	1.75873290002346	0	658031	252
1287.27734375	1.75873290002346	health	choicePhaseStart	3	127	7	foodImage.18	FOODEEG_Images\0202.jpg	YN	Left	Yes	1.75873290002346	0	659087	253
1289.02734375	0	health	response	3	127	7	foodImage.18	FOODEEG_Images\0202.jpg	YN	Left	Yes	1.75873290002346	0	659983	234
1290.0703125	1	decision	trialStart	3	128	8	foodImage.23	FOODEEG_Images\0244.jpg	YN	Right	No	2.71027379995212	0	660517	251
1291.111328125	2	decision	foodImageDisplay	3	128	8	foodImage.23	FOODEEG_Images\0244.jpg	YN	Right	No	2.71027379995212	0	661050	252
1293.173828125	2.71027379995212	decision	choicePhaseStart	3	128	8	foodImage.23	FOODEEG_Images\0244.jpg	YN	Right	No	2.71027379995212	0	662106	253
1295.875	0	decision	response	3	128	8	foodImage.23	FOODEEG_Images\0244.jpg	YN	Right	No	2.71027379995212	0	663489	235
1296.916015625	1	decision	trialStart	3	129	9	foodImage.119	FOODEEG_Images\0927.jpg	NY	Left	No	0.957229600055143	0	664022	251
1297.951171875	2	decision	foodImageDisplay	3	129	9	foodImage.119	FOODEEG_Images\0927.jpg	NY	Left	No	0.957229600055143	0	664552	252
1300.013671875	0.957229600055143	decision	choicePhaseStart	3	129	9	foodImage.119	FOODEEG_Images\0927.jpg	NY	Left	No	0.957229600055143	0	665608	253
1300.962890625	0	decision	response	3	129	9	foodImage.119	FOODEEG_Images\0927.jpg	NY	Left	No	0.957229600055143	0	666094	234
1302.0078125	1	decision	trialStart	3	130	10	foodImage.24	FOODEEG_Images\0250.jpg	NY	Right	Yes	1.08446929999627	0	666629	251
1303.048828125	2	decision	foodImageDisplay	3	130	10	foodImage.24	FOODEEG_Images\0250.jpg	NY	Right	Yes	1.08446929999627	0	667162	252
1305.111328125	1.08446929999627	decision	choicePhaseStart	3	130	10	foodImage.24	FOODEEG_Images\0250.jpg	NY	Right	Yes	1.08446929999627	0	668218	253
1306.185546875	0	decision	response	3	130	10	foodImage.24	FOODEEG_Images\0250.jpg	NY	Right	Yes	1.08446929999627	0	668768	235
1307.228515625	1	taste	trialStart	3	131	11	foodImage.105	FOODEEG_Images\0913.jpg	YN	Left	Yes	1.40911809983663	0	669302	251
1308.267578125	2	taste	foodImageDisplay	3	131	11	foodImage.105	FOODEEG_Images\0913.jpg	YN	Left	Yes	1.40911809983663	0	669834	252
1310.330078125	1.40911809983663	taste	choicePhaseStart	3	131	11	foodImage.105	FOODEEG_Images\0913.jpg	YN	Left	Yes	1.40911809983663	0	670890	253
1311.73046875	0	taste	response	3	131	11	foodImage.105	FOODEEG_Images\0913.jpg	YN	Left	Yes	1.40911809983663	0	671607	234
1312.7734375	1	health	trialStart	3	132	12	foodImage.35	FOODEEG_Images\0350.jpg	YN	Right	No	1.27362790005282	0	672141	251
1313.8125	2	health	foodImageDisplay	3	132	12	foodImage.35	FOODEEG_Images\0350.jpg	YN	Right	No	1.27362790005282	0	672673	252
1315.875	1.27362790005282	health	choicePhaseStart	3	132	12	foodImage.35	FOODEEG_Images\0350.jpg	YN	Right	No	1.27362790005282	0	673729	253
1317.138671875	0	health	response	3	132	12	foodImage.35	FOODEEG_Images\0350.jpg	YN	Right	No	1.27362790005282	0	674376	235
1318.1796875	1	taste	trialStart	3	133	13	foodImage.114	FOODEEG_Images\0922.jpg	NY	Left	No	1.4105811000336	0	674909	251
1319.21875	2	taste	foodImageDisplay	3	133	13	foodImage.114	FOODEEG_Images\0922.jpg	NY	Left	No	1.4105811000336	0	675441	252
1321.28125	1.4105811000336	taste	choicePhaseStart	3	133	13	foodImage.114	FOODEEG_Images\0922.jpg	NY	Left	No	1.4105811000336	0	676497	253
1322.681640625	0	taste	response	3	133	13	foodImage.114	FOODEEG_Images\0922.jpg	NY	Left	No	1.4105811000336	0	677214	234
1323.728515625	1	decision	trialStart	3	134	14	foodImage.35	FOODEEG_Images\0350.jpg	YN	Left	Yes	1.63659249991179	0	677750	251
1324.767578125	2	decision	foodImageDisplay	3	134	14	foodImage.35	FOODEEG_Images\0350.jpg	YN	Left	Yes	1.63659249991179	0	678282	252
1326.830078125	1.63659249991179	decision	choicePhaseStart	3	134	14	foodImage.35	FOODEEG_Images\0350.jpg	YN	Left	Yes	1.63659249991179	0	679338	253
1328.45703125	0	decision	response	3	134	14	foodImage.35	FOODEEG_Images\0350.jpg	YN	Left	Yes	1.63659249991179	0	680171	234
1329.5	1	taste	trialStart	3	135	15	foodImage.65	FOODEEG_Images\0658.jpg	YN	Right	No	2.66207249998115	0	680705	251
1330.54296875	2	taste	foodImageDisplay	3	135	15	foodImage.65	FOODEEG_Images\0658.jpg	YN	Right	No	2.66207249998115	0	681239	252
1332.60546875	2.66207249998115	taste	choicePhaseStart	3	135	15	foodImage.65	FOODEEG_Images\0658.jpg	YN	Right	No	2.66207249998115	0	682295	253
1335.2578125	0	taste	response	3	135	15	foodImage.65	FOODEEG_Images\0658.jpg	YN	Right	No	2.66207249998115	0	683653	235
1336.298828125	1	health	trialStart	3	136	16	foodImage.1	FOODEEG_Images\0004.jpg	NY	Left	No	1.3135428999085	0	684186	251
1337.33984375	2	health	foodImageDisplay	3	136	16	foodImage.1	FOODEEG_Images\0004.jpg	NY	Left	No	1.3135428999085	0	684719	252
1339.400390625	1.3135428999085	health	choicePhaseStart	3	136	16	foodImage.1	FOODEEG_Images\0004.jpg	NY	Left	No	1.3135428999085	0	685774	253
1340.705078125	0	health	response	3	136	16	foodImage.1	FOODEEG_Images\0004.jpg	NY	Left	No	1.3135428999085	0	686442	234
1341.748046875	1	health	trialStart	3	137	17	foodImage.84	FOODEEG_Images\0830.jpg	YN	Left	Yes	0.971012900117785	0	686976	251
1342.806640625	2	health	foodImageDisplay	3	137	17	foodImage.84	FOODEEG_Images\0830.jpg	YN	Left	Yes	0.971012900117785	0	687518	252
1344.869140625	0.971012900117785	health	choicePhaseStart	3	137	17	foodImage.84	FOODEEG_Images\0830.jpg	YN	Left	Yes	0.971012900117785	0	688574	253
1345.833984375	0	health	response	3	137	17	foodImage.84	FOODEEG_Images\0830.jpg	YN	Left	Yes	0.971012900117785	0	689068	234
1346.876953125	1	taste	trialStart	3	138	18	foodImage.24	FOODEEG_Images\0250.jpg	YN	Left	Yes	1.79576630005613	0	689602	251
1347.919921875	2	taste	foodImageDisplay	3	138	18	foodImage.24	FOODEEG_Images\0250.jpg	YN	Left	Yes	1.79576630005613	0	690136	252
1349.982421875	1.79576630005613	taste	choicePhaseStart	3	138	18	foodImage.24	FOODEEG_Images\0250.jpg	YN	Left	Yes	1.79576630005613	0	691192	253
1351.76953125	0	taste	response	3	138	18	foodImage.24	FOODEEG_Images\0250.jpg	YN	Left	Yes	1.79576630005613	0	692107	234
1352.810546875	1	health	trialStart	3	139	19	foodImage.8	FOODEEG_Images\0136.jpg	NY	Left	No	1.34337139991112	0	692640	251
1353.8515625	2	health	foodImageDisplay	3	139	19	foodImage.8	FOODEEG_Images\0136.jpg	NY	Left	No	1.34337139991112	0	693173	252
1355.9140625	1.34337139991112	health	choicePhaseStart	3	139	19	foodImage.8	FOODEEG_Images\0136.jpg	NY	Left	No	1.34337139991112	0	694229	253
1357.248046875	0	health	response	3	139	19	foodImage.8	FOODEEG_Images\0136.jpg	NY	Left	No	1.34337139991112	0	694912	234
1358.291015625	1	health	trialStart	3	140	20	foodImage.19	FOODEEG_Images\0225.jpg	NY	Right	Yes	1.3404576999601	0	695446	251
1359.333984375	2	health	foodImageDisplay	3	140	20	foodImage.19	FOODEEG_Images\0225.jpg	NY	Right	Yes	1.3404576999601	0	695980	252
1361.396484375	1.3404576999601	health	choicePhaseStart	3	140	20	foodImage.19	FOODEEG_Images\0225.jpg	NY	Right	Yes	1.3404576999601	0	697036	253
1362.728515625	0	health	response	3	140	20	foodImage.19	FOODEEG_Images\0225.jpg	NY	Right	Yes	1.3404576999601	0	697718	235
1363.771484375	1	decision	trialStart	3	141	21	foodImage.96	FOODEEG_Images\0904.jpg	YN	Right	No	2.15846810000949	0	698252	251
1364.810546875	2	decision	foodImageDisplay	3	141	21	foodImage.96	FOODEEG_Images\0904.jpg	YN	Right	No	2.15846810000949	0	698784	252
1366.873046875	2.15846810000949	decision	choicePhaseStart	3	141	21	foodImage.96	FOODEEG_Images\0904.jpg	YN	Right	No	2.15846810000949	0	699840	253
1369.025390625	0	decision	response	3	141	21	foodImage.96	FOODEEG_Images\0904.jpg	YN	Right	No	2.15846810000949	0	700942	235
1370.068359375	1	health	trialStart	3	142	22	foodImage.108	FOODEEG_Images\0916.jpg	YN	Right	No	2.2487903998699	0	701476	251
1371.10546875	2	health	foodImageDisplay	3	142	22	foodImage.108	FOODEEG_Images\0916.jpg	YN	Right	No	2.2487903998699	0	702007	252
1373.16796875	2.2487903998699	health	choicePhaseStart	3	142	22	foodImage.108	FOODEEG_Images\0916.jpg	YN	Right	No	2.2487903998699	0	703063	253
1375.408203125	0	health	response	3	142	22	foodImage.108	FOODEEG_Images\0916.jpg	YN	Right	No	2.2487903998699	0	704210	235
1376.44921875	1	health	trialStart	3	143	23	foodImage.9	FOODEEG_Images\0138.jpg	YN	Right	No	3.14493859978393	0	704743	251
1377.505859375	2	health	foodImageDisplay	3	143	23	foodImage.9	FOODEEG_Images\0138.jpg	YN	Right	No	3.14493859978393	0	705284	252
1379.57421875	3.14493859978393	health	choicePhaseStart	3	143	23	foodImage.9	FOODEEG_Images\0138.jpg	YN	Right	No	3.14493859978393	0	706343	253
1382.7109375	0	health	response	3	143	23	foodImage.9	FOODEEG_Images\0138.jpg	YN	Right	No	3.14493859978393	0	707949	235
1383.75390625	1	health	trialStart	3	144	24	foodImage.99	FOODEEG_Images\0907.jpg	NY	Left	No	1.81948000006378	0	708483	251
1384.798828125	2	health	foodImageDisplay	3	144	24	foodImage.99	FOODEEG_Images\0907.jpg	NY	Left	No	1.81948000006378	0	709018	252
1386.861328125	1.81948000006378	health	choicePhaseStart	3	144	24	foodImage.99	FOODEEG_Images\0907.jpg	NY	Left	No	1.81948000006378	0	710074	253
1388.671875	0	health	response	3	144	24	foodImage.99	FOODEEG_Images\0907.jpg	NY	Left	No	1.81948000006378	0	711001	234
1389.71875	1	health	trialStart	3	145	25	foodImage.54	FOODEEG_Images\0560.jpg	NY	Right	Yes	3.60478130006231	0	711537	251
1390.787109375	2	health	foodImageDisplay	3	145	25	foodImage.54	FOODEEG_Images\0560.jpg	NY	Right	Yes	3.60478130006231	0	712084	252
1392.849609375	3.60478130006231	health	choicePhaseStart	3	145	25	foodImage.54	FOODEEG_Images\0560.jpg	NY	Right	Yes	3.60478130006231	0	713140	253
1396.447265625	0	health	response	3	145	25	foodImage.54	FOODEEG_Images\0560.jpg	NY	Right	Yes	3.60478130006231	0	714982	235
1397.48828125	1	taste	trialStart	3	146	26	foodImage.25	FOODEEG_Images\0261.jpg	YN	Right	No	1.99315149988979	0	715515	251
1398.52734375	2	taste	foodImageDisplay	3	146	26	foodImage.25	FOODEEG_Images\0261.jpg	YN	Right	No	1.99315149988979	0	716047	252
1400.58984375	1.99315149988979	taste	choicePhaseStart	3	146	26	foodImage.25	FOODEEG_Images\0261.jpg	YN	Right	No	1.99315149988979	0	717103	253
1402.57421875	0	taste	response	3	146	26	foodImage.25	FOODEEG_Images\0261.jpg	YN	Right	No	1.99315149988979	0	718119	235
1403.619140625	1	decision	trialStart	3	147	27	foodImage.12	FOODEEG_Images\0181.jpg	YN	Right	No	1.75359539990313	0	718654	251
1404.662109375	2	decision	foodImageDisplay	3	147	27	foodImage.12	FOODEEG_Images\0181.jpg	YN	Right	No	1.75359539990313	0	719188	252
1406.724609375	1.75359539990313	decision	choicePhaseStart	3	147	27	foodImage.12	FOODEEG_Images\0181.jpg	YN	Right	No	1.75359539990313	0	720244	253
1408.470703125	0	decision	response	3	147	27	foodImage.12	FOODEEG_Images\0181.jpg	YN	Right	No	1.75359539990313	0	721138	235
1409.51171875	1	decision	trialStart	3	148	28	foodImage.44	FOODEEG_Images\0459.jpg	YN	Left	Yes	1.10184730007313	0	721671	251
1410.556640625	2	decision	foodImageDisplay	3	148	28	foodImage.44	FOODEEG_Images\0459.jpg	YN	Left	Yes	1.10184730007313	0	722206	252
1412.619140625	1.10184730007313	decision	choicePhaseStart	3	148	28	foodImage.44	FOODEEG_Images\0459.jpg	YN	Left	Yes	1.10184730007313	0	723262	253
1413.7109375	0	decision	response	3	148	28	foodImage.44	FOODEEG_Images\0459.jpg	YN	Left	Yes	1.10184730007313	0	723821	234
1414.75390625	1	decision	trialStart	3	149	29	foodImage.22	FOODEEG_Images\0236.jpg	YN	Left	Yes	1.26402649981901	0	724355	251
1415.79296875	2	decision	foodImageDisplay	3	149	29	foodImage.22	FOODEEG_Images\0236.jpg	YN	Left	Yes	1.26402649981901	0	724887	252
1417.85546875	1.26402649981901	decision	choicePhaseStart	3	149	29	foodImage.22	FOODEEG_Images\0236.jpg	YN	Left	Yes	1.26402649981901	0	725943	253
1419.109375	0	decision	response	3	149	29	foodImage.22	FOODEEG_Images\0236.jpg	YN	Left	Yes	1.26402649981901	0	726585	234
1420.154296875	1	health	trialStart	3	150	30	foodImage.104	FOODEEG_Images\0912.jpg	YN	Right	No	1.17700239992701	0	727120	251
1421.19140625	2	health	foodImageDisplay	3	150	30	foodImage.104	FOODEEG_Images\0912.jpg	YN	Right	No	1.17700239992701	0	727651	252
1423.25390625	1.17700239992701	health	choicePhaseStart	3	150	30	foodImage.104	FOODEEG_Images\0912.jpg	YN	Right	No	1.17700239992701	0	728707	253
1424.421875	0	health	response	3	150	30	foodImage.104	FOODEEG_Images\0912.jpg	YN	Right	No	1.17700239992701	0	729305	235
1425.466796875	1	decision	trialStart	3	151	31	foodImage.99	FOODEEG_Images\0907.jpg	YN	Right	No	1.51996849989519	0	729840	251
1426.50390625	2	decision	foodImageDisplay	3	151	31	foodImage.99	FOODEEG_Images\0907.jpg	YN	Right	No	1.51996849989519	0	730371	252
1428.56640625	1.51996849989519	decision	choicePhaseStart	3	151	31	foodImage.99	FOODEEG_Images\0907.jpg	YN	Right	No	1.51996849989519	0	731427	253
1430.078125	0	decision	response	3	151	31	foodImage.99	FOODEEG_Images\0907.jpg	YN	Right	No	1.51996849989519	0	732201	235
1431.12109375	1	taste	trialStart	3	152	32	foodImage.20	FOODEEG_Images\0226.jpg	YN	Right	No	1.36602309998125	0	732735	251
1432.162109375	2	taste	foodImageDisplay	3	152	32	foodImage.20	FOODEEG_Images\0226.jpg	YN	Right	No	1.36602309998125	0	733268	252
1434.224609375	1.36602309998125	taste	choicePhaseStart	3	152	32	foodImage.20	FOODEEG_Images\0226.jpg	YN	Right	No	1.36602309998125	0	734324	253
1435.58203125	0	taste	response	3	152	32	foodImage.20	FOODEEG_Images\0226.jpg	YN	Right	No	1.36602309998125	0	735019	235
1436.623046875	1	taste	trialStart	3	153	33	foodImage.62	FOODEEG_Images\0644.jpg	NY	Left	No	1.40062090009451	0	735552	251
1437.6796875	2	taste	foodImageDisplay	3	153	33	foodImage.62	FOODEEG_Images\0644.jpg	NY	Left	No	1.40062090009451	0	736093	252
1439.7421875	1.40062090009451	taste	choicePhaseStart	3	153	33	foodImage.62	FOODEEG_Images\0644.jpg	NY	Left	No	1.40062090009451	0	737149	253
1441.1328125	0	taste	response	3	153	33	foodImage.62	FOODEEG_Images\0644.jpg	NY	Left	No	1.40062090009451	0	737861	234
1442.17578125	1	decision	trialStart	3	154	34	foodImage.101	FOODEEG_Images\0909.jpg	YN	Right	No	1.40673390007578	0	738395	251
1443.21484375	2	decision	foodImageDisplay	3	154	34	foodImage.101	FOODEEG_Images\0909.jpg	YN	Right	No	1.40673390007578	0	738927	252
1445.27734375	1.40673390007578	decision	choicePhaseStart	3	154	34	foodImage.101	FOODEEG_Images\0909.jpg	YN	Right	No	1.40673390007578	0	739983	253
1446.677734375	0	decision	response	3	154	34	foodImage.101	FOODEEG_Images\0909.jpg	YN	Right	No	1.40673390007578	0	740700	235
1447.716796875	1	decision	trialStart	3	155	35	foodImage.43	FOODEEG_Images\0445.jpg	YN	Left	Yes	2.01991599984467	0	741232	251
1448.771484375	2	decision	foodImageDisplay	3	155	35	foodImage.43	FOODEEG_Images\0445.jpg	YN	Left	Yes	2.01991599984467	0	741772	252
1450.833984375	2.01991599984467	decision	choicePhaseStart	3	155	35	foodImage.43	FOODEEG_Images\0445.jpg	YN	Left	Yes	2.01991599984467	0	742828	253
1452.845703125	0	decision	response	3	155	35	foodImage.43	FOODEEG_Images\0445.jpg	YN	Left	Yes	2.01991599984467	0	743858	234
1453.88671875	1	decision	trialStart	3	156	36	foodImage.78	FOODEEG_Images\0787.jpg	NY	Right	Yes	2.92609940003604	0	744391	251
1454.9296875	2	decision	foodImageDisplay	3	156	36	foodImage.78	FOODEEG_Images\0787.jpg	NY	Right	Yes	2.92609940003604	0	744925	252
1456.9921875	2.92609940003604	decision	choicePhaseStart	3	156	36	foodImage.78	FOODEEG_Images\0787.jpg	NY	Right	Yes	2.92609940003604	0	745981	253
1459.908203125	0	decision	response	3	156	36	foodImage.78	FOODEEG_Images\0787.jpg	NY	Right	Yes	2.92609940003604	0	747474	235
1460.955078125	1	health	trialStart	3	157	37	foodImage.57	FOODEEG_Images\0587.jpg	YN	Right	No	2.41105360002257	0	748010	251
1461.99609375	2	health	foodImageDisplay	3	157	37	foodImage.57	FOODEEG_Images\0587.jpg	YN	Right	No	2.41105360002257	0	748543	252
1464.05859375	2.41105360002257	health	choicePhaseStart	3	157	37	foodImage.57	FOODEEG_Images\0587.jpg	YN	Right	No	2.41105360002257	0	749599	253
1466.4609375	0	health	response	3	157	37	foodImage.57	FOODEEG_Images\0587.jpg	YN	Right	No	2.41105360002257	0	750829	235
1467.505859375	1	decision	trialStart	3	158	38	foodImage.100	FOODEEG_Images\0908.jpg	YN	Right	No	1.21802520006895	0	751364	251
1468.544921875	2	decision	foodImageDisplay	3	158	38	foodImage.100	FOODEEG_Images\0908.jpg	YN	Right	No	1.21802520006895	0	751896	252
1470.611328125	1.21802520006895	decision	choicePhaseStart	3	158	38	foodImage.100	FOODEEG_Images\0908.jpg	YN	Right	No	1.21802520006895	0	752954	253
1471.8203125	0	decision	response	3	158	38	foodImage.100	FOODEEG_Images\0908.jpg	YN	Right	No	1.21802520006895	0	753573	235
1472.861328125	1	decision	trialStart	3	159	39	foodImage.60	FOODEEG_Images\0614.jpg	YN	Left	Yes	1.80706520006061	0	754106	251
1473.92578125	2	decision	foodImageDisplay	3	159	39	foodImage.60	FOODEEG_Images\0614.jpg	YN	Left	Yes	1.80706520006061	0	754651	252
1475.990234375	1.80706520006061	decision	choicePhaseStart	3	159	39	foodImage.60	FOODEEG_Images\0614.jpg	YN	Left	Yes	1.80706520006061	0	755708	253
1477.787109375	0	decision	response	3	159	39	foodImage.60	FOODEEG_Images\0614.jpg	YN	Left	Yes	1.80706520006061	0	756628	234
1478.830078125	1	health	trialStart	3	160	40	foodImage.53	FOODEEG_Images\0547.jpg	NY	Left	No	1.79110909998417	0	757162	251
1479.884765625	2	health	foodImageDisplay	3	160	40	foodImage.53	FOODEEG_Images\0547.jpg	NY	Left	No	1.79110909998417	0	757702	252
1481.947265625	1.79110909998417	health	choicePhaseStart	3	160	40	foodImage.53	FOODEEG_Images\0547.jpg	NY	Left	No	1.79110909998417	0	758758	253
1483.732421875	0	health	response	3	160	40	foodImage.53	FOODEEG_Images\0547.jpg	NY	Left	No	1.79110909998417	0	759672	234
1484.77734375	1	health	trialStart	3	161	41	foodImage.56	FOODEEG_Images\0586.jpg	YN	Left	Yes	1.77811690000817	0	760207	251
1485.8203125	2	health	foodImageDisplay	3	161	41	foodImage.56	FOODEEG_Images\0586.jpg	YN	Left	Yes	1.77811690000817	0	760741	252
1487.8828125	1.77811690000817	health	choicePhaseStart	3	161	41	foodImage.56	FOODEEG_Images\0586.jpg	YN	Left	Yes	1.77811690000817	0	761797	253
1489.650390625	0	health	response	3	161	41	foodImage.56	FOODEEG_Images\0586.jpg	YN	Left	Yes	1.77811690000817	0	762702	234
1490.6953125	1	taste	trialStart	3	162	42	foodImage.21	FOODEEG_Images\0234.jpg	NY	Right	Yes	1.98948369990103	0	763237	251
1491.751953125	2	taste	foodImageDisplay	3	162	42	foodImage.21	FOODEEG_Images\0234.jpg	NY	Right	Yes	1.98948369990103	0	763778	252
1493.814453125	1.98948369990103	taste	choicePhaseStart	3	162	42	foodImage.21	FOODEEG_Images\0234.jpg	NY	Right	Yes	1.98948369990103	0	764834	253
1495.794921875	0	taste	response	3	162	42	foodImage.21	FOODEEG_Images\0234.jpg	NY	Right	Yes	1.98948369990103	0	765848	235
1496.837890625	1	taste	trialStart	3	163	43	foodImage.82	FOODEEG_Images\0805.jpg	YN	Right	No	1.45788459992036	0	766382	251
1497.892578125	2	taste	foodImageDisplay	3	163	43	foodImage.82	FOODEEG_Images\0805.jpg	YN	Right	No	1.45788459992036	0	766922	252
1499.955078125	1.45788459992036	taste	choicePhaseStart	3	163	43	foodImage.82	FOODEEG_Images\0805.jpg	YN	Right	No	1.45788459992036	0	767978	253
1501.40234375	0	taste	response	3	163	43	foodImage.82	FOODEEG_Images\0805.jpg	YN	Right	No	1.45788459992036	0	768719	235
1502.4453125	1	health	trialStart	3	164	44	foodImage.12	FOODEEG_Images\0181.jpg	NY	Right	Yes	2.39774939999916	0	769253	251
1503.48828125	2	health	foodImageDisplay	3	164	44	foodImage.12	FOODEEG_Images\0181.jpg	NY	Right	Yes	2.39774939999916	0	769787	252
1505.55078125	2.39774939999916	health	choicePhaseStart	3	164	44	foodImage.12	FOODEEG_Images\0181.jpg	NY	Right	Yes	2.39774939999916	0	770843	253
1507.939453125	0	health	response	3	164	44	foodImage.12	FOODEEG_Images\0181.jpg	NY	Right	Yes	2.39774939999916	0	772066	235
1508.978515625	1	taste	trialStart	3	165	45	foodImage.103	FOODEEG_Images\0911.jpg	NY	Left	No	2.14005050016567	0	772598	251
1510.015625	2	taste	foodImageDisplay	3	165	45	foodImage.103	FOODEEG_Images\0911.jpg	NY	Left	No	2.14005050016567	0	773129	252
1512.080078125	2.14005050016567	taste	choicePhaseStart	3	165	45	foodImage.103	FOODEEG_Images\0911.jpg	NY	Left	No	2.14005050016567	0	774186	253
1514.2109375	0	taste	response	3	165	45	foodImage.103	FOODEEG_Images\0911.jpg	NY	Left	No	2.14005050016567	0	775277	234
1515.25390625	1	decision	trialStart	3	166	46	foodImage.19	FOODEEG_Images\0225.jpg	NY	Left	No	1.32497690012679	0	775811	251
1516.294921875	2	decision	foodImageDisplay	3	166	46	foodImage.19	FOODEEG_Images\0225.jpg	NY	Left	No	1.32497690012679	0	776344	252
1518.357421875	1.32497690012679	decision	choicePhaseStart	3	166	46	foodImage.19	FOODEEG_Images\0225.jpg	NY	Left	No	1.32497690012679	0	777400	253
1519.673828125	0	decision	response	3	166	46	foodImage.19	FOODEEG_Images\0225.jpg	NY	Left	No	1.32497690012679	0	778074	234
1520.720703125	1	decision	trialStart	3	167	47	foodImage.3	FOODEEG_Images\0046.jpg	YN	Left	Yes	1.54470469988883	0	778610	251
1521.763671875	2	decision	foodImageDisplay	3	167	47	foodImage.3	FOODEEG_Images\0046.jpg	YN	Left	Yes	1.54470469988883	0	779144	252
1523.826171875	1.54470469988883	decision	choicePhaseStart	3	167	47	foodImage.3	FOODEEG_Images\0046.jpg	YN	Left	Yes	1.54470469988883	0	780200	253
1525.361328125	0	decision	response	3	167	47	foodImage.3	FOODEEG_Images\0046.jpg	YN	Left	Yes	1.54470469988883	0	780986	234
1526.404296875	1	decision	trialStart	3	168	48	foodImage.55	FOODEEG_Images\0567.jpg	NY	Left	No	2.36044189985842	0	781520	251
1527.4609375	2	decision	foodImageDisplay	3	168	48	foodImage.55	FOODEEG_Images\0567.jpg	NY	Left	No	2.36044189985842	0	782061	252
1529.5234375	2.36044189985842	decision	choicePhaseStart	3	168	48	foodImage.55	FOODEEG_Images\0567.jpg	NY	Left	No	2.36044189985842	0	783117	253
1531.873046875	0	decision	response	3	168	48	foodImage.55	FOODEEG_Images\0567.jpg	NY	Left	No	2.36044189985842	0	784320	234
1532.916015625	1	health	trialStart	3	169	49	foodImage.47	FOODEEG_Images\0488.jpg	NY	Left	No	2.08414419996552	0	784854	251
1533.958984375	2	health	foodImageDisplay	3	169	49	foodImage.47	FOODEEG_Images\0488.jpg	NY	Left	No	2.08414419996552	0	785388	252
1536.021484375	2.08414419996552	health	choicePhaseStart	3	169	49	foodImage.47	FOODEEG_Images\0488.jpg	NY	Left	No	2.08414419996552	0	786444	253
1538.09765625	0	health	response	3	169	49	foodImage.47	FOODEEG_Images\0488.jpg	NY	Left	No	2.08414419996552	0	787507	234
1539.138671875	1	taste	trialStart	3	170	50	foodImage.46	FOODEEG_Images\0479.jpg	NY	Left	No	1.24680990003981	0	788040	251
1540.1953125	2	taste	foodImageDisplay	3	170	50	foodImage.46	FOODEEG_Images\0479.jpg	NY	Left	No	1.24680990003981	0	788581	252
1542.259765625	1.24680990003981	taste	choicePhaseStart	3	170	50	foodImage.46	FOODEEG_Images\0479.jpg	NY	Left	No	1.24680990003981	0	789638	253
1543.49609375	0	taste	response	3	170	50	foodImage.46	FOODEEG_Images\0479.jpg	NY	Left	No	1.24680990003981	0	790271	234
1544.5390625	1	health	trialStart	3	171	51	foodImage.65	FOODEEG_Images\0658.jpg	NY	Left	No	2.10579989990219	0	790805	251
1545.5859375	2	health	foodImageDisplay	3	171	51	foodImage.65	FOODEEG_Images\0658.jpg	NY	Left	No	2.10579989990219	0	791341	252
1547.6484375	2.10579989990219	health	choicePhaseStart	3	171	51	foodImage.65	FOODEEG_Images\0658.jpg	NY	Left	No	2.10579989990219	0	792397	253
1549.744140625	0	health	response	3	171	51	foodImage.65	FOODEEG_Images\0658.jpg	NY	Left	No	2.10579989990219	0	793470	234
1550.7890625	1	health	trialStart	3	172	52	foodImage.7	FOODEEG_Images\0116.jpg	NY	Left	No	1.33932909998111	0	794005	251
1551.83984375	2	health	foodImageDisplay	3	172	52	foodImage.7	FOODEEG_Images\0116.jpg	NY	Left	No	1.33932909998111	0	794543	252
1553.90234375	1.33932909998111	health	choicePhaseStart	3	172	52	foodImage.7	FOODEEG_Images\0116.jpg	NY	Left	No	1.33932909998111	0	795599	253
1555.232421875	0	health	response	3	172	52	foodImage.7	FOODEEG_Images\0116.jpg	NY	Left	No	1.33932909998111	0	796280	234
1556.275390625	1	decision	trialStart	3	173	53	foodImage.40	FOODEEG_Images\0373.jpg	YN	Left	Yes	2.27819469990209	0	796814	251
1557.31640625	2	decision	foodImageDisplay	3	173	53	foodImage.40	FOODEEG_Images\0373.jpg	YN	Left	Yes	2.27819469990209	0	797347	252
1559.37890625	2.27819469990209	decision	choicePhaseStart	3	173	53	foodImage.40	FOODEEG_Images\0373.jpg	YN	Left	Yes	2.27819469990209	0	798403	253
1561.6484375	0	decision	response	3	173	53	foodImage.40	FOODEEG_Images\0373.jpg	YN	Left	Yes	2.27819469990209	0	799565	234
1562.689453125	1	taste	trialStart	3	174	54	foodImage.104	FOODEEG_Images\0912.jpg	NY	Right	Yes	1.84560700017028	0	800098	251
1563.7265625	2	taste	foodImageDisplay	3	174	54	foodImage.104	FOODEEG_Images\0912.jpg	NY	Right	Yes	1.84560700017028	0	800629	252
1565.7890625	1.84560700017028	taste	choicePhaseStart	3	174	54	foodImage.104	FOODEEG_Images\0912.jpg	NY	Right	Yes	1.84560700017028	0	801685	253
1567.625	0	taste	response	3	174	54	foodImage.104	FOODEEG_Images\0912.jpg	NY	Right	Yes	1.84560700017028	0	802625	235
1568.66796875	1	health	trialStart	3	175	55	foodImage.13	FOODEEG_Images\0183.jpg	YN	Left	Yes	1.18074100022204	0	803159	251
1569.7109375	2	health	foodImageDisplay	3	175	55	foodImage.13	FOODEEG_Images\0183.jpg	YN	Left	Yes	1.18074100022204	0	803693	252
1571.7734375	1.18074100022204	health	choicePhaseStart	3	175	55	foodImage.13	FOODEEG_Images\0183.jpg	YN	Left	Yes	1.18074100022204	0	804749	253
1572.9453125	0	health	response	3	175	55	foodImage.13	FOODEEG_Images\0183.jpg	YN	Left	Yes	1.18074100022204	0	805349	234
1573.98828125	1	taste	trialStart	3	176	56	foodImage.14	FOODEEG_Images\0188.jpg	NY	Left	No	2.12581360014156	0	805883	251
1575.046875	2	taste	foodImageDisplay	3	176	56	foodImage.14	FOODEEG_Images\0188.jpg	NY	Left	No	2.12581360014156	0	806425	252
1577.109375	2.12581360014156	taste	choicePhaseStart	3	176	56	foodImage.14	FOODEEG_Images\0188.jpg	NY	Left	No	2.12581360014156	0	807481	253
1579.224609375	0	taste	response	3	176	56	foodImage.14	FOODEEG_Images\0188.jpg	NY	Left	No	2.12581360014156	0	808564	234
1580.267578125	1	health	trialStart	3	177	57	foodImage.39	FOODEEG_Images\0367.jpg	NY	Left	No	1.32103840005584	0	809098	251
1581.306640625	2	health	foodImageDisplay	3	177	57	foodImage.39	FOODEEG_Images\0367.jpg	NY	Left	No	1.32103840005584	0	809630	252
1583.369140625	1.32103840005584	health	choicePhaseStart	3	177	57	foodImage.39	FOODEEG_Images\0367.jpg	NY	Left	No	1.32103840005584	0	810686	253
1584.6796875	0	health	response	3	177	57	foodImage.39	FOODEEG_Images\0367.jpg	NY	Left	No	1.32103840005584	0	811357	234
1585.72265625	1	taste	trialStart	3	178	58	foodImage.69	FOODEEG_Images\0693.jpg	YN	Right	No	1.73965899995528	0	811891	251
1586.765625	2	taste	foodImageDisplay	3	178	58	foodImage.69	FOODEEG_Images\0693.jpg	YN	Right	No	1.73965899995528	0	812425	252
1588.828125	1.73965899995528	taste	choicePhaseStart	3	178	58	foodImage.69	FOODEEG_Images\0693.jpg	YN	Right	No	1.73965899995528	0	813481	253
1590.55859375	0	taste	response	3	178	58	foodImage.69	FOODEEG_Images\0693.jpg	YN	Right	No	1.73965899995528	0	814367	235
1591.603515625	1	decision	trialStart	3	179	59	foodImage.64	FOODEEG_Images\0647.jpg	YN	Left	Yes	4.0998905999586	0	814902	251
1592.662109375	2	decision	foodImageDisplay	3	179	59	foodImage.64	FOODEEG_Images\0647.jpg	YN	Left	Yes	4.0998905999586	0	815444	252
1594.724609375	4.0998905999586	decision	choicePhaseStart	3	179	59	foodImage.64	FOODEEG_Images\0647.jpg	YN	Left	Yes	4.0998905999586	0	816500	253
1598.814453125	0	decision	response	3	179	59	foodImage.64	FOODEEG_Images\0647.jpg	YN	Left	Yes	4.0998905999586	0	818594	234
1599.857421875	1	health	trialStart	3	180	60	foodImage.95	FOODEEG_Images\0903.jpg	NY	Left	No	1.26566619984806	0	819128	251
1600.896484375	2	health	foodImageDisplay	3	180	60	foodImage.95	FOODEEG_Images\0903.jpg	NY	Left	No	1.26566619984806	0	819660	252
1602.958984375	1.26566619984806	health	choicePhaseStart	3	180	60	foodImage.95	FOODEEG_Images\0903.jpg	NY	Left	No	1.26566619984806	0	820716	253
1604.21484375	0	health	response	3	180	60	foodImage.95	FOODEEG_Images\0903.jpg	NY	Left	No	1.26566619984806	0	821359	234
1606.2578125	27.765625	n/a	blockEnd	n/a	n/a	n/a	n/a	n/a	n/a	n/a	n/a	n/a	n/a	822405	254
1634.0234375	2	n/a	blockStart	4	n/a	n/a	n/a	n/a	n/a	n/a	n/a	n/a	n/a	836621	250
1636.0546875	1	taste	trialStart	4	181	1	foodImage.90	FOODEEG_Images\0890.jpg	NY	Left	No	1.10727350017987	0	837661	251
1637.115234375	2	taste	foodImageDisplay	4	181	1	foodImage.90	FOODEEG_Images\0890.jpg	NY	Left	No	1.10727350017987	0	838204	252
1639.1796875	1.10727350017987	taste	choicePhaseStart	4	181	1	foodImage.90	FOODEEG_Images\0890.jpg	NY	Left	No	1.10727350017987	0	839261	253
1640.27734375	0	taste	response	4	181	1	foodImage.90	FOODEEG_Images\0890.jpg	NY	Left	No	1.10727350017987	0	839823	234
1641.318359375	1	taste	trialStart	4	182	2	foodImage.94	FOODEEG_Images\0902.jpg	NY	Left	No	1.22628229996189	0	840356	251
1642.357421875	2	taste	foodImageDisplay	4	182	2	foodImage.94	FOODEEG_Images\0902.jpg	NY	Left	No	1.22628229996189	0	840888	252
1644.419921875	1.22628229996189	taste	choicePhaseStart	4	182	2	foodImage.94	FOODEEG_Images\0902.jpg	NY	Left	No	1.22628229996189	0	841944	253
1645.63671875	0	taste	response	4	182	2	foodImage.94	FOODEEG_Images\0902.jpg	NY	Left	No	1.22628229996189	0	842567	234
1646.681640625	1	health	trialStart	4	183	3	foodImage.31	FOODEEG_Images\0294.jpg	YN	Right	No	1.22753589996137	0	843102	251
1647.724609375	2	health	foodImageDisplay	4	183	3	foodImage.31	FOODEEG_Images\0294.jpg	YN	Right	No	1.22753589996137	0	843636	252
1649.78515625	1.22753589996137	health	choicePhaseStart	4	183	3	foodImage.31	FOODEEG_Images\0294.jpg	YN	Right	No	1.22753589996137	0	844691	253
1651.005859375	0	health	response	4	183	3	foodImage.31	FOODEEG_Images\0294.jpg	YN	Right	No	1.22753589996137	0	845316	235
1652.048828125	1	decision	trialStart	4	184	4	foodImage.25	FOODEEG_Images\0261.jpg	NY	Left	No	1.13976379996166	0	845850	251
1653.091796875	2	decision	foodImageDisplay	4	184	4	foodImage.25	FOODEEG_Images\0261.jpg	NY	Left	No	1.13976379996166	0	846384	252
1655.154296875	1.13976379996166	decision	choicePhaseStart	4	184	4	foodImage.25	FOODEEG_Images\0261.jpg	NY	Left	No	1.13976379996166	0	847440	253
1656.28515625	0	decision	response	4	184	4	foodImage.25	FOODEEG_Images\0261.jpg	NY	Left	No	1.13976379996166	0	848019	234
1657.333984375	1	decision	trialStart	4	185	5	foodImage.9	FOODEEG_Images\0138.jpg	YN	Right	No	0.984752200078219	0	848556	251
1658.390625	2	decision	foodImageDisplay	4	185	5	foodImage.9	FOODEEG_Images\0138.jpg	YN	Right	No	0.984752200078219	0	849097	252
1660.453125	0.984752200078219	decision	choicePhaseStart	4	185	5	foodImage.9	FOODEEG_Images\0138.jpg	YN	Right	No	0.984752200078219	0	850153	253
1661.427734375	0	decision	response	4	185	5	foodImage.9	FOODEEG_Images\0138.jpg	YN	Right	No	0.984752200078219	0	850652	235
1662.47265625	1	health	trialStart	4	186	6	foodImage.45	FOODEEG_Images\0478.jpg	YN	Left	Yes	1.86214310000651	0	851187	251
1663.517578125	2	health	foodImageDisplay	4	186	6	foodImage.45	FOODEEG_Images\0478.jpg	YN	Left	Yes	1.86214310000651	0	851722	252
1665.58203125	1.86214310000651	health	choicePhaseStart	4	186	6	foodImage.45	FOODEEG_Images\0478.jpg	YN	Left	Yes	1.86214310000651	0	852779	253
1667.435546875	0	health	response	4	186	6	foodImage.45	FOODEEG_Images\0478.jpg	YN	Left	Yes	1.86214310000651	0	853728	234
1668.48046875	1	health	trialStart	4	187	7	foodImage.101	FOODEEG_Images\0909.jpg	NY	Right	Yes	1.65606190008111	0	854263	251
1669.517578125	2	health	foodImageDisplay	4	187	7	foodImage.101	FOODEEG_Images\0909.jpg	NY	Right	Yes	1.65606190008111	0	854794	252
1671.58203125	1.65606190008111	health	choicePhaseStart	4	187	7	foodImage.101	FOODEEG_Images\0909.jpg	NY	Right	Yes	1.65606190008111	0	855851	253
1673.228515625	0	health	response	4	187	7	foodImage.101	FOODEEG_Images\0909.jpg	NY	Right	Yes	1.65606190008111	0	856694	235
1674.271484375	1	taste	trialStart	4	188	8	foodImage.39	FOODEEG_Images\0367.jpg	NY	Right	Yes	1.06609180010855	0	857228	251
1675.30859375	2	taste	foodImageDisplay	4	188	8	foodImage.39	FOODEEG_Images\0367.jpg	NY	Right	Yes	1.06609180010855	0	857759	252
1677.37109375	1.06609180010855	taste	choicePhaseStart	4	188	8	foodImage.39	FOODEEG_Images\0367.jpg	NY	Right	Yes	1.06609180010855	0	858815	253
1678.427734375	0	taste	response	4	188	8	foodImage.39	FOODEEG_Images\0367.jpg	NY	Right	Yes	1.06609180010855	0	859356	235
1679.470703125	1	health	trialStart	4	189	9	foodImage.10	FOODEEG_Images\0145.jpg	NY	Left	No	1.45680849999189	0	859890	251
1680.52734375	2	health	foodImageDisplay	4	189	9	foodImage.10	FOODEEG_Images\0145.jpg	NY	Left	No	1.45680849999189	0	860431	252
1682.58984375	1.45680849999189	health	choicePhaseStart	4	189	9	foodImage.10	FOODEEG_Images\0145.jpg	NY	Left	No	1.45680849999189	0	861487	253
1684.03515625	0	health	response	4	189	9	foodImage.10	FOODEEG_Images\0145.jpg	NY	Left	No	1.45680849999189	0	862227	234
1685.080078125	1	taste	trialStart	4	190	10	foodImage.107	FOODEEG_Images\0915.jpg	NY	Right	Yes	1.17108000000007	0	862762	251
1686.1171875	2	taste	foodImageDisplay	4	190	10	foodImage.107	FOODEEG_Images\0915.jpg	NY	Right	Yes	1.17108000000007	0	863293	252
1688.1796875	1.17108000000007	taste	choicePhaseStart	4	190	10	foodImage.107	FOODEEG_Images\0915.jpg	NY	Right	Yes	1.17108000000007	0	864349	253
1689.33984375	0	taste	response	4	190	10	foodImage.107	FOODEEG_Images\0915.jpg	NY	Right	Yes	1.17108000000007	0	864943	235
1690.380859375	1	taste	trialStart	4	191	11	foodImage.42	FOODEEG_Images\0438.jpg	NY	Left	No	1.2431091000326	0	865476	251
1691.466796875	2	taste	foodImageDisplay	4	191	11	foodImage.42	FOODEEG_Images\0438.jpg	NY	Left	No	1.2431091000326	0	866032	252
1693.529296875	1.2431091000326	taste	choicePhaseStart	4	191	11	foodImage.42	FOODEEG_Images\0438.jpg	NY	Left	No	1.2431091000326	0	867088	253
1694.763671875	0	taste	response	4	191	11	foodImage.42	FOODEEG_Images\0438.jpg	NY	Left	No	1.2431091000326	0	867720	234
1695.806640625	1	taste	trialStart	4	192	12	foodImage.112	FOODEEG_Images\0920.jpg	YN	Right	No	1.27133750007488	0	868254	251
1696.845703125	2	taste	foodImageDisplay	4	192	12	foodImage.112	FOODEEG_Images\0920.jpg	YN	Right	No	1.27133750007488	0	868786	252
1698.908203125	1.27133750007488	taste	choicePhaseStart	4	192	12	foodImage.112	FOODEEG_Images\0920.jpg	YN	Right	No	1.27133750007488	0	869842	253
1700.171875	0	taste	response	4	192	12	foodImage.112	FOODEEG_Images\0920.jpg	YN	Right	No	1.27133750007488	0	870489	235
1701.21484375	1	taste	trialStart	4	193	13	foodImage.29	FOODEEG_Images\0278.jpg	YN	Left	Yes	1.1576161000412	0	871023	251
1702.255859375	2	taste	foodImageDisplay	4	193	13	foodImage.29	FOODEEG_Images\0278.jpg	YN	Left	Yes	1.1576161000412	0	871556	252
1704.318359375	1.1576161000412	taste	choicePhaseStart	4	193	13	foodImage.29	FOODEEG_Images\0278.jpg	YN	Left	Yes	1.1576161000412	0	872612	253
