onset	duration	trial_type	event_type	block	trial_total	trial_in_block	food_image_code	food_image_path	button_position	resp_position	resp_choice	choice_rt	resp_too_slow	sample	trigger
309.814453125	2	n/a	blockStart	1	n/a	n/a	n/a	n/a	n/a	n/a	n/a	n/a	n/a	158626	250
311.8515625	1	decision	trialStart	1	1	1	foodImage.64	FOODEEG_Images\0647.jpg	YN	Left	Yes	1.40215760003775	0	159669	251
312.9140625	2	decision	foodImageDisplay	1	1	1	foodImage.64	FOODEEG_Images\0647.jpg	YN	Left	Yes	1.40215760003775	0	160213	252
314.978515625	1.40215760003775	decision	choicePhaseStart	1	1	1	foodImage.64	FOODEEG_Images\0647.jpg	YN	Left	Yes	1.40215760003775	0	161270	253
316.373046875	0	decision	response	1	1	1	foodImage.64	FOODEEG_Images\0647.jpg	YN	Left	Yes	1.40215760003775	0	161984	234
317.4609375	1	health	trialStart	1	2	2	foodImage.36	FOODEEG_Images\0352.jpg	YN	Left	Yes	1.65480559994467	0	162541	251
318.517578125	2	health	foodImageDisplay	1	2	2	foodImage.36	FOODEEG_Images\0352.jpg	YN	Left	Yes	1.65480559994467	0	163082	252
320.587890625	1.65480559994467	health	choicePhaseStart	1	2	2	foodImage.36	FOODEEG_Images\0352.jpg	YN	Left	Yes	1.65480559994467	0	164142	253
322.236328125	0	health	response	1	2	2	foodImage.36	FOODEEG_Images\0352.jpg	YN	Left	Yes	1.65480559994467	0	164986	234
323.287109375	1	health	trialStart	1	3	3	foodImage.24	FOODEEG_Images\0250.jpg	NY	Right	Yes	1.03971719997935	0	165524	251
324.33203125	2	health	foodImageDisplay	1	3	3	foodImage.24	FOODEEG_Images\0250.jpg	NY	Right	Yes	1.03971719997935	0	166059	252
326.39453125	1.03971719997935	health	choicePhaseStart	1	3	3	foodImage.24	FOODEEG_Images\0250.jpg	NY	Right	Yes	1.03971719997935	0	167115	253
327.427734375	0	health	response	1	3	3	foodImage.24	FOODEEG_Images\0250.jpg	NY	Right	Yes	1.03971719997935	0	167644	235
328.48046875	1	health	trialStart	1	4	4	foodImage.8	FOODEEG_Images\0136.jpg	NY	Left	No	1.91832689999137	0	168183	251
329.521484375	2	health	foodImageDisplay	1	4	4	foodImage.8	FOODEEG_Images\0136.jpg	NY	Left	No	1.91832689999137	0	168716	252
331.58984375	1.91832689999137	health	choicePhaseStart	1	4	4	foodImage.8	FOODEEG_Images\0136.jpg	NY	Left	No	1.91832689999137	0	169775	253
333.5	0	health	response	1	4	4	foodImage.8	FOODEEG_Images\0136.jpg	NY	Left	No	1.91832689999137	0	170753	234
334.544921875	1	decision	trialStart	1	5	5	foodImage.111	FOODEEG_Images\0919.jpg	YN	Right	No	1.02161140006501	0	171288	251
335.59765625	2	decision	foodImageDisplay	1	5	5	foodImage.111	FOODEEG_Images\0919.jpg	YN	Right	No	1.02161140006501	0	171827	252
337.662109375	1.02161140006501	decision	choicePhaseStart	1	5	5	foodImage.111	FOODEEG_Images\0919.jpg	YN	Right	No	1.02161140006501	0	172884	253
338.67578125	0	decision	response	1	5	5	foodImage.111	FOODEEG_Images\0919.jpg	YN	Right	No	1.02161140006501	0	173403	235
339.7265625	1	taste	trialStart	1	6	6	foodImage.82	FOODEEG_Images\0805.jpg	YN	Left	Yes	1.05180520005524	0	173941	251
340.80078125	2	taste	foodImageDisplay	1	6	6	foodImage.82	FOODEEG_Images\0805.jpg	YN	Left	Yes	1.05180520005524	0	174491	252
342.865234375	1.05180520005524	taste	choicePhaseStart	1	6	6	foodImage.82	FOODEEG_Images\0805.jpg	YN	Left	Yes	1.05180520005524	0	175548	253
343.908203125	0	taste	response	1	6	6	foodImage.82	FOODEEG_Images\0805.jpg	YN	Left	Yes	1.05180520005524	0	176082	234
344.947265625	1	taste	trialStart	1	7	7	foodImage.64	FOODEEG_Images\0647.jpg	YN	Left	Yes	1.63952029997017	0	176614	251
346.00390625	2	taste	foodImageDisplay	1	7	7	foodImage.64	FOODEEG_Images\0647.jpg	YN	Left	Yes	1.63952029997017	0	177155	252
348.06640625	1.63952029997017	taste	choicePhaseStart	1	7	7	foodImage.64	FOODEEG_Images\0647.jpg	YN	Left	Yes	1.63952029997017	0	178211	253
349.69921875	0	taste	response	1	7	7	foodImage.64	FOODEEG_Images\0647.jpg	YN	Left	Yes	1.63952029997017	0	179047	234
350.74609375	1	taste	trialStart	1	8	8	foodImage.33	FOODEEG_Images\0329.jpg	YN	Left	Yes	0.930756099987775	0	179583	251
351.787109375	2	taste	foodImageDisplay	1	8	8	foodImage.33	FOODEEG_Images\0329.jpg	YN	Left	Yes	0.930756099987775	0	180116	252
353.849609375	0.930756099987775	taste	choicePhaseStart	1	8	8	foodImage.33	FOODEEG_Images\0329.jpg	YN	Left	Yes	0.930756099987775	0	181172	253
354.771484375	0	taste	response	1	8	8	foodImage.33	FOODEEG_Images\0329.jpg	YN	Left	Yes	0.930756099987775	0	181644	234
355.81640625	1	decision	trialStart	1	9	9	foodImage.34	FOODEEG_Images\0339.jpg	NY	Right	Yes	1.57344179996289	0	182179	251
356.87109375	2	decision	foodImageDisplay	1	9	9	foodImage.34	FOODEEG_Images\0339.jpg	NY	Right	Yes	1.57344179996289	0	182719	252
358.93359375	1.57344179996289	decision	choicePhaseStart	1	9	9	foodImage.34	FOODEEG_Images\0339.jpg	NY	Right	Yes	1.57344179996289	0	183775	253
360.498046875	0	decision	response	1	9	9	foodImage.34	FOODEEG_Images\0339.jpg	NY	Right	Yes	1.57344179996289	0	184576	235
361.541015625	1	taste	trialStart	1	10	10	foodImage.63	FOODEEG_Images\0645.jpg	NY	Right	Yes	0.902539799921215	0	185110	251
362.58203125	2	taste	foodImageDisplay	1	10	10	foodImage.63	FOODEEG_Images\0645.jpg	NY	Right	Yes	0.902539799921215	0	185643	252
364.64453125	0.902539799921215	taste	choicePhaseStart	1	10	10	foodImage.63	FOODEEG_Images\0645.jpg	NY	Right	Yes	0.902539799921215	0	186699	253
365.5390625	0	taste	response	1	10	10	foodImage.63	FOODEEG_Images\0645.jpg	NY	Right	Yes	0.902539799921215	0	187157	235
366.58203125	1	health	trialStart	1	11	11	foodImage.118	FOODEEG_Images\0926.jpg	NY	Right	Yes	1.0057017999934	0	187691	251
367.62109375	2	health	foodImageDisplay	1	11	11	foodImage.118	FOODEEG_Images\0926.jpg	NY	Right	Yes	1.0057017999934	0	188223	252
369.681640625	1.0057017999934	health	choicePhaseStart	1	11	11	foodImage.118	FOODEEG_Images\0926.jpg	NY	Right	Yes	1.0057017999934	0	189278	253
370.68359375	0	health	response	1	11	11	foodImage.118	FOODEEG_Images\0926.jpg	NY	Right	Yes	1.0057017999934	0	189791	235
371.7265625	1	decision	trialStart	1	12	12	foodImage.4	FOODEEG_Images\0065.jpg	NY	Right	Yes	0.869366400060244	0	190325	251
372.798828125	2	decision	foodImageDisplay	1	12	12	foodImage.4	FOODEEG_Images\0065.jpg	NY	Right	Yes	0.869366400060244	0	190874	252
374.861328125	0.869366400060244	decision	choicePhaseStart	1	12	12	foodImage.4	FOODEEG_Images\0065.jpg	NY	Right	Yes	0.869366400060244	0	191930	253
375.72265625	0	decision	response	1	12	12	foodImage.4	FOODEEG_Images\0065.jpg	NY	Right	Yes	0.869366400060244	0	192371	235
376.76171875	1	health	trialStart	1	13	13	foodImage.55	FOODEEG_Images\0567.jpg	YN	Left	Yes	1.09483810001984	0	192903	251
377.8203125	2	health	foodImageDisplay	1	13	13	foodImage.55	FOODEEG_Images\0567.jpg	YN	Left	Yes	1.09483810001984	0	193445	252
379.8828125	1.09483810001984	health	choicePhaseStart	1	13	13	foodImage.55	FOODEEG_Images\0567.jpg	YN	Left	Yes	1.09483810001984	0	194501	253
380.96875	0	health	response	1	13	13	foodImage.55	FOODEEG_Images\0567.jpg	YN	Left	Yes	1.09483810001984	0	195057	234
382.01171875	1	decision	trialStart	1	14	14	foodImage.76	FOODEEG_Images\0766.jpg	NY	Right	Yes	0.925385300070047	0	195591	251
383.0546875	2	decision	foodImageDisplay	1	14	14	foodImage.76	FOODEEG_Images\0766.jpg	NY	Right	Yes	0.925385300070047	0	196125	252
385.1171875	0.925385300070047	decision	choicePhaseStart	1	14	14	foodImage.76	FOODEEG_Images\0766.jpg	NY	Right	Yes	0.925385300070047	0	197181	253
386.033203125	0	decision	response	1	14	14	foodImage.76	FOODEEG_Images\0766.jpg	NY	Right	Yes	0.925385300070047	0	197650	235
387.07421875	1	taste	trialStart	1	15	15	foodImage.17	FOODEEG_Images\0199.jpg	NY	Right	Yes	1.52137839992065	0	198183	251
388.115234375	2	taste	foodImageDisplay	1	15	15	foodImage.17	FOODEEG_Images\0199.jpg	NY	Right	Yes	1.52137839992065	0	198716	252
390.177734375	1.52137839992065	taste	choicePhaseStart	1	15	15	foodImage.17	FOODEEG_Images\0199.jpg	NY	Right	Yes	1.52137839992065	0	199772	253
391.689453125	0	taste	response	1	15	15	foodImage.17	FOODEEG_Images\0199.jpg	NY	Right	Yes	1.52137839992065	0	200546	235
392.73046875	1	health	trialStart	1	16	16	foodImage.63	FOODEEG_Images\0645.jpg	YN	Left	Yes	1.82544839999173	0	201079	251
393.76953125	2	health	foodImageDisplay	1	16	16	foodImage.63	FOODEEG_Images\0645.jpg	YN	Left	Yes	1.82544839999173	0	201611	252
395.83203125	1.82544839999173	health	choicePhaseStart	1	16	16	foodImage.63	FOODEEG_Images\0645.jpg	YN	Left	Yes	1.82544839999173	0	202667	253
397.6484375	0	health	response	1	16	16	foodImage.63	FOODEEG_Images\0645.jpg	YN	Left	Yes	1.82544839999173	0	203597	234
398.689453125	1	taste	trialStart	1	17	17	foodImage.76	FOODEEG_Images\0766.jpg	YN	Right	No	1.60576629999559	0	204130	251
399.75	2	taste	foodImageDisplay	1	17	17	foodImage.76	FOODEEG_Images\0766.jpg	YN	Right	No	1.60576629999559	0	204673	252
401.8125	1.60576629999559	taste	choicePhaseStart	1	17	17	foodImage.76	FOODEEG_Images\0766.jpg	YN	Right	No	1.60576629999559	0	205729	253
403.408203125	0	taste	response	1	17	17	foodImage.76	FOODEEG_Images\0766.jpg	YN	Right	No	1.60576629999559	0	206546	235
404.44921875	1	decision	trialStart	1	18	18	foodImage.57	FOODEEG_Images\0587.jpg	NY	Right	Yes	1.0954712999519	0	207079	251
405.490234375	2	decision	foodImageDisplay	1	18	18	foodImage.57	FOODEEG_Images\0587.jpg	NY	Right	Yes	1.0954712999519	0	207612	252
407.552734375	1.0954712999519	decision	choicePhaseStart	1	18	18	foodImage.57	FOODEEG_Images\0587.jpg	NY	Right	Yes	1.0954712999519	0	208668	253
408.640625	0	decision	response	1	18	18	foodImage.57	FOODEEG_Images\0587.jpg	NY	Right	Yes	1.0954712999519	0	209225	235
409.68359375	1	health	trialStart	1	19	19	foodImage.7	FOODEEG_Images\0116.jpg	NY	Left	No	1.14987360010855	0	209759	251
410.724609375	2	health	foodImageDisplay	1	19	19	foodImage.7	FOODEEG_Images\0116.jpg	NY	Left	No	1.14987360010855	0	210292	252
412.787109375	1.14987360010855	health	choicePhaseStart	1	19	19	foodImage.7	FOODEEG_Images\0116.jpg	NY	Left	No	1.14987360010855	0	211348	253
413.927734375	0	health	response	1	19	19	foodImage.7	FOODEEG_Images\0116.jpg	NY	Left	No	1.14987360010855	0	211932	234
414.974609375	1	taste	trialStart	1	20	20	foodImage.75	FOODEEG_Images\0763.jpg	YN	Left	Yes	1.67553960008081	0	212468	251
416.021484375	2	taste	foodImageDisplay	1	20	20	foodImage.75	FOODEEG_Images\0763.jpg	YN	Left	Yes	1.67553960008081	0	213004	252
418.0859375	1.67553960008081	taste	choicePhaseStart	1	20	20	foodImage.75	FOODEEG_Images\0763.jpg	YN	Left	Yes	1.67553960008081	0	214061	253
419.751953125	0	taste	response	1	20	20	foodImage.75	FOODEEG_Images\0763.jpg	YN	Left	Yes	1.67553960008081	0	214914	234
420.794921875	1	health	trialStart	1	21	21	foodImage.49	FOODEEG_Images\0515.jpg	YN	Right	No	1.18873039993923	0	215448	251
421.8359375	2	health	foodImageDisplay	1	21	21	foodImage.49	FOODEEG_Images\0515.jpg	YN	Right	No	1.18873039993923	0	215981	252
423.900390625	1.18873039993923	health	choicePhaseStart	1	21	21	foodImage.49	FOODEEG_Images\0515.jpg	YN	Right	No	1.18873039993923	0	217038	253
425.080078125	0	health	response	1	21	21	foodImage.49	FOODEEG_Images\0515.jpg	YN	Right	No	1.18873039993923	0	217642	235
426.123046875	1	decision	trialStart	1	22	22	foodImage.27	FOODEEG_Images\0263.jpg	NY	Right	Yes	1.20707360003144	0	218176	251
427.1640625	2	decision	foodImageDisplay	1	22	22	foodImage.27	FOODEEG_Images\0263.jpg	NY	Right	Yes	1.20707360003144	0	218709	252
429.2265625	1.20707360003144	decision	choicePhaseStart	1	22	22	foodImage.27	FOODEEG_Images\0263.jpg	NY	Right	Yes	1.20707360003144	0	219765	253
430.423828125	0	decision	response	1	22	22	foodImage.27	FOODEEG_Images\0263.jpg	NY	Right	Yes	1.20707360003144	0	220378	235
431.462890625	1	taste	trialStart	1	23	23	foodImage.46	FOODEEG_Images\0479.jpg	NY	Right	Yes	0.932404599967413	0	220910	251
432.5234375	2	taste	foodImageDisplay	1	23	23	foodImage.46	FOODEEG_Images\0479.jpg	NY	Right	Yes	0.932404599967413	0	221453	252
434.587890625	0.932404599967413	taste	choicePhaseStart	1	23	23	foodImage.46	FOODEEG_Images\0479.jpg	NY	Right	Yes	0.932404599967413	0	222510	253
435.51171875	0	taste	response	1	23	23	foodImage.46	FOODEEG_Images\0479.jpg	NY	Right	Yes	0.932404599967413	0	222983	235
436.552734375	1	health	trialStart	1	24	24	foodImage.61	FOODEEG_Images\0640.jpg	NY	Right	Yes	0.78928360005375	0	223516	251
437.595703125	2	health	foodImageDisplay	1	24	24	foodImage.61	FOODEEG_Images\0640.jpg	NY	Right	Yes	0.78928360005375	0	224050	252
439.658203125	0.78928360005375	health	choicePhaseStart	1	24	24	foodImage.61	FOODEEG_Images\0640.jpg	NY	Right	Yes	0.78928360005375	0	225106	253
440.439453125	0	health	response	1	24	24	foodImage.61	FOODEEG_Images\0640.jpg	NY	Right	Yes	0.78928360005375	0	225506	235
441.478515625	1	taste	trialStart	1	25	25	foodImage.88	FOODEEG_Images\0878.jpg	YN	Left	Yes	1.19142470008228	0	226038	251
442.53125	2	taste	foodImageDisplay	1	25	25	foodImage.88	FOODEEG_Images\0878.jpg	YN	Left	Yes	1.19142470008228	0	226577	252
444.59375	1.19142470008228	taste	choicePhaseStart	1	25	25	foodImage.88	FOODEEG_Images\0878.jpg	YN	Left	Yes	1.19142470008228	0	227633	253
445.775390625	0	taste	response	1	25	25	foodImage.88	FOODEEG_Images\0878.jpg	YN	Left	Yes	1.19142470008228	0	228238	234
446.818359375	1	decision	trialStart	1	26	26	foodImage.96	FOODEEG_Images\0904.jpg	NY	Right	Yes	0.873739800066687	0	228772	251
447.85546875	2	decision	foodImageDisplay	1	26	26	foodImage.96	FOODEEG_Images\0904.jpg	NY	Right	Yes	0.873739800066687	0	229303	252
449.91796875	0.873739800066687	decision	choicePhaseStart	1	26	26	foodImage.96	FOODEEG_Images\0904.jpg	NY	Right	Yes	0.873739800066687	0	230359	253
450.783203125	0	decision	response	1	26	26	foodImage.96	FOODEEG_Images\0904.jpg	NY	Right	Yes	0.873739800066687	0	230802	235
451.82421875	1	health	trialStart	1	27	27	foodImage.80	FOODEEG_Images\0796.jpg	YN	Left	Yes	1.44893010007218	0	231335	251
452.880859375	2	health	foodImageDisplay	1	27	27	foodImage.80	FOODEEG_Images\0796.jpg	YN	Left	Yes	1.44893010007218	0	231876	252
454.94140625	1.44893010007218	health	choicePhaseStart	1	27	27	foodImage.80	FOODEEG_Images\0796.jpg	YN	Left	Yes	1.44893010007218	0	232931	253
456.3828125	0	health	response	1	27	27	foodImage.80	FOODEEG_Images\0796.jpg	YN	Left	Yes	1.44893010007218	0	233669	234
457.423828125	1	decision	trialStart	1	28	28	foodImage.30	FOODEEG_Images\0282.jpg	YN	Left	Yes	0.926012399955653	0	234202	251
458.46484375	2	decision	foodImageDisplay	1	28	28	foodImage.30	FOODEEG_Images\0282.jpg	YN	Left	Yes	0.926012399955653	0	234735	252
460.529296875	0.926012399955653	decision	choicePhaseStart	1	28	28	foodImage.30	FOODEEG_Images\0282.jpg	YN	Left	Yes	0.926012399955653	0	235792	253
461.447265625	0	decision	response	1	28	28	foodImage.30	FOODEEG_Images\0282.jpg	YN	Left	Yes	0.926012399955653	0	236262	234
462.48828125	1	taste	trialStart	1	29	29	foodImage.45	FOODEEG_Images\0478.jpg	YN	Left	Yes	1.55509539996274	0	236795	251
463.533203125	2	taste	foodImageDisplay	1	29	29	foodImage.45	FOODEEG_Images\0478.jpg	YN	Left	Yes	1.55509539996274	0	237330	252
465.595703125	1.55509539996274	taste	choicePhaseStart	1	29	29	foodImage.45	FOODEEG_Images\0478.jpg	YN	Left	Yes	1.55509539996274	0	238386	253
467.142578125	0	taste	response	1	29	29	foodImage.45	FOODEEG_Images\0478.jpg	YN	Left	Yes	1.55509539996274	0	239178	234
468.185546875	1	taste	trialStart	1	30	30	foodImage.84	FOODEEG_Images\0830.jpg	YN	Left	Yes	0.735510100028478	0	239712	251
469.240234375	2	taste	foodImageDisplay	1	30	30	foodImage.84	FOODEEG_Images\0830.jpg	YN	Left	Yes	0.735510100028478	0	240252	252
471.302734375	0.735510100028478	taste	choicePhaseStart	1	30	30	foodImage.84	FOODEEG_Images\0830.jpg	YN	Left	Yes	0.735510100028478	0	241308	253
472.029296875	0	taste	response	1	30	30	foodImage.84	FOODEEG_Images\0830.jpg	YN	Left	Yes	0.735510100028478	0	241680	234
473.0703125	1	decision	trialStart	1	31	31	foodImage.86	FOODEEG_Images\0844.jpg	YN	Left	Yes	0.739309999975376	0	242213	251
474.125	2	decision	foodImageDisplay	1	31	31	foodImage.86	FOODEEG_Images\0844.jpg	YN	Left	Yes	0.739309999975376	0	242753	252
476.1875	0.739309999975376	decision	choicePhaseStart	1	31	31	foodImage.86	FOODEEG_Images\0844.jpg	YN	Left	Yes	0.739309999975376	0	243809	253
476.91796875	0	decision	response	1	31	31	foodImage.86	FOODEEG_Images\0844.jpg	YN	Left	Yes	0.739309999975376	0	244183	234
477.9609375	1	decision	trialStart	1	32	32	foodImage.82	FOODEEG_Images\0805.jpg	YN	Left	Yes	1.04702160006855	0	244717	251
479.017578125	2	decision	foodImageDisplay	1	32	32	foodImage.82	FOODEEG_Images\0805.jpg	YN	Left	Yes	1.04702160006855	0	245258	252
481.080078125	1.04702160006855	decision	choicePhaseStart	1	32	32	foodImage.82	FOODEEG_Images\0805.jpg	YN	Left	Yes	1.04702160006855	0	246314	253
482.1171875	0	decision	response	1	32	32	foodImage.82	FOODEEG_Images\0805.jpg	YN	Left	Yes	1.04702160006855	0	246845	234
483.16015625	1	taste	trialStart	1	33	33	foodImage.80	FOODEEG_Images\0796.jpg	YN	Left	Yes	0.958809699979611	0	247379	251
484.216796875	2	taste	foodImageDisplay	1	33	33	foodImage.80	FOODEEG_Images\0796.jpg	YN	Left	Yes	0.958809699979611	0	247920	252
486.279296875	0.958809699979611	taste	choicePhaseStart	1	33	33	foodImage.80	FOODEEG_Images\0796.jpg	YN	Left	Yes	0.958809699979611	0	248976	253
487.228515625	0	taste	response	1	33	33	foodImage.80	FOODEEG_Images\0796.jpg	YN	Left	Yes	0.958809699979611	0	249462	234
488.2734375	1	taste	trialStart	1	34	34	foodImage.36	FOODEEG_Images\0352.jpg	YN	Left	Yes	0.799466100055724	0	249997	251
489.328125	2	taste	foodImageDisplay	1	34	34	foodImage.36	FOODEEG_Images\0352.jpg	YN	Left	Yes	0.799466100055724	0	250537	252
491.390625	0.799466100055724	taste	choicePhaseStart	1	34	34	foodImage.36	FOODEEG_Images\0352.jpg	YN	Left	Yes	0.799466100055724	0	251593	253
492.181640625	0	taste	response	1	34	34	foodImage.36	FOODEEG_Images\0352.jpg	YN	Left	Yes	0.799466100055724	0	251998	234
493.22265625	1	taste	trialStart	1	35	35	foodImage.35	FOODEEG_Images\0350.jpg	YN	Left	Yes	0.784813100006431	0	252531	251
494.26171875	2	taste	foodImageDisplay	1	35	35	foodImage.35	FOODEEG_Images\0350.jpg	YN	Left	Yes	0.784813100006431	0	253063	252
496.32421875	0.784813100006431	taste	choicePhaseStart	1	35	35	foodImage.35	FOODEEG_Images\0350.jpg	YN	Left	Yes	0.784813100006431	0	254119	253
497.1015625	0	taste	response	1	35	35	foodImage.35	FOODEEG_Images\0350.jpg	YN	Left	Yes	0.784813100006431	0	254517	234
498.140625	1	decision	trialStart	1	36	36	foodImage.7	FOODEEG_Images\0116.jpg	YN	Left	Yes	0.45726359996479	0	255049	251
499.18359375	2	decision	foodImageDisplay	1	36	36	foodImage.7	FOODEEG_Images\0116.jpg	YN	Left	Yes	0.45726359996479	0	255583	252
501.244140625	0.45726359996479	decision	choicePhaseStart	1	36	36	foodImage.7	FOODEEG_Images\0116.jpg	YN	Left	Yes	0.45726359996479	0	256638	253
501.693359375	0	decision	response	1	36	36	foodImage.7	FOODEEG_Images\0116.jpg	YN	Left	Yes	0.45726359996479	0	256868	234
502.751953125	1	health	trialStart	1	37	37	foodImage.116	FOODEEG_Images\0924.jpg	YN	Right	No	1.71353539999109	0	257410	251
503.7890625	2	health	foodImageDisplay	1	37	37	foodImage.116	FOODEEG_Images\0924.jpg	YN	Right	No	1.71353539999109	0	257941	252
505.8515625	1.71353539999109	health	choicePhaseStart	1	37	37	foodImage.116	FOODEEG_Images\0924.jpg	YN	Right	No	1.71353539999109	0	258997	253
507.556640625	0	health	response	1	37	37	foodImage.116	FOODEEG_Images\0924.jpg	YN	Right	No	1.71353539999109	0	259870	235
508.595703125	1	taste	trialStart	1	38	38	foodImage.39	FOODEEG_Images\0367.jpg	NY	Right	Yes	1.09175869997125	0	260402	251
509.634765625	2	taste	foodImageDisplay	1	38	38	foodImage.39	FOODEEG_Images\0367.jpg	NY	Right	Yes	1.09175869997125	0	260934	252
511.697265625	1.09175869997125	taste	choicePhaseStart	1	38	38	foodImage.39	FOODEEG_Images\0367.jpg	NY	Right	Yes	1.09175869997125	0	261990	253
512.78125	0	taste	response	1	38	38	foodImage.39	FOODEEG_Images\0367.jpg	NY	Right	Yes	1.09175869997125	0	262545	235
513.822265625	1	taste	trialStart	1	39	39	foodImage.94	FOODEEG_Images\0902.jpg	YN	Right	No	1.42791590001434	0	263078	251
514.859375	2	taste	foodImageDisplay	1	39	39	foodImage.94	FOODEEG_Images\0902.jpg	YN	Right	No	1.42791590001434	0	263609	252
516.921875	1.42791590001434	taste	choicePhaseStart	1	39	39	foodImage.94	FOODEEG_Images\0902.jpg	YN	Right	No	1.42791590001434	0	264665	253
518.33984375	0	taste	response	1	39	39	foodImage.94	FOODEEG_Images\0902.jpg	YN	Right	No	1.42791590001434	0	265391	235
519.3828125	1	health	trialStart	1	40	40	foodImage.81	FOODEEG_Images\0797.jpg	YN	Left	Yes	2.43964009999763	0	265925	251
520.439453125	2	health	foodImageDisplay	1	40	40	foodImage.81	FOODEEG_Images\0797.jpg	YN	Left	Yes	2.43964009999763	0	266466	252
522.501953125	2.43964009999763	health	choicePhaseStart	1	40	40	foodImage.81	FOODEEG_Images\0797.jpg	YN	Left	Yes	2.43964009999763	0	267522	253
524.931640625	0	health	response	1	40	40	foodImage.81	FOODEEG_Images\0797.jpg	YN	Left	Yes	2.43964009999763	0	268766	234
525.97265625	1	taste	trialStart	1	41	41	foodImage.118	FOODEEG_Images\0926.jpg	YN	Left	Yes	0.850074200076051	0	269299	251
527.01171875	2	taste	foodImageDisplay	1	41	41	foodImage.118	FOODEEG_Images\0926.jpg	YN	Left	Yes	0.850074200076051	0	269831	252
529.07421875	0.850074200076051	taste	choicePhaseStart	1	41	41	foodImage.118	FOODEEG_Images\0926.jpg	YN	Left	Yes	0.850074200076051	0	270887	253
529.916015625	0	taste	response	1	41	41	foodImage.118	FOODEEG_Images\0926.jpg	YN	Left	Yes	0.850074200076051	0	271318	234
530.958984375	1	health	trialStart	1	42	42	foodImage.70	FOODEEG_Images\0705.jpg	YN	Right	No	2.5511497000698	0	271852	251
532.015625	2	health	foodImageDisplay	1	42	42	foodImage.70	FOODEEG_Images\0705.jpg	YN	Right	No	2.5511497000698	0	272393	252
534.078125	2.5511497000698	health	choicePhaseStart	1	42	42	foodImage.70	FOODEEG_Images\0705.jpg	YN	Right	No	2.5511497000698	0	273449	253
536.619140625	0	health	response	1	42	42	foodImage.70	FOODEEG_Images\0705.jpg	YN	Right	No	2.5511497000698	0	274750	235
537.662109375	1	health	trialStart	1	43	43	foodImage.19	FOODEEG_Images\0225.jpg	NY	Left	No	1.29953950003255	0	275284	251
538.703125	2	health	foodImageDisplay	1	43	43	foodImage.19	FOODEEG_Images\0225.jpg	NY	Left	No	1.29953950003255	0	275817	252
540.767578125	1.29953950003255	health	choicePhaseStart	1	43	43	foodImage.19	FOODEEG_Images\0225.jpg	NY	Left	No	1.29953950003255	0	276874	253
542.05859375	0	health	response	1	43	43	foodImage.19	FOODEEG_Images\0225.jpg	NY	Left	No	1.29953950003255	0	277535	234
543.1015625	1	taste	trialStart	1	44	44	foodImage.52	FOODEEG_Images\0539.jpg	NY	Right	Yes	1.01206989993807	0	278069	251
544.169921875	2	taste	foodImageDisplay	1	44	44	foodImage.52	FOODEEG_Images\0539.jpg	NY	Right	Yes	1.01206989993807	0	278616	252
546.232421875	1.01206989993807	taste	choicePhaseStart	1	44	44	foodImage.52	FOODEEG_Images\0539.jpg	NY	Right	Yes	1.01206989993807	0	279672	253
547.234375	0	taste	response	1	44	44	foodImage.52	FOODEEG_Images\0539.jpg	NY	Right	Yes	1.01206989993807	0	280185	235
548.27734375	1	decision	trialStart	1	45	45	foodImage.109	FOODEEG_Images\0917.jpg	NY	Left	No	1.21051160001662	0	280719	251
549.318359375	2	decision	foodImageDisplay	1	45	45	foodImage.109	FOODEEG_Images\0917.jpg	NY	Left	No	1.21051160001662	0	281252	252
551.3828125	1.21051160001662	decision	choicePhaseStart	1	45	45	foodImage.109	FOODEEG_Images\0917.jpg	NY	Left	No	1.21051160001662	0	282309	253
552.5859375	0	decision	response	1	45	45	foodImage.109	FOODEEG_Images\0917.jpg	NY	Left	No	1.21051160001662	0	282925	234
553.62890625	1	health	trialStart	1	46	46	foodImage.107	FOODEEG_Images\0915.jpg	NY	Left	No	1.15925109991804	0	283459	251
554.66796875	2	health	foodImageDisplay	1	46	46	foodImage.107	FOODEEG_Images\0915.jpg	NY	Left	No	1.15925109991804	0	283991	252
556.73046875	1.15925109991804	health	choicePhaseStart	1	46	46	foodImage.107	FOODEEG_Images\0915.jpg	NY	Left	No	1.15925109991804	0	285047	253
557.8828125	0	health	response	1	46	46	foodImage.107	FOODEEG_Images\0915.jpg	NY	Left	No	1.15925109991804	0	285637	234
558.921875	1	health	trialStart	1	47	47	foodImage.82	FOODEEG_Images\0805.jpg	YN	Left	Yes	1.1097574000014	0	286169	251
559.974609375	2	health	foodImageDisplay	1	47	47	foodImage.82	FOODEEG_Images\0805.jpg	YN	Left	Yes	1.1097574000014	0	286708	252
562.037109375	1.1097574000014	health	choicePhaseStart	1	47	47	foodImage.82	FOODEEG_Images\0805.jpg	YN	Left	Yes	1.1097574000014	0	287764	253
563.138671875	0	health	response	1	47	47	foodImage.82	FOODEEG_Images\0805.jpg	YN	Left	Yes	1.1097574000014	0	288328	234
564.1796875	1	decision	trialStart	1	48	48	foodImage.53	FOODEEG_Images\0547.jpg	NY	Right	Yes	1.38408900005743	0	288861	251
565.236328125	2	decision	foodImageDisplay	1	48	48	foodImage.53	FOODEEG_Images\0547.jpg	NY	Right	Yes	1.38408900005743	0	289402	252
567.298828125	1.38408900005743	decision	choicePhaseStart	1	48	48	foodImage.53	FOODEEG_Images\0547.jpg	NY	Right	Yes	1.38408900005743	0	290458	253
568.673828125	0	decision	response	1	48	48	foodImage.53	FOODEEG_Images\0547.jpg	NY	Right	Yes	1.38408900005743	0	291162	235
569.71484375	1	taste	trialStart	1	49	49	foodImage.19	FOODEEG_Images\0225.jpg	NY	Right	Yes	1.04552520008292	0	291695	251
570.759765625	2	taste	foodImageDisplay	1	49	49	foodImage.19	FOODEEG_Images\0225.jpg	NY	Right	Yes	1.04552520008292	0	292230	252
572.822265625	1.04552520008292	taste	choicePhaseStart	1	49	49	foodImage.19	FOODEEG_Images\0225.jpg	NY	Right	Yes	1.04552520008292	0	293286	253
573.857421875	0	taste	response	1	49	49	foodImage.19	FOODEEG_Images\0225.jpg	NY	Right	Yes	1.04552520008292	0	293816	235
574.900390625	1	decision	trialStart	1	50	50	foodImage.73	FOODEEG_Images\0717.jpg	NY	Right	Yes	1.7504947000416	0	294350	251
575.95703125	2	decision	foodImageDisplay	1	50	50	foodImage.73	FOODEEG_Images\0717.jpg	NY	Right	Yes	1.7504947000416	0	294891	252
578.01953125	1.7504947000416	decision	choicePhaseStart	1	50	50	foodImage.73	FOODEEG_Images\0717.jpg	NY	Right	Yes	1.7504947000416	0	295947	253
579.76171875	0	decision	response	1	50	50	foodImage.73	FOODEEG_Images\0717.jpg	NY	Right	Yes	1.7504947000416	0	296839	235
580.802734375	1	taste	trialStart	1	51	51	foodImage.61	FOODEEG_Images\0640.jpg	NY	Right	Yes	0.952166200033389	0	297372	251
581.84375	2	taste	foodImageDisplay	1	51	51	foodImage.61	FOODEEG_Images\0640.jpg	NY	Right	Yes	0.952166200033389	0	297905	252
583.90625	0.952166200033389	taste	choicePhaseStart	1	51	51	foodImage.61	FOODEEG_Images\0640.jpg	NY	Right	Yes	0.952166200033389	0	298961	253
584.849609375	0	taste	response	1	51	51	foodImage.61	FOODEEG_Images\0640.jpg	NY	Right	Yes	0.952166200033389	0	299444	235
585.892578125	1	taste	trialStart	1	52	52	foodImage.18	FOODEEG_Images\0202.jpg	YN	Left	Yes	1.07247800007463	0	299978	251
586.94921875	2	taste	foodImageDisplay	1	52	52	foodImage.18	FOODEEG_Images\0202.jpg	YN	Left	Yes	1.07247800007463	0	300519	252
589.01171875	1.07247800007463	taste	choicePhaseStart	1	52	52	foodImage.18	FOODEEG_Images\0202.jpg	YN	Left	Yes	1.07247800007463	0	301575	253
590.072265625	0	taste	response	1	52	52	foodImage.18	FOODEEG_Images\0202.jpg	YN	Left	Yes	1.07247800007463	0	302118	234
591.11328125	1	health	trialStart	1	53	53	foodImage.48	FOODEEG_Images\0494.jpg	YN	Right	No	1.02866319997702	0	302651	251
592.15234375	2	health	foodImageDisplay	1	53	53	foodImage.48	FOODEEG_Images\0494.jpg	YN	Right	No	1.02866319997702	0	303183	252
594.21484375	1.02866319997702	health	choicePhaseStart	1	53	53	foodImage.48	FOODEEG_Images\0494.jpg	YN	Right	No	1.02866319997702	0	304239	253
595.232421875	0	health	response	1	53	53	foodImage.48	FOODEEG_Images\0494.jpg	YN	Right	No	1.02866319997702	0	304760	235
596.271484375	1	taste	trialStart	1	54	54	foodImage.27	FOODEEG_Images\0263.jpg	YN	Left	Yes	1.53062159998808	0	305292	251
597.310546875	2	taste	foodImageDisplay	1	54	54	foodImage.27	FOODEEG_Images\0263.jpg	YN	Left	Yes	1.53062159998808	0	305824	252
599.375	1.53062159998808	taste	choicePhaseStart	1	54	54	foodImage.27	FOODEEG_Images\0263.jpg	YN	Left	Yes	1.53062159998808	0	306881	253
600.896484375	0	taste	response	1	54	54	foodImage.27	FOODEEG_Images\0263.jpg	YN	Left	Yes	1.53062159998808	0	307660	234
601.935546875	1	decision	trialStart	1	55	55	foodImage.14	FOODEEG_Images\0188.jpg	NY	Right	Yes	0.835635699913837	0	308192	251
602.990234375	2	decision	foodImageDisplay	1	55	55	foodImage.14	FOODEEG_Images\0188.jpg	NY	Right	Yes	0.835635699913837	0	308732	252
605.052734375	0.835635699913837	decision	choicePhaseStart	1	55	55	foodImage.14	FOODEEG_Images\0188.jpg	NY	Right	Yes	0.835635699913837	0	309788	253
605.880859375	0	decision	response	1	55	55	foodImage.14	FOODEEG_Images\0188.jpg	NY	Right	Yes	0.835635699913837	0	310212	235
606.919921875	1	health	trialStart	1	56	56	foodImage.87	FOODEEG_Images\0873.jpg	YN	Left	Yes	1.03894080000464	0	310744	251
607.97265625	2	health	foodImageDisplay	1	56	56	foodImage.87	FOODEEG_Images\0873.jpg	YN	Left	Yes	1.03894080000464	0	311283	252
610.03515625	1.03894080000464	health	choicePhaseStart	1	56	56	foodImage.87	FOODEEG_Images\0873.jpg	YN	Left	Yes	1.03894080000464	0	312339	253
611.064453125	0	health	response	1	56	56	foodImage.87	FOODEEG_Images\0873.jpg	YN	Left	Yes	1.03894080000464	0	312866	234
612.103515625	1	health	trialStart	1	57	57	foodImage.74	FOODEEG_Images\0752.jpg	NY	Right	Yes	0.959944500005804	0	313398	251
613.14453125	2	health	foodImageDisplay	1	57	57	foodImage.74	FOODEEG_Images\0752.jpg	NY	Right	Yes	0.959944500005804	0	313931	252
615.20703125	0.959944500005804	health	choicePhaseStart	1	57	57	foodImage.74	FOODEEG_Images\0752.jpg	NY	Right	Yes	0.959944500005804	0	314987	253
616.16015625	0	health	response	1	57	57	foodImage.74	FOODEEG_Images\0752.jpg	NY	Right	Yes	0.959944500005804	0	315475	235
617.203125	1	decision	trialStart	1	58	58	foodImage.62	FOODEEG_Images\0644.jpg	NY	Right	Yes	1.55213409999851	0	316009	251
618.2578125	2	decision	foodImageDisplay	1	58	58	foodImage.62	FOODEEG_Images\0644.jpg	NY	Right	Yes	1.55213409999851	0	316549	252
620.3203125	1.55213409999851	decision	choicePhaseStart	1	58	58	foodImage.62	FOODEEG_Images\0644.jpg	NY	Right	Yes	1.55213409999851	0	317605	253
621.865234375	0	decision	response	1	58	58	foodImage.62	FOODEEG_Images\0644.jpg	NY	Right	Yes	1.55213409999851	0	318396	235
622.912109375	1	health	trialStart	1	59	59	foodImage.27	FOODEEG_Images\0263.jpg	YN	Left	Yes	1.40176650008652	0	318932	251
623.953125	2	health	foodImageDisplay	1	59	59	foodImage.27	FOODEEG_Images\0263.jpg	YN	Left	Yes	1.40176650008652	0	319465	252
626.015625	1.40176650008652	health	choicePhaseStart	1	59	59	foodImage.27	FOODEEG_Images\0263.jpg	YN	Left	Yes	1.40176650008652	0	320521	253
627.408203125	0	health	response	1	59	59	foodImage.27	FOODEEG_Images\0263.jpg	YN	Left	Yes	1.40176650008652	0	321234	234
628.451171875	1	decision	trialStart	1	60	60	foodImage.114	FOODEEG_Images\0922.jpg	NY	Left	No	3.37699029990472	0	321768	251
629.490234375	2	decision	foodImageDisplay	1	60	60	foodImage.114	FOODEEG_Images\0922.jpg	NY	Left	No	3.37699029990472	0	322300	252
631.552734375	3.37699029990472	decision	choicePhaseStart	1	60	60	foodImage.114	FOODEEG_Images\0922.jpg	NY	Left	No	3.37699029990472	0	323356	253
634.919921875	0	decision	response	1	60	60	foodImage.114	FOODEEG_Images\0922.jpg	NY	Left	No	3.37699029990472	0	325080	234
636.962890625	9.39453125	n/a	blockEnd	n/a	n/a	n/a	n/a	n/a	n/a	n/a	n/a	n/a	n/a	326126	254
646.357421875	2	n/a	blockStart	2	n/a	n/a	n/a	n/a	n/a	n/a	n/a	n/a	n/a	330936	250
648.388671875	1	decision	trialStart	2	61	1	foodImage.12	FOODEEG_Images\0181.jpg	YN	Left	Yes	1.05383670004085	0	331976	251
649.4296875	2	decision	foodImageDisplay	2	61	1	foodImage.12	FOODEEG_Images\0181.jpg	YN	Left	Yes	1.05383670004085	0	332509	252
651.490234375	1.05383670004085	decision	choicePhaseStart	2	61	1	foodImage.12	FOODEEG_Images\0181.jpg	YN	Left	Yes	1.05383670004085	0	333564	253
652.53515625	0	decision	response	2	61	1	foodImage.12	FOODEEG_Images\0181.jpg	YN	Left	Yes	1.05383670004085	0	334099	234
653.572265625	1	health	trialStart	2	62	2	foodImage.96	FOODEEG_Images\0904.jpg	YN	Left	Yes	1.39978999993764	0	334630	251
654.609375	2	health	foodImageDisplay	2	62	2	foodImage.96	FOODEEG_Images\0904.jpg	YN	Left	Yes	1.39978999993764	0	335161	252
656.671875	1.39978999993764	health	choicePhaseStart	2	62	2	foodImage.96	FOODEEG_Images\0904.jpg	YN	Left	Yes	1.39978999993764	0	336217	253
658.0625	0	health	response	2	62	2	foodImage.96	FOODEEG_Images\0904.jpg	YN	Left	Yes	1.39978999993764	0	336929	234
659.1015625	1	taste	trialStart	2	63	3	foodImage.48	FOODEEG_Images\0494.jpg	YN	Left	Yes	0.812504400033504	0	337461	251
660.140625	2	taste	foodImageDisplay	2	63	3	foodImage.48	FOODEEG_Images\0494.jpg	YN	Left	Yes	0.812504400033504	0	337993	252
662.203125	0.812504400033504	taste	choicePhaseStart	2	63	3	foodImage.48	FOODEEG_Images\0494.jpg	YN	Left	Yes	0.812504400033504	0	339049	253
663.005859375	0	taste	response	2	63	3	foodImage.48	FOODEEG_Images\0494.jpg	YN	Left	Yes	0.812504400033504	0	339460	234
664.044921875	1	health	trialStart	2	64	4	foodImage.4	FOODEEG_Images\0065.jpg	YN	Right	No	0.828682700055651	0	339992	251
665.1015625	2	health	foodImageDisplay	2	64	4	foodImage.4	FOODEEG_Images\0065.jpg	YN	Right	No	0.828682700055651	0	340533	252
667.1640625	0.828682700055651	health	choicePhaseStart	2	64	4	foodImage.4	FOODEEG_Images\0065.jpg	YN	Right	No	0.828682700055651	0	341589	253
667.982421875	0	health	response	2	64	4	foodImage.4	FOODEEG_Images\0065.jpg	YN	Right	No	0.828682700055651	0	342008	235
669.021484375	1	health	trialStart	2	65	5	foodImage.115	FOODEEG_Images\0923.jpg	YN	Left	Yes	1.23092449991964	0	342540	251
670.056640625	2	health	foodImageDisplay	2	65	5	foodImage.115	FOODEEG_Images\0923.jpg	YN	Left	Yes	1.23092449991964	0	343070	252
672.119140625	1.23092449991964	health	choicePhaseStart	2	65	5	foodImage.115	FOODEEG_Images\0923.jpg	YN	Left	Yes	1.23092449991964	0	344126	253
673.341796875	0	health	response	2	65	5	foodImage.115	FOODEEG_Images\0923.jpg	YN	Left	Yes	1.23092449991964	0	344752	234
674.384765625	1	decision	trialStart	2	66	6	foodImage.43	FOODEEG_Images\0445.jpg	YN	Left	Yes	1.56786319997627	0	345286	251
675.4609375	2	decision	foodImageDisplay	2	66	6	foodImage.43	FOODEEG_Images\0445.jpg	YN	Left	Yes	1.56786319997627	0	345837	252
677.525390625	1.56786319997627	decision	choicePhaseStart	2	66	6	foodImage.43	FOODEEG_Images\0445.jpg	YN	Left	Yes	1.56786319997627	0	346894	253
679.0859375	0	decision	response	2	66	6	foodImage.43	FOODEEG_Images\0445.jpg	YN	Left	Yes	1.56786319997627	0	347693	234
680.12890625	1	taste	trialStart	2	67	7	foodImage.62	FOODEEG_Images\0644.jpg	YN	Left	Yes	1.09687230002601	0	348227	251
681.18359375	2	taste	foodImageDisplay	2	67	7	foodImage.62	FOODEEG_Images\0644.jpg	YN	Left	Yes	1.09687230002601	0	348767	252
683.24609375	1.09687230002601	taste	choicePhaseStart	2	67	7	foodImage.62	FOODEEG_Images\0644.jpg	YN	Left	Yes	1.09687230002601	0	349823	253
684.333984375	0	taste	response	2	67	7	foodImage.62	FOODEEG_Images\0644.jpg	YN	Left	Yes	1.09687230002601	0	350380	234
685.376953125	1	health	trialStart	2	68	8	foodImage.109	FOODEEG_Images\0917.jpg	YN	Left	Yes	1.53607659996487	0	350914	251
686.4140625	2	health	foodImageDisplay	2	68	8	foodImage.109	FOODEEG_Images\0917.jpg	YN	Left	Yes	1.53607659996487	0	351445	252
688.478515625	1.53607659996487	health	choicePhaseStart	2	68	8	foodImage.109	FOODEEG_Images\0917.jpg	YN	Left	Yes	1.53607659996487	0	352502	253
690.005859375	0	health	response	2	68	8	foodImage.109	FOODEEG_Images\0917.jpg	YN	Left	Yes	1.53607659996487	0	353284	234
691.048828125	1	health	trialStart	2	69	9	foodImage.33	FOODEEG_Images\0329.jpg	YN	Left	Yes	2.22194389998913	0	353818	251
692.08984375	2	health	foodImageDisplay	2	69	9	foodImage.33	FOODEEG_Images\0329.jpg	YN	Left	Yes	2.22194389998913	0	354351	252
694.15234375	2.22194389998913	health	choicePhaseStart	2	69	9	foodImage.33	FOODEEG_Images\0329.jpg	YN	Left	Yes	2.22194389998913	0	355407	253
696.365234375	0	health	response	2	69	9	foodImage.33	FOODEEG_Images\0329.jpg	YN	Left	Yes	2.22194389998913	0	356540	234
697.408203125	1	decision	trialStart	2	70	10	foodImage.117	FOODEEG_Images\0925.jpg	YN	Left	Yes	0.738060500007123	0	357074	251
698.4453125	2	decision	foodImageDisplay	2	70	10	foodImage.117	FOODEEG_Images\0925.jpg	YN	Left	Yes	0.738060500007123	0	357605	252
700.5078125	0.738060500007123	decision	choicePhaseStart	2	70	10	foodImage.117	FOODEEG_Images\0925.jpg	YN	Left	Yes	0.738060500007123	0	358661	253
701.236328125	0	decision	response	2	70	10	foodImage.117	FOODEEG_Images\0925.jpg	YN	Left	Yes	0.738060500007123	0	359034	234
702.279296875	1	taste	trialStart	2	71	11	foodImage.7	FOODEEG_Images\0116.jpg	YN	Left	Yes	0.772228399990126	0	359568	251
703.33984375	2	taste	foodImageDisplay	2	71	11	foodImage.7	FOODEEG_Images\0116.jpg	YN	Left	Yes	0.772228399990126	0	360111	252
705.40234375	0.772228399990126	taste	choicePhaseStart	2	71	11	foodImage.7	FOODEEG_Images\0116.jpg	YN	Left	Yes	0.772228399990126	0	361167	253
706.1640625	0	taste	response	2	71	11	foodImage.7	FOODEEG_Images\0116.jpg	YN	Left	Yes	0.772228399990126	0	361557	234
707.20703125	1	health	trialStart	2	72	12	foodImage.113	FOODEEG_Images\0921.jpg	YN	Left	Yes	1.14852040004916	0	362091	251
708.244140625	2	health	foodImageDisplay	2	72	12	foodImage.113	FOODEEG_Images\0921.jpg	YN	Left	Yes	1.14852040004916	0	362622	252
710.3046875	1.14852040004916	health	choicePhaseStart	2	72	12	foodImage.113	FOODEEG_Images\0921.jpg	YN	Left	Yes	1.14852040004916	0	363677	253
711.4453125	0	health	response	2	72	12	foodImage.113	FOODEEG_Images\0921.jpg	YN	Left	Yes	1.14852040004916	0	364261	234
712.484375	1	decision	trialStart	2	73	13	foodImage.110	FOODEEG_Images\0918.jpg	NY	Left	No	2.25606689997949	0	364793	251
713.51953125	2	decision	foodImageDisplay	2	73	13	foodImage.110	FOODEEG_Images\0918.jpg	NY	Left	No	2.25606689997949	0	365323	252
715.58203125	2.25606689997949	decision	choicePhaseStart	2	73	13	foodImage.110	FOODEEG_Images\0918.jpg	NY	Left	No	2.25606689997949	0	366379	253
717.828125	0	decision	response	2	73	13	foodImage.110	FOODEEG_Images\0918.jpg	NY	Left	No	2.25606689997949	0	367529	234
718.8671875	1	taste	trialStart	2	74	14	foodImage.12	FOODEEG_Images\0181.jpg	YN	Right	No	1.4227561999578	0	368061	251
719.90625	2	taste	foodImageDisplay	2	74	14	foodImage.12	FOODEEG_Images\0181.jpg	YN	Right	No	1.4227561999578	0	368593	252
721.966796875	1.4227561999578	taste	choicePhaseStart	2	74	14	foodImage.12	FOODEEG_Images\0181.jpg	YN	Right	No	1.4227561999578	0	369648	253
723.380859375	0	taste	response	2	74	14	foodImage.12	FOODEEG_Images\0181.jpg	YN	Right	No	1.4227561999578	0	370372	235
724.41796875	1	taste	trialStart	2	75	15	foodImage.110	FOODEEG_Images\0918.jpg	YN	Right	No	1.32938739995006	0	370903	251
725.455078125	2	taste	foodImageDisplay	2	75	15	foodImage.110	FOODEEG_Images\0918.jpg	YN	Right	No	1.32938739995006	0	371434	252
727.517578125	1.32938739995006	taste	choicePhaseStart	2	75	15	foodImage.110	FOODEEG_Images\0918.jpg	YN	Right	No	1.32938739995006	0	372490	253
728.8359375	0	taste	response	2	75	15	foodImage.110	FOODEEG_Images\0918.jpg	YN	Right	No	1.32938739995006	0	373165	235
729.875	1	health	trialStart	2	76	16	foodImage.26	FOODEEG_Images\0262.jpg	NY	Right	Yes	0.917000000015832	0	373697	251
730.9140625	2	health	foodImageDisplay	2	76	16	foodImage.26	FOODEEG_Images\0262.jpg	NY	Right	Yes	0.917000000015832	0	374229	252
732.9765625	0.917000000015832	health	choicePhaseStart	2	76	16	foodImage.26	FOODEEG_Images\0262.jpg	NY	Right	Yes	0.917000000015832	0	375285	253
733.884765625	0	health	response	2	76	16	foodImage.26	FOODEEG_Images\0262.jpg	NY	Right	Yes	0.917000000015832	0	375750	235
734.923828125	1	decision	trialStart	2	77	17	foodImage.29	FOODEEG_Images\0278.jpg	NY	Left	No	1.45989320008084	0	376282	251
735.962890625	2	decision	foodImageDisplay	2	77	17	foodImage.29	FOODEEG_Images\0278.jpg	NY	Left	No	1.45989320008084	0	376814	252
738.025390625	1.45989320008084	decision	choicePhaseStart	2	77	17	foodImage.29	FOODEEG_Images\0278.jpg	NY	Left	No	1.45989320008084	0	377870	253
739.474609375	0	decision	response	2	77	17	foodImage.29	FOODEEG_Images\0278.jpg	NY	Left	No	1.45989320008084	0	378612	234
740.517578125	1	taste	trialStart	2	78	18	foodImage.49	FOODEEG_Images\0515.jpg	NY	Right	Yes	1.03109980002046	0	379146	251
741.55859375	2	taste	foodImageDisplay	2	78	18	foodImage.49	FOODEEG_Images\0515.jpg	NY	Right	Yes	1.03109980002046	0	379679	252
743.62109375	1.03109980002046	taste	choicePhaseStart	2	78	18	foodImage.49	FOODEEG_Images\0515.jpg	NY	Right	Yes	1.03109980002046	0	380735	253
744.642578125	0	taste	response	2	78	18	foodImage.49	FOODEEG_Images\0515.jpg	NY	Right	Yes	1.03109980002046	0	381258	235
745.685546875	1	decision	trialStart	2	79	19	foodImage.108	FOODEEG_Images\0916.jpg	NY	Left	No	0.98304109997116	0	381792	251
746.7265625	2	decision	foodImageDisplay	2	79	19	foodImage.108	FOODEEG_Images\0916.jpg	NY	Left	No	0.98304109997116	0	382325	252
748.7890625	0.98304109997116	decision	choicePhaseStart	2	79	19	foodImage.108	FOODEEG_Images\0916.jpg	NY	Left	No	0.98304109997116	0	383381	253
749.763671875	0	decision	response	2	79	19	foodImage.108	FOODEEG_Images\0916.jpg	NY	Left	No	0.98304109997116	0	383880	234
750.806640625	1	health	trialStart	2	80	20	foodImage.65	FOODEEG_Images\0658.jpg	YN	Right	No	1.18816349992994	0	384414	251
751.849609375	2	health	foodImageDisplay	2	80	20	foodImage.65	FOODEEG_Images\0658.jpg	YN	Right	No	1.18816349992994	0	384948	252
753.912109375	1.18816349992994	health	choicePhaseStart	2	80	20	foodImage.65	FOODEEG_Images\0658.jpg	YN	Right	No	1.18816349992994	0	386004	253
755.091796875	0	health	response	2	80	20	foodImage.65	FOODEEG_Images\0658.jpg	YN	Right	No	1.18816349992994	0	386608	235
756.1328125	1	taste	trialStart	2	81	21	foodImage.34	FOODEEG_Images\0339.jpg	YN	Left	Yes	0.847698300029151	0	387141	251
757.189453125	2	taste	foodImageDisplay	2	81	21	foodImage.34	FOODEEG_Images\0339.jpg	YN	Left	Yes	0.847698300029151	0	387682	252
759.25390625	0.847698300029151	taste	choicePhaseStart	2	81	21	foodImage.34	FOODEEG_Images\0339.jpg	YN	Left	Yes	0.847698300029151	0	388739	253
760.08984375	0	taste	response	2	81	21	foodImage.34	FOODEEG_Images\0339.jpg	YN	Left	Yes	0.847698300029151	0	389167	234
761.1328125	1	health	trialStart	2	82	22	foodImage.35	FOODEEG_Images\0350.jpg	NY	Left	No	1.30594940006267	0	389701	251
762.169921875	2	health	foodImageDisplay	2	82	22	foodImage.35	FOODEEG_Images\0350.jpg	NY	Left	No	1.30594940006267	0	390232	252
764.232421875	1.30594940006267	health	choicePhaseStart	2	82	22	foodImage.35	FOODEEG_Images\0350.jpg	NY	Left	No	1.30594940006267	0	391288	253
765.529296875	0	health	response	2	82	22	foodImage.35	FOODEEG_Images\0350.jpg	NY	Left	No	1.30594940006267	0	391952	234
766.57421875	1	taste	trialStart	2	83	23	foodImage.86	FOODEEG_Images\0844.jpg	NY	Right	Yes	0.948323499993421	0	392487	251
767.630859375	2	taste	foodImageDisplay	2	83	23	foodImage.86	FOODEEG_Images\0844.jpg	NY	Right	Yes	0.948323499993421	0	393028	252
769.693359375	0.948323499993421	taste	choicePhaseStart	2	83	23	foodImage.86	FOODEEG_Images\0844.jpg	NY	Right	Yes	0.948323499993421	0	394084	253
770.634765625	0	taste	response	2	83	23	foodImage.86	FOODEEG_Images\0844.jpg	NY	Right	Yes	0.948323499993421	0	394566	235
771.677734375	1	decision	trialStart	2	84	24	foodImage.74	FOODEEG_Images\0752.jpg	NY	Right	Yes	0.924813400022686	0	395100	251
772.71875	2	decision	foodImageDisplay	2	84	24	foodImage.74	FOODEEG_Images\0752.jpg	NY	Right	Yes	0.924813400022686	0	395633	252
774.78125	0.924813400022686	decision	choicePhaseStart	2	84	24	foodImage.74	FOODEEG_Images\0752.jpg	NY	Right	Yes	0.924813400022686	0	396689	253
775.697265625	0	decision	response	2	84	24	foodImage.74	FOODEEG_Images\0752.jpg	NY	Right	Yes	0.924813400022686	0	397158	235
776.740234375	1	health	trialStart	2	85	25	foodImage.104	FOODEEG_Images\0912.jpg	NY	Left	No	1.80823610001244	0	397692	251
777.77734375	2	health	foodImageDisplay	2	85	25	foodImage.104	FOODEEG_Images\0912.jpg	NY	Left	No	1.80823610001244	0	398223	252
779.841796875	1.80823610001244	health	choicePhaseStart	2	85	25	foodImage.104	FOODEEG_Images\0912.jpg	NY	Left	No	1.80823610001244	0	399280	253
781.642578125	0	health	response	2	85	25	foodImage.104	FOODEEG_Images\0912.jpg	NY	Left	No	1.80823610001244	0	400202	234
782.6875	1	taste	trialStart	2	86	26	foodImage.3	FOODEEG_Images\0046.jpg	NY	Right	Yes	0.766246599960141	0	400737	251
783.732421875	2	taste	foodImageDisplay	2	86	26	foodImage.3	FOODEEG_Images\0046.jpg	NY	Right	Yes	0.766246599960141	0	401272	252
785.794921875	0.766246599960141	taste	choicePhaseStart	2	86	26	foodImage.3	FOODEEG_Images\0046.jpg	NY	Right	Yes	0.766246599960141	0	402328	253
786.552734375	0	taste	response	2	86	26	foodImage.3	FOODEEG_Images\0046.jpg	NY	Right	Yes	0.766246599960141	0	402716	235
787.599609375	1	taste	trialStart	2	87	27	foodImage.93	FOODEEG_Images\0901.jpg	YN	Left	Yes	1.38063599995803	0	403252	251
788.638671875	2	taste	foodImageDisplay	2	87	27	foodImage.93	FOODEEG_Images\0901.jpg	YN	Left	Yes	1.38063599995803	0	403784	252
790.701171875	1.38063599995803	taste	choicePhaseStart	2	87	27	foodImage.93	FOODEEG_Images\0901.jpg	YN	Left	Yes	1.38063599995803	0	404840	253
792.07421875	0	taste	response	2	87	27	foodImage.93	FOODEEG_Images\0901.jpg	YN	Left	Yes	1.38063599995803	0	405543	234
793.1171875	1	decision	trialStart	2	88	28	foodImage.15	FOODEEG_Images\0189.jpg	NY	Right	Yes	0.760668399976566	0	406077	251
794.171875	2	decision	foodImageDisplay	2	88	28	foodImage.15	FOODEEG_Images\0189.jpg	NY	Right	Yes	0.760668399976566	0	406617	252
796.234375	0.760668399976566	decision	choicePhaseStart	2	88	28	foodImage.15	FOODEEG_Images\0189.jpg	NY	Right	Yes	0.760668399976566	0	407673	253
796.986328125	0	decision	response	2	88	28	foodImage.15	FOODEEG_Images\0189.jpg	NY	Right	Yes	0.760668399976566	0	408058	235
798.033203125	1	taste	trialStart	2	89	29	foodImage.16	FOODEEG_Images\0196.jpg	NY	Left	No	0.984395499923266	0	408594	251
799.091796875	2	taste	foodImageDisplay	2	89	29	foodImage.16	FOODEEG_Images\0196.jpg	NY	Left	No	0.984395499923266	0	409136	252
801.154296875	0.984395499923266	taste	choicePhaseStart	2	89	29	foodImage.16	FOODEEG_Images\0196.jpg	NY	Left	No	0.984395499923266	0	410192	253
802.12890625	0	taste	response	2	89	29	foodImage.16	FOODEEG_Images\0196.jpg	NY	Left	No	0.984395499923266	0	410691	234
803.17578125	1	taste	trialStart	2	90	30	foodImage.96	FOODEEG_Images\0904.jpg	YN	Left	Yes	1.67690079996828	0	411227	251
804.21484375	2	taste	foodImageDisplay	2	90	30	foodImage.96	FOODEEG_Images\0904.jpg	YN	Left	Yes	1.67690079996828	0	411759	252
806.27734375	1.67690079996828	taste	choicePhaseStart	2	90	30	foodImage.96	FOODEEG_Images\0904.jpg	YN	Left	Yes	1.67690079996828	0	412815	253
807.9453125	0	taste	response	2	90	30	foodImage.96	FOODEEG_Images\0904.jpg	YN	Left	Yes	1.67690079996828	0	413669	234
808.9921875	1	health	trialStart	2	91	31	foodImage.83	FOODEEG_Images\0827.jpg	NY	Right	Yes	0.819925800082274	0	414205	251
810.046875	2	health	foodImageDisplay	2	91	31	foodImage.83	FOODEEG_Images\0827.jpg	NY	Right	Yes	0.819925800082274	0	414745	252
812.109375	0.819925800082274	health	choicePhaseStart	2	91	31	foodImage.83	FOODEEG_Images\0827.jpg	NY	Right	Yes	0.819925800082274	0	415801	253
812.919921875	0	health	response	2	91	31	foodImage.83	FOODEEG_Images\0827.jpg	NY	Right	Yes	0.819925800082274	0	416216	235
813.962890625	1	health	trialStart	2	92	32	foodImage.43	FOODEEG_Images\0445.jpg	NY	Right	Yes	0.782632799935527	0	416750	251
815.021484375	2	health	foodImageDisplay	2	92	32	foodImage.43	FOODEEG_Images\0445.jpg	NY	Right	Yes	0.782632799935527	0	417292	252
817.08203125	0.782632799935527	health	choicePhaseStart	2	92	32	foodImage.43	FOODEEG_Images\0445.jpg	NY	Right	Yes	0.782632799935527	0	418347	253
817.85546875	0	health	response	2	92	32	foodImage.43	FOODEEG_Images\0445.jpg	NY	Right	Yes	0.782632799935527	0	418743	235
818.8984375	1	health	trialStart	2	93	33	foodImage.29	FOODEEG_Images\0278.jpg	NY	Right	Yes	0.886816899990663	0	419277	251
819.939453125	2	health	foodImageDisplay	2	93	33	foodImage.29	FOODEEG_Images\0278.jpg	NY	Right	Yes	0.886816899990663	0	419810	252
822.001953125	0.886816899990663	health	choicePhaseStart	2	93	33	foodImage.29	FOODEEG_Images\0278.jpg	NY	Right	Yes	0.886816899990663	0	420866	253
822.880859375	0	health	response	2	93	33	foodImage.29	FOODEEG_Images\0278.jpg	NY	Right	Yes	0.886816899990663	0	421316	235
823.927734375	1	health	trialStart	2	94	34	foodImage.41	FOODEEG_Images\0409.jpg	YN	Right	No	2.6410157000646	0	421852	251
824.974609375	2	health	foodImageDisplay	2	94	34	foodImage.41	FOODEEG_Images\0409.jpg	YN	Right	No	2.6410157000646	0	422388	252
827.041015625	2.6410157000646	health	choicePhaseStart	2	94	34	foodImage.41	FOODEEG_Images\0409.jpg	YN	Right	No	2.6410157000646	0	423446	253
829.671875	0	health	response	2	94	34	foodImage.41	FOODEEG_Images\0409.jpg	YN	Right	No	2.6410157000646	0	424793	235
830.71484375	1	decision	trialStart	2	95	35	foodImage.78	FOODEEG_Images\0787.jpg	NY	Right	Yes	1.43533430004027	0	425327	251
831.7578125	2	decision	foodImageDisplay	2	95	35	foodImage.78	FOODEEG_Images\0787.jpg	NY	Right	Yes	1.43533430004027	0	425861	252
833.8203125	1.43533430004027	decision	choicePhaseStart	2	95	35	foodImage.78	FOODEEG_Images\0787.jpg	NY	Right	Yes	1.43533430004027	0	426917	253
835.248046875	0	decision	response	2	95	35	foodImage.78	FOODEEG_Images\0787.jpg	NY	Right	Yes	1.43533430004027	0	427648	235
836.291015625	1	taste	trialStart	2	96	36	foodImage.98	FOODEEG_Images\0906.jpg	NY	Left	No	1.2086765000131	0	428182	251
837.328125	2	taste	foodImageDisplay	2	96	36	foodImage.98	FOODEEG_Images\0906.jpg	NY	Left	No	1.2086765000131	0	428713	252
839.392578125	1.2086765000131	taste	choicePhaseStart	2	96	36	foodImage.98	FOODEEG_Images\0906.jpg	NY	Left	No	1.2086765000131	0	429770	253
840.591796875	0	taste	response	2	96	36	foodImage.98	FOODEEG_Images\0906.jpg	NY	Left	No	1.2086765000131	0	430384	234
841.634765625	1	taste	trialStart	2	97	37	foodImage.8	FOODEEG_Images\0136.jpg	NY	Right	Yes	0.853291500010528	0	430918	251
842.67578125	2	taste	foodImageDisplay	2	97	37	foodImage.8	FOODEEG_Images\0136.jpg	NY	Right	Yes	0.853291500010528	0	431451	252
844.73828125	0.853291500010528	taste	choicePhaseStart	2	97	37	foodImage.8	FOODEEG_Images\0136.jpg	NY	Right	Yes	0.853291500010528	0	432507	253
845.583984375	0	taste	response	2	97	37	foodImage.8	FOODEEG_Images\0136.jpg	NY	Right	Yes	0.853291500010528	0	432940	235
846.626953125	1	taste	trialStart	2	98	38	foodImage.65	FOODEEG_Images\0658.jpg	NY	Left	No	1.18915859994013	0	433474	251
847.666015625	2	taste	foodImageDisplay	2	98	38	foodImage.65	FOODEEG_Images\0658.jpg	NY	Left	No	1.18915859994013	0	434006	252
849.728515625	1.18915859994013	taste	choicePhaseStart	2	98	38	foodImage.65	FOODEEG_Images\0658.jpg	NY	Left	No	1.18915859994013	0	435062	253
850.91015625	0	taste	response	2	98	38	foodImage.65	FOODEEG_Images\0658.jpg	NY	Left	No	1.18915859994013	0	435667	234
851.955078125	1	taste	trialStart	2	99	39	foodImage.5	FOODEEG_Images\0107.jpg	NY	Right	Yes	0.6461047999328	0	436202	251
853.01171875	2	taste	foodImageDisplay	2	99	39	foodImage.5	FOODEEG_Images\0107.jpg	NY	Right	Yes	0.6461047999328	0	436743	252
855.07421875	0.6461047999328	taste	choicePhaseStart	2	99	39	foodImage.5	FOODEEG_Images\0107.jpg	NY	Right	Yes	0.6461047999328	0	437799	253
855.7109375	0	taste	response	2	99	39	foodImage.5	FOODEEG_Images\0107.jpg	NY	Right	Yes	0.6461047999328	0	438125	235
856.751953125	1	taste	trialStart	2	100	40	foodImage.77	FOODEEG_Images\0771.jpg	YN	Left	Yes	0.918023200007156	0	438658	251
857.794921875	2	taste	foodImageDisplay	2	100	40	foodImage.77	FOODEEG_Images\0771.jpg	YN	Left	Yes	0.918023200007156	0	439192	252
859.857421875	0.918023200007156	taste	choicePhaseStart	2	100	40	foodImage.77	FOODEEG_Images\0771.jpg	YN	Left	Yes	0.918023200007156	0	440248	253
860.767578125	0	taste	response	2	100	40	foodImage.77	FOODEEG_Images\0771.jpg	YN	Left	Yes	0.918023200007156	0	440714	234
861.80859375	1	decision	trialStart	2	101	41	foodImage.102	FOODEEG_Images\0910.jpg	YN	Left	Yes	1.56075649999548	0	441247	251
862.84765625	2	decision	foodImageDisplay	2	101	41	foodImage.102	FOODEEG_Images\0910.jpg	YN	Left	Yes	1.56075649999548	0	441779	252
864.91015625	1.56075649999548	decision	choicePhaseStart	2	101	41	foodImage.102	FOODEEG_Images\0910.jpg	YN	Left	Yes	1.56075649999548	0	442835	253
866.462890625	0	decision	response	2	101	41	foodImage.102	FOODEEG_Images\0910.jpg	YN	Left	Yes	1.56075649999548	0	443630	234
867.50390625	1	decision	trialStart	2	102	42	foodImage.51	FOODEEG_Images\0536.jpg	YN	Left	Yes	1.42700919997878	0	444163	251
868.548828125	2	decision	foodImageDisplay	2	102	42	foodImage.51	FOODEEG_Images\0536.jpg	YN	Left	Yes	1.42700919997878	0	444698	252
870.611328125	1.42700919997878	decision	choicePhaseStart	2	102	42	foodImage.51	FOODEEG_Images\0536.jpg	YN	Left	Yes	1.42700919997878	0	445754	253
872.029296875	0	decision	response	2	102	42	foodImage.51	FOODEEG_Images\0536.jpg	YN	Left	Yes	1.42700919997878	0	446480	234
873.078125	1	health	trialStart	2	103	43	foodImage.72	FOODEEG_Images\0714.jpg	YN	Right	No	1.29600410000421	0	447017	251
874.12890625	2	health	foodImageDisplay	2	103	43	foodImage.72	FOODEEG_Images\0714.jpg	YN	Right	No	1.29600410000421	0	447555	252
876.19140625	1.29600410000421	health	choicePhaseStart	2	103	43	foodImage.72	FOODEEG_Images\0714.jpg	YN	Right	No	1.29600410000421	0	448611	253
877.478515625	0	health	response	2	103	43	foodImage.72	FOODEEG_Images\0714.jpg	YN	Right	No	1.29600410000421	0	449270	235
878.51953125	1	health	trialStart	2	104	44	foodImage.79	FOODEEG_Images\0794.jpg	NY	Right	Yes	0.954965700046159	0	449803	251
879.564453125	2	health	foodImageDisplay	2	104	44	foodImage.79	FOODEEG_Images\0794.jpg	NY	Right	Yes	0.954965700046159	0	450338	252
881.626953125	0.954965700046159	health	choicePhaseStart	2	104	44	foodImage.79	FOODEEG_Images\0794.jpg	NY	Right	Yes	0.954965700046159	0	451394	253
882.57421875	0	health	response	2	104	44	foodImage.79	FOODEEG_Images\0794.jpg	NY	Right	Yes	0.954965700046159	0	451879	235
883.615234375	1	health	trialStart	2	105	45	foodImage.73	FOODEEG_Images\0717.jpg	NY	Left	No	1.59056749998126	0	452412	251
884.673828125	2	health	foodImageDisplay	2	105	45	foodImage.73	FOODEEG_Images\0717.jpg	NY	Left	No	1.59056749998126	0	452954	252
886.736328125	1.59056749998126	health	choicePhaseStart	2	105	45	foodImage.73	FOODEEG_Images\0717.jpg	NY	Left	No	1.59056749998126	0	454010	253
888.318359375	0	health	response	2	105	45	foodImage.73	FOODEEG_Images\0717.jpg	NY	Left	No	1.59056749998126	0	454820	234
889.359375	1	decision	trialStart	2	106	46	foodImage.88	FOODEEG_Images\0878.jpg	YN	Left	Yes	0.938817100017332	0	455353	251
890.4140625	2	decision	foodImageDisplay	2	106	46	foodImage.88	FOODEEG_Images\0878.jpg	YN	Left	Yes	0.938817100017332	0	455893	252
892.474609375	0.938817100017332	decision	choicePhaseStart	2	106	46	foodImage.88	FOODEEG_Images\0878.jpg	YN	Left	Yes	0.938817100017332	0	456948	253
893.404296875	0	decision	response	2	106	46	foodImage.88	FOODEEG_Images\0878.jpg	YN	Left	Yes	0.938817100017332	0	457424	234
894.447265625	1	taste	trialStart	2	107	47	foodImage.2	FOODEEG_Images\0028.jpg	NY	Right	Yes	0.900728500098921	0	457958	251
895.490234375	2	taste	foodImageDisplay	2	107	47	foodImage.2	FOODEEG_Images\0028.jpg	NY	Right	Yes	0.900728500098921	0	458492	252
897.552734375	0.900728500098921	taste	choicePhaseStart	2	107	47	foodImage.2	FOODEEG_Images\0028.jpg	NY	Right	Yes	0.900728500098921	0	459548	253
898.4453125	0	taste	response	2	107	47	foodImage.2	FOODEEG_Images\0028.jpg	NY	Right	Yes	0.900728500098921	0	460005	235
899.48828125	1	health	trialStart	2	108	48	foodImage.42	FOODEEG_Images\0438.jpg	NY	Right	Yes	1.16661430010572	0	460539	251
900.578125	2	health	foodImageDisplay	2	108	48	foodImage.42	FOODEEG_Images\0438.jpg	NY	Right	Yes	1.16661430010572	0	461097	252
902.640625	1.16661430010572	health	choicePhaseStart	2	108	48	foodImage.42	FOODEEG_Images\0438.jpg	NY	Right	Yes	1.16661430010572	0	462153	253
903.796875	0	health	response	2	108	48	foodImage.42	FOODEEG_Images\0438.jpg	NY	Right	Yes	1.16661430010572	0	462745	235
904.83984375	1	health	trialStart	2	109	49	foodImage.86	FOODEEG_Images\0844.jpg	NY	Right	Yes	0.964629099937156	0	463279	251
905.8984375	2	health	foodImageDisplay	2	109	49	foodImage.86	FOODEEG_Images\0844.jpg	NY	Right	Yes	0.964629099937156	0	463821	252
907.9609375	0.964629099937156	health	choicePhaseStart	2	109	49	foodImage.86	FOODEEG_Images\0844.jpg	NY	Right	Yes	0.964629099937156	0	464877	253
908.916015625	0	health	response	2	109	49	foodImage.86	FOODEEG_Images\0844.jpg	NY	Right	Yes	0.964629099937156	0	465366	235
909.958984375	1	decision	trialStart	2	110	50	foodImage.19	FOODEEG_Images\0225.jpg	YN	Left	Yes	1.19857500004582	0	465900	251
911	2	decision	foodImageDisplay	2	110	50	foodImage.19	FOODEEG_Images\0225.jpg	YN	Left	Yes	1.19857500004582	0	466433	252
913.0625	1.19857500004582	decision	choicePhaseStart	2	110	50	foodImage.19	FOODEEG_Images\0225.jpg	YN	Left	Yes	1.19857500004582	0	467489	253
914.251953125	0	decision	response	2	110	50	foodImage.19	FOODEEG_Images\0225.jpg	YN	Left	Yes	1.19857500004582	0	468098	234
915.296875	1	health	trialStart	2	111	51	foodImage.31	FOODEEG_Images\0294.jpg	YN	Right	No	0.925173899973743	0	468633	251
916.3359375	2	health	foodImageDisplay	2	111	51	foodImage.31	FOODEEG_Images\0294.jpg	YN	Right	No	0.925173899973743	0	469165	252
918.3984375	0.925173899973743	health	choicePhaseStart	2	111	51	foodImage.31	FOODEEG_Images\0294.jpg	YN	Right	No	0.925173899973743	0	470221	253
919.31640625	0	health	response	2	111	51	foodImage.31	FOODEEG_Images\0294.jpg	YN	Right	No	0.925173899973743	0	470691	235
920.361328125	1	taste	trialStart	2	112	52	foodImage.114	FOODEEG_Images\0922.jpg	YN	Right	No	1.09664560004603	0	471226	251
921.3984375	2	taste	foodImageDisplay	2	112	52	foodImage.114	FOODEEG_Images\0922.jpg	YN	Right	No	1.09664560004603	0	471757	252
923.4609375	1.09664560004603	taste	choicePhaseStart	2	112	52	foodImage.114	FOODEEG_Images\0922.jpg	YN	Right	No	1.09664560004603	0	472813	253
924.548828125	0	taste	response	2	112	52	foodImage.114	FOODEEG_Images\0922.jpg	YN	Right	No	1.09664560004603	0	473370	235
925.58984375	1	decision	trialStart	2	113	53	foodImage.107	FOODEEG_Images\0915.jpg	YN	Left	Yes	1.52406460000202	0	473903	251
926.626953125	2	decision	foodImageDisplay	2	113	53	foodImage.107	FOODEEG_Images\0915.jpg	YN	Left	Yes	1.52406460000202	0	474434	252
928.689453125	1.52406460000202	decision	choicePhaseStart	2	113	53	foodImage.107	FOODEEG_Images\0915.jpg	YN	Left	Yes	1.52406460000202	0	475490	253
930.203125	0	decision	response	2	113	53	foodImage.107	FOODEEG_Images\0915.jpg	YN	Left	Yes	1.52406460000202	0	476265	234
931.248046875	1	health	trialStart	2	114	54	foodImage.119	FOODEEG_Images\0927.jpg	YN	Right	No	1.64792529994156	0	476800	251
932.28515625	2	health	foodImageDisplay	2	114	54	foodImage.119	FOODEEG_Images\0927.jpg	YN	Right	No	1.64792529994156	0	477331	252
934.34765625	1.64792529994156	health	choicePhaseStart	2	114	54	foodImage.119	FOODEEG_Images\0927.jpg	YN	Right	No	1.64792529994156	0	478387	253
935.98828125	0	health	response	2	114	54	foodImage.119	FOODEEG_Images\0927.jpg	YN	Right	No	1.64792529994156	0	479227	235
937.029296875	1	decision	trialStart	2	115	55	foodImage.36	FOODEEG_Images\0352.jpg	NY	Right	Yes	1.10430970008019	0	479760	251
938.0859375	2	decision	foodImageDisplay	2	115	55	foodImage.36	FOODEEG_Images\0352.jpg	NY	Right	Yes	1.10430970008019	0	480301	252
940.146484375	1.10430970008019	decision	choicePhaseStart	2	115	55	foodImage.36	FOODEEG_Images\0352.jpg	NY	Right	Yes	1.10430970008019	0	481356	253
941.244140625	0	decision	response	2	115	55	foodImage.36	FOODEEG_Images\0352.jpg	NY	Right	Yes	1.10430970008019	0	481918	235
942.28515625	1	decision	trialStart	2	116	56	foodImage.31	FOODEEG_Images\0294.jpg	NY	Right	Yes	1.54206439992413	0	482451	251
943.328125	2	decision	foodImageDisplay	2	116	56	foodImage.31	FOODEEG_Images\0294.jpg	NY	Right	Yes	1.54206439992413	0	482985	252
945.390625	1.54206439992413	decision	choicePhaseStart	2	116	56	foodImage.31	FOODEEG_Images\0294.jpg	NY	Right	Yes	1.54206439992413	0	484041	253
946.923828125	0	decision	response	2	116	56	foodImage.31	FOODEEG_Images\0294.jpg	NY	Right	Yes	1.54206439992413	0	484826	235
947.966796875	1	decision	trialStart	2	117	57	foodImage.92	FOODEEG_Images\0900.jpg	YN	Left	Yes	0.98376139998436	0	485360	251
949.00390625	2	decision	foodImageDisplay	2	117	57	foodImage.92	FOODEEG_Images\0900.jpg	YN	Left	Yes	0.98376139998436	0	485891	252
951.06640625	0.98376139998436	decision	choicePhaseStart	2	117	57	foodImage.92	FOODEEG_Images\0900.jpg	YN	Left	Yes	0.98376139998436	0	486947	253
952.04296875	0	decision	response	2	117	57	foodImage.92	FOODEEG_Images\0900.jpg	YN	Left	Yes	0.98376139998436	0	487447	234
953.08984375	1	decision	trialStart	2	118	58	foodImage.99	FOODEEG_Images\0907.jpg	NY	Left	No	0.759046799968928	0	487983	251
954.126953125	2	decision	foodImageDisplay	2	118	58	foodImage.99	FOODEEG_Images\0907.jpg	NY	Left	No	0.759046799968928	0	488514	252
956.189453125	0.759046799968928	decision	choicePhaseStart	2	118	58	foodImage.99	FOODEEG_Images\0907.jpg	NY	Left	No	0.759046799968928	0	489570	253
956.939453125	0	decision	response	2	118	58	foodImage.99	FOODEEG_Images\0907.jpg	NY	Left	No	0.759046799968928	0	489954	234
957.982421875	1	decision	trialStart	2	119	59	foodImage.33	FOODEEG_Images\0329.jpg	NY	Right	Yes	1.45334740006365	0	490488	251
959.0234375	2	decision	foodImageDisplay	2	119	59	foodImage.33	FOODEEG_Images\0329.jpg	NY	Right	Yes	1.45334740006365	0	491021	252
961.0859375	1.45334740006365	decision	choicePhaseStart	2	119	59	foodImage.33	FOODEEG_Images\0329.jpg	NY	Right	Yes	1.45334740006365	0	492077	253
962.53125	0	decision	response	2	119	59	foodImage.33	FOODEEG_Images\0329.jpg	NY	Right	Yes	1.45334740006365	0	492817	235
963.578125	1	taste	trialStart	2	120	60	foodImage.44	FOODEEG_Images\0459.jpg	NY	Right	Yes	0.897889800020494	0	493353	251
964.634765625	2	taste	foodImageDisplay	2	120	60	foodImage.44	FOODEEG_Images\0459.jpg	NY	Right	Yes	0.897889800020494	0	493894	252
966.697265625	0.897889800020494	taste	choicePhaseStart	2	120	60	foodImage.44	FOODEEG_Images\0459.jpg	NY	Right	Yes	0.897889800020494	0	494950	253
967.5859375	0	taste	response	2	120	60	foodImage.44	FOODEEG_Images\0459.jpg	NY	Right	Yes	0.897889800020494	0	495405	235
969.626953125	13.435546875	n/a	blockEnd	n/a	n/a	n/a	n/a	n/a	n/a	n/a	n/a	n/a	n/a	496450	254
983.0625	2	n/a	blockStart	3	n/a	n/a	n/a	n/a	n/a	n/a	n/a	n/a	n/a	503329	250
985.099609375	1	decision	trialStart	3	121	1	foodImage.89	FOODEEG_Images\0881.jpg	NY	Right	Yes	0.757409799960442	0	504372	251
986.15625	2	decision	foodImageDisplay	3	121	1	foodImage.89	FOODEEG_Images\0881.jpg	NY	Right	Yes	0.757409799960442	0	504913	252
988.220703125	0.757409799960442	decision	choicePhaseStart	3	121	1	foodImage.89	FOODEEG_Images\0881.jpg	NY	Right	Yes	0.757409799960442	0	505970	253
988.96875	0	decision	response	3	121	1	foodImage.89	FOODEEG_Images\0881.jpg	NY	Right	Yes	0.757409799960442	0	506353	235
990.01171875	1	taste	trialStart	3	122	2	foodImage.24	FOODEEG_Images\0250.jpg	YN	Right	No	1.342810299946	0	506887	251
991.052734375	2	taste	foodImageDisplay	3	122	2	foodImage.24	FOODEEG_Images\0250.jpg	YN	Right	No	1.342810299946	0	507420	252
993.115234375	1.342810299946	taste	choicePhaseStart	3	122	2	foodImage.24	FOODEEG_Images\0250.jpg	YN	Right	No	1.342810299946	0	508476	253
994.44921875	0	taste	response	3	122	2	foodImage.24	FOODEEG_Images\0250.jpg	YN	Right	No	1.342810299946	0	509159	235
995.490234375	1	health	trialStart	3	123	3	foodImage.17	FOODEEG_Images\0199.jpg	YN	Left	Yes	0.912098300061189	0	509692	251
996.53125	2	health	foodImageDisplay	3	123	3	foodImage.17	FOODEEG_Images\0199.jpg	YN	Left	Yes	0.912098300061189	0	510225	252
998.59375	0.912098300061189	health	choicePhaseStart	3	123	3	foodImage.17	FOODEEG_Images\0199.jpg	YN	Left	Yes	0.912098300061189	0	511281	253
999.498046875	0	health	response	3	123	3	foodImage.17	FOODEEG_Images\0199.jpg	YN	Left	Yes	0.912098300061189	0	511744	234
1000.5390625	1	taste	trialStart	3	124	4	foodImage.23	FOODEEG_Images\0244.jpg	NY	Left	No	0.949621499981731	0	512277	251
1001.580078125	2	taste	foodImageDisplay	3	124	4	foodImage.23	FOODEEG_Images\0244.jpg	NY	Left	No	0.949621499981731	0	512810	252
1003.642578125	0.949621499981731	taste	choicePhaseStart	3	124	4	foodImage.23	FOODEEG_Images\0244.jpg	NY	Left	No	0.949621499981731	0	513866	253
1004.5859375	0	taste	response	3	124	4	foodImage.23	FOODEEG_Images\0244.jpg	NY	Left	No	0.949621499981731	0	514349	234
1005.62890625	1	taste	trialStart	3	125	5	foodImage.28	FOODEEG_Images\0273.jpg	YN	Right	No	1.21170279989019	0	514883	251
1006.671875	2	taste	foodImageDisplay	3	125	5	foodImage.28	FOODEEG_Images\0273.jpg	YN	Right	No	1.21170279989019	0	515417	252
1008.734375	1.21170279989019	taste	choicePhaseStart	3	125	5	foodImage.28	FOODEEG_Images\0273.jpg	YN	Right	No	1.21170279989019	0	516473	253
1009.9375	0	taste	response	3	125	5	foodImage.28	FOODEEG_Images\0273.jpg	YN	Right	No	1.21170279989019	0	517089	235
1010.98046875	1	health	trialStart	3	126	6	foodImage.66	FOODEEG_Images\0676.jpg	NY	Left	No	0.860592700075358	0	517623	251
1012.0234375	2	health	foodImageDisplay	3	126	6	foodImage.66	FOODEEG_Images\0676.jpg	NY	Left	No	0.860592700075358	0	518157	252
1014.0859375	0.860592700075358	health	choicePhaseStart	3	126	6	foodImage.66	FOODEEG_Images\0676.jpg	NY	Left	No	0.860592700075358	0	519213	253
1014.935546875	0	health	response	3	126	6	foodImage.66	FOODEEG_Images\0676.jpg	NY	Left	No	0.860592700075358	0	519648	234
1015.984375	1	taste	trialStart	3	127	7	foodImage.102	FOODEEG_Images\0910.jpg	YN	Left	Yes	1.35311370005365	0	520185	251
1017.0234375	2	taste	foodImageDisplay	3	127	7	foodImage.102	FOODEEG_Images\0910.jpg	YN	Left	Yes	1.35311370005365	0	520717	252
1019.087890625	1.35311370005365	taste	choicePhaseStart	3	127	7	foodImage.102	FOODEEG_Images\0910.jpg	YN	Left	Yes	1.35311370005365	0	521774	253
1020.431640625	0	taste	response	3	127	7	foodImage.102	FOODEEG_Images\0910.jpg	YN	Left	Yes	1.35311370005365	0	522462	234
1021.474609375	1	decision	trialStart	3	128	8	foodImage.65	FOODEEG_Images\0658.jpg	NY	Right	Yes	1.12542189995293	0	522996	251
1022.515625	2	decision	foodImageDisplay	3	128	8	foodImage.65	FOODEEG_Images\0658.jpg	NY	Right	Yes	1.12542189995293	0	523529	252
1024.580078125	1.12542189995293	decision	choicePhaseStart	3	128	8	foodImage.65	FOODEEG_Images\0658.jpg	NY	Right	Yes	1.12542189995293	0	524586	253
1025.6953125	0	decision	response	3	128	8	foodImage.65	FOODEEG_Images\0658.jpg	NY	Right	Yes	1.12542189995293	0	525157	235
1026.73828125	1	taste	trialStart	3	129	9	foodImage.68	FOODEEG_Images\0685.jpg	NY	Right	Yes	1.25203660002444	0	525691	251
1027.814453125	2	taste	foodImageDisplay	3	129	9	foodImage.68	FOODEEG_Images\0685.jpg	NY	Right	Yes	1.25203660002444	0	526242	252
1029.876953125	1.25203660002444	taste	choicePhaseStart	3	129	9	foodImage.68	FOODEEG_Images\0685.jpg	NY	Right	Yes	1.25203660002444	0	527298	253
1031.119140625	0	taste	response	3	129	9	foodImage.68	FOODEEG_Images\0685.jpg	NY	Right	Yes	1.25203660002444	0	527934	235
1032.162109375	1	decision	trialStart	3	130	10	foodImage.58	FOODEEG_Images\0605.jpg	YN	Left	Yes	0.998812600038946	0	528468	251
1033.21875	2	decision	foodImageDisplay	3	130	10	foodImage.58	FOODEEG_Images\0605.jpg	YN	Left	Yes	0.998812600038946	0	529009	252
1035.28125	0.998812600038946	decision	choicePhaseStart	3	130	10	foodImage.58	FOODEEG_Images\0605.jpg	YN	Left	Yes	0.998812600038946	0	530065	253
1036.271484375	0	decision	response	3	130	10	foodImage.58	FOODEEG_Images\0605.jpg	YN	Left	Yes	0.998812600038946	0	530572	234
1037.314453125	1	health	trialStart	3	131	11	foodImage.47	FOODEEG_Images\0488.jpg	NY	Left	No	0.989752700086683	0	531106	251
1038.357421875	2	health	foodImageDisplay	3	131	11	foodImage.47	FOODEEG_Images\0488.jpg	NY	Left	No	0.989752700086683	0	531640	252
1040.419921875	0.989752700086683	health	choicePhaseStart	3	131	11	foodImage.47	FOODEEG_Images\0488.jpg	NY	Left	No	0.989752700086683	0	532696	253
1041.400390625	0	health	response	3	131	11	foodImage.47	FOODEEG_Images\0488.jpg	NY	Left	No	0.989752700086683	0	533198	234
1042.44140625	1	health	trialStart	3	132	12	foodImage.68	FOODEEG_Images\0685.jpg	NY	Left	No	0.831786999944597	0	533731	251
1043.513671875	2	health	foodImageDisplay	3	132	12	foodImage.68	FOODEEG_Images\0685.jpg	NY	Left	No	0.831786999944597	0	534280	252
1045.576171875	0.831786999944597	health	choicePhaseStart	3	132	12	foodImage.68	FOODEEG_Images\0685.jpg	NY	Left	No	0.831786999944597	0	535336	253
1046.3984375	0	health	response	3	132	12	foodImage.68	FOODEEG_Images\0685.jpg	NY	Left	No	0.831786999944597	0	535757	234
1047.44140625	1	health	trialStart	3	133	13	foodImage.106	FOODEEG_Images\0914.jpg	NY	Left	No	1.56248749990482	0	536291	251
1048.478515625	2	health	foodImageDisplay	3	133	13	foodImage.106	FOODEEG_Images\0914.jpg	NY	Left	No	1.56248749990482	0	536822	252
1050.541015625	1.56248749990482	health	choicePhaseStart	3	133	13	foodImage.106	FOODEEG_Images\0914.jpg	NY	Left	No	1.56248749990482	0	537878	253
1052.095703125	0	health	response	3	133	13	foodImage.106	FOODEEG_Images\0914.jpg	NY	Left	No	1.56248749990482	0	538674	234
1053.138671875	1	health	trialStart	3	134	14	foodImage.62	FOODEEG_Images\0644.jpg	YN	Left	Yes	1.31702099996619	0	539208	251
1054.197265625	2	health	foodImageDisplay	3	134	14	foodImage.62	FOODEEG_Images\0644.jpg	YN	Left	Yes	1.31702099996619	0	539750	252
1056.259765625	1.31702099996619	health	choicePhaseStart	3	134	14	foodImage.62	FOODEEG_Images\0644.jpg	YN	Left	Yes	1.31702099996619	0	540806	253
1057.56640625	0	health	response	3	134	14	foodImage.62	FOODEEG_Images\0644.jpg	YN	Left	Yes	1.31702099996619	0	541475	234
1058.615234375	1	health	trialStart	3	135	15	foodImage.51	FOODEEG_Images\0536.jpg	YN	Right	No	1.12283589993604	0	542012	251
1059.66015625	2	health	foodImageDisplay	3	135	15	foodImage.51	FOODEEG_Images\0536.jpg	YN	Right	No	1.12283589993604	0	542547	252
1061.72265625	1.12283589993604	health	choicePhaseStart	3	135	15	foodImage.51	FOODEEG_Images\0536.jpg	YN	Right	No	1.12283589993604	0	543603	253
1062.837890625	0	health	response	3	135	15	foodImage.51	FOODEEG_Images\0536.jpg	YN	Right	No	1.12283589993604	0	544174	235
1063.888671875	1	taste	trialStart	3	136	16	foodImage.112	FOODEEG_Images\0920.jpg	NY	Left	No	1.05118660000153	0	544712	251
1064.92578125	2	taste	foodImageDisplay	3	136	16	foodImage.112	FOODEEG_Images\0920.jpg	NY	Left	No	1.05118660000153	0	545243	252
1066.98828125	1.05118660000153	taste	choicePhaseStart	3	136	16	foodImage.112	FOODEEG_Images\0920.jpg	NY	Left	No	1.05118660000153	0	546299	253
1068.03125	0	taste	response	3	136	16	foodImage.112	FOODEEG_Images\0920.jpg	NY	Left	No	1.05118660000153	0	546833	234
1069.07421875	1	taste	trialStart	3	137	17	foodImage.109	FOODEEG_Images\0917.jpg	YN	Right	No	1.25845139997546	0	547367	251
1070.111328125	2	taste	foodImageDisplay	3	137	17	foodImage.109	FOODEEG_Images\0917.jpg	YN	Right	No	1.25845139997546	0	547898	252
1072.171875	1.25845139997546	taste	choicePhaseStart	3	137	17	foodImage.109	FOODEEG_Images\0917.jpg	YN	Right	No	1.25845139997546	0	548953	253
1073.421875	0	taste	response	3	137	17	foodImage.109	FOODEEG_Images\0917.jpg	YN	Right	No	1.25845139997546	0	549593	235
1074.470703125	1	taste	trialStart	3	138	18	foodImage.111	FOODEEG_Images\0919.jpg	NY	Left	No	0.941773599945009	0	550130	251
1075.5078125	2	taste	foodImageDisplay	3	138	18	foodImage.111	FOODEEG_Images\0919.jpg	NY	Left	No	0.941773599945009	0	550661	252
1077.5703125	0.941773599945009	taste	choicePhaseStart	3	138	18	foodImage.111	FOODEEG_Images\0919.jpg	NY	Left	No	0.941773599945009	0	551717	253
1078.501953125	0	taste	response	3	138	18	foodImage.111	FOODEEG_Images\0919.jpg	NY	Left	No	0.941773599945009	0	552194	234
1079.544921875	1	health	trialStart	3	139	19	foodImage.38	FOODEEG_Images\0365.jpg	YN	Left	Yes	1.48902079998516	0	552728	251
1080.583984375	2	health	foodImageDisplay	3	139	19	foodImage.38	FOODEEG_Images\0365.jpg	YN	Left	Yes	1.48902079998516	0	553260	252
1082.646484375	1.48902079998516	health	choicePhaseStart	3	139	19	foodImage.38	FOODEEG_Images\0365.jpg	YN	Left	Yes	1.48902079998516	0	554316	253
1084.125	0	health	response	3	139	19	foodImage.38	FOODEEG_Images\0365.jpg	YN	Left	Yes	1.48902079998516	0	555073	234
1085.16796875	1	health	trialStart	3	140	20	foodImage.108	FOODEEG_Images\0916.jpg	YN	Left	Yes	1.90494359994773	0	555607	251
1086.20703125	2	health	foodImageDisplay	3	140	20	foodImage.108	FOODEEG_Images\0916.jpg	YN	Left	Yes	1.90494359994773	0	556139	252
1088.26953125	1.90494359994773	health	choicePhaseStart	3	140	20	foodImage.108	FOODEEG_Images\0916.jpg	YN	Left	Yes	1.90494359994773	0	557195	253
1090.166015625	0	health	response	3	140	20	foodImage.108	FOODEEG_Images\0916.jpg	YN	Left	Yes	1.90494359994773	0	558166	234
1091.208984375	1	decision	trialStart	3	141	21	foodImage.103	FOODEEG_Images\0911.jpg	YN	Right	No	1.22080819995608	0	558700	251
1092.25	2	decision	foodImageDisplay	3	141	21	foodImage.103	FOODEEG_Images\0911.jpg	YN	Right	No	1.22080819995608	0	559233	252
1094.3125	1.22080819995608	decision	choicePhaseStart	3	141	21	foodImage.103	FOODEEG_Images\0911.jpg	YN	Right	No	1.22080819995608	0	560289	253
1095.525390625	0	decision	response	3	141	21	foodImage.103	FOODEEG_Images\0911.jpg	YN	Right	No	1.22080819995608	0	560910	235
1096.568359375	1	decision	trialStart	3	142	22	foodImage.24	FOODEEG_Images\0250.jpg	NY	Left	No	2.95720850001089	0	561444	251
1097.609375	2	decision	foodImageDisplay	3	142	22	foodImage.24	FOODEEG_Images\0250.jpg	NY	Left	No	2.95720850001089	0	561977	252
1099.671875	2.95720850001089	decision	choicePhaseStart	3	142	22	foodImage.24	FOODEEG_Images\0250.jpg	NY	Left	No	2.95720850001089	0	563033	253
1102.62109375	0	decision	response	3	142	22	foodImage.24	FOODEEG_Images\0250.jpg	NY	Left	No	2.95720850001089	0	564543	234
1103.6640625	1	taste	trialStart	3	143	23	foodImage.108	FOODEEG_Images\0916.jpg	YN	Right	No	1.00125019997358	0	565077	251
1104.703125	2	taste	foodImageDisplay	3	143	23	foodImage.108	FOODEEG_Images\0916.jpg	YN	Right	No	1.00125019997358	0	565609	252
1106.765625	1.00125019997358	taste	choicePhaseStart	3	143	23	foodImage.108	FOODEEG_Images\0916.jpg	YN	Right	No	1.00125019997358	0	566665	253
1107.7578125	0	taste	response	3	143	23	foodImage.108	FOODEEG_Images\0916.jpg	YN	Right	No	1.00125019997358	0	567173	235
1108.80078125	1	health	trialStart	3	144	24	foodImage.89	FOODEEG_Images\0881.jpg	YN	Left	Yes	2.59793389996048	0	567707	251
1109.857421875	2	health	foodImageDisplay	3	144	24	foodImage.89	FOODEEG_Images\0881.jpg	YN	Left	Yes	2.59793389996048	0	568248	252
1111.91796875	2.59793389996048	health	choicePhaseStart	3	144	24	foodImage.89	FOODEEG_Images\0881.jpg	YN	Left	Yes	2.59793389996048	0	569303	253
1114.5078125	0	health	response	3	144	24	foodImage.89	FOODEEG_Images\0881.jpg	YN	Left	Yes	2.59793389996048	0	570629	234
1115.552734375	1	health	trialStart	3	145	25	foodImage.52	FOODEEG_Images\0539.jpg	NY	Right	Yes	1.31626229989342	0	571164	251
1116.611328125	2	health	foodImageDisplay	3	145	25	foodImage.52	FOODEEG_Images\0539.jpg	NY	Right	Yes	1.31626229989342	0	571706	252
1118.673828125	1.31626229989342	health	choicePhaseStart	3	145	25	foodImage.52	FOODEEG_Images\0539.jpg	NY	Right	Yes	1.31626229989342	0	572762	253
1119.98046875	0	health	response	3	145	25	foodImage.52	FOODEEG_Images\0539.jpg	NY	Right	Yes	1.31626229989342	0	573431	235
1121.029296875	1	health	trialStart	3	146	26	foodImage.21	FOODEEG_Images\0234.jpg	NY	Right	Yes	1.01405550003983	0	573968	251
1122.11328125	2	health	foodImageDisplay	3	146	26	foodImage.21	FOODEEG_Images\0234.jpg	NY	Right	Yes	1.01405550003983	0	574523	252
1124.17578125	1.01405550003983	health	choicePhaseStart	3	146	26	foodImage.21	FOODEEG_Images\0234.jpg	NY	Right	Yes	1.01405550003983	0	575579	253
1125.1796875	0	health	response	3	146	26	foodImage.21	FOODEEG_Images\0234.jpg	NY	Right	Yes	1.01405550003983	0	576093	235
1126.22265625	1	taste	trialStart	3	147	27	foodImage.47	FOODEEG_Images\0488.jpg	YN	Left	Yes	1.00627539993729	0	576627	251
1127.263671875	2	taste	foodImageDisplay	3	147	27	foodImage.47	FOODEEG_Images\0488.jpg	YN	Left	Yes	1.00627539993729	0	577160	252
1129.326171875	1.00627539993729	taste	choicePhaseStart	3	147	27	foodImage.47	FOODEEG_Images\0488.jpg	YN	Left	Yes	1.00627539993729	0	578216	253
1130.32421875	0	taste	response	3	147	27	foodImage.47	FOODEEG_Images\0488.jpg	YN	Left	Yes	1.00627539993729	0	578727	234
1131.3671875	1	taste	trialStart	3	148	28	foodImage.99	FOODEEG_Images\0907.jpg	YN	Left	Yes	1.03151500003878	0	579261	251
1132.404296875	2	taste	foodImageDisplay	3	148	28	foodImage.99	FOODEEG_Images\0907.jpg	YN	Left	Yes	1.03151500003878	0	579792	252
1134.46875	1.03151500003878	taste	choicePhaseStart	3	148	28	foodImage.99	FOODEEG_Images\0907.jpg	YN	Left	Yes	1.03151500003878	0	580849	253
1135.4921875	0	taste	response	3	148	28	foodImage.99	FOODEEG_Images\0907.jpg	YN	Left	Yes	1.03151500003878	0	581373	234
1136.53515625	1	decision	trialStart	3	149	29	foodImage.80	FOODEEG_Images\0796.jpg	NY	Right	Yes	1.62973479996435	0	581907	251
1137.591796875	2	decision	foodImageDisplay	3	149	29	foodImage.80	FOODEEG_Images\0796.jpg	NY	Right	Yes	1.62973479996435	0	582448	252
1139.654296875	1.62973479996435	decision	choicePhaseStart	3	149	29	foodImage.80	FOODEEG_Images\0796.jpg	NY	Right	Yes	1.62973479996435	0	583504	253
1141.275390625	0	decision	response	3	149	29	foodImage.80	FOODEEG_Images\0796.jpg	NY	Right	Yes	1.62973479996435	0	584334	235
1142.32421875	1	decision	trialStart	3	150	30	foodImage.49	FOODEEG_Images\0515.jpg	YN	Left	Yes	1.48013729997911	0	584871	251
1143.365234375	2	decision	foodImageDisplay	3	150	30	foodImage.49	FOODEEG_Images\0515.jpg	YN	Left	Yes	1.48013729997911	0	585404	252
1145.427734375	1.48013729997911	decision	choicePhaseStart	3	150	30	foodImage.49	FOODEEG_Images\0515.jpg	YN	Left	Yes	1.48013729997911	0	586460	253
1146.8984375	0	decision	response	3	150	30	foodImage.49	FOODEEG_Images\0515.jpg	YN	Left	Yes	1.48013729997911	0	587213	234
1147.94140625	1	taste	trialStart	3	151	31	foodImage.106	FOODEEG_Images\0914.jpg	NY	Right	Yes	0.880866199964657	0	587747	251
1148.98046875	2	taste	foodImageDisplay	3	151	31	foodImage.106	FOODEEG_Images\0914.jpg	NY	Right	Yes	0.880866199964657	0	588279	252
1151.04296875	0.880866199964657	taste	choicePhaseStart	3	151	31	foodImage.106	FOODEEG_Images\0914.jpg	NY	Right	Yes	0.880866199964657	0	589335	253
1151.9140625	0	taste	response	3	151	31	foodImage.106	FOODEEG_Images\0914.jpg	NY	Right	Yes	0.880866199964657	0	589781	235
1152.95703125	1	health	trialStart	3	152	32	foodImage.14	FOODEEG_Images\0188.jpg	YN	Left	Yes	4.01793500001077	0	590315	251
1154.013671875	2	health	foodImageDisplay	3	152	32	foodImage.14	FOODEEG_Images\0188.jpg	YN	Left	Yes	4.01793500001077	0	590856	252
1156.07421875	4.01793500001077	health	choicePhaseStart	3	152	32	foodImage.14	FOODEEG_Images\0188.jpg	YN	Left	Yes	4.01793500001077	0	591911	253
1160.08203125	0	health	response	3	152	32	foodImage.14	FOODEEG_Images\0188.jpg	YN	Left	Yes	4.01793500001077	0	593963	234
1161.126953125	1	health	trialStart	3	153	33	foodImage.11	FOODEEG_Images\0180.jpg	YN	Left	Yes	2.06690790003631	0	594498	251
1162.16796875	2	health	foodImageDisplay	3	153	33	foodImage.11	FOODEEG_Images\0180.jpg	YN	Left	Yes	2.06690790003631	0	595031	252
1164.232421875	2.06690790003631	health	choicePhaseStart	3	153	33	foodImage.11	FOODEEG_Images\0180.jpg	YN	Left	Yes	2.06690790003631	0	596088	253
1166.291015625	0	health	response	3	153	33	foodImage.11	FOODEEG_Images\0180.jpg	YN	Left	Yes	2.06690790003631	0	597142	234
1167.333984375	1	taste	trialStart	3	154	34	foodImage.69	FOODEEG_Images\0693.jpg	NY	Right	Yes	1.10889599996153	0	597676	251
1168.375	2	taste	foodImageDisplay	3	154	34	foodImage.69	FOODEEG_Images\0693.jpg	NY	Right	Yes	1.10889599996153	0	598209	252
1170.4375	1.10889599996153	taste	choicePhaseStart	3	154	34	foodImage.69	FOODEEG_Images\0693.jpg	NY	Right	Yes	1.10889599996153	0	599265	253
1171.5390625	0	taste	response	3	154	34	foodImage.69	FOODEEG_Images\0693.jpg	NY	Right	Yes	1.10889599996153	0	599829	235
1172.580078125	1	taste	trialStart	3	155	35	foodImage.103	FOODEEG_Images\0911.jpg	NY	Left	No	1.05785669991747	0	600362	251
1173.619140625	2	taste	foodImageDisplay	3	155	35	foodImage.103	FOODEEG_Images\0911.jpg	NY	Left	No	1.05785669991747	0	600894	252
1175.681640625	1.05785669991747	taste	choicePhaseStart	3	155	35	foodImage.103	FOODEEG_Images\0911.jpg	NY	Left	No	1.05785669991747	0	601950	253
1176.73046875	0	taste	response	3	155	35	foodImage.103	FOODEEG_Images\0911.jpg	NY	Left	No	1.05785669991747	0	602487	234
1177.7734375	1	taste	trialStart	3	156	36	foodImage.40	FOODEEG_Images\0373.jpg	YN	Left	Yes	1.46991230000276	0	603021	251
1178.814453125	2	taste	foodImageDisplay	3	156	36	foodImage.40	FOODEEG_Images\0373.jpg	YN	Left	Yes	1.46991230000276	0	603554	252
1180.876953125	1.46991230000276	taste	choicePhaseStart	3	156	36	foodImage.40	FOODEEG_Images\0373.jpg	YN	Left	Yes	1.46991230000276	0	604610	253
1182.337890625	0	taste	response	3	156	36	foodImage.40	FOODEEG_Images\0373.jpg	YN	Left	Yes	1.46991230000276	0	605358	234
1183.384765625	1	health	trialStart	3	157	37	foodImage.46	FOODEEG_Images\0479.jpg	NY	Right	Yes	3.03989840007853	0	605894	251
1184.443359375	2	health	foodImageDisplay	3	157	37	foodImage.46	FOODEEG_Images\0479.jpg	NY	Right	Yes	3.03989840007853	0	606436	252
1186.505859375	3.03989840007853	health	choicePhaseStart	3	157	37	foodImage.46	FOODEEG_Images\0479.jpg	NY	Right	Yes	3.03989840007853	0	607492	253
1189.537109375	0	health	response	3	157	37	foodImage.46	FOODEEG_Images\0479.jpg	NY	Right	Yes	3.03989840007853	0	609044	235
1190.580078125	1	decision	trialStart	3	158	38	foodImage.25	FOODEEG_Images\0261.jpg	YN	Left	Yes	2.21416630002204	0	609578	251
1191.62109375	2	decision	foodImageDisplay	3	158	38	foodImage.25	FOODEEG_Images\0261.jpg	YN	Left	Yes	2.21416630002204	0	610111	252
1193.68359375	2.21416630002204	decision	choicePhaseStart	3	158	38	foodImage.25	FOODEEG_Images\0261.jpg	YN	Left	Yes	2.21416630002204	0	611167	253
1195.888671875	0	decision	response	3	158	38	foodImage.25	FOODEEG_Images\0261.jpg	YN	Left	Yes	2.21416630002204	0	612296	234
1196.931640625	1	taste	trialStart	3	159	39	foodImage.6	FOODEEG_Images\0113.jpg	YN	Left	Yes	0.854987700004131	0	612830	251
1197.97265625	2	taste	foodImageDisplay	3	159	39	foodImage.6	FOODEEG_Images\0113.jpg	YN	Left	Yes	0.854987700004131	0	613363	252
1200.03515625	0.854987700004131	taste	choicePhaseStart	3	159	39	foodImage.6	FOODEEG_Images\0113.jpg	YN	Left	Yes	0.854987700004131	0	614419	253
1200.880859375	0	taste	response	3	159	39	foodImage.6	FOODEEG_Images\0113.jpg	YN	Left	Yes	0.854987700004131	0	614852	234
1201.923828125	1	decision	trialStart	3	160	40	foodImage.50	FOODEEG_Images\0529.jpg	NY	Left	No	1.20531740004662	0	615386	251
1202.982421875	2	decision	foodImageDisplay	3	160	40	foodImage.50	FOODEEG_Images\0529.jpg	NY	Left	No	1.20531740004662	0	615928	252
1205.046875	1.20531740004662	decision	choicePhaseStart	3	160	40	foodImage.50	FOODEEG_Images\0529.jpg	NY	Left	No	1.20531740004662	0	616985	253
1206.240234375	0	decision	response	3	160	40	foodImage.50	FOODEEG_Images\0529.jpg	NY	Left	No	1.20531740004662	0	617596	234
1207.28125	1	health	trialStart	3	161	41	foodImage.92	FOODEEG_Images\0900.jpg	YN	Right	No	1.53014240006451	0	618129	251
1208.3203125	2	health	foodImageDisplay	3	161	41	foodImage.92	FOODEEG_Images\0900.jpg	YN	Right	No	1.53014240006451	0	618661	252
1210.3828125	1.53014240006451	health	choicePhaseStart	3	161	41	foodImage.92	FOODEEG_Images\0900.jpg	YN	Right	No	1.53014240006451	0	619717	253
1211.904296875	0	health	response	3	161	41	foodImage.92	FOODEEG_Images\0900.jpg	YN	Right	No	1.53014240006451	0	620496	235
1212.947265625	1	health	trialStart	3	162	42	foodImage.98	FOODEEG_Images\0906.jpg	YN	Left	Yes	1.20812560000923	0	621030	251
1213.986328125	2	health	foodImageDisplay	3	162	42	foodImage.98	FOODEEG_Images\0906.jpg	YN	Left	Yes	1.20812560000923	0	621562	252
1216.048828125	1.20812560000923	health	choicePhaseStart	3	162	42	foodImage.98	FOODEEG_Images\0906.jpg	YN	Left	Yes	1.20812560000923	0	622618	253
1217.248046875	0	health	response	3	162	42	foodImage.98	FOODEEG_Images\0906.jpg	YN	Left	Yes	1.20812560000923	0	623232	234
1218.291015625	1	decision	trialStart	3	163	43	foodImage.41	FOODEEG_Images\0409.jpg	NY	Right	Yes	2.17464420001488	0	623766	251
1219.337890625	2	decision	foodImageDisplay	3	163	43	foodImage.41	FOODEEG_Images\0409.jpg	NY	Right	Yes	2.17464420001488	0	624302	252
1221.40234375	2.17464420001488	decision	choicePhaseStart	3	163	43	foodImage.41	FOODEEG_Images\0409.jpg	NY	Right	Yes	2.17464420001488	0	625359	253
1223.568359375	0	decision	response	3	163	43	foodImage.41	FOODEEG_Images\0409.jpg	NY	Right	Yes	2.17464420001488	0	626468	235
1224.611328125	1	health	trialStart	3	164	44	foodImage.44	FOODEEG_Images\0459.jpg	YN	Left	Yes	4.09689239994623	0	627002	251
1225.658203125	2	health	foodImageDisplay	3	164	44	foodImage.44	FOODEEG_Images\0459.jpg	YN	Left	Yes	4.09689239994623	0	627538	252
1227.720703125	4.09689239994623	health	choicePhaseStart	3	164	44	foodImage.44	FOODEEG_Images\0459.jpg	YN	Left	Yes	4.09689239994623	0	628594	253
1231.80859375	0	health	response	3	164	44	foodImage.44	FOODEEG_Images\0459.jpg	YN	Left	Yes	4.09689239994623	0	630687	234
1232.849609375	1	taste	trialStart	3	165	45	foodImage.50	FOODEEG_Images\0529.jpg	YN	Right	No	1.72825980000198	0	631220	251
1233.90625	2	taste	foodImageDisplay	3	165	45	foodImage.50	FOODEEG_Images\0529.jpg	YN	Right	No	1.72825980000198	0	631761	252
1235.966796875	1.72825980000198	taste	choicePhaseStart	3	165	45	foodImage.50	FOODEEG_Images\0529.jpg	YN	Right	No	1.72825980000198	0	632816	253
1237.6875	0	taste	response	3	165	45	foodImage.50	FOODEEG_Images\0529.jpg	YN	Right	No	1.72825980000198	0	633697	235
1238.732421875	1	taste	trialStart	3	166	46	foodImage.120	FOODEEG_Images\0928.jpg	YN	Right	No	1.43175049999263	0	634232	251
1239.76953125	2	taste	foodImageDisplay	3	166	46	foodImage.120	FOODEEG_Images\0928.jpg	YN	Right	No	1.43175049999263	0	634763	252
1241.83203125	1.43175049999263	taste	choicePhaseStart	3	166	46	foodImage.120	FOODEEG_Images\0928.jpg	YN	Right	No	1.43175049999263	0	635819	253
1243.255859375	0	taste	response	3	166	46	foodImage.120	FOODEEG_Images\0928.jpg	YN	Right	No	1.43175049999263	0	636548	235
1244.298828125	1	taste	trialStart	3	167	47	foodImage.9	FOODEEG_Images\0138.jpg	YN	Left	Yes	0.956408899975941	0	637082	251
1245.357421875	2	taste	foodImageDisplay	3	167	47	foodImage.9	FOODEEG_Images\0138.jpg	YN	Left	Yes	0.956408899975941	0	637624	252
1247.419921875	0.956408899975941	taste	choicePhaseStart	3	167	47	foodImage.9	FOODEEG_Images\0138.jpg	YN	Left	Yes	0.956408899975941	0	638680	253
1248.3671875	0	taste	response	3	167	47	foodImage.9	FOODEEG_Images\0138.jpg	YN	Left	Yes	0.956408899975941	0	639165	234
1249.41015625	1	health	trialStart	3	168	48	foodImage.110	FOODEEG_Images\0918.jpg	YN	Right	No	1.00573599990457	0	639699	251
1250.44921875	2	health	foodImageDisplay	3	168	48	foodImage.110	FOODEEG_Images\0918.jpg	YN	Right	No	1.00573599990457	0	640231	252
1252.513671875	1.00573599990457	health	choicePhaseStart	3	168	48	foodImage.110	FOODEEG_Images\0918.jpg	YN	Right	No	1.00573599990457	0	641288	253
1253.51171875	0	health	response	3	168	48	foodImage.110	FOODEEG_Images\0918.jpg	YN	Right	No	1.00573599990457	0	641799	235
1254.552734375	1	taste	trialStart	3	169	49	foodImage.43	FOODEEG_Images\0445.jpg	YN	Left	Yes	1.66017950000241	0	642332	251
1255.609375	2	taste	foodImageDisplay	3	169	49	foodImage.43	FOODEEG_Images\0445.jpg	YN	Left	Yes	1.66017950000241	0	642873	252
1257.673828125	1.66017950000241	taste	choicePhaseStart	3	169	49	foodImage.43	FOODEEG_Images\0445.jpg	YN	Left	Yes	1.66017950000241	0	643930	253
1259.326171875	0	taste	response	3	169	49	foodImage.43	FOODEEG_Images\0445.jpg	YN	Left	Yes	1.66017950000241	0	644776	234
1260.37109375	1	decision	trialStart	3	170	50	foodImage.22	FOODEEG_Images\0236.jpg	YN	Left	Yes	1.29238570004236	0	645311	251
1261.412109375	2	decision	foodImageDisplay	3	170	50	foodImage.22	FOODEEG_Images\0236.jpg	YN	Left	Yes	1.29238570004236	0	645844	252
1263.474609375	1.29238570004236	decision	choicePhaseStart	3	170	50	foodImage.22	FOODEEG_Images\0236.jpg	YN	Left	Yes	1.29238570004236	0	646900	253
1264.759765625	0	decision	response	3	170	50	foodImage.22	FOODEEG_Images\0236.jpg	YN	Left	Yes	1.29238570004236	0	647558	234
1265.80078125	1	decision	trialStart	3	171	51	foodImage.66	FOODEEG_Images\0676.jpg	YN	Left	Yes	1.67036099999677	0	648091	251
1266.841796875	2	decision	foodImageDisplay	3	171	51	foodImage.66	FOODEEG_Images\0676.jpg	YN	Left	Yes	1.67036099999677	0	648624	252
1268.904296875	1.67036099999677	decision	choicePhaseStart	3	171	51	foodImage.66	FOODEEG_Images\0676.jpg	YN	Left	Yes	1.67036099999677	0	649680	253
1270.56640625	0	decision	response	3	171	51	foodImage.66	FOODEEG_Images\0676.jpg	YN	Left	Yes	1.67036099999677	0	650531	234
1271.609375	1	decision	trialStart	3	172	52	foodImage.69	FOODEEG_Images\0693.jpg	NY	Right	Yes	1.26559210009873	0	651065	251
1272.654296875	2	decision	foodImageDisplay	3	172	52	foodImage.69	FOODEEG_Images\0693.jpg	NY	Right	Yes	1.26559210009873	0	651600	252
1274.716796875	1.26559210009873	decision	choicePhaseStart	3	172	52	foodImage.69	FOODEEG_Images\0693.jpg	NY	Right	Yes	1.26559210009873	0	652656	253
1275.974609375	0	decision	response	3	172	52	foodImage.69	FOODEEG_Images\0693.jpg	NY	Right	Yes	1.26559210009873	0	653300	235
1277.015625	1	taste	trialStart	3	173	53	foodImage.104	FOODEEG_Images\0912.jpg	NY	Right	Yes	3.79623530001845	0	653833	251
1278.052734375	2	taste	foodImageDisplay	3	173	53	foodImage.104	FOODEEG_Images\0912.jpg	NY	Right	Yes	3.79623530001845	0	654364	252
1280.115234375	3.79623530001845	taste	choicePhaseStart	3	173	53	foodImage.104	FOODEEG_Images\0912.jpg	NY	Right	Yes	3.79623530001845	0	655420	253
1283.90234375	0	taste	response	3	173	53	foodImage.104	FOODEEG_Images\0912.jpg	NY	Right	Yes	3.79623530001845	0	657359	235
1284.9453125	1	decision	trialStart	3	174	54	foodImage.101	FOODEEG_Images\0909.jpg	NY	Left	No	1.54239920002874	0	657893	251
1285.982421875	2	decision	foodImageDisplay	3	174	54	foodImage.101	FOODEEG_Images\0909.jpg	NY	Left	No	1.54239920002874	0	658424	252
1288.046875	1.54239920002874	decision	choicePhaseStart	3	174	54	foodImage.101	FOODEEG_Images\0909.jpg	NY	Left	No	1.54239920002874	0	659481	253
1289.58203125	0	decision	response	3	174	54	foodImage.101	FOODEEG_Images\0909.jpg	NY	Left	No	1.54239920002874	0	660267	234
1290.625	1	decision	trialStart	3	175	55	foodImage.1	FOODEEG_Images\0004.jpg	NY	Left	No	2.82765840005595	0	660801	251
1291.66796875	2	decision	foodImageDisplay	3	175	55	foodImage.1	FOODEEG_Images\0004.jpg	NY	Left	No	2.82765840005595	0	661335	252
1293.73046875	2.82765840005595	decision	choicePhaseStart	3	175	55	foodImage.1	FOODEEG_Images\0004.jpg	NY	Left	No	2.82765840005595	0	662391	253
1296.548828125	0	decision	response	3	175	55	foodImage.1	FOODEEG_Images\0004.jpg	NY	Left	No	2.82765840005595	0	663834	234
1297.59375	1	taste	trialStart	3	176	56	foodImage.79	FOODEEG_Images\0794.jpg	NY	Right	Yes	0.970353099983186	0	664369	251
1298.63671875	2	taste	foodImageDisplay	3	176	56	foodImage.79	FOODEEG_Images\0794.jpg	NY	Right	Yes	0.970353099983186	0	664903	252
1300.69921875	0.970353099983186	taste	choicePhaseStart	3	176	56	foodImage.79	FOODEEG_Images\0794.jpg	NY	Right	Yes	0.970353099983186	0	665959	253
1301.66015625	0	taste	response	3	176	56	foodImage.79	FOODEEG_Images\0794.jpg	NY	Right	Yes	0.970353099983186	0	666451	235
1302.705078125	1	decision	trialStart	3	177	57	foodImage.93	FOODEEG_Images\0901.jpg	YN	Right	No	0.718278000014834	0	666986	251
1303.744140625	2	decision	foodImageDisplay	3	177	57	foodImage.93	FOODEEG_Images\0901.jpg	YN	Right	No	0.718278000014834	0	667518	252
1305.806640625	0.718278000014834	decision	choicePhaseStart	3	177	57	foodImage.93	FOODEEG_Images\0901.jpg	YN	Right	No	0.718278000014834	0	668574	253
1306.517578125	0	decision	response	3	177	57	foodImage.93	FOODEEG_Images\0901.jpg	YN	Right	No	0.718278000014834	0	668938	235
1307.560546875	1	health	trialStart	3	178	58	foodImage.120	FOODEEG_Images\0928.jpg	NY	Right	Yes	4.08913129998837	0	669472	251
1308.61328125	2	health	foodImageDisplay	3	178	58	foodImage.120	FOODEEG_Images\0928.jpg	NY	Right	Yes	4.08913129998837	0	670011	252
1310.67578125	4.08913129998837	health	choicePhaseStart	3	178	58	foodImage.120	FOODEEG_Images\0928.jpg	NY	Right	Yes	4.08913129998837	0	671067	253
1314.755859375	0	health	response	3	178	58	foodImage.120	FOODEEG_Images\0928.jpg	NY	Right	Yes	4.08913129998837	0	673156	235
1315.798828125	1	health	trialStart	3	179	59	foodImage.32	FOODEEG_Images\0319.jpg	YN	Right	No	1.26914820005186	0	673690	251
1316.841796875	2	health	foodImageDisplay	3	179	59	foodImage.32	FOODEEG_Images\0319.jpg	YN	Right	No	1.26914820005186	0	674224	252
1318.904296875	1.26914820005186	health	choicePhaseStart	3	179	59	foodImage.32	FOODEEG_Images\0319.jpg	YN	Right	No	1.26914820005186	0	675280	253
1320.1640625	0	health	response	3	179	59	foodImage.32	FOODEEG_Images\0319.jpg	YN	Right	No	1.26914820005186	0	675925	235
1321.20703125	1	health	trialStart	3	180	60	foodImage.50	FOODEEG_Images\0529.jpg	NY	Right	Yes	2.16530990006868	0	676459	251
1322.265625	2	health	foodImageDisplay	3	180	60	foodImage.50	FOODEEG_Images\0529.jpg	NY	Right	Yes	2.16530990006868	0	677001	252
1324.328125	2.16530990006868	health	choicePhaseStart	3	180	60	foodImage.50	FOODEEG_Images\0529.jpg	NY	Right	Yes	2.16530990006868	0	678057	253
1326.484375	0	health	response	3	180	60	foodImage.50	FOODEEG_Images\0529.jpg	NY	Right	Yes	2.16530990006868	0	679161	235
1328.525390625	35.462890625	n/a	blockEnd	n/a	n/a	n/a	n/a	n/a	n/a	n/a	n/a	n/a	n/a	680206	254
1363.98828125	2	n/a	blockStart	4	n/a	n/a	n/a	n/a	n/a	n/a	n/a	n/a	n/a	698363	250
1366.01953125	1	health	trialStart	4	181	1	foodImage.114	FOODEEG_Images\0922.jpg	NY	Right	Yes	1.20964390004519	0	699403	251
1367.05859375	2	health	foodImageDisplay	4	181	1	foodImage.114	FOODEEG_Images\0922.jpg	NY	Right	Yes	1.20964390004519	0	699935	252
1369.12109375	1.20964390004519	health	choicePhaseStart	4	181	1	foodImage.114	FOODEEG_Images\0922.jpg	NY	Right	Yes	1.20964390004519	0	700991	253
1370.322265625	0	health	response	4	181	1	foodImage.114	FOODEEG_Images\0922.jpg	NY	Right	Yes	1.20964390004519	0	701606	235
1371.369140625	1	taste	trialStart	4	182	2	foodImage.72	FOODEEG_Images\0714.jpg	NY	Left	No	1.15401049994398	0	702142	251
1372.41015625	2	taste	foodImageDisplay	4	182	2	foodImage.72	FOODEEG_Images\0714.jpg	NY	Left	No	1.15401049994398	0	702675	252
1374.47265625	1.15401049994398	taste	choicePhaseStart	4	182	2	foodImage.72	FOODEEG_Images\0714.jpg	NY	Left	No	1.15401049994398	0	703731	253
1375.619140625	0	taste	response	4	182	2	foodImage.72	FOODEEG_Images\0714.jpg	NY	Left	No	1.15401049994398	0	704318	234
1376.66015625	1	decision	trialStart	4	183	3	foodImage.112	FOODEEG_Images\0920.jpg	YN	Right	No	1.1182607000228	0	704851	251
1377.701171875	2	decision	foodImageDisplay	4	183	3	foodImage.112	FOODEEG_Images\0920.jpg	YN	Right	No	1.1182607000228	0	705384	252
1379.763671875	1.1182607000228	decision	choicePhaseStart	4	183	3	foodImage.112	FOODEEG_Images\0920.jpg	YN	Right	No	1.1182607000228	0	706440	253
1380.875	0	decision	response	4	183	3	foodImage.112	FOODEEG_Images\0920.jpg	YN	Right	No	1.1182607000228	0	707009	235
1381.916015625	1	taste	trialStart	4	184	4	foodImage.91	FOODEEG_Images\0896.jpg	NY	Right	Yes	0.839467799989507	0	707542	251
1382.970703125	2	taste	foodImageDisplay	4	184	4	foodImage.91	FOODEEG_Images\0896.jpg	NY	Right	Yes	0.839467799989507	0	708082	252
1385.033203125	0.839467799989507	taste	choicePhaseStart	4	184	4	foodImage.91	FOODEEG_Images\0896.jpg	NY	Right	Yes	0.839467799989507	0	709138	253
1385.865234375	0	taste	response	4	184	4	foodImage.91	FOODEEG_Images\0896.jpg	NY	Right	Yes	0.839467799989507	0	709564	235
1386.91015625	1	taste	trialStart	4	185	5	foodImage.51	FOODEEG_Images\0536.jpg	YN	Left	Yes	0.721618500072509	0	710099	251
1387.955078125	2	taste	foodImageDisplay	4	185	5	foodImage.51	FOODEEG_Images\0536.jpg	YN	Left	Yes	0.721618500072509	0	710634	252
1390.017578125	0.721618500072509	taste	choicePhaseStart	4	185	5	foodImage.51	FOODEEG_Images\0536.jpg	YN	Left	Yes	0.721618500072509	0	711690	253
1390.73046875	0	taste	response	4	185	5	foodImage.51	FOODEEG_Images\0536.jpg	YN	Left	Yes	0.721618500072509	0	712055	234
1391.771484375	1	taste	trialStart	4	186	6	foodImage.54	FOODEEG_Images\0560.jpg	YN	Left	Yes	0.687376699992456	0	712588	251
1392.828125	2	taste	foodImageDisplay	4	186	6	foodImage.54	FOODEEG_Images\0560.jpg	YN	Left	Yes	0.687376699992456	0	713129	252
1394.890625	0.687376699992456	taste	choicePhaseStart	4	186	6	foodImage.54	FOODEEG_Images\0560.jpg	YN	Left	Yes	0.687376699992456	0	714185	253
1395.5703125	0	taste	response	4	186	6	foodImage.54	FOODEEG_Images\0560.jpg	YN	Left	Yes	0.687376699992456	0	714533	234
1396.619140625	1	health	trialStart	4	187	7	foodImage.45	FOODEEG_Images\0478.jpg	YN	Left	Yes	0.915358299971558	0	715070	251
1397.673828125	2	health	foodImageDisplay	4	187	7	foodImage.45	FOODEEG_Images\0478.jpg	YN	Left	Yes	0.915358299971558	0	715610	252
1399.736328125	0.915358299971558	health	choicePhaseStart	4	187	7	foodImage.45	FOODEEG_Images\0478.jpg	YN	Left	Yes	0.915358299971558	0	716666	253
1400.640625	0	health	response	4	187	7	foodImage.45	FOODEEG_Images\0478.jpg	YN	Left	Yes	0.915358299971558	0	717129	234
1401.68359375	1	decision	trialStart	4	188	8	foodImage.18	FOODEEG_Images\0202.jpg	YN	Left	Yes	1.10698689997662	0	717663	251
1402.7421875	2	decision	foodImageDisplay	4	188	8	foodImage.18	FOODEEG_Images\0202.jpg	YN	Left	Yes	1.10698689997662	0	718205	252
1404.8046875	1.10698689997662	decision	choicePhaseStart	4	188	8	foodImage.18	FOODEEG_Images\0202.jpg	YN	Left	Yes	1.10698689997662	0	719261	253
1405.904296875	0	decision	response	4	188	8	foodImage.18	FOODEEG_Images\0202.jpg	YN	Left	Yes	1.10698689997662	0	719824	234
1406.94921875	1	decision	trialStart	4	189	9	foodImage.85	FOODEEG_Images\0841.jpg	NY	Left	No	1.12347770004999	0	720359	251
1408.0078125	2	decision	foodImageDisplay	4	189	9	foodImage.85	FOODEEG_Images\0841.jpg	NY	Left	No	1.12347770004999	0	720901	252
1410.0703125	1.12347770004999	decision	choicePhaseStart	4	189	9	foodImage.85	FOODEEG_Images\0841.jpg	NY	Left	No	1.12347770004999	0	721957	253
1411.185546875	0	decision	response	4	189	9	foodImage.85	FOODEEG_Images\0841.jpg	NY	Left	No	1.12347770004999	0	722528	234
1412.2265625	1	taste	trialStart	4	190	10	foodImage.78	FOODEEG_Images\0787.jpg	NY	Right	Yes	1.56560510001145	0	723061	251
1413.26953125	2	taste	foodImageDisplay	4	190	10	foodImage.78	FOODEEG_Images\0787.jpg	NY	Right	Yes	1.56560510001145	0	723595	252
1415.33203125	1.56560510001145	taste	choicePhaseStart	4	190	10	foodImage.78	FOODEEG_Images\0787.jpg	NY	Right	Yes	1.56560510001145	0	724651	253
1416.888671875	0	taste	response	4	190	10	foodImage.78	FOODEEG_Images\0787.jpg	NY	Right	Yes	1.56560510001145	0	725448	235
1417.931640625	1	decision	trialStart	4	191	11	foodImage.35	FOODEEG_Images\0350.jpg	YN	Left	Yes	0.87162079999689	0	725982	251
1418.970703125	2	decision	foodImageDisplay	4	191	11	foodImage.35	FOODEEG_Images\0350.jpg	YN	Left	Yes	0.87162079999689	0	726514	252
1421.033203125	0.87162079999689	decision	choicePhaseStart	4	191	11	foodImage.35	FOODEEG_Images\0350.jpg	YN	Left	Yes	0.87162079999689	0	727570	253
1421.896484375	0	decision	response	4	191	11	foodImage.35	FOODEEG_Images\0350.jpg	YN	Left	Yes	0.87162079999689	0	728012	234
1422.939453125	1	decision	trialStart	4	192	12	foodImage.72	FOODEEG_Images\0714.jpg	NY	Right	Yes	2.85118460003287	0	728546	251
1423.982421875	2	decision	foodImageDisplay	4	192	12	foodImage.72	FOODEEG_Images\0714.jpg	NY	Right	Yes	2.85118460003287	0	729080	252
1426.044921875	2.85118460003287	decision	choicePhaseStart	4	192	12	foodImage.72	FOODEEG_Images\0714.jpg	NY	Right	Yes	2.85118460003287	0	730136	253
1428.888671875	0	decision	response	4	192	12	foodImage.72	FOODEEG_Images\0714.jpg	NY	Right	Yes	2.85118460003287	0	731592	235
1429.931640625	1	decision	trialStart	4	193	13	foodImage.44	FOODEEG_Images\0459.jpg	YN	Left	Yes	1.62677109998185	0	732126	251
1430.9765625	2	decision	foodImageDisplay	4	193	13	foodImage.44	FOODEEG_Images\0459.jpg	YN	Left	Yes	1.62677109998185	0	732661	252
