onset	duration	trial_type	event_type	block	trial_total	trial_in_block	food_image_code	food_image_path	button_position	resp_position	resp_choice	choice_rt	resp_too_slow	sample	trigger
203.201171875	2	n/a	blockStart	1	n/a	n/a	n/a	n/a	n/a	n/a	n/a	n/a	n/a	104040	250
205.244140625	1	taste	trialStart	1	1	1	foodImage.2	FOODEEG_Images\0028.jpg	YN	Left	Yes	0.883223900000303	0	105086	251
206.29296875	2	taste	foodImageDisplay	1	1	1	foodImage.2	FOODEEG_Images\0028.jpg	YN	Left	Yes	0.883223900000303	0	105623	252
208.361328125	0.883223900000303	taste	choicePhaseStart	1	1	1	foodImage.2	FOODEEG_Images\0028.jpg	YN	Left	Yes	0.883223900000303	0	106682	253
209.23828125	0	taste	response	1	1	1	foodImage.2	FOODEEG_Images\0028.jpg	YN	Left	Yes	0.883223900000303	0	107131	234
210.33203125	1	health	trialStart	1	2	2	foodImage.79	FOODEEG_Images\0794.jpg	YN	Left	Yes	1.08988469999895	0	107691	251
211.376953125	2	health	foodImageDisplay	1	2	2	foodImage.79	FOODEEG_Images\0794.jpg	YN	Left	Yes	1.08988469999895	0	108226	252
213.439453125	1.08988469999895	health	choicePhaseStart	1	2	2	foodImage.79	FOODEEG_Images\0794.jpg	YN	Left	Yes	1.08988469999895	0	109282	253
214.525390625	0	health	response	1	2	2	foodImage.79	FOODEEG_Images\0794.jpg	YN	Left	Yes	1.08988469999895	0	109838	234
215.578125	1	taste	trialStart	1	3	3	foodImage.105	FOODEEG_Images\0913.jpg	YN	Left	Yes	1.14576830000078	0	110377	251
216.619140625	2	taste	foodImageDisplay	1	3	3	foodImage.105	FOODEEG_Images\0913.jpg	YN	Left	Yes	1.14576830000078	0	110910	252
218.6875	1.14576830000078	taste	choicePhaseStart	1	3	3	foodImage.105	FOODEEG_Images\0913.jpg	YN	Left	Yes	1.14576830000078	0	111969	253
219.830078125	0	taste	response	1	3	3	foodImage.105	FOODEEG_Images\0913.jpg	YN	Left	Yes	1.14576830000078	0	112554	234
220.875	1	decision	trialStart	1	4	4	foodImage.17	FOODEEG_Images\0199.jpg	YN	Left	Yes	0.775446999999986	0	113089	251
221.91796875	2	decision	foodImageDisplay	1	4	4	foodImage.17	FOODEEG_Images\0199.jpg	YN	Left	Yes	0.775446999999986	0	113623	252
223.982421875	0.775446999999986	decision	choicePhaseStart	1	4	4	foodImage.17	FOODEEG_Images\0199.jpg	YN	Left	Yes	0.775446999999986	0	114680	253
224.748046875	0	decision	response	1	4	4	foodImage.17	FOODEEG_Images\0199.jpg	YN	Left	Yes	0.775446999999986	0	115072	234
225.794921875	1	taste	trialStart	1	5	5	foodImage.18	FOODEEG_Images\0202.jpg	YN	Left	Yes	0.770484899996518	0	115608	251
226.86328125	2	taste	foodImageDisplay	1	5	5	foodImage.18	FOODEEG_Images\0202.jpg	YN	Left	Yes	0.770484899996518	0	116155	252
228.9296875	0.770484899996518	taste	choicePhaseStart	1	5	5	foodImage.18	FOODEEG_Images\0202.jpg	YN	Left	Yes	0.770484899996518	0	117213	253
229.693359375	0	taste	response	1	5	5	foodImage.18	FOODEEG_Images\0202.jpg	YN	Left	Yes	0.770484899996518	0	117604	234
230.748046875	1	taste	trialStart	1	6	6	foodImage.33	FOODEEG_Images\0329.jpg	NY	Right	Yes	0.963468800000555	0	118144	251
231.791015625	2	taste	foodImageDisplay	1	6	6	foodImage.33	FOODEEG_Images\0329.jpg	NY	Right	Yes	0.963468800000555	0	118678	252
233.857421875	0.963468800000555	taste	choicePhaseStart	1	6	6	foodImage.33	FOODEEG_Images\0329.jpg	NY	Right	Yes	0.963468800000555	0	119736	253
234.8125	0	taste	response	1	6	6	foodImage.33	FOODEEG_Images\0329.jpg	NY	Right	Yes	0.963468800000555	0	120225	235
235.85546875	1	health	trialStart	1	7	7	foodImage.39	FOODEEG_Images\0367.jpg	YN	Right	No	0.86530109999876	0	120759	251
236.89453125	2	health	foodImageDisplay	1	7	7	foodImage.39	FOODEEG_Images\0367.jpg	YN	Right	No	0.86530109999876	0	121291	252
238.96484375	0.86530109999876	health	choicePhaseStart	1	7	7	foodImage.39	FOODEEG_Images\0367.jpg	YN	Right	No	0.86530109999876	0	122351	253
239.8203125	0	health	response	1	7	7	foodImage.39	FOODEEG_Images\0367.jpg	YN	Right	No	0.86530109999876	0	122789	235
240.8671875	1	health	trialStart	1	8	8	foodImage.23	FOODEEG_Images\0244.jpg	NY	Right	Yes	1.92667829999846	0	123325	251
241.908203125	2	health	foodImageDisplay	1	8	8	foodImage.23	FOODEEG_Images\0244.jpg	NY	Right	Yes	1.92667829999846	0	123858	252
243.974609375	1.92667829999846	health	choicePhaseStart	1	8	8	foodImage.23	FOODEEG_Images\0244.jpg	NY	Right	Yes	1.92667829999846	0	124916	253
245.892578125	0	health	response	1	8	8	foodImage.23	FOODEEG_Images\0244.jpg	NY	Right	Yes	1.92667829999846	0	125898	235
246.93359375	1	decision	trialStart	1	9	9	foodImage.119	FOODEEG_Images\0927.jpg	YN	Right	No	0.952972200000659	0	126431	251
247.97265625	2	decision	foodImageDisplay	1	9	9	foodImage.119	FOODEEG_Images\0927.jpg	YN	Right	No	0.952972200000659	0	126963	252
250.04296875	0.952972200000659	decision	choicePhaseStart	1	9	9	foodImage.119	FOODEEG_Images\0927.jpg	YN	Right	No	0.952972200000659	0	128023	253
250.98828125	0	decision	response	1	9	9	foodImage.119	FOODEEG_Images\0927.jpg	YN	Right	No	0.952972200000659	0	128507	235
252.03515625	1	decision	trialStart	1	10	10	foodImage.40	FOODEEG_Images\0373.jpg	NY	Right	Yes	0.747155200002453	0	129043	251
253.091796875	2	decision	foodImageDisplay	1	10	10	foodImage.40	FOODEEG_Images\0373.jpg	NY	Right	Yes	0.747155200002453	0	129584	252
255.158203125	0.747155200002453	decision	choicePhaseStart	1	10	10	foodImage.40	FOODEEG_Images\0373.jpg	NY	Right	Yes	0.747155200002453	0	130642	253
255.900390625	0	decision	response	1	10	10	foodImage.40	FOODEEG_Images\0373.jpg	NY	Right	Yes	0.747155200002453	0	131022	235
256.9453125	1	taste	trialStart	1	11	11	foodImage.43	FOODEEG_Images\0445.jpg	YN	Left	Yes	0.953212200001872	0	131557	251
258.001953125	2	taste	foodImageDisplay	1	11	11	foodImage.43	FOODEEG_Images\0445.jpg	YN	Left	Yes	0.953212200001872	0	132098	252
260.06640625	0.953212200001872	taste	choicePhaseStart	1	11	11	foodImage.43	FOODEEG_Images\0445.jpg	YN	Left	Yes	0.953212200001872	0	133155	253
261.01171875	0	taste	response	1	11	11	foodImage.43	FOODEEG_Images\0445.jpg	YN	Left	Yes	0.953212200001872	0	133639	234
262.0546875	1	health	trialStart	1	12	12	foodImage.67	FOODEEG_Images\0679.jpg	NY	Left	No	1.06085499999972	0	134173	251
263.111328125	2	health	foodImageDisplay	1	12	12	foodImage.67	FOODEEG_Images\0679.jpg	NY	Left	No	1.06085499999972	0	134714	252
265.181640625	1.06085499999972	health	choicePhaseStart	1	12	12	foodImage.67	FOODEEG_Images\0679.jpg	NY	Left	No	1.06085499999972	0	135774	253
266.236328125	0	health	response	1	12	12	foodImage.67	FOODEEG_Images\0679.jpg	NY	Left	No	1.06085499999972	0	136314	234
267.279296875	1	taste	trialStart	1	13	13	foodImage.13	FOODEEG_Images\0183.jpg	NY	Right	Yes	0.751793700001144	0	136848	251
268.322265625	2	taste	foodImageDisplay	1	13	13	foodImage.13	FOODEEG_Images\0183.jpg	NY	Right	Yes	0.751793700001144	0	137382	252
270.38671875	0.751793700001144	taste	choicePhaseStart	1	13	13	foodImage.13	FOODEEG_Images\0183.jpg	NY	Right	Yes	0.751793700001144	0	138439	253
271.130859375	0	taste	response	1	13	13	foodImage.13	FOODEEG_Images\0183.jpg	NY	Right	Yes	0.751793700001144	0	138820	235
272.173828125	1	health	trialStart	1	14	14	foodImage.61	FOODEEG_Images\0640.jpg	YN	Left	Yes	0.614927000002353	0	139354	251
273.216796875	2	health	foodImageDisplay	1	14	14	foodImage.61	FOODEEG_Images\0640.jpg	YN	Left	Yes	0.614927000002353	0	139888	252
275.2890625	0.614927000002353	health	choicePhaseStart	1	14	14	foodImage.61	FOODEEG_Images\0640.jpg	YN	Left	Yes	0.614927000002353	0	140949	253
275.8984375	0	health	response	1	14	14	foodImage.61	FOODEEG_Images\0640.jpg	YN	Left	Yes	0.614927000002353	0	141261	234
276.943359375	1	taste	trialStart	1	15	15	foodImage.6	FOODEEG_Images\0113.jpg	YN	Left	Yes	0.52081189999808	0	141796	251
277.98828125	2	taste	foodImageDisplay	1	15	15	foodImage.6	FOODEEG_Images\0113.jpg	YN	Left	Yes	0.52081189999808	0	142331	252
280.05078125	0.52081189999808	taste	choicePhaseStart	1	15	15	foodImage.6	FOODEEG_Images\0113.jpg	YN	Left	Yes	0.52081189999808	0	143387	253
280.5625	0	taste	response	1	15	15	foodImage.6	FOODEEG_Images\0113.jpg	YN	Left	Yes	0.52081189999808	0	143649	234
281.607421875	1	taste	trialStart	1	16	16	foodImage.26	FOODEEG_Images\0262.jpg	YN	Right	No	0.70723640000142	0	144184	251
282.6484375	2	taste	foodImageDisplay	1	16	16	foodImage.26	FOODEEG_Images\0262.jpg	YN	Right	No	0.70723640000142	0	144717	252
284.712890625	0.70723640000142	taste	choicePhaseStart	1	16	16	foodImage.26	FOODEEG_Images\0262.jpg	YN	Right	No	0.70723640000142	0	145774	253
285.41015625	0	taste	response	1	16	16	foodImage.26	FOODEEG_Images\0262.jpg	YN	Right	No	0.70723640000142	0	146131	235
286.45703125	1	decision	trialStart	1	17	17	foodImage.46	FOODEEG_Images\0479.jpg	YN	Right	No	0.616737100001046	0	146667	251
287.537109375	2	decision	foodImageDisplay	1	17	17	foodImage.46	FOODEEG_Images\0479.jpg	YN	Right	No	0.616737100001046	0	147220	252
289.603515625	0.616737100001046	decision	choicePhaseStart	1	17	17	foodImage.46	FOODEEG_Images\0479.jpg	YN	Right	No	0.616737100001046	0	148278	253
290.2109375	0	decision	response	1	17	17	foodImage.46	FOODEEG_Images\0479.jpg	YN	Right	No	0.616737100001046	0	148589	235
291.26171875	1	taste	trialStart	1	18	18	foodImage.112	FOODEEG_Images\0920.jpg	NY	Left	No	1.39686349999829	0	149127	251
292.30078125	2	taste	foodImageDisplay	1	18	18	foodImage.112	FOODEEG_Images\0920.jpg	NY	Left	No	1.39686349999829	0	149659	252
294.37109375	1.39686349999829	taste	choicePhaseStart	1	18	18	foodImage.112	FOODEEG_Images\0920.jpg	NY	Left	No	1.39686349999829	0	150719	253
295.76171875	0	taste	response	1	18	18	foodImage.112	FOODEEG_Images\0920.jpg	NY	Left	No	1.39686349999829	0	151431	234
296.806640625	1	taste	trialStart	1	19	19	foodImage.37	FOODEEG_Images\0359.jpg	NY	Right	Yes	0.915691099999094	0	151966	251
297.86328125	2	taste	foodImageDisplay	1	19	19	foodImage.37	FOODEEG_Images\0359.jpg	NY	Right	Yes	0.915691099999094	0	152507	252
299.92578125	0.915691099999094	taste	choicePhaseStart	1	19	19	foodImage.37	FOODEEG_Images\0359.jpg	NY	Right	Yes	0.915691099999094	0	153563	253
300.833984375	0	taste	response	1	19	19	foodImage.37	FOODEEG_Images\0359.jpg	NY	Right	Yes	0.915691099999094	0	154028	235
301.876953125	1	taste	trialStart	1	20	20	foodImage.109	FOODEEG_Images\0917.jpg	YN	Right	No	0.654130999999325	0	154562	251
302.916015625	2	taste	foodImageDisplay	1	20	20	foodImage.109	FOODEEG_Images\0917.jpg	YN	Right	No	0.654130999999325	0	155094	252
304.98046875	0.654130999999325	taste	choicePhaseStart	1	20	20	foodImage.109	FOODEEG_Images\0917.jpg	YN	Right	No	0.654130999999325	0	156151	253
305.625	0	taste	response	1	20	20	foodImage.109	FOODEEG_Images\0917.jpg	YN	Right	No	0.654130999999325	0	156481	235
306.669921875	1	decision	trialStart	1	21	21	foodImage.80	FOODEEG_Images\0796.jpg	YN	Left	Yes	0.69534289999865	0	157016	251
307.728515625	2	decision	foodImageDisplay	1	21	21	foodImage.80	FOODEEG_Images\0796.jpg	YN	Left	Yes	0.69534289999865	0	157558	252
309.794921875	0.69534289999865	decision	choicePhaseStart	1	21	21	foodImage.80	FOODEEG_Images\0796.jpg	YN	Left	Yes	0.69534289999865	0	158616	253
310.48046875	0	decision	response	1	21	21	foodImage.80	FOODEEG_Images\0796.jpg	YN	Left	Yes	0.69534289999865	0	158967	234
311.525390625	1	health	trialStart	1	22	22	foodImage.114	FOODEEG_Images\0922.jpg	NY	Left	No	1.30998209999962	0	159502	251
312.5625	2	health	foodImageDisplay	1	22	22	foodImage.114	FOODEEG_Images\0922.jpg	NY	Left	No	1.30998209999962	0	160033	252
314.626953125	1.30998209999962	health	choicePhaseStart	1	22	22	foodImage.114	FOODEEG_Images\0922.jpg	NY	Left	No	1.30998209999962	0	161090	253
315.9296875	0	health	response	1	22	22	foodImage.114	FOODEEG_Images\0922.jpg	NY	Left	No	1.30998209999962	0	161757	234
316.97265625	1	health	trialStart	1	23	23	foodImage.25	FOODEEG_Images\0261.jpg	NY	Right	Yes	0.772006400002283	0	162291	251
318.013671875	2	health	foodImageDisplay	1	23	23	foodImage.25	FOODEEG_Images\0261.jpg	NY	Right	Yes	0.772006400002283	0	162824	252
320.078125	0.772006400002283	health	choicePhaseStart	1	23	23	foodImage.25	FOODEEG_Images\0261.jpg	NY	Right	Yes	0.772006400002283	0	163881	253
320.841796875	0	health	response	1	23	23	foodImage.25	FOODEEG_Images\0261.jpg	NY	Right	Yes	0.772006400002283	0	164272	235
321.8828125	1	decision	trialStart	1	24	24	foodImage.89	FOODEEG_Images\0881.jpg	NY	Right	Yes	0.467743600001995	0	164805	251
322.939453125	2	decision	foodImageDisplay	1	24	24	foodImage.89	FOODEEG_Images\0881.jpg	NY	Right	Yes	0.467743600001995	0	165346	252
325.005859375	0.467743600001995	decision	choicePhaseStart	1	24	24	foodImage.89	FOODEEG_Images\0881.jpg	NY	Right	Yes	0.467743600001995	0	166404	253
325.46484375	0	decision	response	1	24	24	foodImage.89	FOODEEG_Images\0881.jpg	NY	Right	Yes	0.467743600001995	0	166639	235
326.5078125	1	taste	trialStart	1	25	25	foodImage.28	FOODEEG_Images\0273.jpg	NY	Left	No	2.16868089999844	0	167173	251
327.560546875	2	taste	foodImageDisplay	1	25	25	foodImage.28	FOODEEG_Images\0273.jpg	NY	Left	No	2.16868089999844	0	167712	252
329.625	2.16868089999844	taste	choicePhaseStart	1	25	25	foodImage.28	FOODEEG_Images\0273.jpg	NY	Left	No	2.16868089999844	0	168769	253
331.78515625	0	taste	response	1	25	25	foodImage.28	FOODEEG_Images\0273.jpg	NY	Left	No	2.16868089999844	0	169875	234
332.826171875	1	decision	trialStart	1	26	26	foodImage.45	FOODEEG_Images\0478.jpg	YN	Left	Yes	0.744431499999337	0	170408	251
333.873046875	2	decision	foodImageDisplay	1	26	26	foodImage.45	FOODEEG_Images\0478.jpg	YN	Left	Yes	0.744431499999337	0	170944	252
335.9375	0.744431499999337	decision	choicePhaseStart	1	26	26	foodImage.45	FOODEEG_Images\0478.jpg	YN	Left	Yes	0.744431499999337	0	172001	253
336.671875	0	decision	response	1	26	26	foodImage.45	FOODEEG_Images\0478.jpg	YN	Left	Yes	0.744431499999337	0	172377	234
337.716796875	1	health	trialStart	1	27	27	foodImage.11	FOODEEG_Images\0180.jpg	YN	Left	Yes	0.72443949999797	0	172912	251
338.7578125	2	health	foodImageDisplay	1	27	27	foodImage.11	FOODEEG_Images\0180.jpg	YN	Left	Yes	0.72443949999797	0	173445	252
340.8203125	0.72443949999797	health	choicePhaseStart	1	27	27	foodImage.11	FOODEEG_Images\0180.jpg	YN	Left	Yes	0.72443949999797	0	174501	253
341.53515625	0	health	response	1	27	27	foodImage.11	FOODEEG_Images\0180.jpg	YN	Left	Yes	0.72443949999797	0	174867	234
342.580078125	1	taste	trialStart	1	28	28	foodImage.92	FOODEEG_Images\0900.jpg	NY	Left	No	1.32045350000044	0	175402	251
343.6171875	2	taste	foodImageDisplay	1	28	28	foodImage.92	FOODEEG_Images\0900.jpg	NY	Left	No	1.32045350000044	0	175933	252
345.681640625	1.32045350000044	taste	choicePhaseStart	1	28	28	foodImage.92	FOODEEG_Images\0900.jpg	NY	Left	No	1.32045350000044	0	176990	253
346.9921875	0	taste	response	1	28	28	foodImage.92	FOODEEG_Images\0900.jpg	NY	Left	No	1.32045350000044	0	177661	234
348.03515625	1	taste	trialStart	1	29	29	foodImage.69	FOODEEG_Images\0693.jpg	NY	Right	Yes	0.882225099998323	0	178195	251
349.080078125	2	taste	foodImageDisplay	1	29	29	foodImage.69	FOODEEG_Images\0693.jpg	NY	Right	Yes	0.882225099998323	0	178730	252
351.142578125	0.882225099998323	taste	choicePhaseStart	1	29	29	foodImage.69	FOODEEG_Images\0693.jpg	NY	Right	Yes	0.882225099998323	0	179786	253
352.015625	0	taste	response	1	29	29	foodImage.69	FOODEEG_Images\0693.jpg	NY	Right	Yes	0.882225099998323	0	180233	235
353.064453125	1	health	trialStart	1	30	30	foodImage.15	FOODEEG_Images\0189.jpg	YN	Left	Yes	0.604911499998707	0	180770	251
354.12109375	2	health	foodImageDisplay	1	30	30	foodImage.15	FOODEEG_Images\0189.jpg	YN	Left	Yes	0.604911499998707	0	181311	252
356.185546875	0.604911499998707	health	choicePhaseStart	1	30	30	foodImage.15	FOODEEG_Images\0189.jpg	YN	Left	Yes	0.604911499998707	0	182368	253
356.783203125	0	health	response	1	30	30	foodImage.15	FOODEEG_Images\0189.jpg	YN	Left	Yes	0.604911499998707	0	182674	234
357.83203125	1	decision	trialStart	1	31	31	foodImage.99	FOODEEG_Images\0907.jpg	NY	Right	Yes	0.776884299997619	0	183211	251
358.87109375	2	decision	foodImageDisplay	1	31	31	foodImage.99	FOODEEG_Images\0907.jpg	NY	Right	Yes	0.776884299997619	0	183743	252
360.935546875	0.776884299997619	decision	choicePhaseStart	1	31	31	foodImage.99	FOODEEG_Images\0907.jpg	NY	Right	Yes	0.776884299997619	0	184800	253
361.703125	0	decision	response	1	31	31	foodImage.99	FOODEEG_Images\0907.jpg	NY	Right	Yes	0.776884299997619	0	185193	235
362.74609375	1	decision	trialStart	1	32	32	foodImage.41	FOODEEG_Images\0409.jpg	YN	Left	Yes	0.639545999998518	0	185727	251
363.79296875	2	decision	foodImageDisplay	1	32	32	foodImage.41	FOODEEG_Images\0409.jpg	YN	Left	Yes	0.639545999998518	0	186263	252
365.857421875	0.639545999998518	decision	choicePhaseStart	1	32	32	foodImage.41	FOODEEG_Images\0409.jpg	YN	Left	Yes	0.639545999998518	0	187320	253
366.486328125	0	decision	response	1	32	32	foodImage.41	FOODEEG_Images\0409.jpg	YN	Left	Yes	0.639545999998518	0	187642	234
367.529296875	1	taste	trialStart	1	33	33	foodImage.119	FOODEEG_Images\0927.jpg	YN	Right	No	0.616594200000691	0	188176	251
368.568359375	2	taste	foodImageDisplay	1	33	33	foodImage.119	FOODEEG_Images\0927.jpg	YN	Right	No	0.616594200000691	0	188708	252
370.6328125	0.616594200000691	taste	choicePhaseStart	1	33	33	foodImage.119	FOODEEG_Images\0927.jpg	YN	Right	No	0.616594200000691	0	189765	253
371.240234375	0	taste	response	1	33	33	foodImage.119	FOODEEG_Images\0927.jpg	YN	Right	No	0.616594200000691	0	190076	235
372.28125	1	taste	trialStart	1	34	34	foodImage.32	FOODEEG_Images\0319.jpg	NY	Right	Yes	0.69624549999935	0	190609	251
373.32421875	2	taste	foodImageDisplay	1	34	34	foodImage.32	FOODEEG_Images\0319.jpg	NY	Right	Yes	0.69624549999935	0	191143	252
375.392578125	0.69624549999935	taste	choicePhaseStart	1	34	34	foodImage.32	FOODEEG_Images\0319.jpg	NY	Right	Yes	0.69624549999935	0	192202	253
376.078125	0	taste	response	1	34	34	foodImage.32	FOODEEG_Images\0319.jpg	NY	Right	Yes	0.69624549999935	0	192553	235
377.123046875	1	health	trialStart	1	35	35	foodImage.112	FOODEEG_Images\0920.jpg	YN	Left	Yes	0.963735500001349	0	193088	251
378.1796875	2	health	foodImageDisplay	1	35	35	foodImage.112	FOODEEG_Images\0920.jpg	YN	Left	Yes	0.963735500001349	0	193629	252
380.244140625	0.963735500001349	health	choicePhaseStart	1	35	35	foodImage.112	FOODEEG_Images\0920.jpg	YN	Left	Yes	0.963735500001349	0	194686	253
381.19921875	0	health	response	1	35	35	foodImage.112	FOODEEG_Images\0920.jpg	YN	Left	Yes	0.963735500001349	0	195175	234
382.244140625	1	decision	trialStart	1	36	36	foodImage.8	FOODEEG_Images\0136.jpg	NY	Right	Yes	0.680420500000764	0	195710	251
383.302734375	2	decision	foodImageDisplay	1	36	36	foodImage.8	FOODEEG_Images\0136.jpg	NY	Right	Yes	0.680420500000764	0	196252	252
385.3671875	0.680420500000764	decision	choicePhaseStart	1	36	36	foodImage.8	FOODEEG_Images\0136.jpg	NY	Right	Yes	0.680420500000764	0	197309	253
386.0390625	0	decision	response	1	36	36	foodImage.8	FOODEEG_Images\0136.jpg	NY	Right	Yes	0.680420500000764	0	197653	235
387.087890625	1	health	trialStart	1	37	37	foodImage.60	FOODEEG_Images\0614.jpg	YN	Left	Yes	0.591745199999423	0	198190	251
388.15234375	2	health	foodImageDisplay	1	37	37	foodImage.60	FOODEEG_Images\0614.jpg	YN	Left	Yes	0.591745199999423	0	198735	252
390.22265625	0.591745199999423	health	choicePhaseStart	1	37	37	foodImage.60	FOODEEG_Images\0614.jpg	YN	Left	Yes	0.591745199999423	0	199795	253
390.806640625	0	health	response	1	37	37	foodImage.60	FOODEEG_Images\0614.jpg	YN	Left	Yes	0.591745199999423	0	200094	234
391.853515625	1	decision	trialStart	1	38	38	foodImage.31	FOODEEG_Images\0294.jpg	YN	Left	Yes	0.725408199999947	0	200630	251
392.896484375	2	decision	foodImageDisplay	1	38	38	foodImage.31	FOODEEG_Images\0294.jpg	YN	Left	Yes	0.725408199999947	0	201164	252
394.96484375	0.725408199999947	decision	choicePhaseStart	1	38	38	foodImage.31	FOODEEG_Images\0294.jpg	YN	Left	Yes	0.725408199999947	0	202223	253
395.685546875	0	decision	response	1	38	38	foodImage.31	FOODEEG_Images\0294.jpg	YN	Left	Yes	0.725408199999947	0	202592	234
396.728515625	1	taste	trialStart	1	39	39	foodImage.9	FOODEEG_Images\0138.jpg	YN	Left	Yes	2.08973250000054	0	203126	251
397.7890625	2	taste	foodImageDisplay	1	39	39	foodImage.9	FOODEEG_Images\0138.jpg	YN	Left	Yes	2.08973250000054	0	203669	252
399.853515625	2.08973250000054	taste	choicePhaseStart	1	39	39	foodImage.9	FOODEEG_Images\0138.jpg	YN	Left	Yes	2.08973250000054	0	204726	253
401.93359375	0	taste	response	1	39	39	foodImage.9	FOODEEG_Images\0138.jpg	YN	Left	Yes	2.08973250000054	0	205791	234
402.978515625	1	health	trialStart	1	40	40	foodImage.42	FOODEEG_Images\0438.jpg	YN	Left	Yes	0.45053480000206	0	206326	251
404.068359375	2	health	foodImageDisplay	1	40	40	foodImage.42	FOODEEG_Images\0438.jpg	YN	Left	Yes	0.45053480000206	0	206884	252
406.130859375	0.45053480000206	health	choicePhaseStart	1	40	40	foodImage.42	FOODEEG_Images\0438.jpg	YN	Left	Yes	0.45053480000206	0	207940	253
406.57421875	0	health	response	1	40	40	foodImage.42	FOODEEG_Images\0438.jpg	YN	Left	Yes	0.45053480000206	0	208167	234
407.6171875	1	taste	trialStart	1	41	41	foodImage.116	FOODEEG_Images\0924.jpg	NY	Left	No	0.6707172000024	0	208701	251
408.65625	2	taste	foodImageDisplay	1	41	41	foodImage.116	FOODEEG_Images\0924.jpg	NY	Left	No	0.6707172000024	0	209233	252
410.720703125	0.6707172000024	taste	choicePhaseStart	1	41	41	foodImage.116	FOODEEG_Images\0924.jpg	NY	Left	No	0.6707172000024	0	210290	253
411.380859375	0	taste	response	1	41	41	foodImage.116	FOODEEG_Images\0924.jpg	NY	Left	No	0.6707172000024	0	210628	234
412.423828125	1	health	trialStart	1	42	42	foodImage.9	FOODEEG_Images\0138.jpg	NY	Right	Yes	2.08461270000043	0	211162	251
413.48046875	2	health	foodImageDisplay	1	42	42	foodImage.9	FOODEEG_Images\0138.jpg	NY	Right	Yes	2.08461270000043	0	211703	252
415.544921875	2.08461270000043	health	choicePhaseStart	1	42	42	foodImage.9	FOODEEG_Images\0138.jpg	NY	Right	Yes	2.08461270000043	0	212760	253
417.62109375	0	health	response	1	42	42	foodImage.9	FOODEEG_Images\0138.jpg	NY	Right	Yes	2.08461270000043	0	213823	235
418.6640625	1	taste	trialStart	1	43	43	foodImage.83	FOODEEG_Images\0827.jpg	YN	Left	Yes	0.938324100003229	0	214357	251
419.724609375	2	taste	foodImageDisplay	1	43	43	foodImage.83	FOODEEG_Images\0827.jpg	YN	Left	Yes	0.938324100003229	0	214900	252
421.787109375	0.938324100003229	taste	choicePhaseStart	1	43	43	foodImage.83	FOODEEG_Images\0827.jpg	YN	Left	Yes	0.938324100003229	0	215956	253
422.716796875	0	taste	response	1	43	43	foodImage.83	FOODEEG_Images\0827.jpg	YN	Left	Yes	0.938324100003229	0	216432	234
423.76171875	1	health	trialStart	1	44	44	foodImage.105	FOODEEG_Images\0913.jpg	YN	Left	Yes	0.71607640000002	0	216967	251
424.8125	2	health	foodImageDisplay	1	44	44	foodImage.105	FOODEEG_Images\0913.jpg	YN	Left	Yes	0.71607640000002	0	217505	252
426.875	0.71607640000002	health	choicePhaseStart	1	44	44	foodImage.105	FOODEEG_Images\0913.jpg	YN	Left	Yes	0.71607640000002	0	218561	253
427.580078125	0	health	response	1	44	44	foodImage.105	FOODEEG_Images\0913.jpg	YN	Left	Yes	0.71607640000002	0	218922	234
428.625	1	decision	trialStart	1	45	45	foodImage.28	FOODEEG_Images\0273.jpg	NY	Right	Yes	0.839124000001902	0	219457	251
429.666015625	2	decision	foodImageDisplay	1	45	45	foodImage.28	FOODEEG_Images\0273.jpg	NY	Right	Yes	0.839124000001902	0	219990	252
431.734375	0.839124000001902	decision	choicePhaseStart	1	45	45	foodImage.28	FOODEEG_Images\0273.jpg	NY	Right	Yes	0.839124000001902	0	221049	253
432.564453125	0	decision	response	1	45	45	foodImage.28	FOODEEG_Images\0273.jpg	NY	Right	Yes	0.839124000001902	0	221474	235
433.607421875	1	decision	trialStart	1	46	46	foodImage.54	FOODEEG_Images\0560.jpg	YN	Left	Yes	0.658634399998846	0	222008	251
434.68359375	2	decision	foodImageDisplay	1	46	46	foodImage.54	FOODEEG_Images\0560.jpg	YN	Left	Yes	0.658634399998846	0	222559	252
436.748046875	0.658634399998846	decision	choicePhaseStart	1	46	46	foodImage.54	FOODEEG_Images\0560.jpg	YN	Left	Yes	0.658634399998846	0	223616	253
437.396484375	0	decision	response	1	46	46	foodImage.54	FOODEEG_Images\0560.jpg	YN	Left	Yes	0.658634399998846	0	223948	234
438.4453125	1	health	trialStart	1	47	47	foodImage.40	FOODEEG_Images\0373.jpg	NY	Left	No	1.04858990000139	0	224485	251
439.4921875	2	health	foodImageDisplay	1	47	47	foodImage.40	FOODEEG_Images\0373.jpg	NY	Left	No	1.04858990000139	0	225021	252
441.556640625	1.04858990000139	health	choicePhaseStart	1	47	47	foodImage.40	FOODEEG_Images\0373.jpg	NY	Left	No	1.04858990000139	0	226078	253
442.595703125	0	health	response	1	47	47	foodImage.40	FOODEEG_Images\0373.jpg	NY	Left	No	1.04858990000139	0	226610	234
443.638671875	1	taste	trialStart	1	48	48	foodImage.93	FOODEEG_Images\0901.jpg	NY	Left	No	1.38386209999953	0	227144	251
444.677734375	2	taste	foodImageDisplay	1	48	48	foodImage.93	FOODEEG_Images\0901.jpg	NY	Left	No	1.38386209999953	0	227676	252
446.7421875	1.38386209999953	taste	choicePhaseStart	1	48	48	foodImage.93	FOODEEG_Images\0901.jpg	NY	Left	No	1.38386209999953	0	228733	253
448.115234375	0	taste	response	1	48	48	foodImage.93	FOODEEG_Images\0901.jpg	NY	Left	No	1.38386209999953	0	229436	234
449.158203125	1	decision	trialStart	1	49	49	foodImage.107	FOODEEG_Images\0915.jpg	NY	Right	Yes	1.00491269999839	0	229970	251
450.197265625	2	decision	foodImageDisplay	1	49	49	foodImage.107	FOODEEG_Images\0915.jpg	NY	Right	Yes	1.00491269999839	0	230502	252
452.26171875	1.00491269999839	decision	choicePhaseStart	1	49	49	foodImage.107	FOODEEG_Images\0915.jpg	NY	Right	Yes	1.00491269999839	0	231559	253
453.259765625	0	decision	response	1	49	49	foodImage.107	FOODEEG_Images\0915.jpg	NY	Right	Yes	1.00491269999839	0	232070	235
454.302734375	1	health	trialStart	1	50	50	foodImage.34	FOODEEG_Images\0339.jpg	NY	Left	No	0.697323999997025	0	232604	251
455.361328125	2	health	foodImageDisplay	1	50	50	foodImage.34	FOODEEG_Images\0339.jpg	NY	Left	No	0.697323999997025	0	233146	252
457.427734375	0.697323999997025	health	choicePhaseStart	1	50	50	foodImage.34	FOODEEG_Images\0339.jpg	NY	Left	No	0.697323999997025	0	234204	253
458.115234375	0	health	response	1	50	50	foodImage.34	FOODEEG_Images\0339.jpg	NY	Left	No	0.697323999997025	0	234556	234
459.16015625	1	health	trialStart	1	51	51	foodImage.49	FOODEEG_Images\0515.jpg	YN	Right	No	1.13182230000166	0	235091	251
460.201171875	2	health	foodImageDisplay	1	51	51	foodImage.49	FOODEEG_Images\0515.jpg	YN	Right	No	1.13182230000166	0	235624	252
462.265625	1.13182230000166	health	choicePhaseStart	1	51	51	foodImage.49	FOODEEG_Images\0515.jpg	YN	Right	No	1.13182230000166	0	236681	253
463.38671875	0	health	response	1	51	51	foodImage.49	FOODEEG_Images\0515.jpg	YN	Right	No	1.13182230000166	0	237255	235
464.4296875	1	taste	trialStart	1	52	52	foodImage.86	FOODEEG_Images\0844.jpg	NY	Right	Yes	0.721406299999217	0	237789	251
465.4921875	2	taste	foodImageDisplay	1	52	52	foodImage.86	FOODEEG_Images\0844.jpg	NY	Right	Yes	0.721406299999217	0	238333	252
467.5546875	0.721406299999217	taste	choicePhaseStart	1	52	52	foodImage.86	FOODEEG_Images\0844.jpg	NY	Right	Yes	0.721406299999217	0	239389	253
468.267578125	0	taste	response	1	52	52	foodImage.86	FOODEEG_Images\0844.jpg	NY	Right	Yes	0.721406299999217	0	239754	235
469.310546875	1	health	trialStart	1	53	53	foodImage.93	FOODEEG_Images\0901.jpg	YN	Right	No	1.14435030000095	0	240288	251
470.349609375	2	health	foodImageDisplay	1	53	53	foodImage.93	FOODEEG_Images\0901.jpg	YN	Right	No	1.14435030000095	0	240820	252
472.419921875	1.14435030000095	health	choicePhaseStart	1	53	53	foodImage.93	FOODEEG_Images\0901.jpg	YN	Right	No	1.14435030000095	0	241880	253
473.5546875	0	health	response	1	53	53	foodImage.93	FOODEEG_Images\0901.jpg	YN	Right	No	1.14435030000095	0	242461	235
474.595703125	1	health	trialStart	1	54	54	foodImage.88	FOODEEG_Images\0878.jpg	NY	Left	No	0.742306899999676	0	242994	251
475.662109375	2	health	foodImageDisplay	1	54	54	foodImage.88	FOODEEG_Images\0878.jpg	NY	Left	No	0.742306899999676	0	243540	252
477.7265625	0.742306899999676	health	choicePhaseStart	1	54	54	foodImage.88	FOODEEG_Images\0878.jpg	NY	Left	No	0.742306899999676	0	244597	253
478.458984375	0	health	response	1	54	54	foodImage.88	FOODEEG_Images\0878.jpg	NY	Left	No	0.742306899999676	0	244972	234
479.501953125	1	health	trialStart	1	55	55	foodImage.45	FOODEEG_Images\0478.jpg	NY	Right	Yes	0.956668399998307	0	245506	251
480.544921875	2	health	foodImageDisplay	1	55	55	foodImage.45	FOODEEG_Images\0478.jpg	NY	Right	Yes	0.956668399998307	0	246040	252
482.607421875	0.956668399998307	health	choicePhaseStart	1	55	55	foodImage.45	FOODEEG_Images\0478.jpg	NY	Right	Yes	0.956668399998307	0	247096	253
483.5546875	0	health	response	1	55	55	foodImage.45	FOODEEG_Images\0478.jpg	NY	Right	Yes	0.956668399998307	0	247581	235
484.59765625	1	health	trialStart	1	56	56	foodImage.75	FOODEEG_Images\0763.jpg	YN	Left	Yes	0.659012899999652	0	248115	251
485.640625	2	health	foodImageDisplay	1	56	56	foodImage.75	FOODEEG_Images\0763.jpg	YN	Left	Yes	0.659012899999652	0	248649	252
487.705078125	0.659012899999652	health	choicePhaseStart	1	56	56	foodImage.75	FOODEEG_Images\0763.jpg	YN	Left	Yes	0.659012899999652	0	249706	253
488.353515625	0	health	response	1	56	56	foodImage.75	FOODEEG_Images\0763.jpg	YN	Left	Yes	0.659012899999652	0	250038	234
489.396484375	1	taste	trialStart	1	57	57	foodImage.73	FOODEEG_Images\0717.jpg	YN	Left	Yes	0.581662399999914	0	250572	251
490.4609375	2	taste	foodImageDisplay	1	57	57	foodImage.73	FOODEEG_Images\0717.jpg	YN	Left	Yes	0.581662399999914	0	251117	252
492.525390625	0.581662399999914	taste	choicePhaseStart	1	57	57	foodImage.73	FOODEEG_Images\0717.jpg	YN	Left	Yes	0.581662399999914	0	252174	253
493.09765625	0	taste	response	1	57	57	foodImage.73	FOODEEG_Images\0717.jpg	YN	Left	Yes	0.581662399999914	0	252467	234
494.142578125	1	health	trialStart	1	58	58	foodImage.117	FOODEEG_Images\0925.jpg	YN	Left	Yes	0.539440799999284	0	253002	251
495.19140625	2	health	foodImageDisplay	1	58	58	foodImage.117	FOODEEG_Images\0925.jpg	YN	Left	Yes	0.539440799999284	0	253539	252
497.255859375	0.539440799999284	health	choicePhaseStart	1	58	58	foodImage.117	FOODEEG_Images\0925.jpg	YN	Left	Yes	0.539440799999284	0	254596	253
497.787109375	0	health	response	1	58	58	foodImage.117	FOODEEG_Images\0925.jpg	YN	Left	Yes	0.539440799999284	0	254868	234
498.833984375	1	taste	trialStart	1	59	59	foodImage.19	FOODEEG_Images\0225.jpg	NY	Left	No	0.764176599997882	0	255404	251
499.87890625	2	taste	foodImageDisplay	1	59	59	foodImage.19	FOODEEG_Images\0225.jpg	NY	Left	No	0.764176599997882	0	255939	252
501.94140625	0.764176599997882	taste	choicePhaseStart	1	59	59	foodImage.19	FOODEEG_Images\0225.jpg	NY	Left	No	0.764176599997882	0	256995	253
502.697265625	0	taste	response	1	59	59	foodImage.19	FOODEEG_Images\0225.jpg	NY	Left	No	0.764176599997882	0	257382	234
503.740234375	1	health	trialStart	1	60	60	foodImage.29	FOODEEG_Images\0278.jpg	NY	Right	Yes	1.1953125	0	257916	251
504.779296875	2	health	foodImageDisplay	1	60	60	foodImage.29	FOODEEG_Images\0278.jpg	NY	Right	Yes	1.1953125	0	258448	252
506.84765625	1.1953125	health	choicePhaseStart	1	60	60	foodImage.29	FOODEEG_Images\0278.jpg	NY	Right	Yes	1.1953125	0	259507	253
508.033203125	0	health	response	1	60	60	foodImage.29	FOODEEG_Images\0278.jpg	NY	Right	Yes	1.1953125	0	260114	235
510.080078125	24.921875	n/a	blockEnd	n/a	n/a	n/a	n/a	n/a	n/a	n/a	n/a	n/a	n/a	261162	254
535.001953125	2	n/a	blockStart	2	n/a	n/a	n/a	n/a	n/a	n/a	n/a	n/a	n/a	273922	250
537.037109375	1	taste	trialStart	2	61	1	foodImage.82	FOODEEG_Images\0805.jpg	NY	Left	No	1.5468260000016	0	274964	251
538.123046875	2	taste	foodImageDisplay	2	61	1	foodImage.82	FOODEEG_Images\0805.jpg	NY	Left	No	1.5468260000016	0	275520	252
540.1875	1.5468260000016	taste	choicePhaseStart	2	61	1	foodImage.82	FOODEEG_Images\0805.jpg	NY	Left	No	1.5468260000016	0	276577	253
541.728515625	0	taste	response	2	61	1	foodImage.82	FOODEEG_Images\0805.jpg	NY	Left	No	1.5468260000016	0	277366	234
542.7734375	1	health	trialStart	2	62	2	foodImage.44	FOODEEG_Images\0459.jpg	YN	Left	Yes	0.661197900000843	0	277901	251
543.8203125	2	health	foodImageDisplay	2	62	2	foodImage.44	FOODEEG_Images\0459.jpg	YN	Left	Yes	0.661197900000843	0	278437	252
545.8828125	0.661197900000843	health	choicePhaseStart	2	62	2	foodImage.44	FOODEEG_Images\0459.jpg	YN	Left	Yes	0.661197900000843	0	279493	253
546.53515625	0	health	response	2	62	2	foodImage.44	FOODEEG_Images\0459.jpg	YN	Left	Yes	0.661197900000843	0	279827	234
547.578125	1	taste	trialStart	2	63	3	foodImage.67	FOODEEG_Images\0679.jpg	YN	Right	No	0.789755799996783	0	280361	251
548.634765625	2	taste	foodImageDisplay	2	63	3	foodImage.67	FOODEEG_Images\0679.jpg	YN	Right	No	0.789755799996783	0	280902	252
550.69921875	0.789755799996783	taste	choicePhaseStart	2	63	3	foodImage.67	FOODEEG_Images\0679.jpg	YN	Right	No	0.789755799996783	0	281959	253
551.48046875	0	taste	response	2	63	3	foodImage.67	FOODEEG_Images\0679.jpg	YN	Right	No	0.789755799996783	0	282359	235
552.5234375	1	decision	trialStart	2	64	4	foodImage.55	FOODEEG_Images\0567.jpg	NY	Left	No	0.635838200003491	0	282893	251
553.580078125	2	decision	foodImageDisplay	2	64	4	foodImage.55	FOODEEG_Images\0567.jpg	NY	Left	No	0.635838200003491	0	283434	252
555.646484375	0.635838200003491	decision	choicePhaseStart	2	64	4	foodImage.55	FOODEEG_Images\0567.jpg	NY	Left	No	0.635838200003491	0	284492	253
556.271484375	0	decision	response	2	64	4	foodImage.55	FOODEEG_Images\0567.jpg	NY	Left	No	0.635838200003491	0	284812	234
557.31640625	1	health	trialStart	2	65	5	foodImage.30	FOODEEG_Images\0282.jpg	NY	Right	Yes	0.691211400000611	0	285347	251
558.357421875	2	health	foodImageDisplay	2	65	5	foodImage.30	FOODEEG_Images\0282.jpg	NY	Right	Yes	0.691211400000611	0	285880	252
560.421875	0.691211400000611	health	choicePhaseStart	2	65	5	foodImage.30	FOODEEG_Images\0282.jpg	NY	Right	Yes	0.691211400000611	0	286937	253
561.103515625	0	health	response	2	65	5	foodImage.30	FOODEEG_Images\0282.jpg	NY	Right	Yes	0.691211400000611	0	287286	235
562.146484375	1	health	trialStart	2	66	6	foodImage.14	FOODEEG_Images\0188.jpg	YN	Right	No	1.37103899999784	0	287820	251
563.205078125	2	health	foodImageDisplay	2	66	6	foodImage.14	FOODEEG_Images\0188.jpg	YN	Right	No	1.37103899999784	0	288362	252
565.26953125	1.37103899999784	health	choicePhaseStart	2	66	6	foodImage.14	FOODEEG_Images\0188.jpg	YN	Right	No	1.37103899999784	0	289419	253
566.630859375	0	health	response	2	66	6	foodImage.14	FOODEEG_Images\0188.jpg	YN	Right	No	1.37103899999784	0	290116	235
567.673828125	1	decision	trialStart	2	67	7	foodImage.7	FOODEEG_Images\0116.jpg	YN	Left	Yes	0.541040100000828	0	290650	251
568.71484375	2	decision	foodImageDisplay	2	67	7	foodImage.7	FOODEEG_Images\0116.jpg	YN	Left	Yes	0.541040100000828	0	291183	252
570.779296875	0.541040100000828	decision	choicePhaseStart	2	67	7	foodImage.7	FOODEEG_Images\0116.jpg	YN	Left	Yes	0.541040100000828	0	292240	253
571.310546875	0	decision	response	2	67	7	foodImage.7	FOODEEG_Images\0116.jpg	YN	Left	Yes	0.541040100000828	0	292512	234
572.361328125	1	health	trialStart	2	68	8	foodImage.102	FOODEEG_Images\0910.jpg	YN	Right	No	1.44262639999943	0	293050	251
573.3984375	2	health	foodImageDisplay	2	68	8	foodImage.102	FOODEEG_Images\0910.jpg	YN	Right	No	1.44262639999943	0	293581	252
575.46875	1.44262639999943	health	choicePhaseStart	2	68	8	foodImage.102	FOODEEG_Images\0910.jpg	YN	Right	No	1.44262639999943	0	294641	253
576.90234375	0	health	response	2	68	8	foodImage.102	FOODEEG_Images\0910.jpg	YN	Right	No	1.44262639999943	0	295375	235
577.9453125	1	decision	trialStart	2	69	9	foodImage.120	FOODEEG_Images\0928.jpg	NY	Left	No	0.624530599998252	0	295909	251
578.982421875	2	decision	foodImageDisplay	2	69	9	foodImage.120	FOODEEG_Images\0928.jpg	NY	Left	No	0.624530599998252	0	296440	252
581.046875	0.624530599998252	decision	choicePhaseStart	2	69	9	foodImage.120	FOODEEG_Images\0928.jpg	NY	Left	No	0.624530599998252	0	297497	253
581.662109375	0	decision	response	2	69	9	foodImage.120	FOODEEG_Images\0928.jpg	NY	Left	No	0.624530599998252	0	297812	234
582.70703125	1	health	trialStart	2	70	10	foodImage.32	FOODEEG_Images\0319.jpg	NY	Left	No	1.58555110000088	0	298347	251
583.75	2	health	foodImageDisplay	2	70	10	foodImage.32	FOODEEG_Images\0319.jpg	NY	Left	No	1.58555110000088	0	298881	252
585.814453125	1.58555110000088	health	choicePhaseStart	2	70	10	foodImage.32	FOODEEG_Images\0319.jpg	NY	Left	No	1.58555110000088	0	299938	253
587.390625	0	health	response	2	70	10	foodImage.32	FOODEEG_Images\0319.jpg	NY	Left	No	1.58555110000088	0	300745	234
588.439453125	1	decision	trialStart	2	71	11	foodImage.38	FOODEEG_Images\0365.jpg	NY	Right	Yes	0.480934200000775	0	301282	251
589.478515625	2	decision	foodImageDisplay	2	71	11	foodImage.38	FOODEEG_Images\0365.jpg	NY	Right	Yes	0.480934200000775	0	301814	252
591.54296875	0.480934200000775	decision	choicePhaseStart	2	71	11	foodImage.38	FOODEEG_Images\0365.jpg	NY	Right	Yes	0.480934200000775	0	302871	253
592.013671875	0	decision	response	2	71	11	foodImage.38	FOODEEG_Images\0365.jpg	NY	Right	Yes	0.480934200000775	0	303112	235
593.05859375	1	health	trialStart	2	72	12	foodImage.20	FOODEEG_Images\0226.jpg	NY	Right	Yes	0.988945799999783	0	303647	251
594.099609375	2	health	foodImageDisplay	2	72	12	foodImage.20	FOODEEG_Images\0226.jpg	NY	Right	Yes	0.988945799999783	0	304180	252
596.16796875	0.988945799999783	health	choicePhaseStart	2	72	12	foodImage.20	FOODEEG_Images\0226.jpg	NY	Right	Yes	0.988945799999783	0	305239	253
597.150390625	0	health	response	2	72	12	foodImage.20	FOODEEG_Images\0226.jpg	NY	Right	Yes	0.988945799999783	0	305742	235
598.193359375	1	health	trialStart	2	73	13	foodImage.73	FOODEEG_Images\0717.jpg	NY	Left	No	2.01922930000001	0	306276	251
599.26953125	2	health	foodImageDisplay	2	73	13	foodImage.73	FOODEEG_Images\0717.jpg	NY	Left	No	2.01922930000001	0	306827	252
601.33203125	2.01922930000001	health	choicePhaseStart	2	73	13	foodImage.73	FOODEEG_Images\0717.jpg	NY	Left	No	2.01922930000001	0	307883	253
603.341796875	0	health	response	2	73	13	foodImage.73	FOODEEG_Images\0717.jpg	NY	Left	No	2.01922930000001	0	308912	234
604.384765625	1	decision	trialStart	2	74	14	foodImage.79	FOODEEG_Images\0794.jpg	NY	Right	Yes	0.573382200000196	0	309446	251
605.43359375	2	decision	foodImageDisplay	2	74	14	foodImage.79	FOODEEG_Images\0794.jpg	NY	Right	Yes	0.573382200000196	0	309983	252
607.498046875	0.573382200000196	decision	choicePhaseStart	2	74	14	foodImage.79	FOODEEG_Images\0794.jpg	NY	Right	Yes	0.573382200000196	0	311040	253
608.0625	0	decision	response	2	74	14	foodImage.79	FOODEEG_Images\0794.jpg	NY	Right	Yes	0.573382200000196	0	311329	235
609.103515625	1	decision	trialStart	2	75	15	foodImage.76	FOODEEG_Images\0766.jpg	NY	Right	Yes	0.63165300000037	0	311862	251
610.15234375	2	decision	foodImageDisplay	2	75	15	foodImage.76	FOODEEG_Images\0766.jpg	NY	Right	Yes	0.63165300000037	0	312399	252
612.21484375	0.63165300000037	decision	choicePhaseStart	2	75	15	foodImage.76	FOODEEG_Images\0766.jpg	NY	Right	Yes	0.63165300000037	0	313455	253
612.837890625	0	decision	response	2	75	15	foodImage.76	FOODEEG_Images\0766.jpg	NY	Right	Yes	0.63165300000037	0	313774	235
613.884765625	1	taste	trialStart	2	76	16	foodImage.114	FOODEEG_Images\0922.jpg	YN	Right	No	1.16325119999965	0	314310	251
614.921875	2	taste	foodImageDisplay	2	76	16	foodImage.114	FOODEEG_Images\0922.jpg	YN	Right	No	1.16325119999965	0	314841	252
616.986328125	1.16325119999965	taste	choicePhaseStart	2	76	16	foodImage.114	FOODEEG_Images\0922.jpg	YN	Right	No	1.16325119999965	0	315898	253
618.140625	0	taste	response	2	76	16	foodImage.114	FOODEEG_Images\0922.jpg	YN	Right	No	1.16325119999965	0	316489	235
619.18359375	1	health	trialStart	2	77	17	foodImage.10	FOODEEG_Images\0145.jpg	YN	Right	No	0.978635600000416	0	317023	251
620.259765625	2	health	foodImageDisplay	2	77	17	foodImage.10	FOODEEG_Images\0145.jpg	YN	Right	No	0.978635600000416	0	317574	252
622.32421875	0.978635600000416	health	choicePhaseStart	2	77	17	foodImage.10	FOODEEG_Images\0145.jpg	YN	Right	No	0.978635600000416	0	318631	253
623.29296875	0	health	response	2	77	17	foodImage.10	FOODEEG_Images\0145.jpg	YN	Right	No	0.978635600000416	0	319127	235
624.3359375	1	health	trialStart	2	78	18	foodImage.37	FOODEEG_Images\0359.jpg	NY	Right	Yes	0.76996650000001	0	319661	251
625.388671875	2	health	foodImageDisplay	2	78	18	foodImage.37	FOODEEG_Images\0359.jpg	NY	Right	Yes	0.76996650000001	0	320200	252
627.45703125	0.76996650000001	health	choicePhaseStart	2	78	18	foodImage.37	FOODEEG_Images\0359.jpg	NY	Right	Yes	0.76996650000001	0	321259	253
628.220703125	0	health	response	2	78	18	foodImage.37	FOODEEG_Images\0359.jpg	NY	Right	Yes	0.76996650000001	0	321650	235
629.26953125	1	health	trialStart	2	79	19	foodImage.90	FOODEEG_Images\0890.jpg	YN	Left	Yes	1.42932269999801	0	322187	251
630.326171875	2	health	foodImageDisplay	2	79	19	foodImage.90	FOODEEG_Images\0890.jpg	YN	Left	Yes	1.42932269999801	0	322728	252
632.390625	1.42932269999801	health	choicePhaseStart	2	79	19	foodImage.90	FOODEEG_Images\0890.jpg	YN	Left	Yes	1.42932269999801	0	323785	253
633.8125	0	health	response	2	79	19	foodImage.90	FOODEEG_Images\0890.jpg	YN	Left	Yes	1.42932269999801	0	324513	234
634.859375	1	health	trialStart	2	80	20	foodImage.80	FOODEEG_Images\0796.jpg	NY	Right	Yes	0.698028899998462	0	325049	251
635.916015625	2	health	foodImageDisplay	2	80	20	foodImage.80	FOODEEG_Images\0796.jpg	NY	Right	Yes	0.698028899998462	0	325590	252
637.98046875	0.698028899998462	health	choicePhaseStart	2	80	20	foodImage.80	FOODEEG_Images\0796.jpg	NY	Right	Yes	0.698028899998462	0	326647	253
638.66796875	0	health	response	2	80	20	foodImage.80	FOODEEG_Images\0796.jpg	NY	Right	Yes	0.698028899998462	0	326999	235
639.712890625	1	health	trialStart	2	81	21	foodImage.77	FOODEEG_Images\0771.jpg	NY	Right	Yes	0.806839900000341	0	327534	251
640.7578125	2	health	foodImageDisplay	2	81	21	foodImage.77	FOODEEG_Images\0771.jpg	NY	Right	Yes	0.806839900000341	0	328069	252
642.822265625	0.806839900000341	health	choicePhaseStart	2	81	21	foodImage.77	FOODEEG_Images\0771.jpg	NY	Right	Yes	0.806839900000341	0	329126	253
643.62109375	0	health	response	2	81	21	foodImage.77	FOODEEG_Images\0771.jpg	NY	Right	Yes	0.806839900000341	0	329535	235
644.6640625	1	taste	trialStart	2	82	22	foodImage.16	FOODEEG_Images\0196.jpg	NY	Left	No	1.31570339999962	0	330069	251
645.72265625	2	taste	foodImageDisplay	2	82	22	foodImage.16	FOODEEG_Images\0196.jpg	NY	Left	No	1.31570339999962	0	330611	252
647.78515625	1.31570339999962	taste	choicePhaseStart	2	82	22	foodImage.16	FOODEEG_Images\0196.jpg	NY	Left	No	1.31570339999962	0	331667	253
649.091796875	0	taste	response	2	82	22	foodImage.16	FOODEEG_Images\0196.jpg	NY	Left	No	1.31570339999962	0	332336	234
650.13671875	1	decision	trialStart	2	83	23	foodImage.11	FOODEEG_Images\0180.jpg	YN	Left	Yes	1.19434829999955	0	332871	251
651.193359375	2	decision	foodImageDisplay	2	83	23	foodImage.11	FOODEEG_Images\0180.jpg	YN	Left	Yes	1.19434829999955	0	333412	252
653.2578125	1.19434829999955	decision	choicePhaseStart	2	83	23	foodImage.11	FOODEEG_Images\0180.jpg	YN	Left	Yes	1.19434829999955	0	334469	253
654.443359375	0	decision	response	2	83	23	foodImage.11	FOODEEG_Images\0180.jpg	YN	Left	Yes	1.19434829999955	0	335076	234
655.48828125	1	health	trialStart	2	84	24	foodImage.58	FOODEEG_Images\0605.jpg	YN	Left	Yes	1.08226149999973	0	335611	251
656.546875	2	health	foodImageDisplay	2	84	24	foodImage.58	FOODEEG_Images\0605.jpg	YN	Left	Yes	1.08226149999973	0	336153	252
658.611328125	1.08226149999973	health	choicePhaseStart	2	84	24	foodImage.58	FOODEEG_Images\0605.jpg	YN	Left	Yes	1.08226149999973	0	337210	253
659.68359375	0	health	response	2	84	24	foodImage.58	FOODEEG_Images\0605.jpg	YN	Left	Yes	1.08226149999973	0	337759	234
660.7265625	1	health	trialStart	2	85	25	foodImage.120	FOODEEG_Images\0928.jpg	NY	Left	No	1.00988030000008	0	338293	251
661.763671875	2	health	foodImageDisplay	2	85	25	foodImage.120	FOODEEG_Images\0928.jpg	NY	Left	No	1.00988030000008	0	338824	252
663.83203125	1.00988030000008	health	choicePhaseStart	2	85	25	foodImage.120	FOODEEG_Images\0928.jpg	NY	Left	No	1.00988030000008	0	339883	253
664.8359375	0	health	response	2	85	25	foodImage.120	FOODEEG_Images\0928.jpg	NY	Left	No	1.00988030000008	0	340397	234
665.87890625	1	health	trialStart	2	86	26	foodImage.13	FOODEEG_Images\0183.jpg	NY	Right	Yes	0.88536010000098	0	340931	251
666.919921875	2	health	foodImageDisplay	2	86	26	foodImage.13	FOODEEG_Images\0183.jpg	NY	Right	Yes	0.88536010000098	0	341464	252
668.984375	0.88536010000098	health	choicePhaseStart	2	86	26	foodImage.13	FOODEEG_Images\0183.jpg	NY	Right	Yes	0.88536010000098	0	342521	253
669.859375	0	health	response	2	86	26	foodImage.13	FOODEEG_Images\0183.jpg	NY	Right	Yes	0.88536010000098	0	342969	235
670.90234375	1	taste	trialStart	2	87	27	foodImage.15	FOODEEG_Images\0189.jpg	NY	Right	Yes	0.702121700000134	0	343503	251
671.974609375	2	taste	foodImageDisplay	2	87	27	foodImage.15	FOODEEG_Images\0189.jpg	NY	Right	Yes	0.702121700000134	0	344052	252
674.037109375	0.702121700000134	taste	choicePhaseStart	2	87	27	foodImage.15	FOODEEG_Images\0189.jpg	NY	Right	Yes	0.702121700000134	0	345108	253
674.73046875	0	taste	response	2	87	27	foodImage.15	FOODEEG_Images\0189.jpg	NY	Right	Yes	0.702121700000134	0	345463	235
675.7734375	1	decision	trialStart	2	88	28	foodImage.73	FOODEEG_Images\0717.jpg	YN	Left	Yes	0.859373600000254	0	345997	251
676.833984375	2	decision	foodImageDisplay	2	88	28	foodImage.73	FOODEEG_Images\0717.jpg	YN	Left	Yes	0.859373600000254	0	346540	252
678.896484375	0.859373600000254	decision	choicePhaseStart	2	88	28	foodImage.73	FOODEEG_Images\0717.jpg	YN	Left	Yes	0.859373600000254	0	347596	253
679.74609375	0	decision	response	2	88	28	foodImage.73	FOODEEG_Images\0717.jpg	YN	Left	Yes	0.859373600000254	0	348031	234
680.7890625	1	decision	trialStart	2	89	29	foodImage.82	FOODEEG_Images\0805.jpg	YN	Right	No	1.43184850000034	0	348565	251
681.84375	2	decision	foodImageDisplay	2	89	29	foodImage.82	FOODEEG_Images\0805.jpg	YN	Right	No	1.43184850000034	0	349105	252
683.908203125	1.43184850000034	decision	choicePhaseStart	2	89	29	foodImage.82	FOODEEG_Images\0805.jpg	YN	Right	No	1.43184850000034	0	350162	253
685.330078125	0	decision	response	2	89	29	foodImage.82	FOODEEG_Images\0805.jpg	YN	Right	No	1.43184850000034	0	350890	235
686.375	1	taste	trialStart	2	90	30	foodImage.80	FOODEEG_Images\0796.jpg	NY	Right	Yes	0.607681000001321	0	351425	251
687.43359375	2	taste	foodImageDisplay	2	90	30	foodImage.80	FOODEEG_Images\0796.jpg	NY	Right	Yes	0.607681000001321	0	351967	252
689.5	0.607681000001321	taste	choicePhaseStart	2	90	30	foodImage.80	FOODEEG_Images\0796.jpg	NY	Right	Yes	0.607681000001321	0	353025	253
690.099609375	0	taste	response	2	90	30	foodImage.80	FOODEEG_Images\0796.jpg	NY	Right	Yes	0.607681000001321	0	353332	235
691.146484375	1	taste	trialStart	2	91	31	foodImage.71	FOODEEG_Images\0713.jpg	YN	Left	Yes	0.532327200002328	0	353868	251
692.189453125	2	taste	foodImageDisplay	2	91	31	foodImage.71	FOODEEG_Images\0713.jpg	YN	Left	Yes	0.532327200002328	0	354402	252
694.25390625	0.532327200002328	taste	choicePhaseStart	2	91	31	foodImage.71	FOODEEG_Images\0713.jpg	YN	Left	Yes	0.532327200002328	0	355459	253
694.77734375	0	taste	response	2	91	31	foodImage.71	FOODEEG_Images\0713.jpg	YN	Left	Yes	0.532327200002328	0	355727	234
695.8203125	1	health	trialStart	2	92	32	foodImage.56	FOODEEG_Images\0586.jpg	YN	Right	No	1.32397009999841	0	356261	251
696.86328125	2	health	foodImageDisplay	2	92	32	foodImage.56	FOODEEG_Images\0586.jpg	YN	Right	No	1.32397009999841	0	356795	252
698.927734375	1.32397009999841	health	choicePhaseStart	2	92	32	foodImage.56	FOODEEG_Images\0586.jpg	YN	Right	No	1.32397009999841	0	357852	253
700.2421875	0	health	response	2	92	32	foodImage.56	FOODEEG_Images\0586.jpg	YN	Right	No	1.32397009999841	0	358525	235
701.287109375	1	health	trialStart	2	93	33	foodImage.109	FOODEEG_Images\0917.jpg	NY	Left	No	0.732553699999698	0	359060	251
702.32421875	2	health	foodImageDisplay	2	93	33	foodImage.109	FOODEEG_Images\0917.jpg	NY	Left	No	0.732553699999698	0	359591	252
704.388671875	0.732553699999698	health	choicePhaseStart	2	93	33	foodImage.109	FOODEEG_Images\0917.jpg	NY	Left	No	0.732553699999698	0	360648	253
705.11328125	0	health	response	2	93	33	foodImage.109	FOODEEG_Images\0917.jpg	NY	Left	No	0.732553699999698	0	361019	234
706.1640625	1	decision	trialStart	2	94	34	foodImage.96	FOODEEG_Images\0904.jpg	YN	Right	No	0.642509599998448	0	361557	251
707.203125	2	decision	foodImageDisplay	2	94	34	foodImage.96	FOODEEG_Images\0904.jpg	YN	Right	No	0.642509599998448	0	362089	252
709.26953125	0.642509599998448	decision	choicePhaseStart	2	94	34	foodImage.96	FOODEEG_Images\0904.jpg	YN	Right	No	0.642509599998448	0	363147	253
709.90625	0	decision	response	2	94	34	foodImage.96	FOODEEG_Images\0904.jpg	YN	Right	No	0.642509599998448	0	363473	235
710.94921875	1	decision	trialStart	2	95	35	foodImage.39	FOODEEG_Images\0367.jpg	NY	Right	Yes	1.38286150000204	0	364007	251
711.986328125	2	decision	foodImageDisplay	2	95	35	foodImage.39	FOODEEG_Images\0367.jpg	NY	Right	Yes	1.38286150000204	0	364538	252
714.052734375	1.38286150000204	decision	choicePhaseStart	2	95	35	foodImage.39	FOODEEG_Images\0367.jpg	NY	Right	Yes	1.38286150000204	0	365596	253
715.42578125	0	decision	response	2	95	35	foodImage.39	FOODEEG_Images\0367.jpg	NY	Right	Yes	1.38286150000204	0	366299	235
716.46875	1	decision	trialStart	2	96	36	foodImage.61	FOODEEG_Images\0640.jpg	YN	Right	No	1.25052270000015	0	366833	251
717.51171875	2	decision	foodImageDisplay	2	96	36	foodImage.61	FOODEEG_Images\0640.jpg	YN	Right	No	1.25052270000015	0	367367	252
719.576171875	1.25052270000015	decision	choicePhaseStart	2	96	36	foodImage.61	FOODEEG_Images\0640.jpg	YN	Right	No	1.25052270000015	0	368424	253
720.81640625	0	decision	response	2	96	36	foodImage.61	FOODEEG_Images\0640.jpg	YN	Right	No	1.25052270000015	0	369059	235
721.861328125	1	taste	trialStart	2	97	37	foodImage.35	FOODEEG_Images\0350.jpg	NY	Left	No	0.661231999998563	0	369594	251
722.900390625	2	taste	foodImageDisplay	2	97	37	foodImage.35	FOODEEG_Images\0350.jpg	NY	Left	No	0.661231999998563	0	370126	252
724.96484375	0.661231999998563	taste	choicePhaseStart	2	97	37	foodImage.35	FOODEEG_Images\0350.jpg	NY	Left	No	0.661231999998563	0	371183	253
725.6171875	0	taste	response	2	97	37	foodImage.35	FOODEEG_Images\0350.jpg	NY	Left	No	0.661231999998563	0	371517	234
726.66015625	1	taste	trialStart	2	98	38	foodImage.115	FOODEEG_Images\0923.jpg	YN	Right	No	0.707638100000622	0	372051	251
727.69921875	2	taste	foodImageDisplay	2	98	38	foodImage.115	FOODEEG_Images\0923.jpg	YN	Right	No	0.707638100000622	0	372583	252
729.765625	0.707638100000622	taste	choicePhaseStart	2	98	38	foodImage.115	FOODEEG_Images\0923.jpg	YN	Right	No	0.707638100000622	0	373641	253
730.46484375	0	taste	response	2	98	38	foodImage.115	FOODEEG_Images\0923.jpg	YN	Right	No	0.707638100000622	0	373999	235
731.5078125	1	health	trialStart	2	99	39	foodImage.16	FOODEEG_Images\0196.jpg	NY	Right	Yes	0.964144099998521	0	374533	251
732.56640625	2	health	foodImageDisplay	2	99	39	foodImage.16	FOODEEG_Images\0196.jpg	NY	Right	Yes	0.964144099998521	0	375075	252
734.62890625	0.964144099998521	health	choicePhaseStart	2	99	39	foodImage.16	FOODEEG_Images\0196.jpg	NY	Right	Yes	0.964144099998521	0	376131	253
735.583984375	0	health	response	2	99	39	foodImage.16	FOODEEG_Images\0196.jpg	NY	Right	Yes	0.964144099998521	0	376620	235
736.626953125	1	health	trialStart	2	100	40	foodImage.62	FOODEEG_Images\0644.jpg	YN	Left	Yes	0.758740400000534	0	377154	251
737.68359375	2	health	foodImageDisplay	2	100	40	foodImage.62	FOODEEG_Images\0644.jpg	YN	Left	Yes	0.758740400000534	0	377695	252
739.748046875	0.758740400000534	health	choicePhaseStart	2	100	40	foodImage.62	FOODEEG_Images\0644.jpg	YN	Left	Yes	0.758740400000534	0	378752	253
740.49609375	0	health	response	2	100	40	foodImage.62	FOODEEG_Images\0644.jpg	YN	Left	Yes	0.758740400000534	0	379135	234
741.544921875	1	health	trialStart	2	101	41	foodImage.108	FOODEEG_Images\0916.jpg	NY	Left	No	1.50530569999682	0	379672	251
742.5859375	2	health	foodImageDisplay	2	101	41	foodImage.108	FOODEEG_Images\0916.jpg	NY	Left	No	1.50530569999682	0	380205	252
744.65625	1.50530569999682	health	choicePhaseStart	2	101	41	foodImage.108	FOODEEG_Images\0916.jpg	NY	Left	No	1.50530569999682	0	381265	253
746.15234375	0	health	response	2	101	41	foodImage.108	FOODEEG_Images\0916.jpg	NY	Left	No	1.50530569999682	0	382031	234
747.197265625	1	health	trialStart	2	102	42	foodImage.106	FOODEEG_Images\0914.jpg	NY	Left	No	0.819013099997392	0	382566	251
748.23828125	2	health	foodImageDisplay	2	102	42	foodImage.106	FOODEEG_Images\0914.jpg	NY	Left	No	0.819013099997392	0	383099	252
750.30078125	0.819013099997392	health	choicePhaseStart	2	102	42	foodImage.106	FOODEEG_Images\0914.jpg	NY	Left	No	0.819013099997392	0	384155	253
751.111328125	0	health	response	2	102	42	foodImage.106	FOODEEG_Images\0914.jpg	NY	Left	No	0.819013099997392	0	384570	234
752.15625	1	health	trialStart	2	103	43	foodImage.64	FOODEEG_Images\0647.jpg	YN	Left	Yes	0.855363200000284	0	385105	251
753.2109375	2	health	foodImageDisplay	2	103	43	foodImage.64	FOODEEG_Images\0647.jpg	YN	Left	Yes	0.855363200000284	0	385645	252
755.2734375	0.855363200000284	health	choicePhaseStart	2	103	43	foodImage.64	FOODEEG_Images\0647.jpg	YN	Left	Yes	0.855363200000284	0	386701	253
756.119140625	0	health	response	2	103	43	foodImage.64	FOODEEG_Images\0647.jpg	YN	Left	Yes	0.855363200000284	0	387134	234
757.162109375	1	health	trialStart	2	104	44	foodImage.100	FOODEEG_Images\0908.jpg	NY	Left	No	0.789954100000614	0	387668	251
758.203125	2	health	foodImageDisplay	2	104	44	foodImage.100	FOODEEG_Images\0908.jpg	NY	Left	No	0.789954100000614	0	388201	252
760.265625	0.789954100000614	health	choicePhaseStart	2	104	44	foodImage.100	FOODEEG_Images\0908.jpg	NY	Left	No	0.789954100000614	0	389257	253
761.046875	0	health	response	2	104	44	foodImage.100	FOODEEG_Images\0908.jpg	NY	Left	No	0.789954100000614	0	389657	234
762.08984375	1	decision	trialStart	2	105	45	foodImage.115	FOODEEG_Images\0923.jpg	YN	Right	No	0.606960099998105	0	390191	251
763.12890625	2	decision	foodImageDisplay	2	105	45	foodImage.115	FOODEEG_Images\0923.jpg	YN	Right	No	0.606960099998105	0	390723	252
765.193359375	0.606960099998105	decision	choicePhaseStart	2	105	45	foodImage.115	FOODEEG_Images\0923.jpg	YN	Right	No	0.606960099998105	0	391780	253
765.791015625	0	decision	response	2	105	45	foodImage.115	FOODEEG_Images\0923.jpg	YN	Right	No	0.606960099998105	0	392086	235
766.8359375	1	taste	trialStart	2	106	46	foodImage.106	FOODEEG_Images\0914.jpg	YN	Left	Yes	0.631277700002101	0	392621	251
767.873046875	2	taste	foodImageDisplay	2	106	46	foodImage.106	FOODEEG_Images\0914.jpg	YN	Left	Yes	0.631277700002101	0	393152	252
769.9375	0.631277700002101	taste	choicePhaseStart	2	106	46	foodImage.106	FOODEEG_Images\0914.jpg	YN	Left	Yes	0.631277700002101	0	394209	253
770.55859375	0	taste	response	2	106	46	foodImage.106	FOODEEG_Images\0914.jpg	YN	Left	Yes	0.631277700002101	0	394527	234
771.6015625	1	health	trialStart	2	107	47	foodImage.99	FOODEEG_Images\0907.jpg	YN	Right	No	0.648640100000193	0	395061	251
772.638671875	2	health	foodImageDisplay	2	107	47	foodImage.99	FOODEEG_Images\0907.jpg	YN	Right	No	0.648640100000193	0	395592	252
774.703125	0.648640100000193	health	choicePhaseStart	2	107	47	foodImage.99	FOODEEG_Images\0907.jpg	YN	Right	No	0.648640100000193	0	396649	253
775.34375	0	health	response	2	107	47	foodImage.99	FOODEEG_Images\0907.jpg	YN	Right	No	0.648640100000193	0	396977	235
776.38671875	1	taste	trialStart	2	108	48	foodImage.108	FOODEEG_Images\0916.jpg	NY	Left	No	1.44684369999959	0	397511	251
777.42578125	2	taste	foodImageDisplay	2	108	48	foodImage.108	FOODEEG_Images\0916.jpg	NY	Left	No	1.44684369999959	0	398043	252
779.490234375	1.44684369999959	taste	choicePhaseStart	2	108	48	foodImage.108	FOODEEG_Images\0916.jpg	NY	Left	No	1.44684369999959	0	399100	253
780.92578125	0	taste	response	2	108	48	foodImage.108	FOODEEG_Images\0916.jpg	NY	Left	No	1.44684369999959	0	399835	234
781.970703125	1	decision	trialStart	2	109	49	foodImage.86	FOODEEG_Images\0844.jpg	YN	Left	Yes	0.564297599998099	0	400370	251
783.02734375	2	decision	foodImageDisplay	2	109	49	foodImage.86	FOODEEG_Images\0844.jpg	YN	Left	Yes	0.564297599998099	0	400911	252
785.091796875	0.564297599998099	decision	choicePhaseStart	2	109	49	foodImage.86	FOODEEG_Images\0844.jpg	YN	Left	Yes	0.564297599998099	0	401968	253
785.646484375	0	decision	response	2	109	49	foodImage.86	FOODEEG_Images\0844.jpg	YN	Left	Yes	0.564297599998099	0	402252	234
786.689453125	1	decision	trialStart	2	110	50	foodImage.95	FOODEEG_Images\0903.jpg	YN	Right	No	0.592781899998954	0	402786	251
787.728515625	2	decision	foodImageDisplay	2	110	50	foodImage.95	FOODEEG_Images\0903.jpg	YN	Right	No	0.592781899998954	0	403318	252
789.796875	0.592781899998954	decision	choicePhaseStart	2	110	50	foodImage.95	FOODEEG_Images\0903.jpg	YN	Right	No	0.592781899998954	0	404377	253
790.3828125	0	decision	response	2	110	50	foodImage.95	FOODEEG_Images\0903.jpg	YN	Right	No	0.592781899998954	0	404677	235
791.431640625	1	taste	trialStart	2	111	51	foodImage.4	FOODEEG_Images\0065.jpg	NY	Right	Yes	0.88694150000083	0	405214	251
792.48828125	2	taste	foodImageDisplay	2	111	51	foodImage.4	FOODEEG_Images\0065.jpg	NY	Right	Yes	0.88694150000083	0	405755	252
794.552734375	0.88694150000083	taste	choicePhaseStart	2	111	51	foodImage.4	FOODEEG_Images\0065.jpg	NY	Right	Yes	0.88694150000083	0	406812	253
795.4296875	0	taste	response	2	111	51	foodImage.4	FOODEEG_Images\0065.jpg	NY	Right	Yes	0.88694150000083	0	407261	235
796.474609375	1	health	trialStart	2	112	52	foodImage.69	FOODEEG_Images\0693.jpg	NY	Left	No	1.73057450000124	0	407796	251
797.515625	2	health	foodImageDisplay	2	112	52	foodImage.69	FOODEEG_Images\0693.jpg	NY	Left	No	1.73057450000124	0	408329	252
799.580078125	1.73057450000124	health	choicePhaseStart	2	112	52	foodImage.69	FOODEEG_Images\0693.jpg	NY	Left	No	1.73057450000124	0	409386	253
801.302734375	0	health	response	2	112	52	foodImage.69	FOODEEG_Images\0693.jpg	NY	Left	No	1.73057450000124	0	410268	234
802.349609375	1	decision	trialStart	2	113	53	foodImage.106	FOODEEG_Images\0914.jpg	YN	Left	Yes	0.762677400001849	0	410804	251
803.388671875	2	decision	foodImageDisplay	2	113	53	foodImage.106	FOODEEG_Images\0914.jpg	YN	Left	Yes	0.762677400001849	0	411336	252
805.451171875	0.762677400001849	decision	choicePhaseStart	2	113	53	foodImage.106	FOODEEG_Images\0914.jpg	YN	Left	Yes	0.762677400001849	0	412392	253
806.205078125	0	decision	response	2	113	53	foodImage.106	FOODEEG_Images\0914.jpg	YN	Left	Yes	0.762677400001849	0	412778	234
807.251953125	1	decision	trialStart	2	114	54	foodImage.100	FOODEEG_Images\0908.jpg	NY	Left	No	0.679114700000355	0	413314	251
808.2890625	2	decision	foodImageDisplay	2	114	54	foodImage.100	FOODEEG_Images\0908.jpg	NY	Left	No	0.679114700000355	0	413845	252
810.3515625	0.679114700000355	decision	choicePhaseStart	2	114	54	foodImage.100	FOODEEG_Images\0908.jpg	NY	Left	No	0.679114700000355	0	414901	253
811.021484375	0	decision	response	2	114	54	foodImage.100	FOODEEG_Images\0908.jpg	NY	Left	No	0.679114700000355	0	415244	234
812.0703125	1	decision	trialStart	2	115	55	foodImage.116	FOODEEG_Images\0924.jpg	YN	Right	No	0.581493900001078	0	415781	251
813.11328125	2	decision	foodImageDisplay	2	115	55	foodImage.116	FOODEEG_Images\0924.jpg	YN	Right	No	0.581493900001078	0	416315	252
815.177734375	0.581493900001078	decision	choicePhaseStart	2	115	55	foodImage.116	FOODEEG_Images\0924.jpg	YN	Right	No	0.581493900001078	0	417372	253
815.75	0	decision	response	2	115	55	foodImage.116	FOODEEG_Images\0924.jpg	YN	Right	No	0.581493900001078	0	417665	235
816.79296875	1	taste	trialStart	2	116	56	foodImage.51	FOODEEG_Images\0536.jpg	NY	Right	Yes	0.67167150000023	0	418199	251
817.837890625	2	taste	foodImageDisplay	2	116	56	foodImage.51	FOODEEG_Images\0536.jpg	NY	Right	Yes	0.67167150000023	0	418734	252
819.900390625	0.67167150000023	taste	choicePhaseStart	2	116	56	foodImage.51	FOODEEG_Images\0536.jpg	NY	Right	Yes	0.67167150000023	0	419790	253
820.56640625	0	taste	response	2	116	56	foodImage.51	FOODEEG_Images\0536.jpg	NY	Right	Yes	0.67167150000023	0	420131	235
821.609375	1	taste	trialStart	2	117	57	foodImage.41	FOODEEG_Images\0409.jpg	YN	Left	Yes	0.44971649999934	0	420665	251
822.65625	2	taste	foodImageDisplay	2	117	57	foodImage.41	FOODEEG_Images\0409.jpg	YN	Left	Yes	0.44971649999934	0	421201	252
824.724609375	0.44971649999934	taste	choicePhaseStart	2	117	57	foodImage.41	FOODEEG_Images\0409.jpg	YN	Left	Yes	0.44971649999934	0	422260	253
825.1640625	0	taste	response	2	117	57	foodImage.41	FOODEEG_Images\0409.jpg	YN	Left	Yes	0.44971649999934	0	422485	234
826.21484375	1	taste	trialStart	2	118	58	foodImage.3	FOODEEG_Images\0046.jpg	NY	Right	Yes	0.509604200000467	0	423023	251
827.2578125	2	taste	foodImageDisplay	2	118	58	foodImage.3	FOODEEG_Images\0046.jpg	NY	Right	Yes	0.509604200000467	0	423557	252
829.3203125	0.509604200000467	taste	choicePhaseStart	2	118	58	foodImage.3	FOODEEG_Images\0046.jpg	NY	Right	Yes	0.509604200000467	0	424613	253
829.8203125	0	taste	response	2	118	58	foodImage.3	FOODEEG_Images\0046.jpg	NY	Right	Yes	0.509604200000467	0	424869	235
830.86328125	1	health	trialStart	2	119	59	foodImage.7	FOODEEG_Images\0116.jpg	NY	Left	No	0.87496050000118	0	425403	251
831.90625	2	health	foodImageDisplay	2	119	59	foodImage.7	FOODEEG_Images\0116.jpg	NY	Left	No	0.87496050000118	0	425937	252
833.970703125	0.87496050000118	health	choicePhaseStart	2	119	59	foodImage.7	FOODEEG_Images\0116.jpg	NY	Left	No	0.87496050000118	0	426994	253
834.8359375	0	health	response	2	119	59	foodImage.7	FOODEEG_Images\0116.jpg	NY	Left	No	0.87496050000118	0	427437	234
835.880859375	1	decision	trialStart	2	120	60	foodImage.104	FOODEEG_Images\0912.jpg	YN	Left	Yes	0.773806699999113	0	427972	251
836.919921875	2	decision	foodImageDisplay	2	120	60	foodImage.104	FOODEEG_Images\0912.jpg	YN	Left	Yes	0.773806699999113	0	428504	252
838.984375	0.773806699999113	decision	choicePhaseStart	2	120	60	foodImage.104	FOODEEG_Images\0912.jpg	YN	Left	Yes	0.773806699999113	0	429561	253
839.748046875	0	decision	response	2	120	60	foodImage.104	FOODEEG_Images\0912.jpg	YN	Left	Yes	0.773806699999113	0	429952	234
841.791015625	28.966796875	n/a	blockEnd	n/a	n/a	n/a	n/a	n/a	n/a	n/a	n/a	n/a	n/a	430998	254
870.7578125	2	n/a	blockStart	3	n/a	n/a	n/a	n/a	n/a	n/a	n/a	n/a	n/a	445829	250
872.80078125	1	decision	trialStart	3	121	1	foodImage.103	FOODEEG_Images\0911.jpg	YN	Right	No	0.673945299997285	0	446875	251
873.841796875	2	decision	foodImageDisplay	3	121	1	foodImage.103	FOODEEG_Images\0911.jpg	YN	Right	No	0.673945299997285	0	447408	252
875.90625	0.673945299997285	decision	choicePhaseStart	3	121	1	foodImage.103	FOODEEG_Images\0911.jpg	YN	Right	No	0.673945299997285	0	448465	253
876.572265625	0	decision	response	3	121	1	foodImage.103	FOODEEG_Images\0911.jpg	YN	Right	No	0.673945299997285	0	448806	235
877.615234375	1	decision	trialStart	3	122	2	foodImage.22	FOODEEG_Images\0236.jpg	YN	Left	Yes	1.1928121000019	0	449340	251
878.67578125	2	decision	foodImageDisplay	3	122	2	foodImage.22	FOODEEG_Images\0236.jpg	YN	Left	Yes	1.1928121000019	0	449883	252
880.74609375	1.1928121000019	decision	choicePhaseStart	3	122	2	foodImage.22	FOODEEG_Images\0236.jpg	YN	Left	Yes	1.1928121000019	0	450943	253
881.931640625	0	decision	response	3	122	2	foodImage.22	FOODEEG_Images\0236.jpg	YN	Left	Yes	1.1928121000019	0	451550	234
882.974609375	1	taste	trialStart	3	123	3	foodImage.84	FOODEEG_Images\0830.jpg	YN	Left	Yes	0.931645000000572	0	452084	251
884.033203125	2	taste	foodImageDisplay	3	123	3	foodImage.84	FOODEEG_Images\0830.jpg	YN	Left	Yes	0.931645000000572	0	452626	252
886.095703125	0.931645000000572	taste	choicePhaseStart	3	123	3	foodImage.84	FOODEEG_Images\0830.jpg	YN	Left	Yes	0.931645000000572	0	453682	253
887.01953125	0	taste	response	3	123	3	foodImage.84	FOODEEG_Images\0830.jpg	YN	Left	Yes	0.931645000000572	0	454155	234
888.0625	1	taste	trialStart	3	124	4	foodImage.66	FOODEEG_Images\0676.jpg	YN	Left	Yes	0.520515500000329	0	454689	251
889.10546875	2	taste	foodImageDisplay	3	124	4	foodImage.66	FOODEEG_Images\0676.jpg	YN	Left	Yes	0.520515500000329	0	455223	252
891.171875	0.520515500000329	taste	choicePhaseStart	3	124	4	foodImage.66	FOODEEG_Images\0676.jpg	YN	Left	Yes	0.520515500000329	0	456281	253
891.681640625	0	taste	response	3	124	4	foodImage.66	FOODEEG_Images\0676.jpg	YN	Left	Yes	0.520515500000329	0	456542	234
892.7265625	1	decision	trialStart	3	125	5	foodImage.87	FOODEEG_Images\0873.jpg	NY	Right	Yes	0.461149899998418	0	457077	251
893.783203125	2	decision	foodImageDisplay	3	125	5	foodImage.87	FOODEEG_Images\0873.jpg	NY	Right	Yes	0.461149899998418	0	457618	252
895.8515625	0.461149899998418	decision	choicePhaseStart	3	125	5	foodImage.87	FOODEEG_Images\0873.jpg	NY	Right	Yes	0.461149899998418	0	458677	253
896.306640625	0	decision	response	3	125	5	foodImage.87	FOODEEG_Images\0873.jpg	NY	Right	Yes	0.461149899998418	0	458910	235
897.349609375	1	decision	trialStart	3	126	6	foodImage.117	FOODEEG_Images\0925.jpg	NY	Right	Yes	0.615674900000158	0	459444	251
898.388671875	2	decision	foodImageDisplay	3	126	6	foodImage.117	FOODEEG_Images\0925.jpg	NY	Right	Yes	0.615674900000158	0	459976	252
900.451171875	0.615674900000158	decision	choicePhaseStart	3	126	6	foodImage.117	FOODEEG_Images\0925.jpg	NY	Right	Yes	0.615674900000158	0	461032	253
901.05859375	0	decision	response	3	126	6	foodImage.117	FOODEEG_Images\0925.jpg	NY	Right	Yes	0.615674900000158	0	461343	235
902.103515625	1	decision	trialStart	3	127	7	foodImage.53	FOODEEG_Images\0547.jpg	YN	Left	Yes	0.588323699998	0	461878	251
903.158203125	2	decision	foodImageDisplay	3	127	7	foodImage.53	FOODEEG_Images\0547.jpg	YN	Left	Yes	0.588323699998	0	462418	252
905.22265625	0.588323699998	decision	choicePhaseStart	3	127	7	foodImage.53	FOODEEG_Images\0547.jpg	YN	Left	Yes	0.588323699998	0	463475	253
905.802734375	0	decision	response	3	127	7	foodImage.53	FOODEEG_Images\0547.jpg	YN	Left	Yes	0.588323699998	0	463772	234
906.84375	1	decision	trialStart	3	128	8	foodImage.5	FOODEEG_Images\0107.jpg	NY	Right	Yes	0.662653200000932	0	464305	251
907.900390625	2	decision	foodImageDisplay	3	128	8	foodImage.5	FOODEEG_Images\0107.jpg	NY	Right	Yes	0.662653200000932	0	464846	252
909.970703125	0.662653200000932	decision	choicePhaseStart	3	128	8	foodImage.5	FOODEEG_Images\0107.jpg	NY	Right	Yes	0.662653200000932	0	465906	253
910.626953125	0	decision	response	3	128	8	foodImage.5	FOODEEG_Images\0107.jpg	NY	Right	Yes	0.662653200000932	0	466242	235
911.669921875	1	decision	trialStart	3	129	9	foodImage.90	FOODEEG_Images\0890.jpg	NY	Right	Yes	0.881747399998858	0	466776	251
912.728515625	2	decision	foodImageDisplay	3	129	9	foodImage.90	FOODEEG_Images\0890.jpg	NY	Right	Yes	0.881747399998858	0	467318	252
914.79296875	0.881747399998858	decision	choicePhaseStart	3	129	9	foodImage.90	FOODEEG_Images\0890.jpg	NY	Right	Yes	0.881747399998858	0	468375	253
915.666015625	0	decision	response	3	129	9	foodImage.90	FOODEEG_Images\0890.jpg	NY	Right	Yes	0.881747399998858	0	468822	235
916.708984375	1	taste	trialStart	3	130	10	foodImage.59	FOODEEG_Images\0607.jpg	YN	Left	Yes	0.596195900001476	0	469356	251
917.755859375	2	taste	foodImageDisplay	3	130	10	foodImage.59	FOODEEG_Images\0607.jpg	YN	Left	Yes	0.596195900001476	0	469892	252
919.818359375	0.596195900001476	taste	choicePhaseStart	3	130	10	foodImage.59	FOODEEG_Images\0607.jpg	YN	Left	Yes	0.596195900001476	0	470948	253
920.41015625	0	taste	response	3	130	10	foodImage.59	FOODEEG_Images\0607.jpg	YN	Left	Yes	0.596195900001476	0	471251	234
921.458984375	1	decision	trialStart	3	131	11	foodImage.4	FOODEEG_Images\0065.jpg	NY	Right	Yes	0.601287200002844	0	471788	251
922.515625	2	decision	foodImageDisplay	3	131	11	foodImage.4	FOODEEG_Images\0065.jpg	NY	Right	Yes	0.601287200002844	0	472329	252
924.578125	0.601287200002844	decision	choicePhaseStart	3	131	11	foodImage.4	FOODEEG_Images\0065.jpg	NY	Right	Yes	0.601287200002844	0	473385	253
925.169921875	0	decision	response	3	131	11	foodImage.4	FOODEEG_Images\0065.jpg	NY	Right	Yes	0.601287200002844	0	473688	235
926.20703125	1	taste	trialStart	3	132	12	foodImage.55	FOODEEG_Images\0567.jpg	YN	Right	No	0.870710099999997	0	474219	251
927.26171875	2	taste	foodImageDisplay	3	132	12	foodImage.55	FOODEEG_Images\0567.jpg	YN	Right	No	0.870710099999997	0	474759	252
929.32421875	0.870710099999997	taste	choicePhaseStart	3	132	12	foodImage.55	FOODEEG_Images\0567.jpg	YN	Right	No	0.870710099999997	0	475815	253
930.185546875	0	taste	response	3	132	12	foodImage.55	FOODEEG_Images\0567.jpg	YN	Right	No	0.870710099999997	0	476256	235
931.2265625	1	health	trialStart	3	133	13	foodImage.2	FOODEEG_Images\0028.jpg	YN	Right	No	1.01461819999895	0	476789	251
932.267578125	2	health	foodImageDisplay	3	133	13	foodImage.2	FOODEEG_Images\0028.jpg	YN	Right	No	1.01461819999895	0	477322	252
934.330078125	1.01461819999895	health	choicePhaseStart	3	133	13	foodImage.2	FOODEEG_Images\0028.jpg	YN	Right	No	1.01461819999895	0	478378	253
935.3359375	0	health	response	3	133	13	foodImage.2	FOODEEG_Images\0028.jpg	YN	Right	No	1.01461819999895	0	478893	235
936.376953125	1	health	trialStart	3	134	14	foodImage.70	FOODEEG_Images\0705.jpg	YN	Left	Yes	1.56367570000293	0	479426	251
937.431640625	2	health	foodImageDisplay	3	134	14	foodImage.70	FOODEEG_Images\0705.jpg	YN	Left	Yes	1.56367570000293	0	479966	252
939.494140625	1.56367570000293	health	choicePhaseStart	3	134	14	foodImage.70	FOODEEG_Images\0705.jpg	YN	Left	Yes	1.56367570000293	0	481022	253
941.048828125	0	health	response	3	134	14	foodImage.70	FOODEEG_Images\0705.jpg	YN	Left	Yes	1.56367570000293	0	481818	234
942.095703125	1	decision	trialStart	3	135	15	foodImage.12	FOODEEG_Images\0181.jpg	YN	Right	No	0.696970400000282	0	482354	251
943.13671875	2	decision	foodImageDisplay	3	135	15	foodImage.12	FOODEEG_Images\0181.jpg	YN	Right	No	0.696970400000282	0	482887	252
945.201171875	0.696970400000282	decision	choicePhaseStart	3	135	15	foodImage.12	FOODEEG_Images\0181.jpg	YN	Right	No	0.696970400000282	0	483944	253
945.888671875	0	decision	response	3	135	15	foodImage.12	FOODEEG_Images\0181.jpg	YN	Right	No	0.696970400000282	0	484296	235
946.931640625	1	taste	trialStart	3	136	16	foodImage.61	FOODEEG_Images\0640.jpg	NY	Left	No	1.24712549999822	0	484830	251
947.97265625	2	taste	foodImageDisplay	3	136	16	foodImage.61	FOODEEG_Images\0640.jpg	NY	Left	No	1.24712549999822	0	485363	252
950.04296875	1.24712549999822	taste	choicePhaseStart	3	136	16	foodImage.61	FOODEEG_Images\0640.jpg	NY	Left	No	1.24712549999822	0	486423	253
951.28125	0	taste	response	3	136	16	foodImage.61	FOODEEG_Images\0640.jpg	NY	Left	No	1.24712549999822	0	487057	234
952.32421875	1	decision	trialStart	3	137	17	foodImage.97	FOODEEG_Images\0905.jpg	YN	Right	No	1.03723360000004	0	487591	251
953.36328125	2	decision	foodImageDisplay	3	137	17	foodImage.97	FOODEEG_Images\0905.jpg	YN	Right	No	1.03723360000004	0	488123	252
955.427734375	1.03723360000004	decision	choicePhaseStart	3	137	17	foodImage.97	FOODEEG_Images\0905.jpg	YN	Right	No	1.03723360000004	0	489180	253
956.45703125	0	decision	response	3	137	17	foodImage.97	FOODEEG_Images\0905.jpg	YN	Right	No	1.03723360000004	0	489707	235
957.5	1	decision	trialStart	3	138	18	foodImage.21	FOODEEG_Images\0234.jpg	NY	Right	Yes	0.657337800003006	0	490241	251
958.568359375	2	decision	foodImageDisplay	3	138	18	foodImage.21	FOODEEG_Images\0234.jpg	NY	Right	Yes	0.657337800003006	0	490788	252
960.630859375	0.657337800003006	decision	choicePhaseStart	3	138	18	foodImage.21	FOODEEG_Images\0234.jpg	NY	Right	Yes	0.657337800003006	0	491844	253
961.279296875	0	decision	response	3	138	18	foodImage.21	FOODEEG_Images\0234.jpg	NY	Right	Yes	0.657337800003006	0	492176	235
962.328125	1	taste	trialStart	3	139	19	foodImage.62	FOODEEG_Images\0644.jpg	NY	Left	No	0.81311519999872	0	492713	251
963.38671875	2	taste	foodImageDisplay	3	139	19	foodImage.62	FOODEEG_Images\0644.jpg	NY	Left	No	0.81311519999872	0	493255	252
965.453125	0.81311519999872	taste	choicePhaseStart	3	139	19	foodImage.62	FOODEEG_Images\0644.jpg	NY	Left	No	0.81311519999872	0	494313	253
966.255859375	0	taste	response	3	139	19	foodImage.62	FOODEEG_Images\0644.jpg	NY	Left	No	0.81311519999872	0	494724	234
967.298828125	1	decision	trialStart	3	140	20	foodImage.23	FOODEEG_Images\0244.jpg	NY	Right	Yes	1.10267319999912	0	495258	251
968.33984375	2	decision	foodImageDisplay	3	140	20	foodImage.23	FOODEEG_Images\0244.jpg	NY	Right	Yes	1.10267319999912	0	495791	252
970.4140625	1.10267319999912	decision	choicePhaseStart	3	140	20	foodImage.23	FOODEEG_Images\0244.jpg	NY	Right	Yes	1.10267319999912	0	496853	253
971.51171875	0	decision	response	3	140	20	foodImage.23	FOODEEG_Images\0244.jpg	NY	Right	Yes	1.10267319999912	0	497415	235
972.5546875	1	health	trialStart	3	141	21	foodImage.97	FOODEEG_Images\0905.jpg	NY	Left	No	0.965687800002343	0	497949	251
973.595703125	2	health	foodImageDisplay	3	141	21	foodImage.97	FOODEEG_Images\0905.jpg	NY	Left	No	0.965687800002343	0	498482	252
975.66015625	0.965687800002343	health	choicePhaseStart	3	141	21	foodImage.97	FOODEEG_Images\0905.jpg	NY	Left	No	0.965687800002343	0	499539	253
976.615234375	0	health	response	3	141	21	foodImage.97	FOODEEG_Images\0905.jpg	NY	Left	No	0.965687800002343	0	500028	234
977.658203125	1	health	trialStart	3	142	22	foodImage.68	FOODEEG_Images\0685.jpg	NY	Left	No	0.860358999998425	0	500562	251
978.732421875	2	health	foodImageDisplay	3	142	22	foodImage.68	FOODEEG_Images\0685.jpg	NY	Left	No	0.860358999998425	0	501112	252
980.794921875	0.860358999998425	health	choicePhaseStart	3	142	22	foodImage.68	FOODEEG_Images\0685.jpg	NY	Left	No	0.860358999998425	0	502168	253
981.646484375	0	health	response	3	142	22	foodImage.68	FOODEEG_Images\0685.jpg	NY	Left	No	0.860358999998425	0	502604	234
982.689453125	1	decision	trialStart	3	143	23	foodImage.14	FOODEEG_Images\0188.jpg	NY	Right	Yes	0.593797900000936	0	503138	251
983.75	2	decision	foodImageDisplay	3	143	23	foodImage.14	FOODEEG_Images\0188.jpg	NY	Right	Yes	0.593797900000936	0	503681	252
985.8125	0.593797900000936	decision	choicePhaseStart	3	143	23	foodImage.14	FOODEEG_Images\0188.jpg	NY	Right	Yes	0.593797900000936	0	504737	253
986.3984375	0	decision	response	3	143	23	foodImage.14	FOODEEG_Images\0188.jpg	NY	Right	Yes	0.593797900000936	0	505037	235
987.44140625	1	taste	trialStart	3	144	24	foodImage.102	FOODEEG_Images\0910.jpg	NY	Left	No	1.11102100000062	0	505571	251
988.482421875	2	taste	foodImageDisplay	3	144	24	foodImage.102	FOODEEG_Images\0910.jpg	NY	Left	No	1.11102100000062	0	506104	252
990.544921875	1.11102100000062	taste	choicePhaseStart	3	144	24	foodImage.102	FOODEEG_Images\0910.jpg	NY	Left	No	1.11102100000062	0	507160	253
991.646484375	0	taste	response	3	144	24	foodImage.102	FOODEEG_Images\0910.jpg	NY	Left	No	1.11102100000062	0	507724	234
992.69140625	1	health	trialStart	3	145	25	foodImage.24	FOODEEG_Images\0250.jpg	NY	Right	Yes	0.470764900001086	0	508259	251
993.734375	2	health	foodImageDisplay	3	145	25	foodImage.24	FOODEEG_Images\0250.jpg	NY	Right	Yes	0.470764900001086	0	508793	252
995.80078125	0.470764900001086	health	choicePhaseStart	3	145	25	foodImage.24	FOODEEG_Images\0250.jpg	NY	Right	Yes	0.470764900001086	0	509851	253
996.26171875	0	health	response	3	145	25	foodImage.24	FOODEEG_Images\0250.jpg	NY	Right	Yes	0.470764900001086	0	510087	235
997.314453125	1	taste	trialStart	3	146	26	foodImage.74	FOODEEG_Images\0752.jpg	YN	Left	Yes	0.695567000002484	0	510626	251
998.357421875	2	taste	foodImageDisplay	3	146	26	foodImage.74	FOODEEG_Images\0752.jpg	YN	Left	Yes	0.695567000002484	0	511160	252
1000.421875	0.695567000002484	taste	choicePhaseStart	3	146	26	foodImage.74	FOODEEG_Images\0752.jpg	YN	Left	Yes	0.695567000002484	0	512217	253
1001.109375	0	taste	response	3	146	26	foodImage.74	FOODEEG_Images\0752.jpg	YN	Left	Yes	0.695567000002484	0	512569	234
1002.15234375	1	taste	trialStart	3	147	27	foodImage.72	FOODEEG_Images\0714.jpg	YN	Right	No	0.5100695000001	0	513103	251
1003.208984375	2	taste	foodImageDisplay	3	147	27	foodImage.72	FOODEEG_Images\0714.jpg	YN	Right	No	0.5100695000001	0	513644	252
1005.2734375	0.5100695000001	taste	choicePhaseStart	3	147	27	foodImage.72	FOODEEG_Images\0714.jpg	YN	Right	No	0.5100695000001	0	514701	253
1005.7734375	0	taste	response	3	147	27	foodImage.72	FOODEEG_Images\0714.jpg	YN	Right	No	0.5100695000001	0	514957	235
1006.818359375	1	health	trialStart	3	148	28	foodImage.76	FOODEEG_Images\0766.jpg	YN	Left	Yes	0.897069500002544	0	515492	251
1007.861328125	2	health	foodImageDisplay	3	148	28	foodImage.76	FOODEEG_Images\0766.jpg	YN	Left	Yes	0.897069500002544	0	516026	252
1009.92578125	0.897069500002544	health	choicePhaseStart	3	148	28	foodImage.76	FOODEEG_Images\0766.jpg	YN	Left	Yes	0.897069500002544	0	517083	253
1010.814453125	0	health	response	3	148	28	foodImage.76	FOODEEG_Images\0766.jpg	YN	Left	Yes	0.897069500002544	0	517538	234
1011.857421875	1	decision	trialStart	3	149	29	foodImage.18	FOODEEG_Images\0202.jpg	YN	Left	Yes	1.14795899999808	0	518072	251
1012.9140625	2	decision	foodImageDisplay	3	149	29	foodImage.18	FOODEEG_Images\0202.jpg	YN	Left	Yes	1.14795899999808	0	518613	252
1014.978515625	1.14795899999808	decision	choicePhaseStart	3	149	29	foodImage.18	FOODEEG_Images\0202.jpg	YN	Left	Yes	1.14795899999808	0	519670	253
1016.1171875	0	decision	response	3	149	29	foodImage.18	FOODEEG_Images\0202.jpg	YN	Left	Yes	1.14795899999808	0	520253	234
1017.16015625	1	taste	trialStart	3	150	30	foodImage.120	FOODEEG_Images\0928.jpg	YN	Right	No	0.646045699999377	0	520787	251
1018.19921875	2	taste	foodImageDisplay	3	150	30	foodImage.120	FOODEEG_Images\0928.jpg	YN	Right	No	0.646045699999377	0	521319	252
1020.265625	0.646045699999377	taste	choicePhaseStart	3	150	30	foodImage.120	FOODEEG_Images\0928.jpg	YN	Right	No	0.646045699999377	0	522377	253
1020.90234375	0	taste	response	3	150	30	foodImage.120	FOODEEG_Images\0928.jpg	YN	Right	No	0.646045699999377	0	522703	235
1021.9453125	1	health	trialStart	3	151	31	foodImage.17	FOODEEG_Images\0199.jpg	NY	Right	Yes	0.58653939999931	0	523237	251
1022.98828125	2	health	foodImageDisplay	3	151	31	foodImage.17	FOODEEG_Images\0199.jpg	NY	Right	Yes	0.58653939999931	0	523771	252
1025.052734375	0.58653939999931	health	choicePhaseStart	3	151	31	foodImage.17	FOODEEG_Images\0199.jpg	NY	Right	Yes	0.58653939999931	0	524828	253
1025.62890625	0	health	response	3	151	31	foodImage.17	FOODEEG_Images\0199.jpg	NY	Right	Yes	0.58653939999931	0	525123	235
1026.671875	1	health	trialStart	3	152	32	foodImage.54	FOODEEG_Images\0560.jpg	YN	Left	Yes	0.787606199999573	0	525657	251
1027.732421875	2	health	foodImageDisplay	3	152	32	foodImage.54	FOODEEG_Images\0560.jpg	YN	Left	Yes	0.787606199999573	0	526200	252
1029.794921875	0.787606199999573	health	choicePhaseStart	3	152	32	foodImage.54	FOODEEG_Images\0560.jpg	YN	Left	Yes	0.787606199999573	0	527256	253
1030.572265625	0	health	response	3	152	32	foodImage.54	FOODEEG_Images\0560.jpg	YN	Left	Yes	0.787606199999573	0	527654	234
1031.6171875	1	decision	trialStart	3	153	33	foodImage.65	FOODEEG_Images\0658.jpg	YN	Left	Yes	0.832799799998611	0	528189	251
1032.66015625	2	decision	foodImageDisplay	3	153	33	foodImage.65	FOODEEG_Images\0658.jpg	YN	Left	Yes	0.832799799998611	0	528723	252
1034.724609375	0.832799799998611	decision	choicePhaseStart	3	153	33	foodImage.65	FOODEEG_Images\0658.jpg	YN	Left	Yes	0.832799799998611	0	529780	253
1035.548828125	0	decision	response	3	153	33	foodImage.65	FOODEEG_Images\0658.jpg	YN	Left	Yes	0.832799799998611	0	530202	234
1036.59765625	1	taste	trialStart	3	154	34	foodImage.68	FOODEEG_Images\0685.jpg	NY	Right	Yes	1.48564940000142	0	530739	251
1037.67578125	2	taste	foodImageDisplay	3	154	34	foodImage.68	FOODEEG_Images\0685.jpg	NY	Right	Yes	1.48564940000142	0	531291	252
1039.740234375	1.48564940000142	taste	choicePhaseStart	3	154	34	foodImage.68	FOODEEG_Images\0685.jpg	NY	Right	Yes	1.48564940000142	0	532348	253
1041.220703125	0	taste	response	3	154	34	foodImage.68	FOODEEG_Images\0685.jpg	NY	Right	Yes	1.48564940000142	0	533106	235
1042.263671875	1	health	trialStart	3	155	35	foodImage.47	FOODEEG_Images\0488.jpg	YN	Right	No	0.79430499999944	0	533640	251
1043.306640625	2	health	foodImageDisplay	3	155	35	foodImage.47	FOODEEG_Images\0488.jpg	YN	Right	No	0.79430499999944	0	534174	252
1045.369140625	0.79430499999944	health	choicePhaseStart	3	155	35	foodImage.47	FOODEEG_Images\0488.jpg	YN	Right	No	0.79430499999944	0	535230	253
1046.15625	0	health	response	3	155	35	foodImage.47	FOODEEG_Images\0488.jpg	YN	Right	No	0.79430499999944	0	535633	235
1047.19921875	1	decision	trialStart	3	156	36	foodImage.44	FOODEEG_Images\0459.jpg	NY	Right	Yes	0.757138100001612	0	536167	251
1048.24609375	2	decision	foodImageDisplay	3	156	36	foodImage.44	FOODEEG_Images\0459.jpg	NY	Right	Yes	0.757138100001612	0	536703	252
1050.310546875	0.757138100001612	decision	choicePhaseStart	3	156	36	foodImage.44	FOODEEG_Images\0459.jpg	NY	Right	Yes	0.757138100001612	0	537760	253
1051.060546875	0	decision	response	3	156	36	foodImage.44	FOODEEG_Images\0459.jpg	NY	Right	Yes	0.757138100001612	0	538144	235
1052.10546875	1	health	trialStart	3	157	37	foodImage.26	FOODEEG_Images\0262.jpg	NY	Right	Yes	0.538173500000994	0	538679	251
1053.146484375	2	health	foodImageDisplay	3	157	37	foodImage.26	FOODEEG_Images\0262.jpg	NY	Right	Yes	0.538173500000994	0	539212	252
1055.2109375	0.538173500000994	health	choicePhaseStart	3	157	37	foodImage.26	FOODEEG_Images\0262.jpg	NY	Right	Yes	0.538173500000994	0	540269	253
1055.740234375	0	health	response	3	157	37	foodImage.26	FOODEEG_Images\0262.jpg	NY	Right	Yes	0.538173500000994	0	540540	235
1056.783203125	1	taste	trialStart	3	158	38	foodImage.53	FOODEEG_Images\0547.jpg	NY	Right	Yes	1.17417760000171	0	541074	251
1057.83984375	2	taste	foodImageDisplay	3	158	38	foodImage.53	FOODEEG_Images\0547.jpg	NY	Right	Yes	1.17417760000171	0	541615	252
1059.90234375	1.17417760000171	taste	choicePhaseStart	3	158	38	foodImage.53	FOODEEG_Images\0547.jpg	NY	Right	Yes	1.17417760000171	0	542671	253
1061.068359375	0	taste	response	3	158	38	foodImage.53	FOODEEG_Images\0547.jpg	NY	Right	Yes	1.17417760000171	0	543268	235
1062.107421875	1	taste	trialStart	3	159	39	foodImage.48	FOODEEG_Images\0494.jpg	NY	Right	Yes	0.878702999998495	0	543800	251
1063.1484375	2	taste	foodImageDisplay	3	159	39	foodImage.48	FOODEEG_Images\0494.jpg	NY	Right	Yes	0.878702999998495	0	544333	252
1065.2109375	0.878702999998495	taste	choicePhaseStart	3	159	39	foodImage.48	FOODEEG_Images\0494.jpg	NY	Right	Yes	0.878702999998495	0	545389	253
1066.083984375	0	taste	response	3	159	39	foodImage.48	FOODEEG_Images\0494.jpg	NY	Right	Yes	0.878702999998495	0	545836	235
1067.126953125	1	health	trialStart	3	160	40	foodImage.5	FOODEEG_Images\0107.jpg	NY	Left	No	1.09106560000146	0	546370	251
1068.185546875	2	health	foodImageDisplay	3	160	40	foodImage.5	FOODEEG_Images\0107.jpg	NY	Left	No	1.09106560000146	0	546912	252
1070.25	1.09106560000146	health	choicePhaseStart	3	160	40	foodImage.5	FOODEEG_Images\0107.jpg	NY	Left	No	1.09106560000146	0	547969	253
1071.33203125	0	health	response	3	160	40	foodImage.5	FOODEEG_Images\0107.jpg	NY	Left	No	1.09106560000146	0	548523	234
1072.376953125	1	taste	trialStart	3	161	41	foodImage.78	FOODEEG_Images\0787.jpg	YN	Left	Yes	0.895412900001247	0	549058	251
1073.421875	2	taste	foodImageDisplay	3	161	41	foodImage.78	FOODEEG_Images\0787.jpg	YN	Left	Yes	0.895412900001247	0	549593	252
1075.484375	0.895412900001247	taste	choicePhaseStart	3	161	41	foodImage.78	FOODEEG_Images\0787.jpg	YN	Left	Yes	0.895412900001247	0	550649	253
1076.37109375	0	taste	response	3	161	41	foodImage.78	FOODEEG_Images\0787.jpg	YN	Left	Yes	0.895412900001247	0	551103	234
1077.416015625	1	health	trialStart	3	162	42	foodImage.74	FOODEEG_Images\0752.jpg	YN	Left	Yes	1.6021370999988	0	551638	251
1078.458984375	2	health	foodImageDisplay	3	162	42	foodImage.74	FOODEEG_Images\0752.jpg	YN	Left	Yes	1.6021370999988	0	552172	252
1080.521484375	1.6021370999988	health	choicePhaseStart	3	162	42	foodImage.74	FOODEEG_Images\0752.jpg	YN	Left	Yes	1.6021370999988	0	553228	253
1082.115234375	0	health	response	3	162	42	foodImage.74	FOODEEG_Images\0752.jpg	YN	Left	Yes	1.6021370999988	0	554044	234
1083.166015625	1	taste	trialStart	3	163	43	foodImage.113	FOODEEG_Images\0921.jpg	NY	Right	Yes	1.46541690000231	0	554582	251
1084.205078125	2	taste	foodImageDisplay	3	163	43	foodImage.113	FOODEEG_Images\0921.jpg	NY	Right	Yes	1.46541690000231	0	555114	252
1086.275390625	1.46541690000231	taste	choicePhaseStart	3	163	43	foodImage.113	FOODEEG_Images\0921.jpg	NY	Right	Yes	1.46541690000231	0	556174	253
1087.73046875	0	taste	response	3	163	43	foodImage.113	FOODEEG_Images\0921.jpg	NY	Right	Yes	1.46541690000231	0	556919	235
1088.77734375	1	health	trialStart	3	164	44	foodImage.41	FOODEEG_Images\0409.jpg	NY	Right	Yes	0.729157599998871	0	557455	251
1089.826171875	2	health	foodImageDisplay	3	164	44	foodImage.41	FOODEEG_Images\0409.jpg	NY	Right	Yes	0.729157599998871	0	557992	252
1091.890625	0.729157599998871	health	choicePhaseStart	3	164	44	foodImage.41	FOODEEG_Images\0409.jpg	NY	Right	Yes	0.729157599998871	0	559049	253
1092.611328125	0	health	response	3	164	44	foodImage.41	FOODEEG_Images\0409.jpg	NY	Right	Yes	0.729157599998871	0	559418	235
1093.654296875	1	taste	trialStart	3	165	45	foodImage.110	FOODEEG_Images\0918.jpg	NY	Left	No	0.967216799999733	0	559952	251
1094.69140625	2	taste	foodImageDisplay	3	165	45	foodImage.110	FOODEEG_Images\0918.jpg	NY	Left	No	0.967216799999733	0	560483	252
1096.755859375	0.967216799999733	taste	choicePhaseStart	3	165	45	foodImage.110	FOODEEG_Images\0918.jpg	NY	Left	No	0.967216799999733	0	561540	253
1097.71484375	0	taste	response	3	165	45	foodImage.110	FOODEEG_Images\0918.jpg	NY	Left	No	0.967216799999733	0	562031	234
1098.755859375	1	decision	trialStart	3	166	46	foodImage.91	FOODEEG_Images\0896.jpg	YN	Right	No	1.39392049999879	0	562564	251
1099.814453125	2	decision	foodImageDisplay	3	166	46	foodImage.91	FOODEEG_Images\0896.jpg	YN	Right	No	1.39392049999879	0	563106	252
1101.87890625	1.39392049999879	decision	choicePhaseStart	3	166	46	foodImage.91	FOODEEG_Images\0896.jpg	YN	Right	No	1.39392049999879	0	564163	253
1103.265625	0	decision	response	3	166	46	foodImage.91	FOODEEG_Images\0896.jpg	YN	Right	No	1.39392049999879	0	564873	235
1104.30859375	1	decision	trialStart	3	167	47	foodImage.118	FOODEEG_Images\0926.jpg	NY	Left	No	0.63152590000027	0	565407	251
1105.349609375	2	decision	foodImageDisplay	3	167	47	foodImage.118	FOODEEG_Images\0926.jpg	NY	Left	No	0.63152590000027	0	565940	252
1107.41796875	0.63152590000027	decision	choicePhaseStart	3	167	47	foodImage.118	FOODEEG_Images\0926.jpg	NY	Left	No	0.63152590000027	0	566999	253
1108.04296875	0	decision	response	3	167	47	foodImage.118	FOODEEG_Images\0926.jpg	NY	Left	No	0.63152590000027	0	567319	234
1109.0859375	1	decision	trialStart	3	168	48	foodImage.43	FOODEEG_Images\0445.jpg	YN	Left	Yes	0.593742400000338	0	567853	251
1110.142578125	2	decision	foodImageDisplay	3	168	48	foodImage.43	FOODEEG_Images\0445.jpg	YN	Left	Yes	0.593742400000338	0	568394	252
1112.20703125	0.593742400000338	decision	choicePhaseStart	3	168	48	foodImage.43	FOODEEG_Images\0445.jpg	YN	Left	Yes	0.593742400000338	0	569451	253
1112.794921875	0	decision	response	3	168	48	foodImage.43	FOODEEG_Images\0445.jpg	YN	Left	Yes	0.593742400000338	0	569752	234
1113.837890625	1	decision	trialStart	3	169	49	foodImage.63	FOODEEG_Images\0645.jpg	YN	Left	Yes	0.4810144999974	0	570286	251
1114.87890625	2	decision	foodImageDisplay	3	169	49	foodImage.63	FOODEEG_Images\0645.jpg	YN	Left	Yes	0.4810144999974	0	570819	252
1116.943359375	0.4810144999974	decision	choicePhaseStart	3	169	49	foodImage.63	FOODEEG_Images\0645.jpg	YN	Left	Yes	0.4810144999974	0	571876	253
1117.41796875	0	decision	response	3	169	49	foodImage.63	FOODEEG_Images\0645.jpg	YN	Left	Yes	0.4810144999974	0	572119	234
1118.4609375	1	health	trialStart	3	170	50	foodImage.82	FOODEEG_Images\0805.jpg	NY	Right	Yes	0.885944199999358	0	572653	251
1119.521484375	2	health	foodImageDisplay	3	170	50	foodImage.82	FOODEEG_Images\0805.jpg	NY	Right	Yes	0.885944199999358	0	573196	252
1121.5859375	0.885944199999358	health	choicePhaseStart	3	170	50	foodImage.82	FOODEEG_Images\0805.jpg	NY	Right	Yes	0.885944199999358	0	574253	253
1122.46484375	0	health	response	3	170	50	foodImage.82	FOODEEG_Images\0805.jpg	NY	Right	Yes	0.885944199999358	0	574703	235
1123.513671875	1	decision	trialStart	3	171	51	foodImage.15	FOODEEG_Images\0189.jpg	YN	Left	Yes	0.924927100000787	0	575240	251
1124.5703125	2	decision	foodImageDisplay	3	171	51	foodImage.15	FOODEEG_Images\0189.jpg	YN	Left	Yes	0.924927100000787	0	575781	252
1126.634765625	0.924927100000787	decision	choicePhaseStart	3	171	51	foodImage.15	FOODEEG_Images\0189.jpg	YN	Left	Yes	0.924927100000787	0	576838	253
1127.552734375	0	decision	response	3	171	51	foodImage.15	FOODEEG_Images\0189.jpg	YN	Left	Yes	0.924927100000787	0	577308	234
1128.595703125	1	health	trialStart	3	172	52	foodImage.91	FOODEEG_Images\0896.jpg	NY	Left	No	0.813104500000918	0	577842	251
1129.65234375	2	health	foodImageDisplay	3	172	52	foodImage.91	FOODEEG_Images\0896.jpg	NY	Left	No	0.813104500000918	0	578383	252
1131.716796875	0.813104500000918	health	choicePhaseStart	3	172	52	foodImage.91	FOODEEG_Images\0896.jpg	NY	Left	No	0.813104500000918	0	579440	253
1132.521484375	0	health	response	3	172	52	foodImage.91	FOODEEG_Images\0896.jpg	NY	Left	No	0.813104500000918	0	579852	234
1133.5703125	1	health	trialStart	3	173	53	foodImage.116	FOODEEG_Images\0924.jpg	NY	Left	No	0.435978800000157	0	580389	251
1134.609375	2	health	foodImageDisplay	3	173	53	foodImage.116	FOODEEG_Images\0924.jpg	NY	Left	No	0.435978800000157	0	580921	252
1136.67578125	0.435978800000157	health	choicePhaseStart	3	173	53	foodImage.116	FOODEEG_Images\0924.jpg	NY	Left	No	0.435978800000157	0	581979	253
1137.10546875	0	health	response	3	173	53	foodImage.116	FOODEEG_Images\0924.jpg	NY	Left	No	0.435978800000157	0	582199	234
1138.1484375	1	taste	trialStart	3	174	54	foodImage.45	FOODEEG_Images\0478.jpg	YN	Left	Yes	0.760627300001943	0	582733	251
1139.193359375	2	taste	foodImageDisplay	3	174	54	foodImage.45	FOODEEG_Images\0478.jpg	YN	Left	Yes	0.760627300001943	0	583268	252
1141.2578125	0.760627300001943	taste	choicePhaseStart	3	174	54	foodImage.45	FOODEEG_Images\0478.jpg	YN	Left	Yes	0.760627300001943	0	584325	253
1142.009765625	0	taste	response	3	174	54	foodImage.45	FOODEEG_Images\0478.jpg	YN	Left	Yes	0.760627300001943	0	584710	234
1143.052734375	1	taste	trialStart	3	175	55	foodImage.46	FOODEEG_Images\0479.jpg	YN	Right	No	0.627622500000143	0	585244	251
1144.111328125	2	taste	foodImageDisplay	3	175	55	foodImage.46	FOODEEG_Images\0479.jpg	YN	Right	No	0.627622500000143	0	585786	252
1146.173828125	0.627622500000143	taste	choicePhaseStart	3	175	55	foodImage.46	FOODEEG_Images\0479.jpg	YN	Right	No	0.627622500000143	0	586842	253
1146.79296875	0	taste	response	3	175	55	foodImage.46	FOODEEG_Images\0479.jpg	YN	Right	No	0.627622500000143	0	587159	235
1147.8359375	1	decision	trialStart	3	176	56	foodImage.27	FOODEEG_Images\0263.jpg	YN	Left	Yes	1.0348350000022	0	587693	251
1148.87890625	2	decision	foodImageDisplay	3	176	56	foodImage.27	FOODEEG_Images\0263.jpg	YN	Left	Yes	1.0348350000022	0	588227	252
1150.943359375	1.0348350000022	decision	choicePhaseStart	3	176	56	foodImage.27	FOODEEG_Images\0263.jpg	YN	Left	Yes	1.0348350000022	0	589284	253
1151.96875	0	decision	response	3	176	56	foodImage.27	FOODEEG_Images\0263.jpg	YN	Left	Yes	1.0348350000022	0	589809	234
1153.01171875	1	decision	trialStart	3	177	57	foodImage.69	FOODEEG_Images\0693.jpg	NY	Left	No	2.06411339999977	0	590343	251
1154.056640625	2	decision	foodImageDisplay	3	177	57	foodImage.69	FOODEEG_Images\0693.jpg	NY	Left	No	2.06411339999977	0	590878	252
1156.12109375	2.06411339999977	decision	choicePhaseStart	3	177	57	foodImage.69	FOODEEG_Images\0693.jpg	NY	Left	No	2.06411339999977	0	591935	253
1158.17578125	0	decision	response	3	177	57	foodImage.69	FOODEEG_Images\0693.jpg	NY	Left	No	2.06411339999977	0	592987	234
1159.21875	1	decision	trialStart	3	178	58	foodImage.29	FOODEEG_Images\0278.jpg	NY	Left	No	0.787162000000535	0	593521	251
1160.26171875	2	decision	foodImageDisplay	3	178	58	foodImage.29	FOODEEG_Images\0278.jpg	NY	Left	No	0.787162000000535	0	594055	252
1162.326171875	0.787162000000535	decision	choicePhaseStart	3	178	58	foodImage.29	FOODEEG_Images\0278.jpg	NY	Left	No	0.787162000000535	0	595112	253
1163.103515625	0	decision	response	3	178	58	foodImage.29	FOODEEG_Images\0278.jpg	NY	Left	No	0.787162000000535	0	595510	234
1164.146484375	1	health	trialStart	3	179	59	foodImage.72	FOODEEG_Images\0714.jpg	YN	Right	No	0.924650699998892	0	596044	251
1165.189453125	2	health	foodImageDisplay	3	179	59	foodImage.72	FOODEEG_Images\0714.jpg	YN	Right	No	0.924650699998892	0	596578	252
1167.25390625	0.924650699998892	health	choicePhaseStart	3	179	59	foodImage.72	FOODEEG_Images\0714.jpg	YN	Right	No	0.924650699998892	0	597635	253
1168.16796875	0	health	response	3	179	59	foodImage.72	FOODEEG_Images\0714.jpg	YN	Right	No	0.924650699998892	0	598103	235
1169.212890625	1	decision	trialStart	3	180	60	foodImage.85	FOODEEG_Images\0841.jpg	NY	Right	Yes	0.67358460000105	0	598638	251
1170.271484375	2	decision	foodImageDisplay	3	180	60	foodImage.85	FOODEEG_Images\0841.jpg	NY	Right	Yes	0.67358460000105	0	599180	252
1172.3359375	0.67358460000105	decision	choicePhaseStart	3	180	60	foodImage.85	FOODEEG_Images\0841.jpg	NY	Right	Yes	0.67358460000105	0	600237	253
1173	0	decision	response	3	180	60	foodImage.85	FOODEEG_Images\0841.jpg	NY	Right	Yes	0.67358460000105	0	600577	235
1175.04296875	36.00390625	n/a	blockEnd	n/a	n/a	n/a	n/a	n/a	n/a	n/a	n/a	n/a	n/a	601623	254
1211.046875	2	n/a	blockStart	4	n/a	n/a	n/a	n/a	n/a	n/a	n/a	n/a	n/a	620057	250
1213.078125	1	taste	trialStart	4	181	1	foodImage.49	FOODEEG_Images\0515.jpg	NY	Left	No	0.637063599999237	0	621097	251
1214.12109375	2	taste	foodImageDisplay	4	181	1	foodImage.49	FOODEEG_Images\0515.jpg	NY	Left	No	0.637063599999237	0	621631	252
1216.185546875	0.637063599999237	taste	choicePhaseStart	4	181	1	foodImage.49	FOODEEG_Images\0515.jpg	NY	Left	No	0.637063599999237	0	622688	253
1216.814453125	0	taste	response	4	181	1	foodImage.49	FOODEEG_Images\0515.jpg	NY	Left	No	0.637063599999237	0	623010	234
1217.857421875	1	health	trialStart	4	182	2	foodImage.113	FOODEEG_Images\0921.jpg	YN	Right	No	1.39989659999992	0	623544	251
1218.896484375	2	health	foodImageDisplay	4	182	2	foodImage.113	FOODEEG_Images\0921.jpg	YN	Right	No	1.39989659999992	0	624076	252
1220.966796875	1.39989659999992	health	choicePhaseStart	4	182	2	foodImage.113	FOODEEG_Images\0921.jpg	YN	Right	No	1.39989659999992	0	625136	253
1222.357421875	0	health	response	4	182	2	foodImage.113	FOODEEG_Images\0921.jpg	YN	Right	No	1.39989659999992	0	625848	235
1223.40625	1	decision	trialStart	4	183	3	foodImage.84	FOODEEG_Images\0830.jpg	YN	Left	Yes	0.65449770000123	0	626385	251
1224.46484375	2	decision	foodImageDisplay	4	183	3	foodImage.84	FOODEEG_Images\0830.jpg	YN	Left	Yes	0.65449770000123	0	626927	252
1226.52734375	0.65449770000123	decision	choicePhaseStart	4	183	3	foodImage.84	FOODEEG_Images\0830.jpg	YN	Left	Yes	0.65449770000123	0	627983	253
1227.173828125	0	decision	response	4	183	3	foodImage.84	FOODEEG_Images\0830.jpg	YN	Left	Yes	0.65449770000123	0	628314	234
1228.216796875	1	taste	trialStart	4	184	4	foodImage.1	FOODEEG_Images\0004.jpg	YN	Left	Yes	0.6363010999994	0	628848	251
1229.259765625	2	taste	foodImageDisplay	4	184	4	foodImage.1	FOODEEG_Images\0004.jpg	YN	Left	Yes	0.6363010999994	0	629382	252
1231.328125	0.6363010999994	taste	choicePhaseStart	4	184	4	foodImage.1	FOODEEG_Images\0004.jpg	YN	Left	Yes	0.6363010999994	0	630441	253
1231.95703125	0	taste	response	4	184	4	foodImage.1	FOODEEG_Images\0004.jpg	YN	Left	Yes	0.6363010999994	0	630763	234
1233.001953125	1	taste	trialStart	4	185	5	foodImage.96	FOODEEG_Images\0904.jpg	NY	Right	Yes	1.42380330000015	0	631298	251
1234.0390625	2	taste	foodImageDisplay	4	185	5	foodImage.96	FOODEEG_Images\0904.jpg	NY	Right	Yes	1.42380330000015	0	631829	252
1236.103515625	1.42380330000015	taste	choicePhaseStart	4	185	5	foodImage.96	FOODEEG_Images\0904.jpg	NY	Right	Yes	1.42380330000015	0	632886	253
1237.517578125	0	taste	response	4	185	5	foodImage.96	FOODEEG_Images\0904.jpg	NY	Right	Yes	1.42380330000015	0	633610	235
1238.560546875	1	decision	trialStart	4	186	6	foodImage.93	FOODEEG_Images\0901.jpg	NY	Left	No	0.551863500000763	0	634144	251
1239.599609375	2	decision	foodImageDisplay	4	186	6	foodImage.93	FOODEEG_Images\0901.jpg	NY	Left	No	0.551863500000763	0	634676	252
1241.662109375	0.551863500000763	decision	choicePhaseStart	4	186	6	foodImage.93	FOODEEG_Images\0901.jpg	NY	Left	No	0.551863500000763	0	635732	253
1242.205078125	0	decision	response	4	186	6	foodImage.93	FOODEEG_Images\0901.jpg	NY	Left	No	0.551863500000763	0	636010	234
1243.248046875	1	decision	trialStart	4	187	7	foodImage.92	FOODEEG_Images\0900.jpg	YN	Right	No	0.653406299999915	0	636544	251
1244.2890625	2	decision	foodImageDisplay	4	187	7	foodImage.92	FOODEEG_Images\0900.jpg	YN	Right	No	0.653406299999915	0	637077	252
1246.3515625	0.653406299999915	decision	choicePhaseStart	4	187	7	foodImage.92	FOODEEG_Images\0900.jpg	YN	Right	No	0.653406299999915	0	638133	253
1246.99609375	0	decision	response	4	187	7	foodImage.92	FOODEEG_Images\0900.jpg	YN	Right	No	0.653406299999915	0	638463	235
1248.0390625	1	health	trialStart	4	188	8	foodImage.18	FOODEEG_Images\0202.jpg	NY	Right	Yes	0.700040899999294	0	638997	251
1249.095703125	2	health	foodImageDisplay	4	188	8	foodImage.18	FOODEEG_Images\0202.jpg	NY	Right	Yes	0.700040899999294	0	639538	252
1251.162109375	0.700040899999294	health	choicePhaseStart	4	188	8	foodImage.18	FOODEEG_Images\0202.jpg	NY	Right	Yes	0.700040899999294	0	640596	253
1251.8515625	0	health	response	4	188	8	foodImage.18	FOODEEG_Images\0202.jpg	NY	Right	Yes	0.700040899999294	0	640949	235
1252.896484375	1	taste	trialStart	4	189	9	foodImage.118	FOODEEG_Images\0926.jpg	NY	Left	No	0.884259400001611	0	641484	251
1253.9453125	2	taste	foodImageDisplay	4	189	9	foodImage.118	FOODEEG_Images\0926.jpg	NY	Left	No	0.884259400001611	0	642021	252
1256.009765625	0.884259400001611	taste	choicePhaseStart	4	189	9	foodImage.118	FOODEEG_Images\0926.jpg	NY	Left	No	0.884259400001611	0	643078	253
1256.884765625	0	taste	response	4	189	9	foodImage.118	FOODEEG_Images\0926.jpg	NY	Left	No	0.884259400001611	0	643526	234
1257.927734375	1	taste	trialStart	4	190	10	foodImage.117	FOODEEG_Images\0925.jpg	YN	Left	Yes	1.01367010000104	0	644060	251
1258.966796875	2	taste	foodImageDisplay	4	190	10	foodImage.117	FOODEEG_Images\0925.jpg	YN	Left	Yes	1.01367010000104	0	644592	252
1261.03125	1.01367010000104	taste	choicePhaseStart	4	190	10	foodImage.117	FOODEEG_Images\0925.jpg	YN	Left	Yes	1.01367010000104	0	645649	253
1262.03515625	0	taste	response	4	190	10	foodImage.117	FOODEEG_Images\0925.jpg	YN	Left	Yes	1.01367010000104	0	646163	234
1263.078125	1	health	trialStart	4	191	11	foodImage.35	FOODEEG_Images\0350.jpg	NY	Left	No	1.20205789999818	0	646697	251
1264.1171875	2	health	foodImageDisplay	4	191	11	foodImage.35	FOODEEG_Images\0350.jpg	NY	Left	No	1.20205789999818	0	647229	252
1266.185546875	1.20205789999818	health	choicePhaseStart	4	191	11	foodImage.35	FOODEEG_Images\0350.jpg	NY	Left	No	1.20205789999818	0	648288	253
1267.37890625	0	health	response	4	191	11	foodImage.35	FOODEEG_Images\0350.jpg	NY	Left	No	1.20205789999818	0	648899	234
1268.427734375	1	decision	trialStart	4	192	12	foodImage.111	FOODEEG_Images\0919.jpg	NY	Left	No	0.434692099999666	0	649436	251
1269.46484375	2	decision	foodImageDisplay	4	192	12	foodImage.111	FOODEEG_Images\0919.jpg	NY	Left	No	0.434692099999666	0	649967	252
1271.529296875	0.434692099999666	decision	choicePhaseStart	4	192	12	foodImage.111	FOODEEG_Images\0919.jpg	NY	Left	No	0.434692099999666	0	651024	253
1271.955078125	0	decision	response	4	192	12	foodImage.111	FOODEEG_Images\0919.jpg	NY	Left	No	0.434692099999666	0	651242	234
1273	1	taste	trialStart	4	193	13	foodImage.76	FOODEEG_Images\0766.jpg	NY	Right	Yes	0.600368000003073	0	651777	251
1274.044921875	2	taste	foodImageDisplay	4	193	13	foodImage.76	FOODEEG_Images\0766.jpg	NY	Right	Yes	0.600368000003073	0	652312	252
1276.11328125	0.600368000003073	taste	choicePhaseStart	4	193	13	foodImage.76	FOODEEG_Images\0766.jpg	NY	Right	Yes	0.600368000003073	0	653371	253
1276.70703125	0	taste	response	4	193	13	foodImage.76	FOODEEG_Images\0766.jpg	NY	Right	Yes	0.600368000003073	0	653675	235
1277.755859375	1	decision	trialStart	4	194	14	foodImage.57	FOODEEG_Images\0587.jpg	NY	Left	No	0.693779900000663	0	654212	251
1278.798828125	2	decision	foodImageDisplay	4	194	14	foodImage.57	FOODEEG_Images\0587.jpg	NY	Left	No	0.693779900000663	0	654746	252
1280.86328125	0.693779900000663	decision	choicePhaseStart	4	194	14	foodImage.57	FOODEEG_Images\0587.jpg	NY	Left	No	0.693779900000663	0	655803	253
