onset	duration	trial_type	event_type	block	trial_total	trial_in_block	food_image_code	food_image_path	button_position	resp_position	resp_choice	choice_rt	resp_too_slow	sample	trigger
237.171875	2	n/a	blockStart	1	n/a	n/a	n/a	n/a	n/a	n/a	n/a	n/a	n/a	121433	250
239.2109375	1	health	trialStart	1	1	1	foodImage.47	FOODEEG_Images\0488.jpg	NY	Left	No	0.657538200030103	0	122477	251
240.255859375	2	health	foodImageDisplay	1	1	1	foodImage.47	FOODEEG_Images\0488.jpg	NY	Left	No	0.657538200030103	0	123012	252
242.3203125	0.657538200030103	health	choicePhaseStart	1	1	1	foodImage.47	FOODEEG_Images\0488.jpg	NY	Left	No	0.657538200030103	0	124069	253
242.970703125	0	health	response	1	1	1	foodImage.47	FOODEEG_Images\0488.jpg	NY	Left	No	0.657538200030103	0	124402	234
244.0546875	1	health	trialStart	1	2	2	foodImage.43	FOODEEG_Images\0445.jpg	YN	Left	Yes	0.624942100141197	0	124957	251
245.11328125	2	health	foodImageDisplay	1	2	2	foodImage.43	FOODEEG_Images\0445.jpg	YN	Left	Yes	0.624942100141197	0	125499	252
247.17578125	0.624942100141197	health	choicePhaseStart	1	2	2	foodImage.43	FOODEEG_Images\0445.jpg	YN	Left	Yes	0.624942100141197	0	126555	253
247.794921875	0	health	response	1	2	2	foodImage.43	FOODEEG_Images\0445.jpg	YN	Left	Yes	0.624942100141197	0	126872	234
248.8515625	1	taste	trialStart	1	3	3	foodImage.49	FOODEEG_Images\0515.jpg	YN	Left	Yes	0.651572299888358	0	127413	251
249.89453125	2	taste	foodImageDisplay	1	3	3	foodImage.49	FOODEEG_Images\0515.jpg	YN	Left	Yes	0.651572299888358	0	127947	252
251.958984375	0.651572299888358	taste	choicePhaseStart	1	3	3	foodImage.49	FOODEEG_Images\0515.jpg	YN	Left	Yes	0.651572299888358	0	129004	253
252.6015625	0	taste	response	1	3	3	foodImage.49	FOODEEG_Images\0515.jpg	YN	Left	Yes	0.651572299888358	0	129333	234
253.646484375	1	decision	trialStart	1	4	4	foodImage.55	FOODEEG_Images\0567.jpg	NY	Right	Yes	0.505148200085387	0	129868	251
254.703125	2	decision	foodImageDisplay	1	4	4	foodImage.55	FOODEEG_Images\0567.jpg	NY	Right	Yes	0.505148200085387	0	130409	252
256.767578125	0.505148200085387	decision	choicePhaseStart	1	4	4	foodImage.55	FOODEEG_Images\0567.jpg	NY	Right	Yes	0.505148200085387	0	131466	253
257.265625	0	decision	response	1	4	4	foodImage.55	FOODEEG_Images\0567.jpg	NY	Right	Yes	0.505148200085387	0	131721	235
258.3125	1	taste	trialStart	1	5	5	foodImage.33	FOODEEG_Images\0329.jpg	YN	Left	Yes	0.577469500014558	0	132257	251
259.357421875	2	taste	foodImageDisplay	1	5	5	foodImage.33	FOODEEG_Images\0329.jpg	YN	Left	Yes	0.577469500014558	0	132792	252
261.423828125	0.577469500014558	taste	choicePhaseStart	1	5	5	foodImage.33	FOODEEG_Images\0329.jpg	YN	Left	Yes	0.577469500014558	0	133850	253
261.994140625	0	taste	response	1	5	5	foodImage.33	FOODEEG_Images\0329.jpg	YN	Left	Yes	0.577469500014558	0	134142	234
263.04296875	1	health	trialStart	1	6	6	foodImage.101	FOODEEG_Images\0909.jpg	NY	Right	Yes	0.742833700031042	0	134679	251
264.083984375	2	health	foodImageDisplay	1	6	6	foodImage.101	FOODEEG_Images\0909.jpg	NY	Right	Yes	0.742833700031042	0	135212	252
266.146484375	0.742833700031042	health	choicePhaseStart	1	6	6	foodImage.101	FOODEEG_Images\0909.jpg	NY	Right	Yes	0.742833700031042	0	136268	253
266.8828125	0	health	response	1	6	6	foodImage.101	FOODEEG_Images\0909.jpg	NY	Right	Yes	0.742833700031042	0	136645	235
267.923828125	1	decision	trialStart	1	7	7	foodImage.34	FOODEEG_Images\0339.jpg	YN	Right	No	0.781241799937561	0	137178	251
268.98046875	2	decision	foodImageDisplay	1	7	7	foodImage.34	FOODEEG_Images\0339.jpg	YN	Right	No	0.781241799937561	0	137719	252
271.044921875	0.781241799937561	decision	choicePhaseStart	1	7	7	foodImage.34	FOODEEG_Images\0339.jpg	YN	Right	No	0.781241799937561	0	138776	253
271.818359375	0	decision	response	1	7	7	foodImage.34	FOODEEG_Images\0339.jpg	YN	Right	No	0.781241799937561	0	139172	235
272.859375	1	taste	trialStart	1	8	8	foodImage.45	FOODEEG_Images\0478.jpg	YN	Left	Yes	0.520650199847296	0	139705	251
273.904296875	2	taste	foodImageDisplay	1	8	8	foodImage.45	FOODEEG_Images\0478.jpg	YN	Left	Yes	0.520650199847296	0	140240	252
275.974609375	0.520650199847296	taste	choicePhaseStart	1	8	8	foodImage.45	FOODEEG_Images\0478.jpg	YN	Left	Yes	0.520650199847296	0	141300	253
276.490234375	0	taste	response	1	8	8	foodImage.45	FOODEEG_Images\0478.jpg	YN	Left	Yes	0.520650199847296	0	141564	234
277.53125	1	health	trialStart	1	9	9	foodImage.4	FOODEEG_Images\0065.jpg	NY	Right	Yes	0.648421199992299	0	142097	251
278.5859375	2	health	foodImageDisplay	1	9	9	foodImage.4	FOODEEG_Images\0065.jpg	NY	Right	Yes	0.648421199992299	0	142637	252
280.6484375	0.648421199992299	health	choicePhaseStart	1	9	9	foodImage.4	FOODEEG_Images\0065.jpg	NY	Right	Yes	0.648421199992299	0	143693	253
281.2890625	0	health	response	1	9	9	foodImage.4	FOODEEG_Images\0065.jpg	NY	Right	Yes	0.648421199992299	0	144021	235
282.33203125	1	health	trialStart	1	10	10	foodImage.7	FOODEEG_Images\0116.jpg	NY	Left	No	0.690672700060531	0	144555	251
283.373046875	2	health	foodImageDisplay	1	10	10	foodImage.7	FOODEEG_Images\0116.jpg	NY	Left	No	0.690672700060531	0	145088	252
285.4375	0.690672700060531	health	choicePhaseStart	1	10	10	foodImage.7	FOODEEG_Images\0116.jpg	NY	Left	No	0.690672700060531	0	146145	253
286.12109375	0	health	response	1	10	10	foodImage.7	FOODEEG_Images\0116.jpg	NY	Left	No	0.690672700060531	0	146495	234
287.162109375	1	taste	trialStart	1	11	11	foodImage.88	FOODEEG_Images\0878.jpg	YN	Left	Yes	0.70494779990986	0	147028	251
288.216796875	2	taste	foodImageDisplay	1	11	11	foodImage.88	FOODEEG_Images\0878.jpg	YN	Left	Yes	0.70494779990986	0	147568	252
290.28125	0.70494779990986	taste	choicePhaseStart	1	11	11	foodImage.88	FOODEEG_Images\0878.jpg	YN	Left	Yes	0.70494779990986	0	148625	253
290.9765625	0	taste	response	1	11	11	foodImage.88	FOODEEG_Images\0878.jpg	YN	Left	Yes	0.70494779990986	0	148981	234
292.017578125	1	taste	trialStart	1	12	12	foodImage.94	FOODEEG_Images\0902.jpg	NY	Right	Yes	0.488648399943486	0	149514	251
293.056640625	2	taste	foodImageDisplay	1	12	12	foodImage.94	FOODEEG_Images\0902.jpg	NY	Right	Yes	0.488648399943486	0	150046	252
295.12109375	0.488648399943486	taste	choicePhaseStart	1	12	12	foodImage.94	FOODEEG_Images\0902.jpg	NY	Right	Yes	0.488648399943486	0	151103	253
295.6015625	0	taste	response	1	12	12	foodImage.94	FOODEEG_Images\0902.jpg	NY	Right	Yes	0.488648399943486	0	151349	235
296.64453125	1	health	trialStart	1	13	13	foodImage.113	FOODEEG_Images\0921.jpg	NY	Right	Yes	0.988996899919584	0	151883	251
297.68359375	2	health	foodImageDisplay	1	13	13	foodImage.113	FOODEEG_Images\0921.jpg	NY	Right	Yes	0.988996899919584	0	152415	252
299.748046875	0.988996899919584	health	choicePhaseStart	1	13	13	foodImage.113	FOODEEG_Images\0921.jpg	NY	Right	Yes	0.988996899919584	0	153472	253
300.728515625	0	health	response	1	13	13	foodImage.113	FOODEEG_Images\0921.jpg	NY	Right	Yes	0.988996899919584	0	153974	235
301.771484375	1	taste	trialStart	1	14	14	foodImage.104	FOODEEG_Images\0912.jpg	YN	Left	Yes	0.503300199983642	0	154508	251
302.80859375	2	taste	foodImageDisplay	1	14	14	foodImage.104	FOODEEG_Images\0912.jpg	YN	Left	Yes	0.503300199983642	0	155039	252
304.873046875	0.503300199983642	taste	choicePhaseStart	1	14	14	foodImage.104	FOODEEG_Images\0912.jpg	YN	Left	Yes	0.503300199983642	0	156096	253
305.3671875	0	taste	response	1	14	14	foodImage.104	FOODEEG_Images\0912.jpg	YN	Left	Yes	0.503300199983642	0	156349	234
306.408203125	1	taste	trialStart	1	15	15	foodImage.113	FOODEEG_Images\0921.jpg	YN	Left	Yes	0.560053100110963	0	156882	251
307.4453125	2	taste	foodImageDisplay	1	15	15	foodImage.113	FOODEEG_Images\0921.jpg	YN	Left	Yes	0.560053100110963	0	157413	252
309.509765625	0.560053100110963	taste	choicePhaseStart	1	15	15	foodImage.113	FOODEEG_Images\0921.jpg	YN	Left	Yes	0.560053100110963	0	158470	253
310.064453125	0	taste	response	1	15	15	foodImage.113	FOODEEG_Images\0921.jpg	YN	Left	Yes	0.560053100110963	0	158754	234
311.103515625	1	decision	trialStart	1	16	16	foodImage.87	FOODEEG_Images\0873.jpg	YN	Left	Yes	0.528668999904767	0	159286	251
312.158203125	2	decision	foodImageDisplay	1	16	16	foodImage.87	FOODEEG_Images\0873.jpg	YN	Left	Yes	0.528668999904767	0	159826	252
314.22265625	0.528668999904767	decision	choicePhaseStart	1	16	16	foodImage.87	FOODEEG_Images\0873.jpg	YN	Left	Yes	0.528668999904767	0	160883	253
314.744140625	0	decision	response	1	16	16	foodImage.87	FOODEEG_Images\0873.jpg	YN	Left	Yes	0.528668999904767	0	161150	234
315.787109375	1	health	trialStart	1	17	17	foodImage.14	FOODEEG_Images\0188.jpg	NY	Right	Yes	0.622788799926639	0	161684	251
316.8671875	2	health	foodImageDisplay	1	17	17	foodImage.14	FOODEEG_Images\0188.jpg	NY	Right	Yes	0.622788799926639	0	162237	252
318.9296875	0.622788799926639	health	choicePhaseStart	1	17	17	foodImage.14	FOODEEG_Images\0188.jpg	NY	Right	Yes	0.622788799926639	0	163293	253
319.54296875	0	health	response	1	17	17	foodImage.14	FOODEEG_Images\0188.jpg	NY	Right	Yes	0.622788799926639	0	163607	235
320.583984375	1	taste	trialStart	1	18	18	foodImage.50	FOODEEG_Images\0529.jpg	NY	Right	Yes	0.487578100059181	0	164140	251
321.640625	2	taste	foodImageDisplay	1	18	18	foodImage.50	FOODEEG_Images\0529.jpg	NY	Right	Yes	0.487578100059181	0	164681	252
323.705078125	0.487578100059181	taste	choicePhaseStart	1	18	18	foodImage.50	FOODEEG_Images\0529.jpg	NY	Right	Yes	0.487578100059181	0	165738	253
324.18359375	0	taste	response	1	18	18	foodImage.50	FOODEEG_Images\0529.jpg	NY	Right	Yes	0.487578100059181	0	165983	235
325.224609375	1	health	trialStart	1	19	19	foodImage.80	FOODEEG_Images\0796.jpg	NY	Right	Yes	0.459681399865076	0	166516	251
326.28515625	2	health	foodImageDisplay	1	19	19	foodImage.80	FOODEEG_Images\0796.jpg	NY	Right	Yes	0.459681399865076	0	167059	252
328.349609375	0.459681399865076	health	choicePhaseStart	1	19	19	foodImage.80	FOODEEG_Images\0796.jpg	NY	Right	Yes	0.459681399865076	0	168116	253
328.798828125	0	health	response	1	19	19	foodImage.80	FOODEEG_Images\0796.jpg	NY	Right	Yes	0.459681399865076	0	168346	235
329.841796875	1	decision	trialStart	1	20	20	foodImage.92	FOODEEG_Images\0900.jpg	NY	Left	No	0.808338100090623	0	168880	251
330.880859375	2	decision	foodImageDisplay	1	20	20	foodImage.92	FOODEEG_Images\0900.jpg	NY	Left	No	0.808338100090623	0	169412	252
332.943359375	0.808338100090623	decision	choicePhaseStart	1	20	20	foodImage.92	FOODEEG_Images\0900.jpg	NY	Left	No	0.808338100090623	0	170468	253
333.7421875	0	decision	response	1	20	20	foodImage.92	FOODEEG_Images\0900.jpg	NY	Left	No	0.808338100090623	0	170877	234
334.783203125	1	decision	trialStart	1	21	21	foodImage.113	FOODEEG_Images\0921.jpg	NY	Right	Yes	0.611775600118563	0	171410	251
335.8203125	2	decision	foodImageDisplay	1	21	21	foodImage.113	FOODEEG_Images\0921.jpg	NY	Right	Yes	0.611775600118563	0	171941	252
337.884765625	0.611775600118563	decision	choicePhaseStart	1	21	21	foodImage.113	FOODEEG_Images\0921.jpg	NY	Right	Yes	0.611775600118563	0	172998	253
338.486328125	0	decision	response	1	21	21	foodImage.113	FOODEEG_Images\0921.jpg	NY	Right	Yes	0.611775600118563	0	173306	235
339.52734375	1	health	trialStart	1	22	22	foodImage.23	FOODEEG_Images\0244.jpg	YN	Left	Yes	0.867858299985528	0	173839	251
340.580078125	2	health	foodImageDisplay	1	22	22	foodImage.23	FOODEEG_Images\0244.jpg	YN	Left	Yes	0.867858299985528	0	174378	252
342.64453125	0.867858299985528	health	choicePhaseStart	1	22	22	foodImage.23	FOODEEG_Images\0244.jpg	YN	Left	Yes	0.867858299985528	0	175435	253
343.501953125	0	health	response	1	22	22	foodImage.23	FOODEEG_Images\0244.jpg	YN	Left	Yes	0.867858299985528	0	175874	234
344.54296875	1	health	trialStart	1	23	23	foodImage.39	FOODEEG_Images\0367.jpg	YN	Right	No	0.588168000103906	0	176407	251
345.580078125	2	health	foodImageDisplay	1	23	23	foodImage.39	FOODEEG_Images\0367.jpg	YN	Right	No	0.588168000103906	0	176938	252
347.642578125	0.588168000103906	health	choicePhaseStart	1	23	23	foodImage.39	FOODEEG_Images\0367.jpg	YN	Right	No	0.588168000103906	0	177994	253
348.22265625	0	health	response	1	23	23	foodImage.39	FOODEEG_Images\0367.jpg	YN	Right	No	0.588168000103906	0	178291	235
349.265625	1	health	trialStart	1	24	24	foodImage.78	FOODEEG_Images\0787.jpg	YN	Left	Yes	1.49268430005759	0	178825	251
350.30859375	2	health	foodImageDisplay	1	24	24	foodImage.78	FOODEEG_Images\0787.jpg	YN	Left	Yes	1.49268430005759	0	179359	252
352.37109375	1.49268430005759	health	choicePhaseStart	1	24	24	foodImage.78	FOODEEG_Images\0787.jpg	YN	Left	Yes	1.49268430005759	0	180415	253
353.853515625	0	health	response	1	24	24	foodImage.78	FOODEEG_Images\0787.jpg	YN	Left	Yes	1.49268430005759	0	181174	234
354.89453125	1	decision	trialStart	1	25	25	foodImage.17	FOODEEG_Images\0199.jpg	YN	Left	Yes	1.10010829987004	0	181707	251
355.955078125	2	decision	foodImageDisplay	1	25	25	foodImage.17	FOODEEG_Images\0199.jpg	YN	Left	Yes	1.10010829987004	0	182250	252
358.01953125	1.10010829987004	decision	choicePhaseStart	1	25	25	foodImage.17	FOODEEG_Images\0199.jpg	YN	Left	Yes	1.10010829987004	0	183307	253
359.109375	0	decision	response	1	25	25	foodImage.17	FOODEEG_Images\0199.jpg	YN	Left	Yes	1.10010829987004	0	183865	234
360.154296875	1	decision	trialStart	1	26	26	foodImage.93	FOODEEG_Images\0901.jpg	YN	Right	No	0.653682199772447	0	184400	251
361.193359375	2	decision	foodImageDisplay	1	26	26	foodImage.93	FOODEEG_Images\0901.jpg	YN	Right	No	0.653682199772447	0	184932	252
363.2578125	0.653682199772447	decision	choicePhaseStart	1	26	26	foodImage.93	FOODEEG_Images\0901.jpg	YN	Right	No	0.653682199772447	0	185989	253
363.90234375	0	decision	response	1	26	26	foodImage.93	FOODEEG_Images\0901.jpg	YN	Right	No	0.653682199772447	0	186319	235
364.943359375	1	taste	trialStart	1	27	27	foodImage.53	FOODEEG_Images\0547.jpg	NY	Right	Yes	0.581766800023615	0	186852	251
366.00390625	2	taste	foodImageDisplay	1	27	27	foodImage.53	FOODEEG_Images\0547.jpg	NY	Right	Yes	0.581766800023615	0	187395	252
368.06640625	0.581766800023615	taste	choicePhaseStart	1	27	27	foodImage.53	FOODEEG_Images\0547.jpg	NY	Right	Yes	0.581766800023615	0	188451	253
368.638671875	0	taste	response	1	27	27	foodImage.53	FOODEEG_Images\0547.jpg	NY	Right	Yes	0.581766800023615	0	188744	235
369.6796875	1	taste	trialStart	1	28	28	foodImage.110	FOODEEG_Images\0918.jpg	YN	Right	No	0.792652599979192	0	189277	251
370.71875	2	taste	foodImageDisplay	1	28	28	foodImage.110	FOODEEG_Images\0918.jpg	YN	Right	No	0.792652599979192	0	189809	252
372.78125	0.792652599979192	taste	choicePhaseStart	1	28	28	foodImage.110	FOODEEG_Images\0918.jpg	YN	Right	No	0.792652599979192	0	190865	253
373.564453125	0	taste	response	1	28	28	foodImage.110	FOODEEG_Images\0918.jpg	YN	Right	No	0.792652599979192	0	191266	235
374.607421875	1	taste	trialStart	1	29	29	foodImage.3	FOODEEG_Images\0046.jpg	YN	Left	Yes	0.536620900034904	0	191800	251
375.669921875	2	taste	foodImageDisplay	1	29	29	foodImage.3	FOODEEG_Images\0046.jpg	YN	Left	Yes	0.536620900034904	0	192344	252
377.734375	0.536620900034904	taste	choicePhaseStart	1	29	29	foodImage.3	FOODEEG_Images\0046.jpg	YN	Left	Yes	0.536620900034904	0	193401	253
378.26171875	0	taste	response	1	29	29	foodImage.3	FOODEEG_Images\0046.jpg	YN	Left	Yes	0.536620900034904	0	193671	234
379.302734375	1	taste	trialStart	1	30	30	foodImage.107	FOODEEG_Images\0915.jpg	NY	Right	Yes	0.618694499833509	0	194204	251
380.33984375	2	taste	foodImageDisplay	1	30	30	foodImage.107	FOODEEG_Images\0915.jpg	NY	Right	Yes	0.618694499833509	0	194735	252
382.404296875	0.618694499833509	taste	choicePhaseStart	1	30	30	foodImage.107	FOODEEG_Images\0915.jpg	NY	Right	Yes	0.618694499833509	0	195792	253
383.013671875	0	taste	response	1	30	30	foodImage.107	FOODEEG_Images\0915.jpg	NY	Right	Yes	0.618694499833509	0	196104	235
384.052734375	1	health	trialStart	1	31	31	foodImage.98	FOODEEG_Images\0906.jpg	NY	Left	No	0.828627300215885	0	196636	251
385.08984375	2	health	foodImageDisplay	1	31	31	foodImage.98	FOODEEG_Images\0906.jpg	NY	Left	No	0.828627300215885	0	197167	252
387.15234375	0.828627300215885	health	choicePhaseStart	1	31	31	foodImage.98	FOODEEG_Images\0906.jpg	NY	Left	No	0.828627300215885	0	198223	253
387.97265625	0	health	response	1	31	31	foodImage.98	FOODEEG_Images\0906.jpg	NY	Left	No	0.828627300215885	0	198643	234
389.017578125	1	taste	trialStart	1	32	32	foodImage.100	FOODEEG_Images\0908.jpg	NY	Right	Yes	0.452917099930346	0	199178	251
390.056640625	2	taste	foodImageDisplay	1	32	32	foodImage.100	FOODEEG_Images\0908.jpg	NY	Right	Yes	0.452917099930346	0	199710	252
392.12109375	0.452917099930346	taste	choicePhaseStart	1	32	32	foodImage.100	FOODEEG_Images\0908.jpg	NY	Right	Yes	0.452917099930346	0	200767	253
392.564453125	0	taste	response	1	32	32	foodImage.100	FOODEEG_Images\0908.jpg	NY	Right	Yes	0.452917099930346	0	200994	235
393.603515625	1	health	trialStart	1	33	33	foodImage.18	FOODEEG_Images\0202.jpg	NY	Right	Yes	0.556980900000781	0	201526	251
394.673828125	2	health	foodImageDisplay	1	33	33	foodImage.18	FOODEEG_Images\0202.jpg	NY	Right	Yes	0.556980900000781	0	202074	252
396.73828125	0.556980900000781	health	choicePhaseStart	1	33	33	foodImage.18	FOODEEG_Images\0202.jpg	NY	Right	Yes	0.556980900000781	0	203131	253
397.28515625	0	health	response	1	33	33	foodImage.18	FOODEEG_Images\0202.jpg	NY	Right	Yes	0.556980900000781	0	203411	235
398.326171875	1	decision	trialStart	1	34	34	foodImage.75	FOODEEG_Images\0763.jpg	NY	Right	Yes	0.506733099929988	0	203944	251
399.37109375	2	decision	foodImageDisplay	1	34	34	foodImage.75	FOODEEG_Images\0763.jpg	NY	Right	Yes	0.506733099929988	0	204479	252
401.43359375	0.506733099929988	decision	choicePhaseStart	1	34	34	foodImage.75	FOODEEG_Images\0763.jpg	NY	Right	Yes	0.506733099929988	0	205535	253
401.931640625	0	decision	response	1	34	34	foodImage.75	FOODEEG_Images\0763.jpg	NY	Right	Yes	0.506733099929988	0	205790	235
402.97265625	1	decision	trialStart	1	35	35	foodImage.108	FOODEEG_Images\0916.jpg	YN	Left	Yes	0.458621699828655	0	206323	251
404.009765625	2	decision	foodImageDisplay	1	35	35	foodImage.108	FOODEEG_Images\0916.jpg	YN	Left	Yes	0.458621699828655	0	206854	252
406.07421875	0.458621699828655	decision	choicePhaseStart	1	35	35	foodImage.108	FOODEEG_Images\0916.jpg	YN	Left	Yes	0.458621699828655	0	207911	253
406.5234375	0	decision	response	1	35	35	foodImage.108	FOODEEG_Images\0916.jpg	YN	Left	Yes	0.458621699828655	0	208141	234
407.56640625	1	taste	trialStart	1	36	36	foodImage.27	FOODEEG_Images\0263.jpg	NY	Right	Yes	0.566507400013506	0	208675	251
408.607421875	2	taste	foodImageDisplay	1	36	36	foodImage.27	FOODEEG_Images\0263.jpg	NY	Right	Yes	0.566507400013506	0	209208	252
410.669921875	0.566507400013506	taste	choicePhaseStart	1	36	36	foodImage.27	FOODEEG_Images\0263.jpg	NY	Right	Yes	0.566507400013506	0	210264	253
411.228515625	0	taste	response	1	36	36	foodImage.27	FOODEEG_Images\0263.jpg	NY	Right	Yes	0.566507400013506	0	210550	235
412.271484375	1	health	trialStart	1	37	37	foodImage.6	FOODEEG_Images\0113.jpg	YN	Right	No	0.614080199971795	0	211084	251
413.3203125	2	health	foodImageDisplay	1	37	37	foodImage.6	FOODEEG_Images\0113.jpg	YN	Right	No	0.614080199971795	0	211621	252
415.3828125	0.614080199971795	health	choicePhaseStart	1	37	37	foodImage.6	FOODEEG_Images\0113.jpg	YN	Right	No	0.614080199971795	0	212677	253
415.98828125	0	health	response	1	37	37	foodImage.6	FOODEEG_Images\0113.jpg	YN	Right	No	0.614080199971795	0	212987	235
417.03125	1	health	trialStart	1	38	38	foodImage.93	FOODEEG_Images\0901.jpg	NY	Left	No	0.609532800037414	0	213521	251
418.072265625	2	health	foodImageDisplay	1	38	38	foodImage.93	FOODEEG_Images\0901.jpg	NY	Left	No	0.609532800037414	0	214054	252
420.138671875	0.609532800037414	health	choicePhaseStart	1	38	38	foodImage.93	FOODEEG_Images\0901.jpg	NY	Left	No	0.609532800037414	0	215112	253
420.740234375	0	health	response	1	38	38	foodImage.93	FOODEEG_Images\0901.jpg	NY	Left	No	0.609532800037414	0	215420	234
421.779296875	1	decision	trialStart	1	39	39	foodImage.85	FOODEEG_Images\0841.jpg	YN	Right	No	0.795478099957108	0	215952	251
422.833984375	2	decision	foodImageDisplay	1	39	39	foodImage.85	FOODEEG_Images\0841.jpg	YN	Right	No	0.795478099957108	0	216492	252
424.8984375	0.795478099957108	decision	choicePhaseStart	1	39	39	foodImage.85	FOODEEG_Images\0841.jpg	YN	Right	No	0.795478099957108	0	217549	253
425.68359375	0	decision	response	1	39	39	foodImage.85	FOODEEG_Images\0841.jpg	YN	Right	No	0.795478099957108	0	217951	235
426.7265625	1	health	trialStart	1	40	40	foodImage.103	FOODEEG_Images\0911.jpg	YN	Left	Yes	0.513579099904746	0	218485	251
427.765625	2	health	foodImageDisplay	1	40	40	foodImage.103	FOODEEG_Images\0911.jpg	YN	Left	Yes	0.513579099904746	0	219017	252
429.828125	0.513579099904746	health	choicePhaseStart	1	40	40	foodImage.103	FOODEEG_Images\0911.jpg	YN	Left	Yes	0.513579099904746	0	220073	253
430.33203125	0	health	response	1	40	40	foodImage.103	FOODEEG_Images\0911.jpg	YN	Left	Yes	0.513579099904746	0	220331	234
431.373046875	1	taste	trialStart	1	41	41	foodImage.10	FOODEEG_Images\0145.jpg	YN	Left	Yes	0.47114109992981	0	220864	251
432.4296875	2	taste	foodImageDisplay	1	41	41	foodImage.10	FOODEEG_Images\0145.jpg	YN	Left	Yes	0.47114109992981	0	221405	252
434.4921875	0.47114109992981	taste	choicePhaseStart	1	41	41	foodImage.10	FOODEEG_Images\0145.jpg	YN	Left	Yes	0.47114109992981	0	222461	253
434.955078125	0	taste	response	1	41	41	foodImage.10	FOODEEG_Images\0145.jpg	YN	Left	Yes	0.47114109992981	0	222698	234
435.998046875	1	health	trialStart	1	42	42	foodImage.72	FOODEEG_Images\0714.jpg	NY	Right	Yes	0.458946200087667	0	223232	251
437.04296875	2	health	foodImageDisplay	1	42	42	foodImage.72	FOODEEG_Images\0714.jpg	NY	Right	Yes	0.458946200087667	0	223767	252
439.111328125	0.458946200087667	health	choicePhaseStart	1	42	42	foodImage.72	FOODEEG_Images\0714.jpg	NY	Right	Yes	0.458946200087667	0	224826	253
439.5625	0	health	response	1	42	42	foodImage.72	FOODEEG_Images\0714.jpg	NY	Right	Yes	0.458946200087667	0	225057	235
440.60546875	1	decision	trialStart	1	43	43	foodImage.58	FOODEEG_Images\0605.jpg	NY	Right	Yes	0.615029099863023	0	225591	251
441.66015625	2	decision	foodImageDisplay	1	43	43	foodImage.58	FOODEEG_Images\0605.jpg	NY	Right	Yes	0.615029099863023	0	226131	252
443.724609375	0.615029099863023	decision	choicePhaseStart	1	43	43	foodImage.58	FOODEEG_Images\0605.jpg	NY	Right	Yes	0.615029099863023	0	227188	253
444.330078125	0	decision	response	1	43	43	foodImage.58	FOODEEG_Images\0605.jpg	NY	Right	Yes	0.615029099863023	0	227498	235
445.37109375	1	health	trialStart	1	44	44	foodImage.54	FOODEEG_Images\0560.jpg	NY	Right	Yes	0.414558099815622	0	228031	251
446.4375	2	health	foodImageDisplay	1	44	44	foodImage.54	FOODEEG_Images\0560.jpg	NY	Right	Yes	0.414558099815622	0	228577	252
448.501953125	0.414558099815622	health	choicePhaseStart	1	44	44	foodImage.54	FOODEEG_Images\0560.jpg	NY	Right	Yes	0.414558099815622	0	229634	253
448.90625	0	health	response	1	44	44	foodImage.54	FOODEEG_Images\0560.jpg	NY	Right	Yes	0.414558099815622	0	229841	235
449.94921875	1	taste	trialStart	1	45	45	foodImage.78	FOODEEG_Images\0787.jpg	YN	Left	Yes	0.454441899899393	0	230375	251
450.9921875	2	taste	foodImageDisplay	1	45	45	foodImage.78	FOODEEG_Images\0787.jpg	YN	Left	Yes	0.454441899899393	0	230909	252
453.0546875	0.454441899899393	taste	choicePhaseStart	1	45	45	foodImage.78	FOODEEG_Images\0787.jpg	YN	Left	Yes	0.454441899899393	0	231965	253
453.498046875	0	taste	response	1	45	45	foodImage.78	FOODEEG_Images\0787.jpg	YN	Left	Yes	0.454441899899393	0	232192	234
454.5390625	1	decision	trialStart	1	46	46	foodImage.105	FOODEEG_Images\0913.jpg	NY	Left	No	0.420769600197673	0	232725	251
455.576171875	2	decision	foodImageDisplay	1	46	46	foodImage.105	FOODEEG_Images\0913.jpg	NY	Left	No	0.420769600197673	0	233256	252
457.638671875	0.420769600197673	decision	choicePhaseStart	1	46	46	foodImage.105	FOODEEG_Images\0913.jpg	NY	Left	No	0.420769600197673	0	234312	253
458.05078125	0	decision	response	1	46	46	foodImage.105	FOODEEG_Images\0913.jpg	NY	Left	No	0.420769600197673	0	234523	234
459.09765625	1	health	trialStart	1	47	47	foodImage.117	FOODEEG_Images\0925.jpg	YN	Left	Yes	0.647205000044778	0	235059	251
460.140625	2	health	foodImageDisplay	1	47	47	foodImage.117	FOODEEG_Images\0925.jpg	YN	Left	Yes	0.647205000044778	0	235593	252
462.203125	0.647205000044778	health	choicePhaseStart	1	47	47	foodImage.117	FOODEEG_Images\0925.jpg	YN	Left	Yes	0.647205000044778	0	236649	253
462.841796875	0	health	response	1	47	47	foodImage.117	FOODEEG_Images\0925.jpg	YN	Left	Yes	0.647205000044778	0	236976	234
463.884765625	1	taste	trialStart	1	48	48	foodImage.73	FOODEEG_Images\0717.jpg	YN	Left	Yes	0.574820300098509	0	237510	251
464.94140625	2	taste	foodImageDisplay	1	48	48	foodImage.73	FOODEEG_Images\0717.jpg	YN	Left	Yes	0.574820300098509	0	238051	252
467.00390625	0.574820300098509	taste	choicePhaseStart	1	48	48	foodImage.73	FOODEEG_Images\0717.jpg	YN	Left	Yes	0.574820300098509	0	239107	253
467.5703125	0	taste	response	1	48	48	foodImage.73	FOODEEG_Images\0717.jpg	YN	Left	Yes	0.574820300098509	0	239397	234
468.611328125	1	health	trialStart	1	49	49	foodImage.112	FOODEEG_Images\0920.jpg	NY	Left	No	0.937648299848661	0	239930	251
469.658203125	2	health	foodImageDisplay	1	49	49	foodImage.112	FOODEEG_Images\0920.jpg	NY	Left	No	0.937648299848661	0	240466	252
471.720703125	0.937648299848661	health	choicePhaseStart	1	49	49	foodImage.112	FOODEEG_Images\0920.jpg	NY	Left	No	0.937648299848661	0	241522	253
472.650390625	0	health	response	1	49	49	foodImage.112	FOODEEG_Images\0920.jpg	NY	Left	No	0.937648299848661	0	241998	234
473.693359375	1	taste	trialStart	1	50	50	foodImage.21	FOODEEG_Images\0234.jpg	YN	Left	Yes	0.575477099977434	0	242532	251
474.748046875	2	taste	foodImageDisplay	1	50	50	foodImage.21	FOODEEG_Images\0234.jpg	YN	Left	Yes	0.575477099977434	0	243072	252
476.8125	0.575477099977434	taste	choicePhaseStart	1	50	50	foodImage.21	FOODEEG_Images\0234.jpg	YN	Left	Yes	0.575477099977434	0	244129	253
477.376953125	0	taste	response	1	50	50	foodImage.21	FOODEEG_Images\0234.jpg	YN	Left	Yes	0.575477099977434	0	244418	234
478.419921875	1	taste	trialStart	1	51	51	foodImage.105	FOODEEG_Images\0913.jpg	YN	Left	Yes	0.682235900079831	0	244952	251
479.45703125	2	taste	foodImageDisplay	1	51	51	foodImage.105	FOODEEG_Images\0913.jpg	YN	Left	Yes	0.682235900079831	0	245483	252
481.51953125	0.682235900079831	taste	choicePhaseStart	1	51	51	foodImage.105	FOODEEG_Images\0913.jpg	YN	Left	Yes	0.682235900079831	0	246539	253
482.193359375	0	taste	response	1	51	51	foodImage.105	FOODEEG_Images\0913.jpg	YN	Left	Yes	0.682235900079831	0	246884	234
483.234375	1	decision	trialStart	1	52	52	foodImage.49	FOODEEG_Images\0515.jpg	YN	Left	Yes	0.610154299996793	0	247417	251
484.2890625	2	decision	foodImageDisplay	1	52	52	foodImage.49	FOODEEG_Images\0515.jpg	YN	Left	Yes	0.610154299996793	0	247957	252
486.3515625	0.610154299996793	decision	choicePhaseStart	1	52	52	foodImage.49	FOODEEG_Images\0515.jpg	YN	Left	Yes	0.610154299996793	0	249013	253
486.953125	0	decision	response	1	52	52	foodImage.49	FOODEEG_Images\0515.jpg	YN	Left	Yes	0.610154299996793	0	249321	234
487.998046875	1	taste	trialStart	1	53	53	foodImage.43	FOODEEG_Images\0445.jpg	NY	Right	Yes	0.498003500048071	0	249856	251
489.072265625	2	taste	foodImageDisplay	1	53	53	foodImage.43	FOODEEG_Images\0445.jpg	NY	Right	Yes	0.498003500048071	0	250406	252
491.134765625	0.498003500048071	taste	choicePhaseStart	1	53	53	foodImage.43	FOODEEG_Images\0445.jpg	NY	Right	Yes	0.498003500048071	0	251462	253
491.625	0	taste	response	1	53	53	foodImage.43	FOODEEG_Images\0445.jpg	NY	Right	Yes	0.498003500048071	0	251713	235
492.66796875	1	taste	trialStart	1	54	54	foodImage.30	FOODEEG_Images\0282.jpg	NY	Right	Yes	0.45902660000138	0	252247	251
493.7109375	2	taste	foodImageDisplay	1	54	54	foodImage.30	FOODEEG_Images\0282.jpg	NY	Right	Yes	0.45902660000138	0	252781	252
495.775390625	0.45902660000138	taste	choicePhaseStart	1	54	54	foodImage.30	FOODEEG_Images\0282.jpg	NY	Right	Yes	0.45902660000138	0	253838	253
496.224609375	0	taste	response	1	54	54	foodImage.30	FOODEEG_Images\0282.jpg	NY	Right	Yes	0.45902660000138	0	254068	235
497.265625	1	taste	trialStart	1	55	55	foodImage.60	FOODEEG_Images\0614.jpg	NY	Right	Yes	0.440726900007576	0	254601	251
498.3203125	2	taste	foodImageDisplay	1	55	55	foodImage.60	FOODEEG_Images\0614.jpg	NY	Right	Yes	0.440726900007576	0	255141	252
500.384765625	0.440726900007576	taste	choicePhaseStart	1	55	55	foodImage.60	FOODEEG_Images\0614.jpg	NY	Right	Yes	0.440726900007576	0	256198	253
500.81640625	0	taste	response	1	55	55	foodImage.60	FOODEEG_Images\0614.jpg	NY	Right	Yes	0.440726900007576	0	256419	235
501.857421875	1	health	trialStart	1	56	56	foodImage.118	FOODEEG_Images\0926.jpg	YN	Right	No	0.840457599842921	0	256952	251
502.896484375	2	health	foodImageDisplay	1	56	56	foodImage.118	FOODEEG_Images\0926.jpg	YN	Right	No	0.840457599842921	0	257484	252
504.9609375	0.840457599842921	health	choicePhaseStart	1	56	56	foodImage.118	FOODEEG_Images\0926.jpg	YN	Right	No	0.840457599842921	0	258541	253
505.79296875	0	health	response	1	56	56	foodImage.118	FOODEEG_Images\0926.jpg	YN	Right	No	0.840457599842921	0	258967	235
506.837890625	1	health	trialStart	1	57	57	foodImage.67	FOODEEG_Images\0679.jpg	NY	Right	Yes	0.453143500024453	0	259502	251
507.892578125	2	health	foodImageDisplay	1	57	57	foodImage.67	FOODEEG_Images\0679.jpg	NY	Right	Yes	0.453143500024453	0	260042	252
509.962890625	0.453143500024453	health	choicePhaseStart	1	57	57	foodImage.67	FOODEEG_Images\0679.jpg	NY	Right	Yes	0.453143500024453	0	261102	253
510.408203125	0	health	response	1	57	57	foodImage.67	FOODEEG_Images\0679.jpg	NY	Right	Yes	0.453143500024453	0	261330	235
511.44921875	1	taste	trialStart	1	58	58	foodImage.38	FOODEEG_Images\0365.jpg	NY	Right	Yes	0.42013860004954	0	261863	251
512.486328125	2	taste	foodImageDisplay	1	58	58	foodImage.38	FOODEEG_Images\0365.jpg	NY	Right	Yes	0.42013860004954	0	262394	252
514.5546875	0.42013860004954	taste	choicePhaseStart	1	58	58	foodImage.38	FOODEEG_Images\0365.jpg	NY	Right	Yes	0.42013860004954	0	263453	253
514.96875	0	taste	response	1	58	58	foodImage.38	FOODEEG_Images\0365.jpg	NY	Right	Yes	0.42013860004954	0	263665	235
516.009765625	1	taste	trialStart	1	59	59	foodImage.82	FOODEEG_Images\0805.jpg	NY	Right	Yes	0.533964599948376	0	264198	251
517.06640625	2	taste	foodImageDisplay	1	59	59	foodImage.82	FOODEEG_Images\0805.jpg	NY	Right	Yes	0.533964599948376	0	264739	252
519.130859375	0.533964599948376	taste	choicePhaseStart	1	59	59	foodImage.82	FOODEEG_Images\0805.jpg	NY	Right	Yes	0.533964599948376	0	265796	253
519.65625	0	taste	response	1	59	59	foodImage.82	FOODEEG_Images\0805.jpg	NY	Right	Yes	0.533964599948376	0	266065	235
520.697265625	1	taste	trialStart	1	60	60	foodImage.68	FOODEEG_Images\0685.jpg	NY	Right	Yes	0.5012396001257	0	266598	251
521.771484375	2	taste	foodImageDisplay	1	60	60	foodImage.68	FOODEEG_Images\0685.jpg	NY	Right	Yes	0.5012396001257	0	267148	252
523.8359375	0.5012396001257	taste	choicePhaseStart	1	60	60	foodImage.68	FOODEEG_Images\0685.jpg	NY	Right	Yes	0.5012396001257	0	268205	253
524.328125	0	taste	response	1	60	60	foodImage.68	FOODEEG_Images\0685.jpg	NY	Right	Yes	0.5012396001257	0	268457	235
526.3671875	9.93359375	n/a	blockEnd	n/a	n/a	n/a	n/a	n/a	n/a	n/a	n/a	n/a	n/a	269501	254
536.30078125	2	n/a	blockStart	2	n/a	n/a	n/a	n/a	n/a	n/a	n/a	n/a	n/a	274587	250
538.337890625	1	taste	trialStart	2	61	1	foodImage.66	FOODEEG_Images\0676.jpg	YN	Left	Yes	0.833682199940085	0	275630	251
539.380859375	2	taste	foodImageDisplay	2	61	1	foodImage.66	FOODEEG_Images\0676.jpg	YN	Left	Yes	0.833682199940085	0	276164	252
541.4453125	0.833682199940085	taste	choicePhaseStart	2	61	1	foodImage.66	FOODEEG_Images\0676.jpg	YN	Left	Yes	0.833682199940085	0	277221	253
542.271484375	0	taste	response	2	61	1	foodImage.66	FOODEEG_Images\0676.jpg	YN	Left	Yes	0.833682199940085	0	277644	234
543.3125	1	taste	trialStart	2	62	2	foodImage.2	FOODEEG_Images\0028.jpg	YN	Left	Yes	0.61246749991551	0	278177	251
544.35546875	2	taste	foodImageDisplay	2	62	2	foodImage.2	FOODEEG_Images\0028.jpg	YN	Left	Yes	0.61246749991551	0	278711	252
546.419921875	0.61246749991551	taste	choicePhaseStart	2	62	2	foodImage.2	FOODEEG_Images\0028.jpg	YN	Left	Yes	0.61246749991551	0	279768	253
547.0234375	0	taste	response	2	62	2	foodImage.2	FOODEEG_Images\0028.jpg	YN	Left	Yes	0.61246749991551	0	280077	234
548.06640625	1	health	trialStart	2	63	3	foodImage.8	FOODEEG_Images\0136.jpg	NY	Left	No	1.15497620007955	0	280611	251
549.126953125	2	health	foodImageDisplay	2	63	3	foodImage.8	FOODEEG_Images\0136.jpg	NY	Left	No	1.15497620007955	0	281154	252
551.189453125	1.15497620007955	health	choicePhaseStart	2	63	3	foodImage.8	FOODEEG_Images\0136.jpg	NY	Left	No	1.15497620007955	0	282210	253
552.333984375	0	health	response	2	63	3	foodImage.8	FOODEEG_Images\0136.jpg	NY	Left	No	1.15497620007955	0	282796	234
553.37890625	1	health	trialStart	2	64	4	foodImage.32	FOODEEG_Images\0319.jpg	YN	Left	Yes	0.955180100165308	0	283331	251
554.421875	2	health	foodImageDisplay	2	64	4	foodImage.32	FOODEEG_Images\0319.jpg	YN	Left	Yes	0.955180100165308	0	283865	252
556.484375	0.955180100165308	health	choicePhaseStart	2	64	4	foodImage.32	FOODEEG_Images\0319.jpg	YN	Left	Yes	0.955180100165308	0	284921	253
557.4296875	0	health	response	2	64	4	foodImage.32	FOODEEG_Images\0319.jpg	YN	Left	Yes	0.955180100165308	0	285405	234
558.47265625	1	decision	trialStart	2	65	5	foodImage.71	FOODEEG_Images\0713.jpg	NY	Right	Yes	0.626634899992496	0	285939	251
559.515625	2	decision	foodImageDisplay	2	65	5	foodImage.71	FOODEEG_Images\0713.jpg	NY	Right	Yes	0.626634899992496	0	286473	252
561.578125	0.626634899992496	decision	choicePhaseStart	2	65	5	foodImage.71	FOODEEG_Images\0713.jpg	NY	Right	Yes	0.626634899992496	0	287529	253
562.197265625	0	decision	response	2	65	5	foodImage.71	FOODEEG_Images\0713.jpg	NY	Right	Yes	0.626634899992496	0	287846	235
563.240234375	1	decision	trialStart	2	66	6	foodImage.91	FOODEEG_Images\0896.jpg	NY	Right	Yes	0.584979600040242	0	288380	251
564.302734375	2	decision	foodImageDisplay	2	66	6	foodImage.91	FOODEEG_Images\0896.jpg	NY	Right	Yes	0.584979600040242	0	288924	252
566.365234375	0.584979600040242	decision	choicePhaseStart	2	66	6	foodImage.91	FOODEEG_Images\0896.jpg	NY	Right	Yes	0.584979600040242	0	289980	253
566.94140625	0	decision	response	2	66	6	foodImage.91	FOODEEG_Images\0896.jpg	NY	Right	Yes	0.584979600040242	0	290275	235
567.984375	1	health	trialStart	2	67	7	foodImage.30	FOODEEG_Images\0282.jpg	NY	Right	Yes	0.624801300000399	0	290809	251
569.033203125	2	health	foodImageDisplay	2	67	7	foodImage.30	FOODEEG_Images\0282.jpg	NY	Right	Yes	0.624801300000399	0	291346	252
571.09765625	0.624801300000399	health	choicePhaseStart	2	67	7	foodImage.30	FOODEEG_Images\0282.jpg	NY	Right	Yes	0.624801300000399	0	292403	253
571.716796875	0	health	response	2	67	7	foodImage.30	FOODEEG_Images\0282.jpg	NY	Right	Yes	0.624801300000399	0	292720	235
572.759765625	1	decision	trialStart	2	68	8	foodImage.99	FOODEEG_Images\0907.jpg	NY	Left	No	0.712017199955881	0	293254	251
573.80078125	2	decision	foodImageDisplay	2	68	8	foodImage.99	FOODEEG_Images\0907.jpg	NY	Left	No	0.712017199955881	0	293787	252
575.86328125	0.712017199955881	decision	choicePhaseStart	2	68	8	foodImage.99	FOODEEG_Images\0907.jpg	NY	Left	No	0.712017199955881	0	294843	253
576.564453125	0	decision	response	2	68	8	foodImage.99	FOODEEG_Images\0907.jpg	NY	Left	No	0.712017199955881	0	295202	234
577.607421875	1	decision	trialStart	2	69	9	foodImage.39	FOODEEG_Images\0367.jpg	YN	Left	Yes	0.640020200051367	0	295736	251
578.654296875	2	decision	foodImageDisplay	2	69	9	foodImage.39	FOODEEG_Images\0367.jpg	YN	Left	Yes	0.640020200051367	0	296272	252
580.71875	0.640020200051367	decision	choicePhaseStart	2	69	9	foodImage.39	FOODEEG_Images\0367.jpg	YN	Left	Yes	0.640020200051367	0	297329	253
581.349609375	0	decision	response	2	69	9	foodImage.39	FOODEEG_Images\0367.jpg	YN	Left	Yes	0.640020200051367	0	297652	234
582.390625	1	decision	trialStart	2	70	10	foodImage.69	FOODEEG_Images\0693.jpg	NY	Right	Yes	0.465314599918202	0	298185	251
583.451171875	2	decision	foodImageDisplay	2	70	10	foodImage.69	FOODEEG_Images\0693.jpg	NY	Right	Yes	0.465314599918202	0	298728	252
585.515625	0.465314599918202	decision	choicePhaseStart	2	70	10	foodImage.69	FOODEEG_Images\0693.jpg	NY	Right	Yes	0.465314599918202	0	299785	253
585.97265625	0	decision	response	2	70	10	foodImage.69	FOODEEG_Images\0693.jpg	NY	Right	Yes	0.465314599918202	0	300019	235
587.015625	1	taste	trialStart	2	71	11	foodImage.54	FOODEEG_Images\0560.jpg	YN	Left	Yes	0.478564899880439	0	300553	251
588.072265625	2	taste	foodImageDisplay	2	71	11	foodImage.54	FOODEEG_Images\0560.jpg	YN	Left	Yes	0.478564899880439	0	301094	252
590.134765625	0.478564899880439	taste	choicePhaseStart	2	71	11	foodImage.54	FOODEEG_Images\0560.jpg	YN	Left	Yes	0.478564899880439	0	302150	253
590.603515625	0	taste	response	2	71	11	foodImage.54	FOODEEG_Images\0560.jpg	YN	Left	Yes	0.478564899880439	0	302390	234
591.6484375	1	taste	trialStart	2	72	12	foodImage.1	FOODEEG_Images\0004.jpg	YN	Left	Yes	0.565292499959469	0	302925	251
592.689453125	2	taste	foodImageDisplay	2	72	12	foodImage.1	FOODEEG_Images\0004.jpg	YN	Left	Yes	0.565292499959469	0	303458	252
594.751953125	0.565292499959469	taste	choicePhaseStart	2	72	12	foodImage.1	FOODEEG_Images\0004.jpg	YN	Left	Yes	0.565292499959469	0	304514	253
595.30859375	0	taste	response	2	72	12	foodImage.1	FOODEEG_Images\0004.jpg	YN	Left	Yes	0.565292499959469	0	304799	234
596.3515625	1	decision	trialStart	2	73	13	foodImage.36	FOODEEG_Images\0352.jpg	YN	Right	No	0.642284400062636	0	305333	251
597.4140625	2	decision	foodImageDisplay	2	73	13	foodImage.36	FOODEEG_Images\0352.jpg	YN	Right	No	0.642284400062636	0	305877	252
599.4765625	0.642284400062636	decision	choicePhaseStart	2	73	13	foodImage.36	FOODEEG_Images\0352.jpg	YN	Right	No	0.642284400062636	0	306933	253
600.109375	0	decision	response	2	73	13	foodImage.36	FOODEEG_Images\0352.jpg	YN	Right	No	0.642284400062636	0	307257	235
601.15234375	1	health	trialStart	2	74	14	foodImage.68	FOODEEG_Images\0685.jpg	NY	Left	No	0.695520899957046	0	307791	251
602.228515625	2	health	foodImageDisplay	2	74	14	foodImage.68	FOODEEG_Images\0685.jpg	NY	Left	No	0.695520899957046	0	308342	252
604.291015625	0.695520899957046	health	choicePhaseStart	2	74	14	foodImage.68	FOODEEG_Images\0685.jpg	NY	Left	No	0.695520899957046	0	309398	253
604.98046875	0	health	response	2	74	14	foodImage.68	FOODEEG_Images\0685.jpg	NY	Left	No	0.695520899957046	0	309751	234
606.0234375	1	decision	trialStart	2	75	15	foodImage.72	FOODEEG_Images\0714.jpg	YN	Left	Yes	0.426165899960324	0	310285	251
607.064453125	2	decision	foodImageDisplay	2	75	15	foodImage.72	FOODEEG_Images\0714.jpg	YN	Left	Yes	0.426165899960324	0	310818	252
609.130859375	0.426165899960324	decision	choicePhaseStart	2	75	15	foodImage.72	FOODEEG_Images\0714.jpg	YN	Left	Yes	0.426165899960324	0	311876	253
609.546875	0	decision	response	2	75	15	foodImage.72	FOODEEG_Images\0714.jpg	YN	Left	Yes	0.426165899960324	0	312089	234
610.58984375	1	health	trialStart	2	76	16	foodImage.89	FOODEEG_Images\0881.jpg	YN	Left	Yes	0.594149299897254	0	312623	251
611.64453125	2	health	foodImageDisplay	2	76	16	foodImage.89	FOODEEG_Images\0881.jpg	YN	Left	Yes	0.594149299897254	0	313163	252
613.70703125	0.594149299897254	health	choicePhaseStart	2	76	16	foodImage.89	FOODEEG_Images\0881.jpg	YN	Left	Yes	0.594149299897254	0	314219	253
614.291015625	0	health	response	2	76	16	foodImage.89	FOODEEG_Images\0881.jpg	YN	Left	Yes	0.594149299897254	0	314518	234
615.3359375	1	taste	trialStart	2	77	17	foodImage.47	FOODEEG_Images\0488.jpg	NY	Right	Yes	0.541251600021496	0	315053	251
616.384765625	2	taste	foodImageDisplay	2	77	17	foodImage.47	FOODEEG_Images\0488.jpg	NY	Right	Yes	0.541251600021496	0	315590	252
618.447265625	0.541251600021496	taste	choicePhaseStart	2	77	17	foodImage.47	FOODEEG_Images\0488.jpg	NY	Right	Yes	0.541251600021496	0	316646	253
618.98046875	0	taste	response	2	77	17	foodImage.47	FOODEEG_Images\0488.jpg	NY	Right	Yes	0.541251600021496	0	316919	235
620.021484375	1	health	trialStart	2	78	18	foodImage.55	FOODEEG_Images\0567.jpg	NY	Right	Yes	0.614283100003377	0	317452	251
621.078125	2	health	foodImageDisplay	2	78	18	foodImage.55	FOODEEG_Images\0567.jpg	NY	Right	Yes	0.614283100003377	0	317993	252
623.140625	0.614283100003377	health	choicePhaseStart	2	78	18	foodImage.55	FOODEEG_Images\0567.jpg	NY	Right	Yes	0.614283100003377	0	319049	253
623.748046875	0	health	response	2	78	18	foodImage.55	FOODEEG_Images\0567.jpg	NY	Right	Yes	0.614283100003377	0	319360	235
624.791015625	1	health	trialStart	2	79	19	foodImage.50	FOODEEG_Images\0529.jpg	NY	Right	Yes	0.451792399864644	0	319894	251
625.849609375	2	health	foodImageDisplay	2	79	19	foodImage.50	FOODEEG_Images\0529.jpg	NY	Right	Yes	0.451792399864644	0	320436	252
627.912109375	0.451792399864644	health	choicePhaseStart	2	79	19	foodImage.50	FOODEEG_Images\0529.jpg	NY	Right	Yes	0.451792399864644	0	321492	253
628.35546875	0	health	response	2	79	19	foodImage.50	FOODEEG_Images\0529.jpg	NY	Right	Yes	0.451792399864644	0	321719	235
629.3984375	1	health	trialStart	2	80	20	foodImage.3	FOODEEG_Images\0046.jpg	NY	Left	No	0.894440999953076	0	322253	251
630.439453125	2	health	foodImageDisplay	2	80	20	foodImage.3	FOODEEG_Images\0046.jpg	NY	Left	No	0.894440999953076	0	322786	252
632.501953125	0.894440999953076	health	choicePhaseStart	2	80	20	foodImage.3	FOODEEG_Images\0046.jpg	NY	Left	No	0.894440999953076	0	323842	253
633.38671875	0	health	response	2	80	20	foodImage.3	FOODEEG_Images\0046.jpg	NY	Left	No	0.894440999953076	0	324295	234
634.4296875	1	taste	trialStart	2	81	21	foodImage.6	FOODEEG_Images\0113.jpg	YN	Left	Yes	1.06136729987338	0	324829	251
635.47265625	2	taste	foodImageDisplay	2	81	21	foodImage.6	FOODEEG_Images\0113.jpg	YN	Left	Yes	1.06136729987338	0	325363	252
637.53515625	1.06136729987338	taste	choicePhaseStart	2	81	21	foodImage.6	FOODEEG_Images\0113.jpg	YN	Left	Yes	1.06136729987338	0	326419	253
638.5859375	0	taste	response	2	81	21	foodImage.6	FOODEEG_Images\0113.jpg	YN	Left	Yes	1.06136729987338	0	326957	234
639.62890625	1	decision	trialStart	2	82	22	foodImage.65	FOODEEG_Images\0658.jpg	YN	Left	Yes	0.597830000100657	0	327491	251
640.67578125	2	decision	foodImageDisplay	2	82	22	foodImage.65	FOODEEG_Images\0658.jpg	YN	Left	Yes	0.597830000100657	0	328027	252
642.7421875	0.597830000100657	decision	choicePhaseStart	2	82	22	foodImage.65	FOODEEG_Images\0658.jpg	YN	Left	Yes	0.597830000100657	0	329085	253
643.330078125	0	decision	response	2	82	22	foodImage.65	FOODEEG_Images\0658.jpg	YN	Left	Yes	0.597830000100657	0	329386	234
644.376953125	1	health	trialStart	2	83	23	foodImage.99	FOODEEG_Images\0907.jpg	NY	Left	No	0.531555500114337	0	329922	251
645.4140625	2	health	foodImageDisplay	2	83	23	foodImage.99	FOODEEG_Images\0907.jpg	NY	Left	No	0.531555500114337	0	330453	252
647.4765625	0.531555500114337	health	choicePhaseStart	2	83	23	foodImage.99	FOODEEG_Images\0907.jpg	NY	Left	No	0.531555500114337	0	331509	253
648.001953125	0	health	response	2	83	23	foodImage.99	FOODEEG_Images\0907.jpg	NY	Left	No	0.531555500114337	0	331778	234
649.044921875	1	decision	trialStart	2	84	24	foodImage.31	FOODEEG_Images\0294.jpg	YN	Left	Yes	0.612618000013754	0	332312	251
650.087890625	2	decision	foodImageDisplay	2	84	24	foodImage.31	FOODEEG_Images\0294.jpg	YN	Left	Yes	0.612618000013754	0	332846	252
652.150390625	0.612618000013754	decision	choicePhaseStart	2	84	24	foodImage.31	FOODEEG_Images\0294.jpg	YN	Left	Yes	0.612618000013754	0	333902	253
652.75390625	0	decision	response	2	84	24	foodImage.31	FOODEEG_Images\0294.jpg	YN	Left	Yes	0.612618000013754	0	334211	234
653.802734375	1	decision	trialStart	2	85	25	foodImage.100	FOODEEG_Images\0908.jpg	NY	Right	Yes	0.640473600011319	0	334748	251
654.83984375	2	decision	foodImageDisplay	2	85	25	foodImage.100	FOODEEG_Images\0908.jpg	NY	Right	Yes	0.640473600011319	0	335279	252
656.904296875	0.640473600011319	decision	choicePhaseStart	2	85	25	foodImage.100	FOODEEG_Images\0908.jpg	NY	Right	Yes	0.640473600011319	0	336336	253
657.5390625	0	decision	response	2	85	25	foodImage.100	FOODEEG_Images\0908.jpg	NY	Right	Yes	0.640473600011319	0	336661	235
658.580078125	1	health	trialStart	2	86	26	foodImage.73	FOODEEG_Images\0717.jpg	NY	Right	Yes	0.531399999978021	0	337194	251
659.646484375	2	health	foodImageDisplay	2	86	26	foodImage.73	FOODEEG_Images\0717.jpg	NY	Right	Yes	0.531399999978021	0	337740	252
661.708984375	0.531399999978021	health	choicePhaseStart	2	86	26	foodImage.73	FOODEEG_Images\0717.jpg	NY	Right	Yes	0.531399999978021	0	338796	253
662.234375	0	health	response	2	86	26	foodImage.73	FOODEEG_Images\0717.jpg	NY	Right	Yes	0.531399999978021	0	339065	235
663.275390625	1	taste	trialStart	2	87	27	foodImage.65	FOODEEG_Images\0658.jpg	NY	Right	Yes	0.520757300080732	0	339598	251
664.31640625	2	taste	foodImageDisplay	2	87	27	foodImage.65	FOODEEG_Images\0658.jpg	NY	Right	Yes	0.520757300080732	0	340131	252
666.37890625	0.520757300080732	taste	choicePhaseStart	2	87	27	foodImage.65	FOODEEG_Images\0658.jpg	NY	Right	Yes	0.520757300080732	0	341187	253
666.890625	0	taste	response	2	87	27	foodImage.65	FOODEEG_Images\0658.jpg	NY	Right	Yes	0.520757300080732	0	341449	235
667.93359375	1	taste	trialStart	2	88	28	foodImage.20	FOODEEG_Images\0226.jpg	NY	Left	No	0.941181500209495	0	341983	251
668.974609375	2	taste	foodImageDisplay	2	88	28	foodImage.20	FOODEEG_Images\0226.jpg	NY	Left	No	0.941181500209495	0	342516	252
671.037109375	0.941181500209495	taste	choicePhaseStart	2	88	28	foodImage.20	FOODEEG_Images\0226.jpg	NY	Left	No	0.941181500209495	0	343572	253
671.96875	0	taste	response	2	88	28	foodImage.20	FOODEEG_Images\0226.jpg	NY	Left	No	0.941181500209495	0	344049	234
673.013671875	1	health	trialStart	2	89	29	foodImage.79	FOODEEG_Images\0794.jpg	NY	Right	Yes	0.538040600018576	0	344584	251
674.056640625	2	health	foodImageDisplay	2	89	29	foodImage.79	FOODEEG_Images\0794.jpg	NY	Right	Yes	0.538040600018576	0	345118	252
676.12109375	0.538040600018576	health	choicePhaseStart	2	89	29	foodImage.79	FOODEEG_Images\0794.jpg	NY	Right	Yes	0.538040600018576	0	346175	253
676.6484375	0	health	response	2	89	29	foodImage.79	FOODEEG_Images\0794.jpg	NY	Right	Yes	0.538040600018576	0	346445	235
677.689453125	1	decision	trialStart	2	90	30	foodImage.19	FOODEEG_Images\0225.jpg	YN	Left	Yes	1.03590619983152	0	346978	251
678.732421875	2	decision	foodImageDisplay	2	90	30	foodImage.19	FOODEEG_Images\0225.jpg	YN	Left	Yes	1.03590619983152	0	347512	252
680.794921875	1.03590619983152	decision	choicePhaseStart	2	90	30	foodImage.19	FOODEEG_Images\0225.jpg	YN	Left	Yes	1.03590619983152	0	348568	253
681.826171875	0	decision	response	2	90	30	foodImage.19	FOODEEG_Images\0225.jpg	YN	Left	Yes	1.03590619983152	0	349096	234
682.869140625	1	decision	trialStart	2	91	31	foodImage.24	FOODEEG_Images\0250.jpg	YN	Left	Yes	0.566935299895704	0	349630	251
683.908203125	2	decision	foodImageDisplay	2	91	31	foodImage.24	FOODEEG_Images\0250.jpg	YN	Left	Yes	0.566935299895704	0	350162	252
685.97265625	0.566935299895704	decision	choicePhaseStart	2	91	31	foodImage.24	FOODEEG_Images\0250.jpg	YN	Left	Yes	0.566935299895704	0	351219	253
686.529296875	0	decision	response	2	91	31	foodImage.24	FOODEEG_Images\0250.jpg	YN	Left	Yes	0.566935299895704	0	351504	234
687.572265625	1	decision	trialStart	2	92	32	foodImage.44	FOODEEG_Images\0459.jpg	YN	Left	Yes	0.627232699887827	0	352038	251
688.640625	2	decision	foodImageDisplay	2	92	32	foodImage.44	FOODEEG_Images\0459.jpg	YN	Left	Yes	0.627232699887827	0	352585	252
690.703125	0.627232699887827	decision	choicePhaseStart	2	92	32	foodImage.44	FOODEEG_Images\0459.jpg	YN	Left	Yes	0.627232699887827	0	353641	253
691.3203125	0	decision	response	2	92	32	foodImage.44	FOODEEG_Images\0459.jpg	YN	Left	Yes	0.627232699887827	0	353957	234
692.36328125	1	taste	trialStart	2	93	33	foodImage.55	FOODEEG_Images\0567.jpg	NY	Right	Yes	0.560297999996692	0	354491	251
693.419921875	2	taste	foodImageDisplay	2	93	33	foodImage.55	FOODEEG_Images\0567.jpg	NY	Right	Yes	0.560297999996692	0	355032	252
695.482421875	0.560297999996692	taste	choicePhaseStart	2	93	33	foodImage.55	FOODEEG_Images\0567.jpg	NY	Right	Yes	0.560297999996692	0	356088	253
696.033203125	0	taste	response	2	93	33	foodImage.55	FOODEEG_Images\0567.jpg	NY	Right	Yes	0.560297999996692	0	356370	235
697.076171875	1	health	trialStart	2	94	34	foodImage.52	FOODEEG_Images\0539.jpg	NY	Right	Yes	0.948546500178054	0	356904	251
698.1328125	2	health	foodImageDisplay	2	94	34	foodImage.52	FOODEEG_Images\0539.jpg	NY	Right	Yes	0.948546500178054	0	357445	252
700.197265625	0.948546500178054	health	choicePhaseStart	2	94	34	foodImage.52	FOODEEG_Images\0539.jpg	NY	Right	Yes	0.948546500178054	0	358502	253
701.13671875	0	health	response	2	94	34	foodImage.52	FOODEEG_Images\0539.jpg	NY	Right	Yes	0.948546500178054	0	358983	235
702.1796875	1	health	trialStart	2	95	35	foodImage.65	FOODEEG_Images\0658.jpg	YN	Left	Yes	0.686660399893299	0	359517	251
703.220703125	2	health	foodImageDisplay	2	95	35	foodImage.65	FOODEEG_Images\0658.jpg	YN	Left	Yes	0.686660399893299	0	360050	252
705.283203125	0.686660399893299	health	choicePhaseStart	2	95	35	foodImage.65	FOODEEG_Images\0658.jpg	YN	Left	Yes	0.686660399893299	0	361106	253
705.958984375	0	health	response	2	95	35	foodImage.65	FOODEEG_Images\0658.jpg	YN	Left	Yes	0.686660399893299	0	361452	234
707.0078125	1	health	trialStart	2	96	36	foodImage.35	FOODEEG_Images\0350.jpg	YN	Left	Yes	0.692260900046676	0	361989	251
708.046875	2	health	foodImageDisplay	2	96	36	foodImage.35	FOODEEG_Images\0350.jpg	YN	Left	Yes	0.692260900046676	0	362521	252
710.115234375	0.692260900046676	health	choicePhaseStart	2	96	36	foodImage.35	FOODEEG_Images\0350.jpg	YN	Left	Yes	0.692260900046676	0	363580	253
710.80078125	0	health	response	2	96	36	foodImage.35	FOODEEG_Images\0350.jpg	YN	Left	Yes	0.692260900046676	0	363931	234
711.84375	1	decision	trialStart	2	97	37	foodImage.33	FOODEEG_Images\0329.jpg	YN	Left	Yes	0.458406599937007	0	364465	251
712.88671875	2	decision	foodImageDisplay	2	97	37	foodImage.33	FOODEEG_Images\0329.jpg	YN	Left	Yes	0.458406599937007	0	364999	252
714.94921875	0.458406599937007	decision	choicePhaseStart	2	97	37	foodImage.33	FOODEEG_Images\0329.jpg	YN	Left	Yes	0.458406599937007	0	366055	253
715.400390625	0	decision	response	2	97	37	foodImage.33	FOODEEG_Images\0329.jpg	YN	Left	Yes	0.458406599937007	0	366286	234
716.439453125	1	health	trialStart	2	98	38	foodImage.49	FOODEEG_Images\0515.jpg	YN	Left	Yes	0.521619099890813	0	366818	251
717.48046875	2	health	foodImageDisplay	2	98	38	foodImage.49	FOODEEG_Images\0515.jpg	YN	Left	Yes	0.521619099890813	0	367351	252
719.54296875	0.521619099890813	health	choicePhaseStart	2	98	38	foodImage.49	FOODEEG_Images\0515.jpg	YN	Left	Yes	0.521619099890813	0	368407	253
720.056640625	0	health	response	2	98	38	foodImage.49	FOODEEG_Images\0515.jpg	YN	Left	Yes	0.521619099890813	0	368670	234
721.10546875	1	decision	trialStart	2	99	39	foodImage.12	FOODEEG_Images\0181.jpg	NY	Right	Yes	0.550996500067413	0	369207	251
722.146484375	2	decision	foodImageDisplay	2	99	39	foodImage.12	FOODEEG_Images\0181.jpg	NY	Right	Yes	0.550996500067413	0	369740	252
724.208984375	0.550996500067413	decision	choicePhaseStart	2	99	39	foodImage.12	FOODEEG_Images\0181.jpg	NY	Right	Yes	0.550996500067413	0	370796	253
724.751953125	0	decision	response	2	99	39	foodImage.12	FOODEEG_Images\0181.jpg	NY	Right	Yes	0.550996500067413	0	371074	235
725.794921875	1	decision	trialStart	2	100	40	foodImage.5	FOODEEG_Images\0107.jpg	YN	Left	Yes	0.38651270000264	0	371608	251
726.86328125	2	decision	foodImageDisplay	2	100	40	foodImage.5	FOODEEG_Images\0107.jpg	YN	Left	Yes	0.38651270000264	0	372155	252
728.92578125	0.38651270000264	decision	choicePhaseStart	2	100	40	foodImage.5	FOODEEG_Images\0107.jpg	YN	Left	Yes	0.38651270000264	0	373211	253
729.302734375	0	decision	response	2	100	40	foodImage.5	FOODEEG_Images\0107.jpg	YN	Left	Yes	0.38651270000264	0	373404	234
730.345703125	1	decision	trialStart	2	101	41	foodImage.11	FOODEEG_Images\0180.jpg	NY	Left	No	0.562159799970686	0	373938	251
731.396484375	2	decision	foodImageDisplay	2	101	41	foodImage.11	FOODEEG_Images\0180.jpg	NY	Left	No	0.562159799970686	0	374476	252
733.462890625	0.562159799970686	decision	choicePhaseStart	2	101	41	foodImage.11	FOODEEG_Images\0180.jpg	NY	Left	No	0.562159799970686	0	375534	253
734.015625	0	decision	response	2	101	41	foodImage.11	FOODEEG_Images\0180.jpg	NY	Left	No	0.562159799970686	0	375817	234
735.056640625	1	taste	trialStart	2	102	42	foodImage.102	FOODEEG_Images\0910.jpg	NY	Left	No	0.599324499955401	0	376350	251
736.09375	2	taste	foodImageDisplay	2	102	42	foodImage.102	FOODEEG_Images\0910.jpg	NY	Left	No	0.599324499955401	0	376881	252
738.158203125	0.599324499955401	taste	choicePhaseStart	2	102	42	foodImage.102	FOODEEG_Images\0910.jpg	NY	Left	No	0.599324499955401	0	377938	253
738.751953125	0	taste	response	2	102	42	foodImage.102	FOODEEG_Images\0910.jpg	NY	Left	No	0.599324499955401	0	378242	234
739.796875	1	decision	trialStart	2	103	43	foodImage.37	FOODEEG_Images\0359.jpg	NY	Left	No	0.483549199998379	0	378777	251
740.837890625	2	decision	foodImageDisplay	2	103	43	foodImage.37	FOODEEG_Images\0359.jpg	NY	Left	No	0.483549199998379	0	379310	252
742.900390625	0.483549199998379	decision	choicePhaseStart	2	103	43	foodImage.37	FOODEEG_Images\0359.jpg	NY	Left	No	0.483549199998379	0	380366	253
743.375	0	decision	response	2	103	43	foodImage.37	FOODEEG_Images\0359.jpg	NY	Left	No	0.483549199998379	0	380609	234
744.416015625	1	health	trialStart	2	104	44	foodImage.69	FOODEEG_Images\0693.jpg	NY	Right	Yes	0.861163399880752	0	381142	251
745.458984375	2	health	foodImageDisplay	2	104	44	foodImage.69	FOODEEG_Images\0693.jpg	NY	Right	Yes	0.861163399880752	0	381676	252
747.521484375	0.861163399880752	health	choicePhaseStart	2	104	44	foodImage.69	FOODEEG_Images\0693.jpg	NY	Right	Yes	0.861163399880752	0	382732	253
748.375	0	health	response	2	104	44	foodImage.69	FOODEEG_Images\0693.jpg	NY	Right	Yes	0.861163399880752	0	383169	235
749.416015625	1	taste	trialStart	2	105	45	foodImage.35	FOODEEG_Images\0350.jpg	NY	Right	Yes	0.744557100115344	0	383702	251
750.45703125	2	taste	foodImageDisplay	2	105	45	foodImage.35	FOODEEG_Images\0350.jpg	NY	Right	Yes	0.744557100115344	0	384235	252
752.51953125	0.744557100115344	taste	choicePhaseStart	2	105	45	foodImage.35	FOODEEG_Images\0350.jpg	NY	Right	Yes	0.744557100115344	0	385291	253
753.25390625	0	taste	response	2	105	45	foodImage.35	FOODEEG_Images\0350.jpg	NY	Right	Yes	0.744557100115344	0	385667	235
754.294921875	1	health	trialStart	2	106	46	foodImage.59	FOODEEG_Images\0607.jpg	YN	Left	Yes	0.803589700022712	0	386200	251
755.341796875	2	health	foodImageDisplay	2	106	46	foodImage.59	FOODEEG_Images\0607.jpg	YN	Left	Yes	0.803589700022712	0	386736	252
757.404296875	0.803589700022712	health	choicePhaseStart	2	106	46	foodImage.59	FOODEEG_Images\0607.jpg	YN	Left	Yes	0.803589700022712	0	387792	253
758.19921875	0	health	response	2	106	46	foodImage.59	FOODEEG_Images\0607.jpg	YN	Left	Yes	0.803589700022712	0	388199	234
759.240234375	1	decision	trialStart	2	107	47	foodImage.8	FOODEEG_Images\0136.jpg	YN	Left	Yes	0.525075199780986	0	388732	251
760.283203125	2	decision	foodImageDisplay	2	107	47	foodImage.8	FOODEEG_Images\0136.jpg	YN	Left	Yes	0.525075199780986	0	389266	252
762.345703125	0.525075199780986	decision	choicePhaseStart	2	107	47	foodImage.8	FOODEEG_Images\0136.jpg	YN	Left	Yes	0.525075199780986	0	390322	253
762.861328125	0	decision	response	2	107	47	foodImage.8	FOODEEG_Images\0136.jpg	YN	Left	Yes	0.525075199780986	0	390586	234
763.904296875	1	decision	trialStart	2	108	48	foodImage.119	FOODEEG_Images\0927.jpg	YN	Right	No	0.841978600015864	0	391120	251
764.943359375	2	decision	foodImageDisplay	2	108	48	foodImage.119	FOODEEG_Images\0927.jpg	YN	Right	No	0.841978600015864	0	391652	252
767.005859375	0.841978600015864	decision	choicePhaseStart	2	108	48	foodImage.119	FOODEEG_Images\0927.jpg	YN	Right	No	0.841978600015864	0	392708	253
767.837890625	0	decision	response	2	108	48	foodImage.119	FOODEEG_Images\0927.jpg	YN	Right	No	0.841978600015864	0	393134	235
768.8828125	1	decision	trialStart	2	109	49	foodImage.56	FOODEEG_Images\0586.jpg	YN	Left	Yes	0.522225300082937	0	393669	251
769.923828125	2	decision	foodImageDisplay	2	109	49	foodImage.56	FOODEEG_Images\0586.jpg	YN	Left	Yes	0.522225300082937	0	394202	252
771.98828125	0.522225300082937	decision	choicePhaseStart	2	109	49	foodImage.56	FOODEEG_Images\0586.jpg	YN	Left	Yes	0.522225300082937	0	395259	253
772.501953125	0	decision	response	2	109	49	foodImage.56	FOODEEG_Images\0586.jpg	YN	Left	Yes	0.522225300082937	0	395522	234
773.544921875	1	health	trialStart	2	110	50	foodImage.2	FOODEEG_Images\0028.jpg	NY	Right	Yes	0.615104999858886	0	396056	251
774.5859375	2	health	foodImageDisplay	2	110	50	foodImage.2	FOODEEG_Images\0028.jpg	NY	Right	Yes	0.615104999858886	0	396589	252
776.6484375	0.615104999858886	health	choicePhaseStart	2	110	50	foodImage.2	FOODEEG_Images\0028.jpg	NY	Right	Yes	0.615104999858886	0	397645	253
777.25390625	0	health	response	2	110	50	foodImage.2	FOODEEG_Images\0028.jpg	NY	Right	Yes	0.615104999858886	0	397955	235
778.294921875	1	health	trialStart	2	111	51	foodImage.76	FOODEEG_Images\0766.jpg	NY	Right	Yes	0.467856799950823	0	398488	251
779.33984375	2	health	foodImageDisplay	2	111	51	foodImage.76	FOODEEG_Images\0766.jpg	NY	Right	Yes	0.467856799950823	0	399023	252
781.40234375	0.467856799950823	health	choicePhaseStart	2	111	51	foodImage.76	FOODEEG_Images\0766.jpg	NY	Right	Yes	0.467856799950823	0	400079	253
781.861328125	0	health	response	2	111	51	foodImage.76	FOODEEG_Images\0766.jpg	NY	Right	Yes	0.467856799950823	0	400314	235
782.904296875	1	taste	trialStart	2	112	52	foodImage.69	FOODEEG_Images\0693.jpg	YN	Left	Yes	0.61804259987548	0	400848	251
783.9453125	2	taste	foodImageDisplay	2	112	52	foodImage.69	FOODEEG_Images\0693.jpg	YN	Left	Yes	0.61804259987548	0	401381	252
786.009765625	0.61804259987548	taste	choicePhaseStart	2	112	52	foodImage.69	FOODEEG_Images\0693.jpg	YN	Left	Yes	0.61804259987548	0	402438	253
786.62109375	0	taste	response	2	112	52	foodImage.69	FOODEEG_Images\0693.jpg	YN	Left	Yes	0.61804259987548	0	402751	234
787.6640625	1	taste	trialStart	2	113	53	foodImage.51	FOODEEG_Images\0536.jpg	NY	Right	Yes	0.964408200001344	0	403285	251
788.70703125	2	taste	foodImageDisplay	2	113	53	foodImage.51	FOODEEG_Images\0536.jpg	NY	Right	Yes	0.964408200001344	0	403819	252
790.775390625	0.964408200001344	taste	choicePhaseStart	2	113	53	foodImage.51	FOODEEG_Images\0536.jpg	NY	Right	Yes	0.964408200001344	0	404878	253
791.732421875	0	taste	response	2	113	53	foodImage.51	FOODEEG_Images\0536.jpg	NY	Right	Yes	0.964408200001344	0	405368	235
792.775390625	1	taste	trialStart	2	114	54	foodImage.18	FOODEEG_Images\0202.jpg	YN	Left	Yes	0.429173300042748	0	405902	251
793.833984375	2	taste	foodImageDisplay	2	114	54	foodImage.18	FOODEEG_Images\0202.jpg	YN	Left	Yes	0.429173300042748	0	406444	252
795.896484375	0.429173300042748	taste	choicePhaseStart	2	114	54	foodImage.18	FOODEEG_Images\0202.jpg	YN	Left	Yes	0.429173300042748	0	407500	253
796.31640625	0	taste	response	2	114	54	foodImage.18	FOODEEG_Images\0202.jpg	YN	Left	Yes	0.429173300042748	0	407715	234
797.359375	1	decision	trialStart	2	115	55	foodImage.88	FOODEEG_Images\0878.jpg	NY	Right	Yes	1.03811610001139	0	408249	251
798.44140625	2	decision	foodImageDisplay	2	115	55	foodImage.88	FOODEEG_Images\0878.jpg	NY	Right	Yes	1.03811610001139	0	408803	252
800.50390625	1.03811610001139	decision	choicePhaseStart	2	115	55	foodImage.88	FOODEEG_Images\0878.jpg	NY	Right	Yes	1.03811610001139	0	409859	253
801.533203125	0	decision	response	2	115	55	foodImage.88	FOODEEG_Images\0878.jpg	NY	Right	Yes	1.03811610001139	0	410386	235
802.57421875	1	health	trialStart	2	116	56	foodImage.95	FOODEEG_Images\0903.jpg	NY	Left	No	1.13360669999383	0	410919	251
803.615234375	2	health	foodImageDisplay	2	116	56	foodImage.95	FOODEEG_Images\0903.jpg	NY	Left	No	1.13360669999383	0	411452	252
805.677734375	1.13360669999383	health	choicePhaseStart	2	116	56	foodImage.95	FOODEEG_Images\0903.jpg	NY	Left	No	1.13360669999383	0	412508	253
806.8046875	0	health	response	2	116	56	foodImage.95	FOODEEG_Images\0903.jpg	NY	Left	No	1.13360669999383	0	413085	234
807.84765625	1	decision	trialStart	2	117	57	foodImage.7	FOODEEG_Images\0116.jpg	YN	Left	Yes	0.588406100170687	0	413619	251
808.888671875	2	decision	foodImageDisplay	2	117	57	foodImage.7	FOODEEG_Images\0116.jpg	YN	Left	Yes	0.588406100170687	0	414152	252
810.953125	0.588406100170687	decision	choicePhaseStart	2	117	57	foodImage.7	FOODEEG_Images\0116.jpg	YN	Left	Yes	0.588406100170687	0	415209	253
811.53125	0	decision	response	2	117	57	foodImage.7	FOODEEG_Images\0116.jpg	YN	Left	Yes	0.588406100170687	0	415505	234
812.572265625	1	decision	trialStart	2	118	58	foodImage.116	FOODEEG_Images\0924.jpg	YN	Right	No	0.685701899928972	0	416038	251
813.609375	2	decision	foodImageDisplay	2	118	58	foodImage.116	FOODEEG_Images\0924.jpg	YN	Right	No	0.685701899928972	0	416569	252
815.677734375	0.685701899928972	decision	choicePhaseStart	2	118	58	foodImage.116	FOODEEG_Images\0924.jpg	YN	Right	No	0.685701899928972	0	417628	253
816.35546875	0	decision	response	2	118	58	foodImage.116	FOODEEG_Images\0924.jpg	YN	Right	No	0.685701899928972	0	417975	235
817.396484375	1	decision	trialStart	2	119	59	foodImage.89	FOODEEG_Images\0881.jpg	NY	Right	Yes	0.604184200055897	0	418508	251
818.451171875	2	decision	foodImageDisplay	2	119	59	foodImage.89	FOODEEG_Images\0881.jpg	NY	Right	Yes	0.604184200055897	0	419048	252
820.513671875	0.604184200055897	decision	choicePhaseStart	2	119	59	foodImage.89	FOODEEG_Images\0881.jpg	NY	Right	Yes	0.604184200055897	0	420104	253
821.107421875	0	decision	response	2	119	59	foodImage.89	FOODEEG_Images\0881.jpg	NY	Right	Yes	0.604184200055897	0	420408	235
822.15234375	1	decision	trialStart	2	120	60	foodImage.47	FOODEEG_Images\0488.jpg	NY	Right	Yes	0.721209299983457	0	420943	251
823.1953125	2	decision	foodImageDisplay	2	120	60	foodImage.47	FOODEEG_Images\0488.jpg	NY	Right	Yes	0.721209299983457	0	421477	252
825.2578125	0.721209299983457	decision	choicePhaseStart	2	120	60	foodImage.47	FOODEEG_Images\0488.jpg	NY	Right	Yes	0.721209299983457	0	422533	253
825.970703125	0	decision	response	2	120	60	foodImage.47	FOODEEG_Images\0488.jpg	NY	Right	Yes	0.721209299983457	0	422898	235
828.015625	11.505859375	n/a	blockEnd	n/a	n/a	n/a	n/a	n/a	n/a	n/a	n/a	n/a	n/a	423945	254
839.521484375	2	n/a	blockStart	3	n/a	n/a	n/a	n/a	n/a	n/a	n/a	n/a	n/a	429836	250
841.552734375	1	decision	trialStart	3	121	1	foodImage.82	FOODEEG_Images\0805.jpg	NY	Right	Yes	0.781959199812263	0	430876	251
842.60546875	2	decision	foodImageDisplay	3	121	1	foodImage.82	FOODEEG_Images\0805.jpg	NY	Right	Yes	0.781959199812263	0	431415	252
844.669921875	0.781959199812263	decision	choicePhaseStart	3	121	1	foodImage.82	FOODEEG_Images\0805.jpg	NY	Right	Yes	0.781959199812263	0	432472	253
845.443359375	0	decision	response	3	121	1	foodImage.82	FOODEEG_Images\0805.jpg	NY	Right	Yes	0.781959199812263	0	432868	235
846.484375	1	health	trialStart	3	122	2	foodImage.108	FOODEEG_Images\0916.jpg	YN	Left	Yes	0.552917100023478	0	433401	251
847.521484375	2	health	foodImageDisplay	3	122	2	foodImage.108	FOODEEG_Images\0916.jpg	YN	Left	Yes	0.552917100023478	0	433932	252
849.5859375	0.552917100023478	health	choicePhaseStart	3	122	2	foodImage.108	FOODEEG_Images\0916.jpg	YN	Left	Yes	0.552917100023478	0	434989	253
850.130859375	0	health	response	3	122	2	foodImage.108	FOODEEG_Images\0916.jpg	YN	Left	Yes	0.552917100023478	0	435268	234
851.173828125	1	health	trialStart	3	123	3	foodImage.40	FOODEEG_Images\0373.jpg	YN	Right	No	0.876860700082034	0	435802	251
852.21484375	2	health	foodImageDisplay	3	123	3	foodImage.40	FOODEEG_Images\0373.jpg	YN	Right	No	0.876860700082034	0	436335	252
854.279296875	0.876860700082034	health	choicePhaseStart	3	123	3	foodImage.40	FOODEEG_Images\0373.jpg	YN	Right	No	0.876860700082034	0	437392	253
855.146484375	0	health	response	3	123	3	foodImage.40	FOODEEG_Images\0373.jpg	YN	Right	No	0.876860700082034	0	437836	235
856.1875	1	decision	trialStart	3	124	4	foodImage.95	FOODEEG_Images\0903.jpg	NY	Left	No	0.854917900171131	0	438369	251
857.2265625	2	decision	foodImageDisplay	3	124	4	foodImage.95	FOODEEG_Images\0903.jpg	NY	Left	No	0.854917900171131	0	438901	252
859.29296875	0.854917900171131	decision	choicePhaseStart	3	124	4	foodImage.95	FOODEEG_Images\0903.jpg	NY	Left	No	0.854917900171131	0	439959	253
860.138671875	0	decision	response	3	124	4	foodImage.95	FOODEEG_Images\0903.jpg	NY	Left	No	0.854917900171131	0	440392	234
861.181640625	1	taste	trialStart	3	125	5	foodImage.24	FOODEEG_Images\0250.jpg	YN	Left	Yes	0.444484200095758	0	440926	251
862.22265625	2	taste	foodImageDisplay	3	125	5	foodImage.24	FOODEEG_Images\0250.jpg	YN	Left	Yes	0.444484200095758	0	441459	252
864.287109375	0.444484200095758	taste	choicePhaseStart	3	125	5	foodImage.24	FOODEEG_Images\0250.jpg	YN	Left	Yes	0.444484200095758	0	442516	253
864.72265625	0	taste	response	3	125	5	foodImage.24	FOODEEG_Images\0250.jpg	YN	Left	Yes	0.444484200095758	0	442739	234
865.765625	1	taste	trialStart	3	126	6	foodImage.25	FOODEEG_Images\0261.jpg	NY	Right	Yes	0.491624400019646	0	443273	251
866.8046875	2	taste	foodImageDisplay	3	126	6	foodImage.25	FOODEEG_Images\0261.jpg	NY	Right	Yes	0.491624400019646	0	443805	252
868.87109375	0.491624400019646	taste	choicePhaseStart	3	126	6	foodImage.25	FOODEEG_Images\0261.jpg	NY	Right	Yes	0.491624400019646	0	444863	253
869.353515625	0	taste	response	3	126	6	foodImage.25	FOODEEG_Images\0261.jpg	NY	Right	Yes	0.491624400019646	0	445110	235
870.396484375	1	taste	trialStart	3	127	7	foodImage.106	FOODEEG_Images\0914.jpg	YN	Left	Yes	0.479602399980649	0	445644	251
871.435546875	2	taste	foodImageDisplay	3	127	7	foodImage.106	FOODEEG_Images\0914.jpg	YN	Left	Yes	0.479602399980649	0	446176	252
873.498046875	0.479602399980649	taste	choicePhaseStart	3	127	7	foodImage.106	FOODEEG_Images\0914.jpg	YN	Left	Yes	0.479602399980649	0	447232	253
873.96875	0	taste	response	3	127	7	foodImage.106	FOODEEG_Images\0914.jpg	YN	Left	Yes	0.479602399980649	0	447473	234
875.01171875	1	decision	trialStart	3	128	8	foodImage.30	FOODEEG_Images\0282.jpg	YN	Left	Yes	0.53539379988797	0	448007	251
876.068359375	2	decision	foodImageDisplay	3	128	8	foodImage.30	FOODEEG_Images\0282.jpg	YN	Left	Yes	0.53539379988797	0	448548	252
878.1328125	0.53539379988797	decision	choicePhaseStart	3	128	8	foodImage.30	FOODEEG_Images\0282.jpg	YN	Left	Yes	0.53539379988797	0	449605	253
878.658203125	0	decision	response	3	128	8	foodImage.30	FOODEEG_Images\0282.jpg	YN	Left	Yes	0.53539379988797	0	449874	234
879.701171875	1	health	trialStart	3	129	9	foodImage.26	FOODEEG_Images\0262.jpg	YN	Left	Yes	0.661157299997285	0	450408	251
880.75	2	health	foodImageDisplay	3	129	9	foodImage.26	FOODEEG_Images\0262.jpg	YN	Left	Yes	0.661157299997285	0	450945	252
882.8125	0.661157299997285	health	choicePhaseStart	3	129	9	foodImage.26	FOODEEG_Images\0262.jpg	YN	Left	Yes	0.661157299997285	0	452001	253
883.46484375	0	health	response	3	129	9	foodImage.26	FOODEEG_Images\0262.jpg	YN	Left	Yes	0.661157299997285	0	452335	234
884.505859375	1	decision	trialStart	3	130	10	foodImage.53	FOODEEG_Images\0547.jpg	NY	Right	Yes	0.464989700121805	0	452868	251
885.568359375	2	decision	foodImageDisplay	3	130	10	foodImage.53	FOODEEG_Images\0547.jpg	NY	Right	Yes	0.464989700121805	0	453412	252
887.6328125	0.464989700121805	decision	choicePhaseStart	3	130	10	foodImage.53	FOODEEG_Images\0547.jpg	NY	Right	Yes	0.464989700121805	0	454469	253
888.08984375	0	decision	response	3	130	10	foodImage.53	FOODEEG_Images\0547.jpg	NY	Right	Yes	0.464989700121805	0	454703	235
889.130859375	1	health	trialStart	3	131	11	foodImage.70	FOODEEG_Images\0705.jpg	YN	Left	Yes	0.486764899920672	0	455236	251
890.1875	2	health	foodImageDisplay	3	131	11	foodImage.70	FOODEEG_Images\0705.jpg	YN	Left	Yes	0.486764899920672	0	455777	252
892.25	0.486764899920672	health	choicePhaseStart	3	131	11	foodImage.70	FOODEEG_Images\0705.jpg	YN	Left	Yes	0.486764899920672	0	456833	253
892.728515625	0	health	response	3	131	11	foodImage.70	FOODEEG_Images\0705.jpg	YN	Left	Yes	0.486764899920672	0	457078	234
893.771484375	1	taste	trialStart	3	132	12	foodImage.111	FOODEEG_Images\0919.jpg	NY	Left	No	0.641876599984244	0	457612	251
894.81640625	2	taste	foodImageDisplay	3	132	12	foodImage.111	FOODEEG_Images\0919.jpg	NY	Left	No	0.641876599984244	0	458147	252
896.884765625	0.641876599984244	taste	choicePhaseStart	3	132	12	foodImage.111	FOODEEG_Images\0919.jpg	NY	Left	No	0.641876599984244	0	459206	253
897.521484375	0	taste	response	3	132	12	foodImage.111	FOODEEG_Images\0919.jpg	NY	Left	No	0.641876599984244	0	459532	234
898.564453125	1	health	trialStart	3	133	13	foodImage.75	FOODEEG_Images\0763.jpg	YN	Left	Yes	0.679882199969143	0	460066	251
899.609375	2	health	foodImageDisplay	3	133	13	foodImage.75	FOODEEG_Images\0763.jpg	YN	Left	Yes	0.679882199969143	0	460601	252
901.673828125	0.679882199969143	health	choicePhaseStart	3	133	13	foodImage.75	FOODEEG_Images\0763.jpg	YN	Left	Yes	0.679882199969143	0	461658	253
902.34375	0	health	response	3	133	13	foodImage.75	FOODEEG_Images\0763.jpg	YN	Left	Yes	0.679882199969143	0	462001	234
903.388671875	1	health	trialStart	3	134	14	foodImage.92	FOODEEG_Images\0900.jpg	NY	Left	No	0.583512800047174	0	462536	251
904.42578125	2	health	foodImageDisplay	3	134	14	foodImage.92	FOODEEG_Images\0900.jpg	NY	Left	No	0.583512800047174	0	463067	252
906.490234375	0.583512800047174	health	choicePhaseStart	3	134	14	foodImage.92	FOODEEG_Images\0900.jpg	NY	Left	No	0.583512800047174	0	464124	253
907.064453125	0	health	response	3	134	14	foodImage.92	FOODEEG_Images\0900.jpg	NY	Left	No	0.583512800047174	0	464418	234
908.109375	1	health	trialStart	3	135	15	foodImage.53	FOODEEG_Images\0547.jpg	NY	Left	No	0.786565499845892	0	464953	251
909.166015625	2	health	foodImageDisplay	3	135	15	foodImage.53	FOODEEG_Images\0547.jpg	NY	Left	No	0.786565499845892	0	465494	252
911.23046875	0.786565499845892	health	choicePhaseStart	3	135	15	foodImage.53	FOODEEG_Images\0547.jpg	NY	Left	No	0.786565499845892	0	466551	253
912.0078125	0	health	response	3	135	15	foodImage.53	FOODEEG_Images\0547.jpg	NY	Left	No	0.786565499845892	0	466949	234
913.046875	1	taste	trialStart	3	136	16	foodImage.58	FOODEEG_Images\0605.jpg	NY	Right	Yes	0.612751299981028	0	467481	251
914.111328125	2	taste	foodImageDisplay	3	136	16	foodImage.58	FOODEEG_Images\0605.jpg	NY	Right	Yes	0.612751299981028	0	468026	252
916.173828125	0.612751299981028	taste	choicePhaseStart	3	136	16	foodImage.58	FOODEEG_Images\0605.jpg	NY	Right	Yes	0.612751299981028	0	469082	253
916.775390625	0	taste	response	3	136	16	foodImage.58	FOODEEG_Images\0605.jpg	NY	Right	Yes	0.612751299981028	0	469390	235
917.818359375	1	health	trialStart	3	137	17	foodImage.60	FOODEEG_Images\0614.jpg	NY	Right	Yes	0.478362000081688	0	469924	251
918.900390625	2	health	foodImageDisplay	3	137	17	foodImage.60	FOODEEG_Images\0614.jpg	NY	Right	Yes	0.478362000081688	0	470478	252
920.962890625	0.478362000081688	health	choicePhaseStart	3	137	17	foodImage.60	FOODEEG_Images\0614.jpg	NY	Right	Yes	0.478362000081688	0	471534	253
921.431640625	0	health	response	3	137	17	foodImage.60	FOODEEG_Images\0614.jpg	NY	Right	Yes	0.478362000081688	0	471774	235
922.474609375	1	health	trialStart	3	138	18	foodImage.41	FOODEEG_Images\0409.jpg	YN	Left	Yes	0.518187399953604	0	472308	251
923.521484375	2	health	foodImageDisplay	3	138	18	foodImage.41	FOODEEG_Images\0409.jpg	YN	Left	Yes	0.518187399953604	0	472844	252
925.5859375	0.518187399953604	health	choicePhaseStart	3	138	18	foodImage.41	FOODEEG_Images\0409.jpg	YN	Left	Yes	0.518187399953604	0	473901	253
926.095703125	0	health	response	3	138	18	foodImage.41	FOODEEG_Images\0409.jpg	YN	Left	Yes	0.518187399953604	0	474162	234
927.134765625	1	taste	trialStart	3	139	19	foodImage.40	FOODEEG_Images\0373.jpg	NY	Right	Yes	0.538042000029236	0	474694	251
928.173828125	2	taste	foodImageDisplay	3	139	19	foodImage.40	FOODEEG_Images\0373.jpg	NY	Right	Yes	0.538042000029236	0	475226	252
930.23828125	0.538042000029236	taste	choicePhaseStart	3	139	19	foodImage.40	FOODEEG_Images\0373.jpg	NY	Right	Yes	0.538042000029236	0	476283	253
930.767578125	0	taste	response	3	139	19	foodImage.40	FOODEEG_Images\0373.jpg	NY	Right	Yes	0.538042000029236	0	476554	235
931.810546875	1	decision	trialStart	3	140	20	foodImage.57	FOODEEG_Images\0587.jpg	YN	Left	Yes	0.532198700122535	0	477088	251
932.853515625	2	decision	foodImageDisplay	3	140	20	foodImage.57	FOODEEG_Images\0587.jpg	YN	Left	Yes	0.532198700122535	0	477622	252
934.91796875	0.532198700122535	decision	choicePhaseStart	3	140	20	foodImage.57	FOODEEG_Images\0587.jpg	YN	Left	Yes	0.532198700122535	0	478679	253
935.439453125	0	decision	response	3	140	20	foodImage.57	FOODEEG_Images\0587.jpg	YN	Left	Yes	0.532198700122535	0	478946	234
936.482421875	1	taste	trialStart	3	141	21	foodImage.28	FOODEEG_Images\0273.jpg	YN	Left	Yes	0.80470440001227	0	479480	251
937.544921875	2	taste	foodImageDisplay	3	141	21	foodImage.28	FOODEEG_Images\0273.jpg	YN	Left	Yes	0.80470440001227	0	480024	252
939.611328125	0.80470440001227	taste	choicePhaseStart	3	141	21	foodImage.28	FOODEEG_Images\0273.jpg	YN	Left	Yes	0.80470440001227	0	481082	253
940.40625	0	taste	response	3	141	21	foodImage.28	FOODEEG_Images\0273.jpg	YN	Left	Yes	0.80470440001227	0	481489	234
941.447265625	1	health	trialStart	3	142	22	foodImage.38	FOODEEG_Images\0365.jpg	YN	Left	Yes	0.692080900073051	0	482022	251
942.486328125	2	health	foodImageDisplay	3	142	22	foodImage.38	FOODEEG_Images\0365.jpg	YN	Left	Yes	0.692080900073051	0	482554	252
944.548828125	0.692080900073051	health	choicePhaseStart	3	142	22	foodImage.38	FOODEEG_Images\0365.jpg	YN	Left	Yes	0.692080900073051	0	483610	253
945.23046875	0	health	response	3	142	22	foodImage.38	FOODEEG_Images\0365.jpg	YN	Left	Yes	0.692080900073051	0	483959	234
946.279296875	1	health	trialStart	3	143	23	foodImage.9	FOODEEG_Images\0138.jpg	YN	Right	No	0.66564209992066	0	484496	251
947.3359375	2	health	foodImageDisplay	3	143	23	foodImage.9	FOODEEG_Images\0138.jpg	YN	Right	No	0.66564209992066	0	485037	252
949.3984375	0.66564209992066	health	choicePhaseStart	3	143	23	foodImage.9	FOODEEG_Images\0138.jpg	YN	Right	No	0.66564209992066	0	486093	253
950.0546875	0	health	response	3	143	23	foodImage.9	FOODEEG_Images\0138.jpg	YN	Right	No	0.66564209992066	0	486429	235
951.09765625	1	taste	trialStart	3	144	24	foodImage.48	FOODEEG_Images\0494.jpg	YN	Left	Yes	0.797596599906683	0	486963	251
952.138671875	2	taste	foodImageDisplay	3	144	24	foodImage.48	FOODEEG_Images\0494.jpg	YN	Left	Yes	0.797596599906683	0	487496	252
954.201171875	0.797596599906683	taste	choicePhaseStart	3	144	24	foodImage.48	FOODEEG_Images\0494.jpg	YN	Left	Yes	0.797596599906683	0	488552	253
954.990234375	0	taste	response	3	144	24	foodImage.48	FOODEEG_Images\0494.jpg	YN	Left	Yes	0.797596599906683	0	488956	234
956.033203125	1	decision	trialStart	3	145	25	foodImage.25	FOODEEG_Images\0261.jpg	YN	Left	Yes	0.525150700006634	0	489490	251
957.07421875	2	decision	foodImageDisplay	3	145	25	foodImage.25	FOODEEG_Images\0261.jpg	YN	Left	Yes	0.525150700006634	0	490023	252
959.13671875	0.525150700006634	decision	choicePhaseStart	3	145	25	foodImage.25	FOODEEG_Images\0261.jpg	YN	Left	Yes	0.525150700006634	0	491079	253
959.654296875	0	decision	response	3	145	25	foodImage.25	FOODEEG_Images\0261.jpg	YN	Left	Yes	0.525150700006634	0	491344	234
960.697265625	1	health	trialStart	3	146	26	foodImage.84	FOODEEG_Images\0830.jpg	NY	Right	Yes	0.639932699967176	0	491878	251
961.751953125	2	health	foodImageDisplay	3	146	26	foodImage.84	FOODEEG_Images\0830.jpg	NY	Right	Yes	0.639932699967176	0	492418	252
963.81640625	0.639932699967176	health	choicePhaseStart	3	146	26	foodImage.84	FOODEEG_Images\0830.jpg	NY	Right	Yes	0.639932699967176	0	493475	253
964.4453125	0	health	response	3	146	26	foodImage.84	FOODEEG_Images\0830.jpg	NY	Right	Yes	0.639932699967176	0	493797	235
965.486328125	1	taste	trialStart	3	147	27	foodImage.89	FOODEEG_Images\0881.jpg	NY	Right	Yes	0.572440299903974	0	494330	251
966.546875	2	taste	foodImageDisplay	3	147	27	foodImage.89	FOODEEG_Images\0881.jpg	NY	Right	Yes	0.572440299903974	0	494873	252
968.611328125	0.572440299903974	taste	choicePhaseStart	3	147	27	foodImage.89	FOODEEG_Images\0881.jpg	NY	Right	Yes	0.572440299903974	0	495930	253
969.173828125	0	taste	response	3	147	27	foodImage.89	FOODEEG_Images\0881.jpg	NY	Right	Yes	0.572440299903974	0	496218	235
970.216796875	1	health	trialStart	3	148	28	foodImage.85	FOODEEG_Images\0841.jpg	YN	Left	Yes	1.44633000018075	0	496752	251
971.2734375	2	health	foodImageDisplay	3	148	28	foodImage.85	FOODEEG_Images\0841.jpg	YN	Left	Yes	1.44633000018075	0	497293	252
973.3359375	1.44633000018075	health	choicePhaseStart	3	148	28	foodImage.85	FOODEEG_Images\0841.jpg	YN	Left	Yes	1.44633000018075	0	498349	253
974.7734375	0	health	response	3	148	28	foodImage.85	FOODEEG_Images\0841.jpg	YN	Left	Yes	1.44633000018075	0	499085	234
975.81640625	1	decision	trialStart	3	149	29	foodImage.18	FOODEEG_Images\0202.jpg	YN	Left	Yes	0.475943900179118	0	499619	251
976.87109375	2	decision	foodImageDisplay	3	149	29	foodImage.18	FOODEEG_Images\0202.jpg	YN	Left	Yes	0.475943900179118	0	500159	252
978.935546875	0.475943900179118	decision	choicePhaseStart	3	149	29	foodImage.18	FOODEEG_Images\0202.jpg	YN	Left	Yes	0.475943900179118	0	501216	253
979.404296875	0	decision	response	3	149	29	foodImage.18	FOODEEG_Images\0202.jpg	YN	Left	Yes	0.475943900179118	0	501456	234
980.4453125	1	health	trialStart	3	150	30	foodImage.64	FOODEEG_Images\0647.jpg	NY	Right	Yes	0.762468700064346	0	501989	251
981.509765625	2	health	foodImageDisplay	3	150	30	foodImage.64	FOODEEG_Images\0647.jpg	NY	Right	Yes	0.762468700064346	0	502534	252
983.572265625	0.762468700064346	health	choicePhaseStart	3	150	30	foodImage.64	FOODEEG_Images\0647.jpg	NY	Right	Yes	0.762468700064346	0	503590	253
984.326171875	0	health	response	3	150	30	foodImage.64	FOODEEG_Images\0647.jpg	NY	Right	Yes	0.762468700064346	0	503976	235
985.3671875	1	taste	trialStart	3	151	31	foodImage.72	FOODEEG_Images\0714.jpg	NY	Right	Yes	0.568257299950346	0	504509	251
986.408203125	2	taste	foodImageDisplay	3	151	31	foodImage.72	FOODEEG_Images\0714.jpg	NY	Right	Yes	0.568257299950346	0	505042	252
988.470703125	0.568257299950346	taste	choicePhaseStart	3	151	31	foodImage.72	FOODEEG_Images\0714.jpg	NY	Right	Yes	0.568257299950346	0	506098	253
989.029296875	0	taste	response	3	151	31	foodImage.72	FOODEEG_Images\0714.jpg	NY	Right	Yes	0.568257299950346	0	506384	235
990.072265625	1	health	trialStart	3	152	32	foodImage.28	FOODEEG_Images\0273.jpg	NY	Right	Yes	0.734807699918747	0	506918	251
991.11328125	2	health	foodImageDisplay	3	152	32	foodImage.28	FOODEEG_Images\0273.jpg	NY	Right	Yes	0.734807699918747	0	507451	252
993.17578125	0.734807699918747	health	choicePhaseStart	3	152	32	foodImage.28	FOODEEG_Images\0273.jpg	NY	Right	Yes	0.734807699918747	0	508507	253
993.900390625	0	health	response	3	152	32	foodImage.28	FOODEEG_Images\0273.jpg	NY	Right	Yes	0.734807699918747	0	508878	235
994.94921875	1	decision	trialStart	3	153	33	foodImage.80	FOODEEG_Images\0796.jpg	NY	Right	Yes	0.439599699806422	0	509415	251
996.0078125	2	decision	foodImageDisplay	3	153	33	foodImage.80	FOODEEG_Images\0796.jpg	NY	Right	Yes	0.439599699806422	0	509957	252
998.0703125	0.439599699806422	decision	choicePhaseStart	3	153	33	foodImage.80	FOODEEG_Images\0796.jpg	NY	Right	Yes	0.439599699806422	0	511013	253
998.5	0	decision	response	3	153	33	foodImage.80	FOODEEG_Images\0796.jpg	NY	Right	Yes	0.439599699806422	0	511233	235
999.54296875	1	taste	trialStart	3	154	34	foodImage.75	FOODEEG_Images\0763.jpg	NY	Right	Yes	0.499888200080022	0	511767	251
1000.583984375	2	taste	foodImageDisplay	3	154	34	foodImage.75	FOODEEG_Images\0763.jpg	NY	Right	Yes	0.499888200080022	0	512300	252
1002.6484375	0.499888200080022	taste	choicePhaseStart	3	154	34	foodImage.75	FOODEEG_Images\0763.jpg	NY	Right	Yes	0.499888200080022	0	513357	253
1003.140625	0	taste	response	3	154	34	foodImage.75	FOODEEG_Images\0763.jpg	NY	Right	Yes	0.499888200080022	0	513609	235
1004.18359375	1	decision	trialStart	3	155	35	foodImage.41	FOODEEG_Images\0409.jpg	YN	Left	Yes	0.56776040000841	0	514143	251
1005.228515625	2	decision	foodImageDisplay	3	155	35	foodImage.41	FOODEEG_Images\0409.jpg	YN	Left	Yes	0.56776040000841	0	514678	252
1007.29296875	0.56776040000841	decision	choicePhaseStart	3	155	35	foodImage.41	FOODEEG_Images\0409.jpg	YN	Left	Yes	0.56776040000841	0	515735	253
1007.8515625	0	decision	response	3	155	35	foodImage.41	FOODEEG_Images\0409.jpg	YN	Left	Yes	0.56776040000841	0	516021	234
1008.89453125	1	health	trialStart	3	156	36	foodImage.33	FOODEEG_Images\0329.jpg	NY	Right	Yes	0.858966400148347	0	516555	251
1009.94140625	2	health	foodImageDisplay	3	156	36	foodImage.33	FOODEEG_Images\0329.jpg	NY	Right	Yes	0.858966400148347	0	517091	252
1012.009765625	0.858966400148347	health	choicePhaseStart	3	156	36	foodImage.33	FOODEEG_Images\0329.jpg	NY	Right	Yes	0.858966400148347	0	518150	253
1012.859375	0	health	response	3	156	36	foodImage.33	FOODEEG_Images\0329.jpg	NY	Right	Yes	0.858966400148347	0	518585	235
1013.904296875	1	decision	trialStart	3	157	37	foodImage.101	FOODEEG_Images\0909.jpg	NY	Left	No	0.512874100124463	0	519120	251
1014.94140625	2	decision	foodImageDisplay	3	157	37	foodImage.101	FOODEEG_Images\0909.jpg	NY	Left	No	0.512874100124463	0	519651	252
1017.00390625	0.512874100124463	decision	choicePhaseStart	3	157	37	foodImage.101	FOODEEG_Images\0909.jpg	NY	Left	No	0.512874100124463	0	520707	253
1017.5078125	0	decision	response	3	157	37	foodImage.101	FOODEEG_Images\0909.jpg	NY	Left	No	0.512874100124463	0	520965	234
1018.55078125	1	taste	trialStart	3	158	38	foodImage.37	FOODEEG_Images\0359.jpg	YN	Right	No	0.99263730016537	0	521499	251
1019.58984375	2	taste	foodImageDisplay	3	158	38	foodImage.37	FOODEEG_Images\0359.jpg	YN	Right	No	0.99263730016537	0	522031	252
1021.65234375	0.99263730016537	taste	choicePhaseStart	3	158	38	foodImage.37	FOODEEG_Images\0359.jpg	YN	Right	No	0.99263730016537	0	523087	253
1022.63671875	0	taste	response	3	158	38	foodImage.37	FOODEEG_Images\0359.jpg	YN	Right	No	0.99263730016537	0	523591	235
1023.677734375	1	health	trialStart	3	159	39	foodImage.106	FOODEEG_Images\0914.jpg	NY	Right	Yes	0.827195599908009	0	524124	251
1024.71484375	2	health	foodImageDisplay	3	159	39	foodImage.106	FOODEEG_Images\0914.jpg	NY	Right	Yes	0.827195599908009	0	524655	252
1026.77734375	0.827195599908009	health	choicePhaseStart	3	159	39	foodImage.106	FOODEEG_Images\0914.jpg	NY	Right	Yes	0.827195599908009	0	525711	253
1027.595703125	0	health	response	3	159	39	foodImage.106	FOODEEG_Images\0914.jpg	NY	Right	Yes	0.827195599908009	0	526130	235
1028.63671875	1	health	trialStart	3	160	40	foodImage.81	FOODEEG_Images\0797.jpg	YN	Left	Yes	0.569887700024992	0	526663	251
1029.693359375	2	health	foodImageDisplay	3	160	40	foodImage.81	FOODEEG_Images\0797.jpg	YN	Left	Yes	0.569887700024992	0	527204	252
1031.755859375	0.569887700024992	health	choicePhaseStart	3	160	40	foodImage.81	FOODEEG_Images\0797.jpg	YN	Left	Yes	0.569887700024992	0	528260	253
1032.314453125	0	health	response	3	160	40	foodImage.81	FOODEEG_Images\0797.jpg	YN	Left	Yes	0.569887700024992	0	528546	234
1033.359375	1	taste	trialStart	3	161	41	foodImage.76	FOODEEG_Images\0766.jpg	NY	Right	Yes	0.477010499918833	0	529081	251
1034.40625	2	taste	foodImageDisplay	3	161	41	foodImage.76	FOODEEG_Images\0766.jpg	NY	Right	Yes	0.477010499918833	0	529617	252
1036.46875	0.477010499918833	taste	choicePhaseStart	3	161	41	foodImage.76	FOODEEG_Images\0766.jpg	NY	Right	Yes	0.477010499918833	0	530673	253
1036.939453125	0	taste	response	3	161	41	foodImage.76	FOODEEG_Images\0766.jpg	NY	Right	Yes	0.477010499918833	0	530914	235
1037.982421875	1	health	trialStart	3	162	42	foodImage.86	FOODEEG_Images\0844.jpg	NY	Left	No	0.579519100021571	0	531448	251
1039.060546875	2	health	foodImageDisplay	3	162	42	foodImage.86	FOODEEG_Images\0844.jpg	NY	Left	No	0.579519100021571	0	532000	252
1041.125	0.579519100021571	health	choicePhaseStart	3	162	42	foodImage.86	FOODEEG_Images\0844.jpg	NY	Left	No	0.579519100021571	0	533057	253
1041.69921875	0	health	response	3	162	42	foodImage.86	FOODEEG_Images\0844.jpg	NY	Left	No	0.579519100021571	0	533351	234
1042.740234375	1	taste	trialStart	3	163	43	foodImage.83	FOODEEG_Images\0827.jpg	NY	Right	Yes	0.557723799953237	0	533884	251
1043.798828125	2	taste	foodImageDisplay	3	163	43	foodImage.83	FOODEEG_Images\0827.jpg	NY	Right	Yes	0.557723799953237	0	534426	252
1045.861328125	0.557723799953237	taste	choicePhaseStart	3	163	43	foodImage.83	FOODEEG_Images\0827.jpg	NY	Right	Yes	0.557723799953237	0	535482	253
1046.41015625	0	taste	response	3	163	43	foodImage.83	FOODEEG_Images\0827.jpg	NY	Right	Yes	0.557723799953237	0	535763	235
1047.453125	1	health	trialStart	3	164	44	foodImage.77	FOODEEG_Images\0771.jpg	NY	Right	Yes	0.435627300059423	0	536297	251
1048.49609375	2	health	foodImageDisplay	3	164	44	foodImage.77	FOODEEG_Images\0771.jpg	NY	Right	Yes	0.435627300059423	0	536831	252
1050.560546875	0.435627300059423	health	choicePhaseStart	3	164	44	foodImage.77	FOODEEG_Images\0771.jpg	NY	Right	Yes	0.435627300059423	0	537888	253
1050.986328125	0	health	response	3	164	44	foodImage.77	FOODEEG_Images\0771.jpg	NY	Right	Yes	0.435627300059423	0	538106	235
1052.029296875	1	health	trialStart	3	165	45	foodImage.71	FOODEEG_Images\0713.jpg	NY	Left	No	1.22550350008532	0	538640	251
1053.072265625	2	health	foodImageDisplay	3	165	45	foodImage.71	FOODEEG_Images\0713.jpg	NY	Left	No	1.22550350008532	0	539174	252
1055.138671875	1.22550350008532	health	choicePhaseStart	3	165	45	foodImage.71	FOODEEG_Images\0713.jpg	NY	Left	No	1.22550350008532	0	540232	253
1056.35546875	0	health	response	3	165	45	foodImage.71	FOODEEG_Images\0713.jpg	NY	Left	No	1.22550350008532	0	540855	234
1057.396484375	1	health	trialStart	3	166	46	foodImage.104	FOODEEG_Images\0912.jpg	YN	Left	Yes	1.06677290005609	0	541388	251
1058.43359375	2	health	foodImageDisplay	3	166	46	foodImage.104	FOODEEG_Images\0912.jpg	YN	Left	Yes	1.06677290005609	0	541919	252
1060.49609375	1.06677290005609	health	choicePhaseStart	3	166	46	foodImage.104	FOODEEG_Images\0912.jpg	YN	Left	Yes	1.06677290005609	0	542975	253
1061.5546875	0	health	response	3	166	46	foodImage.104	FOODEEG_Images\0912.jpg	YN	Left	Yes	1.06677290005609	0	543517	234
1062.6015625	1	taste	trialStart	3	167	47	foodImage.90	FOODEEG_Images\0890.jpg	NY	Right	Yes	0.591249900171533	0	544053	251
1063.66015625	2	taste	foodImageDisplay	3	167	47	foodImage.90	FOODEEG_Images\0890.jpg	NY	Right	Yes	0.591249900171533	0	544595	252
1065.724609375	0.591249900171533	taste	choicePhaseStart	3	167	47	foodImage.90	FOODEEG_Images\0890.jpg	NY	Right	Yes	0.591249900171533	0	545652	253
1066.306640625	0	taste	response	3	167	47	foodImage.90	FOODEEG_Images\0890.jpg	NY	Right	Yes	0.591249900171533	0	545950	235
1067.349609375	1	decision	trialStart	3	168	48	foodImage.28	FOODEEG_Images\0273.jpg	YN	Right	No	0.665096699958667	0	546484	251
1068.390625	2	decision	foodImageDisplay	3	168	48	foodImage.28	FOODEEG_Images\0273.jpg	YN	Right	No	0.665096699958667	0	547017	252
1070.455078125	0.665096699958667	decision	choicePhaseStart	3	168	48	foodImage.28	FOODEEG_Images\0273.jpg	YN	Right	No	0.665096699958667	0	548074	253
1071.11328125	0	decision	response	3	168	48	foodImage.28	FOODEEG_Images\0273.jpg	YN	Right	No	0.665096699958667	0	548411	235
1072.15625	1	decision	trialStart	3	169	49	foodImage.9	FOODEEG_Images\0138.jpg	YN	Left	Yes	0.695609700167552	0	548945	251
1073.2109375	2	decision	foodImageDisplay	3	169	49	foodImage.9	FOODEEG_Images\0138.jpg	YN	Left	Yes	0.695609700167552	0	549485	252
1075.275390625	0.695609700167552	decision	choicePhaseStart	3	169	49	foodImage.9	FOODEEG_Images\0138.jpg	YN	Left	Yes	0.695609700167552	0	550542	253
1075.9609375	0	decision	response	3	169	49	foodImage.9	FOODEEG_Images\0138.jpg	YN	Left	Yes	0.695609700167552	0	550893	234
1077.001953125	1	taste	trialStart	3	170	50	foodImage.16	FOODEEG_Images\0196.jpg	NY	Right	Yes	0.857705099973828	0	551426	251
1078.05859375	2	taste	foodImageDisplay	3	170	50	foodImage.16	FOODEEG_Images\0196.jpg	NY	Right	Yes	0.857705099973828	0	551967	252
1080.126953125	0.857705099973828	taste	choicePhaseStart	3	170	50	foodImage.16	FOODEEG_Images\0196.jpg	NY	Right	Yes	0.857705099973828	0	553026	253
1080.9765625	0	taste	response	3	170	50	foodImage.16	FOODEEG_Images\0196.jpg	NY	Right	Yes	0.857705099973828	0	553461	235
1082.01953125	1	decision	trialStart	3	171	51	foodImage.104	FOODEEG_Images\0912.jpg	NY	Right	Yes	0.650291300145909	0	553995	251
1083.05859375	2	decision	foodImageDisplay	3	171	51	foodImage.104	FOODEEG_Images\0912.jpg	NY	Right	Yes	0.650291300145909	0	554527	252
1085.12109375	0.650291300145909	decision	choicePhaseStart	3	171	51	foodImage.104	FOODEEG_Images\0912.jpg	NY	Right	Yes	0.650291300145909	0	555583	253
1085.76171875	0	decision	response	3	171	51	foodImage.104	FOODEEG_Images\0912.jpg	NY	Right	Yes	0.650291300145909	0	555911	235
1086.8046875	1	decision	trialStart	3	172	52	foodImage.107	FOODEEG_Images\0915.jpg	NY	Left	No	0.400000699795783	0	556445	251
1087.84375	2	decision	foodImageDisplay	3	172	52	foodImage.107	FOODEEG_Images\0915.jpg	NY	Left	No	0.400000699795783	0	556977	252
1089.90625	0.400000699795783	decision	choicePhaseStart	3	172	52	foodImage.107	FOODEEG_Images\0915.jpg	NY	Left	No	0.400000699795783	0	558033	253
1090.296875	0	decision	response	3	172	52	foodImage.107	FOODEEG_Images\0915.jpg	NY	Left	No	0.400000699795783	0	558233	234
1091.33984375	1	decision	trialStart	3	173	53	foodImage.109	FOODEEG_Images\0917.jpg	YN	Right	No	0.816573600051925	0	558767	251
1092.37890625	2	decision	foodImageDisplay	3	173	53	foodImage.109	FOODEEG_Images\0917.jpg	YN	Right	No	0.816573600051925	0	559299	252
1094.44140625	0.816573600051925	decision	choicePhaseStart	3	173	53	foodImage.109	FOODEEG_Images\0917.jpg	YN	Right	No	0.816573600051925	0	560355	253
1095.248046875	0	decision	response	3	173	53	foodImage.109	FOODEEG_Images\0917.jpg	YN	Right	No	0.816573600051925	0	560768	235
1096.294921875	1	health	trialStart	3	174	54	foodImage.115	FOODEEG_Images\0923.jpg	YN	Right	No	1.69401780003682	0	561304	251
1097.333984375	2	health	foodImageDisplay	3	174	54	foodImage.115	FOODEEG_Images\0923.jpg	YN	Right	No	1.69401780003682	0	561836	252
1099.396484375	1.69401780003682	health	choicePhaseStart	3	174	54	foodImage.115	FOODEEG_Images\0923.jpg	YN	Right	No	1.69401780003682	0	562892	253
1101.080078125	0	health	response	3	174	54	foodImage.115	FOODEEG_Images\0923.jpg	YN	Right	No	1.69401780003682	0	563754	235
1102.123046875	1	health	trialStart	3	175	55	foodImage.58	FOODEEG_Images\0605.jpg	YN	Left	Yes	0.642852700082585	0	564288	251
1103.181640625	2	health	foodImageDisplay	3	175	55	foodImage.58	FOODEEG_Images\0605.jpg	YN	Left	Yes	0.642852700082585	0	564830	252
1105.244140625	0.642852700082585	health	choicePhaseStart	3	175	55	foodImage.58	FOODEEG_Images\0605.jpg	YN	Left	Yes	0.642852700082585	0	565886	253
1105.880859375	0	health	response	3	175	55	foodImage.58	FOODEEG_Images\0605.jpg	YN	Left	Yes	0.642852700082585	0	566212	234
1106.92578125	1	decision	trialStart	3	176	56	foodImage.35	FOODEEG_Images\0350.jpg	YN	Left	Yes	0.8235725001432	0	566747	251
1107.962890625	2	decision	foodImageDisplay	3	176	56	foodImage.35	FOODEEG_Images\0350.jpg	YN	Left	Yes	0.8235725001432	0	567278	252
1110.02734375	0.8235725001432	decision	choicePhaseStart	3	176	56	foodImage.35	FOODEEG_Images\0350.jpg	YN	Left	Yes	0.8235725001432	0	568335	253
1110.83984375	0	decision	response	3	176	56	foodImage.35	FOODEEG_Images\0350.jpg	YN	Left	Yes	0.8235725001432	0	568751	234
1111.8828125	1	health	trialStart	3	177	57	foodImage.1	FOODEEG_Images\0004.jpg	YN	Right	No	1.07899840013124	0	569285	251
1112.923828125	2	health	foodImageDisplay	3	177	57	foodImage.1	FOODEEG_Images\0004.jpg	YN	Right	No	1.07899840013124	0	569818	252
1114.986328125	1.07899840013124	health	choicePhaseStart	3	177	57	foodImage.1	FOODEEG_Images\0004.jpg	YN	Right	No	1.07899840013124	0	570874	253
1116.056640625	0	health	response	3	177	57	foodImage.1	FOODEEG_Images\0004.jpg	YN	Right	No	1.07899840013124	0	571422	235
1117.09765625	1	taste	trialStart	3	178	58	foodImage.67	FOODEEG_Images\0679.jpg	YN	Left	Yes	0.558740299893543	0	571955	251
1118.15625	2	taste	foodImageDisplay	3	178	58	foodImage.67	FOODEEG_Images\0679.jpg	YN	Left	Yes	0.558740299893543	0	572497	252
1120.21875	0.558740299893543	taste	choicePhaseStart	3	178	58	foodImage.67	FOODEEG_Images\0679.jpg	YN	Left	Yes	0.558740299893543	0	573553	253
1120.767578125	0	taste	response	3	178	58	foodImage.67	FOODEEG_Images\0679.jpg	YN	Left	Yes	0.558740299893543	0	573834	234
1121.810546875	1	taste	trialStart	3	179	59	foodImage.31	FOODEEG_Images\0294.jpg	NY	Right	Yes	0.704068999970332	0	574368	251
1122.873046875	2	taste	foodImageDisplay	3	179	59	foodImage.31	FOODEEG_Images\0294.jpg	NY	Right	Yes	0.704068999970332	0	574912	252
1124.9375	0.704068999970332	taste	choicePhaseStart	3	179	59	foodImage.31	FOODEEG_Images\0294.jpg	NY	Right	Yes	0.704068999970332	0	575969	253
1125.630859375	0	taste	response	3	179	59	foodImage.31	FOODEEG_Images\0294.jpg	NY	Right	Yes	0.704068999970332	0	576324	235
1126.67578125	1	taste	trialStart	3	180	60	foodImage.29	FOODEEG_Images\0278.jpg	YN	Right	No	0.802874800050631	0	576859	251
1127.716796875	2	taste	foodImageDisplay	3	180	60	foodImage.29	FOODEEG_Images\0278.jpg	YN	Right	No	0.802874800050631	0	577392	252
1129.78125	0.802874800050631	taste	choicePhaseStart	3	180	60	foodImage.29	FOODEEG_Images\0278.jpg	YN	Right	No	0.802874800050631	0	578449	253
1130.576171875	0	taste	response	3	180	60	foodImage.29	FOODEEG_Images\0278.jpg	YN	Right	No	0.802874800050631	0	578856	235
1132.6171875	17.681640625	n/a	blockEnd	n/a	n/a	n/a	n/a	n/a	n/a	n/a	n/a	n/a	n/a	579901	254
1150.298828125	2	n/a	blockStart	4	n/a	n/a	n/a	n/a	n/a	n/a	n/a	n/a	n/a	588954	250
1152.330078125	1	health	trialStart	4	181	1	foodImage.97	FOODEEG_Images\0905.jpg	YN	Right	No	1.23619470000267	0	589994	251
1153.369140625	2	health	foodImageDisplay	4	181	1	foodImage.97	FOODEEG_Images\0905.jpg	YN	Right	No	1.23619470000267	0	590526	252
1155.431640625	1.23619470000267	health	choicePhaseStart	4	181	1	foodImage.97	FOODEEG_Images\0905.jpg	YN	Right	No	1.23619470000267	0	591582	253
1156.662109375	0	health	response	4	181	1	foodImage.97	FOODEEG_Images\0905.jpg	YN	Right	No	1.23619470000267	0	592212	235
1157.70703125	1	taste	trialStart	4	182	2	foodImage.42	FOODEEG_Images\0438.jpg	NY	Right	Yes	0.584916400024667	0	592747	251
1158.806640625	2	taste	foodImageDisplay	4	182	2	foodImage.42	FOODEEG_Images\0438.jpg	NY	Right	Yes	0.584916400024667	0	593310	252
1160.87109375	0.584916400024667	taste	choicePhaseStart	4	182	2	foodImage.42	FOODEEG_Images\0438.jpg	NY	Right	Yes	0.584916400024667	0	594367	253
1161.4453125	0	taste	response	4	182	2	foodImage.42	FOODEEG_Images\0438.jpg	NY	Right	Yes	0.584916400024667	0	594661	235
1162.498046875	1	decision	trialStart	4	183	3	foodImage.73	FOODEEG_Images\0717.jpg	YN	Left	Yes	0.609053899999708	0	595200	251
1163.55859375	2	decision	foodImageDisplay	4	183	3	foodImage.73	FOODEEG_Images\0717.jpg	YN	Left	Yes	0.609053899999708	0	595743	252
1165.62109375	0.609053899999708	decision	choicePhaseStart	4	183	3	foodImage.73	FOODEEG_Images\0717.jpg	YN	Left	Yes	0.609053899999708	0	596799	253
1166.22265625	0	decision	response	4	183	3	foodImage.73	FOODEEG_Images\0717.jpg	YN	Left	Yes	0.609053899999708	0	597107	234
1167.267578125	1	health	trialStart	4	184	4	foodImage.88	FOODEEG_Images\0878.jpg	YN	Right	No	0.662428699899465	0	597642	251
1168.322265625	2	health	foodImageDisplay	4	184	4	foodImage.88	FOODEEG_Images\0878.jpg	YN	Right	No	0.662428699899465	0	598182	252
1170.384765625	0.662428699899465	health	choicePhaseStart	4	184	4	foodImage.88	FOODEEG_Images\0878.jpg	YN	Right	No	0.662428699899465	0	599238	253
1171.037109375	0	health	response	4	184	4	foodImage.88	FOODEEG_Images\0878.jpg	YN	Right	No	0.662428699899465	0	599572	235
1172.08203125	1	taste	trialStart	4	185	5	foodImage.112	FOODEEG_Images\0920.jpg	YN	Right	No	0.832607300020754	0	600107	251
1173.119140625	2	taste	foodImageDisplay	4	185	5	foodImage.112	FOODEEG_Images\0920.jpg	YN	Right	No	0.832607300020754	0	600638	252
1175.181640625	0.832607300020754	taste	choicePhaseStart	4	185	5	foodImage.112	FOODEEG_Images\0920.jpg	YN	Right	No	0.832607300020754	0	601694	253
1176.005859375	0	taste	response	4	185	5	foodImage.112	FOODEEG_Images\0920.jpg	YN	Right	No	0.832607300020754	0	602116	235
1177.048828125	1	decision	trialStart	4	186	6	foodImage.60	FOODEEG_Images\0614.jpg	YN	Left	Yes	0.55719089997001	0	602650	251
1178.10546875	2	decision	foodImageDisplay	4	186	6	foodImage.60	FOODEEG_Images\0614.jpg	YN	Left	Yes	0.55719089997001	0	603191	252
1180.169921875	0.55719089997001	decision	choicePhaseStart	4	186	6	foodImage.60	FOODEEG_Images\0614.jpg	YN	Left	Yes	0.55719089997001	0	604248	253
1180.716796875	0	decision	response	4	186	6	foodImage.60	FOODEEG_Images\0614.jpg	YN	Left	Yes	0.55719089997001	0	604528	234
1181.763671875	1	health	trialStart	4	187	7	foodImage.12	FOODEEG_Images\0181.jpg	NY	Right	Yes	0.513569000177085	0	605064	251
1182.8046875	2	health	foodImageDisplay	4	187	7	foodImage.12	FOODEEG_Images\0181.jpg	NY	Right	Yes	0.513569000177085	0	605597	252
1184.869140625	0.513569000177085	health	choicePhaseStart	4	187	7	foodImage.12	FOODEEG_Images\0181.jpg	NY	Right	Yes	0.513569000177085	0	606654	253
1185.373046875	0	health	response	4	187	7	foodImage.12	FOODEEG_Images\0181.jpg	NY	Right	Yes	0.513569000177085	0	606912	235
1186.4140625	1	decision	trialStart	4	188	8	foodImage.16	FOODEEG_Images\0196.jpg	NY	Left	No	0.607820700155571	0	607445	251
1187.47265625	2	decision	foodImageDisplay	4	188	8	foodImage.16	FOODEEG_Images\0196.jpg	NY	Left	No	0.607820700155571	0	607987	252
1189.53515625	0.607820700155571	decision	choicePhaseStart	4	188	8	foodImage.16	FOODEEG_Images\0196.jpg	NY	Left	No	0.607820700155571	0	609043	253
1190.1328125	0	decision	response	4	188	8	foodImage.16	FOODEEG_Images\0196.jpg	NY	Left	No	0.607820700155571	0	609349	234
1191.17578125	1	decision	trialStart	4	189	9	foodImage.2	FOODEEG_Images\0028.jpg	NY	Right	Yes	0.580815399996936	0	609883	251
1192.216796875	2	decision	foodImageDisplay	4	189	9	foodImage.2	FOODEEG_Images\0028.jpg	NY	Right	Yes	0.580815399996936	0	610416	252
1194.28125	0.580815399996936	decision	choicePhaseStart	4	189	9	foodImage.2	FOODEEG_Images\0028.jpg	NY	Right	Yes	0.580815399996936	0	611473	253
1194.853515625	0	decision	response	4	189	9	foodImage.2	FOODEEG_Images\0028.jpg	NY	Right	Yes	0.580815399996936	0	611766	235
1195.896484375	1	decision	trialStart	4	190	10	foodImage.42	FOODEEG_Images\0438.jpg	YN	Left	Yes	0.642441199859604	0	612300	251
1197.0078125	2	decision	foodImageDisplay	4	190	10	foodImage.42	FOODEEG_Images\0438.jpg	YN	Left	Yes	0.642441199859604	0	612869	252
1199.072265625	0.642441199859604	decision	choicePhaseStart	4	190	10	foodImage.42	FOODEEG_Images\0438.jpg	YN	Left	Yes	0.642441199859604	0	613926	253
1199.708984375	0	decision	response	4	190	10	foodImage.42	FOODEEG_Images\0438.jpg	YN	Left	Yes	0.642441199859604	0	614252	234
1200.75390625	1	taste	trialStart	4	191	11	foodImage.117	FOODEEG_Images\0925.jpg	NY	Right	Yes	0.565644900081679	0	614787	251
1201.794921875	2	taste	foodImageDisplay	4	191	11	foodImage.117	FOODEEG_Images\0925.jpg	NY	Right	Yes	0.565644900081679	0	615320	252
1203.857421875	0.565644900081679	taste	choicePhaseStart	4	191	11	foodImage.117	FOODEEG_Images\0925.jpg	NY	Right	Yes	0.565644900081679	0	616376	253
1204.412109375	0	taste	response	4	191	11	foodImage.117	FOODEEG_Images\0925.jpg	NY	Right	Yes	0.565644900081679	0	616660	235
1205.45703125	1	health	trialStart	4	192	12	foodImage.10	FOODEEG_Images\0145.jpg	YN	Left	Yes	0.62101690005511	0	617195	251
1206.513671875	2	health	foodImageDisplay	4	192	12	foodImage.10	FOODEEG_Images\0145.jpg	YN	Left	Yes	0.62101690005511	0	617736	252
