onset	duration	trial_type	event_type	block	trial_total	trial_in_block	food_image_code	food_image_path	button_position	resp_position	resp_choice	choice_rt	resp_too_slow	sample	trigger
327.412109375	2	n/a	blockStart	1	n/a	n/a	n/a	n/a	n/a	n/a	n/a	n/a	n/a	167636	250
329.44921875	1	taste	trialStart	1	1	1	foodImage.77	FOODEEG_Images\0771.jpg	NY	Right	Yes	1.24315849999948	0	168679	251
330.498046875	2	taste	foodImageDisplay	1	1	1	foodImage.77	FOODEEG_Images\0771.jpg	NY	Right	Yes	1.24315849999948	0	169216	252
332.564453125	1.24315849999948	taste	choicePhaseStart	1	1	1	foodImage.77	FOODEEG_Images\0771.jpg	NY	Right	Yes	1.24315849999948	0	170274	253
333.80078125	0	taste	response	1	1	1	foodImage.77	FOODEEG_Images\0771.jpg	NY	Right	Yes	1.24315849999948	0	170907	235
334.896484375	1	health	trialStart	1	2	2	foodImage.116	FOODEEG_Images\0924.jpg	NY	Left	No	0.575884600000791	0	171468	251
335.939453125	2	health	foodImageDisplay	1	2	2	foodImage.116	FOODEEG_Images\0924.jpg	NY	Left	No	0.575884600000791	0	172002	252
338.0078125	0.575884600000791	health	choicePhaseStart	1	2	2	foodImage.116	FOODEEG_Images\0924.jpg	NY	Left	No	0.575884600000791	0	173061	253
338.576171875	0	health	response	1	2	2	foodImage.116	FOODEEG_Images\0924.jpg	NY	Left	No	0.575884600000791	0	173352	234
339.630859375	1	decision	trialStart	1	3	3	foodImage.42	FOODEEG_Images\0438.jpg	NY	Left	No	0.747730099999899	0	173892	251
340.72265625	2	decision	foodImageDisplay	1	3	3	foodImage.42	FOODEEG_Images\0438.jpg	NY	Left	No	0.747730099999899	0	174451	252
342.7890625	0.747730099999899	decision	choicePhaseStart	1	3	3	foodImage.42	FOODEEG_Images\0438.jpg	NY	Left	No	0.747730099999899	0	175509	253
343.52734375	0	decision	response	1	3	3	foodImage.42	FOODEEG_Images\0438.jpg	NY	Left	No	0.747730099999899	0	175887	234
344.572265625	1	decision	trialStart	1	4	4	foodImage.50	FOODEEG_Images\0529.jpg	NY	Left	No	0.688440100000662	0	176422	251
345.62890625	2	decision	foodImageDisplay	1	4	4	foodImage.50	FOODEEG_Images\0529.jpg	NY	Left	No	0.688440100000662	0	176963	252
347.6953125	0.688440100000662	decision	choicePhaseStart	1	4	4	foodImage.50	FOODEEG_Images\0529.jpg	NY	Left	No	0.688440100000662	0	178021	253
348.375	0	decision	response	1	4	4	foodImage.50	FOODEEG_Images\0529.jpg	NY	Left	No	0.688440100000662	0	178369	234
349.41796875	1	decision	trialStart	1	5	5	foodImage.47	FOODEEG_Images\0488.jpg	YN	Left	Yes	0.489661699999488	0	178903	251
350.462890625	2	decision	foodImageDisplay	1	5	5	foodImage.47	FOODEEG_Images\0488.jpg	YN	Left	Yes	0.489661699999488	0	179438	252
352.5390625	0.489661699999488	decision	choicePhaseStart	1	5	5	foodImage.47	FOODEEG_Images\0488.jpg	YN	Left	Yes	0.489661699999488	0	180501	253
353.0234375	0	decision	response	1	5	5	foodImage.47	FOODEEG_Images\0488.jpg	YN	Left	Yes	0.489661699999488	0	180749	234
354.072265625	1	taste	trialStart	1	6	6	foodImage.1	FOODEEG_Images\0004.jpg	NY	Right	Yes	1.1388018000016	0	181286	251
355.115234375	2	taste	foodImageDisplay	1	6	6	foodImage.1	FOODEEG_Images\0004.jpg	NY	Right	Yes	1.1388018000016	0	181820	252
357.185546875	1.1388018000016	taste	choicePhaseStart	1	6	6	foodImage.1	FOODEEG_Images\0004.jpg	NY	Right	Yes	1.1388018000016	0	182880	253
358.318359375	0	taste	response	1	6	6	foodImage.1	FOODEEG_Images\0004.jpg	NY	Right	Yes	1.1388018000016	0	183460	235
359.36328125	1	decision	trialStart	1	7	7	foodImage.3	FOODEEG_Images\0046.jpg	NY	Left	No	2.03286819999994	0	183995	251
360.408203125	2	decision	foodImageDisplay	1	7	7	foodImage.3	FOODEEG_Images\0046.jpg	NY	Left	No	2.03286819999994	0	184530	252
362.4765625	2.03286819999994	decision	choicePhaseStart	1	7	7	foodImage.3	FOODEEG_Images\0046.jpg	NY	Left	No	2.03286819999994	0	185589	253
364.50390625	0	decision	response	1	7	7	foodImage.3	FOODEEG_Images\0046.jpg	NY	Left	No	2.03286819999994	0	186627	234
365.552734375	1	taste	trialStart	1	8	8	foodImage.42	FOODEEG_Images\0438.jpg	NY	Left	No	1.29716499999995	0	187164	251
366.638671875	2	taste	foodImageDisplay	1	8	8	foodImage.42	FOODEEG_Images\0438.jpg	NY	Left	No	1.29716499999995	0	187720	252
368.70703125	1.29716499999995	taste	choicePhaseStart	1	8	8	foodImage.42	FOODEEG_Images\0438.jpg	NY	Left	No	1.29716499999995	0	188779	253
369.998046875	0	taste	response	1	8	8	foodImage.42	FOODEEG_Images\0438.jpg	NY	Left	No	1.29716499999995	0	189440	234
371.05078125	1	health	trialStart	1	9	9	foodImage.33	FOODEEG_Images\0329.jpg	YN	Left	Yes	0.663233999999647	0	189979	251
372.103515625	2	health	foodImageDisplay	1	9	9	foodImage.33	FOODEEG_Images\0329.jpg	YN	Left	Yes	0.663233999999647	0	190518	252
374.166015625	0.663233999999647	health	choicePhaseStart	1	9	9	foodImage.33	FOODEEG_Images\0329.jpg	YN	Left	Yes	0.663233999999647	0	191574	253
374.822265625	0	health	response	1	9	9	foodImage.33	FOODEEG_Images\0329.jpg	YN	Left	Yes	0.663233999999647	0	191910	234
375.869140625	1	taste	trialStart	1	10	10	foodImage.106	FOODEEG_Images\0914.jpg	NY	Left	No	0.819532999999865	0	192446	251
376.908203125	2	taste	foodImageDisplay	1	10	10	foodImage.106	FOODEEG_Images\0914.jpg	NY	Left	No	0.819532999999865	0	192978	252
378.9765625	0.819532999999865	taste	choicePhaseStart	1	10	10	foodImage.106	FOODEEG_Images\0914.jpg	NY	Left	No	0.819532999999865	0	194037	253
379.7890625	0	taste	response	1	10	10	foodImage.106	FOODEEG_Images\0914.jpg	NY	Left	No	0.819532999999865	0	194453	234
380.83203125	1	health	trialStart	1	11	11	foodImage.85	FOODEEG_Images\0841.jpg	NY	Left	No	1.20901010000125	0	194987	251
381.900390625	2	health	foodImageDisplay	1	11	11	foodImage.85	FOODEEG_Images\0841.jpg	NY	Left	No	1.20901010000125	0	195534	252
383.96484375	1.20901010000125	health	choicePhaseStart	1	11	11	foodImage.85	FOODEEG_Images\0841.jpg	NY	Left	No	1.20901010000125	0	196591	253
385.166015625	0	health	response	1	11	11	foodImage.85	FOODEEG_Images\0841.jpg	NY	Left	No	1.20901010000125	0	197206	234
386.208984375	1	decision	trialStart	1	12	12	foodImage.13	FOODEEG_Images\0183.jpg	NY	Left	No	1.43645090000064	0	197740	251
387.251953125	2	decision	foodImageDisplay	1	12	12	foodImage.13	FOODEEG_Images\0183.jpg	NY	Left	No	1.43645090000064	0	198274	252
389.326171875	1.43645090000064	decision	choicePhaseStart	1	12	12	foodImage.13	FOODEEG_Images\0183.jpg	NY	Left	No	1.43645090000064	0	199336	253
390.7578125	0	decision	response	1	12	12	foodImage.13	FOODEEG_Images\0183.jpg	NY	Left	No	1.43645090000064	0	200069	234
391.798828125	1	taste	trialStart	1	13	13	foodImage.46	FOODEEG_Images\0479.jpg	YN	Left	Yes	1.85837880000145	0	200602	251
392.85546875	2	taste	foodImageDisplay	1	13	13	foodImage.46	FOODEEG_Images\0479.jpg	YN	Left	Yes	1.85837880000145	0	201143	252
394.921875	1.85837880000145	taste	choicePhaseStart	1	13	13	foodImage.46	FOODEEG_Images\0479.jpg	YN	Left	Yes	1.85837880000145	0	202201	253
396.7734375	0	taste	response	1	13	13	foodImage.46	FOODEEG_Images\0479.jpg	YN	Left	Yes	1.85837880000145	0	203149	234
397.818359375	1	decision	trialStart	1	14	14	foodImage.112	FOODEEG_Images\0920.jpg	YN	Right	No	0.573039799999606	0	203684	251
398.857421875	2	decision	foodImageDisplay	1	14	14	foodImage.112	FOODEEG_Images\0920.jpg	YN	Right	No	0.573039799999606	0	204216	252
400.921875	0.573039799999606	decision	choicePhaseStart	1	14	14	foodImage.112	FOODEEG_Images\0920.jpg	YN	Right	No	0.573039799999606	0	205273	253
401.484375	0	decision	response	1	14	14	foodImage.112	FOODEEG_Images\0920.jpg	YN	Right	No	0.573039799999606	0	205561	235
402.52734375	1	taste	trialStart	1	15	15	foodImage.2	FOODEEG_Images\0028.jpg	NY	Right	Yes	1.10861029999978	0	206095	251
403.5703125	2	taste	foodImageDisplay	1	15	15	foodImage.2	FOODEEG_Images\0028.jpg	NY	Right	Yes	1.10861029999978	0	206629	252
405.638671875	1.10861029999978	taste	choicePhaseStart	1	15	15	foodImage.2	FOODEEG_Images\0028.jpg	NY	Right	Yes	1.10861029999978	0	207688	253
406.740234375	0	taste	response	1	15	15	foodImage.2	FOODEEG_Images\0028.jpg	NY	Right	Yes	1.10861029999978	0	208252	235
407.783203125	1	health	trialStart	1	16	16	foodImage.115	FOODEEG_Images\0923.jpg	YN	Right	No	0.653094499999497	0	208786	251
408.826171875	2	health	foodImageDisplay	1	16	16	foodImage.115	FOODEEG_Images\0923.jpg	YN	Right	No	0.653094499999497	0	209320	252
410.888671875	0.653094499999497	health	choicePhaseStart	1	16	16	foodImage.115	FOODEEG_Images\0923.jpg	YN	Right	No	0.653094499999497	0	210376	253
411.533203125	0	health	response	1	16	16	foodImage.115	FOODEEG_Images\0923.jpg	YN	Right	No	0.653094499999497	0	210706	235
412.580078125	1	decision	trialStart	1	17	17	foodImage.16	FOODEEG_Images\0196.jpg	NY	Left	No	3.50054319999981	0	211242	251
413.638671875	2	decision	foodImageDisplay	1	17	17	foodImage.16	FOODEEG_Images\0196.jpg	NY	Left	No	3.50054319999981	0	211784	252
415.701171875	3.50054319999981	decision	choicePhaseStart	1	17	17	foodImage.16	FOODEEG_Images\0196.jpg	NY	Left	No	3.50054319999981	0	212840	253
419.1953125	0	decision	response	1	17	17	foodImage.16	FOODEEG_Images\0196.jpg	NY	Left	No	3.50054319999981	0	214629	234
420.23828125	1	decision	trialStart	1	18	18	foodImage.99	FOODEEG_Images\0907.jpg	YN	Right	No	0.727267000000211	0	215163	251
421.279296875	2	decision	foodImageDisplay	1	18	18	foodImage.99	FOODEEG_Images\0907.jpg	YN	Right	No	0.727267000000211	0	215696	252
423.34765625	0.727267000000211	decision	choicePhaseStart	1	18	18	foodImage.99	FOODEEG_Images\0907.jpg	YN	Right	No	0.727267000000211	0	216755	253
424.068359375	0	decision	response	1	18	18	foodImage.99	FOODEEG_Images\0907.jpg	YN	Right	No	0.727267000000211	0	217124	235
425.111328125	1	health	trialStart	1	19	19	foodImage.72	FOODEEG_Images\0714.jpg	NY	Left	No	1.18316810000033	0	217658	251
426.158203125	2	health	foodImageDisplay	1	19	19	foodImage.72	FOODEEG_Images\0714.jpg	NY	Left	No	1.18316810000033	0	218194	252
428.220703125	1.18316810000033	health	choicePhaseStart	1	19	19	foodImage.72	FOODEEG_Images\0714.jpg	NY	Left	No	1.18316810000033	0	219250	253
429.396484375	0	health	response	1	19	19	foodImage.72	FOODEEG_Images\0714.jpg	NY	Left	No	1.18316810000033	0	219852	234
430.439453125	1	decision	trialStart	1	20	20	foodImage.97	FOODEEG_Images\0905.jpg	YN	Right	No	0.950778700000228	0	220386	251
431.484375	2	decision	foodImageDisplay	1	20	20	foodImage.97	FOODEEG_Images\0905.jpg	YN	Right	No	0.950778700000228	0	220921	252
433.55078125	0.950778700000228	decision	choicePhaseStart	1	20	20	foodImage.97	FOODEEG_Images\0905.jpg	YN	Right	No	0.950778700000228	0	221979	253
434.4921875	0	decision	response	1	20	20	foodImage.97	FOODEEG_Images\0905.jpg	YN	Right	No	0.950778700000228	0	222461	235
435.53515625	1	health	trialStart	1	21	21	foodImage.60	FOODEEG_Images\0614.jpg	YN	Left	Yes	0.492247500000303	0	222995	251
436.59375	2	health	foodImageDisplay	1	21	21	foodImage.60	FOODEEG_Images\0614.jpg	YN	Left	Yes	0.492247500000303	0	223537	252
438.65625	0.492247500000303	health	choicePhaseStart	1	21	21	foodImage.60	FOODEEG_Images\0614.jpg	YN	Left	Yes	0.492247500000303	0	224593	253
439.138671875	0	health	response	1	21	21	foodImage.60	FOODEEG_Images\0614.jpg	YN	Left	Yes	0.492247500000303	0	224840	234
440.18359375	1	taste	trialStart	1	22	22	foodImage.61	FOODEEG_Images\0640.jpg	YN	Right	No	1.42522829999871	0	225375	251
441.2265625	2	taste	foodImageDisplay	1	22	22	foodImage.61	FOODEEG_Images\0640.jpg	YN	Right	No	1.42522829999871	0	225909	252
443.291015625	1.42522829999871	taste	choicePhaseStart	1	22	22	foodImage.61	FOODEEG_Images\0640.jpg	YN	Right	No	1.42522829999871	0	226966	253
444.70703125	0	taste	response	1	22	22	foodImage.61	FOODEEG_Images\0640.jpg	YN	Right	No	1.42522829999871	0	227691	235
445.75	1	health	trialStart	1	23	23	foodImage.31	FOODEEG_Images\0294.jpg	YN	Right	No	1.61218009999902	0	228225	251
446.79296875	2	health	foodImageDisplay	1	23	23	foodImage.31	FOODEEG_Images\0294.jpg	YN	Right	No	1.61218009999902	0	228759	252
448.85546875	1.61218009999902	health	choicePhaseStart	1	23	23	foodImage.31	FOODEEG_Images\0294.jpg	YN	Right	No	1.61218009999902	0	229815	253
450.458984375	0	health	response	1	23	23	foodImage.31	FOODEEG_Images\0294.jpg	YN	Right	No	1.61218009999902	0	230636	235
451.5	1	taste	trialStart	1	24	24	foodImage.101	FOODEEG_Images\0909.jpg	NY	Left	No	0.753902100001142	0	231169	251
452.5390625	2	taste	foodImageDisplay	1	24	24	foodImage.101	FOODEEG_Images\0909.jpg	NY	Left	No	0.753902100001142	0	231701	252
454.6015625	0.753902100001142	taste	choicePhaseStart	1	24	24	foodImage.101	FOODEEG_Images\0909.jpg	NY	Left	No	0.753902100001142	0	232757	253
455.34765625	0	taste	response	1	24	24	foodImage.101	FOODEEG_Images\0909.jpg	NY	Left	No	0.753902100001142	0	233139	234
456.388671875	1	health	trialStart	1	25	25	foodImage.56	FOODEEG_Images\0586.jpg	NY	Right	Yes	1.58161760000075	0	233672	251
457.431640625	2	health	foodImageDisplay	1	25	25	foodImage.56	FOODEEG_Images\0586.jpg	NY	Right	Yes	1.58161760000075	0	234206	252
459.494140625	1.58161760000075	health	choicePhaseStart	1	25	25	foodImage.56	FOODEEG_Images\0586.jpg	NY	Right	Yes	1.58161760000075	0	235262	253
461.06640625	0	health	response	1	25	25	foodImage.56	FOODEEG_Images\0586.jpg	NY	Right	Yes	1.58161760000075	0	236067	235
462.109375	1	health	trialStart	1	26	26	foodImage.15	FOODEEG_Images\0189.jpg	NY	Left	No	1.20446850000008	0	236601	251
463.169921875	2	health	foodImageDisplay	1	26	26	foodImage.15	FOODEEG_Images\0189.jpg	NY	Left	No	1.20446850000008	0	237144	252
465.232421875	1.20446850000008	health	choicePhaseStart	1	26	26	foodImage.15	FOODEEG_Images\0189.jpg	NY	Left	No	1.20446850000008	0	238200	253
466.42578125	0	health	response	1	26	26	foodImage.15	FOODEEG_Images\0189.jpg	NY	Left	No	1.20446850000008	0	238811	234
467.46875	1	health	trialStart	1	27	27	foodImage.71	FOODEEG_Images\0713.jpg	YN	Right	No	0.874042599998575	0	239345	251
468.513671875	2	health	foodImageDisplay	1	27	27	foodImage.71	FOODEEG_Images\0713.jpg	YN	Right	No	0.874042599998575	0	239880	252
470.576171875	0.874042599998575	health	choicePhaseStart	1	27	27	foodImage.71	FOODEEG_Images\0713.jpg	YN	Right	No	0.874042599998575	0	240936	253
471.44140625	0	health	response	1	27	27	foodImage.71	FOODEEG_Images\0713.jpg	YN	Right	No	0.874042599998575	0	241379	235
472.484375	1	decision	trialStart	1	28	28	foodImage.87	FOODEEG_Images\0873.jpg	YN	Right	No	1.29277150000053	0	241913	251
473.54296875	2	decision	foodImageDisplay	1	28	28	foodImage.87	FOODEEG_Images\0873.jpg	YN	Right	No	1.29277150000053	0	242455	252
475.607421875	1.29277150000053	decision	choicePhaseStart	1	28	28	foodImage.87	FOODEEG_Images\0873.jpg	YN	Right	No	1.29277150000053	0	243512	253
476.890625	0	decision	response	1	28	28	foodImage.87	FOODEEG_Images\0873.jpg	YN	Right	No	1.29277150000053	0	244169	235
477.931640625	1	taste	trialStart	1	29	29	foodImage.62	FOODEEG_Images\0644.jpg	YN	Right	No	0.78135310000107	0	244702	251
478.9921875	2	taste	foodImageDisplay	1	29	29	foodImage.62	FOODEEG_Images\0644.jpg	YN	Right	No	0.78135310000107	0	245245	252
481.060546875	0.78135310000107	taste	choicePhaseStart	1	29	29	foodImage.62	FOODEEG_Images\0644.jpg	YN	Right	No	0.78135310000107	0	246304	253
481.833984375	0	taste	response	1	29	29	foodImage.62	FOODEEG_Images\0644.jpg	YN	Right	No	0.78135310000107	0	246700	235
482.875	1	decision	trialStart	1	30	30	foodImage.30	FOODEEG_Images\0282.jpg	NY	Right	Yes	0.987305900000138	0	247233	251
483.921875	2	decision	foodImageDisplay	1	30	30	foodImage.30	FOODEEG_Images\0282.jpg	NY	Right	Yes	0.987305900000138	0	247769	252
485.984375	0.987305900000138	decision	choicePhaseStart	1	30	30	foodImage.30	FOODEEG_Images\0282.jpg	NY	Right	Yes	0.987305900000138	0	248825	253
486.9609375	0	decision	response	1	30	30	foodImage.30	FOODEEG_Images\0282.jpg	NY	Right	Yes	0.987305900000138	0	249325	235
488.005859375	1	taste	trialStart	1	31	31	foodImage.6	FOODEEG_Images\0113.jpg	NY	Right	Yes	1.06668329999957	0	249860	251
489.06640625	2	taste	foodImageDisplay	1	31	31	foodImage.6	FOODEEG_Images\0113.jpg	NY	Right	Yes	1.06668329999957	0	250403	252
491.134765625	1.06668329999957	taste	choicePhaseStart	1	31	31	foodImage.6	FOODEEG_Images\0113.jpg	NY	Right	Yes	1.06668329999957	0	251462	253
492.193359375	0	taste	response	1	31	31	foodImage.6	FOODEEG_Images\0113.jpg	NY	Right	Yes	1.06668329999957	0	252004	235
493.236328125	1	taste	trialStart	1	32	32	foodImage.31	FOODEEG_Images\0294.jpg	NY	Left	No	2.58858200000032	0	252538	251
494.29296875	2	taste	foodImageDisplay	1	32	32	foodImage.31	FOODEEG_Images\0294.jpg	NY	Left	No	2.58858200000032	0	253079	252
496.36328125	2.58858200000032	taste	choicePhaseStart	1	32	32	foodImage.31	FOODEEG_Images\0294.jpg	NY	Left	No	2.58858200000032	0	254139	253
498.9453125	0	taste	response	1	32	32	foodImage.31	FOODEEG_Images\0294.jpg	NY	Left	No	2.58858200000032	0	255461	234
499.990234375	1	taste	trialStart	1	33	33	foodImage.50	FOODEEG_Images\0529.jpg	NY	Left	No	1.39372939999885	0	255996	251
501.064453125	2	taste	foodImageDisplay	1	33	33	foodImage.50	FOODEEG_Images\0529.jpg	NY	Left	No	1.39372939999885	0	256546	252
503.126953125	1.39372939999885	taste	choicePhaseStart	1	33	33	foodImage.50	FOODEEG_Images\0529.jpg	NY	Left	No	1.39372939999885	0	257602	253
504.513671875	0	taste	response	1	33	33	foodImage.50	FOODEEG_Images\0529.jpg	NY	Left	No	1.39372939999885	0	258312	234
505.556640625	1	decision	trialStart	1	34	34	foodImage.40	FOODEEG_Images\0373.jpg	NY	Right	Yes	0.850560500000938	0	258846	251
506.6015625	2	decision	foodImageDisplay	1	34	34	foodImage.40	FOODEEG_Images\0373.jpg	NY	Right	Yes	0.850560500000938	0	259381	252
508.669921875	0.850560500000938	decision	choicePhaseStart	1	34	34	foodImage.40	FOODEEG_Images\0373.jpg	NY	Right	Yes	0.850560500000938	0	260440	253
509.513671875	0	decision	response	1	34	34	foodImage.40	FOODEEG_Images\0373.jpg	NY	Right	Yes	0.850560500000938	0	260872	235
510.556640625	1	taste	trialStart	1	35	35	foodImage.21	FOODEEG_Images\0234.jpg	NY	Right	Yes	1.64719589999913	0	261406	251
511.61328125	2	taste	foodImageDisplay	1	35	35	foodImage.21	FOODEEG_Images\0234.jpg	NY	Right	Yes	1.64719589999913	0	261947	252
513.681640625	1.64719589999913	taste	choicePhaseStart	1	35	35	foodImage.21	FOODEEG_Images\0234.jpg	NY	Right	Yes	1.64719589999913	0	263006	253
515.3203125	0	taste	response	1	35	35	foodImage.21	FOODEEG_Images\0234.jpg	NY	Right	Yes	1.64719589999913	0	263845	235
516.36328125	1	health	trialStart	1	36	36	foodImage.103	FOODEEG_Images\0911.jpg	YN	Right	No	0.811371300000246	0	264379	251
517.404296875	2	health	foodImageDisplay	1	36	36	foodImage.103	FOODEEG_Images\0911.jpg	YN	Right	No	0.811371300000246	0	264912	252
519.466796875	0.811371300000246	health	choicePhaseStart	1	36	36	foodImage.103	FOODEEG_Images\0911.jpg	YN	Right	No	0.811371300000246	0	265968	253
520.271484375	0	health	response	1	36	36	foodImage.103	FOODEEG_Images\0911.jpg	YN	Right	No	0.811371300000246	0	266380	235
521.31640625	1	taste	trialStart	1	37	37	foodImage.12	FOODEEG_Images\0181.jpg	YN	Right	No	0.914690499999779	0	266915	251
522.357421875	2	taste	foodImageDisplay	1	37	37	foodImage.12	FOODEEG_Images\0181.jpg	YN	Right	No	0.914690499999779	0	267448	252
524.421875	0.914690499999779	taste	choicePhaseStart	1	37	37	foodImage.12	FOODEEG_Images\0181.jpg	YN	Right	No	0.914690499999779	0	268505	253
525.328125	0	taste	response	1	37	37	foodImage.12	FOODEEG_Images\0181.jpg	YN	Right	No	0.914690499999779	0	268969	235
526.37109375	1	decision	trialStart	1	38	38	foodImage.15	FOODEEG_Images\0189.jpg	NY	Right	Yes	1.02573660000053	0	269503	251
527.431640625	2	decision	foodImageDisplay	1	38	38	foodImage.15	FOODEEG_Images\0189.jpg	NY	Right	Yes	1.02573660000053	0	270046	252
529.494140625	1.02573660000053	decision	choicePhaseStart	1	38	38	foodImage.15	FOODEEG_Images\0189.jpg	NY	Right	Yes	1.02573660000053	0	271102	253
530.51171875	0	decision	response	1	38	38	foodImage.15	FOODEEG_Images\0189.jpg	NY	Right	Yes	1.02573660000053	0	271623	235
531.5546875	1	decision	trialStart	1	39	39	foodImage.111	FOODEEG_Images\0919.jpg	NY	Left	No	1.15389460000006	0	272157	251
532.595703125	2	decision	foodImageDisplay	1	39	39	foodImage.111	FOODEEG_Images\0919.jpg	NY	Left	No	1.15389460000006	0	272690	252
534.662109375	1.15389460000006	decision	choicePhaseStart	1	39	39	foodImage.111	FOODEEG_Images\0919.jpg	NY	Left	No	1.15389460000006	0	273748	253
535.806640625	0	decision	response	1	39	39	foodImage.111	FOODEEG_Images\0919.jpg	NY	Left	No	1.15389460000006	0	274334	234
536.84765625	1	taste	trialStart	1	40	40	foodImage.27	FOODEEG_Images\0263.jpg	NY	Right	Yes	1.10783580000134	0	274867	251
537.89453125	2	taste	foodImageDisplay	1	40	40	foodImage.27	FOODEEG_Images\0263.jpg	NY	Right	Yes	1.10783580000134	0	275403	252
539.962890625	1.10783580000134	taste	choicePhaseStart	1	40	40	foodImage.27	FOODEEG_Images\0263.jpg	NY	Right	Yes	1.10783580000134	0	276462	253
541.0625	0	taste	response	1	40	40	foodImage.27	FOODEEG_Images\0263.jpg	NY	Right	Yes	1.10783580000134	0	277025	235
542.10546875	1	taste	trialStart	1	41	41	foodImage.117	FOODEEG_Images\0925.jpg	YN	Right	No	1.69752620000145	0	277559	251
543.14453125	2	taste	foodImageDisplay	1	41	41	foodImage.117	FOODEEG_Images\0925.jpg	YN	Right	No	1.69752620000145	0	278091	252
545.20703125	1.69752620000145	taste	choicePhaseStart	1	41	41	foodImage.117	FOODEEG_Images\0925.jpg	YN	Right	No	1.69752620000145	0	279147	253
546.89453125	0	taste	response	1	41	41	foodImage.117	FOODEEG_Images\0925.jpg	YN	Right	No	1.69752620000145	0	280011	235
547.9375	1	decision	trialStart	1	42	42	foodImage.61	FOODEEG_Images\0640.jpg	NY	Left	No	1.3820465000008	0	280545	251
548.98046875	2	decision	foodImageDisplay	1	42	42	foodImage.61	FOODEEG_Images\0640.jpg	NY	Left	No	1.3820465000008	0	281079	252
551.04296875	1.3820465000008	decision	choicePhaseStart	1	42	42	foodImage.61	FOODEEG_Images\0640.jpg	NY	Left	No	1.3820465000008	0	282135	253
552.416015625	0	decision	response	1	42	42	foodImage.61	FOODEEG_Images\0640.jpg	NY	Left	No	1.3820465000008	0	282838	234
553.45703125	1	decision	trialStart	1	43	43	foodImage.56	FOODEEG_Images\0586.jpg	YN	Right	No	1.54188040000008	0	283371	251
554.50390625	2	decision	foodImageDisplay	1	43	43	foodImage.56	FOODEEG_Images\0586.jpg	YN	Right	No	1.54188040000008	0	283907	252
556.5703125	1.54188040000008	decision	choicePhaseStart	1	43	43	foodImage.56	FOODEEG_Images\0586.jpg	YN	Right	No	1.54188040000008	0	284965	253
558.103515625	0	decision	response	1	43	43	foodImage.56	FOODEEG_Images\0586.jpg	YN	Right	No	1.54188040000008	0	285750	235
559.14453125	1	decision	trialStart	1	44	44	foodImage.86	FOODEEG_Images\0844.jpg	YN	Right	No	0.585774699999092	0	286283	251
560.203125	2	decision	foodImageDisplay	1	44	44	foodImage.86	FOODEEG_Images\0844.jpg	YN	Right	No	0.585774699999092	0	286825	252
562.265625	0.585774699999092	decision	choicePhaseStart	1	44	44	foodImage.86	FOODEEG_Images\0844.jpg	YN	Right	No	0.585774699999092	0	287881	253
562.84765625	0	decision	response	1	44	44	foodImage.86	FOODEEG_Images\0844.jpg	YN	Right	No	0.585774699999092	0	288179	235
563.888671875	1	decision	trialStart	1	45	45	foodImage.68	FOODEEG_Images\0685.jpg	NY	Left	No	1.39154559999952	0	288712	251
564.96875	2	decision	foodImageDisplay	1	45	45	foodImage.68	FOODEEG_Images\0685.jpg	NY	Left	No	1.39154559999952	0	289265	252
567.033203125	1.39154559999952	decision	choicePhaseStart	1	45	45	foodImage.68	FOODEEG_Images\0685.jpg	NY	Left	No	1.39154559999952	0	290322	253
568.4140625	0	decision	response	1	45	45	foodImage.68	FOODEEG_Images\0685.jpg	NY	Left	No	1.39154559999952	0	291029	234
569.45703125	1	decision	trialStart	1	46	46	foodImage.24	FOODEEG_Images\0250.jpg	YN	Right	No	0.961600999999064	0	291563	251
570.498046875	2	decision	foodImageDisplay	1	46	46	foodImage.24	FOODEEG_Images\0250.jpg	YN	Right	No	0.961600999999064	0	292096	252
572.56640625	0.961600999999064	decision	choicePhaseStart	1	46	46	foodImage.24	FOODEEG_Images\0250.jpg	YN	Right	No	0.961600999999064	0	293155	253
573.517578125	0	decision	response	1	46	46	foodImage.24	FOODEEG_Images\0250.jpg	YN	Right	No	0.961600999999064	0	293642	235
574.5625	1	taste	trialStart	1	47	47	foodImage.30	FOODEEG_Images\0282.jpg	YN	Left	Yes	1.33569320000061	0	294177	251
575.603515625	2	taste	foodImageDisplay	1	47	47	foodImage.30	FOODEEG_Images\0282.jpg	YN	Left	Yes	1.33569320000061	0	294710	252
577.671875	1.33569320000061	taste	choicePhaseStart	1	47	47	foodImage.30	FOODEEG_Images\0282.jpg	YN	Left	Yes	1.33569320000061	0	295769	253
578.998046875	0	taste	response	1	47	47	foodImage.30	FOODEEG_Images\0282.jpg	YN	Left	Yes	1.33569320000061	0	296448	234
580.041015625	1	decision	trialStart	1	48	48	foodImage.77	FOODEEG_Images\0771.jpg	YN	Left	Yes	0.977927600000839	0	296982	251
581.0859375	2	decision	foodImageDisplay	1	48	48	foodImage.77	FOODEEG_Images\0771.jpg	YN	Left	Yes	0.977927600000839	0	297517	252
583.1484375	0.977927600000839	decision	choicePhaseStart	1	48	48	foodImage.77	FOODEEG_Images\0771.jpg	YN	Left	Yes	0.977927600000839	0	298573	253
584.1171875	0	decision	response	1	48	48	foodImage.77	FOODEEG_Images\0771.jpg	YN	Left	Yes	0.977927600000839	0	299069	234
585.16015625	1	health	trialStart	1	49	49	foodImage.104	FOODEEG_Images\0912.jpg	YN	Right	No	0.695280800000546	0	299603	251
586.201171875	2	health	foodImageDisplay	1	49	49	foodImage.104	FOODEEG_Images\0912.jpg	YN	Right	No	0.695280800000546	0	300136	252
588.263671875	0.695280800000546	health	choicePhaseStart	1	49	49	foodImage.104	FOODEEG_Images\0912.jpg	YN	Right	No	0.695280800000546	0	301192	253
588.94921875	0	health	response	1	49	49	foodImage.104	FOODEEG_Images\0912.jpg	YN	Right	No	0.695280800000546	0	301543	235
589.9921875	1	decision	trialStart	1	50	50	foodImage.59	FOODEEG_Images\0607.jpg	YN	Left	Yes	1.28969999999936	0	302077	251
591.037109375	2	decision	foodImageDisplay	1	50	50	foodImage.59	FOODEEG_Images\0607.jpg	YN	Left	Yes	1.28969999999936	0	302612	252
593.10546875	1.28969999999936	decision	choicePhaseStart	1	50	50	foodImage.59	FOODEEG_Images\0607.jpg	YN	Left	Yes	1.28969999999936	0	303671	253
594.388671875	0	decision	response	1	50	50	foodImage.59	FOODEEG_Images\0607.jpg	YN	Left	Yes	1.28969999999936	0	304328	234
595.43359375	1	health	trialStart	1	51	51	foodImage.64	FOODEEG_Images\0647.jpg	YN	Left	Yes	0.913857699999426	0	304863	251
596.494140625	2	health	foodImageDisplay	1	51	51	foodImage.64	FOODEEG_Images\0647.jpg	YN	Left	Yes	0.913857699999426	0	305406	252
598.5625	0.913857699999426	health	choicePhaseStart	1	51	51	foodImage.64	FOODEEG_Images\0647.jpg	YN	Left	Yes	0.913857699999426	0	306465	253
599.46875	0	health	response	1	51	51	foodImage.64	FOODEEG_Images\0647.jpg	YN	Left	Yes	0.913857699999426	0	306929	234
600.51171875	1	taste	trialStart	1	52	52	foodImage.99	FOODEEG_Images\0907.jpg	YN	Left	Yes	1.86793209999996	0	307463	251
601.55078125	2	taste	foodImageDisplay	1	52	52	foodImage.99	FOODEEG_Images\0907.jpg	YN	Left	Yes	1.86793209999996	0	307995	252
603.625	1.86793209999996	taste	choicePhaseStart	1	52	52	foodImage.99	FOODEEG_Images\0907.jpg	YN	Left	Yes	1.86793209999996	0	309057	253
605.484375	0	taste	response	1	52	52	foodImage.99	FOODEEG_Images\0907.jpg	YN	Left	Yes	1.86793209999996	0	310009	234
606.52734375	1	taste	trialStart	1	53	53	foodImage.38	FOODEEG_Images\0365.jpg	NY	Right	Yes	0.994856100000106	0	310543	251
607.568359375	2	taste	foodImageDisplay	1	53	53	foodImage.38	FOODEEG_Images\0365.jpg	NY	Right	Yes	0.994856100000106	0	311076	252
609.634765625	0.994856100000106	taste	choicePhaseStart	1	53	53	foodImage.38	FOODEEG_Images\0365.jpg	NY	Right	Yes	0.994856100000106	0	312134	253
610.62109375	0	taste	response	1	53	53	foodImage.38	FOODEEG_Images\0365.jpg	NY	Right	Yes	0.994856100000106	0	312639	235
611.6640625	1	health	trialStart	1	54	54	foodImage.13	FOODEEG_Images\0183.jpg	NY	Right	Yes	2.27304149999873	0	313173	251
612.705078125	2	health	foodImageDisplay	1	54	54	foodImage.13	FOODEEG_Images\0183.jpg	NY	Right	Yes	2.27304149999873	0	313706	252
614.7734375	2.27304149999873	health	choicePhaseStart	1	54	54	foodImage.13	FOODEEG_Images\0183.jpg	NY	Right	Yes	2.27304149999873	0	314765	253
617.037109375	0	health	response	1	54	54	foodImage.13	FOODEEG_Images\0183.jpg	NY	Right	Yes	2.27304149999873	0	315924	235
618.080078125	1	taste	trialStart	1	55	55	foodImage.114	FOODEEG_Images\0922.jpg	NY	Left	No	0.626276699998925	0	316458	251
619.119140625	2	taste	foodImageDisplay	1	55	55	foodImage.114	FOODEEG_Images\0922.jpg	NY	Left	No	0.626276699998925	0	316990	252
621.1875	0.626276699998925	taste	choicePhaseStart	1	55	55	foodImage.114	FOODEEG_Images\0922.jpg	NY	Left	No	0.626276699998925	0	318049	253
621.8046875	0	taste	response	1	55	55	foodImage.114	FOODEEG_Images\0922.jpg	NY	Left	No	0.626276699998925	0	318365	234
622.849609375	1	taste	trialStart	1	56	56	foodImage.107	FOODEEG_Images\0915.jpg	YN	Right	No	0.877024299999903	0	318900	251
623.890625	2	taste	foodImageDisplay	1	56	56	foodImage.107	FOODEEG_Images\0915.jpg	YN	Right	No	0.877024299999903	0	319433	252
625.958984375	0.877024299999903	taste	choicePhaseStart	1	56	56	foodImage.107	FOODEEG_Images\0915.jpg	YN	Right	No	0.877024299999903	0	320492	253
626.828125	0	taste	response	1	56	56	foodImage.107	FOODEEG_Images\0915.jpg	YN	Right	No	0.877024299999903	0	320937	235
627.87109375	1	health	trialStart	1	57	57	foodImage.20	FOODEEG_Images\0226.jpg	YN	Right	No	0.908326100001432	0	321471	251
628.912109375	2	health	foodImageDisplay	1	57	57	foodImage.20	FOODEEG_Images\0226.jpg	YN	Right	No	0.908326100001432	0	322004	252
630.9765625	0.908326100001432	health	choicePhaseStart	1	57	57	foodImage.20	FOODEEG_Images\0226.jpg	YN	Right	No	0.908326100001432	0	323061	253
631.875	0	health	response	1	57	57	foodImage.20	FOODEEG_Images\0226.jpg	YN	Right	No	0.908326100001432	0	323521	235
632.921875	1	decision	trialStart	1	58	58	foodImage.76	FOODEEG_Images\0766.jpg	NY	Right	Yes	0.799758799999836	0	324057	251
633.962890625	2	decision	foodImageDisplay	1	58	58	foodImage.76	FOODEEG_Images\0766.jpg	NY	Right	Yes	0.799758799999836	0	324590	252
636.02734375	0.799758799999836	decision	choicePhaseStart	1	58	58	foodImage.76	FOODEEG_Images\0766.jpg	NY	Right	Yes	0.799758799999836	0	325647	253
636.8203125	0	decision	response	1	58	58	foodImage.76	FOODEEG_Images\0766.jpg	NY	Right	Yes	0.799758799999836	0	326053	235
637.861328125	1	health	trialStart	1	59	59	foodImage.12	FOODEEG_Images\0181.jpg	NY	Left	No	1.08971129999918	0	326586	251
638.904296875	2	health	foodImageDisplay	1	59	59	foodImage.12	FOODEEG_Images\0181.jpg	NY	Left	No	1.08971129999918	0	327120	252
640.9765625	1.08971129999918	health	choicePhaseStart	1	59	59	foodImage.12	FOODEEG_Images\0181.jpg	NY	Left	No	1.08971129999918	0	328181	253
642.05859375	0	health	response	1	59	59	foodImage.12	FOODEEG_Images\0181.jpg	NY	Left	No	1.08971129999918	0	328735	234
643.107421875	1	taste	trialStart	1	60	60	foodImage.18	FOODEEG_Images\0202.jpg	YN	Left	Yes	1.59862280000016	0	329272	251
644.166015625	2	taste	foodImageDisplay	1	60	60	foodImage.18	FOODEEG_Images\0202.jpg	YN	Left	Yes	1.59862280000016	0	329814	252
646.23046875	1.59862280000016	taste	choicePhaseStart	1	60	60	foodImage.18	FOODEEG_Images\0202.jpg	YN	Left	Yes	1.59862280000016	0	330871	253
647.818359375	0	taste	response	1	60	60	foodImage.18	FOODEEG_Images\0202.jpg	YN	Left	Yes	1.59862280000016	0	331684	234
649.861328125	86.408203125	n/a	blockEnd	n/a	n/a	n/a	n/a	n/a	n/a	n/a	n/a	n/a	n/a	332730	254
736.26953125	2	n/a	blockStart	2	n/a	n/a	n/a	n/a	n/a	n/a	n/a	n/a	n/a	376971	250
738.302734375	1	health	trialStart	2	61	1	foodImage.105	FOODEEG_Images\0913.jpg	NY	Left	No	2.47847499999989	0	378012	251
739.345703125	2	health	foodImageDisplay	2	61	1	foodImage.105	FOODEEG_Images\0913.jpg	NY	Left	No	2.47847499999989	0	378546	252
741.408203125	2.47847499999989	health	choicePhaseStart	2	61	1	foodImage.105	FOODEEG_Images\0913.jpg	NY	Left	No	2.47847499999989	0	379602	253
743.87890625	0	health	response	2	61	1	foodImage.105	FOODEEG_Images\0913.jpg	NY	Left	No	2.47847499999989	0	380867	234
744.919921875	1	health	trialStart	2	62	2	foodImage.19	FOODEEG_Images\0225.jpg	YN	Right	No	0.975865200000044	0	381400	251
745.962890625	2	health	foodImageDisplay	2	62	2	foodImage.19	FOODEEG_Images\0225.jpg	YN	Right	No	0.975865200000044	0	381934	252
748.025390625	0.975865200000044	health	choicePhaseStart	2	62	2	foodImage.19	FOODEEG_Images\0225.jpg	YN	Right	No	0.975865200000044	0	382990	253
748.9921875	0	health	response	2	62	2	foodImage.19	FOODEEG_Images\0225.jpg	YN	Right	No	0.975865200000044	0	383485	235
750.033203125	1	taste	trialStart	2	63	3	foodImage.51	FOODEEG_Images\0536.jpg	YN	Left	Yes	0.633988999999929	0	384018	251
751.080078125	2	taste	foodImageDisplay	2	63	3	foodImage.51	FOODEEG_Images\0536.jpg	YN	Left	Yes	0.633988999999929	0	384554	252
753.142578125	0.633988999999929	taste	choicePhaseStart	2	63	3	foodImage.51	FOODEEG_Images\0536.jpg	YN	Left	Yes	0.633988999999929	0	385610	253
753.767578125	0	taste	response	2	63	3	foodImage.51	FOODEEG_Images\0536.jpg	YN	Left	Yes	0.633988999999929	0	385930	234
754.80859375	1	health	trialStart	2	64	4	foodImage.97	FOODEEG_Images\0905.jpg	NY	Left	No	1.0553903	0	386463	251
755.8515625	2	health	foodImageDisplay	2	64	4	foodImage.97	FOODEEG_Images\0905.jpg	NY	Left	No	1.0553903	0	386997	252
757.9140625	1.0553903	health	choicePhaseStart	2	64	4	foodImage.97	FOODEEG_Images\0905.jpg	NY	Left	No	1.0553903	0	388053	253
758.958984375	0	health	response	2	64	4	foodImage.97	FOODEEG_Images\0905.jpg	NY	Left	No	1.0553903	0	388588	234
760	1	decision	trialStart	2	65	5	foodImage.7	FOODEEG_Images\0116.jpg	YN	Left	Yes	0.856663399999888	0	389121	251
761.04296875	2	decision	foodImageDisplay	2	65	5	foodImage.7	FOODEEG_Images\0116.jpg	YN	Left	Yes	0.856663399999888	0	389655	252
763.109375	0.856663399999888	decision	choicePhaseStart	2	65	5	foodImage.7	FOODEEG_Images\0116.jpg	YN	Left	Yes	0.856663399999888	0	390713	253
763.958984375	0	decision	response	2	65	5	foodImage.7	FOODEEG_Images\0116.jpg	YN	Left	Yes	0.856663399999888	0	391148	234
765.001953125	1	health	trialStart	2	66	6	foodImage.88	FOODEEG_Images\0878.jpg	NY	Left	No	1.26481429999876	0	391682	251
766.072265625	2	health	foodImageDisplay	2	66	6	foodImage.88	FOODEEG_Images\0878.jpg	NY	Left	No	1.26481429999876	0	392230	252
768.140625	1.26481429999876	health	choicePhaseStart	2	66	6	foodImage.88	FOODEEG_Images\0878.jpg	NY	Left	No	1.26481429999876	0	393289	253
769.3984375	0	health	response	2	66	6	foodImage.88	FOODEEG_Images\0878.jpg	NY	Left	No	1.26481429999876	0	393933	234
770.443359375	1	health	trialStart	2	67	7	foodImage.6	FOODEEG_Images\0113.jpg	YN	Right	No	0.604618100000152	0	394468	251
771.482421875	2	health	foodImageDisplay	2	67	7	foodImage.6	FOODEEG_Images\0113.jpg	YN	Right	No	0.604618100000152	0	395000	252
773.546875	0.604618100000152	health	choicePhaseStart	2	67	7	foodImage.6	FOODEEG_Images\0113.jpg	YN	Right	No	0.604618100000152	0	396057	253
774.142578125	0	health	response	2	67	7	foodImage.6	FOODEEG_Images\0113.jpg	YN	Right	No	0.604618100000152	0	396362	235
775.18359375	1	taste	trialStart	2	68	8	foodImage.63	FOODEEG_Images\0645.jpg	NY	Right	Yes	1.36757589999979	0	396895	251
776.224609375	2	taste	foodImageDisplay	2	68	8	foodImage.63	FOODEEG_Images\0645.jpg	NY	Right	Yes	1.36757589999979	0	397428	252
778.29296875	1.36757589999979	taste	choicePhaseStart	2	68	8	foodImage.63	FOODEEG_Images\0645.jpg	NY	Right	Yes	1.36757589999979	0	398487	253
779.654296875	0	taste	response	2	68	8	foodImage.63	FOODEEG_Images\0645.jpg	NY	Right	Yes	1.36757589999979	0	399184	235
780.6953125	1	decision	trialStart	2	69	9	foodImage.104	FOODEEG_Images\0912.jpg	NY	Right	Yes	0.969749199999569	0	399717	251
781.734375	2	decision	foodImageDisplay	2	69	9	foodImage.104	FOODEEG_Images\0912.jpg	NY	Right	Yes	0.969749199999569	0	400249	252
783.796875	0.969749199999569	decision	choicePhaseStart	2	69	9	foodImage.104	FOODEEG_Images\0912.jpg	NY	Right	Yes	0.969749199999569	0	401305	253
784.7578125	0	decision	response	2	69	9	foodImage.104	FOODEEG_Images\0912.jpg	NY	Right	Yes	0.969749199999569	0	401797	235
785.798828125	1	taste	trialStart	2	70	10	foodImage.33	FOODEEG_Images\0329.jpg	NY	Right	Yes	1.19830739999998	0	402330	251
786.841796875	2	taste	foodImageDisplay	2	70	10	foodImage.33	FOODEEG_Images\0329.jpg	NY	Right	Yes	1.19830739999998	0	402864	252
788.904296875	1.19830739999998	taste	choicePhaseStart	2	70	10	foodImage.33	FOODEEG_Images\0329.jpg	NY	Right	Yes	1.19830739999998	0	403920	253
790.09375	0	taste	response	2	70	10	foodImage.33	FOODEEG_Images\0329.jpg	NY	Right	Yes	1.19830739999998	0	404529	235
791.13671875	1	taste	trialStart	2	71	11	foodImage.79	FOODEEG_Images\0794.jpg	NY	Right	Yes	0.960184499999741	0	405063	251
792.181640625	2	taste	foodImageDisplay	2	71	11	foodImage.79	FOODEEG_Images\0794.jpg	NY	Right	Yes	0.960184499999741	0	405598	252
794.24609375	0.960184499999741	taste	choicePhaseStart	2	71	11	foodImage.79	FOODEEG_Images\0794.jpg	NY	Right	Yes	0.960184499999741	0	406655	253
795.197265625	0	taste	response	2	71	11	foodImage.79	FOODEEG_Images\0794.jpg	NY	Right	Yes	0.960184499999741	0	407142	235
796.240234375	1	decision	trialStart	2	72	12	foodImage.91	FOODEEG_Images\0896.jpg	YN	Left	Yes	1.22544899999957	0	407676	251
797.296875	2	decision	foodImageDisplay	2	72	12	foodImage.91	FOODEEG_Images\0896.jpg	YN	Left	Yes	1.22544899999957	0	408217	252
799.37109375	1.22544899999957	decision	choicePhaseStart	2	72	12	foodImage.91	FOODEEG_Images\0896.jpg	YN	Left	Yes	1.22544899999957	0	409279	253
800.58984375	0	decision	response	2	72	12	foodImage.91	FOODEEG_Images\0896.jpg	YN	Left	Yes	1.22544899999957	0	409903	234
801.6328125	1	taste	trialStart	2	73	13	foodImage.15	FOODEEG_Images\0189.jpg	NY	Right	Yes	1.06039310000051	0	410437	251
802.693359375	2	taste	foodImageDisplay	2	73	13	foodImage.15	FOODEEG_Images\0189.jpg	NY	Right	Yes	1.06039310000051	0	410980	252
804.75390625	1.06039310000051	taste	choicePhaseStart	2	73	13	foodImage.15	FOODEEG_Images\0189.jpg	NY	Right	Yes	1.06039310000051	0	412035	253
805.8046875	0	taste	response	2	73	13	foodImage.15	FOODEEG_Images\0189.jpg	NY	Right	Yes	1.06039310000051	0	412573	235
806.845703125	1	health	trialStart	2	74	14	foodImage.57	FOODEEG_Images\0587.jpg	YN	Right	No	1.46977689999949	0	413106	251
807.888671875	2	health	foodImageDisplay	2	74	14	foodImage.57	FOODEEG_Images\0587.jpg	YN	Right	No	1.46977689999949	0	413640	252
809.953125	1.46977689999949	health	choicePhaseStart	2	74	14	foodImage.57	FOODEEG_Images\0587.jpg	YN	Right	No	1.46977689999949	0	414697	253
811.412109375	0	health	response	2	74	14	foodImage.57	FOODEEG_Images\0587.jpg	YN	Right	No	1.46977689999949	0	415444	235
812.455078125	1	decision	trialStart	2	75	15	foodImage.95	FOODEEG_Images\0903.jpg	YN	Right	No	0.529137899999114	0	415978	251
813.494140625	2	decision	foodImageDisplay	2	75	15	foodImage.95	FOODEEG_Images\0903.jpg	YN	Right	No	0.529137899999114	0	416510	252
815.5625	0.529137899999114	decision	choicePhaseStart	2	75	15	foodImage.95	FOODEEG_Images\0903.jpg	YN	Right	No	0.529137899999114	0	417569	253
816.083984375	0	decision	response	2	75	15	foodImage.95	FOODEEG_Images\0903.jpg	YN	Right	No	0.529137899999114	0	417836	235
817.126953125	1	health	trialStart	2	76	16	foodImage.69	FOODEEG_Images\0693.jpg	NY	Left	No	1.11427209999965	0	418370	251
818.171875	2	health	foodImageDisplay	2	76	16	foodImage.69	FOODEEG_Images\0693.jpg	NY	Left	No	1.11427209999965	0	418905	252
820.234375	1.11427209999965	health	choicePhaseStart	2	76	16	foodImage.69	FOODEEG_Images\0693.jpg	NY	Left	No	1.11427209999965	0	419961	253
821.33984375	0	health	response	2	76	16	foodImage.69	FOODEEG_Images\0693.jpg	NY	Left	No	1.11427209999965	0	420527	234
822.3828125	1	taste	trialStart	2	77	17	foodImage.49	FOODEEG_Images\0515.jpg	NY	Right	Yes	0.651415300000735	0	421061	251
823.42578125	2	taste	foodImageDisplay	2	77	17	foodImage.49	FOODEEG_Images\0515.jpg	NY	Right	Yes	0.651415300000735	0	421595	252
825.490234375	0.651415300000735	taste	choicePhaseStart	2	77	17	foodImage.49	FOODEEG_Images\0515.jpg	NY	Right	Yes	0.651415300000735	0	422652	253
826.1328125	0	taste	response	2	77	17	foodImage.49	FOODEEG_Images\0515.jpg	NY	Right	Yes	0.651415300000735	0	422981	235
827.173828125	1	taste	trialStart	2	78	18	foodImage.88	FOODEEG_Images\0878.jpg	YN	Left	Yes	0.95493069999975	0	423514	251
828.23046875	2	taste	foodImageDisplay	2	78	18	foodImage.88	FOODEEG_Images\0878.jpg	YN	Left	Yes	0.95493069999975	0	424055	252
830.294921875	0.95493069999975	taste	choicePhaseStart	2	78	18	foodImage.88	FOODEEG_Images\0878.jpg	YN	Left	Yes	0.95493069999975	0	425112	253
831.244140625	0	taste	response	2	78	18	foodImage.88	FOODEEG_Images\0878.jpg	YN	Left	Yes	0.95493069999975	0	425598	234
832.2890625	1	decision	trialStart	2	79	19	foodImage.36	FOODEEG_Images\0352.jpg	YN	Left	Yes	0.68458389999978	0	426133	251
833.34375	2	decision	foodImageDisplay	2	79	19	foodImage.36	FOODEEG_Images\0352.jpg	YN	Left	Yes	0.68458389999978	0	426673	252
835.4140625	0.68458389999978	decision	choicePhaseStart	2	79	19	foodImage.36	FOODEEG_Images\0352.jpg	YN	Left	Yes	0.68458389999978	0	427733	253
836.091796875	0	decision	response	2	79	19	foodImage.36	FOODEEG_Images\0352.jpg	YN	Left	Yes	0.68458389999978	0	428080	234
837.134765625	1	decision	trialStart	2	80	20	foodImage.44	FOODEEG_Images\0459.jpg	NY	Right	Yes	1.27303550000033	0	428614	251
838.181640625	2	decision	foodImageDisplay	2	80	20	foodImage.44	FOODEEG_Images\0459.jpg	NY	Right	Yes	1.27303550000033	0	429150	252
840.25	1.27303550000033	decision	choicePhaseStart	2	80	20	foodImage.44	FOODEEG_Images\0459.jpg	NY	Right	Yes	1.27303550000033	0	430209	253
841.515625	0	decision	response	2	80	20	foodImage.44	FOODEEG_Images\0459.jpg	NY	Right	Yes	1.27303550000033	0	430857	235
842.564453125	1	health	trialStart	2	81	21	foodImage.111	FOODEEG_Images\0919.jpg	YN	Right	No	1.13528849999966	0	431394	251
843.6015625	2	health	foodImageDisplay	2	81	21	foodImage.111	FOODEEG_Images\0919.jpg	YN	Right	No	1.13528849999966	0	431925	252
845.669921875	1.13528849999966	health	choicePhaseStart	2	81	21	foodImage.111	FOODEEG_Images\0919.jpg	YN	Right	No	1.13528849999966	0	432984	253
846.794921875	0	health	response	2	81	21	foodImage.111	FOODEEG_Images\0919.jpg	YN	Right	No	1.13528849999966	0	433560	235
847.837890625	1	health	trialStart	2	82	22	foodImage.14	FOODEEG_Images\0188.jpg	YN	Right	No	0.629364899999928	0	434094	251
848.896484375	2	health	foodImageDisplay	2	82	22	foodImage.14	FOODEEG_Images\0188.jpg	YN	Right	No	0.629364899999928	0	434636	252
850.958984375	0.629364899999928	health	choicePhaseStart	2	82	22	foodImage.14	FOODEEG_Images\0188.jpg	YN	Right	No	0.629364899999928	0	435692	253
851.578125	0	health	response	2	82	22	foodImage.14	FOODEEG_Images\0188.jpg	YN	Right	No	0.629364899999928	0	436009	235
852.62109375	1	taste	trialStart	2	83	23	foodImage.9	FOODEEG_Images\0138.jpg	YN	Right	No	0.650994900001024	0	436543	251
853.6796875	2	taste	foodImageDisplay	2	83	23	foodImage.9	FOODEEG_Images\0138.jpg	YN	Right	No	0.650994900001024	0	437085	252
855.74609375	0.650994900001024	taste	choicePhaseStart	2	83	23	foodImage.9	FOODEEG_Images\0138.jpg	YN	Right	No	0.650994900001024	0	438143	253
856.38671875	0	taste	response	2	83	23	foodImage.9	FOODEEG_Images\0138.jpg	YN	Right	No	0.650994900001024	0	438471	235
857.4296875	1	decision	trialStart	2	84	24	foodImage.94	FOODEEG_Images\0902.jpg	YN	Right	No	0.591655599999285	0	439005	251
858.46875	2	decision	foodImageDisplay	2	84	24	foodImage.94	FOODEEG_Images\0902.jpg	YN	Right	No	0.591655599999285	0	439537	252
860.533203125	0.591655599999285	decision	choicePhaseStart	2	84	24	foodImage.94	FOODEEG_Images\0902.jpg	YN	Right	No	0.591655599999285	0	440594	253
861.115234375	0	decision	response	2	84	24	foodImage.94	FOODEEG_Images\0902.jpg	YN	Right	No	0.591655599999285	0	440892	235
862.158203125	1	health	trialStart	2	85	25	foodImage.90	FOODEEG_Images\0890.jpg	NY	Left	No	1.27585980000003	0	441426	251
863.216796875	2	health	foodImageDisplay	2	85	25	foodImage.90	FOODEEG_Images\0890.jpg	NY	Left	No	1.27585980000003	0	441968	252
865.28515625	1.27585980000003	health	choicePhaseStart	2	85	25	foodImage.90	FOODEEG_Images\0890.jpg	NY	Left	No	1.27585980000003	0	443027	253
866.5546875	0	health	response	2	85	25	foodImage.90	FOODEEG_Images\0890.jpg	NY	Left	No	1.27585980000003	0	443677	234
867.59765625	1	decision	trialStart	2	86	26	foodImage.27	FOODEEG_Images\0263.jpg	YN	Right	No	1.28841259999899	0	444211	251
868.6484375	2	decision	foodImageDisplay	2	86	26	foodImage.27	FOODEEG_Images\0263.jpg	YN	Right	No	1.28841259999899	0	444749	252
870.71484375	1.28841259999899	decision	choicePhaseStart	2	86	26	foodImage.27	FOODEEG_Images\0263.jpg	YN	Right	No	1.28841259999899	0	445807	253
871.994140625	0	decision	response	2	86	26	foodImage.27	FOODEEG_Images\0263.jpg	YN	Right	No	1.28841259999899	0	446462	235
873.0390625	1	health	trialStart	2	87	27	foodImage.50	FOODEEG_Images\0529.jpg	NY	Right	Yes	1.02825049999956	0	446997	251
874.095703125	2	health	foodImageDisplay	2	87	27	foodImage.50	FOODEEG_Images\0529.jpg	NY	Right	Yes	1.02825049999956	0	447538	252
876.16015625	1.02825049999956	health	choicePhaseStart	2	87	27	foodImage.50	FOODEEG_Images\0529.jpg	NY	Right	Yes	1.02825049999956	0	448595	253
877.177734375	0	health	response	2	87	27	foodImage.50	FOODEEG_Images\0529.jpg	NY	Right	Yes	1.02825049999956	0	449116	235
878.220703125	1	taste	trialStart	2	88	28	foodImage.102	FOODEEG_Images\0910.jpg	NY	Left	No	0.663541500000065	0	449650	251
879.26171875	2	taste	foodImageDisplay	2	88	28	foodImage.102	FOODEEG_Images\0910.jpg	NY	Left	No	0.663541500000065	0	450183	252
881.330078125	0.663541500000065	taste	choicePhaseStart	2	88	28	foodImage.102	FOODEEG_Images\0910.jpg	NY	Left	No	0.663541500000065	0	451242	253
881.986328125	0	taste	response	2	88	28	foodImage.102	FOODEEG_Images\0910.jpg	NY	Left	No	0.663541500000065	0	451578	234
883.03125	1	taste	trialStart	2	89	29	foodImage.120	FOODEEG_Images\0928.jpg	NY	Left	No	0.868569500000376	0	452113	251
884.072265625	2	taste	foodImageDisplay	2	89	29	foodImage.120	FOODEEG_Images\0928.jpg	NY	Left	No	0.868569500000376	0	452646	252
886.140625	0.868569500000376	taste	choicePhaseStart	2	89	29	foodImage.120	FOODEEG_Images\0928.jpg	NY	Left	No	0.868569500000376	0	453705	253
887.001953125	0	taste	response	2	89	29	foodImage.120	FOODEEG_Images\0928.jpg	NY	Left	No	0.868569500000376	0	454146	234
888.044921875	1	health	trialStart	2	90	30	foodImage.94	FOODEEG_Images\0902.jpg	YN	Right	No	0.726268399999753	0	454680	251
889.08203125	2	health	foodImageDisplay	2	90	30	foodImage.94	FOODEEG_Images\0902.jpg	YN	Right	No	0.726268399999753	0	455211	252
891.1484375	0.726268399999753	health	choicePhaseStart	2	90	30	foodImage.94	FOODEEG_Images\0902.jpg	YN	Right	No	0.726268399999753	0	456269	253
891.865234375	0	health	response	2	90	30	foodImage.94	FOODEEG_Images\0902.jpg	YN	Right	No	0.726268399999753	0	456636	235
892.908203125	1	taste	trialStart	2	91	31	foodImage.74	FOODEEG_Images\0752.jpg	NY	Left	No	0.809695299998566	0	457170	251
893.953125	2	taste	foodImageDisplay	2	91	31	foodImage.74	FOODEEG_Images\0752.jpg	NY	Left	No	0.809695299998566	0	457705	252
896.021484375	0.809695299998566	taste	choicePhaseStart	2	91	31	foodImage.74	FOODEEG_Images\0752.jpg	NY	Left	No	0.809695299998566	0	458764	253
896.826171875	0	taste	response	2	91	31	foodImage.74	FOODEEG_Images\0752.jpg	NY	Left	No	0.809695299998566	0	459176	234
897.8671875	1	taste	trialStart	2	92	32	foodImage.45	FOODEEG_Images\0478.jpg	NY	Right	Yes	0.402629700000034	0	459709	251
898.9140625	2	taste	foodImageDisplay	2	92	32	foodImage.45	FOODEEG_Images\0478.jpg	NY	Right	Yes	0.402629700000034	0	460245	252
900.9765625	0.402629700000034	taste	choicePhaseStart	2	92	32	foodImage.45	FOODEEG_Images\0478.jpg	NY	Right	Yes	0.402629700000034	0	461301	253
901.369140625	0	taste	response	2	92	32	foodImage.45	FOODEEG_Images\0478.jpg	NY	Right	Yes	0.402629700000034	0	461502	235
902.412109375	1	health	trialStart	2	93	33	foodImage.30	FOODEEG_Images\0282.jpg	YN	Left	Yes	0.878667200000564	0	462036	251
903.453125	2	health	foodImageDisplay	2	93	33	foodImage.30	FOODEEG_Images\0282.jpg	YN	Left	Yes	0.878667200000564	0	462569	252
905.521484375	0.878667200000564	health	choicePhaseStart	2	93	33	foodImage.30	FOODEEG_Images\0282.jpg	YN	Left	Yes	0.878667200000564	0	463628	253
906.392578125	0	health	response	2	93	33	foodImage.30	FOODEEG_Images\0282.jpg	YN	Left	Yes	0.878667200000564	0	464074	234
907.443359375	1	health	trialStart	2	94	34	foodImage.42	FOODEEG_Images\0438.jpg	YN	Left	Yes	2.11437560000013	0	464612	251
908.529296875	2	health	foodImageDisplay	2	94	34	foodImage.42	FOODEEG_Images\0438.jpg	YN	Left	Yes	2.11437560000013	0	465168	252
910.591796875	2.11437560000013	health	choicePhaseStart	2	94	34	foodImage.42	FOODEEG_Images\0438.jpg	YN	Left	Yes	2.11437560000013	0	466224	253
912.697265625	0	health	response	2	94	34	foodImage.42	FOODEEG_Images\0438.jpg	YN	Left	Yes	2.11437560000013	0	467302	234
913.740234375	1	decision	trialStart	2	95	35	foodImage.107	FOODEEG_Images\0915.jpg	YN	Right	No	0.646884699999646	0	467836	251
914.779296875	2	decision	foodImageDisplay	2	95	35	foodImage.107	FOODEEG_Images\0915.jpg	YN	Right	No	0.646884699999646	0	468368	252
916.841796875	0.646884699999646	decision	choicePhaseStart	2	95	35	foodImage.107	FOODEEG_Images\0915.jpg	YN	Right	No	0.646884699999646	0	469424	253
917.48046875	0	decision	response	2	95	35	foodImage.107	FOODEEG_Images\0915.jpg	YN	Right	No	0.646884699999646	0	469751	235
918.521484375	1	health	trialStart	2	96	36	foodImage.4	FOODEEG_Images\0065.jpg	YN	Right	No	0.98347560000002	0	470284	251
919.578125	2	health	foodImageDisplay	2	96	36	foodImage.4	FOODEEG_Images\0065.jpg	YN	Right	No	0.98347560000002	0	470825	252
921.642578125	0.98347560000002	health	choicePhaseStart	2	96	36	foodImage.4	FOODEEG_Images\0065.jpg	YN	Right	No	0.98347560000002	0	471882	253
922.6171875	0	health	response	2	96	36	foodImage.4	FOODEEG_Images\0065.jpg	YN	Right	No	0.98347560000002	0	472381	235
923.66015625	1	taste	trialStart	2	97	37	foodImage.66	FOODEEG_Images\0676.jpg	YN	Left	Yes	0.789235899999767	0	472915	251
924.703125	2	taste	foodImageDisplay	2	97	37	foodImage.66	FOODEEG_Images\0676.jpg	YN	Left	Yes	0.789235899999767	0	473449	252
926.771484375	0.789235899999767	taste	choicePhaseStart	2	97	37	foodImage.66	FOODEEG_Images\0676.jpg	YN	Left	Yes	0.789235899999767	0	474508	253
927.552734375	0	taste	response	2	97	37	foodImage.66	FOODEEG_Images\0676.jpg	YN	Left	Yes	0.789235899999767	0	474908	234
928.595703125	1	health	trialStart	2	98	38	foodImage.55	FOODEEG_Images\0567.jpg	NY	Right	Yes	0.848478300000352	0	475442	251
929.658203125	2	health	foodImageDisplay	2	98	38	foodImage.55	FOODEEG_Images\0567.jpg	NY	Right	Yes	0.848478300000352	0	475986	252
931.7265625	0.848478300000352	health	choicePhaseStart	2	98	38	foodImage.55	FOODEEG_Images\0567.jpg	NY	Right	Yes	0.848478300000352	0	477045	253
932.568359375	0	health	response	2	98	38	foodImage.55	FOODEEG_Images\0567.jpg	NY	Right	Yes	0.848478300000352	0	477476	235
933.611328125	1	decision	trialStart	2	99	39	foodImage.78	FOODEEG_Images\0787.jpg	YN	Right	No	0.898953200001415	0	478010	251
934.662109375	2	decision	foodImageDisplay	2	99	39	foodImage.78	FOODEEG_Images\0787.jpg	YN	Right	No	0.898953200001415	0	478548	252
936.7265625	0.898953200001415	decision	choicePhaseStart	2	99	39	foodImage.78	FOODEEG_Images\0787.jpg	YN	Right	No	0.898953200001415	0	479605	253
937.615234375	0	decision	response	2	99	39	foodImage.78	FOODEEG_Images\0787.jpg	YN	Right	No	0.898953200001415	0	480060	235
938.66015625	1	taste	trialStart	2	100	40	foodImage.112	FOODEEG_Images\0920.jpg	YN	Right	No	0.868367900000521	0	480595	251
939.70703125	2	taste	foodImageDisplay	2	100	40	foodImage.112	FOODEEG_Images\0920.jpg	YN	Right	No	0.868367900000521	0	481131	252
941.76953125	0.868367900000521	taste	choicePhaseStart	2	100	40	foodImage.112	FOODEEG_Images\0920.jpg	YN	Right	No	0.868367900000521	0	482187	253
942.630859375	0	taste	response	2	100	40	foodImage.112	FOODEEG_Images\0920.jpg	YN	Right	No	0.868367900000521	0	482628	235
943.673828125	1	health	trialStart	2	101	41	foodImage.68	FOODEEG_Images\0685.jpg	NY	Left	No	1.8555651000006	0	483162	251
944.751953125	2	health	foodImageDisplay	2	101	41	foodImage.68	FOODEEG_Images\0685.jpg	NY	Left	No	1.8555651000006	0	483714	252
946.822265625	1.8555651000006	health	choicePhaseStart	2	101	41	foodImage.68	FOODEEG_Images\0685.jpg	NY	Left	No	1.8555651000006	0	484774	253
948.671875	0	health	response	2	101	41	foodImage.68	FOODEEG_Images\0685.jpg	NY	Left	No	1.8555651000006	0	485721	234
949.712890625	1	decision	trialStart	2	102	42	foodImage.35	FOODEEG_Images\0350.jpg	NY	Left	No	1.1459517000003	0	486254	251
950.765625	2	decision	foodImageDisplay	2	102	42	foodImage.35	FOODEEG_Images\0350.jpg	NY	Left	No	1.1459517000003	0	486793	252
952.8359375	1.1459517000003	decision	choicePhaseStart	2	102	42	foodImage.35	FOODEEG_Images\0350.jpg	NY	Left	No	1.1459517000003	0	487853	253
953.974609375	0	decision	response	2	102	42	foodImage.35	FOODEEG_Images\0350.jpg	NY	Left	No	1.1459517000003	0	488436	234
955.017578125	1	taste	trialStart	2	103	43	foodImage.87	FOODEEG_Images\0873.jpg	NY	Left	No	0.799579900000026	0	488970	251
956.072265625	2	taste	foodImageDisplay	2	103	43	foodImage.87	FOODEEG_Images\0873.jpg	NY	Left	No	0.799579900000026	0	489510	252
958.13671875	0.799579900000026	taste	choicePhaseStart	2	103	43	foodImage.87	FOODEEG_Images\0873.jpg	NY	Left	No	0.799579900000026	0	490567	253
958.92578125	0	taste	response	2	103	43	foodImage.87	FOODEEG_Images\0873.jpg	NY	Left	No	0.799579900000026	0	490971	234
959.96875	1	decision	trialStart	2	104	44	foodImage.28	FOODEEG_Images\0273.jpg	YN	Right	No	0.859517099999721	0	491505	251
961.01171875	2	decision	foodImageDisplay	2	104	44	foodImage.28	FOODEEG_Images\0273.jpg	YN	Right	No	0.859517099999721	0	492039	252
963.076171875	0.859517099999721	decision	choicePhaseStart	2	104	44	foodImage.28	FOODEEG_Images\0273.jpg	YN	Right	No	0.859517099999721	0	493096	253
963.927734375	0	decision	response	2	104	44	foodImage.28	FOODEEG_Images\0273.jpg	YN	Right	No	0.859517099999721	0	493532	235
964.96875	1	health	trialStart	2	105	45	foodImage.32	FOODEEG_Images\0319.jpg	YN	Right	No	0.739548199999263	0	494065	251
966.01171875	2	health	foodImageDisplay	2	105	45	foodImage.32	FOODEEG_Images\0319.jpg	YN	Right	No	0.739548199999263	0	494599	252
968.076171875	0.739548199999263	health	choicePhaseStart	2	105	45	foodImage.32	FOODEEG_Images\0319.jpg	YN	Right	No	0.739548199999263	0	495656	253
968.806640625	0	health	response	2	105	45	foodImage.32	FOODEEG_Images\0319.jpg	YN	Right	No	0.739548199999263	0	496030	235
969.849609375	1	decision	trialStart	2	106	46	foodImage.2	FOODEEG_Images\0028.jpg	YN	Left	Yes	1.15565740000056	0	496564	251
970.890625	2	decision	foodImageDisplay	2	106	46	foodImage.2	FOODEEG_Images\0028.jpg	YN	Left	Yes	1.15565740000056	0	497097	252
972.955078125	1.15565740000056	decision	choicePhaseStart	2	106	46	foodImage.2	FOODEEG_Images\0028.jpg	YN	Left	Yes	1.15565740000056	0	498154	253
974.1015625	0	decision	response	2	106	46	foodImage.2	FOODEEG_Images\0028.jpg	YN	Left	Yes	1.15565740000056	0	498741	234
975.146484375	1	decision	trialStart	2	107	47	foodImage.33	FOODEEG_Images\0329.jpg	YN	Left	Yes	0.548230099999273	0	499276	251
976.189453125	2	decision	foodImageDisplay	2	107	47	foodImage.33	FOODEEG_Images\0329.jpg	YN	Left	Yes	0.548230099999273	0	499810	252
978.259765625	0.548230099999273	decision	choicePhaseStart	2	107	47	foodImage.33	FOODEEG_Images\0329.jpg	YN	Left	Yes	0.548230099999273	0	500870	253
978.798828125	0	decision	response	2	107	47	foodImage.33	FOODEEG_Images\0329.jpg	YN	Left	Yes	0.548230099999273	0	501146	234
979.841796875	1	taste	trialStart	2	108	48	foodImage.10	FOODEEG_Images\0145.jpg	YN	Left	Yes	0.559043900000688	0	501680	251
980.90625	2	taste	foodImageDisplay	2	108	48	foodImage.10	FOODEEG_Images\0145.jpg	YN	Left	Yes	0.559043900000688	0	502225	252
982.9765625	0.559043900000688	taste	choicePhaseStart	2	108	48	foodImage.10	FOODEEG_Images\0145.jpg	YN	Left	Yes	0.559043900000688	0	503285	253
983.525390625	0	taste	response	2	108	48	foodImage.10	FOODEEG_Images\0145.jpg	YN	Left	Yes	0.559043900000688	0	503566	234
984.568359375	1	decision	trialStart	2	109	49	foodImage.73	FOODEEG_Images\0717.jpg	YN	Right	No	0.868658399998822	0	504100	251
985.634765625	2	decision	foodImageDisplay	2	109	49	foodImage.73	FOODEEG_Images\0717.jpg	YN	Right	No	0.868658399998822	0	504646	252
987.69921875	0.868658399998822	decision	choicePhaseStart	2	109	49	foodImage.73	FOODEEG_Images\0717.jpg	YN	Right	No	0.868658399998822	0	505703	253
988.55859375	0	decision	response	2	109	49	foodImage.73	FOODEEG_Images\0717.jpg	YN	Right	No	0.868658399998822	0	506143	235
989.6015625	1	decision	trialStart	2	110	50	foodImage.67	FOODEEG_Images\0679.jpg	NY	Left	No	1.09899039999982	0	506677	251
990.66015625	2	decision	foodImageDisplay	2	110	50	foodImage.67	FOODEEG_Images\0679.jpg	NY	Left	No	1.09899039999982	0	507219	252
992.724609375	1.09899039999982	decision	choicePhaseStart	2	110	50	foodImage.67	FOODEEG_Images\0679.jpg	NY	Left	No	1.09899039999982	0	508276	253
993.814453125	0	decision	response	2	110	50	foodImage.67	FOODEEG_Images\0679.jpg	NY	Left	No	1.09899039999982	0	508834	234
994.859375	1	decision	trialStart	2	111	51	foodImage.64	FOODEEG_Images\0647.jpg	YN	Right	No	1.5341499999995	0	509369	251
995.91796875	2	decision	foodImageDisplay	2	111	51	foodImage.64	FOODEEG_Images\0647.jpg	YN	Right	No	1.5341499999995	0	509911	252
997.984375	1.5341499999995	decision	choicePhaseStart	2	111	51	foodImage.64	FOODEEG_Images\0647.jpg	YN	Right	No	1.5341499999995	0	510969	253
999.509765625	0	decision	response	2	111	51	foodImage.64	FOODEEG_Images\0647.jpg	YN	Right	No	1.5341499999995	0	511750	235
1000.55078125	1	health	trialStart	2	112	52	foodImage.28	FOODEEG_Images\0273.jpg	NY	Left	No	1.27640650000103	0	512283	251
1001.591796875	2	health	foodImageDisplay	2	112	52	foodImage.28	FOODEEG_Images\0273.jpg	NY	Left	No	1.27640650000103	0	512816	252
1003.658203125	1.27640650000103	health	choicePhaseStart	2	112	52	foodImage.28	FOODEEG_Images\0273.jpg	NY	Left	No	1.27640650000103	0	513874	253
1004.92578125	0	health	response	2	112	52	foodImage.28	FOODEEG_Images\0273.jpg	NY	Left	No	1.27640650000103	0	514523	234
1005.966796875	1	decision	trialStart	2	113	53	foodImage.116	FOODEEG_Images\0924.jpg	YN	Right	No	0.862775299998248	0	515056	251
1007.005859375	2	decision	foodImageDisplay	2	113	53	foodImage.116	FOODEEG_Images\0924.jpg	YN	Right	No	0.862775299998248	0	515588	252
1009.068359375	0.862775299998248	decision	choicePhaseStart	2	113	53	foodImage.116	FOODEEG_Images\0924.jpg	YN	Right	No	0.862775299998248	0	516644	253
1009.923828125	0	decision	response	2	113	53	foodImage.116	FOODEEG_Images\0924.jpg	YN	Right	No	0.862775299998248	0	517082	235
1010.966796875	1	taste	trialStart	2	114	54	foodImage.47	FOODEEG_Images\0488.jpg	NY	Right	Yes	0.708276400000614	0	517616	251
1012.01171875	2	taste	foodImageDisplay	2	114	54	foodImage.47	FOODEEG_Images\0488.jpg	NY	Right	Yes	0.708276400000614	0	518151	252
1014.07421875	0.708276400000614	taste	choicePhaseStart	2	114	54	foodImage.47	FOODEEG_Images\0488.jpg	NY	Right	Yes	0.708276400000614	0	519207	253
1014.7734375	0	taste	response	2	114	54	foodImage.47	FOODEEG_Images\0488.jpg	NY	Right	Yes	0.708276400000614	0	519565	235
1015.81640625	1	health	trialStart	2	115	55	foodImage.43	FOODEEG_Images\0445.jpg	YN	Left	Yes	1.00188449999951	0	520099	251
1016.875	2	health	foodImageDisplay	2	115	55	foodImage.43	FOODEEG_Images\0445.jpg	YN	Left	Yes	1.00188449999951	0	520641	252
1018.94140625	1.00188449999951	health	choicePhaseStart	2	115	55	foodImage.43	FOODEEG_Images\0445.jpg	YN	Left	Yes	1.00188449999951	0	521699	253
1019.931640625	0	health	response	2	115	55	foodImage.43	FOODEEG_Images\0445.jpg	YN	Left	Yes	1.00188449999951	0	522206	234
1020.9765625	1	decision	trialStart	2	116	56	foodImage.106	FOODEEG_Images\0914.jpg	YN	Right	No	1.08627689999958	0	522741	251
1022.013671875	2	decision	foodImageDisplay	2	116	56	foodImage.106	FOODEEG_Images\0914.jpg	YN	Right	No	1.08627689999958	0	523272	252
1024.080078125	1.08627689999958	decision	choicePhaseStart	2	116	56	foodImage.106	FOODEEG_Images\0914.jpg	YN	Right	No	1.08627689999958	0	524330	253
1025.15625	0	decision	response	2	116	56	foodImage.106	FOODEEG_Images\0914.jpg	YN	Right	No	1.08627689999958	0	524881	235
1026.197265625	1	taste	trialStart	2	117	57	foodImage.25	FOODEEG_Images\0261.jpg	NY	Left	No	1.79942589999882	0	525414	251
1027.240234375	2	taste	foodImageDisplay	2	117	57	foodImage.25	FOODEEG_Images\0261.jpg	NY	Left	No	1.79942589999882	0	525948	252
1029.30859375	1.79942589999882	taste	choicePhaseStart	2	117	57	foodImage.25	FOODEEG_Images\0261.jpg	NY	Left	No	1.79942589999882	0	527007	253
1031.099609375	0	taste	response	2	117	57	foodImage.25	FOODEEG_Images\0261.jpg	NY	Left	No	1.79942589999882	0	527924	234
1032.142578125	1	decision	trialStart	2	118	58	foodImage.14	FOODEEG_Images\0188.jpg	NY	Left	No	1.31138479999936	0	528458	251
1033.19921875	2	decision	foodImageDisplay	2	118	58	foodImage.14	FOODEEG_Images\0188.jpg	NY	Left	No	1.31138479999936	0	528999	252
1035.26171875	1.31138479999936	decision	choicePhaseStart	2	118	58	foodImage.14	FOODEEG_Images\0188.jpg	NY	Left	No	1.31138479999936	0	530055	253
1036.564453125	0	decision	response	2	118	58	foodImage.14	FOODEEG_Images\0188.jpg	NY	Left	No	1.31138479999936	0	530722	234
1037.607421875	1	health	trialStart	2	119	59	foodImage.110	FOODEEG_Images\0918.jpg	YN	Right	No	0.534908800000267	0	531256	251
1038.646484375	2	health	foodImageDisplay	2	119	59	foodImage.110	FOODEEG_Images\0918.jpg	YN	Right	No	0.534908800000267	0	531788	252
1040.708984375	0.534908800000267	health	choicePhaseStart	2	119	59	foodImage.110	FOODEEG_Images\0918.jpg	YN	Right	No	0.534908800000267	0	532844	253
1041.236328125	0	health	response	2	119	59	foodImage.110	FOODEEG_Images\0918.jpg	YN	Right	No	0.534908800000267	0	533114	235
1042.279296875	1	taste	trialStart	2	120	60	foodImage.116	FOODEEG_Images\0924.jpg	NY	Left	No	0.567943899999591	0	533648	251
1043.318359375	2	taste	foodImageDisplay	2	120	60	foodImage.116	FOODEEG_Images\0924.jpg	NY	Left	No	0.567943899999591	0	534180	252
1045.38671875	0.567943899999591	taste	choicePhaseStart	2	120	60	foodImage.116	FOODEEG_Images\0924.jpg	NY	Left	No	0.567943899999591	0	535239	253
1045.947265625	0	taste	response	2	120	60	foodImage.116	FOODEEG_Images\0924.jpg	NY	Left	No	0.567943899999591	0	535526	234
1047.998046875	15.580078125	n/a	blockEnd	n/a	n/a	n/a	n/a	n/a	n/a	n/a	n/a	n/a	n/a	536576	254
1063.578125	2	n/a	blockStart	3	n/a	n/a	n/a	n/a	n/a	n/a	n/a	n/a	n/a	544553	250
1065.611328125	1	decision	trialStart	3	121	1	foodImage.31	FOODEEG_Images\0294.jpg	YN	Right	No	0.902902499999982	0	545594	251
1066.654296875	2	decision	foodImageDisplay	3	121	1	foodImage.31	FOODEEG_Images\0294.jpg	YN	Right	No	0.902902499999982	0	546128	252
1068.716796875	0.902902499999982	decision	choicePhaseStart	3	121	1	foodImage.31	FOODEEG_Images\0294.jpg	YN	Right	No	0.902902499999982	0	547184	253
1069.611328125	0	decision	response	3	121	1	foodImage.31	FOODEEG_Images\0294.jpg	YN	Right	No	0.902902499999982	0	547642	235
1070.65234375	1	health	trialStart	3	122	2	foodImage.66	FOODEEG_Images\0676.jpg	NY	Left	No	0.987284100001489	0	548175	251
1071.70703125	2	health	foodImageDisplay	3	122	2	foodImage.66	FOODEEG_Images\0676.jpg	NY	Left	No	0.987284100001489	0	548715	252
1073.76953125	0.987284100001489	health	choicePhaseStart	3	122	2	foodImage.66	FOODEEG_Images\0676.jpg	NY	Left	No	0.987284100001489	0	549771	253
1074.74609375	0	health	response	3	122	2	foodImage.66	FOODEEG_Images\0676.jpg	NY	Left	No	0.987284100001489	0	550271	234
1075.791015625	1	health	trialStart	3	123	3	foodImage.35	FOODEEG_Images\0350.jpg	YN	Right	No	0.81183929999861	0	550806	251
1076.830078125	2	health	foodImageDisplay	3	123	3	foodImage.35	FOODEEG_Images\0350.jpg	YN	Right	No	0.81183929999861	0	551338	252
1078.892578125	0.81183929999861	health	choicePhaseStart	3	123	3	foodImage.35	FOODEEG_Images\0350.jpg	YN	Right	No	0.81183929999861	0	552394	253
1079.69921875	0	health	response	3	123	3	foodImage.35	FOODEEG_Images\0350.jpg	YN	Right	No	0.81183929999861	0	552807	235
1080.7421875	1	health	trialStart	3	124	4	foodImage.39	FOODEEG_Images\0367.jpg	YN	Right	No	1.01320839999971	0	553341	251
1081.78125	2	health	foodImageDisplay	3	124	4	foodImage.39	FOODEEG_Images\0367.jpg	YN	Right	No	1.01320839999971	0	553873	252
1083.845703125	1.01320839999971	health	choicePhaseStart	3	124	4	foodImage.39	FOODEEG_Images\0367.jpg	YN	Right	No	1.01320839999971	0	554930	253
1084.849609375	0	health	response	3	124	4	foodImage.39	FOODEEG_Images\0367.jpg	YN	Right	No	1.01320839999971	0	555444	235
1085.89453125	1	taste	trialStart	3	125	5	foodImage.75	FOODEEG_Images\0763.jpg	NY	Right	Yes	0.77961729999879	0	555979	251
1086.939453125	2	taste	foodImageDisplay	3	125	5	foodImage.75	FOODEEG_Images\0763.jpg	NY	Right	Yes	0.77961729999879	0	556514	252
1089.0078125	0.77961729999879	taste	choicePhaseStart	3	125	5	foodImage.75	FOODEEG_Images\0763.jpg	NY	Right	Yes	0.77961729999879	0	557573	253
1089.77734375	0	taste	response	3	125	5	foodImage.75	FOODEEG_Images\0763.jpg	NY	Right	Yes	0.77961729999879	0	557967	235
1090.822265625	1	health	trialStart	3	126	6	foodImage.1	FOODEEG_Images\0004.jpg	YN	Right	No	0.876309500001298	0	558502	251
1091.865234375	2	health	foodImageDisplay	3	126	6	foodImage.1	FOODEEG_Images\0004.jpg	YN	Right	No	0.876309500001298	0	559036	252
1093.93359375	0.876309500001298	health	choicePhaseStart	3	126	6	foodImage.1	FOODEEG_Images\0004.jpg	YN	Right	No	0.876309500001298	0	560095	253
1094.80078125	0	health	response	3	126	6	foodImage.1	FOODEEG_Images\0004.jpg	YN	Right	No	0.876309500001298	0	560539	235
1095.845703125	1	health	trialStart	3	127	7	foodImage.91	FOODEEG_Images\0896.jpg	YN	Right	No	0.794284300000072	0	561074	251
1096.90625	2	health	foodImageDisplay	3	127	7	foodImage.91	FOODEEG_Images\0896.jpg	YN	Right	No	0.794284300000072	0	561617	252
1098.974609375	0.794284300000072	health	choicePhaseStart	3	127	7	foodImage.91	FOODEEG_Images\0896.jpg	YN	Right	No	0.794284300000072	0	562676	253
1099.76171875	0	health	response	3	127	7	foodImage.91	FOODEEG_Images\0896.jpg	YN	Right	No	0.794284300000072	0	563079	235
1100.8046875	1	decision	trialStart	3	128	8	foodImage.105	FOODEEG_Images\0913.jpg	YN	Left	Yes	1.44078100000115	0	563613	251
1101.84375	2	decision	foodImageDisplay	3	128	8	foodImage.105	FOODEEG_Images\0913.jpg	YN	Left	Yes	1.44078100000115	0	564145	252
1103.90625	1.44078100000115	decision	choicePhaseStart	3	128	8	foodImage.105	FOODEEG_Images\0913.jpg	YN	Left	Yes	1.44078100000115	0	565201	253
1105.337890625	0	decision	response	3	128	8	foodImage.105	FOODEEG_Images\0913.jpg	YN	Left	Yes	1.44078100000115	0	565934	234
1106.380859375	1	taste	trialStart	3	129	9	foodImage.73	FOODEEG_Images\0717.jpg	YN	Right	No	0.673468299999513	0	566468	251
1107.439453125	2	taste	foodImageDisplay	3	129	9	foodImage.73	FOODEEG_Images\0717.jpg	YN	Right	No	0.673468299999513	0	567010	252
1109.505859375	0.673468299999513	taste	choicePhaseStart	3	129	9	foodImage.73	FOODEEG_Images\0717.jpg	YN	Right	No	0.673468299999513	0	568068	253
1110.169921875	0	taste	response	3	129	9	foodImage.73	FOODEEG_Images\0717.jpg	YN	Right	No	0.673468299999513	0	568408	235
1111.2109375	1	decision	trialStart	3	130	10	foodImage.21	FOODEEG_Images\0234.jpg	NY	Right	Yes	0.614537499999642	0	568941	251
1112.267578125	2	decision	foodImageDisplay	3	130	10	foodImage.21	FOODEEG_Images\0234.jpg	NY	Right	Yes	0.614537499999642	0	569482	252
1114.33203125	0.614537499999642	decision	choicePhaseStart	3	130	10	foodImage.21	FOODEEG_Images\0234.jpg	NY	Right	Yes	0.614537499999642	0	570539	253
1114.9375	0	decision	response	3	130	10	foodImage.21	FOODEEG_Images\0234.jpg	NY	Right	Yes	0.614537499999642	0	570849	235
1115.98046875	1	health	trialStart	3	131	11	foodImage.84	FOODEEG_Images\0830.jpg	NY	Right	Yes	0.62756090000039	0	571383	251
1117.0390625	2	health	foodImageDisplay	3	131	11	foodImage.84	FOODEEG_Images\0830.jpg	NY	Right	Yes	0.62756090000039	0	571925	252
1119.107421875	0.62756090000039	health	choicePhaseStart	3	131	11	foodImage.84	FOODEEG_Images\0830.jpg	NY	Right	Yes	0.62756090000039	0	572984	253
1119.728515625	0	health	response	3	131	11	foodImage.84	FOODEEG_Images\0830.jpg	NY	Right	Yes	0.62756090000039	0	573302	235
1120.771484375	1	health	trialStart	3	132	12	foodImage.62	FOODEEG_Images\0644.jpg	NY	Right	Yes	1.14226049999888	0	573836	251
1121.830078125	2	health	foodImageDisplay	3	132	12	foodImage.62	FOODEEG_Images\0644.jpg	NY	Right	Yes	1.14226049999888	0	574378	252
1123.8984375	1.14226049999888	health	choicePhaseStart	3	132	12	foodImage.62	FOODEEG_Images\0644.jpg	NY	Right	Yes	1.14226049999888	0	575437	253
1125.033203125	0	health	response	3	132	12	foodImage.62	FOODEEG_Images\0644.jpg	NY	Right	Yes	1.14226049999888	0	576018	235
1126.076171875	1	decision	trialStart	3	133	13	foodImage.32	FOODEEG_Images\0319.jpg	NY	Right	Yes	0.849777900000845	0	576552	251
1127.12109375	2	decision	foodImageDisplay	3	133	13	foodImage.32	FOODEEG_Images\0319.jpg	NY	Right	Yes	0.849777900000845	0	577087	252
1129.18359375	0.849777900000845	decision	choicePhaseStart	3	133	13	foodImage.32	FOODEEG_Images\0319.jpg	NY	Right	Yes	0.849777900000845	0	578143	253
1130.0234375	0	decision	response	3	133	13	foodImage.32	FOODEEG_Images\0319.jpg	NY	Right	Yes	0.849777900000845	0	578573	235
1131.06640625	1	health	trialStart	3	134	14	foodImage.41	FOODEEG_Images\0409.jpg	YN	Left	Yes	0.847676800000045	0	579107	251
1132.115234375	2	health	foodImageDisplay	3	134	14	foodImage.41	FOODEEG_Images\0409.jpg	YN	Left	Yes	0.847676800000045	0	579644	252
1134.177734375	0.847676800000045	health	choicePhaseStart	3	134	14	foodImage.41	FOODEEG_Images\0409.jpg	YN	Left	Yes	0.847676800000045	0	580700	253
1135.015625	0	health	response	3	134	14	foodImage.41	FOODEEG_Images\0409.jpg	YN	Left	Yes	0.847676800000045	0	581129	234
1136.05859375	1	taste	trialStart	3	135	15	foodImage.118	FOODEEG_Images\0926.jpg	NY	Left	No	1.01648430000023	0	581663	251
1137.09765625	2	taste	foodImageDisplay	3	135	15	foodImage.118	FOODEEG_Images\0926.jpg	NY	Left	No	1.01648430000023	0	582195	252
1139.16015625	1.01648430000023	taste	choicePhaseStart	3	135	15	foodImage.118	FOODEEG_Images\0926.jpg	NY	Left	No	1.01648430000023	0	583251	253
1140.16796875	0	taste	response	3	135	15	foodImage.118	FOODEEG_Images\0926.jpg	NY	Left	No	1.01648430000023	0	583767	234
1141.208984375	1	health	trialStart	3	136	16	foodImage.9	FOODEEG_Images\0138.jpg	YN	Right	No	0.600870899999791	0	584300	251
1142.265625	2	health	foodImageDisplay	3	136	16	foodImage.9	FOODEEG_Images\0138.jpg	YN	Right	No	0.600870899999791	0	584841	252
1144.328125	0.600870899999791	health	choicePhaseStart	3	136	16	foodImage.9	FOODEEG_Images\0138.jpg	YN	Right	No	0.600870899999791	0	585897	253
1144.919921875	0	health	response	3	136	16	foodImage.9	FOODEEG_Images\0138.jpg	YN	Right	No	0.600870899999791	0	586200	235
1145.962890625	1	decision	trialStart	3	137	17	foodImage.26	FOODEEG_Images\0262.jpg	YN	Right	No	0.837523300000612	0	586734	251
1147.00390625	2	decision	foodImageDisplay	3	137	17	foodImage.26	FOODEEG_Images\0262.jpg	YN	Right	No	0.837523300000612	0	587267	252
1149.072265625	0.837523300000612	decision	choicePhaseStart	3	137	17	foodImage.26	FOODEEG_Images\0262.jpg	YN	Right	No	0.837523300000612	0	588326	253
1149.90234375	0	decision	response	3	137	17	foodImage.26	FOODEEG_Images\0262.jpg	YN	Right	No	0.837523300000612	0	588751	235
1150.9453125	1	taste	trialStart	3	138	18	foodImage.96	FOODEEG_Images\0904.jpg	NY	Left	No	0.740509499999462	0	589285	251
1151.994140625	2	taste	foodImageDisplay	3	138	18	foodImage.96	FOODEEG_Images\0904.jpg	NY	Left	No	0.740509499999462	0	589822	252
1154.060546875	0.740509499999462	taste	choicePhaseStart	3	138	18	foodImage.96	FOODEEG_Images\0904.jpg	NY	Left	No	0.740509499999462	0	590880	253
1154.791015625	0	taste	response	3	138	18	foodImage.96	FOODEEG_Images\0904.jpg	NY	Left	No	0.740509499999462	0	591254	234
1155.83984375	1	taste	trialStart	3	139	19	foodImage.28	FOODEEG_Images\0273.jpg	NY	Left	No	0.644563699999708	0	591791	251
1156.884765625	2	taste	foodImageDisplay	3	139	19	foodImage.28	FOODEEG_Images\0273.jpg	NY	Left	No	0.644563699999708	0	592326	252
1158.947265625	0.644563699999708	taste	choicePhaseStart	3	139	19	foodImage.28	FOODEEG_Images\0273.jpg	NY	Left	No	0.644563699999708	0	593382	253
1159.583984375	0	taste	response	3	139	19	foodImage.28	FOODEEG_Images\0273.jpg	NY	Left	No	0.644563699999708	0	593708	234
1160.626953125	1	health	trialStart	3	140	20	foodImage.118	FOODEEG_Images\0926.jpg	NY	Left	No	0.481479000000036	0	594242	251
1161.6640625	2	health	foodImageDisplay	3	140	20	foodImage.118	FOODEEG_Images\0926.jpg	NY	Left	No	0.481479000000036	0	594773	252
1163.732421875	0.481479000000036	health	choicePhaseStart	3	140	20	foodImage.118	FOODEEG_Images\0926.jpg	NY	Left	No	0.481479000000036	0	595832	253
1164.20703125	0	health	response	3	140	20	foodImage.118	FOODEEG_Images\0926.jpg	NY	Left	No	0.481479000000036	0	596075	234
1165.25	1	decision	trialStart	3	141	21	foodImage.89	FOODEEG_Images\0881.jpg	YN	Left	Yes	2.38176190000013	0	596609	251
1166.30859375	2	decision	foodImageDisplay	3	141	21	foodImage.89	FOODEEG_Images\0881.jpg	YN	Left	Yes	2.38176190000013	0	597151	252
1168.37109375	2.38176190000013	decision	choicePhaseStart	3	141	21	foodImage.89	FOODEEG_Images\0881.jpg	YN	Left	Yes	2.38176190000013	0	598207	253
1170.7421875	0	decision	response	3	141	21	foodImage.89	FOODEEG_Images\0881.jpg	YN	Left	Yes	2.38176190000013	0	599421	234
1171.787109375	1	taste	trialStart	3	142	22	foodImage.48	FOODEEG_Images\0494.jpg	YN	Right	No	1.06693350000023	0	599956	251
1172.830078125	2	taste	foodImageDisplay	3	142	22	foodImage.48	FOODEEG_Images\0494.jpg	YN	Right	No	1.06693350000023	0	600490	252
1174.8984375	1.06693350000023	taste	choicePhaseStart	3	142	22	foodImage.48	FOODEEG_Images\0494.jpg	YN	Right	No	1.06693350000023	0	601549	253
1175.958984375	0	taste	response	3	142	22	foodImage.48	FOODEEG_Images\0494.jpg	YN	Right	No	1.06693350000023	0	602092	235
1177.001953125	1	taste	trialStart	3	143	23	foodImage.95	FOODEEG_Images\0903.jpg	NY	Left	No	1.02341449999949	0	602626	251
1178.041015625	2	taste	foodImageDisplay	3	143	23	foodImage.95	FOODEEG_Images\0903.jpg	NY	Left	No	1.02341449999949	0	603158	252
1180.103515625	1.02341449999949	taste	choicePhaseStart	3	143	23	foodImage.95	FOODEEG_Images\0903.jpg	NY	Left	No	1.02341449999949	0	604214	253
1181.119140625	0	taste	response	3	143	23	foodImage.95	FOODEEG_Images\0903.jpg	NY	Left	No	1.02341449999949	0	604734	234
1182.158203125	1	health	trialStart	3	144	24	foodImage.98	FOODEEG_Images\0906.jpg	YN	Right	No	0.451773900000262	0	605266	251
1183.197265625	2	health	foodImageDisplay	3	144	24	foodImage.98	FOODEEG_Images\0906.jpg	YN	Right	No	0.451773900000262	0	605798	252
1185.265625	0.451773900000262	health	choicePhaseStart	3	144	24	foodImage.98	FOODEEG_Images\0906.jpg	YN	Right	No	0.451773900000262	0	606857	253
1185.7109375	0	health	response	3	144	24	foodImage.98	FOODEEG_Images\0906.jpg	YN	Right	No	0.451773900000262	0	607085	235
1186.75390625	1	decision	trialStart	3	145	25	foodImage.69	FOODEEG_Images\0693.jpg	NY	Left	No	1.17105079999965	0	607619	251
1187.796875	2	decision	foodImageDisplay	3	145	25	foodImage.69	FOODEEG_Images\0693.jpg	NY	Left	No	1.17105079999965	0	608153	252
1189.859375	1.17105079999965	decision	choicePhaseStart	3	145	25	foodImage.69	FOODEEG_Images\0693.jpg	NY	Left	No	1.17105079999965	0	609209	253
1191.021484375	0	decision	response	3	145	25	foodImage.69	FOODEEG_Images\0693.jpg	NY	Left	No	1.17105079999965	0	609804	234
1192.0625	1	taste	trialStart	3	146	26	foodImage.26	FOODEEG_Images\0262.jpg	YN	Right	No	0.475495099999534	0	610337	251
1193.11328125	2	taste	foodImageDisplay	3	146	26	foodImage.26	FOODEEG_Images\0262.jpg	YN	Right	No	0.475495099999534	0	610875	252
1195.17578125	0.475495099999534	taste	choicePhaseStart	3	146	26	foodImage.26	FOODEEG_Images\0262.jpg	YN	Right	No	0.475495099999534	0	611931	253
1195.646484375	0	taste	response	3	146	26	foodImage.26	FOODEEG_Images\0262.jpg	YN	Right	No	0.475495099999534	0	612172	235
1196.693359375	1	decision	trialStart	3	147	27	foodImage.115	FOODEEG_Images\0923.jpg	NY	Left	No	0.645316599999205	0	612708	251
1197.732421875	2	decision	foodImageDisplay	3	147	27	foodImage.115	FOODEEG_Images\0923.jpg	NY	Left	No	0.645316599999205	0	613240	252
1199.794921875	0.645316599999205	decision	choicePhaseStart	3	147	27	foodImage.115	FOODEEG_Images\0923.jpg	NY	Left	No	0.645316599999205	0	614296	253
1200.4296875	0	decision	response	3	147	27	foodImage.115	FOODEEG_Images\0923.jpg	NY	Left	No	0.645316599999205	0	614621	234
1201.4765625	1	decision	trialStart	3	148	28	foodImage.55	FOODEEG_Images\0567.jpg	NY	Left	No	0.926168399999369	0	615157	251
1202.537109375	2	decision	foodImageDisplay	3	148	28	foodImage.55	FOODEEG_Images\0567.jpg	NY	Left	No	0.926168399999369	0	615700	252
1204.599609375	0.926168399999369	decision	choicePhaseStart	3	148	28	foodImage.55	FOODEEG_Images\0567.jpg	NY	Left	No	0.926168399999369	0	616756	253
1205.517578125	0	decision	response	3	148	28	foodImage.55	FOODEEG_Images\0567.jpg	NY	Left	No	0.926168399999369	0	617226	234
1206.5625	1	taste	trialStart	3	149	29	foodImage.104	FOODEEG_Images\0912.jpg	YN	Left	Yes	0.783047700000679	0	617761	251
1207.599609375	2	taste	foodImageDisplay	3	149	29	foodImage.104	FOODEEG_Images\0912.jpg	YN	Left	Yes	0.783047700000679	0	618292	252
1209.662109375	0.783047700000679	taste	choicePhaseStart	3	149	29	foodImage.104	FOODEEG_Images\0912.jpg	YN	Left	Yes	0.783047700000679	0	619348	253
1210.4375	0	taste	response	3	149	29	foodImage.104	FOODEEG_Images\0912.jpg	YN	Left	Yes	0.783047700000679	0	619745	234
1211.48046875	1	health	trialStart	3	150	30	foodImage.27	FOODEEG_Images\0263.jpg	YN	Left	Yes	1.19980140000007	0	620279	251
1212.54296875	2	health	foodImageDisplay	3	150	30	foodImage.27	FOODEEG_Images\0263.jpg	YN	Left	Yes	1.19980140000007	0	620823	252
1214.60546875	1.19980140000007	health	choicePhaseStart	3	150	30	foodImage.27	FOODEEG_Images\0263.jpg	YN	Left	Yes	1.19980140000007	0	621879	253
1215.796875	0	health	response	3	150	30	foodImage.27	FOODEEG_Images\0263.jpg	YN	Left	Yes	1.19980140000007	0	622489	234
1216.84375	1	health	trialStart	3	151	31	foodImage.47	FOODEEG_Images\0488.jpg	NY	Right	Yes	0.993101699999897	0	623025	251
1217.88671875	2	health	foodImageDisplay	3	151	31	foodImage.47	FOODEEG_Images\0488.jpg	NY	Right	Yes	0.993101699999897	0	623559	252
1219.94921875	0.993101699999897	health	choicePhaseStart	3	151	31	foodImage.47	FOODEEG_Images\0488.jpg	NY	Right	Yes	0.993101699999897	0	624615	253
1220.93359375	0	health	response	3	151	31	foodImage.47	FOODEEG_Images\0488.jpg	NY	Right	Yes	0.993101699999897	0	625119	235
1221.9765625	1	taste	trialStart	3	152	32	foodImage.40	FOODEEG_Images\0373.jpg	YN	Left	Yes	0.972060299998702	0	625653	251
1223.017578125	2	taste	foodImageDisplay	3	152	32	foodImage.40	FOODEEG_Images\0373.jpg	YN	Left	Yes	0.972060299998702	0	626186	252
1225.0859375	0.972060299998702	taste	choicePhaseStart	3	152	32	foodImage.40	FOODEEG_Images\0373.jpg	YN	Left	Yes	0.972060299998702	0	627245	253
1226.052734375	0	taste	response	3	152	32	foodImage.40	FOODEEG_Images\0373.jpg	YN	Left	Yes	0.972060299998702	0	627740	234
1227.095703125	1	taste	trialStart	3	153	33	foodImage.8	FOODEEG_Images\0136.jpg	YN	Left	Yes	2.24308099999871	0	628274	251
1228.13671875	2	taste	foodImageDisplay	3	153	33	foodImage.8	FOODEEG_Images\0136.jpg	YN	Left	Yes	2.24308099999871	0	628807	252
1230.203125	2.24308099999871	taste	choicePhaseStart	3	153	33	foodImage.8	FOODEEG_Images\0136.jpg	YN	Left	Yes	2.24308099999871	0	629865	253
1232.4375	0	taste	response	3	153	33	foodImage.8	FOODEEG_Images\0136.jpg	YN	Left	Yes	2.24308099999871	0	631009	234
1233.48046875	1	taste	trialStart	3	154	34	foodImage.36	FOODEEG_Images\0352.jpg	NY	Right	Yes	1.09031979999963	0	631543	251
1234.537109375	2	taste	foodImageDisplay	3	154	34	foodImage.36	FOODEEG_Images\0352.jpg	NY	Right	Yes	1.09031979999963	0	632084	252
1236.599609375	1.09031979999963	taste	choicePhaseStart	3	154	34	foodImage.36	FOODEEG_Images\0352.jpg	NY	Right	Yes	1.09031979999963	0	633140	253
1237.68359375	0	taste	response	3	154	34	foodImage.36	FOODEEG_Images\0352.jpg	NY	Right	Yes	1.09031979999963	0	633695	235
1238.7265625	1	taste	trialStart	3	155	35	foodImage.84	FOODEEG_Images\0830.jpg	NY	Right	Yes	0.501622099998713	0	634229	251
1239.78515625	2	taste	foodImageDisplay	3	155	35	foodImage.84	FOODEEG_Images\0830.jpg	NY	Right	Yes	0.501622099998713	0	634771	252
1241.853515625	0.501622099998713	taste	choicePhaseStart	3	155	35	foodImage.84	FOODEEG_Images\0830.jpg	NY	Right	Yes	0.501622099998713	0	635830	253
1242.34765625	0	taste	response	3	155	35	foodImage.84	FOODEEG_Images\0830.jpg	NY	Right	Yes	0.501622099998713	0	636083	235
1243.390625	1	taste	trialStart	3	156	36	foodImage.64	FOODEEG_Images\0647.jpg	YN	Left	Yes	1.08373070000016	0	636617	251
1244.447265625	2	taste	foodImageDisplay	3	156	36	foodImage.64	FOODEEG_Images\0647.jpg	YN	Left	Yes	1.08373070000016	0	637158	252
1246.51171875	1.08373070000016	taste	choicePhaseStart	3	156	36	foodImage.64	FOODEEG_Images\0647.jpg	YN	Left	Yes	1.08373070000016	0	638215	253
1247.587890625	0	taste	response	3	156	36	foodImage.64	FOODEEG_Images\0647.jpg	YN	Left	Yes	1.08373070000016	0	638766	234
1248.630859375	1	decision	trialStart	3	157	37	foodImage.19	FOODEEG_Images\0225.jpg	YN	Right	No	0.997868299999027	0	639300	251
1249.671875	2	decision	foodImageDisplay	3	157	37	foodImage.19	FOODEEG_Images\0225.jpg	YN	Right	No	0.997868299999027	0	639833	252
1251.734375	0.997868299999027	decision	choicePhaseStart	3	157	37	foodImage.19	FOODEEG_Images\0225.jpg	YN	Right	No	0.997868299999027	0	640889	253
1252.72265625	0	decision	response	3	157	37	foodImage.19	FOODEEG_Images\0225.jpg	YN	Right	No	0.997868299999027	0	641395	235
1253.767578125	1	decision	trialStart	3	158	38	foodImage.84	FOODEEG_Images\0830.jpg	YN	Left	Yes	1.03741880000052	0	641930	251
1254.82421875	2	decision	foodImageDisplay	3	158	38	foodImage.84	FOODEEG_Images\0830.jpg	YN	Left	Yes	1.03741880000052	0	642471	252
1256.892578125	1.03741880000052	decision	choicePhaseStart	3	158	38	foodImage.84	FOODEEG_Images\0830.jpg	YN	Left	Yes	1.03741880000052	0	643530	253
1257.923828125	0	decision	response	3	158	38	foodImage.84	FOODEEG_Images\0830.jpg	YN	Left	Yes	1.03741880000052	0	644058	234
1258.966796875	1	health	trialStart	3	159	39	foodImage.87	FOODEEG_Images\0873.jpg	NY	Right	Yes	1.34917379999933	0	644592	251
1260.025390625	2	health	foodImageDisplay	3	159	39	foodImage.87	FOODEEG_Images\0873.jpg	NY	Right	Yes	1.34917379999933	0	645134	252
1262.09375	1.34917379999933	health	choicePhaseStart	3	159	39	foodImage.87	FOODEEG_Images\0873.jpg	NY	Right	Yes	1.34917379999933	0	646193	253
1263.435546875	0	health	response	3	159	39	foodImage.87	FOODEEG_Images\0873.jpg	NY	Right	Yes	1.34917379999933	0	646880	235
1264.478515625	1	taste	trialStart	3	160	40	foodImage.20	FOODEEG_Images\0226.jpg	YN	Right	No	1.43340270000044	0	647414	251
1265.53125	2	taste	foodImageDisplay	3	160	40	foodImage.20	FOODEEG_Images\0226.jpg	YN	Right	No	1.43340270000044	0	647953	252
1267.59375	1.43340270000044	taste	choicePhaseStart	3	160	40	foodImage.20	FOODEEG_Images\0226.jpg	YN	Right	No	1.43340270000044	0	649009	253
1269.01953125	0	taste	response	3	160	40	foodImage.20	FOODEEG_Images\0226.jpg	YN	Right	No	1.43340270000044	0	649739	235
1270.0625	1	decision	trialStart	3	161	41	foodImage.93	FOODEEG_Images\0901.jpg	YN	Right	No	0.842869400001291	0	650273	251
1271.103515625	2	decision	foodImageDisplay	3	161	41	foodImage.93	FOODEEG_Images\0901.jpg	YN	Right	No	0.842869400001291	0	650806	252
1273.169921875	0.842869400001291	decision	choicePhaseStart	3	161	41	foodImage.93	FOODEEG_Images\0901.jpg	YN	Right	No	0.842869400001291	0	651864	253
1274.001953125	0	decision	response	3	161	41	foodImage.93	FOODEEG_Images\0901.jpg	YN	Right	No	0.842869400001291	0	652290	235
1275.046875	1	decision	trialStart	3	162	42	foodImage.48	FOODEEG_Images\0494.jpg	NY	Left	No	1.04668409999977	0	652825	251
1276.1015625	2	decision	foodImageDisplay	3	162	42	foodImage.48	FOODEEG_Images\0494.jpg	NY	Left	No	1.04668409999977	0	653365	252
1278.166015625	1.04668409999977	decision	choicePhaseStart	3	162	42	foodImage.48	FOODEEG_Images\0494.jpg	NY	Left	No	1.04668409999977	0	654422	253
1279.203125	0	decision	response	3	162	42	foodImage.48	FOODEEG_Images\0494.jpg	NY	Left	No	1.04668409999977	0	654953	234
1280.251953125	1	decision	trialStart	3	163	43	foodImage.98	FOODEEG_Images\0906.jpg	YN	Right	No	0.458664599998883	0	655490	251
1281.2890625	2	decision	foodImageDisplay	3	163	43	foodImage.98	FOODEEG_Images\0906.jpg	YN	Right	No	0.458664599998883	0	656021	252
1283.357421875	0.458664599998883	decision	choicePhaseStart	3	163	43	foodImage.98	FOODEEG_Images\0906.jpg	YN	Right	No	0.458664599998883	0	657080	253
1283.810546875	0	decision	response	3	163	43	foodImage.98	FOODEEG_Images\0906.jpg	YN	Right	No	0.458664599998883	0	657312	235
1284.859375	1	health	trialStart	3	164	44	foodImage.120	FOODEEG_Images\0928.jpg	YN	Right	No	1.42976180000005	0	657849	251
1285.896484375	2	health	foodImageDisplay	3	164	44	foodImage.120	FOODEEG_Images\0928.jpg	YN	Right	No	1.42976180000005	0	658380	252
1287.96484375	1.42976180000005	health	choicePhaseStart	3	164	44	foodImage.120	FOODEEG_Images\0928.jpg	YN	Right	No	1.42976180000005	0	659439	253
1289.38671875	0	health	response	3	164	44	foodImage.120	FOODEEG_Images\0928.jpg	YN	Right	No	1.42976180000005	0	660167	235
1290.4296875	1	decision	trialStart	3	165	45	foodImage.110	FOODEEG_Images\0918.jpg	YN	Right	No	1.10358869999982	0	660701	251
1291.46875	2	decision	foodImageDisplay	3	165	45	foodImage.110	FOODEEG_Images\0918.jpg	YN	Right	No	1.10358869999982	0	661233	252
1293.53125	1.10358869999982	decision	choicePhaseStart	3	165	45	foodImage.110	FOODEEG_Images\0918.jpg	YN	Right	No	1.10358869999982	0	662289	253
1294.625	0	decision	response	3	165	45	foodImage.110	FOODEEG_Images\0918.jpg	YN	Right	No	1.10358869999982	0	662849	235
1295.66796875	1	taste	trialStart	3	166	46	foodImage.5	FOODEEG_Images\0107.jpg	YN	Left	Yes	0.68585770000027	0	663383	251
1296.7265625	2	taste	foodImageDisplay	3	166	46	foodImage.5	FOODEEG_Images\0107.jpg	YN	Left	Yes	0.68585770000027	0	663925	252
1298.7890625	0.68585770000027	taste	choicePhaseStart	3	166	46	foodImage.5	FOODEEG_Images\0107.jpg	YN	Left	Yes	0.68585770000027	0	664981	253
1299.46484375	0	taste	response	3	166	46	foodImage.5	FOODEEG_Images\0107.jpg	YN	Left	Yes	0.68585770000027	0	665327	234
1300.509765625	1	health	trialStart	3	167	47	foodImage.24	FOODEEG_Images\0250.jpg	NY	Right	Yes	0.701228600000832	0	665862	251
1301.556640625	2	health	foodImageDisplay	3	167	47	foodImage.24	FOODEEG_Images\0250.jpg	NY	Right	Yes	0.701228600000832	0	666398	252
1303.62109375	0.701228600000832	health	choicePhaseStart	3	167	47	foodImage.24	FOODEEG_Images\0250.jpg	NY	Right	Yes	0.701228600000832	0	667455	253
1304.3125	0	health	response	3	167	47	foodImage.24	FOODEEG_Images\0250.jpg	NY	Right	Yes	0.701228600000832	0	667809	235
1305.357421875	1	decision	trialStart	3	168	48	foodImage.23	FOODEEG_Images\0244.jpg	NY	Right	Yes	0.81214700000055	0	668344	251
1306.408203125	2	decision	foodImageDisplay	3	168	48	foodImage.23	FOODEEG_Images\0244.jpg	NY	Right	Yes	0.81214700000055	0	668882	252
1308.470703125	0.81214700000055	decision	choicePhaseStart	3	168	48	foodImage.23	FOODEEG_Images\0244.jpg	NY	Right	Yes	0.81214700000055	0	669938	253
1309.2734375	0	decision	response	3	168	48	foodImage.23	FOODEEG_Images\0244.jpg	NY	Right	Yes	0.81214700000055	0	670349	235
1310.314453125	1	decision	trialStart	3	169	49	foodImage.52	FOODEEG_Images\0539.jpg	NY	Left	No	1.80253300000004	0	670882	251
1311.369140625	2	decision	foodImageDisplay	3	169	49	foodImage.52	FOODEEG_Images\0539.jpg	NY	Left	No	1.80253300000004	0	671422	252
1313.431640625	1.80253300000004	decision	choicePhaseStart	3	169	49	foodImage.52	FOODEEG_Images\0539.jpg	NY	Left	No	1.80253300000004	0	672478	253
1315.224609375	0	decision	response	3	169	49	foodImage.52	FOODEEG_Images\0539.jpg	NY	Left	No	1.80253300000004	0	673396	234
1316.267578125	1	decision	trialStart	3	170	50	foodImage.82	FOODEEG_Images\0805.jpg	NY	Right	Yes	1.54266909999933	0	673930	251
1317.32421875	2	decision	foodImageDisplay	3	170	50	foodImage.82	FOODEEG_Images\0805.jpg	NY	Right	Yes	1.54266909999933	0	674471	252
1319.38671875	1.54266909999933	decision	choicePhaseStart	3	170	50	foodImage.82	FOODEEG_Images\0805.jpg	NY	Right	Yes	1.54266909999933	0	675527	253
1320.919921875	0	decision	response	3	170	50	foodImage.82	FOODEEG_Images\0805.jpg	NY	Right	Yes	1.54266909999933	0	676312	235
1321.962890625	1	decision	trialStart	3	171	51	foodImage.20	FOODEEG_Images\0226.jpg	YN	Right	No	0.671346400000402	0	676846	251
1323.01953125	2	decision	foodImageDisplay	3	171	51	foodImage.20	FOODEEG_Images\0226.jpg	YN	Right	No	0.671346400000402	0	677387	252
1325.08203125	0.671346400000402	decision	choicePhaseStart	3	171	51	foodImage.20	FOODEEG_Images\0226.jpg	YN	Right	No	0.671346400000402	0	678443	253
1325.744140625	0	decision	response	3	171	51	foodImage.20	FOODEEG_Images\0226.jpg	YN	Right	No	0.671346400000402	0	678782	235
1326.787109375	1	taste	trialStart	3	172	52	foodImage.55	FOODEEG_Images\0567.jpg	YN	Left	Yes	0.939341500001319	0	679316	251
1327.84375	2	taste	foodImageDisplay	3	172	52	foodImage.55	FOODEEG_Images\0567.jpg	YN	Left	Yes	0.939341500001319	0	679857	252
1329.908203125	0.939341500001319	taste	choicePhaseStart	3	172	52	foodImage.55	FOODEEG_Images\0567.jpg	YN	Left	Yes	0.939341500001319	0	680914	253
1330.83984375	0	taste	response	3	172	52	foodImage.55	FOODEEG_Images\0567.jpg	YN	Left	Yes	0.939341500001319	0	681391	234
1331.884765625	1	taste	trialStart	3	173	53	foodImage.16	FOODEEG_Images\0196.jpg	NY	Left	No	2.0617542	0	681926	251
1332.94140625	2	taste	foodImageDisplay	3	173	53	foodImage.16	FOODEEG_Images\0196.jpg	NY	Left	No	2.0617542	0	682467	252
1335.00390625	2.0617542	taste	choicePhaseStart	3	173	53	foodImage.16	FOODEEG_Images\0196.jpg	NY	Left	No	2.0617542	0	683523	253
1337.056640625	0	taste	response	3	173	53	foodImage.16	FOODEEG_Images\0196.jpg	NY	Left	No	2.0617542	0	684574	234
1338.099609375	1	taste	trialStart	3	174	54	foodImage.91	FOODEEG_Images\0896.jpg	YN	Left	Yes	0.766518899999937	0	685108	251
1339.154296875	2	taste	foodImageDisplay	3	174	54	foodImage.91	FOODEEG_Images\0896.jpg	YN	Left	Yes	0.766518899999937	0	685648	252
1341.22265625	0.766518899999937	taste	choicePhaseStart	3	174	54	foodImage.91	FOODEEG_Images\0896.jpg	YN	Left	Yes	0.766518899999937	0	686707	253
1341.984375	0	taste	response	3	174	54	foodImage.91	FOODEEG_Images\0896.jpg	YN	Left	Yes	0.766518899999937	0	687097	234
1343.02734375	1	health	trialStart	3	175	55	foodImage.82	FOODEEG_Images\0805.jpg	NY	Right	Yes	1.90443359999881	0	687631	251
1344.080078125	2	health	foodImageDisplay	3	175	55	foodImage.82	FOODEEG_Images\0805.jpg	NY	Right	Yes	1.90443359999881	0	688170	252
1346.142578125	1.90443359999881	health	choicePhaseStart	3	175	55	foodImage.82	FOODEEG_Images\0805.jpg	NY	Right	Yes	1.90443359999881	0	689226	253
1348.0390625	0	health	response	3	175	55	foodImage.82	FOODEEG_Images\0805.jpg	NY	Right	Yes	1.90443359999881	0	690197	235
1349.08203125	1	taste	trialStart	3	176	56	foodImage.69	FOODEEG_Images\0693.jpg	NY	Left	No	1.40610689999994	0	690731	251
1350.125	2	taste	foodImageDisplay	3	176	56	foodImage.69	FOODEEG_Images\0693.jpg	NY	Left	No	1.40610689999994	0	691265	252
1352.193359375	1.40610689999994	taste	choicePhaseStart	3	176	56	foodImage.69	FOODEEG_Images\0693.jpg	NY	Left	No	1.40610689999994	0	692324	253
1353.591796875	0	taste	response	3	176	56	foodImage.69	FOODEEG_Images\0693.jpg	NY	Left	No	1.40610689999994	0	693040	234
1354.63671875	1	taste	trialStart	3	177	57	foodImage.7	FOODEEG_Images\0116.jpg	YN	Left	Yes	0.865472299999965	0	693575	251
1355.677734375	2	taste	foodImageDisplay	3	177	57	foodImage.7	FOODEEG_Images\0116.jpg	YN	Left	Yes	0.865472299999965	0	694108	252
1357.75	0.865472299999965	taste	choicePhaseStart	3	177	57	foodImage.7	FOODEEG_Images\0116.jpg	YN	Left	Yes	0.865472299999965	0	695169	253
1358.607421875	0	taste	response	3	177	57	foodImage.7	FOODEEG_Images\0116.jpg	YN	Left	Yes	0.865472299999965	0	695608	234
1359.650390625	1	decision	trialStart	3	178	58	foodImage.83	FOODEEG_Images\0827.jpg	NY	Right	Yes	2.10517909999908	0	696142	251
1360.7109375	2	decision	foodImageDisplay	3	178	58	foodImage.83	FOODEEG_Images\0827.jpg	NY	Right	Yes	2.10517909999908	0	696685	252
1362.78125	2.10517909999908	decision	choicePhaseStart	3	178	58	foodImage.83	FOODEEG_Images\0827.jpg	NY	Right	Yes	2.10517909999908	0	697745	253
1364.87890625	0	decision	response	3	178	58	foodImage.83	FOODEEG_Images\0827.jpg	NY	Right	Yes	2.10517909999908	0	698819	235
1365.92578125	1	decision	trialStart	3	179	59	foodImage.101	FOODEEG_Images\0909.jpg	YN	Right	No	0.426575500001491	0	699355	251
1366.962890625	2	decision	foodImageDisplay	3	179	59	foodImage.101	FOODEEG_Images\0909.jpg	YN	Right	No	0.426575500001491	0	699886	252
1369.029296875	0.426575500001491	decision	choicePhaseStart	3	179	59	foodImage.101	FOODEEG_Images\0909.jpg	YN	Right	No	0.426575500001491	0	700944	253
1369.447265625	0	decision	response	3	179	59	foodImage.101	FOODEEG_Images\0909.jpg	YN	Right	No	0.426575500001491	0	701158	235
1370.490234375	1	decision	trialStart	3	180	60	foodImage.103	FOODEEG_Images\0911.jpg	NY	Left	No	2.07509000000209	0	701692	251
1371.529296875	2	decision	foodImageDisplay	3	180	60	foodImage.103	FOODEEG_Images\0911.jpg	NY	Left	No	2.07509000000209	0	702224	252
1373.603515625	2.07509000000209	decision	choicePhaseStart	3	180	60	foodImage.103	FOODEEG_Images\0911.jpg	NY	Left	No	2.07509000000209	0	703286	253
1375.669921875	0	decision	response	3	180	60	foodImage.103	FOODEEG_Images\0911.jpg	NY	Left	No	2.07509000000209	0	704344	234
1377.708984375	13.73828125	n/a	blockEnd	n/a	n/a	n/a	n/a	n/a	n/a	n/a	n/a	n/a	n/a	705388	254
1391.447265625	2	n/a	blockStart	4	n/a	n/a	n/a	n/a	n/a	n/a	n/a	n/a	n/a	712422	250
1393.478515625	1	decision	trialStart	4	181	1	foodImage.29	FOODEEG_Images\0278.jpg	NY	Left	No	0.73926670000219	0	713462	251
1394.525390625	2	decision	foodImageDisplay	4	181	1	foodImage.29	FOODEEG_Images\0278.jpg	NY	Left	No	0.73926670000219	0	713998	252
1396.587890625	0.73926670000219	decision	choicePhaseStart	4	181	1	foodImage.29	FOODEEG_Images\0278.jpg	NY	Left	No	0.73926670000219	0	715054	253
1397.318359375	0	decision	response	4	181	1	foodImage.29	FOODEEG_Images\0278.jpg	NY	Left	No	0.73926670000219	0	715428	234
1398.361328125	1	decision	trialStart	4	182	2	foodImage.100	FOODEEG_Images\0908.jpg	YN	Right	No	0.845034299996769	0	715962	251
1399.400390625	2	decision	foodImageDisplay	4	182	2	foodImage.100	FOODEEG_Images\0908.jpg	YN	Right	No	0.845034299996769	0	716494	252
1401.46484375	0.845034299996769	decision	choicePhaseStart	4	182	2	foodImage.100	FOODEEG_Images\0908.jpg	YN	Right	No	0.845034299996769	0	717551	253
1402.302734375	0	decision	response	4	182	2	foodImage.100	FOODEEG_Images\0908.jpg	YN	Right	No	0.845034299996769	0	717980	235
1403.345703125	1	health	trialStart	4	183	3	foodImage.5	FOODEEG_Images\0107.jpg	YN	Right	No	2.49571199999991	0	718514	251
1404.400390625	2	health	foodImageDisplay	4	183	3	foodImage.5	FOODEEG_Images\0107.jpg	YN	Right	No	2.49571199999991	0	719054	252
1406.462890625	2.49571199999991	health	choicePhaseStart	4	183	3	foodImage.5	FOODEEG_Images\0107.jpg	YN	Right	No	2.49571199999991	0	720110	253
1408.94921875	0	health	response	4	183	3	foodImage.5	FOODEEG_Images\0107.jpg	YN	Right	No	2.49571199999991	0	721383	235
1409.9921875	1	health	trialStart	4	184	4	foodImage.46	FOODEEG_Images\0479.jpg	NY	Right	Yes	0.742143600000418	0	721917	251
1411.046875	2	health	foodImageDisplay	4	184	4	foodImage.46	FOODEEG_Images\0479.jpg	NY	Right	Yes	0.742143600000418	0	722457	252
1413.111328125	0.742143600000418	health	choicePhaseStart	4	184	4	foodImage.46	FOODEEG_Images\0479.jpg	NY	Right	Yes	0.742143600000418	0	723514	253
1413.845703125	0	health	response	4	184	4	foodImage.46	FOODEEG_Images\0479.jpg	NY	Right	Yes	0.742143600000418	0	723890	235
1414.89453125	1	taste	trialStart	4	185	5	foodImage.35	FOODEEG_Images\0350.jpg	NY	Right	Yes	0.812109900001815	0	724427	251
1415.931640625	2	taste	foodImageDisplay	4	185	5	foodImage.35	FOODEEG_Images\0350.jpg	NY	Right	Yes	0.812109900001815	0	724958	252
1418	0.812109900001815	taste	choicePhaseStart	4	185	5	foodImage.35	FOODEEG_Images\0350.jpg	NY	Right	Yes	0.812109900001815	0	726017	253
1418.8046875	0	taste	response	4	185	5	foodImage.35	FOODEEG_Images\0350.jpg	NY	Right	Yes	0.812109900001815	0	726429	235
1419.8515625	1	health	trialStart	4	186	6	foodImage.79	FOODEEG_Images\0794.jpg	NY	Right	Yes	0.739447800002381	0	726965	251
1420.892578125	2	health	foodImageDisplay	4	186	6	foodImage.79	FOODEEG_Images\0794.jpg	NY	Right	Yes	0.739447800002381	0	727498	252
1422.9609375	0.739447800002381	health	choicePhaseStart	4	186	6	foodImage.79	FOODEEG_Images\0794.jpg	NY	Right	Yes	0.739447800002381	0	728557	253
1423.693359375	0	health	response	4	186	6	foodImage.79	FOODEEG_Images\0794.jpg	NY	Right	Yes	0.739447800002381	0	728932	235
1424.734375	1	decision	trialStart	4	187	7	foodImage.102	FOODEEG_Images\0910.jpg	YN	Right	No	1.93443169999955	0	729465	251
1425.77734375	2	decision	foodImageDisplay	4	187	7	foodImage.102	FOODEEG_Images\0910.jpg	YN	Right	No	1.93443169999955	0	729999	252
1427.845703125	1.93443169999955	decision	choicePhaseStart	4	187	7	foodImage.102	FOODEEG_Images\0910.jpg	YN	Right	No	1.93443169999955	0	731058	253
1429.771484375	0	decision	response	4	187	7	foodImage.102	FOODEEG_Images\0910.jpg	YN	Right	No	1.93443169999955	0	732044	235
1430.818359375	1	taste	trialStart	4	188	8	foodImage.108	FOODEEG_Images\0916.jpg	YN	Right	No	0.551227600000857	0	732580	251
1431.85546875	2	taste	foodImageDisplay	4	188	8	foodImage.108	FOODEEG_Images\0916.jpg	YN	Right	No	0.551227600000857	0	733111	252
1433.923828125	0.551227600000857	taste	choicePhaseStart	4	188	8	foodImage.108	FOODEEG_Images\0916.jpg	YN	Right	No	0.551227600000857	0	734170	253
1434.46875	0	taste	response	4	188	8	foodImage.108	FOODEEG_Images\0916.jpg	YN	Right	No	0.551227600000857	0	734449	235
1435.51171875	1	health	trialStart	4	189	9	foodImage.96	FOODEEG_Images\0904.jpg	YN	Right	No	0.652832199997647	0	734983	251
1436.5546875	2	health	foodImageDisplay	4	189	9	foodImage.96	FOODEEG_Images\0904.jpg	YN	Right	No	0.652832199997647	0	735517	252
1438.623046875	0.652832199997647	health	choicePhaseStart	4	189	9	foodImage.96	FOODEEG_Images\0904.jpg	YN	Right	No	0.652832199997647	0	736576	253
1439.267578125	0	health	response	4	189	9	foodImage.96	FOODEEG_Images\0904.jpg	YN	Right	No	0.652832199997647	0	736906	235
1440.3125	1	health	trialStart	4	190	10	foodImage.92	FOODEEG_Images\0900.jpg	NY	Left	No	0.662254500002746	0	737441	251
1441.3515625	2	health	foodImageDisplay	4	190	10	foodImage.92	FOODEEG_Images\0900.jpg	NY	Left	No	0.662254500002746	0	737973	252
1443.419921875	0.662254500002746	health	choicePhaseStart	4	190	10	foodImage.92	FOODEEG_Images\0900.jpg	NY	Left	No	0.662254500002746	0	739032	253
1444.076171875	0	health	response	4	190	10	foodImage.92	FOODEEG_Images\0900.jpg	NY	Left	No	0.662254500002746	0	739368	234
1445.123046875	1	health	trialStart	4	191	11	foodImage.95	FOODEEG_Images\0903.jpg	YN	Right	No	0.483583600002021	0	739904	251
1446.162109375	2	health	foodImageDisplay	4	191	11	foodImage.95	FOODEEG_Images\0903.jpg	YN	Right	No	0.483583600002021	0	740436	252
1448.224609375	0.483583600002021	health	choicePhaseStart	4	191	11	foodImage.95	FOODEEG_Images\0903.jpg	YN	Right	No	0.483583600002021	0	741492	253
1448.69921875	0	health	response	4	191	11	foodImage.95	FOODEEG_Images\0903.jpg	YN	Right	No	0.483583600002021	0	741735	235
1449.744140625	1	health	trialStart	4	192	12	foodImage.16	FOODEEG_Images\0196.jpg	YN	Left	Yes	1.31791900000098	0	742270	251
1450.80078125	2	health	foodImageDisplay	4	192	12	foodImage.16	FOODEEG_Images\0196.jpg	YN	Left	Yes	1.31791900000098	0	742811	252
1452.86328125	1.31791900000098	health	choicePhaseStart	4	192	12	foodImage.16	FOODEEG_Images\0196.jpg	YN	Left	Yes	1.31791900000098	0	743867	253
1454.171875	0	health	response	4	192	12	foodImage.16	FOODEEG_Images\0196.jpg	YN	Left	Yes	1.31791900000098	0	744537	234
1455.220703125	1	taste	trialStart	4	193	13	foodImage.39	FOODEEG_Images\0367.jpg	NY	Right	Yes	0.73033199999918	0	745074	251
1456.2578125	2	taste	foodImageDisplay	4	193	13	foodImage.39	FOODEEG_Images\0367.jpg	NY	Right	Yes	0.73033199999918	0	745605	252
