onset	duration	trial_type	event_type	block	trial_total	trial_in_block	food_image_code	food_image_path	button_position	resp_position	resp_choice	choice_rt	resp_too_slow	sample	trigger
235.24609375	2	n/a	blockStart	1	n/a	n/a	n/a	n/a	n/a	n/a	n/a	n/a	n/a	120447	250
237.283203125	1	decision	trialStart	1	1	1	foodImage.14	FOODEEG_Images\0188.jpg	YN	Left	Yes	0.837514999999257	0	121490	251
238.345703125	2	decision	foodImageDisplay	1	1	1	foodImage.14	FOODEEG_Images\0188.jpg	YN	Left	Yes	0.837514999999257	0	122034	252
240.41015625	0.837514999999257	decision	choicePhaseStart	1	1	1	foodImage.14	FOODEEG_Images\0188.jpg	YN	Left	Yes	0.837514999999257	0	123091	253
241.240234375	0	decision	response	1	1	1	foodImage.14	FOODEEG_Images\0188.jpg	YN	Left	Yes	0.837514999999257	0	123516	234
242.337890625	1	health	trialStart	1	2	2	foodImage.21	FOODEEG_Images\0234.jpg	YN	Left	Yes	0.619284000000334	0	124078	251
243.3984375	2	health	foodImageDisplay	1	2	2	foodImage.21	FOODEEG_Images\0234.jpg	YN	Left	Yes	0.619284000000334	0	124621	252
245.4609375	0.619284000000334	health	choicePhaseStart	1	2	2	foodImage.21	FOODEEG_Images\0234.jpg	YN	Left	Yes	0.619284000000334	0	125677	253
246.072265625	0	health	response	1	2	2	foodImage.21	FOODEEG_Images\0234.jpg	YN	Left	Yes	0.619284000000334	0	125990	234
247.125	1	decision	trialStart	1	3	3	foodImage.96	FOODEEG_Images\0904.jpg	YN	Left	Yes	0.623380299999553	0	126529	251
248.1640625	2	decision	foodImageDisplay	1	3	3	foodImage.96	FOODEEG_Images\0904.jpg	YN	Left	Yes	0.623380299999553	0	127061	252
250.23046875	0.623380299999553	decision	choicePhaseStart	1	3	3	foodImage.96	FOODEEG_Images\0904.jpg	YN	Left	Yes	0.623380299999553	0	128119	253
250.84765625	0	decision	response	1	3	3	foodImage.96	FOODEEG_Images\0904.jpg	YN	Left	Yes	0.623380299999553	0	128435	234
251.888671875	1	decision	trialStart	1	4	4	foodImage.35	FOODEEG_Images\0350.jpg	NY	Left	No	1.24216900000101	0	128968	251
252.927734375	2	decision	foodImageDisplay	1	4	4	foodImage.35	FOODEEG_Images\0350.jpg	NY	Left	No	1.24216900000101	0	129500	252
254.994140625	1.24216900000101	decision	choicePhaseStart	1	4	4	foodImage.35	FOODEEG_Images\0350.jpg	NY	Left	No	1.24216900000101	0	130558	253
256.232421875	0	decision	response	1	4	4	foodImage.35	FOODEEG_Images\0350.jpg	NY	Left	No	1.24216900000101	0	131192	234
257.2734375	1	health	trialStart	1	5	5	foodImage.66	FOODEEG_Images\0676.jpg	YN	Right	No	1.13349480000034	0	131725	251
258.322265625	2	health	foodImageDisplay	1	5	5	foodImage.66	FOODEEG_Images\0676.jpg	YN	Right	No	1.13349480000034	0	132262	252
260.38671875	1.13349480000034	health	choicePhaseStart	1	5	5	foodImage.66	FOODEEG_Images\0676.jpg	YN	Right	No	1.13349480000034	0	133319	253
261.51171875	0	health	response	1	5	5	foodImage.66	FOODEEG_Images\0676.jpg	YN	Right	No	1.13349480000034	0	133895	235
262.564453125	1	taste	trialStart	1	6	6	foodImage.103	FOODEEG_Images\0911.jpg	YN	Right	No	0.994807799997943	0	134434	251
263.603515625	2	taste	foodImageDisplay	1	6	6	foodImage.103	FOODEEG_Images\0911.jpg	YN	Right	No	0.994807799997943	0	134966	252
265.66796875	0.994807799997943	taste	choicePhaseStart	1	6	6	foodImage.103	FOODEEG_Images\0911.jpg	YN	Right	No	0.994807799997943	0	136023	253
266.65625	0	taste	response	1	6	6	foodImage.103	FOODEEG_Images\0911.jpg	YN	Right	No	0.994807799997943	0	136529	235
267.697265625	1	decision	trialStart	1	7	7	foodImage.48	FOODEEG_Images\0494.jpg	NY	Right	Yes	0.785142000000633	0	137062	251
268.765625	2	decision	foodImageDisplay	1	7	7	foodImage.48	FOODEEG_Images\0494.jpg	NY	Right	Yes	0.785142000000633	0	137609	252
270.830078125	0.785142000000633	decision	choicePhaseStart	1	7	7	foodImage.48	FOODEEG_Images\0494.jpg	NY	Right	Yes	0.785142000000633	0	138666	253
271.607421875	0	decision	response	1	7	7	foodImage.48	FOODEEG_Images\0494.jpg	NY	Right	Yes	0.785142000000633	0	139064	235
272.650390625	1	taste	trialStart	1	8	8	foodImage.87	FOODEEG_Images\0873.jpg	YN	Right	No	1.10343239999929	0	139598	251
273.7109375	2	taste	foodImageDisplay	1	8	8	foodImage.87	FOODEEG_Images\0873.jpg	YN	Right	No	1.10343239999929	0	140141	252
275.775390625	1.10343239999929	taste	choicePhaseStart	1	8	8	foodImage.87	FOODEEG_Images\0873.jpg	YN	Right	No	1.10343239999929	0	141198	253
276.87109375	0	taste	response	1	8	8	foodImage.87	FOODEEG_Images\0873.jpg	YN	Right	No	1.10343239999929	0	141759	235
277.9140625	1	taste	trialStart	1	9	9	foodImage.93	FOODEEG_Images\0901.jpg	YN	Right	No	0.878977399999712	0	142293	251
278.96875	2	taste	foodImageDisplay	1	9	9	foodImage.93	FOODEEG_Images\0901.jpg	YN	Right	No	0.878977399999712	0	142833	252
281.033203125	0.878977399999712	taste	choicePhaseStart	1	9	9	foodImage.93	FOODEEG_Images\0901.jpg	YN	Right	No	0.878977399999712	0	143890	253
281.904296875	0	taste	response	1	9	9	foodImage.93	FOODEEG_Images\0901.jpg	YN	Right	No	0.878977399999712	0	144336	235
282.94921875	1	decision	trialStart	1	10	10	foodImage.84	FOODEEG_Images\0830.jpg	YN	Left	Yes	0.632118999998056	0	144871	251
284.033203125	2	decision	foodImageDisplay	1	10	10	foodImage.84	FOODEEG_Images\0830.jpg	YN	Left	Yes	0.632118999998056	0	145426	252
286.099609375	0.632118999998056	decision	choicePhaseStart	1	10	10	foodImage.84	FOODEEG_Images\0830.jpg	YN	Left	Yes	0.632118999998056	0	146484	253
286.7265625	0	decision	response	1	10	10	foodImage.84	FOODEEG_Images\0830.jpg	YN	Left	Yes	0.632118999998056	0	146805	234
287.76953125	1	decision	trialStart	1	11	11	foodImage.53	FOODEEG_Images\0547.jpg	YN	Left	Yes	1.50810189999902	0	147339	251
288.84375	2	decision	foodImageDisplay	1	11	11	foodImage.53	FOODEEG_Images\0547.jpg	YN	Left	Yes	1.50810189999902	0	147889	252
290.908203125	1.50810189999902	decision	choicePhaseStart	1	11	11	foodImage.53	FOODEEG_Images\0547.jpg	YN	Left	Yes	1.50810189999902	0	148946	253
292.40625	0	decision	response	1	11	11	foodImage.53	FOODEEG_Images\0547.jpg	YN	Left	Yes	1.50810189999902	0	149713	234
293.447265625	1	decision	trialStart	1	12	12	foodImage.52	FOODEEG_Images\0539.jpg	YN	Left	Yes	0.683924400000251	0	150246	251
294.5078125	2	decision	foodImageDisplay	1	12	12	foodImage.52	FOODEEG_Images\0539.jpg	YN	Left	Yes	0.683924400000251	0	150789	252
296.5703125	0.683924400000251	decision	choicePhaseStart	1	12	12	foodImage.52	FOODEEG_Images\0539.jpg	YN	Left	Yes	0.683924400000251	0	151845	253
297.24609375	0	decision	response	1	12	12	foodImage.52	FOODEEG_Images\0539.jpg	YN	Left	Yes	0.683924400000251	0	152191	234
298.287109375	1	taste	trialStart	1	13	13	foodImage.19	FOODEEG_Images\0225.jpg	YN	Left	Yes	1.09886019999976	0	152724	251
299.330078125	2	taste	foodImageDisplay	1	13	13	foodImage.19	FOODEEG_Images\0225.jpg	YN	Left	Yes	1.09886019999976	0	153258	252
301.400390625	1.09886019999976	taste	choicePhaseStart	1	13	13	foodImage.19	FOODEEG_Images\0225.jpg	YN	Left	Yes	1.09886019999976	0	154318	253
302.494140625	0	taste	response	1	13	13	foodImage.19	FOODEEG_Images\0225.jpg	YN	Left	Yes	1.09886019999976	0	154878	234
303.537109375	1	decision	trialStart	1	14	14	foodImage.29	FOODEEG_Images\0278.jpg	YN	Right	No	0.876524899998913	0	155412	251
304.578125	2	decision	foodImageDisplay	1	14	14	foodImage.29	FOODEEG_Images\0278.jpg	YN	Right	No	0.876524899998913	0	155945	252
306.642578125	0.876524899998913	decision	choicePhaseStart	1	14	14	foodImage.29	FOODEEG_Images\0278.jpg	YN	Right	No	0.876524899998913	0	157002	253
307.509765625	0	decision	response	1	14	14	foodImage.29	FOODEEG_Images\0278.jpg	YN	Right	No	0.876524899998913	0	157446	235
308.55078125	1	health	trialStart	1	15	15	foodImage.56	FOODEEG_Images\0586.jpg	YN	Right	No	2.07502919999752	0	157979	251
309.595703125	2	health	foodImageDisplay	1	15	15	foodImage.56	FOODEEG_Images\0586.jpg	YN	Right	No	2.07502919999752	0	158514	252
311.66015625	2.07502919999752	health	choicePhaseStart	1	15	15	foodImage.56	FOODEEG_Images\0586.jpg	YN	Right	No	2.07502919999752	0	159571	253
313.724609375	0	health	response	1	15	15	foodImage.56	FOODEEG_Images\0586.jpg	YN	Right	No	2.07502919999752	0	160628	235
314.76953125	1	taste	trialStart	1	16	16	foodImage.84	FOODEEG_Images\0830.jpg	YN	Left	Yes	0.636378100000002	0	161163	251
315.826171875	2	taste	foodImageDisplay	1	16	16	foodImage.84	FOODEEG_Images\0830.jpg	YN	Left	Yes	0.636378100000002	0	161704	252
317.888671875	0.636378100000002	taste	choicePhaseStart	1	16	16	foodImage.84	FOODEEG_Images\0830.jpg	YN	Left	Yes	0.636378100000002	0	162760	253
318.517578125	0	taste	response	1	16	16	foodImage.84	FOODEEG_Images\0830.jpg	YN	Left	Yes	0.636378100000002	0	163082	234
319.5625	1	health	trialStart	1	17	17	foodImage.110	FOODEEG_Images\0918.jpg	YN	Right	No	2.80198839999866	0	163617	251
320.603515625	2	health	foodImageDisplay	1	17	17	foodImage.110	FOODEEG_Images\0918.jpg	YN	Right	No	2.80198839999866	0	164150	252
322.66796875	2.80198839999866	health	choicePhaseStart	1	17	17	foodImage.110	FOODEEG_Images\0918.jpg	YN	Right	No	2.80198839999866	0	165207	253
325.4609375	0	health	response	1	17	17	foodImage.110	FOODEEG_Images\0918.jpg	YN	Right	No	2.80198839999866	0	166637	235
326.50390625	1	health	trialStart	1	18	18	foodImage.15	FOODEEG_Images\0189.jpg	YN	Right	No	0.805483800002548	0	167171	251
327.560546875	2	health	foodImageDisplay	1	18	18	foodImage.15	FOODEEG_Images\0189.jpg	YN	Right	No	0.805483800002548	0	167712	252
329.623046875	0.805483800002548	health	choicePhaseStart	1	18	18	foodImage.15	FOODEEG_Images\0189.jpg	YN	Right	No	0.805483800002548	0	168768	253
330.419921875	0	health	response	1	18	18	foodImage.15	FOODEEG_Images\0189.jpg	YN	Right	No	0.805483800002548	0	169176	235
331.466796875	1	decision	trialStart	1	19	19	foodImage.6	FOODEEG_Images\0113.jpg	NY	Left	No	0.874769999998534	0	169712	251
332.529296875	2	decision	foodImageDisplay	1	19	19	foodImage.6	FOODEEG_Images\0113.jpg	NY	Left	No	0.874769999998534	0	170256	252
334.59375	0.874769999998534	decision	choicePhaseStart	1	19	19	foodImage.6	FOODEEG_Images\0113.jpg	NY	Left	No	0.874769999998534	0	171313	253
335.4609375	0	decision	response	1	19	19	foodImage.6	FOODEEG_Images\0113.jpg	NY	Left	No	0.874769999998534	0	171757	234
336.501953125	1	taste	trialStart	1	20	20	foodImage.79	FOODEEG_Images\0794.jpg	YN	Left	Yes	0.59087830000135	0	172290	251
337.55078125	2	taste	foodImageDisplay	1	20	20	foodImage.79	FOODEEG_Images\0794.jpg	YN	Left	Yes	0.59087830000135	0	172827	252
339.61328125	0.59087830000135	taste	choicePhaseStart	1	20	20	foodImage.79	FOODEEG_Images\0794.jpg	YN	Left	Yes	0.59087830000135	0	173883	253
340.1953125	0	taste	response	1	20	20	foodImage.79	FOODEEG_Images\0794.jpg	YN	Left	Yes	0.59087830000135	0	174181	234
341.23828125	1	taste	trialStart	1	21	21	foodImage.20	FOODEEG_Images\0226.jpg	NY	Right	Yes	0.673107200000231	0	174715	251
342.283203125	2	taste	foodImageDisplay	1	21	21	foodImage.20	FOODEEG_Images\0226.jpg	NY	Right	Yes	0.673107200000231	0	175250	252
344.34765625	0.673107200000231	taste	choicePhaseStart	1	21	21	foodImage.20	FOODEEG_Images\0226.jpg	NY	Right	Yes	0.673107200000231	0	176307	253
345.01171875	0	taste	response	1	21	21	foodImage.20	FOODEEG_Images\0226.jpg	NY	Right	Yes	0.673107200000231	0	176647	235
346.0546875	1	taste	trialStart	1	22	22	foodImage.109	FOODEEG_Images\0917.jpg	YN	Right	No	0.87851469999805	0	177181	251
347.09375	2	taste	foodImageDisplay	1	22	22	foodImage.109	FOODEEG_Images\0917.jpg	YN	Right	No	0.87851469999805	0	177713	252
349.158203125	0.87851469999805	taste	choicePhaseStart	1	22	22	foodImage.109	FOODEEG_Images\0917.jpg	YN	Right	No	0.87851469999805	0	178770	253
350.02734375	0	taste	response	1	22	22	foodImage.109	FOODEEG_Images\0917.jpg	YN	Right	No	0.87851469999805	0	179215	235
351.06640625	1	health	trialStart	1	23	23	foodImage.97	FOODEEG_Images\0905.jpg	YN	Right	No	2.38328209999963	0	179747	251
352.109375	2	health	foodImageDisplay	1	23	23	foodImage.97	FOODEEG_Images\0905.jpg	YN	Right	No	2.38328209999963	0	180281	252
354.173828125	2.38328209999963	health	choicePhaseStart	1	23	23	foodImage.97	FOODEEG_Images\0905.jpg	YN	Right	No	2.38328209999963	0	181338	253
356.546875	0	health	response	1	23	23	foodImage.97	FOODEEG_Images\0905.jpg	YN	Right	No	2.38328209999963	0	182553	235
357.587890625	1	decision	trialStart	1	24	24	foodImage.66	FOODEEG_Images\0676.jpg	YN	Left	Yes	1.21454620000077	0	183086	251
358.630859375	2	decision	foodImageDisplay	1	24	24	foodImage.66	FOODEEG_Images\0676.jpg	YN	Left	Yes	1.21454620000077	0	183620	252
360.693359375	1.21454620000077	decision	choicePhaseStart	1	24	24	foodImage.66	FOODEEG_Images\0676.jpg	YN	Left	Yes	1.21454620000077	0	184676	253
361.8984375	0	decision	response	1	24	24	foodImage.66	FOODEEG_Images\0676.jpg	YN	Left	Yes	1.21454620000077	0	185293	234
362.94140625	1	health	trialStart	1	25	25	foodImage.80	FOODEEG_Images\0796.jpg	YN	Left	Yes	0.996036000000458	0	185827	251
364.001953125	2	health	foodImageDisplay	1	25	25	foodImage.80	FOODEEG_Images\0796.jpg	YN	Left	Yes	0.996036000000458	0	186370	252
366.064453125	0.996036000000458	health	choicePhaseStart	1	25	25	foodImage.80	FOODEEG_Images\0796.jpg	YN	Left	Yes	0.996036000000458	0	187426	253
367.05078125	0	health	response	1	25	25	foodImage.80	FOODEEG_Images\0796.jpg	YN	Left	Yes	0.996036000000458	0	187931	234
368.10546875	1	health	trialStart	1	26	26	foodImage.24	FOODEEG_Images\0250.jpg	YN	Left	Yes	0.775842700000794	0	188471	251
369.150390625	2	health	foodImageDisplay	1	26	26	foodImage.24	FOODEEG_Images\0250.jpg	YN	Left	Yes	0.775842700000794	0	189006	252
371.212890625	0.775842700000794	health	choicePhaseStart	1	26	26	foodImage.24	FOODEEG_Images\0250.jpg	YN	Left	Yes	0.775842700000794	0	190062	253
371.978515625	0	health	response	1	26	26	foodImage.24	FOODEEG_Images\0250.jpg	YN	Left	Yes	0.775842700000794	0	190454	234
373.021484375	1	taste	trialStart	1	27	27	foodImage.86	FOODEEG_Images\0844.jpg	NY	Right	Yes	0.983944399999018	0	190988	251
374.08203125	2	taste	foodImageDisplay	1	27	27	foodImage.86	FOODEEG_Images\0844.jpg	NY	Right	Yes	0.983944399999018	0	191531	252
376.146484375	0.983944399999018	taste	choicePhaseStart	1	27	27	foodImage.86	FOODEEG_Images\0844.jpg	NY	Right	Yes	0.983944399999018	0	192588	253
377.123046875	0	taste	response	1	27	27	foodImage.86	FOODEEG_Images\0844.jpg	NY	Right	Yes	0.983944399999018	0	193088	235
378.166015625	1	health	trialStart	1	28	28	foodImage.40	FOODEEG_Images\0373.jpg	YN	Left	Yes	1.73728269999992	0	193622	251
379.2109375	2	health	foodImageDisplay	1	28	28	foodImage.40	FOODEEG_Images\0373.jpg	YN	Left	Yes	1.73728269999992	0	194157	252
381.275390625	1.73728269999992	health	choicePhaseStart	1	28	28	foodImage.40	FOODEEG_Images\0373.jpg	YN	Left	Yes	1.73728269999992	0	195214	253
383.001953125	0	health	response	1	28	28	foodImage.40	FOODEEG_Images\0373.jpg	YN	Left	Yes	1.73728269999992	0	196098	234
384.04296875	1	taste	trialStart	1	29	29	foodImage.65	FOODEEG_Images\0658.jpg	NY	Right	Yes	1.75589409999884	0	196631	251
385.087890625	2	taste	foodImageDisplay	1	29	29	foodImage.65	FOODEEG_Images\0658.jpg	NY	Right	Yes	1.75589409999884	0	197166	252
387.15234375	1.75589409999884	taste	choicePhaseStart	1	29	29	foodImage.65	FOODEEG_Images\0658.jpg	NY	Right	Yes	1.75589409999884	0	198223	253
388.8984375	0	taste	response	1	29	29	foodImage.65	FOODEEG_Images\0658.jpg	NY	Right	Yes	1.75589409999884	0	199117	235
389.939453125	1	decision	trialStart	1	30	30	foodImage.4	FOODEEG_Images\0065.jpg	NY	Right	Yes	0.909702999997535	0	199650	251
390.998046875	2	decision	foodImageDisplay	1	30	30	foodImage.4	FOODEEG_Images\0065.jpg	NY	Right	Yes	0.909702999997535	0	200192	252
393.0625	0.909702999997535	decision	choicePhaseStart	1	30	30	foodImage.4	FOODEEG_Images\0065.jpg	NY	Right	Yes	0.909702999997535	0	201249	253
393.962890625	0	decision	response	1	30	30	foodImage.4	FOODEEG_Images\0065.jpg	NY	Right	Yes	0.909702999997535	0	201710	235
395.00390625	1	health	trialStart	1	31	31	foodImage.108	FOODEEG_Images\0916.jpg	YN	Right	No	1.04198639999959	0	202243	251
396.046875	2	health	foodImageDisplay	1	31	31	foodImage.108	FOODEEG_Images\0916.jpg	YN	Right	No	1.04198639999959	0	202777	252
398.109375	1.04198639999959	health	choicePhaseStart	1	31	31	foodImage.108	FOODEEG_Images\0916.jpg	YN	Right	No	1.04198639999959	0	203833	253
399.146484375	0	health	response	1	31	31	foodImage.108	FOODEEG_Images\0916.jpg	YN	Right	No	1.04198639999959	0	204364	235
400.189453125	1	taste	trialStart	1	32	32	foodImage.15	FOODEEG_Images\0189.jpg	YN	Right	No	1.66216940000231	0	204898	251
401.24609375	2	taste	foodImageDisplay	1	32	32	foodImage.15	FOODEEG_Images\0189.jpg	YN	Right	No	1.66216940000231	0	205439	252
403.30859375	1.66216940000231	taste	choicePhaseStart	1	32	32	foodImage.15	FOODEEG_Images\0189.jpg	YN	Right	No	1.66216940000231	0	206495	253
404.9609375	0	taste	response	1	32	32	foodImage.15	FOODEEG_Images\0189.jpg	YN	Right	No	1.66216940000231	0	207341	235
406.00390625	1	decision	trialStart	1	33	33	foodImage.105	FOODEEG_Images\0913.jpg	YN	Right	No	2.54366200000004	0	207875	251
407.04296875	2	decision	foodImageDisplay	1	33	33	foodImage.105	FOODEEG_Images\0913.jpg	YN	Right	No	2.54366200000004	0	208407	252
409.107421875	2.54366200000004	decision	choicePhaseStart	1	33	33	foodImage.105	FOODEEG_Images\0913.jpg	YN	Right	No	2.54366200000004	0	209464	253
411.640625	0	decision	response	1	33	33	foodImage.105	FOODEEG_Images\0913.jpg	YN	Right	No	2.54366200000004	0	210761	235
412.681640625	1	health	trialStart	1	34	34	foodImage.32	FOODEEG_Images\0319.jpg	NY	Right	Yes	1.75765089999913	0	211294	251
413.7265625	2	health	foodImageDisplay	1	34	34	foodImage.32	FOODEEG_Images\0319.jpg	NY	Right	Yes	1.75765089999913	0	211829	252
415.7890625	1.75765089999913	health	choicePhaseStart	1	34	34	foodImage.32	FOODEEG_Images\0319.jpg	NY	Right	Yes	1.75765089999913	0	212885	253
417.537109375	0	health	response	1	34	34	foodImage.32	FOODEEG_Images\0319.jpg	NY	Right	Yes	1.75765089999913	0	213780	235
418.580078125	1	taste	trialStart	1	35	35	foodImage.16	FOODEEG_Images\0196.jpg	NY	Right	Yes	0.736560800000007	0	214314	251
419.642578125	2	taste	foodImageDisplay	1	35	35	foodImage.16	FOODEEG_Images\0196.jpg	NY	Right	Yes	0.736560800000007	0	214858	252
421.705078125	0.736560800000007	taste	choicePhaseStart	1	35	35	foodImage.16	FOODEEG_Images\0196.jpg	NY	Right	Yes	0.736560800000007	0	215914	253
422.43359375	0	taste	response	1	35	35	foodImage.16	FOODEEG_Images\0196.jpg	NY	Right	Yes	0.736560800000007	0	216287	235
423.474609375	1	health	trialStart	1	36	36	foodImage.114	FOODEEG_Images\0922.jpg	NY	Left	No	2.3561824999997	0	216820	251
424.515625	2	health	foodImageDisplay	1	36	36	foodImage.114	FOODEEG_Images\0922.jpg	NY	Left	No	2.3561824999997	0	217353	252
426.580078125	2.3561824999997	health	choicePhaseStart	1	36	36	foodImage.114	FOODEEG_Images\0922.jpg	NY	Left	No	2.3561824999997	0	218410	253
428.927734375	0	health	response	1	36	36	foodImage.114	FOODEEG_Images\0922.jpg	NY	Left	No	2.3561824999997	0	219612	234
429.970703125	1	health	trialStart	1	37	37	foodImage.30	FOODEEG_Images\0282.jpg	YN	Left	Yes	0.898970900001586	0	220146	251
431.015625	2	health	foodImageDisplay	1	37	37	foodImage.30	FOODEEG_Images\0282.jpg	YN	Left	Yes	0.898970900001586	0	220681	252
433.080078125	0.898970900001586	health	choicePhaseStart	1	37	37	foodImage.30	FOODEEG_Images\0282.jpg	YN	Left	Yes	0.898970900001586	0	221738	253
433.96875	0	health	response	1	37	37	foodImage.30	FOODEEG_Images\0282.jpg	YN	Left	Yes	0.898970900001586	0	222193	234
435.01171875	1	taste	trialStart	1	38	38	foodImage.108	FOODEEG_Images\0916.jpg	NY	Left	No	1.19776469999852	0	222727	251
436.052734375	2	taste	foodImageDisplay	1	38	38	foodImage.108	FOODEEG_Images\0916.jpg	NY	Left	No	1.19776469999852	0	223260	252
438.115234375	1.19776469999852	taste	choicePhaseStart	1	38	38	foodImage.108	FOODEEG_Images\0916.jpg	NY	Left	No	1.19776469999852	0	224316	253
439.3046875	0	taste	response	1	38	38	foodImage.108	FOODEEG_Images\0916.jpg	NY	Left	No	1.19776469999852	0	224925	234
440.3515625	1	taste	trialStart	1	39	39	foodImage.85	FOODEEG_Images\0841.jpg	NY	Right	Yes	1.2707541000018	0	225461	251
441.41015625	2	taste	foodImageDisplay	1	39	39	foodImage.85	FOODEEG_Images\0841.jpg	NY	Right	Yes	1.2707541000018	0	226003	252
443.474609375	1.2707541000018	taste	choicePhaseStart	1	39	39	foodImage.85	FOODEEG_Images\0841.jpg	NY	Right	Yes	1.2707541000018	0	227060	253
444.736328125	0	taste	response	1	39	39	foodImage.85	FOODEEG_Images\0841.jpg	NY	Right	Yes	1.2707541000018	0	227706	235
445.77734375	1	health	trialStart	1	40	40	foodImage.107	FOODEEG_Images\0915.jpg	NY	Left	No	1.48710589999973	0	228239	251
446.818359375	2	health	foodImageDisplay	1	40	40	foodImage.107	FOODEEG_Images\0915.jpg	NY	Left	No	1.48710589999973	0	228772	252
448.880859375	1.48710589999973	health	choicePhaseStart	1	40	40	foodImage.107	FOODEEG_Images\0915.jpg	NY	Left	No	1.48710589999973	0	229828	253
450.359375	0	health	response	1	40	40	foodImage.107	FOODEEG_Images\0915.jpg	NY	Left	No	1.48710589999973	0	230585	234
451.40234375	1	health	trialStart	1	41	41	foodImage.70	FOODEEG_Images\0705.jpg	NY	Left	No	1.89117940000142	0	231119	251
452.4609375	2	health	foodImageDisplay	1	41	41	foodImage.70	FOODEEG_Images\0705.jpg	NY	Left	No	1.89117940000142	0	231661	252
454.525390625	1.89117940000142	health	choicePhaseStart	1	41	41	foodImage.70	FOODEEG_Images\0705.jpg	NY	Left	No	1.89117940000142	0	232718	253
456.408203125	0	health	response	1	41	41	foodImage.70	FOODEEG_Images\0705.jpg	NY	Left	No	1.89117940000142	0	233682	234
457.451171875	1	taste	trialStart	1	42	42	foodImage.116	FOODEEG_Images\0924.jpg	NY	Left	No	0.888105400001223	0	234216	251
458.494140625	2	taste	foodImageDisplay	1	42	42	foodImage.116	FOODEEG_Images\0924.jpg	NY	Left	No	0.888105400001223	0	234750	252
460.556640625	0.888105400001223	taste	choicePhaseStart	1	42	42	foodImage.116	FOODEEG_Images\0924.jpg	NY	Left	No	0.888105400001223	0	235806	253
461.439453125	0	taste	response	1	42	42	foodImage.116	FOODEEG_Images\0924.jpg	NY	Left	No	0.888105400001223	0	236258	234
462.482421875	1	health	trialStart	1	43	43	foodImage.19	FOODEEG_Images\0225.jpg	NY	Right	Yes	1.74238279999918	0	236792	251
463.52734375	2	health	foodImageDisplay	1	43	43	foodImage.19	FOODEEG_Images\0225.jpg	NY	Right	Yes	1.74238279999918	0	237327	252
465.59375	1.74238279999918	health	choicePhaseStart	1	43	43	foodImage.19	FOODEEG_Images\0225.jpg	NY	Right	Yes	1.74238279999918	0	238385	253
467.326171875	0	health	response	1	43	43	foodImage.19	FOODEEG_Images\0225.jpg	NY	Right	Yes	1.74238279999918	0	239272	235
468.365234375	1	health	trialStart	1	44	44	foodImage.94	FOODEEG_Images\0902.jpg	YN	Right	No	1.02485579999848	0	239804	251
469.408203125	2	health	foodImageDisplay	1	44	44	foodImage.94	FOODEEG_Images\0902.jpg	YN	Right	No	1.02485579999848	0	240338	252
471.470703125	1.02485579999848	health	choicePhaseStart	1	44	44	foodImage.94	FOODEEG_Images\0902.jpg	YN	Right	No	1.02485579999848	0	241394	253
472.486328125	0	health	response	1	44	44	foodImage.94	FOODEEG_Images\0902.jpg	YN	Right	No	1.02485579999848	0	241914	235
473.529296875	1	taste	trialStart	1	45	45	foodImage.104	FOODEEG_Images\0912.jpg	NY	Right	Yes	1.46881209999992	0	242448	251
474.5703125	2	taste	foodImageDisplay	1	45	45	foodImage.104	FOODEEG_Images\0912.jpg	NY	Right	Yes	1.46881209999992	0	242981	252
476.634765625	1.46881209999992	taste	choicePhaseStart	1	45	45	foodImage.104	FOODEEG_Images\0912.jpg	NY	Right	Yes	1.46881209999992	0	244038	253
478.09375	0	taste	response	1	45	45	foodImage.104	FOODEEG_Images\0912.jpg	NY	Right	Yes	1.46881209999992	0	244785	235
479.140625	1	health	trialStart	1	46	46	foodImage.73	FOODEEG_Images\0717.jpg	YN	Left	Yes	1.7030706000005	0	245321	251
480.201171875	2	health	foodImageDisplay	1	46	46	foodImage.73	FOODEEG_Images\0717.jpg	YN	Left	Yes	1.7030706000005	0	245864	252
482.265625	1.7030706000005	health	choicePhaseStart	1	46	46	foodImage.73	FOODEEG_Images\0717.jpg	YN	Left	Yes	1.7030706000005	0	246921	253
483.958984375	0	health	response	1	46	46	foodImage.73	FOODEEG_Images\0717.jpg	YN	Left	Yes	1.7030706000005	0	247788	234
485.001953125	1	taste	trialStart	1	47	47	foodImage.101	FOODEEG_Images\0909.jpg	YN	Right	No	0.997354199997062	0	248322	251
486.04296875	2	taste	foodImageDisplay	1	47	47	foodImage.101	FOODEEG_Images\0909.jpg	YN	Right	No	0.997354199997062	0	248855	252
488.10546875	0.997354199997062	taste	choicePhaseStart	1	47	47	foodImage.101	FOODEEG_Images\0909.jpg	YN	Right	No	0.997354199997062	0	249911	253
489.09375	0	taste	response	1	47	47	foodImage.101	FOODEEG_Images\0909.jpg	YN	Right	No	0.997354199997062	0	250417	235
490.146484375	1	decision	trialStart	1	48	48	foodImage.57	FOODEEG_Images\0587.jpg	NY	Right	Yes	1.15121059999728	0	250956	251
491.19921875	2	decision	foodImageDisplay	1	48	48	foodImage.57	FOODEEG_Images\0587.jpg	NY	Right	Yes	1.15121059999728	0	251495	252
493.263671875	1.15121059999728	decision	choicePhaseStart	1	48	48	foodImage.57	FOODEEG_Images\0587.jpg	NY	Right	Yes	1.15121059999728	0	252552	253
494.40625	0	decision	response	1	48	48	foodImage.57	FOODEEG_Images\0587.jpg	NY	Right	Yes	1.15121059999728	0	253137	235
495.453125	1	health	trialStart	1	49	49	foodImage.45	FOODEEG_Images\0478.jpg	NY	Right	Yes	0.705684900000051	0	253673	251
496.5	2	health	foodImageDisplay	1	49	49	foodImage.45	FOODEEG_Images\0478.jpg	NY	Right	Yes	0.705684900000051	0	254209	252
498.564453125	0.705684900000051	health	choicePhaseStart	1	49	49	foodImage.45	FOODEEG_Images\0478.jpg	NY	Right	Yes	0.705684900000051	0	255266	253
499.26171875	0	health	response	1	49	49	foodImage.45	FOODEEG_Images\0478.jpg	NY	Right	Yes	0.705684900000051	0	255623	235
500.302734375	1	taste	trialStart	1	50	50	foodImage.2	FOODEEG_Images\0028.jpg	NY	Right	Yes	0.819514099999651	0	256156	251
501.34765625	2	taste	foodImageDisplay	1	50	50	foodImage.2	FOODEEG_Images\0028.jpg	NY	Right	Yes	0.819514099999651	0	256691	252
503.41015625	0.819514099999651	taste	choicePhaseStart	1	50	50	foodImage.2	FOODEEG_Images\0028.jpg	NY	Right	Yes	0.819514099999651	0	257747	253
504.220703125	0	taste	response	1	50	50	foodImage.2	FOODEEG_Images\0028.jpg	NY	Right	Yes	0.819514099999651	0	258162	235
505.263671875	1	taste	trialStart	1	51	51	foodImage.45	FOODEEG_Images\0478.jpg	NY	Right	Yes	0.665794100001222	0	258696	251
506.310546875	2	taste	foodImageDisplay	1	51	51	foodImage.45	FOODEEG_Images\0478.jpg	NY	Right	Yes	0.665794100001222	0	259232	252
508.373046875	0.665794100001222	taste	choicePhaseStart	1	51	51	foodImage.45	FOODEEG_Images\0478.jpg	NY	Right	Yes	0.665794100001222	0	260288	253
509.029296875	0	taste	response	1	51	51	foodImage.45	FOODEEG_Images\0478.jpg	NY	Right	Yes	0.665794100001222	0	260624	235
510.072265625	1	taste	trialStart	1	52	52	foodImage.80	FOODEEG_Images\0796.jpg	NY	Right	Yes	0.786433900000702	0	261158	251
511.1328125	2	taste	foodImageDisplay	1	52	52	foodImage.80	FOODEEG_Images\0796.jpg	NY	Right	Yes	0.786433900000702	0	261701	252
513.1953125	0.786433900000702	taste	choicePhaseStart	1	52	52	foodImage.80	FOODEEG_Images\0796.jpg	NY	Right	Yes	0.786433900000702	0	262757	253
513.97265625	0	taste	response	1	52	52	foodImage.80	FOODEEG_Images\0796.jpg	NY	Right	Yes	0.786433900000702	0	263155	235
515.01953125	1	health	trialStart	1	53	53	foodImage.37	FOODEEG_Images\0359.jpg	YN	Left	Yes	0.790351199997531	0	263691	251
516.064453125	2	health	foodImageDisplay	1	53	53	foodImage.37	FOODEEG_Images\0359.jpg	YN	Left	Yes	0.790351199997531	0	264226	252
518.12890625	0.790351199997531	health	choicePhaseStart	1	53	53	foodImage.37	FOODEEG_Images\0359.jpg	YN	Left	Yes	0.790351199997531	0	265283	253
518.91015625	0	health	response	1	53	53	foodImage.37	FOODEEG_Images\0359.jpg	YN	Left	Yes	0.790351199997531	0	265683	234
519.951171875	1	decision	trialStart	1	54	54	foodImage.30	FOODEEG_Images\0282.jpg	YN	Left	Yes	2.17831120000119	0	266216	251
520.994140625	2	decision	foodImageDisplay	1	54	54	foodImage.30	FOODEEG_Images\0282.jpg	YN	Left	Yes	2.17831120000119	0	266750	252
523.05859375	2.17831120000119	decision	choicePhaseStart	1	54	54	foodImage.30	FOODEEG_Images\0282.jpg	YN	Left	Yes	2.17831120000119	0	267807	253
525.228515625	0	decision	response	1	54	54	foodImage.30	FOODEEG_Images\0282.jpg	YN	Left	Yes	2.17831120000119	0	268918	234
526.271484375	1	health	trialStart	1	55	55	foodImage.2	FOODEEG_Images\0028.jpg	YN	Right	No	1.33367419999922	0	269452	251
527.3125	2	health	foodImageDisplay	1	55	55	foodImage.2	FOODEEG_Images\0028.jpg	YN	Right	No	1.33367419999922	0	269985	252
529.375	1.33367419999922	health	choicePhaseStart	1	55	55	foodImage.2	FOODEEG_Images\0028.jpg	YN	Right	No	1.33367419999922	0	271041	253
530.701171875	0	health	response	1	55	55	foodImage.2	FOODEEG_Images\0028.jpg	YN	Right	No	1.33367419999922	0	271720	235
531.744140625	1	health	trialStart	1	56	56	foodImage.76	FOODEEG_Images\0766.jpg	YN	Left	Yes	1.04829709999831	0	272254	251
532.7890625	2	health	foodImageDisplay	1	56	56	foodImage.76	FOODEEG_Images\0766.jpg	YN	Left	Yes	1.04829709999831	0	272789	252
534.8515625	1.04829709999831	health	choicePhaseStart	1	56	56	foodImage.76	FOODEEG_Images\0766.jpg	YN	Left	Yes	1.04829709999831	0	273845	253
535.892578125	0	health	response	1	56	56	foodImage.76	FOODEEG_Images\0766.jpg	YN	Left	Yes	1.04829709999831	0	274378	234
536.93359375	1	health	trialStart	1	57	57	foodImage.41	FOODEEG_Images\0409.jpg	YN	Left	Yes	0.789491700001236	0	274911	251
537.984375	2	health	foodImageDisplay	1	57	57	foodImage.41	FOODEEG_Images\0409.jpg	YN	Left	Yes	0.789491700001236	0	275449	252
540.048828125	0.789491700001236	health	choicePhaseStart	1	57	57	foodImage.41	FOODEEG_Images\0409.jpg	YN	Left	Yes	0.789491700001236	0	276506	253
540.828125	0	health	response	1	57	57	foodImage.41	FOODEEG_Images\0409.jpg	YN	Left	Yes	0.789491700001236	0	276905	234
541.869140625	1	decision	trialStart	1	58	58	foodImage.114	FOODEEG_Images\0922.jpg	NY	Left	No	0.937554899999668	0	277438	251
542.908203125	2	decision	foodImageDisplay	1	58	58	foodImage.114	FOODEEG_Images\0922.jpg	NY	Left	No	0.937554899999668	0	277970	252
544.970703125	0.937554899999668	decision	choicePhaseStart	1	58	58	foodImage.114	FOODEEG_Images\0922.jpg	NY	Left	No	0.937554899999668	0	279026	253
545.900390625	0	decision	response	1	58	58	foodImage.114	FOODEEG_Images\0922.jpg	NY	Left	No	0.937554899999668	0	279502	234
546.943359375	1	taste	trialStart	1	59	59	foodImage.90	FOODEEG_Images\0890.jpg	NY	Right	Yes	0.745704699998896	0	280036	251
548.00390625	2	taste	foodImageDisplay	1	59	59	foodImage.90	FOODEEG_Images\0890.jpg	NY	Right	Yes	0.745704699998896	0	280579	252
550.068359375	0.745704699998896	taste	choicePhaseStart	1	59	59	foodImage.90	FOODEEG_Images\0890.jpg	NY	Right	Yes	0.745704699998896	0	281636	253
550.8046875	0	taste	response	1	59	59	foodImage.90	FOODEEG_Images\0890.jpg	NY	Right	Yes	0.745704699998896	0	282013	235
551.84765625	1	decision	trialStart	1	60	60	foodImage.116	FOODEEG_Images\0924.jpg	YN	Right	No	0.781251600001269	0	282547	251
552.88671875	2	decision	foodImageDisplay	1	60	60	foodImage.116	FOODEEG_Images\0924.jpg	YN	Right	No	0.781251600001269	0	283079	252
554.951171875	0.781251600001269	decision	choicePhaseStart	1	60	60	foodImage.116	FOODEEG_Images\0924.jpg	YN	Right	No	0.781251600001269	0	284136	253
555.724609375	0	decision	response	1	60	60	foodImage.116	FOODEEG_Images\0924.jpg	YN	Right	No	0.781251600001269	0	284532	235
557.765625	20.630859375	n/a	blockEnd	n/a	n/a	n/a	n/a	n/a	n/a	n/a	n/a	n/a	n/a	285577	254
578.396484375	2	n/a	blockStart	2	n/a	n/a	n/a	n/a	n/a	n/a	n/a	n/a	n/a	296140	250
580.431640625	1	decision	trialStart	2	61	1	foodImage.79	FOODEEG_Images\0794.jpg	YN	Left	Yes	1.50683109999954	0	297182	251
581.48046875	2	decision	foodImageDisplay	2	61	1	foodImage.79	FOODEEG_Images\0794.jpg	YN	Left	Yes	1.50683109999954	0	297719	252
583.54296875	1.50683109999954	decision	choicePhaseStart	2	61	1	foodImage.79	FOODEEG_Images\0794.jpg	YN	Left	Yes	1.50683109999954	0	298775	253
585.04296875	0	decision	response	2	61	1	foodImage.79	FOODEEG_Images\0794.jpg	YN	Left	Yes	1.50683109999954	0	299543	234
586.087890625	1	decision	trialStart	2	62	2	foodImage.60	FOODEEG_Images\0614.jpg	YN	Right	No	1.13401200000226	0	300078	251
587.146484375	2	decision	foodImageDisplay	2	62	2	foodImage.60	FOODEEG_Images\0614.jpg	YN	Right	No	1.13401200000226	0	300620	252
589.212890625	1.13401200000226	decision	choicePhaseStart	2	62	2	foodImage.60	FOODEEG_Images\0614.jpg	YN	Right	No	1.13401200000226	0	301678	253
590.337890625	0	decision	response	2	62	2	foodImage.60	FOODEEG_Images\0614.jpg	YN	Right	No	1.13401200000226	0	302254	235
591.380859375	1	health	trialStart	2	63	3	foodImage.87	FOODEEG_Images\0873.jpg	YN	Left	Yes	0.822014199999103	0	302788	251
592.4375	2	health	foodImageDisplay	2	63	3	foodImage.87	FOODEEG_Images\0873.jpg	YN	Left	Yes	0.822014199999103	0	303329	252
594.5	0.822014199999103	health	choicePhaseStart	2	63	3	foodImage.87	FOODEEG_Images\0873.jpg	YN	Left	Yes	0.822014199999103	0	304385	253
595.314453125	0	health	response	2	63	3	foodImage.87	FOODEEG_Images\0873.jpg	YN	Left	Yes	0.822014199999103	0	304802	234
596.36328125	1	decision	trialStart	2	64	4	foodImage.74	FOODEEG_Images\0752.jpg	NY	Right	Yes	0.980389000000287	0	305339	251
597.408203125	2	decision	foodImageDisplay	2	64	4	foodImage.74	FOODEEG_Images\0752.jpg	NY	Right	Yes	0.980389000000287	0	305874	252
599.470703125	0.980389000000287	decision	choicePhaseStart	2	64	4	foodImage.74	FOODEEG_Images\0752.jpg	NY	Right	Yes	0.980389000000287	0	306930	253
600.44140625	0	decision	response	2	64	4	foodImage.74	FOODEEG_Images\0752.jpg	NY	Right	Yes	0.980389000000287	0	307427	235
601.484375	1	decision	trialStart	2	65	5	foodImage.89	FOODEEG_Images\0881.jpg	YN	Left	Yes	0.955627999999706	0	307961	251
602.54296875	2	decision	foodImageDisplay	2	65	5	foodImage.89	FOODEEG_Images\0881.jpg	YN	Left	Yes	0.955627999999706	0	308503	252
604.607421875	0.955627999999706	decision	choicePhaseStart	2	65	5	foodImage.89	FOODEEG_Images\0881.jpg	YN	Left	Yes	0.955627999999706	0	309560	253
605.552734375	0	decision	response	2	65	5	foodImage.89	FOODEEG_Images\0881.jpg	YN	Left	Yes	0.955627999999706	0	310044	234
606.595703125	1	decision	trialStart	2	66	6	foodImage.54	FOODEEG_Images\0560.jpg	YN	Left	Yes	1.46668910000153	0	310578	251
607.65625	2	decision	foodImageDisplay	2	66	6	foodImage.54	FOODEEG_Images\0560.jpg	YN	Left	Yes	1.46668910000153	0	311121	252
609.720703125	1.46668910000153	decision	choicePhaseStart	2	66	6	foodImage.54	FOODEEG_Images\0560.jpg	YN	Left	Yes	1.46668910000153	0	312178	253
611.177734375	0	decision	response	2	66	6	foodImage.54	FOODEEG_Images\0560.jpg	YN	Left	Yes	1.46668910000153	0	312924	234
612.220703125	1	decision	trialStart	2	67	7	foodImage.2	FOODEEG_Images\0028.jpg	NY	Right	Yes	0.834686900001543	0	313458	251
613.271484375	2	decision	foodImageDisplay	2	67	7	foodImage.2	FOODEEG_Images\0028.jpg	NY	Right	Yes	0.834686900001543	0	313996	252
615.3359375	0.834686900001543	decision	choicePhaseStart	2	67	7	foodImage.2	FOODEEG_Images\0028.jpg	NY	Right	Yes	0.834686900001543	0	315053	253
616.16015625	0	decision	response	2	67	7	foodImage.2	FOODEEG_Images\0028.jpg	NY	Right	Yes	0.834686900001543	0	315475	235
617.20703125	1	decision	trialStart	2	68	8	foodImage.17	FOODEEG_Images\0199.jpg	NY	Right	Yes	0.675075900002412	0	316011	251
618.248046875	2	decision	foodImageDisplay	2	68	8	foodImage.17	FOODEEG_Images\0199.jpg	NY	Right	Yes	0.675075900002412	0	316544	252
620.3125	0.675075900002412	decision	choicePhaseStart	2	68	8	foodImage.17	FOODEEG_Images\0199.jpg	NY	Right	Yes	0.675075900002412	0	317601	253
620.9765625	0	decision	response	2	68	8	foodImage.17	FOODEEG_Images\0199.jpg	NY	Right	Yes	0.675075900002412	0	317941	235
622.01953125	1	health	trialStart	2	69	9	foodImage.68	FOODEEG_Images\0685.jpg	YN	Right	No	1.30802359999871	0	318475	251
623.095703125	2	health	foodImageDisplay	2	69	9	foodImage.68	FOODEEG_Images\0685.jpg	YN	Right	No	1.30802359999871	0	319026	252
625.158203125	1.30802359999871	health	choicePhaseStart	2	69	9	foodImage.68	FOODEEG_Images\0685.jpg	YN	Right	No	1.30802359999871	0	320082	253
626.45703125	0	health	response	2	69	9	foodImage.68	FOODEEG_Images\0685.jpg	YN	Right	No	1.30802359999871	0	320747	235
627.49609375	1	decision	trialStart	2	70	10	foodImage.102	FOODEEG_Images\0910.jpg	YN	Right	No	0.78034789999947	0	321279	251
628.537109375	2	decision	foodImageDisplay	2	70	10	foodImage.102	FOODEEG_Images\0910.jpg	YN	Right	No	0.78034789999947	0	321812	252
630.611328125	0.78034789999947	decision	choicePhaseStart	2	70	10	foodImage.102	FOODEEG_Images\0910.jpg	YN	Right	No	0.78034789999947	0	322874	253
631.384765625	0	decision	response	2	70	10	foodImage.102	FOODEEG_Images\0910.jpg	YN	Right	No	0.78034789999947	0	323270	235
632.423828125	1	taste	trialStart	2	71	11	foodImage.1	FOODEEG_Images\0004.jpg	NY	Right	Yes	1.03136919999815	0	323802	251
633.482421875	2	taste	foodImageDisplay	2	71	11	foodImage.1	FOODEEG_Images\0004.jpg	NY	Right	Yes	1.03136919999815	0	324344	252
635.546875	1.03136919999815	taste	choicePhaseStart	2	71	11	foodImage.1	FOODEEG_Images\0004.jpg	NY	Right	Yes	1.03136919999815	0	325401	253
636.568359375	0	taste	response	2	71	11	foodImage.1	FOODEEG_Images\0004.jpg	NY	Right	Yes	1.03136919999815	0	325924	235
637.607421875	1	health	trialStart	2	72	12	foodImage.38	FOODEEG_Images\0365.jpg	NY	Right	Yes	2.41117170000143	0	326456	251
638.6640625	2	health	foodImageDisplay	2	72	12	foodImage.38	FOODEEG_Images\0365.jpg	NY	Right	Yes	2.41117170000143	0	326997	252
640.7265625	2.41117170000143	health	choicePhaseStart	2	72	12	foodImage.38	FOODEEG_Images\0365.jpg	NY	Right	Yes	2.41117170000143	0	328053	253
643.12890625	0	health	response	2	72	12	foodImage.38	FOODEEG_Images\0365.jpg	NY	Right	Yes	2.41117170000143	0	329283	235
644.16796875	1	decision	trialStart	2	73	13	foodImage.115	FOODEEG_Images\0923.jpg	YN	Left	Yes	2.01651019999917	0	329815	251
645.208984375	2	decision	foodImageDisplay	2	73	13	foodImage.115	FOODEEG_Images\0923.jpg	YN	Left	Yes	2.01651019999917	0	330348	252
647.2734375	2.01651019999917	decision	choicePhaseStart	2	73	13	foodImage.115	FOODEEG_Images\0923.jpg	YN	Left	Yes	2.01651019999917	0	331405	253
649.279296875	0	decision	response	2	73	13	foodImage.115	FOODEEG_Images\0923.jpg	YN	Left	Yes	2.01651019999917	0	332432	234
650.3203125	1	taste	trialStart	2	74	14	foodImage.66	FOODEEG_Images\0676.jpg	YN	Left	Yes	0.647740799999156	0	332965	251
651.361328125	2	taste	foodImageDisplay	2	74	14	foodImage.66	FOODEEG_Images\0676.jpg	YN	Left	Yes	0.647740799999156	0	333498	252
653.42578125	0.647740799999156	taste	choicePhaseStart	2	74	14	foodImage.66	FOODEEG_Images\0676.jpg	YN	Left	Yes	0.647740799999156	0	334555	253
654.064453125	0	taste	response	2	74	14	foodImage.66	FOODEEG_Images\0676.jpg	YN	Left	Yes	0.647740799999156	0	334882	234
655.10546875	1	health	trialStart	2	75	15	foodImage.69	FOODEEG_Images\0693.jpg	YN	Left	Yes	1.73306229999798	0	335415	251
656.1484375	2	health	foodImageDisplay	2	75	15	foodImage.69	FOODEEG_Images\0693.jpg	YN	Left	Yes	1.73306229999798	0	335949	252
658.21875	1.73306229999798	health	choicePhaseStart	2	75	15	foodImage.69	FOODEEG_Images\0693.jpg	YN	Left	Yes	1.73306229999798	0	337009	253
659.943359375	0	health	response	2	75	15	foodImage.69	FOODEEG_Images\0693.jpg	YN	Left	Yes	1.73306229999798	0	337892	234
660.984375	1	health	trialStart	2	76	16	foodImage.93	FOODEEG_Images\0901.jpg	NY	Left	No	2.44008240000039	0	338425	251
662.0234375	2	health	foodImageDisplay	2	76	16	foodImage.93	FOODEEG_Images\0901.jpg	NY	Left	No	2.44008240000039	0	338957	252
664.087890625	2.44008240000039	health	choicePhaseStart	2	76	16	foodImage.93	FOODEEG_Images\0901.jpg	NY	Left	No	2.44008240000039	0	340014	253
666.51953125	0	health	response	2	76	16	foodImage.93	FOODEEG_Images\0901.jpg	NY	Left	No	2.44008240000039	0	341259	234
667.560546875	1	decision	trialStart	2	77	17	foodImage.9	FOODEEG_Images\0138.jpg	NY	Left	No	1.66438049999852	0	341792	251
668.640625	2	decision	foodImageDisplay	2	77	17	foodImage.9	FOODEEG_Images\0138.jpg	NY	Left	No	1.66438049999852	0	342345	252
670.703125	1.66438049999852	decision	choicePhaseStart	2	77	17	foodImage.9	FOODEEG_Images\0138.jpg	NY	Left	No	1.66438049999852	0	343401	253
672.359375	0	decision	response	2	77	17	foodImage.9	FOODEEG_Images\0138.jpg	NY	Left	No	1.66438049999852	0	344249	234
673.40234375	1	decision	trialStart	2	78	18	foodImage.104	FOODEEG_Images\0912.jpg	NY	Right	Yes	1.75200140000015	0	344783	251
674.439453125	2	decision	foodImageDisplay	2	78	18	foodImage.104	FOODEEG_Images\0912.jpg	NY	Right	Yes	1.75200140000015	0	345314	252
676.50390625	1.75200140000015	decision	choicePhaseStart	2	78	18	foodImage.104	FOODEEG_Images\0912.jpg	NY	Right	Yes	1.75200140000015	0	346371	253
678.24609375	0	decision	response	2	78	18	foodImage.104	FOODEEG_Images\0912.jpg	NY	Right	Yes	1.75200140000015	0	347263	235
679.2890625	1	health	trialStart	2	79	19	foodImage.82	FOODEEG_Images\0805.jpg	NY	Right	Yes	1.02115179999964	0	347797	251
680.345703125	2	health	foodImageDisplay	2	79	19	foodImage.82	FOODEEG_Images\0805.jpg	NY	Right	Yes	1.02115179999964	0	348338	252
682.41015625	1.02115179999964	health	choicePhaseStart	2	79	19	foodImage.82	FOODEEG_Images\0805.jpg	NY	Right	Yes	1.02115179999964	0	349395	253
683.421875	0	health	response	2	79	19	foodImage.82	FOODEEG_Images\0805.jpg	NY	Right	Yes	1.02115179999964	0	349913	235
684.46484375	1	health	trialStart	2	80	20	foodImage.51	FOODEEG_Images\0536.jpg	NY	Left	No	1.0823977	0	350447	251
685.51171875	2	health	foodImageDisplay	2	80	20	foodImage.51	FOODEEG_Images\0536.jpg	NY	Left	No	1.0823977	0	350983	252
687.57421875	1.0823977	health	choicePhaseStart	2	80	20	foodImage.51	FOODEEG_Images\0536.jpg	NY	Left	No	1.0823977	0	352039	253
688.646484375	0	health	response	2	80	20	foodImage.51	FOODEEG_Images\0536.jpg	NY	Left	No	1.0823977	0	352588	234
689.6875	1	decision	trialStart	2	81	21	foodImage.31	FOODEEG_Images\0294.jpg	NY	Right	Yes	1.32606619999933	0	353121	251
690.73828125	2	decision	foodImageDisplay	2	81	21	foodImage.31	FOODEEG_Images\0294.jpg	NY	Right	Yes	1.32606619999933	0	353659	252
692.806640625	1.32606619999933	decision	choicePhaseStart	2	81	21	foodImage.31	FOODEEG_Images\0294.jpg	NY	Right	Yes	1.32606619999933	0	354718	253
694.125	0	decision	response	2	81	21	foodImage.31	FOODEEG_Images\0294.jpg	NY	Right	Yes	1.32606619999933	0	355393	235
695.16796875	1	health	trialStart	2	82	22	foodImage.27	FOODEEG_Images\0263.jpg	YN	Left	Yes	0.975566999997682	0	355927	251
696.208984375	2	health	foodImageDisplay	2	82	22	foodImage.27	FOODEEG_Images\0263.jpg	YN	Left	Yes	0.975566999997682	0	356460	252
698.2734375	0.975566999997682	health	choicePhaseStart	2	82	22	foodImage.27	FOODEEG_Images\0263.jpg	YN	Left	Yes	0.975566999997682	0	357517	253
699.23828125	0	health	response	2	82	22	foodImage.27	FOODEEG_Images\0263.jpg	YN	Left	Yes	0.975566999997682	0	358011	234
700.27734375	1	taste	trialStart	2	83	23	foodImage.51	FOODEEG_Images\0536.jpg	YN	Right	No	1.2154526000013	0	358543	251
701.341796875	2	taste	foodImageDisplay	2	83	23	foodImage.51	FOODEEG_Images\0536.jpg	YN	Right	No	1.2154526000013	0	359088	252
703.404296875	1.2154526000013	taste	choicePhaseStart	2	83	23	foodImage.51	FOODEEG_Images\0536.jpg	YN	Right	No	1.2154526000013	0	360144	253
704.61328125	0	taste	response	2	83	23	foodImage.51	FOODEEG_Images\0536.jpg	YN	Right	No	1.2154526000013	0	360763	235
705.65625	1	taste	trialStart	2	84	24	foodImage.106	FOODEEG_Images\0914.jpg	NY	Right	Yes	1.17337150000094	0	361297	251
706.712890625	2	taste	foodImageDisplay	2	84	24	foodImage.106	FOODEEG_Images\0914.jpg	NY	Right	Yes	1.17337150000094	0	361838	252
708.77734375	1.17337150000094	taste	choicePhaseStart	2	84	24	foodImage.106	FOODEEG_Images\0914.jpg	NY	Right	Yes	1.17337150000094	0	362895	253
709.94140625	0	taste	response	2	84	24	foodImage.106	FOODEEG_Images\0914.jpg	NY	Right	Yes	1.17337150000094	0	363491	235
710.982421875	1	decision	trialStart	2	85	25	foodImage.44	FOODEEG_Images\0459.jpg	NY	Right	Yes	1.02847719999772	0	364024	251
712.05078125	2	decision	foodImageDisplay	2	85	25	foodImage.44	FOODEEG_Images\0459.jpg	NY	Right	Yes	1.02847719999772	0	364571	252
714.11328125	1.02847719999772	decision	choicePhaseStart	2	85	25	foodImage.44	FOODEEG_Images\0459.jpg	NY	Right	Yes	1.02847719999772	0	365627	253
715.1328125	0	decision	response	2	85	25	foodImage.44	FOODEEG_Images\0459.jpg	NY	Right	Yes	1.02847719999772	0	366149	235
716.177734375	1	taste	trialStart	2	86	26	foodImage.29	FOODEEG_Images\0278.jpg	NY	Left	No	1.08335880000232	0	366684	251
717.21875	2	taste	foodImageDisplay	2	86	26	foodImage.29	FOODEEG_Images\0278.jpg	NY	Left	No	1.08335880000232	0	367217	252
719.283203125	1.08335880000232	taste	choicePhaseStart	2	86	26	foodImage.29	FOODEEG_Images\0278.jpg	NY	Left	No	1.08335880000232	0	368274	253
720.357421875	0	taste	response	2	86	26	foodImage.29	FOODEEG_Images\0278.jpg	NY	Left	No	1.08335880000232	0	368824	234
721.400390625	1	health	trialStart	2	87	27	foodImage.26	FOODEEG_Images\0262.jpg	NY	Right	Yes	1.07214930000191	0	369358	251
722.462890625	2	health	foodImageDisplay	2	87	27	foodImage.26	FOODEEG_Images\0262.jpg	NY	Right	Yes	1.07214930000191	0	369902	252
724.525390625	1.07214930000191	health	choicePhaseStart	2	87	27	foodImage.26	FOODEEG_Images\0262.jpg	NY	Right	Yes	1.07214930000191	0	370958	253
725.587890625	0	health	response	2	87	27	foodImage.26	FOODEEG_Images\0262.jpg	NY	Right	Yes	1.07214930000191	0	371502	235
726.6328125	1	health	trialStart	2	88	28	foodImage.28	FOODEEG_Images\0273.jpg	YN	Left	Yes	0.792610799999238	0	372037	251
727.677734375	2	health	foodImageDisplay	2	88	28	foodImage.28	FOODEEG_Images\0273.jpg	YN	Left	Yes	0.792610799999238	0	372572	252
729.740234375	0.792610799999238	health	choicePhaseStart	2	88	28	foodImage.28	FOODEEG_Images\0273.jpg	YN	Left	Yes	0.792610799999238	0	373628	253
730.5234375	0	health	response	2	88	28	foodImage.28	FOODEEG_Images\0273.jpg	YN	Left	Yes	0.792610799999238	0	374029	234
731.57421875	1	health	trialStart	2	89	29	foodImage.49	FOODEEG_Images\0515.jpg	YN	Right	No	1.8141609000013	0	374567	251
732.634765625	2	health	foodImageDisplay	2	89	29	foodImage.49	FOODEEG_Images\0515.jpg	YN	Right	No	1.8141609000013	0	375110	252
734.701171875	1.8141609000013	health	choicePhaseStart	2	89	29	foodImage.49	FOODEEG_Images\0515.jpg	YN	Right	No	1.8141609000013	0	376168	253
736.5078125	0	health	response	2	89	29	foodImage.49	FOODEEG_Images\0515.jpg	YN	Right	No	1.8141609000013	0	377093	235
737.55078125	1	decision	trialStart	2	90	30	foodImage.19	FOODEEG_Images\0225.jpg	NY	Right	Yes	1.13118639999811	0	377627	251
738.591796875	2	decision	foodImageDisplay	2	90	30	foodImage.19	FOODEEG_Images\0225.jpg	NY	Right	Yes	1.13118639999811	0	378160	252
740.65625	1.13118639999811	decision	choicePhaseStart	2	90	30	foodImage.19	FOODEEG_Images\0225.jpg	NY	Right	Yes	1.13118639999811	0	379217	253
741.779296875	0	decision	response	2	90	30	foodImage.19	FOODEEG_Images\0225.jpg	NY	Right	Yes	1.13118639999811	0	379792	235
742.818359375	1	decision	trialStart	2	91	31	foodImage.37	FOODEEG_Images\0359.jpg	YN	Left	Yes	1.78651769999851	0	380324	251
743.859375	2	decision	foodImageDisplay	2	91	31	foodImage.37	FOODEEG_Images\0359.jpg	YN	Left	Yes	1.78651769999851	0	380857	252
745.923828125	1.78651769999851	decision	choicePhaseStart	2	91	31	foodImage.37	FOODEEG_Images\0359.jpg	YN	Left	Yes	1.78651769999851	0	381914	253
747.69921875	0	decision	response	2	91	31	foodImage.37	FOODEEG_Images\0359.jpg	YN	Left	Yes	1.78651769999851	0	382823	234
748.75	1	health	trialStart	2	92	32	foodImage.92	FOODEEG_Images\0900.jpg	YN	Right	No	0.629947800000082	0	383361	251
749.791015625	2	health	foodImageDisplay	2	92	32	foodImage.92	FOODEEG_Images\0900.jpg	YN	Right	No	0.629947800000082	0	383894	252
751.85546875	0.629947800000082	health	choicePhaseStart	2	92	32	foodImage.92	FOODEEG_Images\0900.jpg	YN	Right	No	0.629947800000082	0	384951	253
752.4765625	0	health	response	2	92	32	foodImage.92	FOODEEG_Images\0900.jpg	YN	Right	No	0.629947800000082	0	385269	235
753.51953125	1	decision	trialStart	2	93	33	foodImage.62	FOODEEG_Images\0644.jpg	YN	Left	Yes	1.10798710000017	0	385803	251
754.6015625	2	decision	foodImageDisplay	2	93	33	foodImage.62	FOODEEG_Images\0644.jpg	YN	Left	Yes	1.10798710000017	0	386357	252
756.6640625	1.10798710000017	decision	choicePhaseStart	2	93	33	foodImage.62	FOODEEG_Images\0644.jpg	YN	Left	Yes	1.10798710000017	0	387413	253
757.763671875	0	decision	response	2	93	33	foodImage.62	FOODEEG_Images\0644.jpg	YN	Left	Yes	1.10798710000017	0	387976	234
758.806640625	1	health	trialStart	2	94	34	foodImage.42	FOODEEG_Images\0438.jpg	NY	Right	Yes	0.890553200002614	0	388510	251
759.8984375	2	health	foodImageDisplay	2	94	34	foodImage.42	FOODEEG_Images\0438.jpg	NY	Right	Yes	0.890553200002614	0	389069	252
761.9609375	0.890553200002614	health	choicePhaseStart	2	94	34	foodImage.42	FOODEEG_Images\0438.jpg	NY	Right	Yes	0.890553200002614	0	390125	253
762.84375	0	health	response	2	94	34	foodImage.42	FOODEEG_Images\0438.jpg	NY	Right	Yes	0.890553200002614	0	390577	235
763.888671875	1	decision	trialStart	2	95	35	foodImage.36	FOODEEG_Images\0352.jpg	YN	Left	Yes	0.765561200001684	0	391112	251
764.951171875	2	decision	foodImageDisplay	2	95	35	foodImage.36	FOODEEG_Images\0352.jpg	YN	Left	Yes	0.765561200001684	0	391656	252
767.015625	0.765561200001684	decision	choicePhaseStart	2	95	35	foodImage.36	FOODEEG_Images\0352.jpg	YN	Left	Yes	0.765561200001684	0	392713	253
767.771484375	0	decision	response	2	95	35	foodImage.36	FOODEEG_Images\0352.jpg	YN	Left	Yes	0.765561200001684	0	393100	234
768.814453125	1	health	trialStart	2	96	36	foodImage.22	FOODEEG_Images\0236.jpg	NY	Right	Yes	0.861151100001734	0	393634	251
769.85546875	2	health	foodImageDisplay	2	96	36	foodImage.22	FOODEEG_Images\0236.jpg	NY	Right	Yes	0.861151100001734	0	394167	252
771.91796875	0.861151100001734	health	choicePhaseStart	2	96	36	foodImage.22	FOODEEG_Images\0236.jpg	NY	Right	Yes	0.861151100001734	0	395223	253
772.771484375	0	health	response	2	96	36	foodImage.22	FOODEEG_Images\0236.jpg	NY	Right	Yes	0.861151100001734	0	395660	235
773.81640625	1	health	trialStart	2	97	37	foodImage.46	FOODEEG_Images\0479.jpg	YN	Left	Yes	1.24439320000238	0	396195	251
774.880859375	2	health	foodImageDisplay	2	97	37	foodImage.46	FOODEEG_Images\0479.jpg	YN	Left	Yes	1.24439320000238	0	396740	252
776.943359375	1.24439320000238	health	choicePhaseStart	2	97	37	foodImage.46	FOODEEG_Images\0479.jpg	YN	Left	Yes	1.24439320000238	0	397796	253
778.1796875	0	health	response	2	97	37	foodImage.46	FOODEEG_Images\0479.jpg	YN	Left	Yes	1.24439320000238	0	398429	234
779.220703125	1	decision	trialStart	2	98	38	foodImage.73	FOODEEG_Images\0717.jpg	NY	Right	Yes	0.806666399999813	0	398962	251
780.27734375	2	decision	foodImageDisplay	2	98	38	foodImage.73	FOODEEG_Images\0717.jpg	NY	Right	Yes	0.806666399999813	0	399503	252
782.33984375	0.806666399999813	decision	choicePhaseStart	2	98	38	foodImage.73	FOODEEG_Images\0717.jpg	NY	Right	Yes	0.806666399999813	0	400559	253
783.138671875	0	decision	response	2	98	38	foodImage.73	FOODEEG_Images\0717.jpg	NY	Right	Yes	0.806666399999813	0	400968	235
784.181640625	1	taste	trialStart	2	99	39	foodImage.81	FOODEEG_Images\0797.jpg	YN	Left	Yes	0.939952199998515	0	401502	251
785.240234375	2	taste	foodImageDisplay	2	99	39	foodImage.81	FOODEEG_Images\0797.jpg	YN	Left	Yes	0.939952199998515	0	402044	252
787.302734375	0.939952199998515	taste	choicePhaseStart	2	99	39	foodImage.81	FOODEEG_Images\0797.jpg	YN	Left	Yes	0.939952199998515	0	403100	253
788.234375	0	taste	response	2	99	39	foodImage.81	FOODEEG_Images\0797.jpg	YN	Left	Yes	0.939952199998515	0	403577	234
789.279296875	1	health	trialStart	2	100	40	foodImage.115	FOODEEG_Images\0923.jpg	YN	Left	Yes	1.80453119999947	0	404112	251
790.333984375	2	health	foodImageDisplay	2	100	40	foodImage.115	FOODEEG_Images\0923.jpg	YN	Left	Yes	1.80453119999947	0	404652	252
792.3984375	1.80453119999947	health	choicePhaseStart	2	100	40	foodImage.115	FOODEEG_Images\0923.jpg	YN	Left	Yes	1.80453119999947	0	405709	253
794.193359375	0	health	response	2	100	40	foodImage.115	FOODEEG_Images\0923.jpg	YN	Left	Yes	1.80453119999947	0	406628	234
795.234375	1	taste	trialStart	2	101	41	foodImage.94	FOODEEG_Images\0902.jpg	YN	Left	Yes	0.618449300000066	0	407161	251
796.2734375	2	taste	foodImageDisplay	2	101	41	foodImage.94	FOODEEG_Images\0902.jpg	YN	Left	Yes	0.618449300000066	0	407693	252
798.3359375	0.618449300000066	taste	choicePhaseStart	2	101	41	foodImage.94	FOODEEG_Images\0902.jpg	YN	Left	Yes	0.618449300000066	0	408749	253
798.9453125	0	taste	response	2	101	41	foodImage.94	FOODEEG_Images\0902.jpg	YN	Left	Yes	0.618449300000066	0	409061	234
799.990234375	1	decision	trialStart	2	102	42	foodImage.120	FOODEEG_Images\0928.jpg	YN	Right	No	0.989869600001839	0	409596	251
801.029296875	2	decision	foodImageDisplay	2	102	42	foodImage.120	FOODEEG_Images\0928.jpg	YN	Right	No	0.989869600001839	0	410128	252
803.09375	0.989869600001839	decision	choicePhaseStart	2	102	42	foodImage.120	FOODEEG_Images\0928.jpg	YN	Right	No	0.989869600001839	0	411185	253
804.07421875	0	decision	response	2	102	42	foodImage.120	FOODEEG_Images\0928.jpg	YN	Right	No	0.989869600001839	0	411687	235
805.115234375	1	health	trialStart	2	103	43	foodImage.77	FOODEEG_Images\0771.jpg	YN	Left	Yes	1.04313040000125	0	412220	251
806.16015625	2	health	foodImageDisplay	2	103	43	foodImage.77	FOODEEG_Images\0771.jpg	YN	Left	Yes	1.04313040000125	0	412755	252
808.22265625	1.04313040000125	health	choicePhaseStart	2	103	43	foodImage.77	FOODEEG_Images\0771.jpg	YN	Left	Yes	1.04313040000125	0	413811	253
809.2578125	0	health	response	2	103	43	foodImage.77	FOODEEG_Images\0771.jpg	YN	Left	Yes	1.04313040000125	0	414341	234
810.296875	1	health	trialStart	2	104	44	foodImage.100	FOODEEG_Images\0908.jpg	YN	Right	No	1.02985229999831	0	414873	251
811.3359375	2	health	foodImageDisplay	2	104	44	foodImage.100	FOODEEG_Images\0908.jpg	YN	Right	No	1.02985229999831	0	415405	252
813.404296875	1.02985229999831	health	choicePhaseStart	2	104	44	foodImage.100	FOODEEG_Images\0908.jpg	YN	Right	No	1.02985229999831	0	416464	253
814.42578125	0	health	response	2	104	44	foodImage.100	FOODEEG_Images\0908.jpg	YN	Right	No	1.02985229999831	0	416987	235
815.46484375	1	taste	trialStart	2	105	45	foodImage.42	FOODEEG_Images\0438.jpg	YN	Left	Yes	1.22695300000123	0	417519	251
816.552734375	2	taste	foodImageDisplay	2	105	45	foodImage.42	FOODEEG_Images\0438.jpg	YN	Left	Yes	1.22695300000123	0	418076	252
818.615234375	1.22695300000123	taste	choicePhaseStart	2	105	45	foodImage.42	FOODEEG_Images\0438.jpg	YN	Left	Yes	1.22695300000123	0	419132	253
819.833984375	0	taste	response	2	105	45	foodImage.42	FOODEEG_Images\0438.jpg	YN	Left	Yes	1.22695300000123	0	419756	234
820.875	1	decision	trialStart	2	106	46	foodImage.99	FOODEEG_Images\0907.jpg	YN	Right	No	0.729256499998883	0	420289	251
821.916015625	2	decision	foodImageDisplay	2	106	46	foodImage.99	FOODEEG_Images\0907.jpg	YN	Right	No	0.729256499998883	0	420822	252
823.984375	0.729256499998883	decision	choicePhaseStart	2	106	46	foodImage.99	FOODEEG_Images\0907.jpg	YN	Right	No	0.729256499998883	0	421881	253
824.705078125	0	decision	response	2	106	46	foodImage.99	FOODEEG_Images\0907.jpg	YN	Right	No	0.729256499998883	0	422250	235
825.748046875	1	health	trialStart	2	107	47	foodImage.58	FOODEEG_Images\0605.jpg	YN	Right	No	1.12807310000062	0	422784	251
826.802734375	2	health	foodImageDisplay	2	107	47	foodImage.58	FOODEEG_Images\0605.jpg	YN	Right	No	1.12807310000062	0	423324	252
828.865234375	1.12807310000062	health	choicePhaseStart	2	107	47	foodImage.58	FOODEEG_Images\0605.jpg	YN	Right	No	1.12807310000062	0	424380	253
829.984375	0	health	response	2	107	47	foodImage.58	FOODEEG_Images\0605.jpg	YN	Right	No	1.12807310000062	0	424953	235
831.02734375	1	health	trialStart	2	108	48	foodImage.29	FOODEEG_Images\0278.jpg	NY	Right	Yes	1.5016469000002	0	425487	251
832.068359375	2	health	foodImageDisplay	2	108	48	foodImage.29	FOODEEG_Images\0278.jpg	NY	Right	Yes	1.5016469000002	0	426020	252
834.1328125	1.5016469000002	health	choicePhaseStart	2	108	48	foodImage.29	FOODEEG_Images\0278.jpg	NY	Right	Yes	1.5016469000002	0	427077	253
835.625	0	health	response	2	108	48	foodImage.29	FOODEEG_Images\0278.jpg	NY	Right	Yes	1.5016469000002	0	427841	235
836.66796875	1	taste	trialStart	2	109	49	foodImage.13	FOODEEG_Images\0183.jpg	YN	Left	Yes	1.26665770000182	0	428375	251
837.7109375	2	taste	foodImageDisplay	2	109	49	foodImage.13	FOODEEG_Images\0183.jpg	YN	Left	Yes	1.26665770000182	0	428909	252
839.775390625	1.26665770000182	taste	choicePhaseStart	2	109	49	foodImage.13	FOODEEG_Images\0183.jpg	YN	Left	Yes	1.26665770000182	0	429966	253
841.03125	0	taste	response	2	109	49	foodImage.13	FOODEEG_Images\0183.jpg	YN	Left	Yes	1.26665770000182	0	430609	234
842.076171875	1	taste	trialStart	2	110	50	foodImage.26	FOODEEG_Images\0262.jpg	NY	Left	No	0.787989500000549	0	431144	251
843.1171875	2	taste	foodImageDisplay	2	110	50	foodImage.26	FOODEEG_Images\0262.jpg	NY	Left	No	0.787989500000549	0	431677	252
845.181640625	0.787989500000549	taste	choicePhaseStart	2	110	50	foodImage.26	FOODEEG_Images\0262.jpg	NY	Left	No	0.787989500000549	0	432734	253
845.9609375	0	taste	response	2	110	50	foodImage.26	FOODEEG_Images\0262.jpg	NY	Left	No	0.787989500000549	0	433133	234
847.001953125	1	decision	trialStart	2	111	51	foodImage.82	FOODEEG_Images\0805.jpg	NY	Left	No	2.06618239999807	0	433666	251
848.0546875	2	decision	foodImageDisplay	2	111	51	foodImage.82	FOODEEG_Images\0805.jpg	NY	Left	No	2.06618239999807	0	434205	252
850.119140625	2.06618239999807	decision	choicePhaseStart	2	111	51	foodImage.82	FOODEEG_Images\0805.jpg	NY	Left	No	2.06618239999807	0	435262	253
852.17578125	0	decision	response	2	111	51	foodImage.82	FOODEEG_Images\0805.jpg	NY	Left	No	2.06618239999807	0	436315	234
853.21875	1	decision	trialStart	2	112	52	foodImage.34	FOODEEG_Images\0339.jpg	NY	Left	No	1.61360860000059	0	436849	251
854.275390625	2	decision	foodImageDisplay	2	112	52	foodImage.34	FOODEEG_Images\0339.jpg	NY	Left	No	1.61360860000059	0	437390	252
856.337890625	1.61360860000059	decision	choicePhaseStart	2	112	52	foodImage.34	FOODEEG_Images\0339.jpg	NY	Left	No	1.61360860000059	0	438446	253
857.943359375	0	decision	response	2	112	52	foodImage.34	FOODEEG_Images\0339.jpg	NY	Left	No	1.61360860000059	0	439268	234
858.986328125	1	taste	trialStart	2	113	53	foodImage.12	FOODEEG_Images\0181.jpg	YN	Right	No	1.5507897000025	0	439802	251
860.041015625	2	taste	foodImageDisplay	2	113	53	foodImage.12	FOODEEG_Images\0181.jpg	YN	Right	No	1.5507897000025	0	440342	252
862.10546875	1.5507897000025	taste	choicePhaseStart	2	113	53	foodImage.12	FOODEEG_Images\0181.jpg	YN	Right	No	1.5507897000025	0	441399	253
863.646484375	0	taste	response	2	113	53	foodImage.12	FOODEEG_Images\0181.jpg	YN	Right	No	1.5507897000025	0	442188	235
864.69140625	1	health	trialStart	2	114	54	foodImage.18	FOODEEG_Images\0202.jpg	NY	Right	Yes	0.91745080000328	0	442723	251
865.75390625	2	health	foodImageDisplay	2	114	54	foodImage.18	FOODEEG_Images\0202.jpg	NY	Right	Yes	0.91745080000328	0	443267	252
867.818359375	0.91745080000328	health	choicePhaseStart	2	114	54	foodImage.18	FOODEEG_Images\0202.jpg	NY	Right	Yes	0.91745080000328	0	444324	253
868.7265625	0	health	response	2	114	54	foodImage.18	FOODEEG_Images\0202.jpg	NY	Right	Yes	0.91745080000328	0	444789	235
869.76953125	1	health	trialStart	2	115	55	foodImage.86	FOODEEG_Images\0844.jpg	YN	Right	No	1.06983169999876	0	445323	251
870.828125	2	health	foodImageDisplay	2	115	55	foodImage.86	FOODEEG_Images\0844.jpg	YN	Right	No	1.06983169999876	0	445865	252
872.890625	1.06983169999876	health	choicePhaseStart	2	115	55	foodImage.86	FOODEEG_Images\0844.jpg	YN	Right	No	1.06983169999876	0	446921	253
873.951171875	0	health	response	2	115	55	foodImage.86	FOODEEG_Images\0844.jpg	YN	Right	No	1.06983169999876	0	447464	235
874.994140625	1	taste	trialStart	2	116	56	foodImage.53	FOODEEG_Images\0547.jpg	YN	Left	Yes	0.881011099998432	0	447998	251
876.0546875	2	taste	foodImageDisplay	2	116	56	foodImage.53	FOODEEG_Images\0547.jpg	YN	Left	Yes	0.881011099998432	0	448541	252
878.1171875	0.881011099998432	taste	choicePhaseStart	2	116	56	foodImage.53	FOODEEG_Images\0547.jpg	YN	Left	Yes	0.881011099998432	0	449597	253
878.990234375	0	taste	response	2	116	56	foodImage.53	FOODEEG_Images\0547.jpg	YN	Left	Yes	0.881011099998432	0	450044	234
880.033203125	1	taste	trialStart	2	117	57	foodImage.68	FOODEEG_Images\0685.jpg	NY	Right	Yes	0.816144299998996	0	450578	251
881.13671875	2	taste	foodImageDisplay	2	117	57	foodImage.68	FOODEEG_Images\0685.jpg	NY	Right	Yes	0.816144299998996	0	451143	252
883.201171875	0.816144299998996	taste	choicePhaseStart	2	117	57	foodImage.68	FOODEEG_Images\0685.jpg	NY	Right	Yes	0.816144299998996	0	452200	253
884.005859375	0	taste	response	2	117	57	foodImage.68	FOODEEG_Images\0685.jpg	NY	Right	Yes	0.816144299998996	0	452612	235
885.048828125	1	decision	trialStart	2	118	58	foodImage.26	FOODEEG_Images\0262.jpg	NY	Left	No	0.996424700002535	0	453146	251
886.091796875	2	decision	foodImageDisplay	2	118	58	foodImage.26	FOODEEG_Images\0262.jpg	NY	Left	No	0.996424700002535	0	453680	252
888.15625	0.996424700002535	decision	choicePhaseStart	2	118	58	foodImage.26	FOODEEG_Images\0262.jpg	NY	Left	No	0.996424700002535	0	454737	253
889.142578125	0	decision	response	2	118	58	foodImage.26	FOODEEG_Images\0262.jpg	NY	Left	No	0.996424700002535	0	455242	234
890.185546875	1	taste	trialStart	2	119	59	foodImage.76	FOODEEG_Images\0766.jpg	NY	Right	Yes	0.698506699998688	0	455776	251
891.228515625	2	taste	foodImageDisplay	2	119	59	foodImage.76	FOODEEG_Images\0766.jpg	NY	Right	Yes	0.698506699998688	0	456310	252
893.29296875	0.698506699998688	taste	choicePhaseStart	2	119	59	foodImage.76	FOODEEG_Images\0766.jpg	NY	Right	Yes	0.698506699998688	0	457367	253
893.982421875	0	taste	response	2	119	59	foodImage.76	FOODEEG_Images\0766.jpg	NY	Right	Yes	0.698506699998688	0	457720	235
895.025390625	1	health	trialStart	2	120	60	foodImage.85	FOODEEG_Images\0841.jpg	NY	Left	No	1.40567249999731	0	458254	251
896.083984375	2	health	foodImageDisplay	2	120	60	foodImage.85	FOODEEG_Images\0841.jpg	NY	Left	No	1.40567249999731	0	458796	252
898.15234375	1.40567249999731	health	choicePhaseStart	2	120	60	foodImage.85	FOODEEG_Images\0841.jpg	NY	Left	No	1.40567249999731	0	459855	253
899.548828125	0	health	response	2	120	60	foodImage.85	FOODEEG_Images\0841.jpg	NY	Left	No	1.40567249999731	0	460570	234
901.59375	31.66796875	n/a	blockEnd	n/a	n/a	n/a	n/a	n/a	n/a	n/a	n/a	n/a	n/a	461617	254
933.26171875	2	n/a	blockStart	3	n/a	n/a	n/a	n/a	n/a	n/a	n/a	n/a	n/a	477831	250
935.29296875	1	taste	trialStart	3	121	1	foodImage.82	FOODEEG_Images\0805.jpg	NY	Left	No	0.711183799998253	0	478871	251
936.349609375	2	taste	foodImageDisplay	3	121	1	foodImage.82	FOODEEG_Images\0805.jpg	NY	Left	No	0.711183799998253	0	479412	252
938.412109375	0.711183799998253	taste	choicePhaseStart	3	121	1	foodImage.82	FOODEEG_Images\0805.jpg	NY	Left	No	0.711183799998253	0	480468	253
939.115234375	0	taste	response	3	121	1	foodImage.82	FOODEEG_Images\0805.jpg	NY	Left	No	0.711183799998253	0	480828	234
940.166015625	1	taste	trialStart	3	122	2	foodImage.3	FOODEEG_Images\0046.jpg	YN	Left	Yes	0.694536499999231	0	481366	251
941.20703125	2	taste	foodImageDisplay	3	122	2	foodImage.3	FOODEEG_Images\0046.jpg	YN	Left	Yes	0.694536499999231	0	481899	252
943.271484375	0.694536499999231	taste	choicePhaseStart	3	122	2	foodImage.3	FOODEEG_Images\0046.jpg	YN	Left	Yes	0.694536499999231	0	482956	253
943.955078125	0	taste	response	3	122	2	foodImage.3	FOODEEG_Images\0046.jpg	YN	Left	Yes	0.694536499999231	0	483306	234
945	1	health	trialStart	3	123	3	foodImage.79	FOODEEG_Images\0794.jpg	NY	Right	Yes	1.02370390000215	0	483841	251
946.044921875	2	health	foodImageDisplay	3	123	3	foodImage.79	FOODEEG_Images\0794.jpg	NY	Right	Yes	1.02370390000215	0	484376	252
948.109375	1.02370390000215	health	choicePhaseStart	3	123	3	foodImage.79	FOODEEG_Images\0794.jpg	NY	Right	Yes	1.02370390000215	0	485433	253
949.123046875	0	health	response	3	123	3	foodImage.79	FOODEEG_Images\0794.jpg	NY	Right	Yes	1.02370390000215	0	485952	235
950.166015625	1	taste	trialStart	3	124	4	foodImage.99	FOODEEG_Images\0907.jpg	NY	Left	No	0.574890399999276	0	486486	251
951.220703125	2	taste	foodImageDisplay	3	124	4	foodImage.99	FOODEEG_Images\0907.jpg	NY	Left	No	0.574890399999276	0	487026	252
953.283203125	0.574890399999276	taste	choicePhaseStart	3	124	4	foodImage.99	FOODEEG_Images\0907.jpg	NY	Left	No	0.574890399999276	0	488082	253
953.8515625	0	taste	response	3	124	4	foodImage.99	FOODEEG_Images\0907.jpg	NY	Left	No	0.574890399999276	0	488373	234
954.89453125	1	taste	trialStart	3	125	5	foodImage.67	FOODEEG_Images\0679.jpg	YN	Left	Yes	1.05983779999951	0	488907	251
955.953125	2	taste	foodImageDisplay	3	125	5	foodImage.67	FOODEEG_Images\0679.jpg	YN	Left	Yes	1.05983779999951	0	489449	252
958.017578125	1.05983779999951	taste	choicePhaseStart	3	125	5	foodImage.67	FOODEEG_Images\0679.jpg	YN	Left	Yes	1.05983779999951	0	490506	253
959.068359375	0	taste	response	3	125	5	foodImage.67	FOODEEG_Images\0679.jpg	YN	Left	Yes	1.05983779999951	0	491044	234
960.111328125	1	decision	trialStart	3	126	6	foodImage.86	FOODEEG_Images\0844.jpg	YN	Left	Yes	0.797982500000217	0	491578	251
961.189453125	2	decision	foodImageDisplay	3	126	6	foodImage.86	FOODEEG_Images\0844.jpg	YN	Left	Yes	0.797982500000217	0	492130	252
963.25390625	0.797982500000217	decision	choicePhaseStart	3	126	6	foodImage.86	FOODEEG_Images\0844.jpg	YN	Left	Yes	0.797982500000217	0	493187	253
964.04296875	0	decision	response	3	126	6	foodImage.86	FOODEEG_Images\0844.jpg	YN	Left	Yes	0.797982500000217	0	493591	234
965.0859375	1	taste	trialStart	3	127	7	foodImage.100	FOODEEG_Images\0908.jpg	NY	Left	No	0.847807799997099	0	494125	251
966.125	2	taste	foodImageDisplay	3	127	7	foodImage.100	FOODEEG_Images\0908.jpg	NY	Left	No	0.847807799997099	0	494657	252
968.1875	0.847807799997099	taste	choicePhaseStart	3	127	7	foodImage.100	FOODEEG_Images\0908.jpg	NY	Left	No	0.847807799997099	0	495713	253
969.02734375	0	taste	response	3	127	7	foodImage.100	FOODEEG_Images\0908.jpg	NY	Left	No	0.847807799997099	0	496143	234
970.0703125	1	taste	trialStart	3	128	8	foodImage.52	FOODEEG_Images\0539.jpg	NY	Right	Yes	0.728836000002048	0	496677	251
971.130859375	2	taste	foodImageDisplay	3	128	8	foodImage.52	FOODEEG_Images\0539.jpg	NY	Right	Yes	0.728836000002048	0	497220	252
973.1953125	0.728836000002048	taste	choicePhaseStart	3	128	8	foodImage.52	FOODEEG_Images\0539.jpg	NY	Right	Yes	0.728836000002048	0	498277	253
973.9140625	0	taste	response	3	128	8	foodImage.52	FOODEEG_Images\0539.jpg	NY	Right	Yes	0.728836000002048	0	498645	235
974.95703125	1	decision	trialStart	3	129	9	foodImage.56	FOODEEG_Images\0586.jpg	NY	Right	Yes	0.801924800001871	0	499179	251
976	2	decision	foodImageDisplay	3	129	9	foodImage.56	FOODEEG_Images\0586.jpg	NY	Right	Yes	0.801924800001871	0	499713	252
978.06640625	0.801924800001871	decision	choicePhaseStart	3	129	9	foodImage.56	FOODEEG_Images\0586.jpg	NY	Right	Yes	0.801924800001871	0	500771	253
978.859375	0	decision	response	3	129	9	foodImage.56	FOODEEG_Images\0586.jpg	NY	Right	Yes	0.801924800001871	0	501177	235
979.904296875	1	decision	trialStart	3	130	10	foodImage.75	FOODEEG_Images\0763.jpg	NY	Right	Yes	0.832497600000352	0	501712	251
980.94921875	2	decision	foodImageDisplay	3	130	10	foodImage.75	FOODEEG_Images\0763.jpg	NY	Right	Yes	0.832497600000352	0	502247	252
983.01171875	0.832497600000352	decision	choicePhaseStart	3	130	10	foodImage.75	FOODEEG_Images\0763.jpg	NY	Right	Yes	0.832497600000352	0	503303	253
983.833984375	0	decision	response	3	130	10	foodImage.75	FOODEEG_Images\0763.jpg	NY	Right	Yes	0.832497600000352	0	503724	235
984.876953125	1	health	trialStart	3	131	11	foodImage.57	FOODEEG_Images\0587.jpg	YN	Right	No	1.13176210000165	0	504258	251
985.921875	2	health	foodImageDisplay	3	131	11	foodImage.57	FOODEEG_Images\0587.jpg	YN	Right	No	1.13176210000165	0	504793	252
987.984375	1.13176210000165	health	choicePhaseStart	3	131	11	foodImage.57	FOODEEG_Images\0587.jpg	YN	Right	No	1.13176210000165	0	505849	253
989.10546875	0	health	response	3	131	11	foodImage.57	FOODEEG_Images\0587.jpg	YN	Right	No	1.13176210000165	0	506423	235
990.1484375	1	taste	trialStart	3	132	12	foodImage.58	FOODEEG_Images\0605.jpg	NY	Right	Yes	0.842838500000653	0	506957	251
991.232421875	2	taste	foodImageDisplay	3	132	12	foodImage.58	FOODEEG_Images\0605.jpg	NY	Right	Yes	0.842838500000653	0	507512	252
993.296875	0.842838500000653	taste	choicePhaseStart	3	132	12	foodImage.58	FOODEEG_Images\0605.jpg	NY	Right	Yes	0.842838500000653	0	508569	253
994.130859375	0	taste	response	3	132	12	foodImage.58	FOODEEG_Images\0605.jpg	NY	Right	Yes	0.842838500000653	0	508996	235
995.17578125	1	health	trialStart	3	133	13	foodImage.10	FOODEEG_Images\0145.jpg	YN	Right	No	0.970933799999329	0	509531	251
996.248046875	2	health	foodImageDisplay	3	133	13	foodImage.10	FOODEEG_Images\0145.jpg	YN	Right	No	0.970933799999329	0	510080	252
998.3125	0.970933799999329	health	choicePhaseStart	3	133	13	foodImage.10	FOODEEG_Images\0145.jpg	YN	Right	No	0.970933799999329	0	511137	253
999.2734375	0	health	response	3	133	13	foodImage.10	FOODEEG_Images\0145.jpg	YN	Right	No	0.970933799999329	0	511629	235
1000.32421875	1	taste	trialStart	3	134	14	foodImage.88	FOODEEG_Images\0878.jpg	NY	Right	Yes	0.89552840000033	0	512167	251
1001.37890625	2	taste	foodImageDisplay	3	134	14	foodImage.88	FOODEEG_Images\0878.jpg	NY	Right	Yes	0.89552840000033	0	512707	252
1003.443359375	0.89552840000033	taste	choicePhaseStart	3	134	14	foodImage.88	FOODEEG_Images\0878.jpg	NY	Right	Yes	0.89552840000033	0	513764	253
1004.330078125	0	taste	response	3	134	14	foodImage.88	FOODEEG_Images\0878.jpg	NY	Right	Yes	0.89552840000033	0	514218	235
1005.37109375	1	taste	trialStart	3	135	15	foodImage.96	FOODEEG_Images\0904.jpg	YN	Left	Yes	0.904066000002786	0	514751	251
1006.427734375	2	taste	foodImageDisplay	3	135	15	foodImage.96	FOODEEG_Images\0904.jpg	YN	Left	Yes	0.904066000002786	0	515292	252
1008.49609375	0.904066000002786	taste	choicePhaseStart	3	135	15	foodImage.96	FOODEEG_Images\0904.jpg	YN	Left	Yes	0.904066000002786	0	516351	253
1009.392578125	0	taste	response	3	135	15	foodImage.96	FOODEEG_Images\0904.jpg	YN	Left	Yes	0.904066000002786	0	516810	234
1010.4375	1	taste	trialStart	3	136	16	foodImage.70	FOODEEG_Images\0705.jpg	NY	Right	Yes	0.817669100000785	0	517345	251
1011.49609375	2	taste	foodImageDisplay	3	136	16	foodImage.70	FOODEEG_Images\0705.jpg	NY	Right	Yes	0.817669100000785	0	517887	252
1013.560546875	0.817669100000785	taste	choicePhaseStart	3	136	16	foodImage.70	FOODEEG_Images\0705.jpg	NY	Right	Yes	0.817669100000785	0	518944	253
1014.369140625	0	taste	response	3	136	16	foodImage.70	FOODEEG_Images\0705.jpg	NY	Right	Yes	0.817669100000785	0	519358	235
1015.412109375	1	health	trialStart	3	137	17	foodImage.103	FOODEEG_Images\0911.jpg	NY	Left	No	0.689462800000911	0	519892	251
1016.44921875	2	health	foodImageDisplay	3	137	17	foodImage.103	FOODEEG_Images\0911.jpg	NY	Left	No	0.689462800000911	0	520423	252
1018.513671875	0.689462800000911	health	choicePhaseStart	3	137	17	foodImage.103	FOODEEG_Images\0911.jpg	NY	Left	No	0.689462800000911	0	521480	253
1019.193359375	0	health	response	3	137	17	foodImage.103	FOODEEG_Images\0911.jpg	NY	Left	No	0.689462800000911	0	521828	234
1020.236328125	1	health	trialStart	3	138	18	foodImage.61	FOODEEG_Images\0640.jpg	YN	Left	Yes	0.852813899997273	0	522362	251
1021.279296875	2	health	foodImageDisplay	3	138	18	foodImage.61	FOODEEG_Images\0640.jpg	YN	Left	Yes	0.852813899997273	0	522896	252
1023.341796875	0.852813899997273	health	choicePhaseStart	3	138	18	foodImage.61	FOODEEG_Images\0640.jpg	YN	Left	Yes	0.852813899997273	0	523952	253
1024.185546875	0	health	response	3	138	18	foodImage.61	FOODEEG_Images\0640.jpg	YN	Left	Yes	0.852813899997273	0	524384	234
1025.228515625	1	taste	trialStart	3	139	19	foodImage.110	FOODEEG_Images\0918.jpg	NY	Right	Yes	1.46720450000066	0	524918	251
1026.267578125	2	taste	foodImageDisplay	3	139	19	foodImage.110	FOODEEG_Images\0918.jpg	NY	Right	Yes	1.46720450000066	0	525450	252
1028.33203125	1.46720450000066	taste	choicePhaseStart	3	139	19	foodImage.110	FOODEEG_Images\0918.jpg	NY	Right	Yes	1.46720450000066	0	526507	253
1029.79296875	0	taste	response	3	139	19	foodImage.110	FOODEEG_Images\0918.jpg	NY	Right	Yes	1.46720450000066	0	527255	235
1030.83984375	1	taste	trialStart	3	140	20	foodImage.49	FOODEEG_Images\0515.jpg	NY	Left	No	1.00028399999792	0	527791	251
1031.8828125	2	taste	foodImageDisplay	3	140	20	foodImage.49	FOODEEG_Images\0515.jpg	NY	Left	No	1.00028399999792	0	528325	252
1033.9453125	1.00028399999792	taste	choicePhaseStart	3	140	20	foodImage.49	FOODEEG_Images\0515.jpg	NY	Left	No	1.00028399999792	0	529381	253
1034.935546875	0	taste	response	3	140	20	foodImage.49	FOODEEG_Images\0515.jpg	NY	Left	No	1.00028399999792	0	529888	234
1035.978515625	1	taste	trialStart	3	141	21	foodImage.102	FOODEEG_Images\0910.jpg	NY	Left	No	0.796391200001381	0	530422	251
1037.017578125	2	taste	foodImageDisplay	3	141	21	foodImage.102	FOODEEG_Images\0910.jpg	NY	Left	No	0.796391200001381	0	530954	252
1039.0859375	0.796391200001381	taste	choicePhaseStart	3	141	21	foodImage.102	FOODEEG_Images\0910.jpg	NY	Left	No	0.796391200001381	0	532013	253
1039.873046875	0	taste	response	3	141	21	foodImage.102	FOODEEG_Images\0910.jpg	NY	Left	No	0.796391200001381	0	532416	234
1040.912109375	1	decision	trialStart	3	142	22	foodImage.39	FOODEEG_Images\0367.jpg	YN	Left	Yes	0.821536299998115	0	532948	251
1041.94921875	2	decision	foodImageDisplay	3	142	22	foodImage.39	FOODEEG_Images\0367.jpg	YN	Left	Yes	0.821536299998115	0	533479	252
1044.01171875	0.821536299998115	decision	choicePhaseStart	3	142	22	foodImage.39	FOODEEG_Images\0367.jpg	YN	Left	Yes	0.821536299998115	0	534535	253
1044.82421875	0	decision	response	3	142	22	foodImage.39	FOODEEG_Images\0367.jpg	YN	Left	Yes	0.821536299998115	0	534951	234
1045.8671875	1	decision	trialStart	3	143	23	foodImage.43	FOODEEG_Images\0445.jpg	NY	Right	Yes	0.730633000002854	0	535485	251
1046.927734375	2	decision	foodImageDisplay	3	143	23	foodImage.43	FOODEEG_Images\0445.jpg	NY	Right	Yes	0.730633000002854	0	536028	252
1048.990234375	0.730633000002854	decision	choicePhaseStart	3	143	23	foodImage.43	FOODEEG_Images\0445.jpg	NY	Right	Yes	0.730633000002854	0	537084	253
1049.712890625	0	decision	response	3	143	23	foodImage.43	FOODEEG_Images\0445.jpg	NY	Right	Yes	0.730633000002854	0	537454	235
1050.767578125	1	decision	trialStart	3	144	24	foodImage.106	FOODEEG_Images\0914.jpg	NY	Right	Yes	0.720347499998752	0	537994	251
1051.80859375	2	decision	foodImageDisplay	3	144	24	foodImage.106	FOODEEG_Images\0914.jpg	NY	Right	Yes	0.720347499998752	0	538527	252
1053.873046875	0.720347499998752	decision	choicePhaseStart	3	144	24	foodImage.106	FOODEEG_Images\0914.jpg	NY	Right	Yes	0.720347499998752	0	539584	253
1054.583984375	0	decision	response	3	144	24	foodImage.106	FOODEEG_Images\0914.jpg	NY	Right	Yes	0.720347499998752	0	539948	235
1055.626953125	1	health	trialStart	3	145	25	foodImage.64	FOODEEG_Images\0647.jpg	YN	Left	Yes	1.68146949999937	0	540482	251
1056.6875	2	health	foodImageDisplay	3	145	25	foodImage.64	FOODEEG_Images\0647.jpg	YN	Left	Yes	1.68146949999937	0	541025	252
1058.751953125	1.68146949999937	health	choicePhaseStart	3	145	25	foodImage.64	FOODEEG_Images\0647.jpg	YN	Left	Yes	1.68146949999937	0	542082	253
1060.423828125	0	health	response	3	145	25	foodImage.64	FOODEEG_Images\0647.jpg	YN	Left	Yes	1.68146949999937	0	542938	234
1061.46875	1	health	trialStart	3	146	26	foodImage.120	FOODEEG_Images\0928.jpg	YN	Right	No	0.917517800000496	0	543473	251
1062.5078125	2	health	foodImageDisplay	3	146	26	foodImage.120	FOODEEG_Images\0928.jpg	YN	Right	No	0.917517800000496	0	544005	252
1064.5703125	0.917517800000496	health	choicePhaseStart	3	146	26	foodImage.120	FOODEEG_Images\0928.jpg	YN	Right	No	0.917517800000496	0	545061	253
1065.478515625	0	health	response	3	146	26	foodImage.120	FOODEEG_Images\0928.jpg	YN	Right	No	0.917517800000496	0	545526	235
1066.525390625	1	taste	trialStart	3	147	27	foodImage.91	FOODEEG_Images\0896.jpg	YN	Left	Yes	1.1279921000023	0	546062	251
1067.5859375	2	taste	foodImageDisplay	3	147	27	foodImage.91	FOODEEG_Images\0896.jpg	YN	Left	Yes	1.1279921000023	0	546605	252
1069.6484375	1.1279921000023	taste	choicePhaseStart	3	147	27	foodImage.91	FOODEEG_Images\0896.jpg	YN	Left	Yes	1.1279921000023	0	547661	253
1070.767578125	0	taste	response	3	147	27	foodImage.91	FOODEEG_Images\0896.jpg	YN	Left	Yes	1.1279921000023	0	548234	234
1071.810546875	1	decision	trialStart	3	148	28	foodImage.109	FOODEEG_Images\0917.jpg	NY	Left	No	3.19526770000084	0	548768	251
1072.84765625	2	decision	foodImageDisplay	3	148	28	foodImage.109	FOODEEG_Images\0917.jpg	NY	Left	No	3.19526770000084	0	549299	252
1074.916015625	3.19526770000084	decision	choicePhaseStart	3	148	28	foodImage.109	FOODEEG_Images\0917.jpg	NY	Left	No	3.19526770000084	0	550358	253
1078.103515625	0	decision	response	3	148	28	foodImage.109	FOODEEG_Images\0917.jpg	NY	Left	No	3.19526770000084	0	551990	234
1079.14453125	1	decision	trialStart	3	149	29	foodImage.61	FOODEEG_Images\0640.jpg	YN	Left	Yes	0.837503900002048	0	552523	251
1080.1875	2	decision	foodImageDisplay	3	149	29	foodImage.61	FOODEEG_Images\0640.jpg	YN	Left	Yes	0.837503900002048	0	553057	252
1082.25	0.837503900002048	decision	choicePhaseStart	3	149	29	foodImage.61	FOODEEG_Images\0640.jpg	YN	Left	Yes	0.837503900002048	0	554113	253
1083.078125	0	decision	response	3	149	29	foodImage.61	FOODEEG_Images\0640.jpg	YN	Left	Yes	0.837503900002048	0	554537	234
1084.123046875	1	taste	trialStart	3	150	30	foodImage.31	FOODEEG_Images\0294.jpg	NY	Right	Yes	0.786560500000633	0	555072	251
1085.166015625	2	taste	foodImageDisplay	3	150	30	foodImage.31	FOODEEG_Images\0294.jpg	NY	Right	Yes	0.786560500000633	0	555606	252
1087.228515625	0.786560500000633	taste	choicePhaseStart	3	150	30	foodImage.31	FOODEEG_Images\0294.jpg	NY	Right	Yes	0.786560500000633	0	556662	253
1088.005859375	0	taste	response	3	150	30	foodImage.31	FOODEEG_Images\0294.jpg	NY	Right	Yes	0.786560500000633	0	557060	235
1089.052734375	1	taste	trialStart	3	151	31	foodImage.89	FOODEEG_Images\0881.jpg	YN	Left	Yes	0.790526499997213	0	557596	251
1090.109375	2	taste	foodImageDisplay	3	151	31	foodImage.89	FOODEEG_Images\0881.jpg	YN	Left	Yes	0.790526499997213	0	558137	252
1092.177734375	0.790526499997213	taste	choicePhaseStart	3	151	31	foodImage.89	FOODEEG_Images\0881.jpg	YN	Left	Yes	0.790526499997213	0	559196	253
1092.958984375	0	taste	response	3	151	31	foodImage.89	FOODEEG_Images\0881.jpg	YN	Left	Yes	0.790526499997213	0	559596	234
1094.001953125	1	decision	trialStart	3	152	32	foodImage.38	FOODEEG_Images\0365.jpg	NY	Right	Yes	0.735627699999895	0	560130	251
1095.041015625	2	decision	foodImageDisplay	3	152	32	foodImage.38	FOODEEG_Images\0365.jpg	NY	Right	Yes	0.735627699999895	0	560662	252
1097.103515625	0.735627699999895	decision	choicePhaseStart	3	152	32	foodImage.38	FOODEEG_Images\0365.jpg	NY	Right	Yes	0.735627699999895	0	561718	253
1097.830078125	0	decision	response	3	152	32	foodImage.38	FOODEEG_Images\0365.jpg	NY	Right	Yes	0.735627699999895	0	562090	235
1098.873046875	1	decision	trialStart	3	153	33	foodImage.98	FOODEEG_Images\0906.jpg	YN	Right	No	1.13509859999976	0	562624	251
1099.912109375	2	decision	foodImageDisplay	3	153	33	foodImage.98	FOODEEG_Images\0906.jpg	YN	Right	No	1.13509859999976	0	563156	252
1101.9765625	1.13509859999976	decision	choicePhaseStart	3	153	33	foodImage.98	FOODEEG_Images\0906.jpg	YN	Right	No	1.13509859999976	0	564213	253
1103.1015625	0	decision	response	3	153	33	foodImage.98	FOODEEG_Images\0906.jpg	YN	Right	No	1.13509859999976	0	564789	235
1104.14453125	1	decision	trialStart	3	154	34	foodImage.51	FOODEEG_Images\0536.jpg	YN	Right	No	0.896477099999174	0	565323	251
1105.19140625	2	decision	foodImageDisplay	3	154	34	foodImage.51	FOODEEG_Images\0536.jpg	YN	Right	No	0.896477099999174	0	565859	252
1107.25390625	0.896477099999174	decision	choicePhaseStart	3	154	34	foodImage.51	FOODEEG_Images\0536.jpg	YN	Right	No	0.896477099999174	0	566915	253
1108.142578125	0	decision	response	3	154	34	foodImage.51	FOODEEG_Images\0536.jpg	YN	Right	No	0.896477099999174	0	567370	235
1109.185546875	1	taste	trialStart	3	155	35	foodImage.114	FOODEEG_Images\0922.jpg	NY	Left	No	0.78113730000041	0	567904	251
1110.22265625	2	taste	foodImageDisplay	3	155	35	foodImage.114	FOODEEG_Images\0922.jpg	NY	Left	No	0.78113730000041	0	568435	252
1112.2890625	0.78113730000041	taste	choicePhaseStart	3	155	35	foodImage.114	FOODEEG_Images\0922.jpg	NY	Left	No	0.78113730000041	0	569493	253
1113.060546875	0	taste	response	3	155	35	foodImage.114	FOODEEG_Images\0922.jpg	NY	Left	No	0.78113730000041	0	569888	234
1114.107421875	1	taste	trialStart	3	156	36	foodImage.119	FOODEEG_Images\0927.jpg	YN	n/a	n/a	1.32257709999976	0	570424	251
1115.1484375	2	taste	foodImageDisplay	3	156	36	foodImage.119	FOODEEG_Images\0927.jpg	YN	Right	No	1.32257709999976	0	570957	252
1117.212890625	1.32257709999976	taste	choicePhaseStart	3	156	36	foodImage.119	FOODEEG_Images\0927.jpg	YN	Right	No	1.32257709999976	0	572014	253
1118.525390625	0	taste	response	3	156	36	foodImage.119	FOODEEG_Images\0927.jpg	YN	Right	No	1.32257709999976	0	572686	235
1119.568359375	1	taste	trialStart	3	157	37	foodImage.40	FOODEEG_Images\0373.jpg	NY	Right	Yes	0.905191600002581	0	573220	251
1120.611328125	2	taste	foodImageDisplay	3	157	37	foodImage.40	FOODEEG_Images\0373.jpg	NY	Right	Yes	0.905191600002581	0	573754	252
1122.673828125	0.905191600002581	taste	choicePhaseStart	3	157	37	foodImage.40	FOODEEG_Images\0373.jpg	NY	Right	Yes	0.905191600002581	0	574810	253
1123.572265625	0	taste	response	3	157	37	foodImage.40	FOODEEG_Images\0373.jpg	NY	Right	Yes	0.905191600002581	0	575270	235
1124.6171875	1	taste	trialStart	3	158	38	foodImage.55	FOODEEG_Images\0567.jpg	NY	Right	Yes	0.59487369999988	0	575805	251
1125.67578125	2	taste	foodImageDisplay	3	158	38	foodImage.55	FOODEEG_Images\0567.jpg	NY	Right	Yes	0.59487369999988	0	576347	252
1127.740234375	0.59487369999988	taste	choicePhaseStart	3	158	38	foodImage.55	FOODEEG_Images\0567.jpg	NY	Right	Yes	0.59487369999988	0	577404	253
1128.32421875	0	taste	response	3	158	38	foodImage.55	FOODEEG_Images\0567.jpg	NY	Right	Yes	0.59487369999988	0	577703	235
1129.3671875	1	taste	trialStart	3	159	39	foodImage.115	FOODEEG_Images\0923.jpg	NY	Right	Yes	1.1987635000005	0	578237	251
1130.408203125	2	taste	foodImageDisplay	3	159	39	foodImage.115	FOODEEG_Images\0923.jpg	NY	Right	Yes	1.1987635000005	0	578770	252
1132.470703125	1.1987635000005	taste	choicePhaseStart	3	159	39	foodImage.115	FOODEEG_Images\0923.jpg	NY	Right	Yes	1.1987635000005	0	579826	253
1133.66015625	0	taste	response	3	159	39	foodImage.115	FOODEEG_Images\0923.jpg	NY	Right	Yes	1.1987635000005	0	580435	235
1134.703125	1	taste	trialStart	3	160	40	foodImage.10	FOODEEG_Images\0145.jpg	NY	Right	Yes	0.580673000000388	0	580969	251
1135.76171875	2	taste	foodImageDisplay	3	160	40	foodImage.10	FOODEEG_Images\0145.jpg	NY	Right	Yes	0.580673000000388	0	581511	252
1137.826171875	0.580673000000388	taste	choicePhaseStart	3	160	40	foodImage.10	FOODEEG_Images\0145.jpg	NY	Right	Yes	0.580673000000388	0	582568	253
1138.396484375	0	taste	response	3	160	40	foodImage.10	FOODEEG_Images\0145.jpg	NY	Right	Yes	0.580673000000388	0	582860	235
1139.439453125	1	decision	trialStart	3	161	41	foodImage.81	FOODEEG_Images\0797.jpg	NY	Right	Yes	1.25890309999886	0	583394	251
1140.498046875	2	decision	foodImageDisplay	3	161	41	foodImage.81	FOODEEG_Images\0797.jpg	NY	Right	Yes	1.25890309999886	0	583936	252
1142.5625	1.25890309999886	decision	choicePhaseStart	3	161	41	foodImage.81	FOODEEG_Images\0797.jpg	NY	Right	Yes	1.25890309999886	0	584993	253
1143.8125	0	decision	response	3	161	41	foodImage.81	FOODEEG_Images\0797.jpg	NY	Right	Yes	1.25890309999886	0	585633	235
1144.85546875	1	taste	trialStart	3	162	42	foodImage.73	FOODEEG_Images\0717.jpg	YN	Right	No	2.58823510000002	0	586167	251
1145.9140625	2	taste	foodImageDisplay	3	162	42	foodImage.73	FOODEEG_Images\0717.jpg	YN	Right	No	2.58823510000002	0	586709	252
1147.9765625	2.58823510000002	taste	choicePhaseStart	3	162	42	foodImage.73	FOODEEG_Images\0717.jpg	YN	Right	No	2.58823510000002	0	587765	253
1150.556640625	0	taste	response	3	162	42	foodImage.73	FOODEEG_Images\0717.jpg	YN	Right	No	2.58823510000002	0	589086	235
1151.599609375	1	decision	trialStart	3	163	43	foodImage.76	FOODEEG_Images\0766.jpg	YN	Left	Yes	0.55826910000178	0	589620	251
1152.64453125	2	decision	foodImageDisplay	3	163	43	foodImage.76	FOODEEG_Images\0766.jpg	YN	Left	Yes	0.55826910000178	0	590155	252
1154.7109375	0.55826910000178	decision	choicePhaseStart	3	163	43	foodImage.76	FOODEEG_Images\0766.jpg	YN	Left	Yes	0.55826910000178	0	591213	253
1155.259765625	0	decision	response	3	163	43	foodImage.76	FOODEEG_Images\0766.jpg	YN	Left	Yes	0.55826910000178	0	591494	234
1156.3046875	1	taste	trialStart	3	164	44	foodImage.5	FOODEEG_Images\0107.jpg	NY	Right	Yes	0.767545899998368	0	592029	251
1157.365234375	2	taste	foodImageDisplay	3	164	44	foodImage.5	FOODEEG_Images\0107.jpg	NY	Right	Yes	0.767545899998368	0	592572	252
1159.427734375	0.767545899998368	taste	choicePhaseStart	3	164	44	foodImage.5	FOODEEG_Images\0107.jpg	NY	Right	Yes	0.767545899998368	0	593628	253
1160.1875	0	taste	response	3	164	44	foodImage.5	FOODEEG_Images\0107.jpg	NY	Right	Yes	0.767545899998368	0	594017	235
1161.23046875	1	taste	trialStart	3	165	45	foodImage.28	FOODEEG_Images\0273.jpg	NY	Right	Yes	0.957558900001459	0	594551	251
1162.271484375	2	taste	foodImageDisplay	3	165	45	foodImage.28	FOODEEG_Images\0273.jpg	NY	Right	Yes	0.957558900001459	0	595084	252
1164.3359375	0.957558900001459	taste	choicePhaseStart	3	165	45	foodImage.28	FOODEEG_Images\0273.jpg	NY	Right	Yes	0.957558900001459	0	596141	253
1165.283203125	0	taste	response	3	165	45	foodImage.28	FOODEEG_Images\0273.jpg	NY	Right	Yes	0.957558900001459	0	596626	235
1166.326171875	1	health	trialStart	3	166	46	foodImage.74	FOODEEG_Images\0752.jpg	NY	Right	Yes	0.999688600000809	0	597160	251
1167.37109375	2	health	foodImageDisplay	3	166	46	foodImage.74	FOODEEG_Images\0752.jpg	NY	Right	Yes	0.999688600000809	0	597695	252
1169.43359375	0.999688600000809	health	choicePhaseStart	3	166	46	foodImage.74	FOODEEG_Images\0752.jpg	NY	Right	Yes	0.999688600000809	0	598751	253
1170.427734375	0	health	response	3	166	46	foodImage.74	FOODEEG_Images\0752.jpg	NY	Right	Yes	0.999688600000809	0	599260	235
1171.470703125	1	health	trialStart	3	167	47	foodImage.33	FOODEEG_Images\0329.jpg	YN	Left	Yes	0.872518400003173	0	599794	251
1172.515625	2	health	foodImageDisplay	3	167	47	foodImage.33	FOODEEG_Images\0329.jpg	YN	Left	Yes	0.872518400003173	0	600329	252
1174.580078125	0.872518400003173	health	choicePhaseStart	3	167	47	foodImage.33	FOODEEG_Images\0329.jpg	YN	Left	Yes	0.872518400003173	0	601386	253
1175.443359375	0	health	response	3	167	47	foodImage.33	FOODEEG_Images\0329.jpg	YN	Left	Yes	0.872518400003173	0	601828	234
1176.4921875	1	health	trialStart	3	168	48	foodImage.7	FOODEEG_Images\0116.jpg	YN	Left	Yes	0.732176500001515	0	602365	251
1177.53515625	2	health	foodImageDisplay	3	168	48	foodImage.7	FOODEEG_Images\0116.jpg	YN	Left	Yes	0.732176500001515	0	602899	252
1179.599609375	0.732176500001515	health	choicePhaseStart	3	168	48	foodImage.7	FOODEEG_Images\0116.jpg	YN	Left	Yes	0.732176500001515	0	603956	253
1180.322265625	0	health	response	3	168	48	foodImage.7	FOODEEG_Images\0116.jpg	YN	Left	Yes	0.732176500001515	0	604326	234
1181.365234375	1	decision	trialStart	3	169	49	foodImage.69	FOODEEG_Images\0693.jpg	YN	Left	Yes	0.745209400000022	0	604860	251
1182.408203125	2	decision	foodImageDisplay	3	169	49	foodImage.69	FOODEEG_Images\0693.jpg	YN	Left	Yes	0.745209400000022	0	605394	252
1184.47265625	0.745209400000022	decision	choicePhaseStart	3	169	49	foodImage.69	FOODEEG_Images\0693.jpg	YN	Left	Yes	0.745209400000022	0	606451	253
1185.2109375	0	decision	response	3	169	49	foodImage.69	FOODEEG_Images\0693.jpg	YN	Left	Yes	0.745209400000022	0	606829	234
1186.25390625	1	health	trialStart	3	170	50	foodImage.34	FOODEEG_Images\0339.jpg	YN	Right	No	0.794691299997794	0	607363	251
1187.3125	2	health	foodImageDisplay	3	170	50	foodImage.34	FOODEEG_Images\0339.jpg	YN	Right	No	0.794691299997794	0	607905	252
1189.376953125	0.794691299997794	health	choicePhaseStart	3	170	50	foodImage.34	FOODEEG_Images\0339.jpg	YN	Right	No	0.794691299997794	0	608962	253
1190.162109375	0	health	response	3	170	50	foodImage.34	FOODEEG_Images\0339.jpg	YN	Right	No	0.794691299997794	0	609364	235
1191.20703125	1	taste	trialStart	3	171	51	foodImage.38	FOODEEG_Images\0365.jpg	YN	Left	Yes	0.638976999998704	0	609899	251
1192.24609375	2	taste	foodImageDisplay	3	171	51	foodImage.38	FOODEEG_Images\0365.jpg	YN	Left	Yes	0.638976999998704	0	610431	252
1194.30859375	0.638976999998704	taste	choicePhaseStart	3	171	51	foodImage.38	FOODEEG_Images\0365.jpg	YN	Left	Yes	0.638976999998704	0	611487	253
1194.9375	0	taste	response	3	171	51	foodImage.38	FOODEEG_Images\0365.jpg	YN	Left	Yes	0.638976999998704	0	611809	234
1195.98046875	1	decision	trialStart	3	172	52	foodImage.58	FOODEEG_Images\0605.jpg	NY	Right	Yes	0.987839800000074	0	612343	251
1197.0390625	2	decision	foodImageDisplay	3	172	52	foodImage.58	FOODEEG_Images\0605.jpg	NY	Right	Yes	0.987839800000074	0	612885	252
1199.103515625	0.987839800000074	decision	choicePhaseStart	3	172	52	foodImage.58	FOODEEG_Images\0605.jpg	NY	Right	Yes	0.987839800000074	0	613942	253
1200.08203125	0	decision	response	3	172	52	foodImage.58	FOODEEG_Images\0605.jpg	NY	Right	Yes	0.987839800000074	0	614443	235
1201.125	1	decision	trialStart	3	173	53	foodImage.118	FOODEEG_Images\0926.jpg	YN	Right	No	0.958884899999248	0	614977	251
1202.162109375	2	decision	foodImageDisplay	3	173	53	foodImage.118	FOODEEG_Images\0926.jpg	YN	Right	No	0.958884899999248	0	615508	252
1204.228515625	0.958884899999248	decision	choicePhaseStart	3	173	53	foodImage.118	FOODEEG_Images\0926.jpg	YN	Right	No	0.958884899999248	0	616566	253
1205.177734375	0	decision	response	3	173	53	foodImage.118	FOODEEG_Images\0926.jpg	YN	Right	No	0.958884899999248	0	617052	235
1206.220703125	1	health	trialStart	3	174	54	foodImage.31	FOODEEG_Images\0294.jpg	NY	Left	No	1.79087289999734	0	617586	251
1207.283203125	2	health	foodImageDisplay	3	174	54	foodImage.31	FOODEEG_Images\0294.jpg	NY	Left	No	1.79087289999734	0	618130	252
1209.34765625	1.79087289999734	health	choicePhaseStart	3	174	54	foodImage.31	FOODEEG_Images\0294.jpg	NY	Left	No	1.79087289999734	0	619187	253
1211.12890625	0	health	response	3	174	54	foodImage.31	FOODEEG_Images\0294.jpg	NY	Left	No	1.79087289999734	0	620099	234
1212.171875	1	taste	trialStart	3	175	55	foodImage.72	FOODEEG_Images\0714.jpg	YN	Left	Yes	0.803954300001351	0	620633	251
1213.212890625	2	taste	foodImageDisplay	3	175	55	foodImage.72	FOODEEG_Images\0714.jpg	YN	Left	Yes	0.803954300001351	0	621166	252
1215.27734375	0.803954300001351	taste	choicePhaseStart	3	175	55	foodImage.72	FOODEEG_Images\0714.jpg	YN	Left	Yes	0.803954300001351	0	622223	253
1216.07421875	0	taste	response	3	175	55	foodImage.72	FOODEEG_Images\0714.jpg	YN	Left	Yes	0.803954300001351	0	622631	234
1217.115234375	1	taste	trialStart	3	176	56	foodImage.64	FOODEEG_Images\0647.jpg	NY	Right	Yes	0.708505599999626	0	623164	251
1218.17578125	2	taste	foodImageDisplay	3	176	56	foodImage.64	FOODEEG_Images\0647.jpg	NY	Right	Yes	0.708505599999626	0	623707	252
1220.23828125	0.708505599999626	taste	choicePhaseStart	3	176	56	foodImage.64	FOODEEG_Images\0647.jpg	NY	Right	Yes	0.708505599999626	0	624763	253
1220.9375	0	taste	response	3	176	56	foodImage.64	FOODEEG_Images\0647.jpg	NY	Right	Yes	0.708505599999626	0	625121	235
1221.982421875	1	health	trialStart	3	177	57	foodImage.13	FOODEEG_Images\0183.jpg	NY	Right	Yes	1.41602710000006	0	625656	251
1223.025390625	2	health	foodImageDisplay	3	177	57	foodImage.13	FOODEEG_Images\0183.jpg	NY	Right	Yes	1.41602710000006	0	626190	252
1225.08984375	1.41602710000006	health	choicePhaseStart	3	177	57	foodImage.13	FOODEEG_Images\0183.jpg	NY	Right	Yes	1.41602710000006	0	627247	253
1226.49609375	0	health	response	3	177	57	foodImage.13	FOODEEG_Images\0183.jpg	NY	Right	Yes	1.41602710000006	0	627967	235
1227.5390625	1	health	trialStart	3	178	58	foodImage.35	FOODEEG_Images\0350.jpg	NY	Left	No	0.958355200000369	0	628501	251
1228.580078125	2	health	foodImageDisplay	3	178	58	foodImage.35	FOODEEG_Images\0350.jpg	NY	Left	No	0.958355200000369	0	629034	252
1230.642578125	0.958355200000369	health	choicePhaseStart	3	178	58	foodImage.35	FOODEEG_Images\0350.jpg	NY	Left	No	0.958355200000369	0	630090	253
1231.59375	0	health	response	3	178	58	foodImage.35	FOODEEG_Images\0350.jpg	NY	Left	No	0.958355200000369	0	630577	234
1232.63671875	1	health	trialStart	3	179	59	foodImage.16	FOODEEG_Images\0196.jpg	NY	Right	Yes	0.668039200001658	0	631111	251
1233.6953125	2	health	foodImageDisplay	3	179	59	foodImage.16	FOODEEG_Images\0196.jpg	NY	Right	Yes	0.668039200001658	0	631653	252
1235.7578125	0.668039200001658	health	choicePhaseStart	3	179	59	foodImage.16	FOODEEG_Images\0196.jpg	NY	Right	Yes	0.668039200001658	0	632709	253
1236.416015625	0	health	response	3	179	59	foodImage.16	FOODEEG_Images\0196.jpg	NY	Right	Yes	0.668039200001658	0	633046	235
1237.458984375	1	decision	trialStart	3	180	60	foodImage.87	FOODEEG_Images\0873.jpg	YN	Right	No	0.871885299999121	0	633580	251
1238.517578125	2	decision	foodImageDisplay	3	180	60	foodImage.87	FOODEEG_Images\0873.jpg	YN	Right	No	0.871885299999121	0	634122	252
1240.58203125	0.871885299999121	decision	choicePhaseStart	3	180	60	foodImage.87	FOODEEG_Images\0873.jpg	YN	Right	No	0.871885299999121	0	635179	253
1241.447265625	0	decision	response	3	180	60	foodImage.87	FOODEEG_Images\0873.jpg	YN	Right	No	0.871885299999121	0	635622	235
1243.494140625	32.95703125	n/a	blockEnd	n/a	n/a	n/a	n/a	n/a	n/a	n/a	n/a	n/a	n/a	636670	254
1276.451171875	2	n/a	blockStart	4	n/a	n/a	n/a	n/a	n/a	n/a	n/a	n/a	n/a	653544	250
1278.484375	1	health	trialStart	4	181	1	foodImage.14	FOODEEG_Images\0188.jpg	NY	Left	No	1.0050659999979	0	654585	251
1279.552734375	2	health	foodImageDisplay	4	181	1	foodImage.14	FOODEEG_Images\0188.jpg	NY	Left	No	1.0050659999979	0	655132	252
1281.615234375	1.0050659999979	health	choicePhaseStart	4	181	1	foodImage.14	FOODEEG_Images\0188.jpg	NY	Left	No	1.0050659999979	0	656188	253
1282.615234375	0	health	response	4	181	1	foodImage.14	FOODEEG_Images\0188.jpg	NY	Left	No	1.0050659999979	0	656700	234
1283.658203125	1	taste	trialStart	4	182	2	foodImage.6	FOODEEG_Images\0113.jpg	NY	Left	No	0.861129800003255	0	657234	251
1284.69921875	2	taste	foodImageDisplay	4	182	2	foodImage.6	FOODEEG_Images\0113.jpg	NY	Left	No	0.861129800003255	0	657767	252
1286.76171875	0.861129800003255	taste	choicePhaseStart	4	182	2	foodImage.6	FOODEEG_Images\0113.jpg	NY	Left	No	0.861129800003255	0	658823	253
1287.615234375	0	taste	response	4	182	2	foodImage.6	FOODEEG_Images\0113.jpg	NY	Left	No	0.861129800003255	0	659260	234
1288.66015625	1	taste	trialStart	4	183	3	foodImage.107	FOODEEG_Images\0915.jpg	NY	Left	No	0.550751200000377	0	659795	251
1289.697265625	2	taste	foodImageDisplay	4	183	3	foodImage.107	FOODEEG_Images\0915.jpg	NY	Left	No	0.550751200000377	0	660326	252
1291.76171875	0.550751200000377	taste	choicePhaseStart	4	183	3	foodImage.107	FOODEEG_Images\0915.jpg	NY	Left	No	0.550751200000377	0	661383	253
1292.302734375	0	taste	response	4	183	3	foodImage.107	FOODEEG_Images\0915.jpg	NY	Left	No	0.550751200000377	0	661660	234
1293.345703125	1	health	trialStart	4	184	4	foodImage.39	FOODEEG_Images\0367.jpg	YN	Right	No	0.873631499998737	0	662194	251
1294.3828125	2	health	foodImageDisplay	4	184	4	foodImage.39	FOODEEG_Images\0367.jpg	YN	Right	No	0.873631499998737	0	662725	252
1296.4453125	0.873631499998737	health	choicePhaseStart	4	184	4	foodImage.39	FOODEEG_Images\0367.jpg	YN	Right	No	0.873631499998737	0	663781	253
1297.310546875	0	health	response	4	184	4	foodImage.39	FOODEEG_Images\0367.jpg	YN	Right	No	0.873631499998737	0	664224	235
1298.359375	1	decision	trialStart	4	185	5	foodImage.12	FOODEEG_Images\0181.jpg	YN	Right	No	0.700666900000215	0	664761	251
1299.400390625	2	decision	foodImageDisplay	4	185	5	foodImage.12	FOODEEG_Images\0181.jpg	YN	Right	No	0.700666900000215	0	665294	252
1301.46484375	0.700666900000215	decision	choicePhaseStart	4	185	5	foodImage.12	FOODEEG_Images\0181.jpg	YN	Right	No	0.700666900000215	0	666351	253
1302.158203125	0	decision	response	4	185	5	foodImage.12	FOODEEG_Images\0181.jpg	YN	Right	No	0.700666900000215	0	666706	235
1303.201171875	1	decision	trialStart	4	186	6	foodImage.67	FOODEEG_Images\0679.jpg	YN	Left	Yes	0.933954799998901	0	667240	251
1304.2578125	2	decision	foodImageDisplay	4	186	6	foodImage.67	FOODEEG_Images\0679.jpg	YN	Left	Yes	0.933954799998901	0	667781	252
1306.322265625	0.933954799998901	decision	choicePhaseStart	4	186	6	foodImage.67	FOODEEG_Images\0679.jpg	YN	Left	Yes	0.933954799998901	0	668838	253
1307.24609375	0	decision	response	4	186	6	foodImage.67	FOODEEG_Images\0679.jpg	YN	Left	Yes	0.933954799998901	0	669311	234
1308.2890625	1	decision	trialStart	4	187	7	foodImage.1	FOODEEG_Images\0004.jpg	YN	Left	Yes	0.626472799998737	0	669845	251
1309.330078125	2	decision	foodImageDisplay	4	187	7	foodImage.1	FOODEEG_Images\0004.jpg	YN	Left	Yes	0.626472799998737	0	670378	252
1311.392578125	0.626472799998737	decision	choicePhaseStart	4	187	7	foodImage.1	FOODEEG_Images\0004.jpg	YN	Left	Yes	0.626472799998737	0	671434	253
1312.013671875	0	decision	response	4	187	7	foodImage.1	FOODEEG_Images\0004.jpg	YN	Left	Yes	0.626472799998737	0	671752	234
1313.056640625	1	health	trialStart	4	188	8	foodImage.118	FOODEEG_Images\0926.jpg	YN	Right	No	1.11087339999722	0	672286	251
1314.095703125	2	health	foodImageDisplay	4	188	8	foodImage.118	FOODEEG_Images\0926.jpg	YN	Right	No	1.11087339999722	0	672818	252
1316.16015625	1.11087339999722	health	choicePhaseStart	4	188	8	foodImage.118	FOODEEG_Images\0926.jpg	YN	Right	No	1.11087339999722	0	673875	253
1317.26171875	0	health	response	4	188	8	foodImage.118	FOODEEG_Images\0926.jpg	YN	Right	No	1.11087339999722	0	674439	235
1318.3046875	1	taste	trialStart	4	189	9	foodImage.77	FOODEEG_Images\0771.jpg	NY	Right	Yes	1.14754360000006	0	674973	251
1319.34765625	2	taste	foodImageDisplay	4	189	9	foodImage.77	FOODEEG_Images\0771.jpg	NY	Right	Yes	1.14754360000006	0	675507	252
1321.41015625	1.14754360000006	taste	choicePhaseStart	4	189	9	foodImage.77	FOODEEG_Images\0771.jpg	NY	Right	Yes	1.14754360000006	0	676563	253
1322.548828125	0	taste	response	4	189	9	foodImage.77	FOODEEG_Images\0771.jpg	NY	Right	Yes	1.14754360000006	0	677146	235
1323.59375	1	health	trialStart	4	190	10	foodImage.84	FOODEEG_Images\0830.jpg	YN	Left	Yes	0.814606500000082	0	677681	251
1324.6484375	2	health	foodImageDisplay	4	190	10	foodImage.84	FOODEEG_Images\0830.jpg	YN	Left	Yes	0.814606500000082	0	678221	252
1326.7109375	0.814606500000082	health	choicePhaseStart	4	190	10	foodImage.84	FOODEEG_Images\0830.jpg	YN	Left	Yes	0.814606500000082	0	679277	253
1327.517578125	0	health	response	4	190	10	foodImage.84	FOODEEG_Images\0830.jpg	YN	Left	Yes	0.814606500000082	0	679690	234
1328.5625	1	health	trialStart	4	191	11	foodImage.59	FOODEEG_Images\0607.jpg	NY	Left	No	1.14025699999911	0	680225	251
1329.61328125	2	health	foodImageDisplay	4	191	11	foodImage.59	FOODEEG_Images\0607.jpg	NY	Left	No	1.14025699999911	0	680763	252
1331.681640625	1.14025699999911	health	choicePhaseStart	4	191	11	foodImage.59	FOODEEG_Images\0607.jpg	NY	Left	No	1.14025699999911	0	681822	253
1332.8125	0	health	response	4	191	11	foodImage.59	FOODEEG_Images\0607.jpg	NY	Left	No	1.14025699999911	0	682401	234
1333.85546875	1	decision	trialStart	4	192	12	foodImage.32	FOODEEG_Images\0319.jpg	YN	Left	Yes	0.791388300000108	0	682935	251
1334.8984375	2	decision	foodImageDisplay	4	192	12	foodImage.32	FOODEEG_Images\0319.jpg	YN	Left	Yes	0.791388300000108	0	683469	252
1336.96484375	0.791388300000108	decision	choicePhaseStart	4	192	12	foodImage.32	FOODEEG_Images\0319.jpg	YN	Left	Yes	0.791388300000108	0	684527	253
1337.748046875	0	decision	response	4	192	12	foodImage.32	FOODEEG_Images\0319.jpg	YN	Left	Yes	0.791388300000108	0	684928	234
1338.791015625	1	decision	trialStart	4	193	13	foodImage.55	FOODEEG_Images\0567.jpg	YN	Left	Yes	0.789174300000013	0	685462	251
1339.849609375	2	decision	foodImageDisplay	4	193	13	foodImage.55	FOODEEG_Images\0567.jpg	YN	Left	Yes	0.789174300000013	0	686004	252
