onset	duration	trial_type	event_type	block	trial_total	trial_in_block	food_image_code	food_image_path	button_position	resp_position	resp_choice	choice_rt	resp_too_slow	sample	trigger
314.47265625	2	n/a	blockStart	1	n/a	n/a	n/a	n/a	n/a	n/a	n/a	n/a	n/a	161011	250
316.509765625	1	taste	trialStart	1	1	1	foodImage.41	FOODEEG_Images\0409.jpg	NY	Right	Yes	0.626251299996511	0	162054	251
317.583984375	2	taste	foodImageDisplay	1	1	1	foodImage.41	FOODEEG_Images\0409.jpg	NY	Right	Yes	0.626251299996511	0	162604	252
319.6484375	0.626251299996511	taste	choicePhaseStart	1	1	1	foodImage.41	FOODEEG_Images\0409.jpg	NY	Right	Yes	0.626251299996511	0	163661	253
320.267578125	0	taste	response	1	1	1	foodImage.41	FOODEEG_Images\0409.jpg	NY	Right	Yes	0.626251299996511	0	163978	235
321.35546875	1	taste	trialStart	1	2	2	foodImage.21	FOODEEG_Images\0234.jpg	NY	Right	Yes	0.820485600008396	0	164535	251
322.412109375	2	taste	foodImageDisplay	1	2	2	foodImage.21	FOODEEG_Images\0234.jpg	NY	Right	Yes	0.820485600008396	0	165076	252
324.474609375	0.820485600008396	taste	choicePhaseStart	1	2	2	foodImage.21	FOODEEG_Images\0234.jpg	NY	Right	Yes	0.820485600008396	0	166132	253
325.291015625	0	taste	response	1	2	2	foodImage.21	FOODEEG_Images\0234.jpg	NY	Right	Yes	0.820485600008396	0	166550	235
326.34375	1	decision	trialStart	1	3	3	foodImage.82	FOODEEG_Images\0805.jpg	NY	Right	Yes	0.7704073000059	0	167089	251
327.3984375	2	decision	foodImageDisplay	1	3	3	foodImage.82	FOODEEG_Images\0805.jpg	NY	Right	Yes	0.7704073000059	0	167629	252
329.46484375	0.7704073000059	decision	choicePhaseStart	1	3	3	foodImage.82	FOODEEG_Images\0805.jpg	NY	Right	Yes	0.7704073000059	0	168687	253
330.2265625	0	decision	response	1	3	3	foodImage.82	FOODEEG_Images\0805.jpg	NY	Right	Yes	0.7704073000059	0	169077	235
331.267578125	1	taste	trialStart	1	4	4	foodImage.65	FOODEEG_Images\0658.jpg	YN	Left	Yes	1.65196079999441	0	169610	251
332.310546875	2	taste	foodImageDisplay	1	4	4	foodImage.65	FOODEEG_Images\0658.jpg	YN	Left	Yes	1.65196079999441	0	170144	252
334.375	1.65196079999441	taste	choicePhaseStart	1	4	4	foodImage.65	FOODEEG_Images\0658.jpg	YN	Left	Yes	1.65196079999441	0	171201	253
336.017578125	0	taste	response	1	4	4	foodImage.65	FOODEEG_Images\0658.jpg	YN	Left	Yes	1.65196079999441	0	172042	234
337.064453125	1	health	trialStart	1	5	5	foodImage.118	FOODEEG_Images\0926.jpg	YN	Right	No	0.692353299993556	0	172578	251
338.1171875	2	health	foodImageDisplay	1	5	5	foodImage.118	FOODEEG_Images\0926.jpg	YN	Right	No	0.692353299993556	0	173117	252
340.18359375	0.692353299993556	health	choicePhaseStart	1	5	5	foodImage.118	FOODEEG_Images\0926.jpg	YN	Right	No	0.692353299993556	0	174175	253
340.8671875	0	health	response	1	5	5	foodImage.118	FOODEEG_Images\0926.jpg	YN	Right	No	0.692353299993556	0	174525	235
341.919921875	1	decision	trialStart	1	6	6	foodImage.32	FOODEEG_Images\0319.jpg	YN	Left	Yes	0.869594500007224	0	175064	251
342.96484375	2	decision	foodImageDisplay	1	6	6	foodImage.32	FOODEEG_Images\0319.jpg	YN	Left	Yes	0.869594500007224	0	175599	252
345.029296875	0.869594500007224	decision	choicePhaseStart	1	6	6	foodImage.32	FOODEEG_Images\0319.jpg	YN	Left	Yes	0.869594500007224	0	176656	253
345.890625	0	decision	response	1	6	6	foodImage.32	FOODEEG_Images\0319.jpg	YN	Left	Yes	0.869594500007224	0	177097	234
346.93359375	1	health	trialStart	1	7	7	foodImage.73	FOODEEG_Images\0717.jpg	NY	Left	No	0.873871599993436	0	177631	251
347.9921875	2	health	foodImageDisplay	1	7	7	foodImage.73	FOODEEG_Images\0717.jpg	NY	Left	No	0.873871599993436	0	178173	252
350.0625	0.873871599993436	health	choicePhaseStart	1	7	7	foodImage.73	FOODEEG_Images\0717.jpg	NY	Left	No	0.873871599993436	0	179233	253
350.9296875	0	health	response	1	7	7	foodImage.73	FOODEEG_Images\0717.jpg	NY	Left	No	0.873871599993436	0	179677	234
351.970703125	1	health	trialStart	1	8	8	foodImage.32	FOODEEG_Images\0319.jpg	YN	Right	No	1.13921120000305	0	180210	251
353.015625	2	health	foodImageDisplay	1	8	8	foodImage.32	FOODEEG_Images\0319.jpg	YN	Right	No	1.13921120000305	0	180745	252
355.080078125	1.13921120000305	health	choicePhaseStart	1	8	8	foodImage.32	FOODEEG_Images\0319.jpg	YN	Right	No	1.13921120000305	0	181802	253
356.2109375	0	health	response	1	8	8	foodImage.32	FOODEEG_Images\0319.jpg	YN	Right	No	1.13921120000305	0	182381	235
357.251953125	1	taste	trialStart	1	9	9	foodImage.10	FOODEEG_Images\0145.jpg	YN	Left	Yes	0.83617249999952	0	182914	251
358.30859375	2	taste	foodImageDisplay	1	9	9	foodImage.10	FOODEEG_Images\0145.jpg	YN	Left	Yes	0.83617249999952	0	183455	252
360.373046875	0.83617249999952	taste	choicePhaseStart	1	9	9	foodImage.10	FOODEEG_Images\0145.jpg	YN	Left	Yes	0.83617249999952	0	184512	253
361.201171875	0	taste	response	1	9	9	foodImage.10	FOODEEG_Images\0145.jpg	YN	Left	Yes	0.83617249999952	0	184936	234
362.2421875	1	taste	trialStart	1	10	10	foodImage.80	FOODEEG_Images\0796.jpg	NY	Right	Yes	1.37652619999426	0	185469	251
363.298828125	2	taste	foodImageDisplay	1	10	10	foodImage.80	FOODEEG_Images\0796.jpg	NY	Right	Yes	1.37652619999426	0	186010	252
365.3671875	1.37652619999426	taste	choicePhaseStart	1	10	10	foodImage.80	FOODEEG_Images\0796.jpg	NY	Right	Yes	1.37652619999426	0	187069	253
366.73828125	0	taste	response	1	10	10	foodImage.80	FOODEEG_Images\0796.jpg	NY	Right	Yes	1.37652619999426	0	187771	235
367.779296875	1	decision	trialStart	1	11	11	foodImage.119	FOODEEG_Images\0927.jpg	YN	Right	No	1.02163109999674	0	188304	251
368.81640625	2	decision	foodImageDisplay	1	11	11	foodImage.119	FOODEEG_Images\0927.jpg	YN	Right	No	1.02163109999674	0	188835	252
370.880859375	1.02163109999674	decision	choicePhaseStart	1	11	11	foodImage.119	FOODEEG_Images\0927.jpg	YN	Right	No	1.02163109999674	0	189892	253
371.896484375	0	decision	response	1	11	11	foodImage.119	FOODEEG_Images\0927.jpg	YN	Right	No	1.02163109999674	0	190412	235
372.9375	1	health	trialStart	1	12	12	foodImage.65	FOODEEG_Images\0658.jpg	YN	Left	Yes	1.64076509998995	0	190945	251
373.978515625	2	health	foodImageDisplay	1	12	12	foodImage.65	FOODEEG_Images\0658.jpg	YN	Left	Yes	1.64076509998995	0	191478	252
376.041015625	1.64076509998995	health	choicePhaseStart	1	12	12	foodImage.65	FOODEEG_Images\0658.jpg	YN	Left	Yes	1.64076509998995	0	192534	253
377.673828125	0	health	response	1	12	12	foodImage.65	FOODEEG_Images\0658.jpg	YN	Left	Yes	1.64076509998995	0	193370	234
378.71484375	1	taste	trialStart	1	13	13	foodImage.18	FOODEEG_Images\0202.jpg	NY	Right	Yes	0.902642999993986	0	193903	251
379.771484375	2	taste	foodImageDisplay	1	13	13	foodImage.18	FOODEEG_Images\0202.jpg	NY	Right	Yes	0.902642999993986	0	194444	252
381.8359375	0.902642999993986	taste	choicePhaseStart	1	13	13	foodImage.18	FOODEEG_Images\0202.jpg	NY	Right	Yes	0.902642999993986	0	195501	253
382.728515625	0	taste	response	1	13	13	foodImage.18	FOODEEG_Images\0202.jpg	NY	Right	Yes	0.902642999993986	0	195958	235
383.771484375	1	decision	trialStart	1	14	14	foodImage.23	FOODEEG_Images\0244.jpg	NY	Right	Yes	0.715552200010279	0	196492	251
384.814453125	2	decision	foodImageDisplay	1	14	14	foodImage.23	FOODEEG_Images\0244.jpg	NY	Right	Yes	0.715552200010279	0	197026	252
386.87890625	0.715552200010279	decision	choicePhaseStart	1	14	14	foodImage.23	FOODEEG_Images\0244.jpg	NY	Right	Yes	0.715552200010279	0	198083	253
387.583984375	0	decision	response	1	14	14	foodImage.23	FOODEEG_Images\0244.jpg	NY	Right	Yes	0.715552200010279	0	198444	235
388.625	1	taste	trialStart	1	15	15	foodImage.34	FOODEEG_Images\0339.jpg	NY	Left	No	1.3799308000016	0	198977	251
389.6953125	2	taste	foodImageDisplay	1	15	15	foodImage.34	FOODEEG_Images\0339.jpg	NY	Left	No	1.3799308000016	0	199525	252
391.7578125	1.3799308000016	taste	choicePhaseStart	1	15	15	foodImage.34	FOODEEG_Images\0339.jpg	NY	Left	No	1.3799308000016	0	200581	253
393.12890625	0	taste	response	1	15	15	foodImage.34	FOODEEG_Images\0339.jpg	NY	Left	No	1.3799308000016	0	201283	234
394.169921875	1	decision	trialStart	1	16	16	foodImage.56	FOODEEG_Images\0586.jpg	YN	Right	No	1.20768550000503	0	201816	251
395.224609375	2	decision	foodImageDisplay	1	16	16	foodImage.56	FOODEEG_Images\0586.jpg	YN	Right	No	1.20768550000503	0	202356	252
397.2890625	1.20768550000503	decision	choicePhaseStart	1	16	16	foodImage.56	FOODEEG_Images\0586.jpg	YN	Right	No	1.20768550000503	0	203413	253
398.48828125	0	decision	response	1	16	16	foodImage.56	FOODEEG_Images\0586.jpg	YN	Right	No	1.20768550000503	0	204027	235
399.529296875	1	taste	trialStart	1	17	17	foodImage.76	FOODEEG_Images\0766.jpg	NY	Left	No	1.70083570000133	0	204560	251
400.578125	2	taste	foodImageDisplay	1	17	17	foodImage.76	FOODEEG_Images\0766.jpg	NY	Left	No	1.70083570000133	0	205097	252
402.642578125	1.70083570000133	taste	choicePhaseStart	1	17	17	foodImage.76	FOODEEG_Images\0766.jpg	NY	Left	No	1.70083570000133	0	206154	253
404.3359375	0	taste	response	1	17	17	foodImage.76	FOODEEG_Images\0766.jpg	NY	Left	No	1.70083570000133	0	207021	234
405.376953125	1	health	trialStart	1	18	18	foodImage.71	FOODEEG_Images\0713.jpg	YN	Right	No	0.828347799993935	0	207554	251
406.419921875	2	health	foodImageDisplay	1	18	18	foodImage.71	FOODEEG_Images\0713.jpg	YN	Right	No	0.828347799993935	0	208088	252
408.484375	0.828347799993935	health	choicePhaseStart	1	18	18	foodImage.71	FOODEEG_Images\0713.jpg	YN	Right	No	0.828347799993935	0	209145	253
409.3046875	0	health	response	1	18	18	foodImage.71	FOODEEG_Images\0713.jpg	YN	Right	No	0.828347799993935	0	209565	235
410.34375	1	decision	trialStart	1	19	19	foodImage.11	FOODEEG_Images\0180.jpg	NY	Right	Yes	1.78332970000338	0	210097	251
411.384765625	2	decision	foodImageDisplay	1	19	19	foodImage.11	FOODEEG_Images\0180.jpg	NY	Right	Yes	1.78332970000338	0	210630	252
413.44921875	1.78332970000338	decision	choicePhaseStart	1	19	19	foodImage.11	FOODEEG_Images\0180.jpg	NY	Right	Yes	1.78332970000338	0	211687	253
415.22265625	0	decision	response	1	19	19	foodImage.11	FOODEEG_Images\0180.jpg	NY	Right	Yes	1.78332970000338	0	212595	235
416.263671875	1	health	trialStart	1	20	20	foodImage.9	FOODEEG_Images\0138.jpg	YN	Right	No	0.974616399995284	0	213128	251
417.322265625	2	health	foodImageDisplay	1	20	20	foodImage.9	FOODEEG_Images\0138.jpg	YN	Right	No	0.974616399995284	0	213670	252
419.38671875	0.974616399995284	health	choicePhaseStart	1	20	20	foodImage.9	FOODEEG_Images\0138.jpg	YN	Right	No	0.974616399995284	0	214727	253
420.3515625	0	health	response	1	20	20	foodImage.9	FOODEEG_Images\0138.jpg	YN	Right	No	0.974616399995284	0	215221	235
421.39453125	1	decision	trialStart	1	21	21	foodImage.22	FOODEEG_Images\0236.jpg	NY	Right	Yes	1.68693039999926	0	215755	251
422.435546875	2	decision	foodImageDisplay	1	21	21	foodImage.22	FOODEEG_Images\0236.jpg	NY	Right	Yes	1.68693039999926	0	216288	252
424.498046875	1.68693039999926	decision	choicePhaseStart	1	21	21	foodImage.22	FOODEEG_Images\0236.jpg	NY	Right	Yes	1.68693039999926	0	217344	253
426.17578125	0	decision	response	1	21	21	foodImage.22	FOODEEG_Images\0236.jpg	NY	Right	Yes	1.68693039999926	0	218203	235
427.21484375	1	decision	trialStart	1	22	22	foodImage.44	FOODEEG_Images\0459.jpg	NY	Left	No	0.685506500012707	0	218735	251
428.26171875	2	decision	foodImageDisplay	1	22	22	foodImage.44	FOODEEG_Images\0459.jpg	NY	Left	No	0.685506500012707	0	219271	252
430.330078125	0.685506500012707	decision	choicePhaseStart	1	22	22	foodImage.44	FOODEEG_Images\0459.jpg	NY	Left	No	0.685506500012707	0	220330	253
431.0078125	0	decision	response	1	22	22	foodImage.44	FOODEEG_Images\0459.jpg	NY	Left	No	0.685506500012707	0	220677	234
432.046875	1	taste	trialStart	1	23	23	foodImage.46	FOODEEG_Images\0479.jpg	YN	Left	Yes	0.718719700002111	0	221209	251
433.10546875	2	taste	foodImageDisplay	1	23	23	foodImage.46	FOODEEG_Images\0479.jpg	YN	Left	Yes	0.718719700002111	0	221751	252
435.169921875	0.718719700002111	taste	choicePhaseStart	1	23	23	foodImage.46	FOODEEG_Images\0479.jpg	YN	Left	Yes	0.718719700002111	0	222808	253
435.87890625	0	taste	response	1	23	23	foodImage.46	FOODEEG_Images\0479.jpg	YN	Left	Yes	0.718719700002111	0	223171	234
436.919921875	1	taste	trialStart	1	24	24	foodImage.1	FOODEEG_Images\0004.jpg	YN	Left	Yes	0.992229399998905	0	223704	251
437.9609375	2	taste	foodImageDisplay	1	24	24	foodImage.1	FOODEEG_Images\0004.jpg	YN	Left	Yes	0.992229399998905	0	224237	252
440.0234375	0.992229399998905	taste	choicePhaseStart	1	24	24	foodImage.1	FOODEEG_Images\0004.jpg	YN	Left	Yes	0.992229399998905	0	225293	253
441.0078125	0	taste	response	1	24	24	foodImage.1	FOODEEG_Images\0004.jpg	YN	Left	Yes	0.992229399998905	0	225797	234
442.046875	1	decision	trialStart	1	25	25	foodImage.4	FOODEEG_Images\0065.jpg	NY	Right	Yes	0.783137999998871	0	226329	251
443.10546875	2	decision	foodImageDisplay	1	25	25	foodImage.4	FOODEEG_Images\0065.jpg	NY	Right	Yes	0.783137999998871	0	226871	252
445.16796875	0.783137999998871	decision	choicePhaseStart	1	25	25	foodImage.4	FOODEEG_Images\0065.jpg	NY	Right	Yes	0.783137999998871	0	227927	253
445.943359375	0	decision	response	1	25	25	foodImage.4	FOODEEG_Images\0065.jpg	NY	Right	Yes	0.783137999998871	0	228324	235
446.990234375	1	decision	trialStart	1	26	26	foodImage.66	FOODEEG_Images\0676.jpg	YN	Right	No	1.01517070000409	0	228860	251
448.033203125	2	decision	foodImageDisplay	1	26	26	foodImage.66	FOODEEG_Images\0676.jpg	YN	Right	No	1.01517070000409	0	229394	252
450.095703125	1.01517070000409	decision	choicePhaseStart	1	26	26	foodImage.66	FOODEEG_Images\0676.jpg	YN	Right	No	1.01517070000409	0	230450	253
451.103515625	0	decision	response	1	26	26	foodImage.66	FOODEEG_Images\0676.jpg	YN	Right	No	1.01517070000409	0	230966	235
452.142578125	1	taste	trialStart	1	27	27	foodImage.56	FOODEEG_Images\0586.jpg	NY	Left	No	2.03555660000711	0	231498	251
453.185546875	2	taste	foodImageDisplay	1	27	27	foodImage.56	FOODEEG_Images\0586.jpg	NY	Left	No	2.03555660000711	0	232032	252
455.251953125	2.03555660000711	taste	choicePhaseStart	1	27	27	foodImage.56	FOODEEG_Images\0586.jpg	NY	Left	No	2.03555660000711	0	233090	253
457.27734375	0	taste	response	1	27	27	foodImage.56	FOODEEG_Images\0586.jpg	NY	Left	No	2.03555660000711	0	234127	234
458.318359375	1	taste	trialStart	1	28	28	foodImage.26	FOODEEG_Images\0262.jpg	YN	Left	Yes	1.20086749999609	0	234660	251
459.359375	2	taste	foodImageDisplay	1	28	28	foodImage.26	FOODEEG_Images\0262.jpg	YN	Left	Yes	1.20086749999609	0	235193	252
461.423828125	1.20086749999609	taste	choicePhaseStart	1	28	28	foodImage.26	FOODEEG_Images\0262.jpg	YN	Left	Yes	1.20086749999609	0	236250	253
462.615234375	0	taste	response	1	28	28	foodImage.26	FOODEEG_Images\0262.jpg	YN	Left	Yes	1.20086749999609	0	236860	234
463.66015625	1	health	trialStart	1	29	29	foodImage.81	FOODEEG_Images\0797.jpg	NY	Right	Yes	0.954555600008462	0	237395	251
464.716796875	2	health	foodImageDisplay	1	29	29	foodImage.81	FOODEEG_Images\0797.jpg	NY	Right	Yes	0.954555600008462	0	237936	252
466.78125	0.954555600008462	health	choicePhaseStart	1	29	29	foodImage.81	FOODEEG_Images\0797.jpg	NY	Right	Yes	0.954555600008462	0	238993	253
467.7265625	0	health	response	1	29	29	foodImage.81	FOODEEG_Images\0797.jpg	NY	Right	Yes	0.954555600008462	0	239477	235
468.767578125	1	decision	trialStart	1	30	30	foodImage.40	FOODEEG_Images\0373.jpg	NY	Right	Yes	1.01518420000502	0	240010	251
469.80859375	2	decision	foodImageDisplay	1	30	30	foodImage.40	FOODEEG_Images\0373.jpg	NY	Right	Yes	1.01518420000502	0	240543	252
471.873046875	1.01518420000502	decision	choicePhaseStart	1	30	30	foodImage.40	FOODEEG_Images\0373.jpg	NY	Right	Yes	1.01518420000502	0	241600	253
472.87890625	0	decision	response	1	30	30	foodImage.40	FOODEEG_Images\0373.jpg	NY	Right	Yes	1.01518420000502	0	242115	235
473.91796875	1	taste	trialStart	1	31	31	foodImage.70	FOODEEG_Images\0705.jpg	YN	Left	Yes	0.916875900002196	0	242647	251
474.990234375	2	taste	foodImageDisplay	1	31	31	foodImage.70	FOODEEG_Images\0705.jpg	YN	Left	Yes	0.916875900002196	0	243196	252
477.05859375	0.916875900002196	taste	choicePhaseStart	1	31	31	foodImage.70	FOODEEG_Images\0705.jpg	YN	Left	Yes	0.916875900002196	0	244255	253
477.96484375	0	taste	response	1	31	31	foodImage.70	FOODEEG_Images\0705.jpg	YN	Left	Yes	0.916875900002196	0	244719	234
479.0078125	1	decision	trialStart	1	32	32	foodImage.97	FOODEEG_Images\0905.jpg	NY	Right	Yes	1.08889909999561	0	245253	251
480.044921875	2	decision	foodImageDisplay	1	32	32	foodImage.97	FOODEEG_Images\0905.jpg	NY	Right	Yes	1.08889909999561	0	245784	252
482.109375	1.08889909999561	decision	choicePhaseStart	1	32	32	foodImage.97	FOODEEG_Images\0905.jpg	NY	Right	Yes	1.08889909999561	0	246841	253
483.189453125	0	decision	response	1	32	32	foodImage.97	FOODEEG_Images\0905.jpg	NY	Right	Yes	1.08889909999561	0	247394	235
484.23046875	1	health	trialStart	1	33	33	foodImage.90	FOODEEG_Images\0890.jpg	YN	Left	Yes	0.645166999995126	0	247927	251
485.294921875	2	health	foodImageDisplay	1	33	33	foodImage.90	FOODEEG_Images\0890.jpg	YN	Left	Yes	0.645166999995126	0	248472	252
487.357421875	0.645166999995126	health	choicePhaseStart	1	33	33	foodImage.90	FOODEEG_Images\0890.jpg	YN	Left	Yes	0.645166999995126	0	249528	253
487.998046875	0	health	response	1	33	33	foodImage.90	FOODEEG_Images\0890.jpg	YN	Left	Yes	0.645166999995126	0	249856	234
489.037109375	1	taste	trialStart	1	34	34	foodImage.111	FOODEEG_Images\0919.jpg	NY	Left	No	0.975460599991493	0	250388	251
490.076171875	2	taste	foodImageDisplay	1	34	34	foodImage.111	FOODEEG_Images\0919.jpg	NY	Left	No	0.975460599991493	0	250920	252
492.142578125	0.975460599991493	taste	choicePhaseStart	1	34	34	foodImage.111	FOODEEG_Images\0919.jpg	NY	Left	No	0.975460599991493	0	251978	253
493.109375	0	taste	response	1	34	34	foodImage.111	FOODEEG_Images\0919.jpg	NY	Left	No	0.975460599991493	0	252473	234
494.150390625	1	decision	trialStart	1	35	35	foodImage.115	FOODEEG_Images\0923.jpg	NY	Right	Yes	1.18079379999836	0	253006	251
495.19140625	2	decision	foodImageDisplay	1	35	35	foodImage.115	FOODEEG_Images\0923.jpg	NY	Right	Yes	1.18079379999836	0	253539	252
497.255859375	1.18079379999836	decision	choicePhaseStart	1	35	35	foodImage.115	FOODEEG_Images\0923.jpg	NY	Right	Yes	1.18079379999836	0	254596	253
498.4296875	0	decision	response	1	35	35	foodImage.115	FOODEEG_Images\0923.jpg	NY	Right	Yes	1.18079379999836	0	255197	235
499.470703125	1	health	trialStart	1	36	36	foodImage.98	FOODEEG_Images\0906.jpg	NY	Left	No	1.2181883000012	0	255730	251
500.5078125	2	health	foodImageDisplay	1	36	36	foodImage.98	FOODEEG_Images\0906.jpg	NY	Left	No	1.2181883000012	0	256261	252
502.572265625	1.2181883000012	health	choicePhaseStart	1	36	36	foodImage.98	FOODEEG_Images\0906.jpg	NY	Left	No	1.2181883000012	0	257318	253
503.78125	0	health	response	1	36	36	foodImage.98	FOODEEG_Images\0906.jpg	NY	Left	No	1.2181883000012	0	257937	234
504.82421875	1	decision	trialStart	1	37	37	foodImage.52	FOODEEG_Images\0539.jpg	YN	Left	Yes	0.894168300001184	0	258471	251
505.880859375	2	decision	foodImageDisplay	1	37	37	foodImage.52	FOODEEG_Images\0539.jpg	YN	Left	Yes	0.894168300001184	0	259012	252
507.9453125	0.894168300001184	decision	choicePhaseStart	1	37	37	foodImage.52	FOODEEG_Images\0539.jpg	YN	Left	Yes	0.894168300001184	0	260069	253
508.828125	0	decision	response	1	37	37	foodImage.52	FOODEEG_Images\0539.jpg	YN	Left	Yes	0.894168300001184	0	260521	234
509.875	1	taste	trialStart	1	38	38	foodImage.105	FOODEEG_Images\0913.jpg	NY	Right	Yes	1.50765820000379	0	261057	251
510.912109375	2	taste	foodImageDisplay	1	38	38	foodImage.105	FOODEEG_Images\0913.jpg	NY	Right	Yes	1.50765820000379	0	261588	252
512.9765625	1.50765820000379	taste	choicePhaseStart	1	38	38	foodImage.105	FOODEEG_Images\0913.jpg	NY	Right	Yes	1.50765820000379	0	262645	253
514.4765625	0	taste	response	1	38	38	foodImage.105	FOODEEG_Images\0913.jpg	NY	Right	Yes	1.50765820000379	0	263413	235
515.521484375	1	decision	trialStart	1	39	39	foodImage.6	FOODEEG_Images\0113.jpg	NY	Right	Yes	0.684047799994005	0	263948	251
516.5625	2	decision	foodImageDisplay	1	39	39	foodImage.6	FOODEEG_Images\0113.jpg	NY	Right	Yes	0.684047799994005	0	264481	252
518.626953125	0.684047799994005	decision	choicePhaseStart	1	39	39	foodImage.6	FOODEEG_Images\0113.jpg	NY	Right	Yes	0.684047799994005	0	265538	253
519.30078125	0	decision	response	1	39	39	foodImage.6	FOODEEG_Images\0113.jpg	NY	Right	Yes	0.684047799994005	0	265883	235
520.341796875	1	taste	trialStart	1	40	40	foodImage.37	FOODEEG_Images\0359.jpg	NY	Right	Yes	1.17704039999808	0	266416	251
521.388671875	2	taste	foodImageDisplay	1	40	40	foodImage.37	FOODEEG_Images\0359.jpg	NY	Right	Yes	1.17704039999808	0	266952	252
523.453125	1.17704039999808	taste	choicePhaseStart	1	40	40	foodImage.37	FOODEEG_Images\0359.jpg	NY	Right	Yes	1.17704039999808	0	268009	253
524.619140625	0	taste	response	1	40	40	foodImage.37	FOODEEG_Images\0359.jpg	NY	Right	Yes	1.17704039999808	0	268606	235
525.66015625	1	decision	trialStart	1	41	41	foodImage.57	FOODEEG_Images\0587.jpg	NY	Right	Yes	1.04511430001003	0	269139	251
526.703125	2	decision	foodImageDisplay	1	41	41	foodImage.57	FOODEEG_Images\0587.jpg	NY	Right	Yes	1.04511430001003	0	269673	252
528.7734375	1.04511430001003	decision	choicePhaseStart	1	41	41	foodImage.57	FOODEEG_Images\0587.jpg	NY	Right	Yes	1.04511430001003	0	270733	253
529.8125	0	decision	response	1	41	41	foodImage.57	FOODEEG_Images\0587.jpg	NY	Right	Yes	1.04511430001003	0	271265	235
530.853515625	1	taste	trialStart	1	42	42	foodImage.108	FOODEEG_Images\0916.jpg	YN	Left	Yes	1.73840050000581	0	271798	251
531.892578125	2	taste	foodImageDisplay	1	42	42	foodImage.108	FOODEEG_Images\0916.jpg	YN	Left	Yes	1.73840050000581	0	272330	252
533.955078125	1.73840050000581	taste	choicePhaseStart	1	42	42	foodImage.108	FOODEEG_Images\0916.jpg	YN	Left	Yes	1.73840050000581	0	273386	253
535.68359375	0	taste	response	1	42	42	foodImage.108	FOODEEG_Images\0916.jpg	YN	Left	Yes	1.73840050000581	0	274271	234
536.724609375	1	health	trialStart	1	43	43	foodImage.35	FOODEEG_Images\0350.jpg	YN	Right	No	0.762359499989543	0	274804	251
537.779296875	2	health	foodImageDisplay	1	43	43	foodImage.35	FOODEEG_Images\0350.jpg	YN	Right	No	0.762359499989543	0	275344	252
539.84375	0.762359499989543	health	choicePhaseStart	1	43	43	foodImage.35	FOODEEG_Images\0350.jpg	YN	Right	No	0.762359499989543	0	276401	253
540.595703125	0	health	response	1	43	43	foodImage.35	FOODEEG_Images\0350.jpg	YN	Right	No	0.762359499989543	0	276786	235
541.638671875	1	decision	trialStart	1	44	44	foodImage.50	FOODEEG_Images\0529.jpg	YN	Left	Yes	1.02439639999648	0	277320	251
542.69921875	2	decision	foodImageDisplay	1	44	44	foodImage.50	FOODEEG_Images\0529.jpg	YN	Left	Yes	1.02439639999648	0	277863	252
544.763671875	1.02439639999648	decision	choicePhaseStart	1	44	44	foodImage.50	FOODEEG_Images\0529.jpg	YN	Left	Yes	1.02439639999648	0	278920	253
545.779296875	0	decision	response	1	44	44	foodImage.50	FOODEEG_Images\0529.jpg	YN	Left	Yes	1.02439639999648	0	279440	234
546.822265625	1	taste	trialStart	1	45	45	foodImage.49	FOODEEG_Images\0515.jpg	NY	Right	Yes	0.749305699995602	0	279974	251
547.86328125	2	taste	foodImageDisplay	1	45	45	foodImage.49	FOODEEG_Images\0515.jpg	NY	Right	Yes	0.749305699995602	0	280507	252
549.927734375	0.749305699995602	taste	choicePhaseStart	1	45	45	foodImage.49	FOODEEG_Images\0515.jpg	NY	Right	Yes	0.749305699995602	0	281564	253
550.66796875	0	taste	response	1	45	45	foodImage.49	FOODEEG_Images\0515.jpg	NY	Right	Yes	0.749305699995602	0	281943	235
551.712890625	1	taste	trialStart	1	46	46	foodImage.20	FOODEEG_Images\0226.jpg	NY	Left	No	1.26167780000833	0	282478	251
552.751953125	2	taste	foodImageDisplay	1	46	46	foodImage.20	FOODEEG_Images\0226.jpg	NY	Left	No	1.26167780000833	0	283010	252
554.81640625	1.26167780000833	taste	choicePhaseStart	1	46	46	foodImage.20	FOODEEG_Images\0226.jpg	NY	Left	No	1.26167780000833	0	284067	253
556.06640625	0	taste	response	1	46	46	foodImage.20	FOODEEG_Images\0226.jpg	NY	Left	No	1.26167780000833	0	284707	234
557.109375	1	health	trialStart	1	47	47	foodImage.48	FOODEEG_Images\0494.jpg	NY	Left	No	1.41582619999826	0	285241	251
558.166015625	2	health	foodImageDisplay	1	47	47	foodImage.48	FOODEEG_Images\0494.jpg	NY	Left	No	1.41582619999826	0	285782	252
560.228515625	1.41582619999826	health	choicePhaseStart	1	47	47	foodImage.48	FOODEEG_Images\0494.jpg	NY	Left	No	1.41582619999826	0	286838	253
561.634765625	0	health	response	1	47	47	foodImage.48	FOODEEG_Images\0494.jpg	NY	Left	No	1.41582619999826	0	287558	234
562.677734375	1	health	trialStart	1	48	48	foodImage.28	FOODEEG_Images\0273.jpg	YN	Left	Yes	0.78031529999862	0	288092	251
563.720703125	2	health	foodImageDisplay	1	48	48	foodImage.28	FOODEEG_Images\0273.jpg	YN	Left	Yes	0.78031529999862	0	288626	252
565.78515625	0.78031529999862	health	choicePhaseStart	1	48	48	foodImage.28	FOODEEG_Images\0273.jpg	YN	Left	Yes	0.78031529999862	0	289683	253
566.5546875	0	health	response	1	48	48	foodImage.28	FOODEEG_Images\0273.jpg	YN	Left	Yes	0.78031529999862	0	290077	234
567.59375	1	taste	trialStart	1	49	49	foodImage.79	FOODEEG_Images\0794.jpg	YN	Left	Yes	0.90763249999145	0	290609	251
568.63671875	2	taste	foodImageDisplay	1	49	49	foodImage.79	FOODEEG_Images\0794.jpg	YN	Left	Yes	0.90763249999145	0	291143	252
570.705078125	0.90763249999145	taste	choicePhaseStart	1	49	49	foodImage.79	FOODEEG_Images\0794.jpg	YN	Left	Yes	0.90763249999145	0	292202	253
571.603515625	0	taste	response	1	49	49	foodImage.79	FOODEEG_Images\0794.jpg	YN	Left	Yes	0.90763249999145	0	292662	234
572.64453125	1	decision	trialStart	1	50	50	foodImage.51	FOODEEG_Images\0536.jpg	NY	Right	Yes	1.42462469999737	0	293195	251
573.693359375	2	decision	foodImageDisplay	1	50	50	foodImage.51	FOODEEG_Images\0536.jpg	NY	Right	Yes	1.42462469999737	0	293732	252
575.755859375	1.42462469999737	decision	choicePhaseStart	1	50	50	foodImage.51	FOODEEG_Images\0536.jpg	NY	Right	Yes	1.42462469999737	0	294788	253
577.169921875	0	decision	response	1	50	50	foodImage.51	FOODEEG_Images\0536.jpg	NY	Right	Yes	1.42462469999737	0	295512	235
578.212890625	1	health	trialStart	1	51	51	foodImage.22	FOODEEG_Images\0236.jpg	YN	Left	Yes	1.45369890000438	0	296046	251
579.251953125	2	health	foodImageDisplay	1	51	51	foodImage.22	FOODEEG_Images\0236.jpg	YN	Left	Yes	1.45369890000438	0	296578	252
581.318359375	1.45369890000438	health	choicePhaseStart	1	51	51	foodImage.22	FOODEEG_Images\0236.jpg	YN	Left	Yes	1.45369890000438	0	297636	253
582.76171875	0	health	response	1	51	51	foodImage.22	FOODEEG_Images\0236.jpg	YN	Left	Yes	1.45369890000438	0	298375	234
583.8046875	1	health	trialStart	1	52	52	foodImage.44	FOODEEG_Images\0459.jpg	YN	Left	Yes	2.31190190000052	0	298909	251
584.853515625	2	health	foodImageDisplay	1	52	52	foodImage.44	FOODEEG_Images\0459.jpg	YN	Left	Yes	2.31190190000052	0	299446	252
586.916015625	2.31190190000052	health	choicePhaseStart	1	52	52	foodImage.44	FOODEEG_Images\0459.jpg	YN	Left	Yes	2.31190190000052	0	300502	253
589.21875	0	health	response	1	52	52	foodImage.44	FOODEEG_Images\0459.jpg	YN	Left	Yes	2.31190190000052	0	301681	234
590.26171875	1	decision	trialStart	1	53	53	foodImage.102	FOODEEG_Images\0910.jpg	YN	Left	Yes	0.879476899994188	0	302215	251
591.298828125	2	decision	foodImageDisplay	1	53	53	foodImage.102	FOODEEG_Images\0910.jpg	YN	Left	Yes	0.879476899994188	0	302746	252
593.36328125	0.879476899994188	decision	choicePhaseStart	1	53	53	foodImage.102	FOODEEG_Images\0910.jpg	YN	Left	Yes	0.879476899994188	0	303803	253
594.234375	0	decision	response	1	53	53	foodImage.102	FOODEEG_Images\0910.jpg	YN	Left	Yes	0.879476899994188	0	304249	234
595.2734375	1	health	trialStart	1	54	54	foodImage.13	FOODEEG_Images\0183.jpg	YN	Left	Yes	2.21486769999319	0	304781	251
596.31640625	2	health	foodImageDisplay	1	54	54	foodImage.13	FOODEEG_Images\0183.jpg	YN	Left	Yes	2.21486769999319	0	305315	252
598.380859375	2.21486769999319	health	choicePhaseStart	1	54	54	foodImage.13	FOODEEG_Images\0183.jpg	YN	Left	Yes	2.21486769999319	0	306372	253
600.5859375	0	health	response	1	54	54	foodImage.13	FOODEEG_Images\0183.jpg	YN	Left	Yes	2.21486769999319	0	307501	234
601.626953125	1	taste	trialStart	1	55	55	foodImage.58	FOODEEG_Images\0605.jpg	NY	Right	Yes	1.00892089999979	0	308034	251
602.685546875	2	taste	foodImageDisplay	1	55	55	foodImage.58	FOODEEG_Images\0605.jpg	NY	Right	Yes	1.00892089999979	0	308576	252
604.75390625	1.00892089999979	taste	choicePhaseStart	1	55	55	foodImage.58	FOODEEG_Images\0605.jpg	NY	Right	Yes	1.00892089999979	0	309635	253
605.75390625	0	taste	response	1	55	55	foodImage.58	FOODEEG_Images\0605.jpg	NY	Right	Yes	1.00892089999979	0	310147	235
606.796875	1	decision	trialStart	1	56	56	foodImage.116	FOODEEG_Images\0924.jpg	NY	Left	No	0.971849700013991	0	310681	251
607.84765625	2	decision	foodImageDisplay	1	56	56	foodImage.116	FOODEEG_Images\0924.jpg	NY	Left	No	0.971849700013991	0	311219	252
609.912109375	0.971849700013991	decision	choicePhaseStart	1	56	56	foodImage.116	FOODEEG_Images\0924.jpg	NY	Left	No	0.971849700013991	0	312276	253
610.873046875	0	decision	response	1	56	56	foodImage.116	FOODEEG_Images\0924.jpg	NY	Left	No	0.971849700013991	0	312768	234
611.9140625	1	taste	trialStart	1	57	57	foodImage.39	FOODEEG_Images\0367.jpg	YN	Right	No	1.33907360000012	0	313301	251
612.951171875	2	taste	foodImageDisplay	1	57	57	foodImage.39	FOODEEG_Images\0367.jpg	YN	Right	No	1.33907360000012	0	313832	252
615.015625	1.33907360000012	taste	choicePhaseStart	1	57	57	foodImage.39	FOODEEG_Images\0367.jpg	YN	Right	No	1.33907360000012	0	314889	253
616.345703125	0	taste	response	1	57	57	foodImage.39	FOODEEG_Images\0367.jpg	YN	Right	No	1.33907360000012	0	315570	235
617.38671875	1	taste	trialStart	1	58	58	foodImage.68	FOODEEG_Images\0685.jpg	YN	Left	Yes	0.537133000005269	0	316103	251
618.46484375	2	taste	foodImageDisplay	1	58	58	foodImage.68	FOODEEG_Images\0685.jpg	YN	Left	Yes	0.537133000005269	0	316655	252
620.529296875	0.537133000005269	taste	choicePhaseStart	1	58	58	foodImage.68	FOODEEG_Images\0685.jpg	YN	Left	Yes	0.537133000005269	0	317712	253
621.056640625	0	taste	response	1	58	58	foodImage.68	FOODEEG_Images\0685.jpg	YN	Left	Yes	0.537133000005269	0	317982	234
622.099609375	1	health	trialStart	1	59	59	foodImage.49	FOODEEG_Images\0515.jpg	NY	Left	No	1.10296010000457	0	318516	251
623.146484375	2	health	foodImageDisplay	1	59	59	foodImage.49	FOODEEG_Images\0515.jpg	NY	Left	No	1.10296010000457	0	319052	252
625.2109375	1.10296010000457	health	choicePhaseStart	1	59	59	foodImage.49	FOODEEG_Images\0515.jpg	NY	Left	No	1.10296010000457	0	320109	253
626.3046875	0	health	response	1	59	59	foodImage.49	FOODEEG_Images\0515.jpg	NY	Left	No	1.10296010000457	0	320669	234
627.345703125	1	decision	trialStart	1	60	60	foodImage.24	FOODEEG_Images\0250.jpg	NY	Right	Yes	0.956549199996516	0	321202	251
628.388671875	2	decision	foodImageDisplay	1	60	60	foodImage.24	FOODEEG_Images\0250.jpg	NY	Right	Yes	0.956549199996516	0	321736	252
630.453125	0.956549199996516	decision	choicePhaseStart	1	60	60	foodImage.24	FOODEEG_Images\0250.jpg	NY	Right	Yes	0.956549199996516	0	322793	253
631.400390625	0	decision	response	1	60	60	foodImage.24	FOODEEG_Images\0250.jpg	NY	Right	Yes	0.956549199996516	0	323278	235
633.44140625	16.03125	n/a	blockEnd	n/a	n/a	n/a	n/a	n/a	n/a	n/a	n/a	n/a	n/a	324323	254
649.47265625	2	n/a	blockStart	2	n/a	n/a	n/a	n/a	n/a	n/a	n/a	n/a	n/a	332531	250
651.505859375	1	health	trialStart	2	61	1	foodImage.33	FOODEEG_Images\0329.jpg	YN	Left	Yes	0.678259799999068	0	333572	251
652.546875	2	health	foodImageDisplay	2	61	1	foodImage.33	FOODEEG_Images\0329.jpg	YN	Left	Yes	0.678259799999068	0	334105	252
654.609375	0.678259799999068	health	choicePhaseStart	2	61	1	foodImage.33	FOODEEG_Images\0329.jpg	YN	Left	Yes	0.678259799999068	0	335161	253
655.279296875	0	health	response	2	61	1	foodImage.33	FOODEEG_Images\0329.jpg	YN	Left	Yes	0.678259799999068	0	335504	234
656.3203125	1	health	trialStart	2	62	2	foodImage.15	FOODEEG_Images\0189.jpg	YN	Right	No	1.42020540000522	0	336037	251
657.376953125	2	health	foodImageDisplay	2	62	2	foodImage.15	FOODEEG_Images\0189.jpg	YN	Right	No	1.42020540000522	0	336578	252
659.4453125	1.42020540000522	health	choicePhaseStart	2	62	2	foodImage.15	FOODEEG_Images\0189.jpg	YN	Right	No	1.42020540000522	0	337637	253
660.85546875	0	health	response	2	62	2	foodImage.15	FOODEEG_Images\0189.jpg	YN	Right	No	1.42020540000522	0	338359	235
661.896484375	1	decision	trialStart	2	63	3	foodImage.65	FOODEEG_Images\0658.jpg	YN	Right	No	1.65603399999964	0	338892	251
662.9375	2	decision	foodImageDisplay	2	63	3	foodImage.65	FOODEEG_Images\0658.jpg	YN	Right	No	1.65603399999964	0	339425	252
665	1.65603399999964	decision	choicePhaseStart	2	63	3	foodImage.65	FOODEEG_Images\0658.jpg	YN	Right	No	1.65603399999964	0	340481	253
666.646484375	0	decision	response	2	63	3	foodImage.65	FOODEEG_Images\0658.jpg	YN	Right	No	1.65603399999964	0	341324	235
667.6875	1	taste	trialStart	2	64	4	foodImage.115	FOODEEG_Images\0923.jpg	NY	Right	Yes	1.07436620000226	0	341857	251
668.7265625	2	taste	foodImageDisplay	2	64	4	foodImage.115	FOODEEG_Images\0923.jpg	NY	Right	Yes	1.07436620000226	0	342389	252
670.791015625	1.07436620000226	taste	choicePhaseStart	2	64	4	foodImage.115	FOODEEG_Images\0923.jpg	NY	Right	Yes	1.07436620000226	0	343446	253
671.85546875	0	taste	response	2	64	4	foodImage.115	FOODEEG_Images\0923.jpg	NY	Right	Yes	1.07436620000226	0	343991	235
672.896484375	1	decision	trialStart	2	65	5	foodImage.93	FOODEEG_Images\0901.jpg	YN	Left	Yes	1.17220039998938	0	344524	251
673.935546875	2	decision	foodImageDisplay	2	65	5	foodImage.93	FOODEEG_Images\0901.jpg	YN	Left	Yes	1.17220039998938	0	345056	252
675.99609375	1.17220039998938	decision	choicePhaseStart	2	65	5	foodImage.93	FOODEEG_Images\0901.jpg	YN	Left	Yes	1.17220039998938	0	346111	253
677.158203125	0	decision	response	2	65	5	foodImage.93	FOODEEG_Images\0901.jpg	YN	Left	Yes	1.17220039998938	0	346706	234
678.19921875	1	taste	trialStart	2	66	6	foodImage.7	FOODEEG_Images\0116.jpg	YN	Left	Yes	1.28824360000726	0	347239	251
679.2421875	2	taste	foodImageDisplay	2	66	6	foodImage.7	FOODEEG_Images\0116.jpg	YN	Left	Yes	1.28824360000726	0	347773	252
681.310546875	1.28824360000726	taste	choicePhaseStart	2	66	6	foodImage.7	FOODEEG_Images\0116.jpg	YN	Left	Yes	1.28824360000726	0	348832	253
682.591796875	0	taste	response	2	66	6	foodImage.7	FOODEEG_Images\0116.jpg	YN	Left	Yes	1.28824360000726	0	349488	234
683.6328125	1	decision	trialStart	2	67	7	foodImage.108	FOODEEG_Images\0916.jpg	NY	Left	No	2.42755530000431	0	350021	251
684.669921875	2	decision	foodImageDisplay	2	67	7	foodImage.108	FOODEEG_Images\0916.jpg	NY	Left	No	2.42755530000431	0	350552	252
686.732421875	2.42755530000431	decision	choicePhaseStart	2	67	7	foodImage.108	FOODEEG_Images\0916.jpg	NY	Left	No	2.42755530000431	0	351608	253
689.150390625	0	decision	response	2	67	7	foodImage.108	FOODEEG_Images\0916.jpg	NY	Left	No	2.42755530000431	0	352846	234
690.193359375	1	taste	trialStart	2	68	8	foodImage.4	FOODEEG_Images\0065.jpg	NY	Right	Yes	0.926746900004218	0	353380	251
691.2578125	2	taste	foodImageDisplay	2	68	8	foodImage.4	FOODEEG_Images\0065.jpg	NY	Right	Yes	0.926746900004218	0	353925	252
693.322265625	0.926746900004218	taste	choicePhaseStart	2	68	8	foodImage.4	FOODEEG_Images\0065.jpg	NY	Right	Yes	0.926746900004218	0	354982	253
694.23828125	0	taste	response	2	68	8	foodImage.4	FOODEEG_Images\0065.jpg	NY	Right	Yes	0.926746900004218	0	355451	235
695.279296875	1	decision	trialStart	2	69	9	foodImage.31	FOODEEG_Images\0294.jpg	NY	Left	No	1.52989459999662	0	355984	251
696.328125	2	decision	foodImageDisplay	2	69	9	foodImage.31	FOODEEG_Images\0294.jpg	NY	Left	No	1.52989459999662	0	356521	252
698.390625	1.52989459999662	decision	choicePhaseStart	2	69	9	foodImage.31	FOODEEG_Images\0294.jpg	NY	Left	No	1.52989459999662	0	357577	253
699.91015625	0	decision	response	2	69	9	foodImage.31	FOODEEG_Images\0294.jpg	NY	Left	No	1.52989459999662	0	358355	234
700.951171875	1	taste	trialStart	2	70	10	foodImage.35	FOODEEG_Images\0350.jpg	NY	Right	Yes	1.51662750000833	0	358888	251
701.98828125	2	taste	foodImageDisplay	2	70	10	foodImage.35	FOODEEG_Images\0350.jpg	NY	Right	Yes	1.51662750000833	0	359419	252
704.05078125	1.51662750000833	taste	choicePhaseStart	2	70	10	foodImage.35	FOODEEG_Images\0350.jpg	NY	Right	Yes	1.51662750000833	0	360475	253
705.55859375	0	taste	response	2	70	10	foodImage.35	FOODEEG_Images\0350.jpg	NY	Right	Yes	1.51662750000833	0	361247	235
706.599609375	1	taste	trialStart	2	71	11	foodImage.14	FOODEEG_Images\0188.jpg	YN	Left	Yes	0.684738600000856	0	361780	251
707.666015625	2	taste	foodImageDisplay	2	71	11	foodImage.14	FOODEEG_Images\0188.jpg	YN	Left	Yes	0.684738600000856	0	362326	252
709.73046875	0.684738600000856	taste	choicePhaseStart	2	71	11	foodImage.14	FOODEEG_Images\0188.jpg	YN	Left	Yes	0.684738600000856	0	363383	253
710.40625	0	taste	response	2	71	11	foodImage.14	FOODEEG_Images\0188.jpg	YN	Left	Yes	0.684738600000856	0	363729	234
711.44921875	1	health	trialStart	2	72	12	foodImage.30	FOODEEG_Images\0282.jpg	NY	Right	Yes	0.837713800006895	0	364263	251
712.490234375	2	health	foodImageDisplay	2	72	12	foodImage.30	FOODEEG_Images\0282.jpg	NY	Right	Yes	0.837713800006895	0	364796	252
714.5546875	0.837713800006895	health	choicePhaseStart	2	72	12	foodImage.30	FOODEEG_Images\0282.jpg	NY	Right	Yes	0.837713800006895	0	365853	253
715.3828125	0	health	response	2	72	12	foodImage.30	FOODEEG_Images\0282.jpg	NY	Right	Yes	0.837713800006895	0	366277	235
716.421875	1	decision	trialStart	2	73	13	foodImage.83	FOODEEG_Images\0827.jpg	YN	Left	Yes	0.977552900003502	0	366809	251
717.486328125	2	decision	foodImageDisplay	2	73	13	foodImage.83	FOODEEG_Images\0827.jpg	YN	Left	Yes	0.977552900003502	0	367354	252
719.55078125	0.977552900003502	decision	choicePhaseStart	2	73	13	foodImage.83	FOODEEG_Images\0827.jpg	YN	Left	Yes	0.977552900003502	0	368411	253
720.517578125	0	decision	response	2	73	13	foodImage.83	FOODEEG_Images\0827.jpg	YN	Left	Yes	0.977552900003502	0	368906	234
721.55859375	1	decision	trialStart	2	74	14	foodImage.113	FOODEEG_Images\0921.jpg	YN	Left	Yes	3.03536990001157	0	369439	251
722.59765625	2	decision	foodImageDisplay	2	74	14	foodImage.113	FOODEEG_Images\0921.jpg	YN	Left	Yes	3.03536990001157	0	369971	252
724.66015625	3.03536990001157	decision	choicePhaseStart	2	74	14	foodImage.113	FOODEEG_Images\0921.jpg	YN	Left	Yes	3.03536990001157	0	371027	253
727.685546875	0	decision	response	2	74	14	foodImage.113	FOODEEG_Images\0921.jpg	YN	Left	Yes	3.03536990001157	0	372576	234
728.724609375	1	taste	trialStart	2	75	15	foodImage.71	FOODEEG_Images\0713.jpg	YN	Left	Yes	0.634293199997046	0	373108	251
729.76953125	2	taste	foodImageDisplay	2	75	15	foodImage.71	FOODEEG_Images\0713.jpg	YN	Left	Yes	0.634293199997046	0	373643	252
731.8359375	0.634293199997046	taste	choicePhaseStart	2	75	15	foodImage.71	FOODEEG_Images\0713.jpg	YN	Left	Yes	0.634293199997046	0	374701	253
732.4609375	0	taste	response	2	75	15	foodImage.71	FOODEEG_Images\0713.jpg	YN	Left	Yes	0.634293199997046	0	375021	234
733.501953125	1	health	trialStart	2	76	16	foodImage.103	FOODEEG_Images\0911.jpg	YN	Right	No	0.686886300012702	0	375554	251
734.544921875	2	health	foodImageDisplay	2	76	16	foodImage.103	FOODEEG_Images\0911.jpg	YN	Right	No	0.686886300012702	0	376088	252
736.607421875	0.686886300012702	health	choicePhaseStart	2	76	16	foodImage.103	FOODEEG_Images\0911.jpg	YN	Right	No	0.686886300012702	0	377144	253
737.287109375	0	health	response	2	76	16	foodImage.103	FOODEEG_Images\0911.jpg	YN	Right	No	0.686886300012702	0	377492	235
738.328125	1	health	trialStart	2	77	17	foodImage.1	FOODEEG_Images\0004.jpg	YN	Right	No	1.13661370000045	0	378025	251
739.373046875	2	health	foodImageDisplay	2	77	17	foodImage.1	FOODEEG_Images\0004.jpg	YN	Right	No	1.13661370000045	0	378560	252
741.4375	1.13661370000045	health	choicePhaseStart	2	77	17	foodImage.1	FOODEEG_Images\0004.jpg	YN	Right	No	1.13661370000045	0	379617	253
742.564453125	0	health	response	2	77	17	foodImage.1	FOODEEG_Images\0004.jpg	YN	Right	No	1.13661370000045	0	380194	235
743.60546875	1	taste	trialStart	2	78	18	foodImage.67	FOODEEG_Images\0679.jpg	YN	Left	Yes	0.812263999992865	0	380727	251
744.666015625	2	taste	foodImageDisplay	2	78	18	foodImage.67	FOODEEG_Images\0679.jpg	YN	Left	Yes	0.812263999992865	0	381270	252
746.73046875	0.812263999992865	taste	choicePhaseStart	2	78	18	foodImage.67	FOODEEG_Images\0679.jpg	YN	Left	Yes	0.812263999992865	0	382327	253
747.533203125	0	taste	response	2	78	18	foodImage.67	FOODEEG_Images\0679.jpg	YN	Left	Yes	0.812263999992865	0	382738	234
748.57421875	1	taste	trialStart	2	79	19	foodImage.43	FOODEEG_Images\0445.jpg	YN	Right	No	1.20988809999835	0	383271	251
749.62890625	2	taste	foodImageDisplay	2	79	19	foodImage.43	FOODEEG_Images\0445.jpg	YN	Right	No	1.20988809999835	0	383811	252
751.693359375	1.20988809999835	taste	choicePhaseStart	2	79	19	foodImage.43	FOODEEG_Images\0445.jpg	YN	Right	No	1.20988809999835	0	384868	253
752.892578125	0	taste	response	2	79	19	foodImage.43	FOODEEG_Images\0445.jpg	YN	Right	No	1.20988809999835	0	385482	235
753.935546875	1	health	trialStart	2	80	20	foodImage.72	FOODEEG_Images\0714.jpg	YN	Left	Yes	0.699804999996559	0	386016	251
754.986328125	2	health	foodImageDisplay	2	80	20	foodImage.72	FOODEEG_Images\0714.jpg	YN	Left	Yes	0.699804999996559	0	386554	252
757.05078125	0.699804999996559	health	choicePhaseStart	2	80	20	foodImage.72	FOODEEG_Images\0714.jpg	YN	Left	Yes	0.699804999996559	0	387611	253
757.740234375	0	health	response	2	80	20	foodImage.72	FOODEEG_Images\0714.jpg	YN	Left	Yes	0.699804999996559	0	387964	234
758.783203125	1	decision	trialStart	2	81	21	foodImage.39	FOODEEG_Images\0367.jpg	YN	Right	No	1.10962940000172	0	388498	251
759.82421875	2	decision	foodImageDisplay	2	81	21	foodImage.39	FOODEEG_Images\0367.jpg	YN	Right	No	1.10962940000172	0	389031	252
761.88671875	1.10962940000172	decision	choicePhaseStart	2	81	21	foodImage.39	FOODEEG_Images\0367.jpg	YN	Right	No	1.10962940000172	0	390087	253
762.98828125	0	decision	response	2	81	21	foodImage.39	FOODEEG_Images\0367.jpg	YN	Right	No	1.10962940000172	0	390651	235
764.029296875	1	decision	trialStart	2	82	22	foodImage.73	FOODEEG_Images\0717.jpg	YN	Left	Yes	0.535547799998312	0	391184	251
765.087890625	2	decision	foodImageDisplay	2	82	22	foodImage.73	FOODEEG_Images\0717.jpg	YN	Left	Yes	0.535547799998312	0	391726	252
767.150390625	0.535547799998312	decision	choicePhaseStart	2	82	22	foodImage.73	FOODEEG_Images\0717.jpg	YN	Left	Yes	0.535547799998312	0	392782	253
767.67578125	0	decision	response	2	82	22	foodImage.73	FOODEEG_Images\0717.jpg	YN	Left	Yes	0.535547799998312	0	393051	234
768.71875	1	health	trialStart	2	83	23	foodImage.88	FOODEEG_Images\0878.jpg	YN	Left	Yes	1.39803719999327	0	393585	251
769.775390625	2	health	foodImageDisplay	2	83	23	foodImage.88	FOODEEG_Images\0878.jpg	YN	Left	Yes	1.39803719999327	0	394126	252
771.83984375	1.39803719999327	health	choicePhaseStart	2	83	23	foodImage.88	FOODEEG_Images\0878.jpg	YN	Left	Yes	1.39803719999327	0	395183	253
773.228515625	0	health	response	2	83	23	foodImage.88	FOODEEG_Images\0878.jpg	YN	Left	Yes	1.39803719999327	0	395894	234
774.26953125	1	decision	trialStart	2	84	24	foodImage.9	FOODEEG_Images\0138.jpg	YN	Right	No	1.0719809000002	0	396427	251
775.341796875	2	decision	foodImageDisplay	2	84	24	foodImage.9	FOODEEG_Images\0138.jpg	YN	Right	No	1.0719809000002	0	396976	252
777.404296875	1.0719809000002	decision	choicePhaseStart	2	84	24	foodImage.9	FOODEEG_Images\0138.jpg	YN	Right	No	1.0719809000002	0	398032	253
778.46875	0	decision	response	2	84	24	foodImage.9	FOODEEG_Images\0138.jpg	YN	Right	No	1.0719809000002	0	398577	235
779.51171875	1	taste	trialStart	2	85	25	foodImage.112	FOODEEG_Images\0920.jpg	NY	Left	No	1.44465089999721	0	399111	251
780.55078125	2	taste	foodImageDisplay	2	85	25	foodImage.112	FOODEEG_Images\0920.jpg	NY	Left	No	1.44465089999721	0	399643	252
782.61328125	1.44465089999721	taste	choicePhaseStart	2	85	25	foodImage.112	FOODEEG_Images\0920.jpg	NY	Left	No	1.44465089999721	0	400699	253
784.052734375	0	taste	response	2	85	25	foodImage.112	FOODEEG_Images\0920.jpg	NY	Left	No	1.44465089999721	0	401436	234
785.091796875	1	decision	trialStart	2	86	26	foodImage.55	FOODEEG_Images\0567.jpg	YN	Left	Yes	0.791785900000832	0	401968	251
786.150390625	2	decision	foodImageDisplay	2	86	26	foodImage.55	FOODEEG_Images\0567.jpg	YN	Left	Yes	0.791785900000832	0	402510	252
788.212890625	0.791785900000832	decision	choicePhaseStart	2	86	26	foodImage.55	FOODEEG_Images\0567.jpg	YN	Left	Yes	0.791785900000832	0	403566	253
788.99609375	0	decision	response	2	86	26	foodImage.55	FOODEEG_Images\0567.jpg	YN	Left	Yes	0.791785900000832	0	403967	234
790.037109375	1	decision	trialStart	2	87	27	foodImage.28	FOODEEG_Images\0273.jpg	YN	Left	Yes	0.775804699995206	0	404500	251
791.078125	2	decision	foodImageDisplay	2	87	27	foodImage.28	FOODEEG_Images\0273.jpg	YN	Left	Yes	0.775804699995206	0	405033	252
793.140625	0.775804699995206	decision	choicePhaseStart	2	87	27	foodImage.28	FOODEEG_Images\0273.jpg	YN	Left	Yes	0.775804699995206	0	406089	253
793.908203125	0	decision	response	2	87	27	foodImage.28	FOODEEG_Images\0273.jpg	YN	Left	Yes	0.775804699995206	0	406482	234
794.947265625	1	decision	trialStart	2	88	28	foodImage.17	FOODEEG_Images\0199.jpg	NY	Right	Yes	0.927556900001946	0	407014	251
795.98828125	2	decision	foodImageDisplay	2	88	28	foodImage.17	FOODEEG_Images\0199.jpg	NY	Right	Yes	0.927556900001946	0	407547	252
798.052734375	0.927556900001946	decision	choicePhaseStart	2	88	28	foodImage.17	FOODEEG_Images\0199.jpg	NY	Right	Yes	0.927556900001946	0	408604	253
798.970703125	0	decision	response	2	88	28	foodImage.17	FOODEEG_Images\0199.jpg	NY	Right	Yes	0.927556900001946	0	409074	235
800.015625	1	decision	trialStart	2	89	29	foodImage.77	FOODEEG_Images\0771.jpg	NY	Right	Yes	0.872097500003292	0	409609	251
801.060546875	2	decision	foodImageDisplay	2	89	29	foodImage.77	FOODEEG_Images\0771.jpg	NY	Right	Yes	0.872097500003292	0	410144	252
803.125	0.872097500003292	decision	choicePhaseStart	2	89	29	foodImage.77	FOODEEG_Images\0771.jpg	NY	Right	Yes	0.872097500003292	0	411201	253
803.986328125	0	decision	response	2	89	29	foodImage.77	FOODEEG_Images\0771.jpg	NY	Right	Yes	0.872097500003292	0	411642	235
805.02734375	1	health	trialStart	2	90	30	foodImage.20	FOODEEG_Images\0226.jpg	YN	Left	Yes	2.04799350000394	0	412175	251
806.083984375	2	health	foodImageDisplay	2	90	30	foodImage.20	FOODEEG_Images\0226.jpg	YN	Left	Yes	2.04799350000394	0	412716	252
808.1484375	2.04799350000394	health	choicePhaseStart	2	90	30	foodImage.20	FOODEEG_Images\0226.jpg	YN	Left	Yes	2.04799350000394	0	413773	253
810.1875	0	health	response	2	90	30	foodImage.20	FOODEEG_Images\0226.jpg	YN	Left	Yes	2.04799350000394	0	414817	234
811.232421875	1	decision	trialStart	2	91	31	foodImage.46	FOODEEG_Images\0479.jpg	YN	Left	Yes	0.960919100005412	0	415352	251
812.29296875	2	decision	foodImageDisplay	2	91	31	foodImage.46	FOODEEG_Images\0479.jpg	YN	Left	Yes	0.960919100005412	0	415895	252
814.35546875	0.960919100005412	decision	choicePhaseStart	2	91	31	foodImage.46	FOODEEG_Images\0479.jpg	YN	Left	Yes	0.960919100005412	0	416951	253
815.306640625	0	decision	response	2	91	31	foodImage.46	FOODEEG_Images\0479.jpg	YN	Left	Yes	0.960919100005412	0	417438	234
816.345703125	1	decision	trialStart	2	92	32	foodImage.29	FOODEEG_Images\0278.jpg	YN	Left	Yes	0.855947600008221	0	417970	251
817.38671875	2	decision	foodImageDisplay	2	92	32	foodImage.29	FOODEEG_Images\0278.jpg	YN	Left	Yes	0.855947600008221	0	418503	252
819.451171875	0.855947600008221	decision	choicePhaseStart	2	92	32	foodImage.29	FOODEEG_Images\0278.jpg	YN	Left	Yes	0.855947600008221	0	419560	253
820.298828125	0	decision	response	2	92	32	foodImage.29	FOODEEG_Images\0278.jpg	YN	Left	Yes	0.855947600008221	0	419994	234
821.33984375	1	taste	trialStart	2	93	33	foodImage.98	FOODEEG_Images\0906.jpg	YN	Right	No	2.16960259999905	0	420527	251
822.376953125	2	taste	foodImageDisplay	2	93	33	foodImage.98	FOODEEG_Images\0906.jpg	YN	Right	No	2.16960259999905	0	421058	252
824.44140625	2.16960259999905	taste	choicePhaseStart	2	93	33	foodImage.98	FOODEEG_Images\0906.jpg	YN	Right	No	2.16960259999905	0	422115	253
826.603515625	0	taste	response	2	93	33	foodImage.98	FOODEEG_Images\0906.jpg	YN	Right	No	2.16960259999905	0	423222	235
827.64453125	1	health	trialStart	2	94	34	foodImage.23	FOODEEG_Images\0244.jpg	NY	Right	Yes	1.93452450000041	0	423755	251
828.685546875	2	health	foodImageDisplay	2	94	34	foodImage.23	FOODEEG_Images\0244.jpg	NY	Right	Yes	1.93452450000041	0	424288	252
830.75	1.93452450000041	health	choicePhaseStart	2	94	34	foodImage.23	FOODEEG_Images\0244.jpg	NY	Right	Yes	1.93452450000041	0	425345	253
832.673828125	0	health	response	2	94	34	foodImage.23	FOODEEG_Images\0244.jpg	NY	Right	Yes	1.93452450000041	0	426330	235
833.716796875	1	health	trialStart	2	95	35	foodImage.36	FOODEEG_Images\0352.jpg	YN	Left	Yes	2.03813059999084	0	426864	251
834.7734375	2	health	foodImageDisplay	2	95	35	foodImage.36	FOODEEG_Images\0352.jpg	YN	Left	Yes	2.03813059999084	0	427405	252
836.837890625	2.03813059999084	health	choicePhaseStart	2	95	35	foodImage.36	FOODEEG_Images\0352.jpg	YN	Left	Yes	2.03813059999084	0	428462	253
838.8671875	0	health	response	2	95	35	foodImage.36	FOODEEG_Images\0352.jpg	YN	Left	Yes	2.03813059999084	0	429501	234
839.908203125	1	decision	trialStart	2	96	36	foodImage.104	FOODEEG_Images\0912.jpg	YN	Right	No	1.48055110000132	0	430034	251
840.9453125	2	decision	foodImageDisplay	2	96	36	foodImage.104	FOODEEG_Images\0912.jpg	YN	Right	No	1.48055110000132	0	430565	252
843.0078125	1.48055110000132	decision	choicePhaseStart	2	96	36	foodImage.104	FOODEEG_Images\0912.jpg	YN	Right	No	1.48055110000132	0	431621	253
844.482421875	0	decision	response	2	96	36	foodImage.104	FOODEEG_Images\0912.jpg	YN	Right	No	1.48055110000132	0	432376	235
845.5234375	1	taste	trialStart	2	97	37	foodImage.118	FOODEEG_Images\0926.jpg	NY	Left	No	0.865775499987649	0	432909	251
846.5625	2	taste	foodImageDisplay	2	97	37	foodImage.118	FOODEEG_Images\0926.jpg	NY	Left	No	0.865775499987649	0	433441	252
848.625	0.865775499987649	taste	choicePhaseStart	2	97	37	foodImage.118	FOODEEG_Images\0926.jpg	NY	Left	No	0.865775499987649	0	434497	253
849.482421875	0	taste	response	2	97	37	foodImage.118	FOODEEG_Images\0926.jpg	NY	Left	No	0.865775499987649	0	434936	234
850.5234375	1	decision	trialStart	2	98	38	foodImage.84	FOODEEG_Images\0830.jpg	YN	Left	Yes	1.40188849999686	0	435469	251
851.591796875	2	decision	foodImageDisplay	2	98	38	foodImage.84	FOODEEG_Images\0830.jpg	YN	Left	Yes	1.40188849999686	0	436016	252
853.65625	1.40188849999686	decision	choicePhaseStart	2	98	38	foodImage.84	FOODEEG_Images\0830.jpg	YN	Left	Yes	1.40188849999686	0	437073	253
855.048828125	0	decision	response	2	98	38	foodImage.84	FOODEEG_Images\0830.jpg	YN	Left	Yes	1.40188849999686	0	437786	234
856.091796875	1	decision	trialStart	2	99	39	foodImage.14	FOODEEG_Images\0188.jpg	NY	Right	Yes	0.604795000006561	0	438320	251
857.150390625	2	decision	foodImageDisplay	2	99	39	foodImage.14	FOODEEG_Images\0188.jpg	NY	Right	Yes	0.604795000006561	0	438862	252
859.212890625	0.604795000006561	decision	choicePhaseStart	2	99	39	foodImage.14	FOODEEG_Images\0188.jpg	NY	Right	Yes	0.604795000006561	0	439918	253
859.80859375	0	decision	response	2	99	39	foodImage.14	FOODEEG_Images\0188.jpg	NY	Right	Yes	0.604795000006561	0	440223	235
860.849609375	1	health	trialStart	2	100	40	foodImage.47	FOODEEG_Images\0488.jpg	NY	Left	No	0.934846599993762	0	440756	251
861.892578125	2	health	foodImageDisplay	2	100	40	foodImage.47	FOODEEG_Images\0488.jpg	NY	Left	No	0.934846599993762	0	441290	252
863.955078125	0.934846599993762	health	choicePhaseStart	2	100	40	foodImage.47	FOODEEG_Images\0488.jpg	NY	Left	No	0.934846599993762	0	442346	253
864.880859375	0	health	response	2	100	40	foodImage.47	FOODEEG_Images\0488.jpg	NY	Left	No	0.934846599993762	0	442820	234
865.9296875	1	taste	trialStart	2	101	41	foodImage.15	FOODEEG_Images\0189.jpg	NY	Right	Yes	0.923178400000324	0	443357	251
866.98828125	2	taste	foodImageDisplay	2	101	41	foodImage.15	FOODEEG_Images\0189.jpg	NY	Right	Yes	0.923178400000324	0	443899	252
869.0546875	0.923178400000324	taste	choicePhaseStart	2	101	41	foodImage.15	FOODEEG_Images\0189.jpg	NY	Right	Yes	0.923178400000324	0	444957	253
869.96875	0	taste	response	2	101	41	foodImage.15	FOODEEG_Images\0189.jpg	NY	Right	Yes	0.923178400000324	0	445425	235
871.01171875	1	decision	trialStart	2	102	42	foodImage.49	FOODEEG_Images\0515.jpg	NY	Right	Yes	1.07127760000003	0	445959	251
872.05859375	2	decision	foodImageDisplay	2	102	42	foodImage.49	FOODEEG_Images\0515.jpg	NY	Right	Yes	1.07127760000003	0	446495	252
874.123046875	1.07127760000003	decision	choicePhaseStart	2	102	42	foodImage.49	FOODEEG_Images\0515.jpg	NY	Right	Yes	1.07127760000003	0	447552	253
875.185546875	0	decision	response	2	102	42	foodImage.49	FOODEEG_Images\0515.jpg	NY	Right	Yes	1.07127760000003	0	448096	235
876.228515625	1	taste	trialStart	2	103	43	foodImage.110	FOODEEG_Images\0918.jpg	NY	Right	Yes	0.684707100008382	0	448630	251
877.26953125	2	taste	foodImageDisplay	2	103	43	foodImage.110	FOODEEG_Images\0918.jpg	NY	Right	Yes	0.684707100008382	0	449163	252
879.333984375	0.684707100008382	taste	choicePhaseStart	2	103	43	foodImage.110	FOODEEG_Images\0918.jpg	NY	Right	Yes	0.684707100008382	0	450220	253
880.009765625	0	taste	response	2	103	43	foodImage.110	FOODEEG_Images\0918.jpg	NY	Right	Yes	0.684707100008382	0	450566	235
881.05859375	1	decision	trialStart	2	104	44	foodImage.37	FOODEEG_Images\0359.jpg	YN	Left	Yes	1.01824799999304	0	451103	251
882.1015625	2	decision	foodImageDisplay	2	104	44	foodImage.37	FOODEEG_Images\0359.jpg	YN	Left	Yes	1.01824799999304	0	451637	252
884.166015625	1.01824799999304	decision	choicePhaseStart	2	104	44	foodImage.37	FOODEEG_Images\0359.jpg	YN	Left	Yes	1.01824799999304	0	452694	253
885.177734375	0	decision	response	2	104	44	foodImage.37	FOODEEG_Images\0359.jpg	YN	Left	Yes	1.01824799999304	0	453212	234
886.220703125	1	taste	trialStart	2	105	45	foodImage.116	FOODEEG_Images\0924.jpg	YN	Right	No	0.614585400006035	0	453746	251
887.259765625	2	taste	foodImageDisplay	2	105	45	foodImage.116	FOODEEG_Images\0924.jpg	YN	Right	No	0.614585400006035	0	454278	252
889.322265625	0.614585400006035	taste	choicePhaseStart	2	105	45	foodImage.116	FOODEEG_Images\0924.jpg	YN	Right	No	0.614585400006035	0	455334	253
889.927734375	0	taste	response	2	105	45	foodImage.116	FOODEEG_Images\0924.jpg	YN	Right	No	0.614585400006035	0	455644	235
890.96875	1	decision	trialStart	2	106	46	foodImage.35	FOODEEG_Images\0350.jpg	YN	Left	Yes	1.42295159999048	0	456177	251
892.01171875	2	decision	foodImageDisplay	2	106	46	foodImage.35	FOODEEG_Images\0350.jpg	YN	Left	Yes	1.42295159999048	0	456711	252
894.07421875	1.42295159999048	decision	choicePhaseStart	2	106	46	foodImage.35	FOODEEG_Images\0350.jpg	YN	Left	Yes	1.42295159999048	0	457767	253
895.48828125	0	decision	response	2	106	46	foodImage.35	FOODEEG_Images\0350.jpg	YN	Left	Yes	1.42295159999048	0	458491	234
896.533203125	1	decision	trialStart	2	107	47	foodImage.112	FOODEEG_Images\0920.jpg	NY	Left	No	1.37727979999909	0	459026	251
897.578125	2	decision	foodImageDisplay	2	107	47	foodImage.112	FOODEEG_Images\0920.jpg	NY	Left	No	1.37727979999909	0	459561	252
899.646484375	1.37727979999909	decision	choicePhaseStart	2	107	47	foodImage.112	FOODEEG_Images\0920.jpg	NY	Left	No	1.37727979999909	0	460620	253
901.015625	0	decision	response	2	107	47	foodImage.112	FOODEEG_Images\0920.jpg	NY	Left	No	1.37727979999909	0	461321	234
902.05859375	1	taste	trialStart	2	108	48	foodImage.32	FOODEEG_Images\0319.jpg	YN	Left	Yes	0.729091400004108	0	461855	251
903.1015625	2	taste	foodImageDisplay	2	108	48	foodImage.32	FOODEEG_Images\0319.jpg	YN	Left	Yes	0.729091400004108	0	462389	252
905.166015625	0.729091400004108	taste	choicePhaseStart	2	108	48	foodImage.32	FOODEEG_Images\0319.jpg	YN	Left	Yes	0.729091400004108	0	463446	253
905.888671875	0	taste	response	2	108	48	foodImage.32	FOODEEG_Images\0319.jpg	YN	Left	Yes	0.729091400004108	0	463816	234
906.927734375	1	health	trialStart	2	109	49	foodImage.109	FOODEEG_Images\0917.jpg	NY	Left	No	1.07451600000786	0	464348	251
907.966796875	2	health	foodImageDisplay	2	109	49	foodImage.109	FOODEEG_Images\0917.jpg	NY	Left	No	1.07451600000786	0	464880	252
910.03125	1.07451600000786	health	choicePhaseStart	2	109	49	foodImage.109	FOODEEG_Images\0917.jpg	NY	Left	No	1.07451600000786	0	465937	253
911.095703125	0	health	response	2	109	49	foodImage.109	FOODEEG_Images\0917.jpg	NY	Left	No	1.07451600000786	0	466482	234
912.13671875	1	health	trialStart	2	110	50	foodImage.110	FOODEEG_Images\0918.jpg	NY	Left	No	0.916284099992481	0	467015	251
913.1796875	2	health	foodImageDisplay	2	110	50	foodImage.110	FOODEEG_Images\0918.jpg	NY	Left	No	0.916284099992481	0	467549	252
915.244140625	0.916284099992481	health	choicePhaseStart	2	110	50	foodImage.110	FOODEEG_Images\0918.jpg	NY	Left	No	0.916284099992481	0	468606	253
916.15234375	0	health	response	2	110	50	foodImage.110	FOODEEG_Images\0918.jpg	NY	Left	No	0.916284099992481	0	469071	234
917.1953125	1	health	trialStart	2	111	51	foodImage.21	FOODEEG_Images\0234.jpg	YN	Left	Yes	0.948322399999597	0	469605	251
918.251953125	2	health	foodImageDisplay	2	111	51	foodImage.21	FOODEEG_Images\0234.jpg	YN	Left	Yes	0.948322399999597	0	470146	252
920.31640625	0.948322399999597	health	choicePhaseStart	2	111	51	foodImage.21	FOODEEG_Images\0234.jpg	YN	Left	Yes	0.948322399999597	0	471203	253
921.255859375	0	health	response	2	111	51	foodImage.21	FOODEEG_Images\0234.jpg	YN	Left	Yes	0.948322399999597	0	471684	234
922.298828125	1	health	trialStart	2	112	52	foodImage.42	FOODEEG_Images\0438.jpg	YN	Left	Yes	1.24329430000216	0	472218	251
923.388671875	2	health	foodImageDisplay	2	112	52	foodImage.42	FOODEEG_Images\0438.jpg	YN	Left	Yes	1.24329430000216	0	472776	252
925.451171875	1.24329430000216	health	choicePhaseStart	2	112	52	foodImage.42	FOODEEG_Images\0438.jpg	YN	Left	Yes	1.24329430000216	0	473832	253
926.6875	0	health	response	2	112	52	foodImage.42	FOODEEG_Images\0438.jpg	YN	Left	Yes	1.24329430000216	0	474465	234
927.728515625	1	health	trialStart	2	113	53	foodImage.57	FOODEEG_Images\0587.jpg	YN	Right	No	0.630083199997898	0	474998	251
928.771484375	2	health	foodImageDisplay	2	113	53	foodImage.57	FOODEEG_Images\0587.jpg	YN	Right	No	0.630083199997898	0	475532	252
930.833984375	0.630083199997898	health	choicePhaseStart	2	113	53	foodImage.57	FOODEEG_Images\0587.jpg	YN	Right	No	0.630083199997898	0	476588	253
931.455078125	0	health	response	2	113	53	foodImage.57	FOODEEG_Images\0587.jpg	YN	Right	No	0.630083199997898	0	476906	235
932.498046875	1	decision	trialStart	2	114	54	foodImage.110	FOODEEG_Images\0918.jpg	NY	Left	No	1.23996819999593	0	477440	251
933.53515625	2	decision	foodImageDisplay	2	114	54	foodImage.110	FOODEEG_Images\0918.jpg	NY	Left	No	1.23996819999593	0	477971	252
935.599609375	1.23996819999593	decision	choicePhaseStart	2	114	54	foodImage.110	FOODEEG_Images\0918.jpg	NY	Left	No	1.23996819999593	0	479028	253
936.83203125	0	decision	response	2	114	54	foodImage.110	FOODEEG_Images\0918.jpg	NY	Left	No	1.23996819999593	0	479659	234
937.873046875	1	health	trialStart	2	115	55	foodImage.106	FOODEEG_Images\0914.jpg	NY	Left	No	2.15758069998992	0	480192	251
938.9140625	2	health	foodImageDisplay	2	115	55	foodImage.106	FOODEEG_Images\0914.jpg	NY	Left	No	2.15758069998992	0	480725	252
940.978515625	2.15758069998992	health	choicePhaseStart	2	115	55	foodImage.106	FOODEEG_Images\0914.jpg	NY	Left	No	2.15758069998992	0	481782	253
943.126953125	0	health	response	2	115	55	foodImage.106	FOODEEG_Images\0914.jpg	NY	Left	No	2.15758069998992	0	482882	234
944.16796875	1	taste	trialStart	2	116	56	foodImage.66	FOODEEG_Images\0676.jpg	YN	Left	Yes	1.61756100000639	0	483415	251
945.20703125	2	taste	foodImageDisplay	2	116	56	foodImage.66	FOODEEG_Images\0676.jpg	YN	Left	Yes	1.61756100000639	0	483947	252
947.26953125	1.61756100000639	taste	choicePhaseStart	2	116	56	foodImage.66	FOODEEG_Images\0676.jpg	YN	Left	Yes	1.61756100000639	0	485003	253
948.87890625	0	taste	response	2	116	56	foodImage.66	FOODEEG_Images\0676.jpg	YN	Left	Yes	1.61756100000639	0	485827	234
949.919921875	1	health	trialStart	2	117	57	foodImage.6	FOODEEG_Images\0113.jpg	NY	Left	No	0.906692700009444	0	486360	251
950.966796875	2	health	foodImageDisplay	2	117	57	foodImage.6	FOODEEG_Images\0113.jpg	NY	Left	No	0.906692700009444	0	486896	252
953.029296875	0.906692700009444	health	choicePhaseStart	2	117	57	foodImage.6	FOODEEG_Images\0113.jpg	NY	Left	No	0.906692700009444	0	487952	253
953.92578125	0	health	response	2	117	57	foodImage.6	FOODEEG_Images\0113.jpg	NY	Left	No	0.906692700009444	0	488411	234
954.96875	1	decision	trialStart	2	118	58	foodImage.94	FOODEEG_Images\0902.jpg	YN	Left	Yes	0.776266699991538	0	488945	251
956.0078125	2	decision	foodImageDisplay	2	118	58	foodImage.94	FOODEEG_Images\0902.jpg	YN	Left	Yes	0.776266699991538	0	489477	252
958.072265625	0.776266699991538	decision	choicePhaseStart	2	118	58	foodImage.94	FOODEEG_Images\0902.jpg	YN	Left	Yes	0.776266699991538	0	490534	253
958.837890625	0	decision	response	2	118	58	foodImage.94	FOODEEG_Images\0902.jpg	YN	Left	Yes	0.776266699991538	0	490926	234
959.87890625	1	decision	trialStart	2	119	59	foodImage.43	FOODEEG_Images\0445.jpg	NY	Right	Yes	2.15738669999701	0	491459	251
960.935546875	2	decision	foodImageDisplay	2	119	59	foodImage.43	FOODEEG_Images\0445.jpg	NY	Right	Yes	2.15738669999701	0	492000	252
963	2.15738669999701	decision	choicePhaseStart	2	119	59	foodImage.43	FOODEEG_Images\0445.jpg	NY	Right	Yes	2.15738669999701	0	493057	253
965.150390625	0	decision	response	2	119	59	foodImage.43	FOODEEG_Images\0445.jpg	NY	Right	Yes	2.15738669999701	0	494158	235
966.19140625	1	health	trialStart	2	120	60	foodImage.107	FOODEEG_Images\0915.jpg	NY	Left	No	1.81022499999381	0	494691	251
967.23046875	2	health	foodImageDisplay	2	120	60	foodImage.107	FOODEEG_Images\0915.jpg	NY	Left	No	1.81022499999381	0	495223	252
969.29296875	1.81022499999381	health	choicePhaseStart	2	120	60	foodImage.107	FOODEEG_Images\0915.jpg	NY	Left	No	1.81022499999381	0	496279	253
971.09375	0	health	response	2	120	60	foodImage.107	FOODEEG_Images\0915.jpg	NY	Left	No	1.81022499999381	0	497201	234
973.138671875	39.953125	n/a	blockEnd	n/a	n/a	n/a	n/a	n/a	n/a	n/a	n/a	n/a	n/a	498248	254
1013.091796875	2	n/a	blockStart	3	n/a	n/a	n/a	n/a	n/a	n/a	n/a	n/a	n/a	518704	250
1015.125	1	health	trialStart	3	121	1	foodImage.38	FOODEEG_Images\0365.jpg	NY	Right	Yes	0.723049200008973	0	519745	251
1016.162109375	2	health	foodImageDisplay	3	121	1	foodImage.38	FOODEEG_Images\0365.jpg	NY	Right	Yes	0.723049200008973	0	520276	252
1018.2265625	0.723049200008973	health	choicePhaseStart	3	121	1	foodImage.38	FOODEEG_Images\0365.jpg	NY	Right	Yes	0.723049200008973	0	521333	253
1018.939453125	0	health	response	3	121	1	foodImage.38	FOODEEG_Images\0365.jpg	NY	Right	Yes	0.723049200008973	0	521698	235
1019.982421875	1	health	trialStart	3	122	2	foodImage.19	FOODEEG_Images\0225.jpg	YN	Left	Yes	0.661121800003457	0	522232	251
1021.025390625	2	health	foodImageDisplay	3	122	2	foodImage.19	FOODEEG_Images\0225.jpg	YN	Left	Yes	0.661121800003457	0	522766	252
1023.087890625	0.661121800003457	health	choicePhaseStart	3	122	2	foodImage.19	FOODEEG_Images\0225.jpg	YN	Left	Yes	0.661121800003457	0	523822	253
1023.740234375	0	health	response	3	122	2	foodImage.19	FOODEEG_Images\0225.jpg	YN	Left	Yes	0.661121800003457	0	524156	234
1024.78125	1	decision	trialStart	3	123	3	foodImage.103	FOODEEG_Images\0911.jpg	YN	Left	Yes	1.43633549999504	0	524689	251
1025.833984375	2	decision	foodImageDisplay	3	123	3	foodImage.103	FOODEEG_Images\0911.jpg	YN	Left	Yes	1.43633549999504	0	525228	252
1027.896484375	1.43633549999504	decision	choicePhaseStart	3	123	3	foodImage.103	FOODEEG_Images\0911.jpg	YN	Left	Yes	1.43633549999504	0	526284	253
1029.32421875	0	decision	response	3	123	3	foodImage.103	FOODEEG_Images\0911.jpg	YN	Left	Yes	1.43633549999504	0	527015	234
1030.3671875	1	taste	trialStart	3	124	4	foodImage.88	FOODEEG_Images\0878.jpg	YN	Left	Yes	0.999290899999323	0	527549	251
1031.423828125	2	taste	foodImageDisplay	3	124	4	foodImage.88	FOODEEG_Images\0878.jpg	YN	Left	Yes	0.999290899999323	0	528090	252
1033.486328125	0.999290899999323	taste	choicePhaseStart	3	124	4	foodImage.88	FOODEEG_Images\0878.jpg	YN	Left	Yes	0.999290899999323	0	529146	253
1034.4765625	0	taste	response	3	124	4	foodImage.88	FOODEEG_Images\0878.jpg	YN	Left	Yes	0.999290899999323	0	529653	234
1035.517578125	1	decision	trialStart	3	125	5	foodImage.95	FOODEEG_Images\0903.jpg	YN	Right	No	0.774358499998925	0	530186	251
1036.568359375	2	decision	foodImageDisplay	3	125	5	foodImage.95	FOODEEG_Images\0903.jpg	YN	Right	No	0.774358499998925	0	530724	252
1038.630859375	0.774358499998925	decision	choicePhaseStart	3	125	5	foodImage.95	FOODEEG_Images\0903.jpg	YN	Right	No	0.774358499998925	0	531780	253
1039.396484375	0	decision	response	3	125	5	foodImage.95	FOODEEG_Images\0903.jpg	YN	Right	No	0.774358499998925	0	532172	235
1040.4375	1	taste	trialStart	3	126	6	foodImage.40	FOODEEG_Images\0373.jpg	YN	Left	Yes	0.765767299992149	0	532705	251
1041.478515625	2	taste	foodImageDisplay	3	126	6	foodImage.40	FOODEEG_Images\0373.jpg	YN	Left	Yes	0.765767299992149	0	533238	252
1043.54296875	0.765767299992149	taste	choicePhaseStart	3	126	6	foodImage.40	FOODEEG_Images\0373.jpg	YN	Left	Yes	0.765767299992149	0	534295	253
1044.298828125	0	taste	response	3	126	6	foodImage.40	FOODEEG_Images\0373.jpg	YN	Left	Yes	0.765767299992149	0	534682	234
1045.34375	1	health	trialStart	3	127	7	foodImage.105	FOODEEG_Images\0913.jpg	NY	Right	Yes	1.14458370000648	0	535217	251
1046.380859375	2	health	foodImageDisplay	3	127	7	foodImage.105	FOODEEG_Images\0913.jpg	NY	Right	Yes	1.14458370000648	0	535748	252
1048.443359375	1.14458370000648	health	choicePhaseStart	3	127	7	foodImage.105	FOODEEG_Images\0913.jpg	NY	Right	Yes	1.14458370000648	0	536804	253
1049.580078125	0	health	response	3	127	7	foodImage.105	FOODEEG_Images\0913.jpg	NY	Right	Yes	1.14458370000648	0	537386	235
1050.62109375	1	taste	trialStart	3	128	8	foodImage.8	FOODEEG_Images\0136.jpg	YN	Left	Yes	0.914253000009921	0	537919	251
1051.66796875	2	taste	foodImageDisplay	3	128	8	foodImage.8	FOODEEG_Images\0136.jpg	YN	Left	Yes	0.914253000009921	0	538455	252
1053.73046875	0.914253000009921	taste	choicePhaseStart	3	128	8	foodImage.8	FOODEEG_Images\0136.jpg	YN	Left	Yes	0.914253000009921	0	539511	253
1054.634765625	0	taste	response	3	128	8	foodImage.8	FOODEEG_Images\0136.jpg	YN	Left	Yes	0.914253000009921	0	539974	234
1055.677734375	1	decision	trialStart	3	129	9	foodImage.111	FOODEEG_Images\0919.jpg	YN	Right	No	0.80551689999993	0	540508	251
1056.716796875	2	decision	foodImageDisplay	3	129	9	foodImage.111	FOODEEG_Images\0919.jpg	YN	Right	No	0.80551689999993	0	541040	252
1058.779296875	0.80551689999993	decision	choicePhaseStart	3	129	9	foodImage.111	FOODEEG_Images\0919.jpg	YN	Right	No	0.80551689999993	0	542096	253
1059.578125	0	decision	response	3	129	9	foodImage.111	FOODEEG_Images\0919.jpg	YN	Right	No	0.80551689999993	0	542505	235
1060.62109375	1	health	trialStart	3	130	10	foodImage.74	FOODEEG_Images\0752.jpg	YN	Left	Yes	1.3835323999956	0	543039	251
1061.677734375	2	health	foodImageDisplay	3	130	10	foodImage.74	FOODEEG_Images\0752.jpg	YN	Left	Yes	1.3835323999956	0	543580	252
1063.740234375	1.3835323999956	health	choicePhaseStart	3	130	10	foodImage.74	FOODEEG_Images\0752.jpg	YN	Left	Yes	1.3835323999956	0	544636	253
1065.115234375	0	health	response	3	130	10	foodImage.74	FOODEEG_Images\0752.jpg	YN	Left	Yes	1.3835323999956	0	545340	234
1066.154296875	1	decision	trialStart	3	131	11	foodImage.8	FOODEEG_Images\0136.jpg	YN	Left	Yes	0.967581799995969	0	545872	251
1067.197265625	2	decision	foodImageDisplay	3	131	11	foodImage.8	FOODEEG_Images\0136.jpg	YN	Left	Yes	0.967581799995969	0	546406	252
1069.259765625	0.967581799995969	decision	choicePhaseStart	3	131	11	foodImage.8	FOODEEG_Images\0136.jpg	YN	Left	Yes	0.967581799995969	0	547462	253
1070.21875	0	decision	response	3	131	11	foodImage.8	FOODEEG_Images\0136.jpg	YN	Left	Yes	0.967581799995969	0	547953	234
1071.259765625	1	decision	trialStart	3	132	12	foodImage.89	FOODEEG_Images\0881.jpg	NY	Right	Yes	1.03844050000771	0	548486	251
1072.333984375	2	decision	foodImageDisplay	3	132	12	foodImage.89	FOODEEG_Images\0881.jpg	NY	Right	Yes	1.03844050000771	0	549036	252
1074.3984375	1.03844050000771	decision	choicePhaseStart	3	132	12	foodImage.89	FOODEEG_Images\0881.jpg	NY	Right	Yes	1.03844050000771	0	550093	253
1075.42578125	0	decision	response	3	132	12	foodImage.89	FOODEEG_Images\0881.jpg	NY	Right	Yes	1.03844050000771	0	550619	235
1076.466796875	1	taste	trialStart	3	133	13	foodImage.19	FOODEEG_Images\0225.jpg	YN	Left	Yes	1.10139779999736	0	551152	251
1077.51171875	2	taste	foodImageDisplay	3	133	13	foodImage.19	FOODEEG_Images\0225.jpg	YN	Left	Yes	1.10139779999736	0	551687	252
1079.57421875	1.10139779999736	taste	choicePhaseStart	3	133	13	foodImage.19	FOODEEG_Images\0225.jpg	YN	Left	Yes	1.10139779999736	0	552743	253
1080.666015625	0	taste	response	3	133	13	foodImage.19	FOODEEG_Images\0225.jpg	YN	Left	Yes	1.10139779999736	0	553302	234
1081.70703125	1	health	trialStart	3	134	14	foodImage.104	FOODEEG_Images\0912.jpg	YN	Right	No	0.978819199997815	0	553835	251
1082.74609375	2	health	foodImageDisplay	3	134	14	foodImage.104	FOODEEG_Images\0912.jpg	YN	Right	No	0.978819199997815	0	554367	252
1084.80859375	0.978819199997815	health	choicePhaseStart	3	134	14	foodImage.104	FOODEEG_Images\0912.jpg	YN	Right	No	0.978819199997815	0	555423	253
1085.779296875	0	health	response	3	134	14	foodImage.104	FOODEEG_Images\0912.jpg	YN	Right	No	0.978819199997815	0	555920	235
1086.818359375	1	health	trialStart	3	135	15	foodImage.93	FOODEEG_Images\0901.jpg	YN	Right	No	1.34435110000777	0	556452	251
1087.859375	2	health	foodImageDisplay	3	135	15	foodImage.93	FOODEEG_Images\0901.jpg	YN	Right	No	1.34435110000777	0	556985	252
1089.923828125	1.34435110000777	health	choicePhaseStart	3	135	15	foodImage.93	FOODEEG_Images\0901.jpg	YN	Right	No	1.34435110000777	0	558042	253
1091.2578125	0	health	response	3	135	15	foodImage.93	FOODEEG_Images\0901.jpg	YN	Right	No	1.34435110000777	0	558725	235
1092.30078125	1	taste	trialStart	3	136	16	foodImage.9	FOODEEG_Images\0138.jpg	NY	Left	No	1.69419920000655	0	559259	251
1093.357421875	2	taste	foodImageDisplay	3	136	16	foodImage.9	FOODEEG_Images\0138.jpg	NY	Left	No	1.69419920000655	0	559800	252
1095.421875	1.69419920000655	taste	choicePhaseStart	3	136	16	foodImage.9	FOODEEG_Images\0138.jpg	NY	Left	No	1.69419920000655	0	560857	253
1097.10546875	0	taste	response	3	136	16	foodImage.9	FOODEEG_Images\0138.jpg	NY	Left	No	1.69419920000655	0	561719	234
1098.146484375	1	decision	trialStart	3	137	17	foodImage.79	FOODEEG_Images\0794.jpg	NY	Right	Yes	0.915130099994713	0	562252	251
1099.19921875	2	decision	foodImageDisplay	3	137	17	foodImage.79	FOODEEG_Images\0794.jpg	NY	Right	Yes	0.915130099994713	0	562791	252
1101.263671875	0.915130099994713	decision	choicePhaseStart	3	137	17	foodImage.79	FOODEEG_Images\0794.jpg	NY	Right	Yes	0.915130099994713	0	563848	253
1102.169921875	0	decision	response	3	137	17	foodImage.79	FOODEEG_Images\0794.jpg	NY	Right	Yes	0.915130099994713	0	564312	235
1103.2109375	1	decision	trialStart	3	138	18	foodImage.69	FOODEEG_Images\0693.jpg	NY	Right	Yes	1.00630200000887	0	564845	251
1104.26171875	2	decision	foodImageDisplay	3	138	18	foodImage.69	FOODEEG_Images\0693.jpg	NY	Right	Yes	1.00630200000887	0	565383	252
1106.32421875	1.00630200000887	decision	choicePhaseStart	3	138	18	foodImage.69	FOODEEG_Images\0693.jpg	NY	Right	Yes	1.00630200000887	0	566439	253
1107.322265625	0	decision	response	3	138	18	foodImage.69	FOODEEG_Images\0693.jpg	NY	Right	Yes	1.00630200000887	0	566950	235
1108.365234375	1	decision	trialStart	3	139	19	foodImage.59	FOODEEG_Images\0607.jpg	NY	Right	Yes	1.08823360000679	0	567484	251
1109.412109375	2	decision	foodImageDisplay	3	139	19	foodImage.59	FOODEEG_Images\0607.jpg	NY	Right	Yes	1.08823360000679	0	568020	252
1111.474609375	1.08823360000679	decision	choicePhaseStart	3	139	19	foodImage.59	FOODEEG_Images\0607.jpg	NY	Right	Yes	1.08823360000679	0	569076	253
1112.552734375	0	decision	response	3	139	19	foodImage.59	FOODEEG_Images\0607.jpg	NY	Right	Yes	1.08823360000679	0	569628	235
1113.595703125	1	decision	trialStart	3	140	20	foodImage.114	FOODEEG_Images\0922.jpg	NY	Right	Yes	1.26905020000413	0	570162	251
1114.638671875	2	decision	foodImageDisplay	3	140	20	foodImage.114	FOODEEG_Images\0922.jpg	NY	Right	Yes	1.26905020000413	0	570696	252
1116.703125	1.26905020000413	decision	choicePhaseStart	3	140	20	foodImage.114	FOODEEG_Images\0922.jpg	NY	Right	Yes	1.26905020000413	0	571753	253
1117.9609375	0	decision	response	3	140	20	foodImage.114	FOODEEG_Images\0922.jpg	NY	Right	Yes	1.26905020000413	0	572397	235
1119.00390625	1	taste	trialStart	3	141	21	foodImage.119	FOODEEG_Images\0927.jpg	NY	Left	No	0.636009499998181	0	572931	251
1120.041015625	2	taste	foodImageDisplay	3	141	21	foodImage.119	FOODEEG_Images\0927.jpg	NY	Left	No	0.636009499998181	0	573462	252
1122.103515625	0.636009499998181	taste	choicePhaseStart	3	141	21	foodImage.119	FOODEEG_Images\0927.jpg	NY	Left	No	0.636009499998181	0	574518	253
1122.728515625	0	taste	response	3	141	21	foodImage.119	FOODEEG_Images\0927.jpg	NY	Left	No	0.636009499998181	0	574838	234
1123.76953125	1	health	trialStart	3	142	22	foodImage.61	FOODEEG_Images\0640.jpg	NY	Right	Yes	0.796067399991443	0	575371	251
1124.828125	2	health	foodImageDisplay	3	142	22	foodImage.61	FOODEEG_Images\0640.jpg	NY	Right	Yes	0.796067399991443	0	575913	252
1126.89453125	0.796067399991443	health	choicePhaseStart	3	142	22	foodImage.61	FOODEEG_Images\0640.jpg	NY	Right	Yes	0.796067399991443	0	576971	253
1127.681640625	0	health	response	3	142	22	foodImage.61	FOODEEG_Images\0640.jpg	NY	Right	Yes	0.796067399991443	0	577374	235
1128.724609375	1	taste	trialStart	3	143	23	foodImage.93	FOODEEG_Images\0901.jpg	NY	Right	Yes	1.20785679999972	0	577908	251
1129.763671875	2	taste	foodImageDisplay	3	143	23	foodImage.93	FOODEEG_Images\0901.jpg	NY	Right	Yes	1.20785679999972	0	578440	252
1131.826171875	1.20785679999972	taste	choicePhaseStart	3	143	23	foodImage.93	FOODEEG_Images\0901.jpg	NY	Right	Yes	1.20785679999972	0	579496	253
1133.025390625	0	taste	response	3	143	23	foodImage.93	FOODEEG_Images\0901.jpg	NY	Right	Yes	1.20785679999972	0	580110	235
1134.0703125	1	decision	trialStart	3	144	24	foodImage.106	FOODEEG_Images\0914.jpg	NY	Right	Yes	0.997565500001656	0	580645	251
1135.109375	2	decision	foodImageDisplay	3	144	24	foodImage.106	FOODEEG_Images\0914.jpg	NY	Right	Yes	0.997565500001656	0	581177	252
1137.173828125	0.997565500001656	decision	choicePhaseStart	3	144	24	foodImage.106	FOODEEG_Images\0914.jpg	NY	Right	Yes	0.997565500001656	0	582234	253
1138.16015625	0	decision	response	3	144	24	foodImage.106	FOODEEG_Images\0914.jpg	NY	Right	Yes	0.997565500001656	0	582739	235
1139.201171875	1	decision	trialStart	3	145	25	foodImage.47	FOODEEG_Images\0488.jpg	NY	Left	No	1.56666799999948	0	583272	251
1140.24609375	2	decision	foodImageDisplay	3	145	25	foodImage.47	FOODEEG_Images\0488.jpg	NY	Left	No	1.56666799999948	0	583807	252
1142.314453125	1.56666799999948	decision	choicePhaseStart	3	145	25	foodImage.47	FOODEEG_Images\0488.jpg	NY	Left	No	1.56666799999948	0	584866	253
1143.873046875	0	decision	response	3	145	25	foodImage.47	FOODEEG_Images\0488.jpg	NY	Left	No	1.56666799999948	0	585664	234
1144.916015625	1	health	trialStart	3	146	26	foodImage.59	FOODEEG_Images\0607.jpg	YN	Right	No	1.14425709999341	0	586198	251
1145.962890625	2	health	foodImageDisplay	3	146	26	foodImage.59	FOODEEG_Images\0607.jpg	YN	Right	No	1.14425709999341	0	586734	252
1148.025390625	1.14425709999341	health	choicePhaseStart	3	146	26	foodImage.59	FOODEEG_Images\0607.jpg	YN	Right	No	1.14425709999341	0	587790	253
1149.16015625	0	health	response	3	146	26	foodImage.59	FOODEEG_Images\0607.jpg	YN	Right	No	1.14425709999341	0	588371	235
1150.203125	1	taste	trialStart	3	147	27	foodImage.60	FOODEEG_Images\0614.jpg	YN	Left	Yes	0.863604399986798	0	588905	251
1151.287109375	2	taste	foodImageDisplay	3	147	27	foodImage.60	FOODEEG_Images\0614.jpg	YN	Left	Yes	0.863604399986798	0	589460	252
1153.3515625	0.863604399986798	taste	choicePhaseStart	3	147	27	foodImage.60	FOODEEG_Images\0614.jpg	YN	Left	Yes	0.863604399986798	0	590517	253
1154.208984375	0	taste	response	3	147	27	foodImage.60	FOODEEG_Images\0614.jpg	YN	Left	Yes	0.863604399986798	0	590956	234
1155.248046875	1	taste	trialStart	3	148	28	foodImage.77	FOODEEG_Images\0771.jpg	YN	Left	Yes	0.821367800002918	0	591488	251
1156.29296875	2	taste	foodImageDisplay	3	148	28	foodImage.77	FOODEEG_Images\0771.jpg	YN	Left	Yes	0.821367800002918	0	592023	252
1158.357421875	0.821367800002918	taste	choicePhaseStart	3	148	28	foodImage.77	FOODEEG_Images\0771.jpg	YN	Left	Yes	0.821367800002918	0	593080	253
1159.16796875	0	taste	response	3	148	28	foodImage.77	FOODEEG_Images\0771.jpg	YN	Left	Yes	0.821367800002918	0	593495	234
1160.208984375	1	health	trialStart	3	149	29	foodImage.46	FOODEEG_Images\0479.jpg	YN	Left	Yes	0.937403899995843	0	594028	251
1161.265625	2	health	foodImageDisplay	3	149	29	foodImage.46	FOODEEG_Images\0479.jpg	YN	Left	Yes	0.937403899995843	0	594569	252
1163.333984375	0.937403899995843	health	choicePhaseStart	3	149	29	foodImage.46	FOODEEG_Images\0479.jpg	YN	Left	Yes	0.937403899995843	0	595628	253
1164.263671875	0	health	response	3	149	29	foodImage.46	FOODEEG_Images\0479.jpg	YN	Left	Yes	0.937403899995843	0	596104	234
1165.306640625	1	health	trialStart	3	150	30	foodImage.24	FOODEEG_Images\0250.jpg	NY	Right	Yes	1.19650449999608	0	596638	251
1166.353515625	2	health	foodImageDisplay	3	150	30	foodImage.24	FOODEEG_Images\0250.jpg	NY	Right	Yes	1.19650449999608	0	597174	252
1168.419921875	1.19650449999608	health	choicePhaseStart	3	150	30	foodImage.24	FOODEEG_Images\0250.jpg	NY	Right	Yes	1.19650449999608	0	598232	253
1169.607421875	0	health	response	3	150	30	foodImage.24	FOODEEG_Images\0250.jpg	NY	Right	Yes	1.19650449999608	0	598840	235
1170.6484375	1	taste	trialStart	3	151	31	foodImage.5	FOODEEG_Images\0107.jpg	YN	Left	Yes	0.864453399990452	0	599373	251
1171.705078125	2	taste	foodImageDisplay	3	151	31	foodImage.5	FOODEEG_Images\0107.jpg	YN	Left	Yes	0.864453399990452	0	599914	252
1173.76953125	0.864453399990452	taste	choicePhaseStart	3	151	31	foodImage.5	FOODEEG_Images\0107.jpg	YN	Left	Yes	0.864453399990452	0	600971	253
1174.623046875	0	taste	response	3	151	31	foodImage.5	FOODEEG_Images\0107.jpg	YN	Left	Yes	0.864453399990452	0	601408	234
1175.666015625	1	taste	trialStart	3	152	32	foodImage.113	FOODEEG_Images\0921.jpg	YN	Left	Yes	1.17536499998823	0	601942	251
1176.705078125	2	taste	foodImageDisplay	3	152	32	foodImage.113	FOODEEG_Images\0921.jpg	YN	Left	Yes	1.17536499998823	0	602474	252
1178.76953125	1.17536499998823	taste	choicePhaseStart	3	152	32	foodImage.113	FOODEEG_Images\0921.jpg	YN	Left	Yes	1.17536499998823	0	603531	253
1179.935546875	0	taste	response	3	152	32	foodImage.113	FOODEEG_Images\0921.jpg	YN	Left	Yes	1.17536499998823	0	604128	234
1180.978515625	1	decision	trialStart	3	153	33	foodImage.26	FOODEEG_Images\0262.jpg	YN	Left	Yes	2.54004559999157	0	604662	251
1182.021484375	2	decision	foodImageDisplay	3	153	33	foodImage.26	FOODEEG_Images\0262.jpg	YN	Left	Yes	2.54004559999157	0	605196	252
1184.083984375	2.54004559999157	decision	choicePhaseStart	3	153	33	foodImage.26	FOODEEG_Images\0262.jpg	YN	Left	Yes	2.54004559999157	0	606252	253
1186.615234375	0	decision	response	3	153	33	foodImage.26	FOODEEG_Images\0262.jpg	YN	Left	Yes	2.54004559999157	0	607548	234
1187.65625	1	health	trialStart	3	154	34	foodImage.85	FOODEEG_Images\0841.jpg	NY	Left	No	0.863922899996396	0	608081	251
1188.712890625	2	health	foodImageDisplay	3	154	34	foodImage.85	FOODEEG_Images\0841.jpg	NY	Left	No	0.863922899996396	0	608622	252
1190.77734375	0.863922899996396	health	choicePhaseStart	3	154	34	foodImage.85	FOODEEG_Images\0841.jpg	NY	Left	No	0.863922899996396	0	609679	253
1191.630859375	0	health	response	3	154	34	foodImage.85	FOODEEG_Images\0841.jpg	NY	Left	No	0.863922899996396	0	610116	234
1192.673828125	1	taste	trialStart	3	155	35	foodImage.117	FOODEEG_Images\0925.jpg	NY	Right	Yes	0.642269200005103	0	610650	251
1193.7265625	2	taste	foodImageDisplay	3	155	35	foodImage.117	FOODEEG_Images\0925.jpg	NY	Right	Yes	0.642269200005103	0	611189	252
1195.7890625	0.642269200005103	taste	choicePhaseStart	3	155	35	foodImage.117	FOODEEG_Images\0925.jpg	NY	Right	Yes	0.642269200005103	0	612245	253
1196.421875	0	taste	response	3	155	35	foodImage.117	FOODEEG_Images\0925.jpg	NY	Right	Yes	0.642269200005103	0	612569	235
1197.466796875	1	taste	trialStart	3	156	36	foodImage.85	FOODEEG_Images\0841.jpg	NY	Right	Yes	0.859813400005805	0	613104	251
1198.525390625	2	taste	foodImageDisplay	3	156	36	foodImage.85	FOODEEG_Images\0841.jpg	NY	Right	Yes	0.859813400005805	0	613646	252
1200.587890625	0.859813400005805	taste	choicePhaseStart	3	156	36	foodImage.85	FOODEEG_Images\0841.jpg	NY	Right	Yes	0.859813400005805	0	614702	253
1201.439453125	0	taste	response	3	156	36	foodImage.85	FOODEEG_Images\0841.jpg	NY	Right	Yes	0.859813400005805	0	615138	235
1202.484375	1	health	trialStart	3	157	37	foodImage.67	FOODEEG_Images\0679.jpg	YN	Right	No	1.24271289999888	0	615673	251
1203.5546875	2	health	foodImageDisplay	3	157	37	foodImage.67	FOODEEG_Images\0679.jpg	YN	Right	No	1.24271289999888	0	616221	252
1205.619140625	1.24271289999888	health	choicePhaseStart	3	157	37	foodImage.67	FOODEEG_Images\0679.jpg	YN	Right	No	1.24271289999888	0	617278	253
1206.853515625	0	health	response	3	157	37	foodImage.67	FOODEEG_Images\0679.jpg	YN	Right	No	1.24271289999888	0	617910	235
1207.896484375	1	taste	trialStart	3	158	38	foodImage.16	FOODEEG_Images\0196.jpg	YN	Left	Yes	1.21970270000747	0	618444	251
1208.95703125	2	taste	foodImageDisplay	3	158	38	foodImage.16	FOODEEG_Images\0196.jpg	YN	Left	Yes	1.21970270000747	0	618987	252
1211.01953125	1.21970270000747	taste	choicePhaseStart	3	158	38	foodImage.16	FOODEEG_Images\0196.jpg	YN	Left	Yes	1.21970270000747	0	620043	253
1212.23046875	0	taste	response	3	158	38	foodImage.16	FOODEEG_Images\0196.jpg	YN	Left	Yes	1.21970270000747	0	620663	234
1213.2734375	1	taste	trialStart	3	159	39	foodImage.13	FOODEEG_Images\0183.jpg	NY	Left	No	0.970610300006228	0	621197	251
1214.31640625	2	taste	foodImageDisplay	3	159	39	foodImage.13	FOODEEG_Images\0183.jpg	NY	Left	No	0.970610300006228	0	621731	252
1216.380859375	0.970610300006228	taste	choicePhaseStart	3	159	39	foodImage.13	FOODEEG_Images\0183.jpg	NY	Left	No	0.970610300006228	0	622788	253
1217.341796875	0	taste	response	3	159	39	foodImage.13	FOODEEG_Images\0183.jpg	NY	Left	No	0.970610300006228	0	623280	234
1218.384765625	1	decision	trialStart	3	160	40	foodImage.20	FOODEEG_Images\0226.jpg	YN	Right	No	0.763935700000729	0	623814	251
1219.427734375	2	decision	foodImageDisplay	3	160	40	foodImage.20	FOODEEG_Images\0226.jpg	YN	Right	No	0.763935700000729	0	624348	252
1221.490234375	0.763935700000729	decision	choicePhaseStart	3	160	40	foodImage.20	FOODEEG_Images\0226.jpg	YN	Right	No	0.763935700000729	0	625404	253
1222.24609375	0	decision	response	3	160	40	foodImage.20	FOODEEG_Images\0226.jpg	YN	Right	No	0.763935700000729	0	625791	235
1223.2890625	1	taste	trialStart	3	161	41	foodImage.81	FOODEEG_Images\0797.jpg	YN	Left	Yes	1.80713229998946	0	626325	251
1224.34375	2	taste	foodImageDisplay	3	161	41	foodImage.81	FOODEEG_Images\0797.jpg	YN	Left	Yes	1.80713229998946	0	626865	252
1226.408203125	1.80713229998946	taste	choicePhaseStart	3	161	41	foodImage.81	FOODEEG_Images\0797.jpg	YN	Left	Yes	1.80713229998946	0	627922	253
1228.205078125	0	taste	response	3	161	41	foodImage.81	FOODEEG_Images\0797.jpg	YN	Left	Yes	1.80713229998946	0	628842	234
1229.248046875	1	decision	trialStart	3	162	42	foodImage.118	FOODEEG_Images\0926.jpg	NY	Left	No	1.10884040000383	0	629376	251
1230.302734375	2	decision	foodImageDisplay	3	162	42	foodImage.118	FOODEEG_Images\0926.jpg	NY	Left	No	1.10884040000383	0	629916	252
1232.37109375	1.10884040000383	decision	choicePhaseStart	3	162	42	foodImage.118	FOODEEG_Images\0926.jpg	NY	Left	No	1.10884040000383	0	630975	253
1233.470703125	0	decision	response	3	162	42	foodImage.118	FOODEEG_Images\0926.jpg	NY	Left	No	1.10884040000383	0	631538	234
1234.51171875	1	decision	trialStart	3	163	43	foodImage.109	FOODEEG_Images\0917.jpg	YN	Right	No	0.769574600009946	0	632071	251
1235.55078125	2	decision	foodImageDisplay	3	163	43	foodImage.109	FOODEEG_Images\0917.jpg	YN	Right	No	0.769574600009946	0	632603	252
1237.61328125	0.769574600009946	decision	choicePhaseStart	3	163	43	foodImage.109	FOODEEG_Images\0917.jpg	YN	Right	No	0.769574600009946	0	633659	253
1238.373046875	0	decision	response	3	163	43	foodImage.109	FOODEEG_Images\0917.jpg	YN	Right	No	0.769574600009946	0	634048	235
1239.41796875	1	taste	trialStart	3	164	44	foodImage.62	FOODEEG_Images\0644.jpg	NY	Left	No	2.01109109999379	0	634583	251
1240.482421875	2	taste	foodImageDisplay	3	164	44	foodImage.62	FOODEEG_Images\0644.jpg	NY	Left	No	2.01109109999379	0	635128	252
1242.546875	2.01109109999379	taste	choicePhaseStart	3	164	44	foodImage.62	FOODEEG_Images\0644.jpg	NY	Left	No	2.01109109999379	0	636185	253
1244.548828125	0	taste	response	3	164	44	foodImage.62	FOODEEG_Images\0644.jpg	NY	Left	No	2.01109109999379	0	637210	234
1245.591796875	1	decision	trialStart	3	165	45	foodImage.36	FOODEEG_Images\0352.jpg	YN	Left	Yes	0.633834299995215	0	637744	251
1246.662109375	2	decision	foodImageDisplay	3	165	45	foodImage.36	FOODEEG_Images\0352.jpg	YN	Left	Yes	0.633834299995215	0	638292	252
1248.724609375	0.633834299995215	decision	choicePhaseStart	3	165	45	foodImage.36	FOODEEG_Images\0352.jpg	YN	Left	Yes	0.633834299995215	0	639348	253
1249.349609375	0	decision	response	3	165	45	foodImage.36	FOODEEG_Images\0352.jpg	YN	Left	Yes	0.633834299995215	0	639668	234
1250.392578125	1	decision	trialStart	3	166	46	foodImage.30	FOODEEG_Images\0282.jpg	YN	Left	Yes	1.10341049999988	0	640202	251
1251.455078125	2	decision	foodImageDisplay	3	166	46	foodImage.30	FOODEEG_Images\0282.jpg	YN	Left	Yes	1.10341049999988	0	640746	252
1253.51953125	1.10341049999988	decision	choicePhaseStart	3	166	46	foodImage.30	FOODEEG_Images\0282.jpg	YN	Left	Yes	1.10341049999988	0	641803	253
1254.61328125	0	decision	response	3	166	46	foodImage.30	FOODEEG_Images\0282.jpg	YN	Left	Yes	1.10341049999988	0	642363	234
1255.66015625	1	decision	trialStart	3	167	47	foodImage.16	FOODEEG_Images\0196.jpg	YN	Left	Yes	0.762285699995118	0	642899	251
1256.740234375	2	decision	foodImageDisplay	3	167	47	foodImage.16	FOODEEG_Images\0196.jpg	YN	Left	Yes	0.762285699995118	0	643452	252
1258.8046875	0.762285699995118	decision	choicePhaseStart	3	167	47	foodImage.16	FOODEEG_Images\0196.jpg	YN	Left	Yes	0.762285699995118	0	644509	253
1259.556640625	0	decision	response	3	167	47	foodImage.16	FOODEEG_Images\0196.jpg	YN	Left	Yes	0.762285699995118	0	644894	234
1260.599609375	1	taste	trialStart	3	168	48	foodImage.38	FOODEEG_Images\0365.jpg	YN	Left	Yes	1.23855080000067	0	645428	251
1261.654296875	2	taste	foodImageDisplay	3	168	48	foodImage.38	FOODEEG_Images\0365.jpg	YN	Left	Yes	1.23855080000067	0	645968	252
1263.716796875	1.23855080000067	taste	choicePhaseStart	3	168	48	foodImage.38	FOODEEG_Images\0365.jpg	YN	Left	Yes	1.23855080000067	0	647024	253
1264.94921875	0	taste	response	3	168	48	foodImage.38	FOODEEG_Images\0365.jpg	YN	Left	Yes	1.23855080000067	0	647655	234
1265.9921875	1	decision	trialStart	3	169	49	foodImage.58	FOODEEG_Images\0605.jpg	YN	Left	Yes	1.06012619999819	0	648189	251
1267.048828125	2	decision	foodImageDisplay	3	169	49	foodImage.58	FOODEEG_Images\0605.jpg	YN	Left	Yes	1.06012619999819	0	648730	252
1269.11328125	1.06012619999819	decision	choicePhaseStart	3	169	49	foodImage.58	FOODEEG_Images\0605.jpg	YN	Left	Yes	1.06012619999819	0	649787	253
1270.1640625	0	decision	response	3	169	49	foodImage.58	FOODEEG_Images\0605.jpg	YN	Left	Yes	1.06012619999819	0	650325	234
1271.205078125	1	health	trialStart	3	170	50	foodImage.16	FOODEEG_Images\0196.jpg	NY	Right	Yes	1.01620399999956	0	650858	251
1272.287109375	2	health	foodImageDisplay	3	170	50	foodImage.16	FOODEEG_Images\0196.jpg	NY	Right	Yes	1.01620399999956	0	651412	252
1274.349609375	1.01620399999956	health	choicePhaseStart	3	170	50	foodImage.16	FOODEEG_Images\0196.jpg	NY	Right	Yes	1.01620399999956	0	652468	253
1275.35546875	0	health	response	3	170	50	foodImage.16	FOODEEG_Images\0196.jpg	NY	Right	Yes	1.01620399999956	0	652983	235
1276.3984375	1	health	trialStart	3	171	51	foodImage.64	FOODEEG_Images\0647.jpg	YN	Left	Yes	0.707820800002082	0	653517	251
1277.48046875	2	health	foodImageDisplay	3	171	51	foodImage.64	FOODEEG_Images\0647.jpg	YN	Left	Yes	0.707820800002082	0	654071	252
1279.544921875	0.707820800002082	health	choicePhaseStart	3	171	51	foodImage.64	FOODEEG_Images\0647.jpg	YN	Left	Yes	0.707820800002082	0	655128	253
1280.244140625	0	health	response	3	171	51	foodImage.64	FOODEEG_Images\0647.jpg	YN	Left	Yes	0.707820800002082	0	655486	234
1281.287109375	1	taste	trialStart	3	172	52	foodImage.102	FOODEEG_Images\0910.jpg	YN	Right	No	1.95800990000134	0	656020	251
1282.328125	2	taste	foodImageDisplay	3	172	52	foodImage.102	FOODEEG_Images\0910.jpg	YN	Right	No	1.95800990000134	0	656553	252
1284.390625	1.95800990000134	taste	choicePhaseStart	3	172	52	foodImage.102	FOODEEG_Images\0910.jpg	YN	Right	No	1.95800990000134	0	657609	253
1286.33984375	0	taste	response	3	172	52	foodImage.102	FOODEEG_Images\0910.jpg	YN	Right	No	1.95800990000134	0	658607	235
1287.384765625	1	health	trialStart	3	173	53	foodImage.41	FOODEEG_Images\0409.jpg	NY	Right	Yes	0.769694199989317	0	659142	251
1288.443359375	2	health	foodImageDisplay	3	173	53	foodImage.41	FOODEEG_Images\0409.jpg	NY	Right	Yes	0.769694199989317	0	659684	252
1290.505859375	0.769694199989317	health	choicePhaseStart	3	173	53	foodImage.41	FOODEEG_Images\0409.jpg	NY	Right	Yes	0.769694199989317	0	660740	253
1291.267578125	0	health	response	3	173	53	foodImage.41	FOODEEG_Images\0409.jpg	NY	Right	Yes	0.769694199989317	0	661130	235
1292.310546875	1	decision	trialStart	3	174	54	foodImage.70	FOODEEG_Images\0705.jpg	YN	Left	Yes	0.976777900010347	0	661664	251
1293.388671875	2	decision	foodImageDisplay	3	174	54	foodImage.70	FOODEEG_Images\0705.jpg	YN	Left	Yes	0.976777900010347	0	662216	252
1295.453125	0.976777900010347	decision	choicePhaseStart	3	174	54	foodImage.70	FOODEEG_Images\0705.jpg	YN	Left	Yes	0.976777900010347	0	663273	253
1296.419921875	0	decision	response	3	174	54	foodImage.70	FOODEEG_Images\0705.jpg	YN	Left	Yes	0.976777900010347	0	663768	234
1297.462890625	1	decision	trialStart	3	175	55	foodImage.15	FOODEEG_Images\0189.jpg	NY	Right	Yes	0.706724100004067	0	664302	251
1298.5234375	2	decision	foodImageDisplay	3	175	55	foodImage.15	FOODEEG_Images\0189.jpg	NY	Right	Yes	0.706724100004067	0	664845	252
1300.5859375	0.706724100004067	decision	choicePhaseStart	3	175	55	foodImage.15	FOODEEG_Images\0189.jpg	NY	Right	Yes	0.706724100004067	0	665901	253
1301.283203125	0	decision	response	3	175	55	foodImage.15	FOODEEG_Images\0189.jpg	NY	Right	Yes	0.706724100004067	0	666258	235
1302.326171875	1	health	trialStart	3	176	56	foodImage.94	FOODEEG_Images\0902.jpg	NY	Left	No	1.05601380000007	0	666792	251
1303.365234375	2	health	foodImageDisplay	3	176	56	foodImage.94	FOODEEG_Images\0902.jpg	NY	Left	No	1.05601380000007	0	667324	252
1305.427734375	1.05601380000007	health	choicePhaseStart	3	176	56	foodImage.94	FOODEEG_Images\0902.jpg	NY	Left	No	1.05601380000007	0	668380	253
1306.474609375	0	health	response	3	176	56	foodImage.94	FOODEEG_Images\0902.jpg	NY	Left	No	1.05601380000007	0	668916	234
1307.517578125	1	taste	trialStart	3	177	57	foodImage.73	FOODEEG_Images\0717.jpg	YN	Left	Yes	0.955475900002057	0	669450	251
1308.576171875	2	taste	foodImageDisplay	3	177	57	foodImage.73	FOODEEG_Images\0717.jpg	YN	Left	Yes	0.955475900002057	0	669992	252
1310.640625	0.955475900002057	taste	choicePhaseStart	3	177	57	foodImage.73	FOODEEG_Images\0717.jpg	YN	Left	Yes	0.955475900002057	0	671049	253
1311.587890625	0	taste	response	3	177	57	foodImage.73	FOODEEG_Images\0717.jpg	YN	Left	Yes	0.955475900002057	0	671534	234
1312.630859375	1	taste	trialStart	3	178	58	foodImage.106	FOODEEG_Images\0914.jpg	YN	Left	Yes	1.15911570000753	0	672068	251
1313.66796875	2	taste	foodImageDisplay	3	178	58	foodImage.106	FOODEEG_Images\0914.jpg	YN	Left	Yes	1.15911570000753	0	672599	252
1315.732421875	1.15911570000753	taste	choicePhaseStart	3	178	58	foodImage.106	FOODEEG_Images\0914.jpg	YN	Left	Yes	1.15911570000753	0	673656	253
1316.8828125	0	taste	response	3	178	58	foodImage.106	FOODEEG_Images\0914.jpg	YN	Left	Yes	1.15911570000753	0	674245	234
1317.92578125	1	decision	trialStart	3	179	59	foodImage.12	FOODEEG_Images\0181.jpg	YN	Left	Yes	0.69832409999799	0	674779	251
1318.986328125	2	decision	foodImageDisplay	3	179	59	foodImage.12	FOODEEG_Images\0181.jpg	YN	Left	Yes	0.69832409999799	0	675322	252
1321.048828125	0.69832409999799	decision	choicePhaseStart	3	179	59	foodImage.12	FOODEEG_Images\0181.jpg	YN	Left	Yes	0.69832409999799	0	676378	253
1321.73828125	0	decision	response	3	179	59	foodImage.12	FOODEEG_Images\0181.jpg	YN	Left	Yes	0.69832409999799	0	676731	234
1322.783203125	1	health	trialStart	3	180	60	foodImage.43	FOODEEG_Images\0445.jpg	YN	Left	Yes	2.30674879999424	0	677266	251
1323.83984375	2	health	foodImageDisplay	3	180	60	foodImage.43	FOODEEG_Images\0445.jpg	YN	Left	Yes	2.30674879999424	0	677807	252
1325.904296875	2.30674879999424	health	choicePhaseStart	3	180	60	foodImage.43	FOODEEG_Images\0445.jpg	YN	Left	Yes	2.30674879999424	0	678864	253
1328.203125	0	health	response	3	180	60	foodImage.43	FOODEEG_Images\0445.jpg	YN	Left	Yes	2.30674879999424	0	680041	234
1330.244140625	28.701171875	n/a	blockEnd	n/a	n/a	n/a	n/a	n/a	n/a	n/a	n/a	n/a	n/a	681086	254
1358.9453125	2	n/a	blockStart	4	n/a	n/a	n/a	n/a	n/a	n/a	n/a	n/a	n/a	695781	250
1360.978515625	1	taste	trialStart	4	181	1	foodImage.6	FOODEEG_Images\0113.jpg	NY	Right	Yes	1.03682959999423	0	696822	251
1362.021484375	2	taste	foodImageDisplay	4	181	1	foodImage.6	FOODEEG_Images\0113.jpg	NY	Right	Yes	1.03682959999423	0	697356	252
1364.0859375	1.03682959999423	taste	choicePhaseStart	4	181	1	foodImage.6	FOODEEG_Images\0113.jpg	NY	Right	Yes	1.03682959999423	0	698413	253
1365.11328125	0	taste	response	4	181	1	foodImage.6	FOODEEG_Images\0113.jpg	NY	Right	Yes	1.03682959999423	0	698939	235
1366.15625	1	health	trialStart	4	182	2	foodImage.39	FOODEEG_Images\0367.jpg	YN	Right	No	0.816486900002928	0	699473	251
1367.2109375	2	health	foodImageDisplay	4	182	2	foodImage.39	FOODEEG_Images\0367.jpg	YN	Right	No	0.816486900002928	0	700013	252
1369.2734375	0.816486900002928	health	choicePhaseStart	4	182	2	foodImage.39	FOODEEG_Images\0367.jpg	YN	Right	No	0.816486900002928	0	701069	253
1370.08203125	0	health	response	4	182	2	foodImage.39	FOODEEG_Images\0367.jpg	YN	Right	No	0.816486900002928	0	701483	235
1371.125	1	taste	trialStart	4	183	3	foodImage.83	FOODEEG_Images\0827.jpg	NY	Right	Yes	1.1228373000049	0	702017	251
1372.18359375	2	taste	foodImageDisplay	4	183	3	foodImage.83	FOODEEG_Images\0827.jpg	NY	Right	Yes	1.1228373000049	0	702559	252
1374.248046875	1.1228373000049	taste	choicePhaseStart	4	183	3	foodImage.83	FOODEEG_Images\0827.jpg	NY	Right	Yes	1.1228373000049	0	703616	253
1375.361328125	0	taste	response	4	183	3	foodImage.83	FOODEEG_Images\0827.jpg	NY	Right	Yes	1.1228373000049	0	704186	235
1376.404296875	1	decision	trialStart	4	184	4	foodImage.18	FOODEEG_Images\0202.jpg	NY	Right	Yes	0.941888900008053	0	704720	251
1377.4765625	2	decision	foodImageDisplay	4	184	4	foodImage.18	FOODEEG_Images\0202.jpg	NY	Right	Yes	0.941888900008053	0	705269	252
1379.541015625	0.941888900008053	decision	choicePhaseStart	4	184	4	foodImage.18	FOODEEG_Images\0202.jpg	NY	Right	Yes	0.941888900008053	0	706326	253
1380.47265625	0	decision	response	4	184	4	foodImage.18	FOODEEG_Images\0202.jpg	NY	Right	Yes	0.941888900008053	0	706803	235
1381.517578125	1	taste	trialStart	4	185	5	foodImage.96	FOODEEG_Images\0904.jpg	NY	Right	Yes	1.2682194999943	0	707338	251
1382.556640625	2	taste	foodImageDisplay	4	185	5	foodImage.96	FOODEEG_Images\0904.jpg	NY	Right	Yes	1.2682194999943	0	707870	252
1384.62109375	1.2682194999943	taste	choicePhaseStart	4	185	5	foodImage.96	FOODEEG_Images\0904.jpg	NY	Right	Yes	1.2682194999943	0	708927	253
1385.880859375	0	taste	response	4	185	5	foodImage.96	FOODEEG_Images\0904.jpg	NY	Right	Yes	1.2682194999943	0	709572	235
1386.921875	1	health	trialStart	4	186	6	foodImage.70	FOODEEG_Images\0705.jpg	NY	Right	Yes	1.86872220000078	0	710105	251
1388.00390625	2	health	foodImageDisplay	4	186	6	foodImage.70	FOODEEG_Images\0705.jpg	NY	Right	Yes	1.86872220000078	0	710659	252
1390.0703125	1.86872220000078	health	choicePhaseStart	4	186	6	foodImage.70	FOODEEG_Images\0705.jpg	NY	Right	Yes	1.86872220000078	0	711717	253
1391.927734375	0	health	response	4	186	6	foodImage.70	FOODEEG_Images\0705.jpg	NY	Right	Yes	1.86872220000078	0	712668	235
1392.974609375	1	taste	trialStart	4	187	7	foodImage.28	FOODEEG_Images\0273.jpg	NY	Right	Yes	0.707414899996365	0	713204	251
1394.015625	2	taste	foodImageDisplay	4	187	7	foodImage.28	FOODEEG_Images\0273.jpg	NY	Right	Yes	0.707414899996365	0	713737	252
1396.078125	0.707414899996365	taste	choicePhaseStart	4	187	7	foodImage.28	FOODEEG_Images\0273.jpg	NY	Right	Yes	0.707414899996365	0	714793	253
1396.77734375	0	taste	response	4	187	7	foodImage.28	FOODEEG_Images\0273.jpg	NY	Right	Yes	0.707414899996365	0	715151	235
1397.8203125	1	taste	trialStart	4	188	8	foodImage.3	FOODEEG_Images\0046.jpg	YN	Left	Yes	1.29752329998882	0	715685	251
1398.87890625	2	taste	foodImageDisplay	4	188	8	foodImage.3	FOODEEG_Images\0046.jpg	YN	Left	Yes	1.29752329998882	0	716227	252
1400.943359375	1.29752329998882	taste	choicePhaseStart	4	188	8	foodImage.3	FOODEEG_Images\0046.jpg	YN	Left	Yes	1.29752329998882	0	717284	253
1402.232421875	0	taste	response	4	188	8	foodImage.3	FOODEEG_Images\0046.jpg	YN	Left	Yes	1.29752329998882	0	717944	234
1403.275390625	1	health	trialStart	4	189	9	foodImage.11	FOODEEG_Images\0180.jpg	YN	Left	Yes	1.18605370000296	0	718478	251
1404.318359375	2	health	foodImageDisplay	4	189	9	foodImage.11	FOODEEG_Images\0180.jpg	YN	Left	Yes	1.18605370000296	0	719012	252
1406.3828125	1.18605370000296	health	choicePhaseStart	4	189	9	foodImage.11	FOODEEG_Images\0180.jpg	YN	Left	Yes	1.18605370000296	0	720069	253
1407.560546875	0	health	response	4	189	9	foodImage.11	FOODEEG_Images\0180.jpg	YN	Left	Yes	1.18605370000296	0	720672	234
1408.603515625	1	taste	trialStart	4	190	10	foodImage.87	FOODEEG_Images\0873.jpg	NY	Right	Yes	0.853423799999291	0	721206	251
1409.662109375	2	taste	foodImageDisplay	4	190	10	foodImage.87	FOODEEG_Images\0873.jpg	NY	Right	Yes	0.853423799999291	0	721748	252
1411.724609375	0.853423799999291	taste	choicePhaseStart	4	190	10	foodImage.87	FOODEEG_Images\0873.jpg	NY	Right	Yes	0.853423799999291	0	722804	253
1412.568359375	0	taste	response	4	190	10	foodImage.87	FOODEEG_Images\0873.jpg	NY	Right	Yes	0.853423799999291	0	723236	235
1413.611328125	1	taste	trialStart	4	191	11	foodImage.33	FOODEEG_Images\0329.jpg	NY	Right	Yes	0.785830200009514	0	723770	251
1414.65625	2	taste	foodImageDisplay	4	191	11	foodImage.33	FOODEEG_Images\0329.jpg	NY	Right	Yes	0.785830200009514	0	724305	252
1416.71875	0.785830200009514	taste	choicePhaseStart	4	191	11	foodImage.33	FOODEEG_Images\0329.jpg	NY	Right	Yes	0.785830200009514	0	725361	253
1417.49609375	0	taste	response	4	191	11	foodImage.33	FOODEEG_Images\0329.jpg	NY	Right	Yes	0.785830200009514	0	725759	235
1418.5390625	1	taste	trialStart	4	192	12	foodImage.75	FOODEEG_Images\0763.jpg	YN	Right	No	0.60195530000783	0	726293	251
1419.583984375	2	taste	foodImageDisplay	4	192	12	foodImage.75	FOODEEG_Images\0763.jpg	YN	Right	No	0.60195530000783	0	726828	252
1421.646484375	0.60195530000783	taste	choicePhaseStart	4	192	12	foodImage.75	FOODEEG_Images\0763.jpg	YN	Right	No	0.60195530000783	0	727884	253
1422.240234375	0	taste	response	4	192	12	foodImage.75	FOODEEG_Images\0763.jpg	YN	Right	No	0.60195530000783	0	728188	235
1423.283203125	1	health	trialStart	4	193	13	foodImage.108	FOODEEG_Images\0916.jpg	YN	Right	No	2.46150029999262	0	728722	251
1424.32421875	2	health	foodImageDisplay	4	193	13	foodImage.108	FOODEEG_Images\0916.jpg	YN	Right	No	2.46150029999262	0	729255	252
1426.38671875	2.46150029999262	health	choicePhaseStart	4	193	13	foodImage.108	FOODEEG_Images\0916.jpg	YN	Right	No	2.46150029999262	0	730311	253
1428.83984375	0	health	response	4	193	13	foodImage.108	FOODEEG_Images\0916.jpg	YN	Right	No	2.46150029999262	0	731567	235
1429.87890625	1	taste	trialStart	4	194	14	foodImage.45	FOODEEG_Images\0478.jpg	NY	Right	Yes	1.04688589999569	0	732099	251
1430.921875	2	taste	foodImageDisplay	4	194	14	foodImage.45	FOODEEG_Images\0478.jpg	NY	Right	Yes	1.04688589999569	0	732633	252
