onset	duration	trial_type	event_type	block	trial_total	trial_in_block	food_image_code	food_image_path	button_position	resp_position	resp_choice	choice_rt	resp_too_slow	sample	trigger
517.943359375	2	n/a	blockStart	1	n/a	n/a	n/a	n/a	n/a	n/a	n/a	n/a	n/a	265188	250
519.982421875	1	taste	trialStart	1	1	1	foodImage.29	FOODEEG_Images\0278.jpg	YN	Right	No	1.24472900014371	0	266232	251
521.029296875	2	taste	foodImageDisplay	1	1	1	foodImage.29	FOODEEG_Images\0278.jpg	YN	Right	No	1.24472900014371	0	266768	252
523.09375	1.24472900014371	taste	choicePhaseStart	1	1	1	foodImage.29	FOODEEG_Images\0278.jpg	YN	Right	No	1.24472900014371	0	267825	253
524.330078125	0	taste	response	1	1	1	foodImage.29	FOODEEG_Images\0278.jpg	YN	Right	No	1.24472900014371	0	268458	235
525.41796875	1	taste	trialStart	1	2	2	foodImage.52	FOODEEG_Images\0539.jpg	NY	Right	Yes	1.13620429998264	0	269015	251
526.4765625	2	taste	foodImageDisplay	1	2	2	foodImage.52	FOODEEG_Images\0539.jpg	NY	Right	Yes	1.13620429998264	0	269557	252
528.5390625	1.13620429998264	taste	choicePhaseStart	1	2	2	foodImage.52	FOODEEG_Images\0539.jpg	NY	Right	Yes	1.13620429998264	0	270613	253
529.666015625	0	taste	response	1	2	2	foodImage.52	FOODEEG_Images\0539.jpg	NY	Right	Yes	1.13620429998264	0	271190	235
530.720703125	1	decision	trialStart	1	3	3	foodImage.113	FOODEEG_Images\0921.jpg	YN	Left	Yes	1.25565079972148	0	271730	251
531.76953125	2	decision	foodImageDisplay	1	3	3	foodImage.113	FOODEEG_Images\0921.jpg	YN	Left	Yes	1.25565079972148	0	272267	252
533.83203125	1.25565079972148	decision	choicePhaseStart	1	3	3	foodImage.113	FOODEEG_Images\0921.jpg	YN	Left	Yes	1.25565079972148	0	273323	253
535.08203125	0	decision	response	1	3	3	foodImage.113	FOODEEG_Images\0921.jpg	YN	Left	Yes	1.25565079972148	0	273963	234
536.123046875	1	decision	trialStart	1	4	4	foodImage.28	FOODEEG_Images\0273.jpg	YN	Right	No	1.1625842996873	0	274496	251
537.166015625	2	decision	foodImageDisplay	1	4	4	foodImage.28	FOODEEG_Images\0273.jpg	YN	Right	No	1.1625842996873	0	275030	252
539.23046875	1.1625842996873	decision	choicePhaseStart	1	4	4	foodImage.28	FOODEEG_Images\0273.jpg	YN	Right	No	1.1625842996873	0	276087	253
540.384765625	0	decision	response	1	4	4	foodImage.28	FOODEEG_Images\0273.jpg	YN	Right	No	1.1625842996873	0	276678	235
541.427734375	1	decision	trialStart	1	5	5	foodImage.95	FOODEEG_Images\0903.jpg	YN	Right	No	0.993767899926752	0	277212	251
542.470703125	2	decision	foodImageDisplay	1	5	5	foodImage.95	FOODEEG_Images\0903.jpg	YN	Right	No	0.993767899926752	0	277746	252
544.537109375	0.993767899926752	decision	choicePhaseStart	1	5	5	foodImage.95	FOODEEG_Images\0903.jpg	YN	Right	No	0.993767899926752	0	278804	253
545.521484375	0	decision	response	1	5	5	foodImage.95	FOODEEG_Images\0903.jpg	YN	Right	No	0.993767899926752	0	279308	235
546.572265625	1	health	trialStart	1	6	6	foodImage.79	FOODEEG_Images\0794.jpg	YN	Left	Yes	0.809239599853754	0	279846	251
547.615234375	2	health	foodImageDisplay	1	6	6	foodImage.79	FOODEEG_Images\0794.jpg	YN	Left	Yes	0.809239599853754	0	280380	252
549.6796875	0.809239599853754	health	choicePhaseStart	1	6	6	foodImage.79	FOODEEG_Images\0794.jpg	YN	Left	Yes	0.809239599853754	0	281437	253
550.48046875	0	health	response	1	6	6	foodImage.79	FOODEEG_Images\0794.jpg	YN	Left	Yes	0.809239599853754	0	281847	234
551.525390625	1	taste	trialStart	1	7	7	foodImage.74	FOODEEG_Images\0752.jpg	NY	Right	Yes	0.898632599972188	0	282382	251
552.583984375	2	taste	foodImageDisplay	1	7	7	foodImage.74	FOODEEG_Images\0752.jpg	NY	Right	Yes	0.898632599972188	0	282924	252
554.6484375	0.898632599972188	taste	choicePhaseStart	1	7	7	foodImage.74	FOODEEG_Images\0752.jpg	NY	Right	Yes	0.898632599972188	0	283981	253
555.537109375	0	taste	response	1	7	7	foodImage.74	FOODEEG_Images\0752.jpg	NY	Right	Yes	0.898632599972188	0	284436	235
556.580078125	1	taste	trialStart	1	8	8	foodImage.5	FOODEEG_Images\0107.jpg	YN	Left	Yes	0.763040299993008	0	284970	251
557.6484375	2	taste	foodImageDisplay	1	8	8	foodImage.5	FOODEEG_Images\0107.jpg	YN	Left	Yes	0.763040299993008	0	285517	252
559.7109375	0.763040299993008	taste	choicePhaseStart	1	8	8	foodImage.5	FOODEEG_Images\0107.jpg	YN	Left	Yes	0.763040299993008	0	286573	253
560.46484375	0	taste	response	1	8	8	foodImage.5	FOODEEG_Images\0107.jpg	YN	Left	Yes	0.763040299993008	0	286959	234
561.5078125	1	health	trialStart	1	9	9	foodImage.75	FOODEEG_Images\0763.jpg	NY	Right	Yes	0.842632299754769	0	287493	251
562.55078125	2	health	foodImageDisplay	1	9	9	foodImage.75	FOODEEG_Images\0763.jpg	NY	Right	Yes	0.842632299754769	0	288027	252
564.61328125	0.842632299754769	health	choicePhaseStart	1	9	9	foodImage.75	FOODEEG_Images\0763.jpg	NY	Right	Yes	0.842632299754769	0	289083	253
565.44921875	0	health	response	1	9	9	foodImage.75	FOODEEG_Images\0763.jpg	NY	Right	Yes	0.842632299754769	0	289511	235
566.4921875	1	taste	trialStart	1	10	10	foodImage.33	FOODEEG_Images\0329.jpg	NY	Right	Yes	1.33731559989974	0	290045	251
567.53515625	2	taste	foodImageDisplay	1	10	10	foodImage.33	FOODEEG_Images\0329.jpg	NY	Right	Yes	1.33731559989974	0	290579	252
569.599609375	1.33731559989974	taste	choicePhaseStart	1	10	10	foodImage.33	FOODEEG_Images\0329.jpg	NY	Right	Yes	1.33731559989974	0	291636	253
570.927734375	0	taste	response	1	10	10	foodImage.33	FOODEEG_Images\0329.jpg	NY	Right	Yes	1.33731559989974	0	292316	235
571.970703125	1	decision	trialStart	1	11	11	foodImage.103	FOODEEG_Images\0911.jpg	NY	Left	No	1.03849659999833	0	292850	251
573.009765625	2	decision	foodImageDisplay	1	11	11	foodImage.103	FOODEEG_Images\0911.jpg	NY	Left	No	1.03849659999833	0	293382	252
575.072265625	1.03849659999833	decision	choicePhaseStart	1	11	11	foodImage.103	FOODEEG_Images\0911.jpg	NY	Left	No	1.03849659999833	0	294438	253
576.103515625	0	decision	response	1	11	11	foodImage.103	FOODEEG_Images\0911.jpg	NY	Left	No	1.03849659999833	0	294966	234
577.142578125	1	taste	trialStart	1	12	12	foodImage.16	FOODEEG_Images\0196.jpg	NY	Right	Yes	1.32360169989988	0	295498	251
578.220703125	2	taste	foodImageDisplay	1	12	12	foodImage.16	FOODEEG_Images\0196.jpg	NY	Right	Yes	1.32360169989988	0	296050	252
580.28515625	1.32360169989988	taste	choicePhaseStart	1	12	12	foodImage.16	FOODEEG_Images\0196.jpg	NY	Right	Yes	1.32360169989988	0	297107	253
581.599609375	0	taste	response	1	12	12	foodImage.16	FOODEEG_Images\0196.jpg	NY	Right	Yes	1.32360169989988	0	297780	235
582.640625	1	decision	trialStart	1	13	13	foodImage.4	FOODEEG_Images\0065.jpg	YN	Right	No	0.846521399915218	0	298313	251
583.697265625	2	decision	foodImageDisplay	1	13	13	foodImage.4	FOODEEG_Images\0065.jpg	YN	Right	No	0.846521399915218	0	298854	252
585.759765625	0.846521399915218	decision	choicePhaseStart	1	13	13	foodImage.4	FOODEEG_Images\0065.jpg	YN	Right	No	0.846521399915218	0	299910	253
586.599609375	0	decision	response	1	13	13	foodImage.4	FOODEEG_Images\0065.jpg	YN	Right	No	0.846521399915218	0	300340	235
587.642578125	1	decision	trialStart	1	14	14	foodImage.34	FOODEEG_Images\0339.jpg	NY	Right	Yes	0.967212500050664	0	300874	251
588.697265625	2	decision	foodImageDisplay	1	14	14	foodImage.34	FOODEEG_Images\0339.jpg	NY	Right	Yes	0.967212500050664	0	301414	252
590.759765625	0.967212500050664	decision	choicePhaseStart	1	14	14	foodImage.34	FOODEEG_Images\0339.jpg	NY	Right	Yes	0.967212500050664	0	302470	253
591.71875	0	decision	response	1	14	14	foodImage.34	FOODEEG_Images\0339.jpg	NY	Right	Yes	0.967212500050664	0	302961	235
592.76171875	1	taste	trialStart	1	15	15	foodImage.69	FOODEEG_Images\0693.jpg	NY	Right	Yes	0.924155599903315	0	303495	251
593.8046875	2	taste	foodImageDisplay	1	15	15	foodImage.69	FOODEEG_Images\0693.jpg	NY	Right	Yes	0.924155599903315	0	304029	252
595.8671875	0.924155599903315	taste	choicePhaseStart	1	15	15	foodImage.69	FOODEEG_Images\0693.jpg	NY	Right	Yes	0.924155599903315	0	305085	253
596.783203125	0	taste	response	1	15	15	foodImage.69	FOODEEG_Images\0693.jpg	NY	Right	Yes	0.924155599903315	0	305554	235
597.82421875	1	taste	trialStart	1	16	16	foodImage.45	FOODEEG_Images\0478.jpg	YN	Left	Yes	1.04126019962132	0	306087	251
598.87109375	2	taste	foodImageDisplay	1	16	16	foodImage.45	FOODEEG_Images\0478.jpg	YN	Left	Yes	1.04126019962132	0	306623	252
600.93359375	1.04126019962132	taste	choicePhaseStart	1	16	16	foodImage.45	FOODEEG_Images\0478.jpg	YN	Left	Yes	1.04126019962132	0	307679	253
601.966796875	0	taste	response	1	16	16	foodImage.45	FOODEEG_Images\0478.jpg	YN	Left	Yes	1.04126019962132	0	308208	234
603.01171875	1	health	trialStart	1	17	17	foodImage.115	FOODEEG_Images\0923.jpg	NY	Right	Yes	1.79666769970208	0	308743	251
604.056640625	2	health	foodImageDisplay	1	17	17	foodImage.115	FOODEEG_Images\0923.jpg	NY	Right	Yes	1.79666769970208	0	309278	252
606.123046875	1.79666769970208	health	choicePhaseStart	1	17	17	foodImage.115	FOODEEG_Images\0923.jpg	NY	Right	Yes	1.79666769970208	0	310336	253
607.91015625	0	health	response	1	17	17	foodImage.115	FOODEEG_Images\0923.jpg	NY	Right	Yes	1.79666769970208	0	311251	235
608.953125	1	taste	trialStart	1	18	18	foodImage.4	FOODEEG_Images\0065.jpg	NY	Right	Yes	0.924804199952632	0	311785	251
610.029296875	2	taste	foodImageDisplay	1	18	18	foodImage.4	FOODEEG_Images\0065.jpg	NY	Right	Yes	0.924804199952632	0	312336	252
612.091796875	0.924804199952632	taste	choicePhaseStart	1	18	18	foodImage.4	FOODEEG_Images\0065.jpg	NY	Right	Yes	0.924804199952632	0	313392	253
613.005859375	0	taste	response	1	18	18	foodImage.4	FOODEEG_Images\0065.jpg	NY	Right	Yes	0.924804199952632	0	313860	235
614.048828125	1	taste	trialStart	1	19	19	foodImage.53	FOODEEG_Images\0547.jpg	NY	Left	No	0.971361699979752	0	314394	251
615.109375	2	taste	foodImageDisplay	1	19	19	foodImage.53	FOODEEG_Images\0547.jpg	NY	Left	No	0.971361699979752	0	314937	252
617.171875	0.971361699979752	taste	choicePhaseStart	1	19	19	foodImage.53	FOODEEG_Images\0547.jpg	NY	Left	No	0.971361699979752	0	315993	253
618.134765625	0	taste	response	1	19	19	foodImage.53	FOODEEG_Images\0547.jpg	NY	Left	No	0.971361699979752	0	316486	234
619.1796875	1	decision	trialStart	1	20	20	foodImage.107	FOODEEG_Images\0915.jpg	NY	Left	No	0.989685200154781	0	317021	251
620.21875	2	decision	foodImageDisplay	1	20	20	foodImage.107	FOODEEG_Images\0915.jpg	NY	Left	No	0.989685200154781	0	317553	252
622.28125	0.989685200154781	decision	choicePhaseStart	1	20	20	foodImage.107	FOODEEG_Images\0915.jpg	NY	Left	No	0.989685200154781	0	318609	253
623.26171875	0	decision	response	1	20	20	foodImage.107	FOODEEG_Images\0915.jpg	NY	Left	No	0.989685200154781	0	319111	234
624.30078125	1	decision	trialStart	1	21	21	foodImage.17	FOODEEG_Images\0199.jpg	YN	Left	Yes	0.851987599860877	0	319643	251
625.33984375	2	decision	foodImageDisplay	1	21	21	foodImage.17	FOODEEG_Images\0199.jpg	YN	Left	Yes	0.851987599860877	0	320175	252
627.40234375	0.851987599860877	decision	choicePhaseStart	1	21	21	foodImage.17	FOODEEG_Images\0199.jpg	YN	Left	Yes	0.851987599860877	0	321231	253
628.24609375	0	decision	response	1	21	21	foodImage.17	FOODEEG_Images\0199.jpg	YN	Left	Yes	0.851987599860877	0	321663	234
629.287109375	1	taste	trialStart	1	22	22	foodImage.22	FOODEEG_Images\0236.jpg	NY	Right	Yes	1.60959120001644	0	322196	251
630.328125	2	taste	foodImageDisplay	1	22	22	foodImage.22	FOODEEG_Images\0236.jpg	NY	Right	Yes	1.60959120001644	0	322729	252
632.390625	1.60959120001644	taste	choicePhaseStart	1	22	22	foodImage.22	FOODEEG_Images\0236.jpg	NY	Right	Yes	1.60959120001644	0	323785	253
633.990234375	0	taste	response	1	22	22	foodImage.22	FOODEEG_Images\0236.jpg	NY	Right	Yes	1.60959120001644	0	324604	235
635.03125	1	health	trialStart	1	23	23	foodImage.38	FOODEEG_Images\0365.jpg	YN	Left	Yes	0.904704600106925	0	325137	251
636.068359375	2	health	foodImageDisplay	1	23	23	foodImage.38	FOODEEG_Images\0365.jpg	YN	Left	Yes	0.904704600106925	0	325668	252
638.1328125	0.904704600106925	health	choicePhaseStart	1	23	23	foodImage.38	FOODEEG_Images\0365.jpg	YN	Left	Yes	0.904704600106925	0	326725	253
639.029296875	0	health	response	1	23	23	foodImage.38	FOODEEG_Images\0365.jpg	YN	Left	Yes	0.904704600106925	0	327184	234
640.072265625	1	health	trialStart	1	24	24	foodImage.47	FOODEEG_Images\0488.jpg	YN	Right	No	1.22183419996873	0	327718	251
641.11328125	2	health	foodImageDisplay	1	24	24	foodImage.47	FOODEEG_Images\0488.jpg	YN	Right	No	1.22183419996873	0	328251	252
643.17578125	1.22183419996873	health	choicePhaseStart	1	24	24	foodImage.47	FOODEEG_Images\0488.jpg	YN	Right	No	1.22183419996873	0	329307	253
644.388671875	0	health	response	1	24	24	foodImage.47	FOODEEG_Images\0488.jpg	YN	Right	No	1.22183419996873	0	329928	235
645.427734375	1	taste	trialStart	1	25	25	foodImage.95	FOODEEG_Images\0903.jpg	YN	Right	No	0.849177499767393	0	330460	251
646.46484375	2	taste	foodImageDisplay	1	25	25	foodImage.95	FOODEEG_Images\0903.jpg	YN	Right	No	0.849177499767393	0	330991	252
648.53125	0.849177499767393	taste	choicePhaseStart	1	25	25	foodImage.95	FOODEEG_Images\0903.jpg	YN	Right	No	0.849177499767393	0	332049	253
649.373046875	0	taste	response	1	25	25	foodImage.95	FOODEEG_Images\0903.jpg	YN	Right	No	0.849177499767393	0	332480	235
650.416015625	1	decision	trialStart	1	26	26	foodImage.39	FOODEEG_Images\0367.jpg	NY	Right	Yes	1.09923540009186	0	333014	251
651.453125	2	decision	foodImageDisplay	1	26	26	foodImage.39	FOODEEG_Images\0367.jpg	NY	Right	Yes	1.09923540009186	0	333545	252
653.513671875	1.09923540009186	decision	choicePhaseStart	1	26	26	foodImage.39	FOODEEG_Images\0367.jpg	NY	Right	Yes	1.09923540009186	0	334600	253
654.60546875	0	decision	response	1	26	26	foodImage.39	FOODEEG_Images\0367.jpg	NY	Right	Yes	1.09923540009186	0	335159	235
655.64453125	1	taste	trialStart	1	27	27	foodImage.24	FOODEEG_Images\0250.jpg	YN	Left	Yes	1.04969340004027	0	335691	251
656.701171875	2	taste	foodImageDisplay	1	27	27	foodImage.24	FOODEEG_Images\0250.jpg	YN	Left	Yes	1.04969340004027	0	336232	252
658.763671875	1.04969340004027	taste	choicePhaseStart	1	27	27	foodImage.24	FOODEEG_Images\0250.jpg	YN	Left	Yes	1.04969340004027	0	337288	253
659.8046875	0	taste	response	1	27	27	foodImage.24	FOODEEG_Images\0250.jpg	YN	Left	Yes	1.04969340004027	0	337821	234
660.845703125	1	decision	trialStart	1	28	28	foodImage.31	FOODEEG_Images\0294.jpg	YN	Right	No	1.90430360008031	0	338354	251
661.88671875	2	decision	foodImageDisplay	1	28	28	foodImage.31	FOODEEG_Images\0294.jpg	YN	Right	No	1.90430360008031	0	338887	252
663.951171875	1.90430360008031	decision	choicePhaseStart	1	28	28	foodImage.31	FOODEEG_Images\0294.jpg	YN	Right	No	1.90430360008031	0	339944	253
665.84375	0	decision	response	1	28	28	foodImage.31	FOODEEG_Images\0294.jpg	YN	Right	No	1.90430360008031	0	340913	235
666.888671875	1	health	trialStart	1	29	29	foodImage.65	FOODEEG_Images\0658.jpg	NY	Left	No	1.5258834999986	0	341448	251
667.943359375	2	health	foodImageDisplay	1	29	29	foodImage.65	FOODEEG_Images\0658.jpg	NY	Left	No	1.5258834999986	0	341988	252
670.005859375	1.5258834999986	health	choicePhaseStart	1	29	29	foodImage.65	FOODEEG_Images\0658.jpg	NY	Left	No	1.5258834999986	0	343044	253
671.5234375	0	health	response	1	29	29	foodImage.65	FOODEEG_Images\0658.jpg	NY	Left	No	1.5258834999986	0	343821	234
672.5625	1	health	trialStart	1	30	30	foodImage.50	FOODEEG_Images\0529.jpg	NY	Right	Yes	0.917677800171077	0	344353	251
673.6171875	2	health	foodImageDisplay	1	30	30	foodImage.50	FOODEEG_Images\0529.jpg	NY	Right	Yes	0.917677800171077	0	344893	252
675.6796875	0.917677800171077	health	choicePhaseStart	1	30	30	foodImage.50	FOODEEG_Images\0529.jpg	NY	Right	Yes	0.917677800171077	0	345949	253
676.587890625	0	health	response	1	30	30	foodImage.50	FOODEEG_Images\0529.jpg	NY	Right	Yes	0.917677800171077	0	346414	235
677.626953125	1	decision	trialStart	1	31	31	foodImage.93	FOODEEG_Images\0901.jpg	YN	Right	No	0.965218500234187	0	346946	251
678.666015625	2	decision	foodImageDisplay	1	31	31	foodImage.93	FOODEEG_Images\0901.jpg	YN	Right	No	0.965218500234187	0	347478	252
680.728515625	0.965218500234187	decision	choicePhaseStart	1	31	31	foodImage.93	FOODEEG_Images\0901.jpg	YN	Right	No	0.965218500234187	0	348534	253
681.68359375	0	decision	response	1	31	31	foodImage.93	FOODEEG_Images\0901.jpg	YN	Right	No	0.965218500234187	0	349023	235
682.724609375	1	taste	trialStart	1	32	32	foodImage.82	FOODEEG_Images\0805.jpg	NY	Left	No	1.1209450000897	0	349556	251
683.78125	2	taste	foodImageDisplay	1	32	32	foodImage.82	FOODEEG_Images\0805.jpg	NY	Left	No	1.1209450000897	0	350097	252
685.84375	1.1209450000897	taste	choicePhaseStart	1	32	32	foodImage.82	FOODEEG_Images\0805.jpg	NY	Left	No	1.1209450000897	0	351153	253
686.955078125	0	taste	response	1	32	32	foodImage.82	FOODEEG_Images\0805.jpg	NY	Left	No	1.1209450000897	0	351722	234
687.998046875	1	health	trialStart	1	33	33	foodImage.116	FOODEEG_Images\0924.jpg	NY	Left	No	1.04934200039133	0	352256	251
689.03515625	2	health	foodImageDisplay	1	33	33	foodImage.116	FOODEEG_Images\0924.jpg	NY	Left	No	1.04934200039133	0	352787	252
691.09765625	1.04934200039133	health	choicePhaseStart	1	33	33	foodImage.116	FOODEEG_Images\0924.jpg	NY	Left	No	1.04934200039133	0	353843	253
692.138671875	0	health	response	1	33	33	foodImage.116	FOODEEG_Images\0924.jpg	NY	Left	No	1.04934200039133	0	354376	234
693.181640625	1	decision	trialStart	1	34	34	foodImage.44	FOODEEG_Images\0459.jpg	NY	Right	Yes	1.58951559988782	0	354910	251
694.24609375	2	decision	foodImageDisplay	1	34	34	foodImage.44	FOODEEG_Images\0459.jpg	NY	Right	Yes	1.58951559988782	0	355455	252
696.30859375	1.58951559988782	decision	choicePhaseStart	1	34	34	foodImage.44	FOODEEG_Images\0459.jpg	NY	Right	Yes	1.58951559988782	0	356511	253
697.890625	0	decision	response	1	34	34	foodImage.44	FOODEEG_Images\0459.jpg	NY	Right	Yes	1.58951559988782	0	357321	235
698.931640625	1	taste	trialStart	1	35	35	foodImage.51	FOODEEG_Images\0536.jpg	NY	Right	Yes	1.37442160025239	0	357854	251
699.974609375	2	taste	foodImageDisplay	1	35	35	foodImage.51	FOODEEG_Images\0536.jpg	NY	Right	Yes	1.37442160025239	0	358388	252
702.037109375	1.37442160025239	taste	choicePhaseStart	1	35	35	foodImage.51	FOODEEG_Images\0536.jpg	NY	Right	Yes	1.37442160025239	0	359444	253
703.40234375	0	taste	response	1	35	35	foodImage.51	FOODEEG_Images\0536.jpg	NY	Right	Yes	1.37442160025239	0	360143	235
704.4453125	1	taste	trialStart	1	36	36	foodImage.110	FOODEEG_Images\0918.jpg	NY	Left	No	0.969149700365961	0	360677	251
705.484375	2	taste	foodImageDisplay	1	36	36	foodImage.110	FOODEEG_Images\0918.jpg	NY	Left	No	0.969149700365961	0	361209	252
707.546875	0.969149700365961	taste	choicePhaseStart	1	36	36	foodImage.110	FOODEEG_Images\0918.jpg	NY	Left	No	0.969149700365961	0	362265	253
708.505859375	0	taste	response	1	36	36	foodImage.110	FOODEEG_Images\0918.jpg	NY	Left	No	0.969149700365961	0	362756	234
709.548828125	1	decision	trialStart	1	37	37	foodImage.66	FOODEEG_Images\0676.jpg	YN	Left	Yes	0.888927300460637	0	363290	251
710.58984375	2	decision	foodImageDisplay	1	37	37	foodImage.66	FOODEEG_Images\0676.jpg	YN	Left	Yes	0.888927300460637	0	363823	252
712.658203125	0.888927300460637	decision	choicePhaseStart	1	37	37	foodImage.66	FOODEEG_Images\0676.jpg	YN	Left	Yes	0.888927300460637	0	364882	253
713.5390625	0	decision	response	1	37	37	foodImage.66	FOODEEG_Images\0676.jpg	YN	Left	Yes	0.888927300460637	0	365333	234
714.583984375	1	decision	trialStart	1	38	38	foodImage.54	FOODEEG_Images\0560.jpg	YN	Left	Yes	0.860767299775034	0	365868	251
715.6640625	2	decision	foodImageDisplay	1	38	38	foodImage.54	FOODEEG_Images\0560.jpg	YN	Left	Yes	0.860767299775034	0	366421	252
717.7265625	0.860767299775034	decision	choicePhaseStart	1	38	38	foodImage.54	FOODEEG_Images\0560.jpg	YN	Left	Yes	0.860767299775034	0	367477	253
718.578125	0	decision	response	1	38	38	foodImage.54	FOODEEG_Images\0560.jpg	YN	Left	Yes	0.860767299775034	0	367913	234
719.62109375	1	health	trialStart	1	39	39	foodImage.109	FOODEEG_Images\0917.jpg	YN	Right	No	1.14227649988607	0	368447	251
720.66015625	2	health	foodImageDisplay	1	39	39	foodImage.109	FOODEEG_Images\0917.jpg	YN	Right	No	1.14227649988607	0	368979	252
722.724609375	1.14227649988607	health	choicePhaseStart	1	39	39	foodImage.109	FOODEEG_Images\0917.jpg	YN	Right	No	1.14227649988607	0	370036	253
723.857421875	0	health	response	1	39	39	foodImage.109	FOODEEG_Images\0917.jpg	YN	Right	No	1.14227649988607	0	370616	235
724.896484375	1	decision	trialStart	1	40	40	foodImage.114	FOODEEG_Images\0922.jpg	YN	Right	No	0.921514700166881	0	371148	251
725.935546875	2	decision	foodImageDisplay	1	40	40	foodImage.114	FOODEEG_Images\0922.jpg	YN	Right	No	0.921514700166881	0	371680	252
728	0.921514700166881	decision	choicePhaseStart	1	40	40	foodImage.114	FOODEEG_Images\0922.jpg	YN	Right	No	0.921514700166881	0	372737	253
728.9140625	0	decision	response	1	40	40	foodImage.114	FOODEEG_Images\0922.jpg	YN	Right	No	0.921514700166881	0	373205	235
729.953125	1	taste	trialStart	1	41	41	foodImage.111	FOODEEG_Images\0919.jpg	YN	Right	No	0.852951099630445	0	373737	251
730.990234375	2	taste	foodImageDisplay	1	41	41	foodImage.111	FOODEEG_Images\0919.jpg	YN	Right	No	0.852951099630445	0	374268	252
733.052734375	0.852951099630445	taste	choicePhaseStart	1	41	41	foodImage.111	FOODEEG_Images\0919.jpg	YN	Right	No	0.852951099630445	0	375324	253
733.896484375	0	taste	response	1	41	41	foodImage.111	FOODEEG_Images\0919.jpg	YN	Right	No	0.852951099630445	0	375756	235
734.935546875	1	health	trialStart	1	42	42	foodImage.14	FOODEEG_Images\0188.jpg	NY	Left	No	1.44735579984263	0	376288	251
735.994140625	2	health	foodImageDisplay	1	42	42	foodImage.14	FOODEEG_Images\0188.jpg	NY	Left	No	1.44735579984263	0	376830	252
738.056640625	1.44735579984263	health	choicePhaseStart	1	42	42	foodImage.14	FOODEEG_Images\0188.jpg	NY	Left	No	1.44735579984263	0	377886	253
739.498046875	0	health	response	1	42	42	foodImage.14	FOODEEG_Images\0188.jpg	NY	Left	No	1.44735579984263	0	378624	234
740.541015625	1	decision	trialStart	1	43	43	foodImage.119	FOODEEG_Images\0927.jpg	NY	Left	No	0.888804399874061	0	379158	251
741.578125	2	decision	foodImageDisplay	1	43	43	foodImage.119	FOODEEG_Images\0927.jpg	NY	Left	No	0.888804399874061	0	379689	252
743.640625	0.888804399874061	decision	choicePhaseStart	1	43	43	foodImage.119	FOODEEG_Images\0927.jpg	NY	Left	No	0.888804399874061	0	380745	253
744.521484375	0	decision	response	1	43	43	foodImage.119	FOODEEG_Images\0927.jpg	NY	Left	No	0.888804399874061	0	381196	234
745.564453125	1	taste	trialStart	1	44	44	foodImage.28	FOODEEG_Images\0273.jpg	NY	Left	No	1.40912840003148	0	381730	251
746.60546875	2	taste	foodImageDisplay	1	44	44	foodImage.28	FOODEEG_Images\0273.jpg	NY	Left	No	1.40912840003148	0	382263	252
748.671875	1.40912840003148	taste	choicePhaseStart	1	44	44	foodImage.28	FOODEEG_Images\0273.jpg	NY	Left	No	1.40912840003148	0	383321	253
750.072265625	0	taste	response	1	44	44	foodImage.28	FOODEEG_Images\0273.jpg	NY	Left	No	1.40912840003148	0	384038	234
751.11328125	1	taste	trialStart	1	45	45	foodImage.19	FOODEEG_Images\0225.jpg	NY	Left	No	1.47232989966869	0	384571	251
752.154296875	2	taste	foodImageDisplay	1	45	45	foodImage.19	FOODEEG_Images\0225.jpg	NY	Left	No	1.47232989966869	0	385104	252
754.216796875	1.47232989966869	taste	choicePhaseStart	1	45	45	foodImage.19	FOODEEG_Images\0225.jpg	NY	Left	No	1.47232989966869	0	386160	253
755.6796875	0	taste	response	1	45	45	foodImage.19	FOODEEG_Images\0225.jpg	NY	Left	No	1.47232989966869	0	386909	234
756.72265625	1	decision	trialStart	1	46	46	foodImage.42	FOODEEG_Images\0438.jpg	YN	Right	No	1.74618630018085	0	387443	251
757.810546875	2	decision	foodImageDisplay	1	46	46	foodImage.42	FOODEEG_Images\0438.jpg	YN	Right	No	1.74618630018085	0	388000	252
759.873046875	1.74618630018085	decision	choicePhaseStart	1	46	46	foodImage.42	FOODEEG_Images\0438.jpg	YN	Right	No	1.74618630018085	0	389056	253
761.609375	0	decision	response	1	46	46	foodImage.42	FOODEEG_Images\0438.jpg	YN	Right	No	1.74618630018085	0	389945	235
762.650390625	1	health	trialStart	1	47	47	foodImage.120	FOODEEG_Images\0928.jpg	YN	Right	No	1.08176060020924	0	390478	251
763.689453125	2	health	foodImageDisplay	1	47	47	foodImage.120	FOODEEG_Images\0928.jpg	YN	Right	No	1.08176060020924	0	391010	252
765.751953125	1.08176060020924	health	choicePhaseStart	1	47	47	foodImage.120	FOODEEG_Images\0928.jpg	YN	Right	No	1.08176060020924	0	392066	253
766.82421875	0	health	response	1	47	47	foodImage.120	FOODEEG_Images\0928.jpg	YN	Right	No	1.08176060020924	0	392615	235
767.8671875	1	taste	trialStart	1	48	48	foodImage.15	FOODEEG_Images\0189.jpg	NY	Right	Yes	0.75843199994415	0	393149	251
768.923828125	2	taste	foodImageDisplay	1	48	48	foodImage.15	FOODEEG_Images\0189.jpg	NY	Right	Yes	0.75843199994415	0	393690	252
770.986328125	0.75843199994415	taste	choicePhaseStart	1	48	48	foodImage.15	FOODEEG_Images\0189.jpg	NY	Right	Yes	0.75843199994415	0	394746	253
771.736328125	0	taste	response	1	48	48	foodImage.15	FOODEEG_Images\0189.jpg	NY	Right	Yes	0.75843199994415	0	395130	235
772.77734375	1	decision	trialStart	1	49	49	foodImage.46	FOODEEG_Images\0479.jpg	YN	Left	Yes	0.865821800194681	0	395663	251
773.841796875	2	decision	foodImageDisplay	1	49	49	foodImage.46	FOODEEG_Images\0479.jpg	YN	Left	Yes	0.865821800194681	0	396208	252
775.904296875	0.865821800194681	decision	choicePhaseStart	1	49	49	foodImage.46	FOODEEG_Images\0479.jpg	YN	Left	Yes	0.865821800194681	0	397264	253
776.759765625	0	decision	response	1	49	49	foodImage.46	FOODEEG_Images\0479.jpg	YN	Left	Yes	0.865821800194681	0	397702	234
777.80078125	1	decision	trialStart	1	50	50	foodImage.80	FOODEEG_Images\0796.jpg	YN	Left	Yes	1.57704199990258	0	398235	251
778.880859375	2	decision	foodImageDisplay	1	50	50	foodImage.80	FOODEEG_Images\0796.jpg	YN	Left	Yes	1.57704199990258	0	398788	252
780.943359375	1.57704199990258	decision	choicePhaseStart	1	50	50	foodImage.80	FOODEEG_Images\0796.jpg	YN	Left	Yes	1.57704199990258	0	399844	253
782.51171875	0	decision	response	1	50	50	foodImage.80	FOODEEG_Images\0796.jpg	YN	Left	Yes	1.57704199990258	0	400647	234
783.564453125	1	taste	trialStart	1	51	51	foodImage.102	FOODEEG_Images\0910.jpg	NY	Left	No	1.15503699984401	0	401186	251
784.619140625	2	taste	foodImageDisplay	1	51	51	foodImage.102	FOODEEG_Images\0910.jpg	NY	Left	No	1.15503699984401	0	401726	252
786.685546875	1.15503699984401	taste	choicePhaseStart	1	51	51	foodImage.102	FOODEEG_Images\0910.jpg	NY	Left	No	1.15503699984401	0	402784	253
787.83203125	0	taste	response	1	51	51	foodImage.102	FOODEEG_Images\0910.jpg	NY	Left	No	1.15503699984401	0	403371	234
788.873046875	1	decision	trialStart	1	52	52	foodImage.8	FOODEEG_Images\0136.jpg	NY	Right	Yes	1.89816389977932	0	403904	251
789.919921875	2	decision	foodImageDisplay	1	52	52	foodImage.8	FOODEEG_Images\0136.jpg	NY	Right	Yes	1.89816389977932	0	404440	252
791.982421875	1.89816389977932	decision	choicePhaseStart	1	52	52	foodImage.8	FOODEEG_Images\0136.jpg	NY	Right	Yes	1.89816389977932	0	405496	253
793.87109375	0	decision	response	1	52	52	foodImage.8	FOODEEG_Images\0136.jpg	NY	Right	Yes	1.89816389977932	0	406463	235
794.9140625	1	decision	trialStart	1	53	53	foodImage.32	FOODEEG_Images\0319.jpg	YN	Left	Yes	0.771590099669993	0	406997	251
795.95703125	2	decision	foodImageDisplay	1	53	53	foodImage.32	FOODEEG_Images\0319.jpg	YN	Left	Yes	0.771590099669993	0	407531	252
798.01953125	0.771590099669993	decision	choicePhaseStart	1	53	53	foodImage.32	FOODEEG_Images\0319.jpg	YN	Left	Yes	0.771590099669993	0	408587	253
798.783203125	0	decision	response	1	53	53	foodImage.32	FOODEEG_Images\0319.jpg	YN	Left	Yes	0.771590099669993	0	408978	234
799.826171875	1	taste	trialStart	1	54	54	foodImage.12	FOODEEG_Images\0181.jpg	YN	Right	No	1.47333979979157	0	409512	251
800.873046875	2	taste	foodImageDisplay	1	54	54	foodImage.12	FOODEEG_Images\0181.jpg	YN	Right	No	1.47333979979157	0	410048	252
802.93359375	1.47333979979157	taste	choicePhaseStart	1	54	54	foodImage.12	FOODEEG_Images\0181.jpg	YN	Right	No	1.47333979979157	0	411103	253
804.3984375	0	taste	response	1	54	54	foodImage.12	FOODEEG_Images\0181.jpg	YN	Right	No	1.47333979979157	0	411853	235
805.4375	1	decision	trialStart	1	55	55	foodImage.69	FOODEEG_Images\0693.jpg	YN	Left	Yes	0.838014400098473	0	412385	251
806.48046875	2	decision	foodImageDisplay	1	55	55	foodImage.69	FOODEEG_Images\0693.jpg	YN	Left	Yes	0.838014400098473	0	412919	252
808.544921875	0.838014400098473	decision	choicePhaseStart	1	55	55	foodImage.69	FOODEEG_Images\0693.jpg	YN	Left	Yes	0.838014400098473	0	413976	253
809.375	0	decision	response	1	55	55	foodImage.69	FOODEEG_Images\0693.jpg	YN	Left	Yes	0.838014400098473	0	414401	234
810.41796875	1	taste	trialStart	1	56	56	foodImage.43	FOODEEG_Images\0445.jpg	NY	Right	Yes	1.68905289983377	0	414935	251
811.47265625	2	taste	foodImageDisplay	1	56	56	foodImage.43	FOODEEG_Images\0445.jpg	NY	Right	Yes	1.68905289983377	0	415475	252
813.53515625	1.68905289983377	taste	choicePhaseStart	1	56	56	foodImage.43	FOODEEG_Images\0445.jpg	NY	Right	Yes	1.68905289983377	0	416531	253
815.21484375	0	taste	response	1	56	56	foodImage.43	FOODEEG_Images\0445.jpg	NY	Right	Yes	1.68905289983377	0	417391	235
816.2578125	1	taste	trialStart	1	57	57	foodImage.100	FOODEEG_Images\0908.jpg	YN	Right	No	0.936318600084633	0	417925	251
817.296875	2	taste	foodImageDisplay	1	57	57	foodImage.100	FOODEEG_Images\0908.jpg	YN	Right	No	0.936318600084633	0	418457	252
819.359375	0.936318600084633	taste	choicePhaseStart	1	57	57	foodImage.100	FOODEEG_Images\0908.jpg	YN	Right	No	0.936318600084633	0	419513	253
820.287109375	0	taste	response	1	57	57	foodImage.100	FOODEEG_Images\0908.jpg	YN	Right	No	0.936318600084633	0	419988	235
821.328125	1	health	trialStart	1	58	58	foodImage.103	FOODEEG_Images\0911.jpg	NY	Left	No	1.01843250030652	0	420521	251
822.3671875	2	health	foodImageDisplay	1	58	58	foodImage.103	FOODEEG_Images\0911.jpg	NY	Left	No	1.01843250030652	0	421053	252
824.427734375	1.01843250030652	health	choicePhaseStart	1	58	58	foodImage.103	FOODEEG_Images\0911.jpg	NY	Left	No	1.01843250030652	0	422108	253
825.4375	0	health	response	1	58	58	foodImage.103	FOODEEG_Images\0911.jpg	NY	Left	No	1.01843250030652	0	422625	234
826.4765625	1	health	trialStart	1	59	59	foodImage.31	FOODEEG_Images\0294.jpg	NY	Left	No	1.24833530001342	0	423157	251
827.521484375	2	health	foodImageDisplay	1	59	59	foodImage.31	FOODEEG_Images\0294.jpg	NY	Left	No	1.24833530001342	0	423692	252
829.583984375	1.24833530001342	health	choicePhaseStart	1	59	59	foodImage.31	FOODEEG_Images\0294.jpg	NY	Left	No	1.24833530001342	0	424748	253
830.822265625	0	health	response	1	59	59	foodImage.31	FOODEEG_Images\0294.jpg	NY	Left	No	1.24833530001342	0	425382	234
831.865234375	1	decision	trialStart	1	60	60	foodImage.38	FOODEEG_Images\0365.jpg	NY	Right	Yes	1.52986720018089	0	425916	251
832.90234375	2	decision	foodImageDisplay	1	60	60	foodImage.38	FOODEEG_Images\0365.jpg	NY	Right	Yes	1.52986720018089	0	426447	252
834.96484375	1.52986720018089	decision	choicePhaseStart	1	60	60	foodImage.38	FOODEEG_Images\0365.jpg	NY	Right	Yes	1.52986720018089	0	427503	253
836.486328125	0	decision	response	1	60	60	foodImage.38	FOODEEG_Images\0365.jpg	NY	Right	Yes	1.52986720018089	0	428282	235
838.525390625	48.75	n/a	blockEnd	n/a	n/a	n/a	n/a	n/a	n/a	n/a	n/a	n/a	n/a	429326	254
887.275390625	2	n/a	blockStart	2	n/a	n/a	n/a	n/a	n/a	n/a	n/a	n/a	n/a	454286	250
889.310546875	1	decision	trialStart	2	61	1	foodImage.10	FOODEEG_Images\0145.jpg	YN	Left	Yes	0.87094910023734	0	455328	251
890.37109375	2	decision	foodImageDisplay	2	61	1	foodImage.10	FOODEEG_Images\0145.jpg	YN	Left	Yes	0.87094910023734	0	455871	252
892.435546875	0.87094910023734	decision	choicePhaseStart	2	61	1	foodImage.10	FOODEEG_Images\0145.jpg	YN	Left	Yes	0.87094910023734	0	456928	253
893.298828125	0	decision	response	2	61	1	foodImage.10	FOODEEG_Images\0145.jpg	YN	Left	Yes	0.87094910023734	0	457370	234
894.341796875	1	decision	trialStart	2	62	2	foodImage.111	FOODEEG_Images\0919.jpg	YN	Right	No	0.823406900279224	0	457904	251
895.380859375	2	decision	foodImageDisplay	2	62	2	foodImage.111	FOODEEG_Images\0919.jpg	YN	Right	No	0.823406900279224	0	458436	252
897.4453125	0.823406900279224	decision	choicePhaseStart	2	62	2	foodImage.111	FOODEEG_Images\0919.jpg	YN	Right	No	0.823406900279224	0	459493	253
898.259765625	0	decision	response	2	62	2	foodImage.111	FOODEEG_Images\0919.jpg	YN	Right	No	0.823406900279224	0	459910	235
899.302734375	1	taste	trialStart	2	63	3	foodImage.8	FOODEEG_Images\0136.jpg	YN	Right	No	1.32932850020006	0	460444	251
900.35546875	2	taste	foodImageDisplay	2	63	3	foodImage.8	FOODEEG_Images\0136.jpg	YN	Right	No	1.32932850020006	0	460983	252
902.41796875	1.32932850020006	taste	choicePhaseStart	2	63	3	foodImage.8	FOODEEG_Images\0136.jpg	YN	Right	No	1.32932850020006	0	462039	253
903.73828125	0	taste	response	2	63	3	foodImage.8	FOODEEG_Images\0136.jpg	YN	Right	No	1.32932850020006	0	462715	235
904.783203125	1	taste	trialStart	2	64	4	foodImage.88	FOODEEG_Images\0878.jpg	YN	Left	Yes	1.24223210010678	0	463250	251
905.8359375	2	taste	foodImageDisplay	2	64	4	foodImage.88	FOODEEG_Images\0878.jpg	YN	Left	Yes	1.24223210010678	0	463789	252
907.8984375	1.24223210010678	taste	choicePhaseStart	2	64	4	foodImage.88	FOODEEG_Images\0878.jpg	YN	Left	Yes	1.24223210010678	0	464845	253
909.130859375	0	taste	response	2	64	4	foodImage.88	FOODEEG_Images\0878.jpg	YN	Left	Yes	1.24223210010678	0	465476	234
910.1796875	1	health	trialStart	2	65	5	foodImage.59	FOODEEG_Images\0607.jpg	NY	Left	No	1.12460660003126	0	466013	251
911.224609375	2	health	foodImageDisplay	2	65	5	foodImage.59	FOODEEG_Images\0607.jpg	NY	Left	No	1.12460660003126	0	466548	252
913.287109375	1.12460660003126	health	choicePhaseStart	2	65	5	foodImage.59	FOODEEG_Images\0607.jpg	NY	Left	No	1.12460660003126	0	467604	253
914.40234375	0	health	response	2	65	5	foodImage.59	FOODEEG_Images\0607.jpg	NY	Left	No	1.12460660003126	0	468175	234
915.4453125	1	health	trialStart	2	66	6	foodImage.51	FOODEEG_Images\0536.jpg	NY	Left	No	2.04277089983225	0	468709	251
916.505859375	2	health	foodImageDisplay	2	66	6	foodImage.51	FOODEEG_Images\0536.jpg	NY	Left	No	2.04277089983225	0	469252	252
918.568359375	2.04277089983225	health	choicePhaseStart	2	66	6	foodImage.51	FOODEEG_Images\0536.jpg	NY	Left	No	2.04277089983225	0	470308	253
920.603515625	0	health	response	2	66	6	foodImage.51	FOODEEG_Images\0536.jpg	NY	Left	No	2.04277089983225	0	471350	234
921.646484375	1	health	trialStart	2	67	7	foodImage.15	FOODEEG_Images\0189.jpg	NY	Left	No	0.948162500280887	0	471884	251
922.71484375	2	health	foodImageDisplay	2	67	7	foodImage.15	FOODEEG_Images\0189.jpg	NY	Left	No	0.948162500280887	0	472431	252
924.77734375	0.948162500280887	health	choicePhaseStart	2	67	7	foodImage.15	FOODEEG_Images\0189.jpg	NY	Left	No	0.948162500280887	0	473487	253
925.71484375	0	health	response	2	67	7	foodImage.15	FOODEEG_Images\0189.jpg	NY	Left	No	0.948162500280887	0	473967	234
926.7578125	1	decision	trialStart	2	68	8	foodImage.29	FOODEEG_Images\0278.jpg	NY	Left	No	0.981250300072134	0	474501	251
927.814453125	2	decision	foodImageDisplay	2	68	8	foodImage.29	FOODEEG_Images\0278.jpg	NY	Left	No	0.981250300072134	0	475042	252
929.876953125	0.981250300072134	decision	choicePhaseStart	2	68	8	foodImage.29	FOODEEG_Images\0278.jpg	NY	Left	No	0.981250300072134	0	476098	253
930.849609375	0	decision	response	2	68	8	foodImage.29	FOODEEG_Images\0278.jpg	NY	Left	No	0.981250300072134	0	476596	234
931.892578125	1	health	trialStart	2	69	9	foodImage.28	FOODEEG_Images\0273.jpg	NY	Right	Yes	1.07164829969406	0	477130	251
932.931640625	2	health	foodImageDisplay	2	69	9	foodImage.28	FOODEEG_Images\0273.jpg	NY	Right	Yes	1.07164829969406	0	477662	252
934.994140625	1.07164829969406	health	choicePhaseStart	2	69	9	foodImage.28	FOODEEG_Images\0273.jpg	NY	Right	Yes	1.07164829969406	0	478718	253
936.056640625	0	health	response	2	69	9	foodImage.28	FOODEEG_Images\0273.jpg	NY	Right	Yes	1.07164829969406	0	479262	235
937.099609375	1	decision	trialStart	2	70	10	foodImage.59	FOODEEG_Images\0607.jpg	YN	Left	Yes	1.55733589967713	0	479796	251
938.142578125	2	decision	foodImageDisplay	2	70	10	foodImage.59	FOODEEG_Images\0607.jpg	YN	Left	Yes	1.55733589967713	0	480330	252
940.205078125	1.55733589967713	decision	choicePhaseStart	2	70	10	foodImage.59	FOODEEG_Images\0607.jpg	YN	Left	Yes	1.55733589967713	0	481386	253
941.75390625	0	decision	response	2	70	10	foodImage.59	FOODEEG_Images\0607.jpg	YN	Left	Yes	1.55733589967713	0	482179	234
942.794921875	1	taste	trialStart	2	71	11	foodImage.14	FOODEEG_Images\0188.jpg	YN	Left	Yes	0.830610999837518	0	482712	251
943.853515625	2	taste	foodImageDisplay	2	71	11	foodImage.14	FOODEEG_Images\0188.jpg	YN	Left	Yes	0.830610999837518	0	483254	252
945.916015625	0.830610999837518	taste	choicePhaseStart	2	71	11	foodImage.14	FOODEEG_Images\0188.jpg	YN	Left	Yes	0.830610999837518	0	484310	253
946.736328125	0	taste	response	2	71	11	foodImage.14	FOODEEG_Images\0188.jpg	YN	Left	Yes	0.830610999837518	0	484730	234
947.779296875	1	taste	trialStart	2	72	12	foodImage.40	FOODEEG_Images\0373.jpg	NY	Right	Yes	0.97378890030086	0	485264	251
948.8203125	2	taste	foodImageDisplay	2	72	12	foodImage.40	FOODEEG_Images\0373.jpg	NY	Right	Yes	0.97378890030086	0	485797	252
950.8828125	0.97378890030086	taste	choicePhaseStart	2	72	12	foodImage.40	FOODEEG_Images\0373.jpg	NY	Right	Yes	0.97378890030086	0	486853	253
951.849609375	0	taste	response	2	72	12	foodImage.40	FOODEEG_Images\0373.jpg	NY	Right	Yes	0.97378890030086	0	487348	235
952.892578125	1	decision	trialStart	2	73	13	foodImage.120	FOODEEG_Images\0928.jpg	YN	Right	No	0.931069400161505	0	487882	251
953.943359375	2	decision	foodImageDisplay	2	73	13	foodImage.120	FOODEEG_Images\0928.jpg	YN	Right	No	0.931069400161505	0	488420	252
956.0078125	0.931069400161505	decision	choicePhaseStart	2	73	13	foodImage.120	FOODEEG_Images\0928.jpg	YN	Right	No	0.931069400161505	0	489477	253
956.9296875	0	decision	response	2	73	13	foodImage.120	FOODEEG_Images\0928.jpg	YN	Right	No	0.931069400161505	0	489949	235
957.97265625	1	decision	trialStart	2	74	14	foodImage.73	FOODEEG_Images\0717.jpg	YN	Left	Yes	1.19833060028031	0	490483	251
959.037109375	2	decision	foodImageDisplay	2	74	14	foodImage.73	FOODEEG_Images\0717.jpg	YN	Left	Yes	1.19833060028031	0	491028	252
961.099609375	1.19833060028031	decision	choicePhaseStart	2	74	14	foodImage.73	FOODEEG_Images\0717.jpg	YN	Left	Yes	1.19833060028031	0	492084	253
962.2890625	0	decision	response	2	74	14	foodImage.73	FOODEEG_Images\0717.jpg	YN	Left	Yes	1.19833060028031	0	492693	234
963.330078125	1	decision	trialStart	2	75	15	foodImage.99	FOODEEG_Images\0907.jpg	NY	Left	No	0.945057800039649	0	493226	251
964.369140625	2	decision	foodImageDisplay	2	75	15	foodImage.99	FOODEEG_Images\0907.jpg	NY	Left	No	0.945057800039649	0	493758	252
966.4296875	0.945057800039649	decision	choicePhaseStart	2	75	15	foodImage.99	FOODEEG_Images\0907.jpg	NY	Left	No	0.945057800039649	0	494813	253
967.369140625	0	decision	response	2	75	15	foodImage.99	FOODEEG_Images\0907.jpg	NY	Left	No	0.945057800039649	0	495294	234
968.412109375	1	taste	trialStart	2	76	16	foodImage.70	FOODEEG_Images\0705.jpg	YN	Left	Yes	1.0924976002425	0	495828	251
969.470703125	2	taste	foodImageDisplay	2	76	16	foodImage.70	FOODEEG_Images\0705.jpg	YN	Left	Yes	1.0924976002425	0	496370	252
971.533203125	1.0924976002425	taste	choicePhaseStart	2	76	16	foodImage.70	FOODEEG_Images\0705.jpg	YN	Left	Yes	1.0924976002425	0	497426	253
972.6171875	0	taste	response	2	76	16	foodImage.70	FOODEEG_Images\0705.jpg	YN	Left	Yes	1.0924976002425	0	497981	234
973.66015625	1	health	trialStart	2	77	17	foodImage.78	FOODEEG_Images\0787.jpg	YN	Left	Yes	0.996518200263381	0	498515	251
974.703125	2	health	foodImageDisplay	2	77	17	foodImage.78	FOODEEG_Images\0787.jpg	YN	Left	Yes	0.996518200263381	0	499049	252
976.765625	0.996518200263381	health	choicePhaseStart	2	77	17	foodImage.78	FOODEEG_Images\0787.jpg	YN	Left	Yes	0.996518200263381	0	500105	253
977.751953125	0	health	response	2	77	17	foodImage.78	FOODEEG_Images\0787.jpg	YN	Left	Yes	0.996518200263381	0	500610	234
978.794921875	1	taste	trialStart	2	78	18	foodImage.71	FOODEEG_Images\0713.jpg	NY	Right	Yes	0.80263980012387	0	501144	251
979.84765625	2	taste	foodImageDisplay	2	78	18	foodImage.71	FOODEEG_Images\0713.jpg	NY	Right	Yes	0.80263980012387	0	501683	252
981.91015625	0.80263980012387	taste	choicePhaseStart	2	78	18	foodImage.71	FOODEEG_Images\0713.jpg	NY	Right	Yes	0.80263980012387	0	502739	253
982.703125	0	taste	response	2	78	18	foodImage.71	FOODEEG_Images\0713.jpg	NY	Right	Yes	0.80263980012387	0	503145	235
983.74609375	1	health	trialStart	2	79	19	foodImage.60	FOODEEG_Images\0614.jpg	NY	Right	Yes	1.17198979994282	0	503679	251
984.806640625	2	health	foodImageDisplay	2	79	19	foodImage.60	FOODEEG_Images\0614.jpg	NY	Right	Yes	1.17198979994282	0	504222	252
986.869140625	1.17198979994282	health	choicePhaseStart	2	79	19	foodImage.60	FOODEEG_Images\0614.jpg	NY	Right	Yes	1.17198979994282	0	505278	253
988.03125	0	health	response	2	79	19	foodImage.60	FOODEEG_Images\0614.jpg	NY	Right	Yes	1.17198979994282	0	505873	235
989.076171875	1	decision	trialStart	2	80	20	foodImage.45	FOODEEG_Images\0478.jpg	YN	Left	Yes	0.964021200314164	0	506408	251
990.12109375	2	decision	foodImageDisplay	2	80	20	foodImage.45	FOODEEG_Images\0478.jpg	YN	Left	Yes	0.964021200314164	0	506943	252
992.1875	0.964021200314164	decision	choicePhaseStart	2	80	20	foodImage.45	FOODEEG_Images\0478.jpg	YN	Left	Yes	0.964021200314164	0	508001	253
993.14453125	0	decision	response	2	80	20	foodImage.45	FOODEEG_Images\0478.jpg	YN	Left	Yes	0.964021200314164	0	508491	234
994.185546875	1	health	trialStart	2	81	21	foodImage.98	FOODEEG_Images\0906.jpg	NY	Left	No	1.93643680028617	0	509024	251
995.224609375	2	health	foodImageDisplay	2	81	21	foodImage.98	FOODEEG_Images\0906.jpg	NY	Left	No	1.93643680028617	0	509556	252
997.287109375	1.93643680028617	health	choicePhaseStart	2	81	21	foodImage.98	FOODEEG_Images\0906.jpg	NY	Left	No	1.93643680028617	0	510612	253
999.21484375	0	health	response	2	81	21	foodImage.98	FOODEEG_Images\0906.jpg	NY	Left	No	1.93643680028617	0	511599	234
1000.2578125	1	taste	trialStart	2	82	22	foodImage.93	FOODEEG_Images\0901.jpg	NY	Left	No	0.905152999795973	0	512133	251
1001.296875	2	taste	foodImageDisplay	2	82	22	foodImage.93	FOODEEG_Images\0901.jpg	NY	Left	No	0.905152999795973	0	512665	252
1003.359375	0.905152999795973	taste	choicePhaseStart	2	82	22	foodImage.93	FOODEEG_Images\0901.jpg	NY	Left	No	0.905152999795973	0	513721	253
1004.255859375	0	taste	response	2	82	22	foodImage.93	FOODEEG_Images\0901.jpg	NY	Left	No	0.905152999795973	0	514180	234
1005.298828125	1	taste	trialStart	2	83	23	foodImage.10	FOODEEG_Images\0145.jpg	NY	Right	Yes	0.884632400237024	0	514714	251
1006.375	2	taste	foodImageDisplay	2	83	23	foodImage.10	FOODEEG_Images\0145.jpg	NY	Right	Yes	0.884632400237024	0	515265	252
1008.4375	0.884632400237024	taste	choicePhaseStart	2	83	23	foodImage.10	FOODEEG_Images\0145.jpg	NY	Right	Yes	0.884632400237024	0	516321	253
1009.310546875	0	taste	response	2	83	23	foodImage.10	FOODEEG_Images\0145.jpg	NY	Right	Yes	0.884632400237024	0	516768	235
1010.353515625	1	health	trialStart	2	84	24	foodImage.29	FOODEEG_Images\0278.jpg	YN	Left	Yes	1.02046269970015	0	517302	251
1011.41015625	2	health	foodImageDisplay	2	84	24	foodImage.29	FOODEEG_Images\0278.jpg	YN	Left	Yes	1.02046269970015	0	517843	252
1013.474609375	1.02046269970015	health	choicePhaseStart	2	84	24	foodImage.29	FOODEEG_Images\0278.jpg	YN	Left	Yes	1.02046269970015	0	518900	253
1014.486328125	0	health	response	2	84	24	foodImage.29	FOODEEG_Images\0278.jpg	YN	Left	Yes	1.02046269970015	0	519418	234
1015.52734375	1	health	trialStart	2	85	25	foodImage.56	FOODEEG_Images\0586.jpg	YN	Right	No	1.67694969987497	0	519951	251
1016.568359375	2	health	foodImageDisplay	2	85	25	foodImage.56	FOODEEG_Images\0586.jpg	YN	Right	No	1.67694969987497	0	520484	252
1018.634765625	1.67694969987497	health	choicePhaseStart	2	85	25	foodImage.56	FOODEEG_Images\0586.jpg	YN	Right	No	1.67694969987497	0	521542	253
1020.302734375	0	health	response	2	85	25	foodImage.56	FOODEEG_Images\0586.jpg	YN	Right	No	1.67694969987497	0	522396	235
1021.345703125	1	health	trialStart	2	86	26	foodImage.8	FOODEEG_Images\0136.jpg	NY	Left	No	1.07592549966648	0	522930	251
1022.38671875	2	health	foodImageDisplay	2	86	26	foodImage.8	FOODEEG_Images\0136.jpg	NY	Left	No	1.07592549966648	0	523463	252
1024.44921875	1.07592549966648	health	choicePhaseStart	2	86	26	foodImage.8	FOODEEG_Images\0136.jpg	NY	Left	No	1.07592549966648	0	524519	253
1025.517578125	0	health	response	2	86	26	foodImage.8	FOODEEG_Images\0136.jpg	NY	Left	No	1.07592549966648	0	525066	234
1026.560546875	1	health	trialStart	2	87	27	foodImage.119	FOODEEG_Images\0927.jpg	YN	Right	No	0.938171899877489	0	525600	251
1027.59765625	2	health	foodImageDisplay	2	87	27	foodImage.119	FOODEEG_Images\0927.jpg	YN	Right	No	0.938171899877489	0	526131	252
1029.66015625	0.938171899877489	health	choicePhaseStart	2	87	27	foodImage.119	FOODEEG_Images\0927.jpg	YN	Right	No	0.938171899877489	0	527187	253
1030.58984375	0	health	response	2	87	27	foodImage.119	FOODEEG_Images\0927.jpg	YN	Right	No	0.938171899877489	0	527663	235
1031.62890625	1	decision	trialStart	2	88	28	foodImage.84	FOODEEG_Images\0830.jpg	YN	Left	Yes	1.15534209972247	0	528195	251
1032.685546875	2	decision	foodImageDisplay	2	88	28	foodImage.84	FOODEEG_Images\0830.jpg	YN	Left	Yes	1.15534209972247	0	528736	252
1034.748046875	1.15534209972247	decision	choicePhaseStart	2	88	28	foodImage.84	FOODEEG_Images\0830.jpg	YN	Left	Yes	1.15534209972247	0	529792	253
1035.89453125	0	decision	response	2	88	28	foodImage.84	FOODEEG_Images\0830.jpg	YN	Left	Yes	1.15534209972247	0	530379	234
1036.935546875	1	decision	trialStart	2	89	29	foodImage.50	FOODEEG_Images\0529.jpg	YN	Right	No	1.47161799995229	0	530912	251
1038.017578125	2	decision	foodImageDisplay	2	89	29	foodImage.50	FOODEEG_Images\0529.jpg	YN	Right	No	1.47161799995229	0	531466	252
1040.080078125	1.47161799995229	decision	choicePhaseStart	2	89	29	foodImage.50	FOODEEG_Images\0529.jpg	YN	Right	No	1.47161799995229	0	532522	253
1041.541015625	0	decision	response	2	89	29	foodImage.50	FOODEEG_Images\0529.jpg	YN	Right	No	1.47161799995229	0	533270	235
1042.583984375	1	health	trialStart	2	90	30	foodImage.111	FOODEEG_Images\0919.jpg	YN	Right	No	1.30722839990631	0	533804	251
1043.62109375	2	health	foodImageDisplay	2	90	30	foodImage.111	FOODEEG_Images\0919.jpg	YN	Right	No	1.30722839990631	0	534335	252
1045.681640625	1.30722839990631	health	choicePhaseStart	2	90	30	foodImage.111	FOODEEG_Images\0919.jpg	YN	Right	No	1.30722839990631	0	535390	253
1046.982421875	0	health	response	2	90	30	foodImage.111	FOODEEG_Images\0919.jpg	YN	Right	No	1.30722839990631	0	536056	235
1048.0234375	1	taste	trialStart	2	91	31	foodImage.27	FOODEEG_Images\0263.jpg	NY	Right	Yes	1.72596659976989	0	536589	251
1049.06640625	2	taste	foodImageDisplay	2	91	31	foodImage.27	FOODEEG_Images\0263.jpg	NY	Right	Yes	1.72596659976989	0	537123	252
1051.12890625	1.72596659976989	taste	choicePhaseStart	2	91	31	foodImage.27	FOODEEG_Images\0263.jpg	NY	Right	Yes	1.72596659976989	0	538179	253
1052.845703125	0	taste	response	2	91	31	foodImage.27	FOODEEG_Images\0263.jpg	NY	Right	Yes	1.72596659976989	0	539058	235
1053.888671875	1	decision	trialStart	2	92	32	foodImage.1	FOODEEG_Images\0004.jpg	NY	Right	Yes	0.939987800084054	0	539592	251
1054.931640625	2	decision	foodImageDisplay	2	92	32	foodImage.1	FOODEEG_Images\0004.jpg	NY	Right	Yes	0.939987800084054	0	540126	252
1056.994140625	0.939987800084054	decision	choicePhaseStart	2	92	32	foodImage.1	FOODEEG_Images\0004.jpg	NY	Right	Yes	0.939987800084054	0	541182	253
1057.92578125	0	decision	response	2	92	32	foodImage.1	FOODEEG_Images\0004.jpg	NY	Right	Yes	0.939987800084054	0	541659	235
1058.966796875	1	taste	trialStart	2	93	33	foodImage.113	FOODEEG_Images\0921.jpg	NY	Left	No	1.67259529978037	0	542192	251
1060.0078125	2	taste	foodImageDisplay	2	93	33	foodImage.113	FOODEEG_Images\0921.jpg	NY	Left	No	1.67259529978037	0	542725	252
1062.068359375	1.67259529978037	taste	choicePhaseStart	2	93	33	foodImage.113	FOODEEG_Images\0921.jpg	NY	Left	No	1.67259529978037	0	543780	253
1063.732421875	0	taste	response	2	93	33	foodImage.113	FOODEEG_Images\0921.jpg	NY	Left	No	1.67259529978037	0	544632	234
1064.771484375	1	health	trialStart	2	94	34	foodImage.24	FOODEEG_Images\0250.jpg	YN	Left	Yes	0.831032999791205	0	545164	251
1065.814453125	2	health	foodImageDisplay	2	94	34	foodImage.24	FOODEEG_Images\0250.jpg	YN	Left	Yes	0.831032999791205	0	545698	252
1067.87890625	0.831032999791205	health	choicePhaseStart	2	94	34	foodImage.24	FOODEEG_Images\0250.jpg	YN	Left	Yes	0.831032999791205	0	546755	253
1068.701171875	0	health	response	2	94	34	foodImage.24	FOODEEG_Images\0250.jpg	YN	Left	Yes	0.831032999791205	0	547176	234
1069.7421875	1	taste	trialStart	2	95	35	foodImage.77	FOODEEG_Images\0771.jpg	YN	Left	Yes	0.836709400173277	0	547709	251
1070.783203125	2	taste	foodImageDisplay	2	95	35	foodImage.77	FOODEEG_Images\0771.jpg	YN	Left	Yes	0.836709400173277	0	548242	252
1072.84765625	0.836709400173277	taste	choicePhaseStart	2	95	35	foodImage.77	FOODEEG_Images\0771.jpg	YN	Left	Yes	0.836709400173277	0	549299	253
1073.67578125	0	taste	response	2	95	35	foodImage.77	FOODEEG_Images\0771.jpg	YN	Left	Yes	0.836709400173277	0	549723	234
1074.71875	1	health	trialStart	2	96	36	foodImage.25	FOODEEG_Images\0261.jpg	YN	Left	Yes	0.694040599744767	0	550257	251
1075.7578125	2	health	foodImageDisplay	2	96	36	foodImage.25	FOODEEG_Images\0261.jpg	YN	Left	Yes	0.694040599744767	0	550789	252
1077.8203125	0.694040599744767	health	choicePhaseStart	2	96	36	foodImage.25	FOODEEG_Images\0261.jpg	YN	Left	Yes	0.694040599744767	0	551845	253
1078.5078125	0	health	response	2	96	36	foodImage.25	FOODEEG_Images\0261.jpg	YN	Left	Yes	0.694040599744767	0	552197	234
1079.55078125	1	taste	trialStart	2	97	37	foodImage.9	FOODEEG_Images\0138.jpg	YN	Right	No	1.25531610008329	0	552731	251
1080.6328125	2	taste	foodImageDisplay	2	97	37	foodImage.9	FOODEEG_Images\0138.jpg	YN	Right	No	1.25531610008329	0	553285	252
1082.693359375	1.25531610008329	taste	choicePhaseStart	2	97	37	foodImage.9	FOODEEG_Images\0138.jpg	YN	Right	No	1.25531610008329	0	554340	253
1083.939453125	0	taste	response	2	97	37	foodImage.9	FOODEEG_Images\0138.jpg	YN	Right	No	1.25531610008329	0	554978	235
1084.98046875	1	taste	trialStart	2	98	38	foodImage.66	FOODEEG_Images\0676.jpg	YN	Left	Yes	0.615245699882507	0	555511	251
1086.029296875	2	taste	foodImageDisplay	2	98	38	foodImage.66	FOODEEG_Images\0676.jpg	YN	Left	Yes	0.615245699882507	0	556048	252
1088.091796875	0.615245699882507	taste	choicePhaseStart	2	98	38	foodImage.66	FOODEEG_Images\0676.jpg	YN	Left	Yes	0.615245699882507	0	557104	253
1088.69921875	0	taste	response	2	98	38	foodImage.66	FOODEEG_Images\0676.jpg	YN	Left	Yes	0.615245699882507	0	557415	234
1089.7421875	1	health	trialStart	2	99	39	foodImage.89	FOODEEG_Images\0881.jpg	NY	Right	Yes	1.38701459998265	0	557949	251
1090.8125	2	health	foodImageDisplay	2	99	39	foodImage.89	FOODEEG_Images\0881.jpg	NY	Right	Yes	1.38701459998265	0	558497	252
1092.875	1.38701459998265	health	choicePhaseStart	2	99	39	foodImage.89	FOODEEG_Images\0881.jpg	NY	Right	Yes	1.38701459998265	0	559553	253
1094.251953125	0	health	response	2	99	39	foodImage.89	FOODEEG_Images\0881.jpg	NY	Right	Yes	1.38701459998265	0	560258	235
1095.294921875	1	health	trialStart	2	100	40	foodImage.12	FOODEEG_Images\0181.jpg	NY	Right	Yes	1.76510289963335	0	560792	251
1096.337890625	2	health	foodImageDisplay	2	100	40	foodImage.12	FOODEEG_Images\0181.jpg	NY	Right	Yes	1.76510289963335	0	561326	252
1098.400390625	1.76510289963335	health	choicePhaseStart	2	100	40	foodImage.12	FOODEEG_Images\0181.jpg	NY	Right	Yes	1.76510289963335	0	562382	253
1100.15625	0	health	response	2	100	40	foodImage.12	FOODEEG_Images\0181.jpg	NY	Right	Yes	1.76510289963335	0	563281	235
1101.197265625	1	decision	trialStart	2	101	41	foodImage.118	FOODEEG_Images\0926.jpg	NY	Left	No	0.928747000172734	0	563814	251
1102.236328125	2	decision	foodImageDisplay	2	101	41	foodImage.118	FOODEEG_Images\0926.jpg	NY	Left	No	0.928747000172734	0	564346	252
1104.298828125	0.928747000172734	decision	choicePhaseStart	2	101	41	foodImage.118	FOODEEG_Images\0926.jpg	NY	Left	No	0.928747000172734	0	565402	253
1105.21875	0	decision	response	2	101	41	foodImage.118	FOODEEG_Images\0926.jpg	NY	Left	No	0.928747000172734	0	565873	234
1106.26171875	1	decision	trialStart	2	102	42	foodImage.102	FOODEEG_Images\0910.jpg	NY	Left	No	0.815664499998093	0	566407	251
1107.310546875	2	decision	foodImageDisplay	2	102	42	foodImage.102	FOODEEG_Images\0910.jpg	NY	Left	No	0.815664499998093	0	566944	252
1109.373046875	0.815664499998093	decision	choicePhaseStart	2	102	42	foodImage.102	FOODEEG_Images\0910.jpg	NY	Left	No	0.815664499998093	0	568000	253
1110.1796875	0	decision	response	2	102	42	foodImage.102	FOODEEG_Images\0910.jpg	NY	Left	No	0.815664499998093	0	568413	234
1111.220703125	1	health	trialStart	2	103	43	foodImage.84	FOODEEG_Images\0830.jpg	YN	Left	Yes	1.17438019998372	0	568946	251
1112.294921875	2	health	foodImageDisplay	2	103	43	foodImage.84	FOODEEG_Images\0830.jpg	YN	Left	Yes	1.17438019998372	0	569496	252
1114.357421875	1.17438019998372	health	choicePhaseStart	2	103	43	foodImage.84	FOODEEG_Images\0830.jpg	YN	Left	Yes	1.17438019998372	0	570552	253
1115.5234375	0	health	response	2	103	43	foodImage.84	FOODEEG_Images\0830.jpg	YN	Left	Yes	1.17438019998372	0	571149	234
1116.5703125	1	health	trialStart	2	104	44	foodImage.86	FOODEEG_Images\0844.jpg	YN	Right	No	0.956635700073093	0	571685	251
1117.650390625	2	health	foodImageDisplay	2	104	44	foodImage.86	FOODEEG_Images\0844.jpg	YN	Right	No	0.956635700073093	0	572238	252
1119.712890625	0.956635700073093	health	choicePhaseStart	2	104	44	foodImage.86	FOODEEG_Images\0844.jpg	YN	Right	No	0.956635700073093	0	573294	253
1120.658203125	0	health	response	2	104	44	foodImage.86	FOODEEG_Images\0844.jpg	YN	Right	No	0.956635700073093	0	573778	235
1121.701171875	1	decision	trialStart	2	105	45	foodImage.62	FOODEEG_Images\0644.jpg	YN	Right	No	1.53514669975266	0	574312	251
1122.755859375	2	decision	foodImageDisplay	2	105	45	foodImage.62	FOODEEG_Images\0644.jpg	YN	Right	No	1.53514669975266	0	574852	252
1124.8203125	1.53514669975266	decision	choicePhaseStart	2	105	45	foodImage.62	FOODEEG_Images\0644.jpg	YN	Right	No	1.53514669975266	0	575909	253
1126.345703125	0	decision	response	2	105	45	foodImage.62	FOODEEG_Images\0644.jpg	YN	Right	No	1.53514669975266	0	576690	235
1127.390625	1	health	trialStart	2	106	46	foodImage.41	FOODEEG_Images\0409.jpg	NY	Right	Yes	1.45248330011964	0	577225	251
1128.4375	2	health	foodImageDisplay	2	106	46	foodImage.41	FOODEEG_Images\0409.jpg	NY	Right	Yes	1.45248330011964	0	577761	252
1130.501953125	1.45248330011964	health	choicePhaseStart	2	106	46	foodImage.41	FOODEEG_Images\0409.jpg	NY	Right	Yes	1.45248330011964	0	578818	253
1131.9453125	0	health	response	2	106	46	foodImage.41	FOODEEG_Images\0409.jpg	NY	Right	Yes	1.45248330011964	0	579557	235
1132.986328125	1	taste	trialStart	2	107	47	foodImage.49	FOODEEG_Images\0515.jpg	YN	Left	Yes	1.12531999964267	0	580090	251
1134.029296875	2	taste	foodImageDisplay	2	107	47	foodImage.49	FOODEEG_Images\0515.jpg	YN	Left	Yes	1.12531999964267	0	580624	252
1136.09375	1.12531999964267	taste	choicePhaseStart	2	107	47	foodImage.49	FOODEEG_Images\0515.jpg	YN	Left	Yes	1.12531999964267	0	581681	253
1137.208984375	0	taste	response	2	107	47	foodImage.49	FOODEEG_Images\0515.jpg	YN	Left	Yes	1.12531999964267	0	582252	234
1138.25	1	decision	trialStart	2	108	48	foodImage.14	FOODEEG_Images\0188.jpg	YN	Left	Yes	0.829072100110352	0	582785	251
1139.3046875	2	decision	foodImageDisplay	2	108	48	foodImage.14	FOODEEG_Images\0188.jpg	YN	Left	Yes	0.829072100110352	0	583325	252
1141.3671875	0.829072100110352	decision	choicePhaseStart	2	108	48	foodImage.14	FOODEEG_Images\0188.jpg	YN	Left	Yes	0.829072100110352	0	584381	253
1142.185546875	0	decision	response	2	108	48	foodImage.14	FOODEEG_Images\0188.jpg	YN	Left	Yes	0.829072100110352	0	584800	234
1143.23046875	1	health	trialStart	2	109	49	foodImage.63	FOODEEG_Images\0645.jpg	YN	Right	No	1.46737039973959	0	585335	251
1144.26953125	2	health	foodImageDisplay	2	109	49	foodImage.63	FOODEEG_Images\0645.jpg	YN	Right	No	1.46737039973959	0	585867	252
1146.333984375	1.46737039973959	health	choicePhaseStart	2	109	49	foodImage.63	FOODEEG_Images\0645.jpg	YN	Right	No	1.46737039973959	0	586924	253
1147.79296875	0	health	response	2	109	49	foodImage.63	FOODEEG_Images\0645.jpg	YN	Right	No	1.46737039973959	0	587671	235
1148.8359375	1	taste	trialStart	2	110	50	foodImage.59	FOODEEG_Images\0607.jpg	YN	Left	Yes	0.810391299892217	0	588205	251
1149.904296875	2	taste	foodImageDisplay	2	110	50	foodImage.59	FOODEEG_Images\0607.jpg	YN	Left	Yes	0.810391299892217	0	588752	252
1151.966796875	0.810391299892217	taste	choicePhaseStart	2	110	50	foodImage.59	FOODEEG_Images\0607.jpg	YN	Left	Yes	0.810391299892217	0	589808	253
1152.76953125	0	taste	response	2	110	50	foodImage.59	FOODEEG_Images\0607.jpg	YN	Left	Yes	0.810391299892217	0	590219	234
1153.8125	1	health	trialStart	2	111	51	foodImage.54	FOODEEG_Images\0560.jpg	NY	Left	No	1.44705060031265	0	590753	251
1154.8671875	2	health	foodImageDisplay	2	111	51	foodImage.54	FOODEEG_Images\0560.jpg	NY	Left	No	1.44705060031265	0	591293	252
1156.931640625	1.44705060031265	health	choicePhaseStart	2	111	51	foodImage.54	FOODEEG_Images\0560.jpg	NY	Left	No	1.44705060031265	0	592350	253
1158.369140625	0	health	response	2	111	51	foodImage.54	FOODEEG_Images\0560.jpg	NY	Left	No	1.44705060031265	0	593086	234
1159.408203125	1	health	trialStart	2	112	52	foodImage.33	FOODEEG_Images\0329.jpg	NY	Right	Yes	2.04220269992948	0	593618	251
1160.44921875	2	health	foodImageDisplay	2	112	52	foodImage.33	FOODEEG_Images\0329.jpg	NY	Right	Yes	2.04220269992948	0	594151	252
1162.51171875	2.04220269992948	health	choicePhaseStart	2	112	52	foodImage.33	FOODEEG_Images\0329.jpg	NY	Right	Yes	2.04220269992948	0	595207	253
1164.544921875	0	health	response	2	112	52	foodImage.33	FOODEEG_Images\0329.jpg	NY	Right	Yes	2.04220269992948	0	596248	235
1165.587890625	1	health	trialStart	2	113	53	foodImage.64	FOODEEG_Images\0647.jpg	YN	Left	Yes	1.05485019972548	0	596782	251
1166.642578125	2	health	foodImageDisplay	2	113	53	foodImage.64	FOODEEG_Images\0647.jpg	YN	Left	Yes	1.05485019972548	0	597322	252
1168.705078125	1.05485019972548	health	choicePhaseStart	2	113	53	foodImage.64	FOODEEG_Images\0647.jpg	YN	Left	Yes	1.05485019972548	0	598378	253
1169.751953125	0	health	response	2	113	53	foodImage.64	FOODEEG_Images\0647.jpg	YN	Left	Yes	1.05485019972548	0	598914	234
1170.794921875	1	decision	trialStart	2	114	54	foodImage.11	FOODEEG_Images\0180.jpg	NY	Left	No	1.45366579992697	0	599448	251
1171.837890625	2	decision	foodImageDisplay	2	114	54	foodImage.11	FOODEEG_Images\0180.jpg	NY	Left	No	1.45366579992697	0	599982	252
1173.900390625	1.45366579992697	decision	choicePhaseStart	2	114	54	foodImage.11	FOODEEG_Images\0180.jpg	NY	Left	No	1.45366579992697	0	601038	253
1175.34375	0	decision	response	2	114	54	foodImage.11	FOODEEG_Images\0180.jpg	NY	Left	No	1.45366579992697	0	601777	234
1176.388671875	1	decision	trialStart	2	115	55	foodImage.70	FOODEEG_Images\0705.jpg	YN	Left	Yes	0.855076299980283	0	602312	251
1177.44140625	2	decision	foodImageDisplay	2	115	55	foodImage.70	FOODEEG_Images\0705.jpg	YN	Left	Yes	0.855076299980283	0	602851	252
1179.505859375	0.855076299980283	decision	choicePhaseStart	2	115	55	foodImage.70	FOODEEG_Images\0705.jpg	YN	Left	Yes	0.855076299980283	0	603908	253
1180.3515625	0	decision	response	2	115	55	foodImage.70	FOODEEG_Images\0705.jpg	YN	Left	Yes	0.855076299980283	0	604341	234
1181.39453125	1	decision	trialStart	2	116	56	foodImage.26	FOODEEG_Images\0262.jpg	NY	Left	No	1.13525569997728	0	604875	251
1182.435546875	2	decision	foodImageDisplay	2	116	56	foodImage.26	FOODEEG_Images\0262.jpg	NY	Left	No	1.13525569997728	0	605408	252
1184.498046875	1.13525569997728	decision	choicePhaseStart	2	116	56	foodImage.26	FOODEEG_Images\0262.jpg	NY	Left	No	1.13525569997728	0	606464	253
1185.623046875	0	decision	response	2	116	56	foodImage.26	FOODEEG_Images\0262.jpg	NY	Left	No	1.13525569997728	0	607040	234
1186.669921875	1	taste	trialStart	2	117	57	foodImage.89	FOODEEG_Images\0881.jpg	NY	Right	Yes	0.878969700075686	0	607576	251
1187.748046875	2	taste	foodImageDisplay	2	117	57	foodImage.89	FOODEEG_Images\0881.jpg	NY	Right	Yes	0.878969700075686	0	608128	252
1189.810546875	0.878969700075686	taste	choicePhaseStart	2	117	57	foodImage.89	FOODEEG_Images\0881.jpg	NY	Right	Yes	0.878969700075686	0	609184	253
1190.6796875	0	taste	response	2	117	57	foodImage.89	FOODEEG_Images\0881.jpg	NY	Right	Yes	0.878969700075686	0	609629	235
1191.72265625	1	decision	trialStart	2	118	58	foodImage.12	FOODEEG_Images\0181.jpg	NY	Right	Yes	1.7080901004374	0	610163	251
1192.783203125	2	decision	foodImageDisplay	2	118	58	foodImage.12	FOODEEG_Images\0181.jpg	NY	Right	Yes	1.7080901004374	0	610706	252
1194.845703125	1.7080901004374	decision	choicePhaseStart	2	118	58	foodImage.12	FOODEEG_Images\0181.jpg	NY	Right	Yes	1.7080901004374	0	611762	253
1196.54296875	0	decision	response	2	118	58	foodImage.12	FOODEEG_Images\0181.jpg	NY	Right	Yes	1.7080901004374	0	612631	235
1197.583984375	1	decision	trialStart	2	119	59	foodImage.27	FOODEEG_Images\0263.jpg	NY	Right	Yes	1.04877849994227	0	613164	251
1198.642578125	2	decision	foodImageDisplay	2	119	59	foodImage.27	FOODEEG_Images\0263.jpg	NY	Right	Yes	1.04877849994227	0	613706	252
1200.705078125	1.04877849994227	decision	choicePhaseStart	2	119	59	foodImage.27	FOODEEG_Images\0263.jpg	NY	Right	Yes	1.04877849994227	0	614762	253
1201.744140625	0	decision	response	2	119	59	foodImage.27	FOODEEG_Images\0263.jpg	NY	Right	Yes	1.04877849994227	0	615294	235
1202.787109375	1	taste	trialStart	2	120	60	foodImage.68	FOODEEG_Images\0685.jpg	YN	Left	Yes	0.699958799872547	0	615828	251
1203.884765625	2	taste	foodImageDisplay	2	120	60	foodImage.68	FOODEEG_Images\0685.jpg	YN	Left	Yes	0.699958799872547	0	616390	252
1205.94921875	0.699958799872547	taste	choicePhaseStart	2	120	60	foodImage.68	FOODEEG_Images\0685.jpg	YN	Left	Yes	0.699958799872547	0	617447	253
1206.638671875	0	taste	response	2	120	60	foodImage.68	FOODEEG_Images\0685.jpg	YN	Left	Yes	0.699958799872547	0	617800	234
1208.6796875	32.08203125	n/a	blockEnd	n/a	n/a	n/a	n/a	n/a	n/a	n/a	n/a	n/a	n/a	618845	254
1240.76171875	2	n/a	blockStart	3	n/a	n/a	n/a	n/a	n/a	n/a	n/a	n/a	n/a	635271	250
1242.79296875	1	taste	trialStart	3	121	1	foodImage.76	FOODEEG_Images\0766.jpg	YN	Right	No	0.882954000029713	0	636311	251
1243.8359375	2	taste	foodImageDisplay	3	121	1	foodImage.76	FOODEEG_Images\0766.jpg	YN	Right	No	0.882954000029713	0	636845	252
1245.8984375	0.882954000029713	taste	choicePhaseStart	3	121	1	foodImage.76	FOODEEG_Images\0766.jpg	YN	Right	No	0.882954000029713	0	637901	253
1246.7734375	0	taste	response	3	121	1	foodImage.76	FOODEEG_Images\0766.jpg	YN	Right	No	0.882954000029713	0	638349	235
1247.8125	1	taste	trialStart	3	122	2	foodImage.115	FOODEEG_Images\0923.jpg	YN	Right	No	0.60956360027194	0	638881	251
1248.849609375	2	taste	foodImageDisplay	3	122	2	foodImage.115	FOODEEG_Images\0923.jpg	YN	Right	No	0.60956360027194	0	639412	252
1250.916015625	0.60956360027194	taste	choicePhaseStart	3	122	2	foodImage.115	FOODEEG_Images\0923.jpg	YN	Right	No	0.60956360027194	0	640470	253
1251.517578125	0	taste	response	3	122	2	foodImage.115	FOODEEG_Images\0923.jpg	YN	Right	No	0.60956360027194	0	640778	235
1252.560546875	1	taste	trialStart	3	123	3	foodImage.94	FOODEEG_Images\0902.jpg	NY	Right	Yes	0.816915099974722	0	641312	251
1253.59765625	2	taste	foodImageDisplay	3	123	3	foodImage.94	FOODEEG_Images\0902.jpg	NY	Right	Yes	0.816915099974722	0	641843	252
1255.66015625	0.816915099974722	taste	choicePhaseStart	3	123	3	foodImage.94	FOODEEG_Images\0902.jpg	NY	Right	Yes	0.816915099974722	0	642899	253
1256.46875	0	taste	response	3	123	3	foodImage.94	FOODEEG_Images\0902.jpg	NY	Right	Yes	0.816915099974722	0	643313	235
1257.51171875	1	decision	trialStart	3	124	4	foodImage.108	FOODEEG_Images\0916.jpg	NY	Left	No	0.897052700165659	0	643847	251
1258.548828125	2	decision	foodImageDisplay	3	124	4	foodImage.108	FOODEEG_Images\0916.jpg	NY	Left	No	0.897052700165659	0	644378	252
1260.611328125	0.897052700165659	decision	choicePhaseStart	3	124	4	foodImage.108	FOODEEG_Images\0916.jpg	NY	Left	No	0.897052700165659	0	645434	253
1261.501953125	0	decision	response	3	124	4	foodImage.108	FOODEEG_Images\0916.jpg	NY	Left	No	0.897052700165659	0	645890	234
1262.548828125	1	decision	trialStart	3	125	5	foodImage.40	FOODEEG_Images\0373.jpg	NY	Right	Yes	0.722237599547952	0	646426	251
1263.58984375	2	decision	foodImageDisplay	3	125	5	foodImage.40	FOODEEG_Images\0373.jpg	NY	Right	Yes	0.722237599547952	0	646959	252
1265.65234375	0.722237599547952	decision	choicePhaseStart	3	125	5	foodImage.40	FOODEEG_Images\0373.jpg	NY	Right	Yes	0.722237599547952	0	648015	253
1266.365234375	0	decision	response	3	125	5	foodImage.40	FOODEEG_Images\0373.jpg	NY	Right	Yes	0.722237599547952	0	648380	235
1267.40625	1	health	trialStart	3	126	6	foodImage.72	FOODEEG_Images\0714.jpg	YN	Right	No	1.31427229987457	0	648913	251
1268.453125	2	health	foodImageDisplay	3	126	6	foodImage.72	FOODEEG_Images\0714.jpg	YN	Right	No	1.31427229987457	0	649449	252
1270.515625	1.31427229987457	health	choicePhaseStart	3	126	6	foodImage.72	FOODEEG_Images\0714.jpg	YN	Right	No	1.31427229987457	0	650505	253
1271.8203125	0	health	response	3	126	6	foodImage.72	FOODEEG_Images\0714.jpg	YN	Right	No	1.31427229987457	0	651173	235
1272.86328125	1	taste	trialStart	3	127	7	foodImage.92	FOODEEG_Images\0900.jpg	NY	Left	No	0.875319099985063	0	651707	251
1273.908203125	2	taste	foodImageDisplay	3	127	7	foodImage.92	FOODEEG_Images\0900.jpg	NY	Left	No	0.875319099985063	0	652242	252
1275.970703125	0.875319099985063	taste	choicePhaseStart	3	127	7	foodImage.92	FOODEEG_Images\0900.jpg	NY	Left	No	0.875319099985063	0	653298	253
1276.8359375	0	taste	response	3	127	7	foodImage.92	FOODEEG_Images\0900.jpg	NY	Left	No	0.875319099985063	0	653741	234
1277.87890625	1	health	trialStart	3	128	8	foodImage.87	FOODEEG_Images\0873.jpg	YN	Left	Yes	0.795846400316805	0	654275	251
1278.95703125	2	health	foodImageDisplay	3	128	8	foodImage.87	FOODEEG_Images\0873.jpg	YN	Left	Yes	0.795846400316805	0	654827	252
1281.01953125	0.795846400316805	health	choicePhaseStart	3	128	8	foodImage.87	FOODEEG_Images\0873.jpg	YN	Left	Yes	0.795846400316805	0	655883	253
1281.8046875	0	health	response	3	128	8	foodImage.87	FOODEEG_Images\0873.jpg	YN	Left	Yes	0.795846400316805	0	656285	234
1282.853515625	1	decision	trialStart	3	129	9	foodImage.56	FOODEEG_Images\0586.jpg	YN	Left	Yes	1.4771416997537	0	656822	251
1283.896484375	2	decision	foodImageDisplay	3	129	9	foodImage.56	FOODEEG_Images\0586.jpg	YN	Left	Yes	1.4771416997537	0	657356	252
1285.958984375	1.4771416997537	decision	choicePhaseStart	3	129	9	foodImage.56	FOODEEG_Images\0586.jpg	YN	Left	Yes	1.4771416997537	0	658412	253
1287.427734375	0	decision	response	3	129	9	foodImage.56	FOODEEG_Images\0586.jpg	YN	Left	Yes	1.4771416997537	0	659164	234
1288.470703125	1	taste	trialStart	3	130	10	foodImage.67	FOODEEG_Images\0679.jpg	NY	Right	Yes	1.11123399995267	0	659698	251
1289.552734375	2	taste	foodImageDisplay	3	130	10	foodImage.67	FOODEEG_Images\0679.jpg	NY	Right	Yes	1.11123399995267	0	660252	252
1291.615234375	1.11123399995267	taste	choicePhaseStart	3	130	10	foodImage.67	FOODEEG_Images\0679.jpg	NY	Right	Yes	1.11123399995267	0	661308	253
1292.716796875	0	taste	response	3	130	10	foodImage.67	FOODEEG_Images\0679.jpg	NY	Right	Yes	1.11123399995267	0	661872	235
1293.7578125	1	taste	trialStart	3	131	11	foodImage.35	FOODEEG_Images\0350.jpg	NY	Right	Yes	0.712840700056404	0	662405	251
1294.798828125	2	taste	foodImageDisplay	3	131	11	foodImage.35	FOODEEG_Images\0350.jpg	NY	Right	Yes	0.712840700056404	0	662938	252
1296.861328125	0.712840700056404	taste	choicePhaseStart	3	131	11	foodImage.35	FOODEEG_Images\0350.jpg	NY	Right	Yes	0.712840700056404	0	663994	253
1297.564453125	0	taste	response	3	131	11	foodImage.35	FOODEEG_Images\0350.jpg	NY	Right	Yes	0.712840700056404	0	664354	235
1298.607421875	1	health	trialStart	3	132	12	foodImage.39	FOODEEG_Images\0367.jpg	YN	Right	No	0.974822100251913	0	664888	251
1299.646484375	2	health	foodImageDisplay	3	132	12	foodImage.39	FOODEEG_Images\0367.jpg	YN	Right	No	0.974822100251913	0	665420	252
1301.708984375	0.974822100251913	health	choicePhaseStart	3	132	12	foodImage.39	FOODEEG_Images\0367.jpg	YN	Right	No	0.974822100251913	0	666476	253
1302.67578125	0	health	response	3	132	12	foodImage.39	FOODEEG_Images\0367.jpg	YN	Right	No	0.974822100251913	0	666971	235
1303.716796875	1	decision	trialStart	3	133	13	foodImage.15	FOODEEG_Images\0189.jpg	YN	Left	Yes	0.911178800277412	0	667504	251
1304.775390625	2	decision	foodImageDisplay	3	133	13	foodImage.15	FOODEEG_Images\0189.jpg	YN	Left	Yes	0.911178800277412	0	668046	252
1306.837890625	0.911178800277412	decision	choicePhaseStart	3	133	13	foodImage.15	FOODEEG_Images\0189.jpg	YN	Left	Yes	0.911178800277412	0	669102	253
1307.73828125	0	decision	response	3	133	13	foodImage.15	FOODEEG_Images\0189.jpg	YN	Left	Yes	0.911178800277412	0	669563	234
1308.796875	1	taste	trialStart	3	134	14	foodImage.60	FOODEEG_Images\0614.jpg	YN	Right	No	2.83257130021229	0	670105	251
1309.853515625	2	taste	foodImageDisplay	3	134	14	foodImage.60	FOODEEG_Images\0614.jpg	YN	Right	No	2.83257130021229	0	670646	252
1311.916015625	2.83257130021229	taste	choicePhaseStart	3	134	14	foodImage.60	FOODEEG_Images\0614.jpg	YN	Right	No	2.83257130021229	0	671702	253
1314.73828125	0	taste	response	3	134	14	foodImage.60	FOODEEG_Images\0614.jpg	YN	Right	No	2.83257130021229	0	673147	235
1315.78125	1	decision	trialStart	3	135	15	foodImage.23	FOODEEG_Images\0244.jpg	NY	Left	No	1.11917920038104	0	673681	251
1316.82421875	2	decision	foodImageDisplay	3	135	15	foodImage.23	FOODEEG_Images\0244.jpg	NY	Left	No	1.11917920038104	0	674215	252
1318.88671875	1.11917920038104	decision	choicePhaseStart	3	135	15	foodImage.23	FOODEEG_Images\0244.jpg	NY	Left	No	1.11917920038104	0	675271	253
1319.994140625	0	decision	response	3	135	15	foodImage.23	FOODEEG_Images\0244.jpg	NY	Left	No	1.11917920038104	0	675838	234
1321.037109375	1	decision	trialStart	3	136	16	foodImage.76	FOODEEG_Images\0766.jpg	NY	Left	No	0.902369999792427	0	676372	251
1322.087890625	2	decision	foodImageDisplay	3	136	16	foodImage.76	FOODEEG_Images\0766.jpg	NY	Left	No	0.902369999792427	0	676910	252
1324.150390625	0.902369999792427	decision	choicePhaseStart	3	136	16	foodImage.76	FOODEEG_Images\0766.jpg	NY	Left	No	0.902369999792427	0	677966	253
1325.04296875	0	decision	response	3	136	16	foodImage.76	FOODEEG_Images\0766.jpg	NY	Left	No	0.902369999792427	0	678423	234
1326.0859375	1	health	trialStart	3	137	17	foodImage.95	FOODEEG_Images\0903.jpg	NY	Left	No	1.98134510032833	0	678957	251
1327.12890625	2	health	foodImageDisplay	3	137	17	foodImage.95	FOODEEG_Images\0903.jpg	NY	Left	No	1.98134510032833	0	679491	252
1329.19140625	1.98134510032833	health	choicePhaseStart	3	137	17	foodImage.95	FOODEEG_Images\0903.jpg	NY	Left	No	1.98134510032833	0	680547	253
1331.162109375	0	health	response	3	137	17	foodImage.95	FOODEEG_Images\0903.jpg	NY	Left	No	1.98134510032833	0	681556	234
1332.203125	1	decision	trialStart	3	138	18	foodImage.19	FOODEEG_Images\0225.jpg	YN	Right	No	1.22014970006421	0	682089	251
1333.244140625	2	decision	foodImageDisplay	3	138	18	foodImage.19	FOODEEG_Images\0225.jpg	YN	Right	No	1.22014970006421	0	682622	252
1335.310546875	1.22014970006421	decision	choicePhaseStart	3	138	18	foodImage.19	FOODEEG_Images\0225.jpg	YN	Right	No	1.22014970006421	0	683680	253
1336.521484375	0	decision	response	3	138	18	foodImage.19	FOODEEG_Images\0225.jpg	YN	Right	No	1.22014970006421	0	684300	235
1337.5625	1	taste	trialStart	3	139	19	foodImage.26	FOODEEG_Images\0262.jpg	NY	Left	No	0.975238699931651	0	684833	251
1338.60546875	2	taste	foodImageDisplay	3	139	19	foodImage.26	FOODEEG_Images\0262.jpg	NY	Left	No	0.975238699931651	0	685367	252
1340.66796875	0.975238699931651	taste	choicePhaseStart	3	139	19	foodImage.26	FOODEEG_Images\0262.jpg	NY	Left	No	0.975238699931651	0	686423	253
1341.634765625	0	taste	response	3	139	19	foodImage.26	FOODEEG_Images\0262.jpg	NY	Left	No	0.975238699931651	0	686918	234
1342.67578125	1	health	trialStart	3	140	20	foodImage.107	FOODEEG_Images\0915.jpg	NY	Left	No	2.28973249997944	0	687451	251
1343.71484375	2	health	foodImageDisplay	3	140	20	foodImage.107	FOODEEG_Images\0915.jpg	NY	Left	No	2.28973249997944	0	687983	252
1345.77734375	2.28973249997944	health	choicePhaseStart	3	140	20	foodImage.107	FOODEEG_Images\0915.jpg	NY	Left	No	2.28973249997944	0	689039	253
1348.05859375	0	health	response	3	140	20	foodImage.107	FOODEEG_Images\0915.jpg	NY	Left	No	2.28973249997944	0	690207	234
1349.099609375	1	decision	trialStart	3	141	21	foodImage.115	FOODEEG_Images\0923.jpg	NY	Left	No	0.767255699727684	0	690740	251
1350.140625	2	decision	foodImageDisplay	3	141	21	foodImage.115	FOODEEG_Images\0923.jpg	NY	Left	No	0.767255699727684	0	691273	252
1352.203125	0.767255699727684	decision	choicePhaseStart	3	141	21	foodImage.115	FOODEEG_Images\0923.jpg	NY	Left	No	0.767255699727684	0	692329	253
1352.9609375	0	decision	response	3	141	21	foodImage.115	FOODEEG_Images\0923.jpg	NY	Left	No	0.767255699727684	0	692717	234
1354.00390625	1	taste	trialStart	3	142	22	foodImage.118	FOODEEG_Images\0926.jpg	NY	Left	No	0.800758199766278	0	693251	251
1355.05859375	2	taste	foodImageDisplay	3	142	22	foodImage.118	FOODEEG_Images\0926.jpg	NY	Left	No	0.800758199766278	0	693791	252
1357.12109375	0.800758199766278	taste	choicePhaseStart	3	142	22	foodImage.118	FOODEEG_Images\0926.jpg	NY	Left	No	0.800758199766278	0	694847	253
1357.9140625	0	taste	response	3	142	22	foodImage.118	FOODEEG_Images\0926.jpg	NY	Left	No	0.800758199766278	0	695253	234
1358.95703125	1	decision	trialStart	3	143	23	foodImage.85	FOODEEG_Images\0841.jpg	NY	Right	Yes	0.789777300320566	0	695787	251
1360.021484375	2	decision	foodImageDisplay	3	143	23	foodImage.85	FOODEEG_Images\0841.jpg	NY	Right	Yes	0.789777300320566	0	696332	252
1362.083984375	0.789777300320566	decision	choicePhaseStart	3	143	23	foodImage.85	FOODEEG_Images\0841.jpg	NY	Right	Yes	0.789777300320566	0	697388	253
1362.865234375	0	decision	response	3	143	23	foodImage.85	FOODEEG_Images\0841.jpg	NY	Right	Yes	0.789777300320566	0	697788	235
1363.908203125	1	taste	trialStart	3	144	24	foodImage.21	FOODEEG_Images\0234.jpg	NY	Right	Yes	0.869387699756771	0	698322	251
1364.990234375	2	taste	foodImageDisplay	3	144	24	foodImage.21	FOODEEG_Images\0234.jpg	NY	Right	Yes	0.869387699756771	0	698876	252
1367.052734375	0.869387699756771	taste	choicePhaseStart	3	144	24	foodImage.21	FOODEEG_Images\0234.jpg	NY	Right	Yes	0.869387699756771	0	699932	253
1367.912109375	0	taste	response	3	144	24	foodImage.21	FOODEEG_Images\0234.jpg	NY	Right	Yes	0.869387699756771	0	700372	235
1368.955078125	1	taste	trialStart	3	145	25	foodImage.11	FOODEEG_Images\0180.jpg	YN	Right	No	1.04516219999641	0	700906	251
1369.998046875	2	taste	foodImageDisplay	3	145	25	foodImage.11	FOODEEG_Images\0180.jpg	YN	Right	No	1.04516219999641	0	701440	252
1372.060546875	1.04516219999641	taste	choicePhaseStart	3	145	25	foodImage.11	FOODEEG_Images\0180.jpg	YN	Right	No	1.04516219999641	0	702496	253
1373.09765625	0	taste	response	3	145	25	foodImage.11	FOODEEG_Images\0180.jpg	YN	Right	No	1.04516219999641	0	703027	235
1374.138671875	1	decision	trialStart	3	146	26	foodImage.106	FOODEEG_Images\0914.jpg	NY	Right	Yes	0.765153000131249	0	703560	251
1375.181640625	2	decision	foodImageDisplay	3	146	26	foodImage.106	FOODEEG_Images\0914.jpg	NY	Right	Yes	0.765153000131249	0	704094	252
1377.244140625	0.765153000131249	decision	choicePhaseStart	3	146	26	foodImage.106	FOODEEG_Images\0914.jpg	NY	Right	Yes	0.765153000131249	0	705150	253
1378	0	decision	response	3	146	26	foodImage.106	FOODEEG_Images\0914.jpg	NY	Right	Yes	0.765153000131249	0	705537	235
1379.04296875	1	taste	trialStart	3	147	27	foodImage.41	FOODEEG_Images\0409.jpg	NY	Right	Yes	2.31214139983058	0	706071	251
1380.091796875	2	taste	foodImageDisplay	3	147	27	foodImage.41	FOODEEG_Images\0409.jpg	NY	Right	Yes	2.31214139983058	0	706608	252
1382.154296875	2.31214139983058	taste	choicePhaseStart	3	147	27	foodImage.41	FOODEEG_Images\0409.jpg	NY	Right	Yes	2.31214139983058	0	707664	253
1384.45703125	0	taste	response	3	147	27	foodImage.41	FOODEEG_Images\0409.jpg	NY	Right	Yes	2.31214139983058	0	708843	235
1385.5	1	decision	trialStart	3	148	28	foodImage.47	FOODEEG_Images\0488.jpg	NY	Right	Yes	0.823361499700695	0	709377	251
1386.541015625	2	decision	foodImageDisplay	3	148	28	foodImage.47	FOODEEG_Images\0488.jpg	NY	Right	Yes	0.823361499700695	0	709910	252
1388.603515625	0.823361499700695	decision	choicePhaseStart	3	148	28	foodImage.47	FOODEEG_Images\0488.jpg	NY	Right	Yes	0.823361499700695	0	710966	253
1389.416015625	0	decision	response	3	148	28	foodImage.47	FOODEEG_Images\0488.jpg	NY	Right	Yes	0.823361499700695	0	711382	235
1390.458984375	1	decision	trialStart	3	149	29	foodImage.33	FOODEEG_Images\0329.jpg	YN	Left	Yes	1.75671270024031	0	711916	251
1391.501953125	2	decision	foodImageDisplay	3	149	29	foodImage.33	FOODEEG_Images\0329.jpg	YN	Left	Yes	1.75671270024031	0	712450	252
1393.564453125	1.75671270024031	decision	choicePhaseStart	3	149	29	foodImage.33	FOODEEG_Images\0329.jpg	YN	Left	Yes	1.75671270024031	0	713506	253
1395.3125	0	decision	response	3	149	29	foodImage.33	FOODEEG_Images\0329.jpg	YN	Left	Yes	1.75671270024031	0	714401	234
1396.35546875	1	taste	trialStart	3	150	30	foodImage.72	FOODEEG_Images\0714.jpg	NY	Left	No	0.993637199979275	0	714935	251
1397.400390625	2	taste	foodImageDisplay	3	150	30	foodImage.72	FOODEEG_Images\0714.jpg	NY	Left	No	0.993637199979275	0	715470	252
1399.462890625	0.993637199979275	taste	choicePhaseStart	3	150	30	foodImage.72	FOODEEG_Images\0714.jpg	NY	Left	No	0.993637199979275	0	716526	253
1400.44921875	0	taste	response	3	150	30	foodImage.72	FOODEEG_Images\0714.jpg	NY	Left	No	0.993637199979275	0	717031	234
1401.4921875	1	decision	trialStart	3	151	31	foodImage.35	FOODEEG_Images\0350.jpg	YN	Left	Yes	0.742766499985009	0	717565	251
1402.529296875	2	decision	foodImageDisplay	3	151	31	foodImage.35	FOODEEG_Images\0350.jpg	YN	Left	Yes	0.742766499985009	0	718096	252
1404.591796875	0.742766499985009	decision	choicePhaseStart	3	151	31	foodImage.35	FOODEEG_Images\0350.jpg	YN	Left	Yes	0.742766499985009	0	719152	253
1405.328125	0	decision	response	3	151	31	foodImage.35	FOODEEG_Images\0350.jpg	YN	Left	Yes	0.742766499985009	0	719529	234
1406.369140625	1	health	trialStart	3	152	32	foodImage.102	FOODEEG_Images\0910.jpg	YN	Right	No	1.43164029996842	0	720062	251
1407.408203125	2	health	foodImageDisplay	3	152	32	foodImage.102	FOODEEG_Images\0910.jpg	YN	Right	No	1.43164029996842	0	720594	252
1409.47265625	1.43164029996842	health	choicePhaseStart	3	152	32	foodImage.102	FOODEEG_Images\0910.jpg	YN	Right	No	1.43164029996842	0	721651	253
1410.89453125	0	health	response	3	152	32	foodImage.102	FOODEEG_Images\0910.jpg	YN	Right	No	1.43164029996842	0	722379	235
1411.939453125	1	decision	trialStart	3	153	33	foodImage.94	FOODEEG_Images\0902.jpg	YN	Left	Yes	0.759057300165296	0	722914	251
1412.984375	2	decision	foodImageDisplay	3	153	33	foodImage.94	FOODEEG_Images\0902.jpg	YN	Left	Yes	0.759057300165296	0	723449	252
1415.046875	0.759057300165296	decision	choicePhaseStart	3	153	33	foodImage.94	FOODEEG_Images\0902.jpg	YN	Left	Yes	0.759057300165296	0	724505	253
1415.798828125	0	decision	response	3	153	33	foodImage.94	FOODEEG_Images\0902.jpg	YN	Left	Yes	0.759057300165296	0	724890	234
1416.83984375	1	taste	trialStart	3	154	34	foodImage.17	FOODEEG_Images\0199.jpg	NY	Right	Yes	1.21756769996136	0	725423	251
1417.87890625	2	taste	foodImageDisplay	3	154	34	foodImage.17	FOODEEG_Images\0199.jpg	NY	Right	Yes	1.21756769996136	0	725955	252
1419.94140625	1.21756769996136	taste	choicePhaseStart	3	154	34	foodImage.17	FOODEEG_Images\0199.jpg	NY	Right	Yes	1.21756769996136	0	727011	253
1421.150390625	0	taste	response	3	154	34	foodImage.17	FOODEEG_Images\0199.jpg	NY	Right	Yes	1.21756769996136	0	727630	235
1422.193359375	1	health	trialStart	3	155	35	foodImage.105	FOODEEG_Images\0913.jpg	NY	Left	No	1.64861560007557	0	728164	251
1423.232421875	2	health	foodImageDisplay	3	155	35	foodImage.105	FOODEEG_Images\0913.jpg	NY	Left	No	1.64861560007557	0	728696	252
1425.294921875	1.64861560007557	health	choicePhaseStart	3	155	35	foodImage.105	FOODEEG_Images\0913.jpg	NY	Left	No	1.64861560007557	0	729752	253
1426.935546875	0	health	response	3	155	35	foodImage.105	FOODEEG_Images\0913.jpg	NY	Left	No	1.64861560007557	0	730592	234
1427.978515625	1	taste	trialStart	3	156	36	foodImage.104	FOODEEG_Images\0912.jpg	YN	Left	Yes	0.979166999924928	0	731126	251
1429.017578125	2	taste	foodImageDisplay	3	156	36	foodImage.104	FOODEEG_Images\0912.jpg	YN	Left	Yes	0.979166999924928	0	731658	252
1431.083984375	0.979166999924928	taste	choicePhaseStart	3	156	36	foodImage.104	FOODEEG_Images\0912.jpg	YN	Left	Yes	0.979166999924928	0	732716	253
1432.0546875	0	taste	response	3	156	36	foodImage.104	FOODEEG_Images\0912.jpg	YN	Left	Yes	0.979166999924928	0	733213	234
1433.09765625	1	decision	trialStart	3	157	37	foodImage.63	FOODEEG_Images\0645.jpg	NY	Right	Yes	1.23638979997486	0	733747	251
1434.15625	2	decision	foodImageDisplay	3	157	37	foodImage.63	FOODEEG_Images\0645.jpg	NY	Right	Yes	1.23638979997486	0	734289	252
1436.21875	1.23638979997486	decision	choicePhaseStart	3	157	37	foodImage.63	FOODEEG_Images\0645.jpg	NY	Right	Yes	1.23638979997486	0	735345	253
1437.447265625	0	decision	response	3	157	37	foodImage.63	FOODEEG_Images\0645.jpg	NY	Right	Yes	1.23638979997486	0	735974	235
1438.490234375	1	health	trialStart	3	158	38	foodImage.7	FOODEEG_Images\0116.jpg	YN	Right	No	1.13640510011464	0	736508	251
1439.533203125	2	health	foodImageDisplay	3	158	38	foodImage.7	FOODEEG_Images\0116.jpg	YN	Right	No	1.13640510011464	0	737042	252
1441.595703125	1.13640510011464	health	choicePhaseStart	3	158	38	foodImage.7	FOODEEG_Images\0116.jpg	YN	Right	No	1.13640510011464	0	738098	253
1442.7265625	0	health	response	3	158	38	foodImage.7	FOODEEG_Images\0116.jpg	YN	Right	No	1.13640510011464	0	738677	235
1443.771484375	1	decision	trialStart	3	159	39	foodImage.2	FOODEEG_Images\0028.jpg	NY	Left	No	2.41885760007426	0	739212	251
1444.814453125	2	decision	foodImageDisplay	3	159	39	foodImage.2	FOODEEG_Images\0028.jpg	NY	Left	No	2.41885760007426	0	739746	252
1446.876953125	2.41885760007426	decision	choicePhaseStart	3	159	39	foodImage.2	FOODEEG_Images\0028.jpg	NY	Left	No	2.41885760007426	0	740802	253
1449.28515625	0	decision	response	3	159	39	foodImage.2	FOODEEG_Images\0028.jpg	NY	Left	No	2.41885760007426	0	742035	234
1450.328125	1	decision	trialStart	3	160	40	foodImage.9	FOODEEG_Images\0138.jpg	NY	Left	No	1.44292319985107	0	742569	251
1451.38671875	2	decision	foodImageDisplay	3	160	40	foodImage.9	FOODEEG_Images\0138.jpg	NY	Left	No	1.44292319985107	0	743111	252
1453.451171875	1.44292319985107	decision	choicePhaseStart	3	160	40	foodImage.9	FOODEEG_Images\0138.jpg	NY	Left	No	1.44292319985107	0	744168	253
1454.884765625	0	decision	response	3	160	40	foodImage.9	FOODEEG_Images\0138.jpg	NY	Left	No	1.44292319985107	0	744902	234
1455.927734375	1	taste	trialStart	3	161	41	foodImage.30	FOODEEG_Images\0282.jpg	YN	Left	Yes	1.22413849970326	0	745436	251
1456.96875	2	taste	foodImageDisplay	3	161	41	foodImage.30	FOODEEG_Images\0282.jpg	YN	Left	Yes	1.22413849970326	0	745969	252
1459.029296875	1.22413849970326	taste	choicePhaseStart	3	161	41	foodImage.30	FOODEEG_Images\0282.jpg	YN	Left	Yes	1.22413849970326	0	747024	253
1460.24609375	0	taste	response	3	161	41	foodImage.30	FOODEEG_Images\0282.jpg	YN	Left	Yes	1.22413849970326	0	747647	234
1461.287109375	1	decision	trialStart	3	162	42	foodImage.67	FOODEEG_Images\0679.jpg	NY	Right	Yes	0.852854299824685	0	748180	251
1462.345703125	2	decision	foodImageDisplay	3	162	42	foodImage.67	FOODEEG_Images\0679.jpg	NY	Right	Yes	0.852854299824685	0	748722	252
1464.408203125	0.852854299824685	decision	choicePhaseStart	3	162	42	foodImage.67	FOODEEG_Images\0679.jpg	NY	Right	Yes	0.852854299824685	0	749778	253
1465.251953125	0	decision	response	3	162	42	foodImage.67	FOODEEG_Images\0679.jpg	NY	Right	Yes	0.852854299824685	0	750210	235
1466.298828125	1	taste	trialStart	3	163	43	foodImage.56	FOODEEG_Images\0586.jpg	NY	Right	Yes	2.70896269986406	0	750746	251
1467.33984375	2	taste	foodImageDisplay	3	163	43	foodImage.56	FOODEEG_Images\0586.jpg	NY	Right	Yes	2.70896269986406	0	751279	252
1469.41015625	2.70896269986406	taste	choicePhaseStart	3	163	43	foodImage.56	FOODEEG_Images\0586.jpg	NY	Right	Yes	2.70896269986406	0	752339	253
1472.109375	0	taste	response	3	163	43	foodImage.56	FOODEEG_Images\0586.jpg	NY	Right	Yes	2.70896269986406	0	753721	235
1473.150390625	1	taste	trialStart	3	164	44	foodImage.55	FOODEEG_Images\0567.jpg	NY	Right	Yes	2.60139189986512	0	754254	251
1474.21484375	2	taste	foodImageDisplay	3	164	44	foodImage.55	FOODEEG_Images\0567.jpg	NY	Right	Yes	2.60139189986512	0	754799	252
1476.27734375	2.60139189986512	taste	choicePhaseStart	3	164	44	foodImage.55	FOODEEG_Images\0567.jpg	NY	Right	Yes	2.60139189986512	0	755855	253
1478.869140625	0	taste	response	3	164	44	foodImage.55	FOODEEG_Images\0567.jpg	NY	Right	Yes	2.60139189986512	0	757182	235
1479.912109375	1	taste	trialStart	3	165	45	foodImage.62	FOODEEG_Images\0644.jpg	NY	Left	No	1.71740450011566	0	757716	251
1480.970703125	2	taste	foodImageDisplay	3	165	45	foodImage.62	FOODEEG_Images\0644.jpg	NY	Left	No	1.71740450011566	0	758258	252
1483.033203125	1.71740450011566	taste	choicePhaseStart	3	165	45	foodImage.62	FOODEEG_Images\0644.jpg	NY	Left	No	1.71740450011566	0	759314	253
1484.740234375	0	taste	response	3	165	45	foodImage.62	FOODEEG_Images\0644.jpg	NY	Left	No	1.71740450011566	0	760188	234
1485.787109375	1	health	trialStart	3	166	46	foodImage.40	FOODEEG_Images\0373.jpg	NY	Left	No	0.868180300109088	0	760724	251
1486.84375	2	health	foodImageDisplay	3	166	46	foodImage.40	FOODEEG_Images\0373.jpg	NY	Left	No	0.868180300109088	0	761265	252
1488.90625	0.868180300109088	health	choicePhaseStart	3	166	46	foodImage.40	FOODEEG_Images\0373.jpg	NY	Left	No	0.868180300109088	0	762321	253
1489.763671875	0	health	response	3	166	46	foodImage.40	FOODEEG_Images\0373.jpg	NY	Left	No	0.868180300109088	0	762760	234
1490.80859375	1	health	trialStart	3	167	47	foodImage.30	FOODEEG_Images\0282.jpg	NY	Right	Yes	2.22077949997038	0	763295	251
1491.849609375	2	health	foodImageDisplay	3	167	47	foodImage.30	FOODEEG_Images\0282.jpg	NY	Right	Yes	2.22077949997038	0	763828	252
1493.912109375	2.22077949997038	health	choicePhaseStart	3	167	47	foodImage.30	FOODEEG_Images\0282.jpg	NY	Right	Yes	2.22077949997038	0	764884	253
1496.123046875	0	health	response	3	167	47	foodImage.30	FOODEEG_Images\0282.jpg	NY	Right	Yes	2.22077949997038	0	766016	235
1497.166015625	1	taste	trialStart	3	168	48	foodImage.96	FOODEEG_Images\0904.jpg	YN	Left	Yes	2.16356919985265	0	766550	251
1498.203125	2	taste	foodImageDisplay	3	168	48	foodImage.96	FOODEEG_Images\0904.jpg	YN	Left	Yes	2.16356919985265	0	767081	252
1500.265625	2.16356919985265	taste	choicePhaseStart	3	168	48	foodImage.96	FOODEEG_Images\0904.jpg	YN	Left	Yes	2.16356919985265	0	768137	253
1502.419921875	0	taste	response	3	168	48	foodImage.96	FOODEEG_Images\0904.jpg	YN	Left	Yes	2.16356919985265	0	769240	234
1503.462890625	1	decision	trialStart	3	169	49	foodImage.20	FOODEEG_Images\0226.jpg	YN	Left	Yes	1.32380819972605	0	769774	251
1504.513671875	2	decision	foodImageDisplay	3	169	49	foodImage.20	FOODEEG_Images\0226.jpg	YN	Left	Yes	1.32380819972605	0	770312	252
1506.578125	1.32380819972605	decision	choicePhaseStart	3	169	49	foodImage.20	FOODEEG_Images\0226.jpg	YN	Left	Yes	1.32380819972605	0	771369	253
1507.892578125	0	decision	response	3	169	49	foodImage.20	FOODEEG_Images\0226.jpg	YN	Left	Yes	1.32380819972605	0	772042	234
1508.939453125	1	decision	trialStart	3	170	50	foodImage.98	FOODEEG_Images\0906.jpg	YN	Left	Yes	1.53208220005035	0	772578	251
1509.978515625	2	decision	foodImageDisplay	3	170	50	foodImage.98	FOODEEG_Images\0906.jpg	YN	Left	Yes	1.53208220005035	0	773110	252
1512.041015625	1.53208220005035	decision	choicePhaseStart	3	170	50	foodImage.98	FOODEEG_Images\0906.jpg	YN	Left	Yes	1.53208220005035	0	774166	253
1513.5625	0	decision	response	3	170	50	foodImage.98	FOODEEG_Images\0906.jpg	YN	Left	Yes	1.53208220005035	0	774945	234
1514.607421875	1	decision	trialStart	3	171	51	foodImage.88	FOODEEG_Images\0878.jpg	YN	Left	Yes	0.784635500051081	0	775480	251
1515.662109375	2	decision	foodImageDisplay	3	171	51	foodImage.88	FOODEEG_Images\0878.jpg	YN	Left	Yes	0.784635500051081	0	776020	252
1517.724609375	0.784635500051081	decision	choicePhaseStart	3	171	51	foodImage.88	FOODEEG_Images\0878.jpg	YN	Left	Yes	0.784635500051081	0	777076	253
1518.5	0	decision	response	3	171	51	foodImage.88	FOODEEG_Images\0878.jpg	YN	Left	Yes	0.784635500051081	0	777473	234
1519.544921875	1	decision	trialStart	3	172	52	foodImage.112	FOODEEG_Images\0920.jpg	NY	Left	No	1.2295905998908	0	778008	251
1520.591796875	2	decision	foodImageDisplay	3	172	52	foodImage.112	FOODEEG_Images\0920.jpg	NY	Left	No	1.2295905998908	0	778544	252
1522.654296875	1.2295905998908	decision	choicePhaseStart	3	172	52	foodImage.112	FOODEEG_Images\0920.jpg	NY	Left	No	1.2295905998908	0	779600	253
1523.875	0	decision	response	3	172	52	foodImage.112	FOODEEG_Images\0920.jpg	NY	Left	No	1.2295905998908	0	780225	234
1524.916015625	1	health	trialStart	3	173	53	foodImage.101	FOODEEG_Images\0909.jpg	YN	Right	No	1.28244149964303	0	780758	251
1525.955078125	2	health	foodImageDisplay	3	173	53	foodImage.101	FOODEEG_Images\0909.jpg	YN	Right	No	1.28244149964303	0	781290	252
1528.017578125	1.28244149964303	health	choicePhaseStart	3	173	53	foodImage.101	FOODEEG_Images\0909.jpg	YN	Right	No	1.28244149964303	0	782346	253
1529.291015625	0	health	response	3	173	53	foodImage.101	FOODEEG_Images\0909.jpg	YN	Right	No	1.28244149964303	0	782998	235
1530.330078125	1	taste	trialStart	3	174	54	foodImage.98	FOODEEG_Images\0906.jpg	YN	Right	No	1.42848100000992	0	783530	251
1531.369140625	2	taste	foodImageDisplay	3	174	54	foodImage.98	FOODEEG_Images\0906.jpg	YN	Right	No	1.42848100000992	0	784062	252
1533.431640625	1.42848100000992	taste	choicePhaseStart	3	174	54	foodImage.98	FOODEEG_Images\0906.jpg	YN	Right	No	1.42848100000992	0	785118	253
1534.849609375	0	taste	response	3	174	54	foodImage.98	FOODEEG_Images\0906.jpg	YN	Right	No	1.42848100000992	0	785844	235
1535.896484375	1	decision	trialStart	3	175	55	foodImage.6	FOODEEG_Images\0113.jpg	YN	Left	Yes	0.746231900062412	0	786380	251
1536.947265625	2	decision	foodImageDisplay	3	175	55	foodImage.6	FOODEEG_Images\0113.jpg	YN	Left	Yes	0.746231900062412	0	786918	252
1539.009765625	0.746231900062412	decision	choicePhaseStart	3	175	55	foodImage.6	FOODEEG_Images\0113.jpg	YN	Left	Yes	0.746231900062412	0	787974	253
1539.74609375	0	decision	response	3	175	55	foodImage.6	FOODEEG_Images\0113.jpg	YN	Left	Yes	0.746231900062412	0	788351	234
1540.7890625	1	taste	trialStart	3	176	56	foodImage.57	FOODEEG_Images\0587.jpg	YN	Left	Yes	1.53298130026087	0	788885	251
1541.83203125	2	taste	foodImageDisplay	3	176	56	foodImage.57	FOODEEG_Images\0587.jpg	YN	Left	Yes	1.53298130026087	0	789419	252
1543.89453125	1.53298130026087	taste	choicePhaseStart	3	176	56	foodImage.57	FOODEEG_Images\0587.jpg	YN	Left	Yes	1.53298130026087	0	790475	253
1545.41796875	0	taste	response	3	176	56	foodImage.57	FOODEEG_Images\0587.jpg	YN	Left	Yes	1.53298130026087	0	791255	234
1546.458984375	1	taste	trialStart	3	177	57	foodImage.25	FOODEEG_Images\0261.jpg	YN	Right	No	0.949329500086606	0	791788	251
1547.51953125	2	taste	foodImageDisplay	3	177	57	foodImage.25	FOODEEG_Images\0261.jpg	YN	Right	No	0.949329500086606	0	792331	252
1549.58203125	0.949329500086606	taste	choicePhaseStart	3	177	57	foodImage.25	FOODEEG_Images\0261.jpg	YN	Right	No	0.949329500086606	0	793387	253
1550.521484375	0	taste	response	3	177	57	foodImage.25	FOODEEG_Images\0261.jpg	YN	Right	No	0.949329500086606	0	793868	235
1551.564453125	1	health	trialStart	3	178	58	foodImage.69	FOODEEG_Images\0693.jpg	YN	Right	No	1.77316699968651	0	794402	251
1552.615234375	2	health	foodImageDisplay	3	178	58	foodImage.69	FOODEEG_Images\0693.jpg	YN	Right	No	1.77316699968651	0	794940	252
1554.677734375	1.77316699968651	health	choicePhaseStart	3	178	58	foodImage.69	FOODEEG_Images\0693.jpg	YN	Right	No	1.77316699968651	0	795996	253
1556.44140625	0	health	response	3	178	58	foodImage.69	FOODEEG_Images\0693.jpg	YN	Right	No	1.77316699968651	0	796899	235
1557.482421875	1	health	trialStart	3	179	59	foodImage.1	FOODEEG_Images\0004.jpg	NY	Left	No	1.27954000001773	0	797432	251
1558.5390625	2	health	foodImageDisplay	3	179	59	foodImage.1	FOODEEG_Images\0004.jpg	NY	Left	No	1.27954000001773	0	797973	252
1560.6015625	1.27954000001773	health	choicePhaseStart	3	179	59	foodImage.1	FOODEEG_Images\0004.jpg	NY	Left	No	1.27954000001773	0	799029	253
1561.873046875	0	health	response	3	179	59	foodImage.1	FOODEEG_Images\0004.jpg	NY	Left	No	1.27954000001773	0	799680	234
1562.916015625	1	health	trialStart	3	180	60	foodImage.22	FOODEEG_Images\0236.jpg	YN	Right	No	2.00422690017149	0	800214	251
1563.958984375	2	health	foodImageDisplay	3	180	60	foodImage.22	FOODEEG_Images\0236.jpg	YN	Right	No	2.00422690017149	0	800748	252
1566.021484375	2.00422690017149	health	choicePhaseStart	3	180	60	foodImage.22	FOODEEG_Images\0236.jpg	YN	Right	No	2.00422690017149	0	801804	253
1568.017578125	0	health	response	3	180	60	foodImage.22	FOODEEG_Images\0236.jpg	YN	Right	No	2.00422690017149	0	802826	235
1570.064453125	55.544921875	n/a	blockEnd	n/a	n/a	n/a	n/a	n/a	n/a	n/a	n/a	n/a	n/a	803874	254
1625.609375	2	n/a	blockStart	4	n/a	n/a	n/a	n/a	n/a	n/a	n/a	n/a	n/a	832313	250
1627.640625	1	health	trialStart	4	181	1	foodImage.90	FOODEEG_Images\0890.jpg	YN	Right	No	1.98303500004113	0	833353	251
1628.69921875	2	health	foodImageDisplay	4	181	1	foodImage.90	FOODEEG_Images\0890.jpg	YN	Right	No	1.98303500004113	0	833895	252
1630.767578125	1.98303500004113	health	choicePhaseStart	4	181	1	foodImage.90	FOODEEG_Images\0890.jpg	YN	Right	No	1.98303500004113	0	834954	253
1632.7421875	0	health	response	4	181	1	foodImage.90	FOODEEG_Images\0890.jpg	YN	Right	No	1.98303500004113	0	835965	235
1633.78515625	1	taste	trialStart	4	182	2	foodImage.120	FOODEEG_Images\0928.jpg	NY	Left	No	0.738653200212866	0	836499	251
1634.83984375	2	taste	foodImageDisplay	4	182	2	foodImage.120	FOODEEG_Images\0928.jpg	NY	Left	No	0.738653200212866	0	837039	252
1636.90234375	0.738653200212866	taste	choicePhaseStart	4	182	2	foodImage.120	FOODEEG_Images\0928.jpg	NY	Left	No	0.738653200212866	0	838095	253
1637.630859375	0	taste	response	4	182	2	foodImage.120	FOODEEG_Images\0928.jpg	NY	Left	No	0.738653200212866	0	838468	234
1638.67578125	1	decision	trialStart	4	183	3	foodImage.57	FOODEEG_Images\0587.jpg	NY	Right	Yes	1.11665529990569	0	839003	251
1639.740234375	2	decision	foodImageDisplay	4	183	3	foodImage.57	FOODEEG_Images\0587.jpg	NY	Right	Yes	1.11665529990569	0	839548	252
1641.802734375	1.11665529990569	decision	choicePhaseStart	4	183	3	foodImage.57	FOODEEG_Images\0587.jpg	NY	Right	Yes	1.11665529990569	0	840604	253
1642.91015625	0	decision	response	4	183	3	foodImage.57	FOODEEG_Images\0587.jpg	NY	Right	Yes	1.11665529990569	0	841171	235
1643.94921875	1	decision	trialStart	4	184	4	foodImage.72	FOODEEG_Images\0714.jpg	NY	Left	No	1.0245302002877	0	841703	251
1644.990234375	2	decision	foodImageDisplay	4	184	4	foodImage.72	FOODEEG_Images\0714.jpg	NY	Left	No	1.0245302002877	0	842236	252
1647.052734375	1.0245302002877	decision	choicePhaseStart	4	184	4	foodImage.72	FOODEEG_Images\0714.jpg	NY	Left	No	1.0245302002877	0	843292	253
1648.0703125	0	decision	response	4	184	4	foodImage.72	FOODEEG_Images\0714.jpg	NY	Left	No	1.0245302002877	0	843813	234
1649.11328125	1	health	trialStart	4	185	5	foodImage.45	FOODEEG_Images\0478.jpg	NY	Right	Yes	1.25796599965543	0	844347	251
1650.158203125	2	health	foodImageDisplay	4	185	5	foodImage.45	FOODEEG_Images\0478.jpg	NY	Right	Yes	1.25796599965543	0	844882	252
1652.220703125	1.25796599965543	health	choicePhaseStart	4	185	5	foodImage.45	FOODEEG_Images\0478.jpg	NY	Right	Yes	1.25796599965543	0	845938	253
1653.470703125	0	health	response	4	185	5	foodImage.45	FOODEEG_Images\0478.jpg	NY	Right	Yes	1.25796599965543	0	846578	235
1654.513671875	1	health	trialStart	4	186	6	foodImage.62	FOODEEG_Images\0644.jpg	NY	Right	Yes	1.37180100008845	0	847112	251
1655.572265625	2	health	foodImageDisplay	4	186	6	foodImage.62	FOODEEG_Images\0644.jpg	NY	Right	Yes	1.37180100008845	0	847654	252
1657.634765625	1.37180100008845	health	choicePhaseStart	4	186	6	foodImage.62	FOODEEG_Images\0644.jpg	NY	Right	Yes	1.37180100008845	0	848710	253
1658.998046875	0	health	response	4	186	6	foodImage.62	FOODEEG_Images\0644.jpg	NY	Right	Yes	1.37180100008845	0	849408	235
1660.0390625	1	health	trialStart	4	187	7	foodImage.104	FOODEEG_Images\0912.jpg	NY	Left	No	1.62262350041419	0	849941	251
1661.087890625	2	health	foodImageDisplay	4	187	7	foodImage.104	FOODEEG_Images\0912.jpg	NY	Left	No	1.62262350041419	0	850478	252
1663.150390625	1.62262350041419	health	choicePhaseStart	4	187	7	foodImage.104	FOODEEG_Images\0912.jpg	NY	Left	No	1.62262350041419	0	851534	253
1664.765625	0	health	response	4	187	7	foodImage.104	FOODEEG_Images\0912.jpg	NY	Left	No	1.62262350041419	0	852361	234
1665.80859375	1	decision	trialStart	4	188	8	foodImage.16	FOODEEG_Images\0196.jpg	NY	Right	Yes	1.6268565999344	0	852895	251
1666.8671875	2	decision	foodImageDisplay	4	188	8	foodImage.16	FOODEEG_Images\0196.jpg	NY	Right	Yes	1.6268565999344	0	853437	252
1668.931640625	1.6268565999344	decision	choicePhaseStart	4	188	8	foodImage.16	FOODEEG_Images\0196.jpg	NY	Right	Yes	1.6268565999344	0	854494	253
1670.548828125	0	decision	response	4	188	8	foodImage.16	FOODEEG_Images\0196.jpg	NY	Right	Yes	1.6268565999344	0	855322	235
1671.595703125	1	taste	trialStart	4	189	9	foodImage.23	FOODEEG_Images\0244.jpg	YN	Right	No	1.53516389988363	0	855858	251
1672.65625	2	taste	foodImageDisplay	4	189	9	foodImage.23	FOODEEG_Images\0244.jpg	YN	Right	No	1.53516389988363	0	856401	252
1674.71875	1.53516389988363	taste	choicePhaseStart	4	189	9	foodImage.23	FOODEEG_Images\0244.jpg	YN	Right	No	1.53516389988363	0	857457	253
1676.244140625	0	taste	response	4	189	9	foodImage.23	FOODEEG_Images\0244.jpg	YN	Right	No	1.53516389988363	0	858238	235
1677.287109375	1	taste	trialStart	4	190	10	foodImage.112	FOODEEG_Images\0920.jpg	NY	Left	No	0.729197900276631	0	858772	251
1678.341796875	2	taste	foodImageDisplay	4	190	10	foodImage.112	FOODEEG_Images\0920.jpg	NY	Left	No	0.729197900276631	0	859312	252
1680.404296875	0.729197900276631	taste	choicePhaseStart	4	190	10	foodImage.112	FOODEEG_Images\0920.jpg	NY	Left	No	0.729197900276631	0	860368	253
1681.125	0	taste	response	4	190	10	foodImage.112	FOODEEG_Images\0920.jpg	NY	Left	No	0.729197900276631	0	860737	234
1682.166015625	1	decision	trialStart	4	191	11	foodImage.25	FOODEEG_Images\0261.jpg	NY	Left	No	0.791850100271404	0	861270	251
1683.20703125	2	decision	foodImageDisplay	4	191	11	foodImage.25	FOODEEG_Images\0261.jpg	NY	Left	No	0.791850100271404	0	861803	252
1685.26953125	0.791850100271404	decision	choicePhaseStart	4	191	11	foodImage.25	FOODEEG_Images\0261.jpg	NY	Left	No	0.791850100271404	0	862859	253
1686.052734375	0	decision	response	4	191	11	foodImage.25	FOODEEG_Images\0261.jpg	NY	Left	No	0.791850100271404	0	863260	234
1687.09375	1	taste	trialStart	4	192	12	foodImage.61	FOODEEG_Images\0640.jpg	YN	Right	No	1.66264869971201	0	863793	251
1688.13671875	2	taste	foodImageDisplay	4	192	12	foodImage.61	FOODEEG_Images\0640.jpg	YN	Right	No	1.66264869971201	0	864327	252
1690.197265625	1.66264869971201	taste	choicePhaseStart	4	192	12	foodImage.61	FOODEEG_Images\0640.jpg	YN	Right	No	1.66264869971201	0	865382	253
1691.853515625	0	taste	response	4	192	12	foodImage.61	FOODEEG_Images\0640.jpg	YN	Right	No	1.66264869971201	0	866230	235
1692.89453125	1	health	trialStart	4	193	13	foodImage.36	FOODEEG_Images\0352.jpg	YN	Left	Yes	1.732497099787	0	866763	251
1693.953125	2	health	foodImageDisplay	4	193	13	foodImage.36	FOODEEG_Images\0352.jpg	YN	Left	Yes	1.732497099787	0	867305	252
1696.015625	1.732497099787	health	choicePhaseStart	4	193	13	foodImage.36	FOODEEG_Images\0352.jpg	YN	Left	Yes	1.732497099787	0	868361	253
1697.740234375	0	health	response	4	193	13	foodImage.36	FOODEEG_Images\0352.jpg	YN	Left	Yes	1.732497099787	0	869244	234
1698.783203125	1	health	trialStart	4	194	14	foodImage.18	FOODEEG_Images\0202.jpg	NY	Right	Yes	1.00526709994301	0	869778	251
1699.841796875	2	health	foodImageDisplay	4	194	14	foodImage.18	FOODEEG_Images\0202.jpg	NY	Right	Yes	1.00526709994301	0	870320	252
