onset	duration	trial_type	event_type	block	trial_total	trial_in_block	food_image_code	food_image_path	button_position	resp_position	resp_choice	choice_rt	resp_too_slow	sample	trigger
355.181640625	2	n/a	blockStart	1	n/a	n/a	n/a	n/a	n/a	n/a	n/a	n/a	n/a	181854	250
357.220703125	1	taste	trialStart	1	1	1	foodImage.32	FOODEEG_Images\0319.jpg	NY	Right	Yes	0.732107699997869	0	182898	251
358.2734375	2	taste	foodImageDisplay	1	1	1	foodImage.32	FOODEEG_Images\0319.jpg	NY	Right	Yes	0.732107699997869	0	183437	252
360.3359375	0.732107699997869	taste	choicePhaseStart	1	1	1	foodImage.32	FOODEEG_Images\0319.jpg	NY	Right	Yes	0.732107699997869	0	184493	253
361.060546875	0	taste	response	1	1	1	foodImage.32	FOODEEG_Images\0319.jpg	NY	Right	Yes	0.732107699997869	0	184864	235
362.162109375	1	taste	trialStart	1	2	2	foodImage.33	FOODEEG_Images\0329.jpg	YN	Left	Yes	0.859638000001723	0	185428	251
363.205078125	2	taste	foodImageDisplay	1	2	2	foodImage.33	FOODEEG_Images\0329.jpg	YN	Left	Yes	0.859638000001723	0	185962	252
365.271484375	0.859638000001723	taste	choicePhaseStart	1	2	2	foodImage.33	FOODEEG_Images\0329.jpg	YN	Left	Yes	0.859638000001723	0	187020	253
366.125	0	taste	response	1	2	2	foodImage.33	FOODEEG_Images\0329.jpg	YN	Left	Yes	0.859638000001723	0	187457	234
367.185546875	1	taste	trialStart	1	3	3	foodImage.60	FOODEEG_Images\0614.jpg	NY	Right	Yes	0.603773699996964	0	188000	251
368.2421875	2	taste	foodImageDisplay	1	3	3	foodImage.60	FOODEEG_Images\0614.jpg	NY	Right	Yes	0.603773699996964	0	188541	252
370.306640625	0.603773699996964	taste	choicePhaseStart	1	3	3	foodImage.60	FOODEEG_Images\0614.jpg	NY	Right	Yes	0.603773699996964	0	189598	253
370.900390625	0	taste	response	1	3	3	foodImage.60	FOODEEG_Images\0614.jpg	NY	Right	Yes	0.603773699996964	0	189902	235
371.943359375	1	taste	trialStart	1	4	4	foodImage.91	FOODEEG_Images\0896.jpg	YN	Left	Yes	0.715066900000238	0	190436	251
373.001953125	2	taste	foodImageDisplay	1	4	4	foodImage.91	FOODEEG_Images\0896.jpg	YN	Left	Yes	0.715066900000238	0	190978	252
375.06640625	0.715066900000238	taste	choicePhaseStart	1	4	4	foodImage.91	FOODEEG_Images\0896.jpg	YN	Left	Yes	0.715066900000238	0	192035	253
375.771484375	0	taste	response	1	4	4	foodImage.91	FOODEEG_Images\0896.jpg	YN	Left	Yes	0.715066900000238	0	192396	234
376.818359375	1	decision	trialStart	1	5	5	foodImage.36	FOODEEG_Images\0352.jpg	NY	Right	Yes	0.688649499999883	0	192932	251
377.8984375	2	decision	foodImageDisplay	1	5	5	foodImage.36	FOODEEG_Images\0352.jpg	NY	Right	Yes	0.688649499999883	0	193485	252
379.96484375	0.688649499999883	decision	choicePhaseStart	1	5	5	foodImage.36	FOODEEG_Images\0352.jpg	NY	Right	Yes	0.688649499999883	0	194543	253
380.64453125	0	decision	response	1	5	5	foodImage.36	FOODEEG_Images\0352.jpg	NY	Right	Yes	0.688649499999883	0	194891	235
381.701171875	1	decision	trialStart	1	6	6	foodImage.3	FOODEEG_Images\0046.jpg	YN	Left	Yes	0.724542299998575	0	195432	251
382.744140625	2	decision	foodImageDisplay	1	6	6	foodImage.3	FOODEEG_Images\0046.jpg	YN	Left	Yes	0.724542299998575	0	195966	252
384.80859375	0.724542299998575	decision	choicePhaseStart	1	6	6	foodImage.3	FOODEEG_Images\0046.jpg	YN	Left	Yes	0.724542299998575	0	197023	253
385.5234375	0	decision	response	1	6	6	foodImage.3	FOODEEG_Images\0046.jpg	YN	Left	Yes	0.724542299998575	0	197389	234
386.568359375	1	taste	trialStart	1	7	7	foodImage.63	FOODEEG_Images\0645.jpg	NY	Right	Yes	0.716658699999243	0	197924	251
387.609375	2	taste	foodImageDisplay	1	7	7	foodImage.63	FOODEEG_Images\0645.jpg	NY	Right	Yes	0.716658699999243	0	198457	252
389.6796875	0.716658699999243	taste	choicePhaseStart	1	7	7	foodImage.63	FOODEEG_Images\0645.jpg	NY	Right	Yes	0.716658699999243	0	199517	253
390.388671875	0	taste	response	1	7	7	foodImage.63	FOODEEG_Images\0645.jpg	NY	Right	Yes	0.716658699999243	0	199880	235
391.431640625	1	health	trialStart	1	8	8	foodImage.68	FOODEEG_Images\0685.jpg	YN	Right	No	1.00126060000184	0	200414	251
392.513671875	2	health	foodImageDisplay	1	8	8	foodImage.68	FOODEEG_Images\0685.jpg	YN	Right	No	1.00126060000184	0	200968	252
394.576171875	1.00126060000184	health	choicePhaseStart	1	8	8	foodImage.68	FOODEEG_Images\0685.jpg	YN	Right	No	1.00126060000184	0	202024	253
395.572265625	0	health	response	1	8	8	foodImage.68	FOODEEG_Images\0685.jpg	YN	Right	No	1.00126060000184	0	202534	235
396.6171875	1	health	trialStart	1	9	9	foodImage.16	FOODEEG_Images\0196.jpg	NY	Right	Yes	1.23307099999874	0	203069	251
397.67578125	2	health	foodImageDisplay	1	9	9	foodImage.16	FOODEEG_Images\0196.jpg	NY	Right	Yes	1.23307099999874	0	203611	252
399.73828125	1.23307099999874	health	choicePhaseStart	1	9	9	foodImage.16	FOODEEG_Images\0196.jpg	NY	Right	Yes	1.23307099999874	0	204667	253
400.962890625	0	health	response	1	9	9	foodImage.16	FOODEEG_Images\0196.jpg	NY	Right	Yes	1.23307099999874	0	205294	235
402.01171875	1	taste	trialStart	1	10	10	foodImage.77	FOODEEG_Images\0771.jpg	NY	Right	Yes	0.558758600000147	0	205831	251
403.056640625	2	taste	foodImageDisplay	1	10	10	foodImage.77	FOODEEG_Images\0771.jpg	NY	Right	Yes	0.558758600000147	0	206366	252
405.126953125	0.558758600000147	taste	choicePhaseStart	1	10	10	foodImage.77	FOODEEG_Images\0771.jpg	NY	Right	Yes	0.558758600000147	0	207426	253
405.67578125	0	taste	response	1	10	10	foodImage.77	FOODEEG_Images\0771.jpg	NY	Right	Yes	0.558758600000147	0	207707	235
406.71484375	1	taste	trialStart	1	11	11	foodImage.101	FOODEEG_Images\0909.jpg	YN	Right	No	0.983007300001191	0	208239	251
407.755859375	2	taste	foodImageDisplay	1	11	11	foodImage.101	FOODEEG_Images\0909.jpg	YN	Right	No	0.983007300001191	0	208772	252
409.818359375	0.983007300001191	taste	choicePhaseStart	1	11	11	foodImage.101	FOODEEG_Images\0909.jpg	YN	Right	No	0.983007300001191	0	209828	253
410.794921875	0	taste	response	1	11	11	foodImage.101	FOODEEG_Images\0909.jpg	YN	Right	No	0.983007300001191	0	210328	235
411.837890625	1	health	trialStart	1	12	12	foodImage.84	FOODEEG_Images\0830.jpg	NY	Right	Yes	0.665008100000705	0	210862	251
412.8984375	2	health	foodImageDisplay	1	12	12	foodImage.84	FOODEEG_Images\0830.jpg	NY	Right	Yes	0.665008100000705	0	211405	252
414.962890625	0.665008100000705	health	choicePhaseStart	1	12	12	foodImage.84	FOODEEG_Images\0830.jpg	NY	Right	Yes	0.665008100000705	0	212462	253
415.619140625	0	health	response	1	12	12	foodImage.84	FOODEEG_Images\0830.jpg	NY	Right	Yes	0.665008100000705	0	212798	235
416.6640625	1	health	trialStart	1	13	13	foodImage.9	FOODEEG_Images\0138.jpg	YN	Right	No	0.770319600000221	0	213333	251
417.720703125	2	health	foodImageDisplay	1	13	13	foodImage.9	FOODEEG_Images\0138.jpg	YN	Right	No	0.770319600000221	0	213874	252
419.78515625	0.770319600000221	health	choicePhaseStart	1	13	13	foodImage.9	FOODEEG_Images\0138.jpg	YN	Right	No	0.770319600000221	0	214931	253
420.546875	0	health	response	1	13	13	foodImage.9	FOODEEG_Images\0138.jpg	YN	Right	No	0.770319600000221	0	215321	235
421.58984375	1	taste	trialStart	1	14	14	foodImage.28	FOODEEG_Images\0273.jpg	NY	Right	Yes	0.605389699998341	0	215855	251
422.630859375	2	taste	foodImageDisplay	1	14	14	foodImage.28	FOODEEG_Images\0273.jpg	NY	Right	Yes	0.605389699998341	0	216388	252
424.693359375	0.605389699998341	taste	choicePhaseStart	1	14	14	foodImage.28	FOODEEG_Images\0273.jpg	NY	Right	Yes	0.605389699998341	0	217444	253
425.291015625	0	taste	response	1	14	14	foodImage.28	FOODEEG_Images\0273.jpg	NY	Right	Yes	0.605389699998341	0	217750	235
426.341796875	1	health	trialStart	1	15	15	foodImage.19	FOODEEG_Images\0225.jpg	YN	Right	No	1.79028160000234	0	218288	251
427.3828125	2	health	foodImageDisplay	1	15	15	foodImage.19	FOODEEG_Images\0225.jpg	YN	Right	No	1.79028160000234	0	218821	252
429.44921875	1.79028160000234	health	choicePhaseStart	1	15	15	foodImage.19	FOODEEG_Images\0225.jpg	YN	Right	No	1.79028160000234	0	219879	253
431.234375	0	health	response	1	15	15	foodImage.19	FOODEEG_Images\0225.jpg	YN	Right	No	1.79028160000234	0	220793	235
432.279296875	1	taste	trialStart	1	16	16	foodImage.73	FOODEEG_Images\0717.jpg	NY	Right	Yes	1.56107930000144	0	221328	251
433.337890625	2	taste	foodImageDisplay	1	16	16	foodImage.73	FOODEEG_Images\0717.jpg	NY	Right	Yes	1.56107930000144	0	221870	252
435.40234375	1.56107930000144	taste	choicePhaseStart	1	16	16	foodImage.73	FOODEEG_Images\0717.jpg	NY	Right	Yes	1.56107930000144	0	222927	253
436.953125	0	taste	response	1	16	16	foodImage.73	FOODEEG_Images\0717.jpg	NY	Right	Yes	1.56107930000144	0	223721	235
437.99609375	1	decision	trialStart	1	17	17	foodImage.79	FOODEEG_Images\0794.jpg	NY	Right	Yes	0.739825499997096	0	224255	251
439.0390625	2	decision	foodImageDisplay	1	17	17	foodImage.79	FOODEEG_Images\0794.jpg	NY	Right	Yes	0.739825499997096	0	224789	252
441.103515625	0.739825499997096	decision	choicePhaseStart	1	17	17	foodImage.79	FOODEEG_Images\0794.jpg	NY	Right	Yes	0.739825499997096	0	225846	253
441.833984375	0	decision	response	1	17	17	foodImage.79	FOODEEG_Images\0794.jpg	NY	Right	Yes	0.739825499997096	0	226220	235
442.876953125	1	decision	trialStart	1	18	18	foodImage.81	FOODEEG_Images\0797.jpg	NY	Left	No	0.609803199997259	0	226754	251
443.9375	2	decision	foodImageDisplay	1	18	18	foodImage.81	FOODEEG_Images\0797.jpg	NY	Left	No	0.609803199997259	0	227297	252
446	0.609803199997259	decision	choicePhaseStart	1	18	18	foodImage.81	FOODEEG_Images\0797.jpg	NY	Left	No	0.609803199997259	0	228353	253
446.6015625	0	decision	response	1	18	18	foodImage.81	FOODEEG_Images\0797.jpg	NY	Left	No	0.609803199997259	0	228661	234
447.642578125	1	health	trialStart	1	19	19	foodImage.20	FOODEEG_Images\0226.jpg	NY	Right	Yes	1.08554650000224	0	229194	251
448.685546875	2	health	foodImageDisplay	1	19	19	foodImage.20	FOODEEG_Images\0226.jpg	NY	Right	Yes	1.08554650000224	0	229728	252
450.75	1.08554650000224	health	choicePhaseStart	1	19	19	foodImage.20	FOODEEG_Images\0226.jpg	NY	Right	Yes	1.08554650000224	0	230785	253
451.826171875	0	health	response	1	19	19	foodImage.20	FOODEEG_Images\0226.jpg	NY	Right	Yes	1.08554650000224	0	231336	235
452.865234375	1	taste	trialStart	1	20	20	foodImage.34	FOODEEG_Images\0339.jpg	NY	Left	No	1.31257530000221	0	231868	251
453.921875	2	taste	foodImageDisplay	1	20	20	foodImage.34	FOODEEG_Images\0339.jpg	NY	Left	No	1.31257530000221	0	232409	252
455.986328125	1.31257530000221	taste	choicePhaseStart	1	20	20	foodImage.34	FOODEEG_Images\0339.jpg	NY	Left	No	1.31257530000221	0	233466	253
457.2890625	0	taste	response	1	20	20	foodImage.34	FOODEEG_Images\0339.jpg	NY	Left	No	1.31257530000221	0	234133	234
458.337890625	1	decision	trialStart	1	21	21	foodImage.87	FOODEEG_Images\0873.jpg	NY	Right	Yes	0.482830399996601	0	234670	251
459.396484375	2	decision	foodImageDisplay	1	21	21	foodImage.87	FOODEEG_Images\0873.jpg	NY	Right	Yes	0.482830399996601	0	235212	252
461.458984375	0.482830399996601	decision	choicePhaseStart	1	21	21	foodImage.87	FOODEEG_Images\0873.jpg	NY	Right	Yes	0.482830399996601	0	236268	253
461.9375	0	decision	response	1	21	21	foodImage.87	FOODEEG_Images\0873.jpg	NY	Right	Yes	0.482830399996601	0	236513	235
462.98046875	1	taste	trialStart	1	22	22	foodImage.100	FOODEEG_Images\0908.jpg	NY	Left	No	0.579049899999518	0	237047	251
464.0234375	2	taste	foodImageDisplay	1	22	22	foodImage.100	FOODEEG_Images\0908.jpg	NY	Left	No	0.579049899999518	0	237581	252
466.087890625	0.579049899999518	taste	choicePhaseStart	1	22	22	foodImage.100	FOODEEG_Images\0908.jpg	NY	Left	No	0.579049899999518	0	238638	253
466.65625	0	taste	response	1	22	22	foodImage.100	FOODEEG_Images\0908.jpg	NY	Left	No	0.579049899999518	0	238929	234
467.697265625	1	health	trialStart	1	23	23	foodImage.115	FOODEEG_Images\0923.jpg	NY	Left	No	1.2726889000005	0	239462	251
468.73828125	2	health	foodImageDisplay	1	23	23	foodImage.115	FOODEEG_Images\0923.jpg	NY	Left	No	1.2726889000005	0	239995	252
470.80078125	1.2726889000005	health	choicePhaseStart	1	23	23	foodImage.115	FOODEEG_Images\0923.jpg	NY	Left	No	1.2726889000005	0	241051	253
472.064453125	0	health	response	1	23	23	foodImage.115	FOODEEG_Images\0923.jpg	NY	Left	No	1.2726889000005	0	241698	234
473.10546875	1	decision	trialStart	1	24	24	foodImage.18	FOODEEG_Images\0202.jpg	NY	Right	Yes	0.687091599997075	0	242231	251
474.162109375	2	decision	foodImageDisplay	1	24	24	foodImage.18	FOODEEG_Images\0202.jpg	NY	Right	Yes	0.687091599997075	0	242772	252
476.232421875	0.687091599997075	decision	choicePhaseStart	1	24	24	foodImage.18	FOODEEG_Images\0202.jpg	NY	Right	Yes	0.687091599997075	0	243832	253
476.912109375	0	decision	response	1	24	24	foodImage.18	FOODEEG_Images\0202.jpg	NY	Right	Yes	0.687091599997075	0	244180	235
477.955078125	1	taste	trialStart	1	25	25	foodImage.113	FOODEEG_Images\0921.jpg	NY	Left	No	0.846787999998924	0	244714	251
478.994140625	2	taste	foodImageDisplay	1	25	25	foodImage.113	FOODEEG_Images\0921.jpg	NY	Left	No	0.846787999998924	0	245246	252
481.05859375	0.846787999998924	taste	choicePhaseStart	1	25	25	foodImage.113	FOODEEG_Images\0921.jpg	NY	Left	No	0.846787999998924	0	246303	253
481.896484375	0	taste	response	1	25	25	foodImage.113	FOODEEG_Images\0921.jpg	NY	Left	No	0.846787999998924	0	246732	234
482.9375	1	taste	trialStart	1	26	26	foodImage.74	FOODEEG_Images\0752.jpg	NY	Right	Yes	1.20244280000043	0	247265	251
483.982421875	2	taste	foodImageDisplay	1	26	26	foodImage.74	FOODEEG_Images\0752.jpg	NY	Right	Yes	1.20244280000043	0	247800	252
486.046875	1.20244280000043	taste	choicePhaseStart	1	26	26	foodImage.74	FOODEEG_Images\0752.jpg	NY	Right	Yes	1.20244280000043	0	248857	253
487.240234375	0	taste	response	1	26	26	foodImage.74	FOODEEG_Images\0752.jpg	NY	Right	Yes	1.20244280000043	0	249468	235
488.291015625	1	health	trialStart	1	27	27	foodImage.104	FOODEEG_Images\0912.jpg	NY	Left	No	0.631976900000154	0	250006	251
489.330078125	2	health	foodImageDisplay	1	27	27	foodImage.104	FOODEEG_Images\0912.jpg	NY	Left	No	0.631976900000154	0	250538	252
491.392578125	0.631976900000154	health	choicePhaseStart	1	27	27	foodImage.104	FOODEEG_Images\0912.jpg	NY	Left	No	0.631976900000154	0	251594	253
492.015625	0	health	response	1	27	27	foodImage.104	FOODEEG_Images\0912.jpg	NY	Left	No	0.631976900000154	0	251913	234
493.05859375	1	health	trialStart	1	28	28	foodImage.6	FOODEEG_Images\0113.jpg	YN	Right	No	0.710274799999752	0	252447	251
494.1015625	2	health	foodImageDisplay	1	28	28	foodImage.6	FOODEEG_Images\0113.jpg	YN	Right	No	0.710274799999752	0	252981	252
496.171875	0.710274799999752	health	choicePhaseStart	1	28	28	foodImage.6	FOODEEG_Images\0113.jpg	YN	Right	No	0.710274799999752	0	254041	253
496.87109375	0	health	response	1	28	28	foodImage.6	FOODEEG_Images\0113.jpg	YN	Right	No	0.710274799999752	0	254399	235
497.9140625	1	decision	trialStart	1	29	29	foodImage.55	FOODEEG_Images\0567.jpg	NY	Right	Yes	0.703427600001305	0	254933	251
498.96875	2	decision	foodImageDisplay	1	29	29	foodImage.55	FOODEEG_Images\0567.jpg	NY	Right	Yes	0.703427600001305	0	255473	252
501.033203125	0.703427600001305	decision	choicePhaseStart	1	29	29	foodImage.55	FOODEEG_Images\0567.jpg	NY	Right	Yes	0.703427600001305	0	256530	253
501.7265625	0	decision	response	1	29	29	foodImage.55	FOODEEG_Images\0567.jpg	NY	Right	Yes	0.703427600001305	0	256885	235
502.779296875	1	health	trialStart	1	30	30	foodImage.24	FOODEEG_Images\0250.jpg	NY	Right	Yes	0.734297899998637	0	257424	251
503.82421875	2	health	foodImageDisplay	1	30	30	foodImage.24	FOODEEG_Images\0250.jpg	NY	Right	Yes	0.734297899998637	0	257959	252
505.888671875	0.734297899998637	health	choicePhaseStart	1	30	30	foodImage.24	FOODEEG_Images\0250.jpg	NY	Right	Yes	0.734297899998637	0	259016	253
506.615234375	0	health	response	1	30	30	foodImage.24	FOODEEG_Images\0250.jpg	NY	Right	Yes	0.734297899998637	0	259388	235
507.66015625	1	health	trialStart	1	31	31	foodImage.80	FOODEEG_Images\0796.jpg	NY	Right	Yes	0.600237300001027	0	259923	251
508.720703125	2	health	foodImageDisplay	1	31	31	foodImage.80	FOODEEG_Images\0796.jpg	NY	Right	Yes	0.600237300001027	0	260466	252
510.7890625	0.600237300001027	health	choicePhaseStart	1	31	31	foodImage.80	FOODEEG_Images\0796.jpg	NY	Right	Yes	0.600237300001027	0	261525	253
511.3828125	0	health	response	1	31	31	foodImage.80	FOODEEG_Images\0796.jpg	NY	Right	Yes	0.600237300001027	0	261829	235
512.423828125	1	decision	trialStart	1	32	32	foodImage.90	FOODEEG_Images\0890.jpg	YN	Left	Yes	0.872295500001201	0	262362	251
513.48046875	2	decision	foodImageDisplay	1	32	32	foodImage.90	FOODEEG_Images\0890.jpg	YN	Left	Yes	0.872295500001201	0	262903	252
515.544921875	0.872295500001201	decision	choicePhaseStart	1	32	32	foodImage.90	FOODEEG_Images\0890.jpg	YN	Left	Yes	0.872295500001201	0	263960	253
516.40625	0	decision	response	1	32	32	foodImage.90	FOODEEG_Images\0890.jpg	YN	Left	Yes	0.872295500001201	0	264401	234
517.44921875	1	health	trialStart	1	33	33	foodImage.52	FOODEEG_Images\0539.jpg	YN	Left	Yes	0.627880899999582	0	264935	251
518.5078125	2	health	foodImageDisplay	1	33	33	foodImage.52	FOODEEG_Images\0539.jpg	YN	Left	Yes	0.627880899999582	0	265477	252
520.572265625	0.627880899999582	health	choicePhaseStart	1	33	33	foodImage.52	FOODEEG_Images\0539.jpg	YN	Left	Yes	0.627880899999582	0	266534	253
521.19140625	0	health	response	1	33	33	foodImage.52	FOODEEG_Images\0539.jpg	YN	Left	Yes	0.627880899999582	0	266851	234
522.232421875	1	taste	trialStart	1	34	34	foodImage.7	FOODEEG_Images\0116.jpg	NY	Right	Yes	0.686487099999795	0	267384	251
523.275390625	2	taste	foodImageDisplay	1	34	34	foodImage.7	FOODEEG_Images\0116.jpg	NY	Right	Yes	0.686487099999795	0	267918	252
525.337890625	0.686487099999795	taste	choicePhaseStart	1	34	34	foodImage.7	FOODEEG_Images\0116.jpg	NY	Right	Yes	0.686487099999795	0	268974	253
526.013671875	0	taste	response	1	34	34	foodImage.7	FOODEEG_Images\0116.jpg	NY	Right	Yes	0.686487099999795	0	269320	235
527.056640625	1	health	trialStart	1	35	35	foodImage.103	FOODEEG_Images\0911.jpg	YN	Right	No	1.12814219999927	0	269854	251
528.095703125	2	health	foodImageDisplay	1	35	35	foodImage.103	FOODEEG_Images\0911.jpg	YN	Right	No	1.12814219999927	0	270386	252
530.158203125	1.12814219999927	health	choicePhaseStart	1	35	35	foodImage.103	FOODEEG_Images\0911.jpg	YN	Right	No	1.12814219999927	0	271442	253
531.27734375	0	health	response	1	35	35	foodImage.103	FOODEEG_Images\0911.jpg	YN	Right	No	1.12814219999927	0	272015	235
532.32421875	1	taste	trialStart	1	36	36	foodImage.89	FOODEEG_Images\0881.jpg	YN	Left	Yes	0.812750199998845	0	272551	251
533.37890625	2	taste	foodImageDisplay	1	36	36	foodImage.89	FOODEEG_Images\0881.jpg	YN	Left	Yes	0.812750199998845	0	273091	252
535.44140625	0.812750199998845	taste	choicePhaseStart	1	36	36	foodImage.89	FOODEEG_Images\0881.jpg	YN	Left	Yes	0.812750199998845	0	274147	253
536.24609375	0	taste	response	1	36	36	foodImage.89	FOODEEG_Images\0881.jpg	YN	Left	Yes	0.812750199998845	0	274559	234
537.287109375	1	decision	trialStart	1	37	37	foodImage.105	FOODEEG_Images\0913.jpg	YN	Right	No	0.621064800001477	0	275092	251
538.32421875	2	decision	foodImageDisplay	1	37	37	foodImage.105	FOODEEG_Images\0913.jpg	YN	Right	No	0.621064800001477	0	275623	252
540.392578125	0.621064800001477	decision	choicePhaseStart	1	37	37	foodImage.105	FOODEEG_Images\0913.jpg	YN	Right	No	0.621064800001477	0	276682	253
541.005859375	0	decision	response	1	37	37	foodImage.105	FOODEEG_Images\0913.jpg	YN	Right	No	0.621064800001477	0	276996	235
542.048828125	1	health	trialStart	1	38	38	foodImage.55	FOODEEG_Images\0567.jpg	YN	Left	Yes	1.32354600000326	0	277530	251
543.103515625	2	health	foodImageDisplay	1	38	38	foodImage.55	FOODEEG_Images\0567.jpg	YN	Left	Yes	1.32354600000326	0	278070	252
545.169921875	1.32354600000326	health	choicePhaseStart	1	38	38	foodImage.55	FOODEEG_Images\0567.jpg	YN	Left	Yes	1.32354600000326	0	279128	253
546.486328125	0	health	response	1	38	38	foodImage.55	FOODEEG_Images\0567.jpg	YN	Left	Yes	1.32354600000326	0	279802	234
547.52734375	1	taste	trialStart	1	39	39	foodImage.58	FOODEEG_Images\0605.jpg	NY	Right	Yes	0.611832800001139	0	280335	251
548.5859375	2	taste	foodImageDisplay	1	39	39	foodImage.58	FOODEEG_Images\0605.jpg	NY	Right	Yes	0.611832800001139	0	280877	252
550.650390625	0.611832800001139	taste	choicePhaseStart	1	39	39	foodImage.58	FOODEEG_Images\0605.jpg	NY	Right	Yes	0.611832800001139	0	281934	253
551.25390625	0	taste	response	1	39	39	foodImage.58	FOODEEG_Images\0605.jpg	NY	Right	Yes	0.611832800001139	0	282243	235
552.30078125	1	health	trialStart	1	40	40	foodImage.90	FOODEEG_Images\0890.jpg	NY	Right	Yes	0.621404299999995	0	282779	251
553.357421875	2	health	foodImageDisplay	1	40	40	foodImage.90	FOODEEG_Images\0890.jpg	NY	Right	Yes	0.621404299999995	0	283320	252
555.421875	0.621404299999995	health	choicePhaseStart	1	40	40	foodImage.90	FOODEEG_Images\0890.jpg	NY	Right	Yes	0.621404299999995	0	284377	253
556.037109375	0	health	response	1	40	40	foodImage.90	FOODEEG_Images\0890.jpg	NY	Right	Yes	0.621404299999995	0	284692	235
557.087890625	1	taste	trialStart	1	41	41	foodImage.24	FOODEEG_Images\0250.jpg	NY	Right	Yes	1.14129129999856	0	285230	251
558.12890625	2	taste	foodImageDisplay	1	41	41	foodImage.24	FOODEEG_Images\0250.jpg	NY	Right	Yes	1.14129129999856	0	285763	252
560.193359375	1.14129129999856	taste	choicePhaseStart	1	41	41	foodImage.24	FOODEEG_Images\0250.jpg	NY	Right	Yes	1.14129129999856	0	286820	253
561.32421875	0	taste	response	1	41	41	foodImage.24	FOODEEG_Images\0250.jpg	NY	Right	Yes	1.14129129999856	0	287399	235
562.365234375	1	taste	trialStart	1	42	42	foodImage.27	FOODEEG_Images\0263.jpg	NY	Right	Yes	0.472389499998826	0	287932	251
563.421875	2	taste	foodImageDisplay	1	42	42	foodImage.27	FOODEEG_Images\0263.jpg	NY	Right	Yes	0.472389499998826	0	288473	252
565.486328125	0.472389499998826	taste	choicePhaseStart	1	42	42	foodImage.27	FOODEEG_Images\0263.jpg	NY	Right	Yes	0.472389499998826	0	289530	253
565.94921875	0	taste	response	1	42	42	foodImage.27	FOODEEG_Images\0263.jpg	NY	Right	Yes	0.472389499998826	0	289767	235
566.998046875	1	health	trialStart	1	43	43	foodImage.53	FOODEEG_Images\0547.jpg	YN	Right	No	1.13051369999812	0	290304	251
568.0546875	2	health	foodImageDisplay	1	43	43	foodImage.53	FOODEEG_Images\0547.jpg	YN	Right	No	1.13051369999812	0	290845	252
570.123046875	1.13051369999812	health	choicePhaseStart	1	43	43	foodImage.53	FOODEEG_Images\0547.jpg	YN	Right	No	1.13051369999812	0	291904	253
571.244140625	0	health	response	1	43	43	foodImage.53	FOODEEG_Images\0547.jpg	YN	Right	No	1.13051369999812	0	292478	235
572.287109375	1	health	trialStart	1	44	44	foodImage.67	FOODEEG_Images\0679.jpg	NY	Left	No	1.16499110000223	0	293012	251
573.345703125	2	health	foodImageDisplay	1	44	44	foodImage.67	FOODEEG_Images\0679.jpg	NY	Left	No	1.16499110000223	0	293554	252
575.408203125	1.16499110000223	health	choicePhaseStart	1	44	44	foodImage.67	FOODEEG_Images\0679.jpg	NY	Left	No	1.16499110000223	0	294610	253
576.564453125	0	health	response	1	44	44	foodImage.67	FOODEEG_Images\0679.jpg	NY	Left	No	1.16499110000223	0	295202	234
577.607421875	1	health	trialStart	1	45	45	foodImage.88	FOODEEG_Images\0878.jpg	NY	Left	No	0.959722399999009	0	295736	251
578.6640625	2	health	foodImageDisplay	1	45	45	foodImage.88	FOODEEG_Images\0878.jpg	NY	Left	No	0.959722399999009	0	296277	252
580.73046875	0.959722399999009	health	choicePhaseStart	1	45	45	foodImage.88	FOODEEG_Images\0878.jpg	NY	Left	No	0.959722399999009	0	297335	253
581.68359375	0	health	response	1	45	45	foodImage.88	FOODEEG_Images\0878.jpg	NY	Left	No	0.959722399999009	0	297823	234
582.728515625	1	decision	trialStart	1	46	46	foodImage.80	FOODEEG_Images\0796.jpg	NY	Right	Yes	0.546049300002778	0	298358	251
583.78515625	2	decision	foodImageDisplay	1	46	46	foodImage.80	FOODEEG_Images\0796.jpg	NY	Right	Yes	0.546049300002778	0	298899	252
585.849609375	0.546049300002778	decision	choicePhaseStart	1	46	46	foodImage.80	FOODEEG_Images\0796.jpg	NY	Right	Yes	0.546049300002778	0	299956	253
586.38671875	0	decision	response	1	46	46	foodImage.80	FOODEEG_Images\0796.jpg	NY	Right	Yes	0.546049300002778	0	300231	235
587.4296875	1	decision	trialStart	1	47	47	foodImage.38	FOODEEG_Images\0365.jpg	YN	Left	Yes	1.06445919999896	0	300765	251
588.46875	2	decision	foodImageDisplay	1	47	47	foodImage.38	FOODEEG_Images\0365.jpg	YN	Left	Yes	1.06445919999896	0	301297	252
590.533203125	1.06445919999896	decision	choicePhaseStart	1	47	47	foodImage.38	FOODEEG_Images\0365.jpg	YN	Left	Yes	1.06445919999896	0	302354	253
591.587890625	0	decision	response	1	47	47	foodImage.38	FOODEEG_Images\0365.jpg	YN	Left	Yes	1.06445919999896	0	302894	234
592.630859375	1	taste	trialStart	1	48	48	foodImage.42	FOODEEG_Images\0438.jpg	YN	Right	No	1.69952779999949	0	303428	251
593.73828125	2	taste	foodImageDisplay	1	48	48	foodImage.42	FOODEEG_Images\0438.jpg	YN	Right	No	1.69952779999949	0	303995	252
595.80078125	1.69952779999949	taste	choicePhaseStart	1	48	48	foodImage.42	FOODEEG_Images\0438.jpg	YN	Right	No	1.69952779999949	0	305051	253
597.4921875	0	taste	response	1	48	48	foodImage.42	FOODEEG_Images\0438.jpg	YN	Right	No	1.69952779999949	0	305917	235
598.53125	1	decision	trialStart	1	49	49	foodImage.120	FOODEEG_Images\0928.jpg	YN	Right	No	0.559045800000604	0	306449	251
599.57421875	2	decision	foodImageDisplay	1	49	49	foodImage.120	FOODEEG_Images\0928.jpg	YN	Right	No	0.559045800000604	0	306983	252
601.638671875	0.559045800000604	decision	choicePhaseStart	1	49	49	foodImage.120	FOODEEG_Images\0928.jpg	YN	Right	No	0.559045800000604	0	308040	253
602.1875	0	decision	response	1	49	49	foodImage.120	FOODEEG_Images\0928.jpg	YN	Right	No	0.559045800000604	0	308321	235
603.234375	1	taste	trialStart	1	50	50	foodImage.47	FOODEEG_Images\0488.jpg	NY	Right	Yes	1.25116210000124	0	308857	251
604.28125	2	taste	foodImageDisplay	1	50	50	foodImage.47	FOODEEG_Images\0488.jpg	NY	Right	Yes	1.25116210000124	0	309393	252
606.345703125	1.25116210000124	taste	choicePhaseStart	1	50	50	foodImage.47	FOODEEG_Images\0488.jpg	NY	Right	Yes	1.25116210000124	0	310450	253
607.587890625	0	taste	response	1	50	50	foodImage.47	FOODEEG_Images\0488.jpg	NY	Right	Yes	1.25116210000124	0	311086	235
608.626953125	1	taste	trialStart	1	51	51	foodImage.108	FOODEEG_Images\0916.jpg	YN	Right	No	0.587124500001664	0	311618	251
609.6640625	2	taste	foodImageDisplay	1	51	51	foodImage.108	FOODEEG_Images\0916.jpg	YN	Right	No	0.587124500001664	0	312149	252
611.728515625	0.587124500001664	taste	choicePhaseStart	1	51	51	foodImage.108	FOODEEG_Images\0916.jpg	YN	Right	No	0.587124500001664	0	313206	253
612.306640625	0	taste	response	1	51	51	foodImage.108	FOODEEG_Images\0916.jpg	YN	Right	No	0.587124500001664	0	313502	235
613.353515625	1	health	trialStart	1	52	52	foodImage.31	FOODEEG_Images\0294.jpg	NY	Left	No	0.886872099999891	0	314038	251
614.396484375	2	health	foodImageDisplay	1	52	52	foodImage.31	FOODEEG_Images\0294.jpg	NY	Left	No	0.886872099999891	0	314572	252
616.4609375	0.886872099999891	health	choicePhaseStart	1	52	52	foodImage.31	FOODEEG_Images\0294.jpg	NY	Left	No	0.886872099999891	0	315629	253
617.337890625	0	health	response	1	52	52	foodImage.31	FOODEEG_Images\0294.jpg	NY	Left	No	0.886872099999891	0	316078	234
618.380859375	1	decision	trialStart	1	53	53	foodImage.91	FOODEEG_Images\0896.jpg	NY	Right	Yes	0.571387500000128	0	316612	251
619.439453125	2	decision	foodImageDisplay	1	53	53	foodImage.91	FOODEEG_Images\0896.jpg	NY	Right	Yes	0.571387500000128	0	317154	252
621.50390625	0.571387500000128	decision	choicePhaseStart	1	53	53	foodImage.91	FOODEEG_Images\0896.jpg	NY	Right	Yes	0.571387500000128	0	318211	253
622.06640625	0	decision	response	1	53	53	foodImage.91	FOODEEG_Images\0896.jpg	NY	Right	Yes	0.571387500000128	0	318499	235
623.109375	1	health	trialStart	1	54	54	foodImage.113	FOODEEG_Images\0921.jpg	YN	Right	No	0.795856700002332	0	319033	251
624.150390625	2	health	foodImageDisplay	1	54	54	foodImage.113	FOODEEG_Images\0921.jpg	YN	Right	No	0.795856700002332	0	319566	252
626.212890625	0.795856700002332	health	choicePhaseStart	1	54	54	foodImage.113	FOODEEG_Images\0921.jpg	YN	Right	No	0.795856700002332	0	320622	253
627.001953125	0	health	response	1	54	54	foodImage.113	FOODEEG_Images\0921.jpg	YN	Right	No	0.795856700002332	0	321026	235
628.05078125	1	health	trialStart	1	55	55	foodImage.30	FOODEEG_Images\0282.jpg	NY	Right	Yes	0.566232400000445	0	321563	251
629.09375	2	health	foodImageDisplay	1	55	55	foodImage.30	FOODEEG_Images\0282.jpg	NY	Right	Yes	0.566232400000445	0	322097	252
631.15625	0.566232400000445	health	choicePhaseStart	1	55	55	foodImage.30	FOODEEG_Images\0282.jpg	NY	Right	Yes	0.566232400000445	0	323153	253
631.712890625	0	health	response	1	55	55	foodImage.30	FOODEEG_Images\0282.jpg	NY	Right	Yes	0.566232400000445	0	323438	235
632.755859375	1	taste	trialStart	1	56	56	foodImage.1	FOODEEG_Images\0004.jpg	YN	Left	Yes	0.61466289999953	0	323972	251
633.798828125	2	taste	foodImageDisplay	1	56	56	foodImage.1	FOODEEG_Images\0004.jpg	YN	Left	Yes	0.61466289999953	0	324506	252
635.861328125	0.61466289999953	taste	choicePhaseStart	1	56	56	foodImage.1	FOODEEG_Images\0004.jpg	YN	Left	Yes	0.61466289999953	0	325562	253
636.466796875	0	taste	response	1	56	56	foodImage.1	FOODEEG_Images\0004.jpg	YN	Left	Yes	0.61466289999953	0	325872	234
637.5078125	1	health	trialStart	1	57	57	foodImage.57	FOODEEG_Images\0587.jpg	YN	Right	No	1.38562029999957	0	326405	251
638.552734375	2	health	foodImageDisplay	1	57	57	foodImage.57	FOODEEG_Images\0587.jpg	YN	Right	No	1.38562029999957	0	326940	252
640.6171875	1.38562029999957	health	choicePhaseStart	1	57	57	foodImage.57	FOODEEG_Images\0587.jpg	YN	Right	No	1.38562029999957	0	327997	253
641.994140625	0	health	response	1	57	57	foodImage.57	FOODEEG_Images\0587.jpg	YN	Right	No	1.38562029999957	0	328702	235
643.037109375	1	taste	trialStart	1	58	58	foodImage.117	FOODEEG_Images\0925.jpg	NY	Left	No	0.72796820000076	0	329236	251
644.076171875	2	taste	foodImageDisplay	1	58	58	foodImage.117	FOODEEG_Images\0925.jpg	NY	Left	No	0.72796820000076	0	329768	252
646.138671875	0.72796820000076	taste	choicePhaseStart	1	58	58	foodImage.117	FOODEEG_Images\0925.jpg	NY	Left	No	0.72796820000076	0	330824	253
646.857421875	0	taste	response	1	58	58	foodImage.117	FOODEEG_Images\0925.jpg	NY	Left	No	0.72796820000076	0	331192	234
647.8984375	1	taste	trialStart	1	59	59	foodImage.46	FOODEEG_Images\0479.jpg	NY	Right	Yes	0.626879999999801	0	331725	251
648.9609375	2	taste	foodImageDisplay	1	59	59	foodImage.46	FOODEEG_Images\0479.jpg	NY	Right	Yes	0.626879999999801	0	332269	252
651.0234375	0.626879999999801	taste	choicePhaseStart	1	59	59	foodImage.46	FOODEEG_Images\0479.jpg	NY	Right	Yes	0.626879999999801	0	333325	253
651.640625	0	taste	response	1	59	59	foodImage.46	FOODEEG_Images\0479.jpg	NY	Right	Yes	0.626879999999801	0	333641	235
652.68359375	1	health	trialStart	1	60	60	foodImage.33	FOODEEG_Images\0329.jpg	NY	Right	Yes	0.8367782000023	0	334175	251
653.7265625	2	health	foodImageDisplay	1	60	60	foodImage.33	FOODEEG_Images\0329.jpg	NY	Right	Yes	0.8367782000023	0	334709	252
655.7890625	0.8367782000023	health	choicePhaseStart	1	60	60	foodImage.33	FOODEEG_Images\0329.jpg	NY	Right	Yes	0.8367782000023	0	335765	253
656.6171875	0	health	response	1	60	60	foodImage.33	FOODEEG_Images\0329.jpg	NY	Right	Yes	0.8367782000023	0	336189	235
658.6640625	10.455078125	n/a	blockEnd	n/a	n/a	n/a	n/a	n/a	n/a	n/a	n/a	n/a	n/a	337237	254
669.119140625	2	n/a	blockStart	2	n/a	n/a	n/a	n/a	n/a	n/a	n/a	n/a	n/a	342590	250
671.150390625	1	taste	trialStart	2	61	1	foodImage.92	FOODEEG_Images\0900.jpg	YN	Right	No	0.753446300001087	0	343630	251
672.19140625	2	taste	foodImageDisplay	2	61	1	foodImage.92	FOODEEG_Images\0900.jpg	YN	Right	No	0.753446300001087	0	344163	252
674.255859375	0.753446300001087	taste	choicePhaseStart	2	61	1	foodImage.92	FOODEEG_Images\0900.jpg	YN	Right	No	0.753446300001087	0	345220	253
675	0	taste	response	2	61	1	foodImage.92	FOODEEG_Images\0900.jpg	YN	Right	No	0.753446300001087	0	345601	235
676.044921875	1	decision	trialStart	2	62	2	foodImage.11	FOODEEG_Images\0180.jpg	NY	Right	Yes	1.13964349999878	0	346136	251
677.0859375	2	decision	foodImageDisplay	2	62	2	foodImage.11	FOODEEG_Images\0180.jpg	NY	Right	Yes	1.13964349999878	0	346669	252
679.150390625	1.13964349999878	decision	choicePhaseStart	2	62	2	foodImage.11	FOODEEG_Images\0180.jpg	NY	Right	Yes	1.13964349999878	0	347726	253
680.28125	0	decision	response	2	62	2	foodImage.11	FOODEEG_Images\0180.jpg	NY	Right	Yes	1.13964349999878	0	348305	235
681.322265625	1	health	trialStart	2	63	3	foodImage.91	FOODEEG_Images\0896.jpg	YN	Left	Yes	1.0946229000001	0	348838	251
682.37890625	2	health	foodImageDisplay	2	63	3	foodImage.91	FOODEEG_Images\0896.jpg	YN	Left	Yes	1.0946229000001	0	349379	252
684.443359375	1.0946229000001	health	choicePhaseStart	2	63	3	foodImage.91	FOODEEG_Images\0896.jpg	YN	Left	Yes	1.0946229000001	0	350436	253
685.52734375	0	health	response	2	63	3	foodImage.91	FOODEEG_Images\0896.jpg	YN	Left	Yes	1.0946229000001	0	350991	234
686.576171875	1	health	trialStart	2	64	4	foodImage.29	FOODEEG_Images\0278.jpg	YN	Left	Yes	0.602027199998702	0	351528	251
687.630859375	2	health	foodImageDisplay	2	64	4	foodImage.29	FOODEEG_Images\0278.jpg	YN	Left	Yes	0.602027199998702	0	352068	252
689.6953125	0.602027199998702	health	choicePhaseStart	2	64	4	foodImage.29	FOODEEG_Images\0278.jpg	YN	Left	Yes	0.602027199998702	0	353125	253
690.287109375	0	health	response	2	64	4	foodImage.29	FOODEEG_Images\0278.jpg	YN	Left	Yes	0.602027199998702	0	353428	234
691.330078125	1	decision	trialStart	2	65	5	foodImage.60	FOODEEG_Images\0614.jpg	NY	Right	Yes	0.604239399999642	0	353962	251
692.388671875	2	decision	foodImageDisplay	2	65	5	foodImage.60	FOODEEG_Images\0614.jpg	NY	Right	Yes	0.604239399999642	0	354504	252
694.453125	0.604239399999642	decision	choicePhaseStart	2	65	5	foodImage.60	FOODEEG_Images\0614.jpg	NY	Right	Yes	0.604239399999642	0	355561	253
695.046875	0	decision	response	2	65	5	foodImage.60	FOODEEG_Images\0614.jpg	NY	Right	Yes	0.604239399999642	0	355865	235
696.08984375	1	taste	trialStart	2	66	6	foodImage.67	FOODEEG_Images\0679.jpg	YN	Left	Yes	0.660752899999352	0	356399	251
697.1484375	2	taste	foodImageDisplay	2	66	6	foodImage.67	FOODEEG_Images\0679.jpg	YN	Left	Yes	0.660752899999352	0	356941	252
699.212890625	0.660752899999352	taste	choicePhaseStart	2	66	6	foodImage.67	FOODEEG_Images\0679.jpg	YN	Left	Yes	0.660752899999352	0	357998	253
699.86328125	0	taste	response	2	66	6	foodImage.67	FOODEEG_Images\0679.jpg	YN	Left	Yes	0.660752899999352	0	358331	234
700.90625	1	health	trialStart	2	67	7	foodImage.15	FOODEEG_Images\0189.jpg	YN	Right	No	0.766660099998262	0	358865	251
701.962890625	2	health	foodImageDisplay	2	67	7	foodImage.15	FOODEEG_Images\0189.jpg	YN	Right	No	0.766660099998262	0	359406	252
704.025390625	0.766660099998262	health	choicePhaseStart	2	67	7	foodImage.15	FOODEEG_Images\0189.jpg	YN	Right	No	0.766660099998262	0	360462	253
704.783203125	0	health	response	2	67	7	foodImage.15	FOODEEG_Images\0189.jpg	YN	Right	No	0.766660099998262	0	360850	235
705.826171875	1	health	trialStart	2	68	8	foodImage.4	FOODEEG_Images\0065.jpg	NY	Right	Yes	1.47326910000265	0	361384	251
706.880859375	2	health	foodImageDisplay	2	68	8	foodImage.4	FOODEEG_Images\0065.jpg	NY	Right	Yes	1.47326910000265	0	361924	252
708.943359375	1.47326910000265	health	choicePhaseStart	2	68	8	foodImage.4	FOODEEG_Images\0065.jpg	NY	Right	Yes	1.47326910000265	0	362980	253
710.40625	0	health	response	2	68	8	foodImage.4	FOODEEG_Images\0065.jpg	NY	Right	Yes	1.47326910000265	0	363729	235
711.455078125	1	decision	trialStart	2	69	9	foodImage.1	FOODEEG_Images\0004.jpg	YN	Left	Yes	0.705787499999133	0	364266	251
712.49609375	2	decision	foodImageDisplay	2	69	9	foodImage.1	FOODEEG_Images\0004.jpg	YN	Left	Yes	0.705787499999133	0	364799	252
714.55859375	0.705787499999133	decision	choicePhaseStart	2	69	9	foodImage.1	FOODEEG_Images\0004.jpg	YN	Left	Yes	0.705787499999133	0	365855	253
715.25390625	0	decision	response	2	69	9	foodImage.1	FOODEEG_Images\0004.jpg	YN	Left	Yes	0.705787499999133	0	366211	234
716.296875	1	taste	trialStart	2	70	10	foodImage.78	FOODEEG_Images\0787.jpg	NY	Right	Yes	0.872233699999924	0	366745	251
717.341796875	2	taste	foodImageDisplay	2	70	10	foodImage.78	FOODEEG_Images\0787.jpg	NY	Right	Yes	0.872233699999924	0	367280	252
719.40625	0.872233699999924	taste	choicePhaseStart	2	70	10	foodImage.78	FOODEEG_Images\0787.jpg	NY	Right	Yes	0.872233699999924	0	368337	253
720.271484375	0	taste	response	2	70	10	foodImage.78	FOODEEG_Images\0787.jpg	NY	Right	Yes	0.872233699999924	0	368780	235
721.314453125	1	decision	trialStart	2	71	11	foodImage.64	FOODEEG_Images\0647.jpg	NY	Right	Yes	0.650329900003271	0	369314	251
722.373046875	2	decision	foodImageDisplay	2	71	11	foodImage.64	FOODEEG_Images\0647.jpg	NY	Right	Yes	0.650329900003271	0	369856	252
724.435546875	0.650329900003271	decision	choicePhaseStart	2	71	11	foodImage.64	FOODEEG_Images\0647.jpg	NY	Right	Yes	0.650329900003271	0	370912	253
725.078125	0	decision	response	2	71	11	foodImage.64	FOODEEG_Images\0647.jpg	NY	Right	Yes	0.650329900003271	0	371241	235
726.123046875	1	health	trialStart	2	72	12	foodImage.94	FOODEEG_Images\0902.jpg	YN	Right	No	0.63169619999826	0	371776	251
727.162109375	2	health	foodImageDisplay	2	72	12	foodImage.94	FOODEEG_Images\0902.jpg	YN	Right	No	0.63169619999826	0	372308	252
729.224609375	0.63169619999826	health	choicePhaseStart	2	72	12	foodImage.94	FOODEEG_Images\0902.jpg	YN	Right	No	0.63169619999826	0	373364	253
729.845703125	0	health	response	2	72	12	foodImage.94	FOODEEG_Images\0902.jpg	YN	Right	No	0.63169619999826	0	373682	235
730.888671875	1	health	trialStart	2	73	13	foodImage.74	FOODEEG_Images\0752.jpg	YN	Left	Yes	0.643868700000894	0	374216	251
731.931640625	2	health	foodImageDisplay	2	73	13	foodImage.74	FOODEEG_Images\0752.jpg	YN	Left	Yes	0.643868700000894	0	374750	252
733.994140625	0.643868700000894	health	choicePhaseStart	2	73	13	foodImage.74	FOODEEG_Images\0752.jpg	YN	Left	Yes	0.643868700000894	0	375806	253
734.62890625	0	health	response	2	73	13	foodImage.74	FOODEEG_Images\0752.jpg	YN	Left	Yes	0.643868700000894	0	376131	234
735.66796875	1	decision	trialStart	2	74	14	foodImage.4	FOODEEG_Images\0065.jpg	YN	Left	Yes	0.502151000000595	0	376663	251
736.724609375	2	decision	foodImageDisplay	2	74	14	foodImage.4	FOODEEG_Images\0065.jpg	YN	Left	Yes	0.502151000000595	0	377204	252
738.78515625	0.502151000000595	decision	choicePhaseStart	2	74	14	foodImage.4	FOODEEG_Images\0065.jpg	YN	Left	Yes	0.502151000000595	0	378259	253
739.27734375	0	decision	response	2	74	14	foodImage.4	FOODEEG_Images\0065.jpg	YN	Left	Yes	0.502151000000595	0	378511	234
740.3203125	1	health	trialStart	2	75	15	foodImage.39	FOODEEG_Images\0367.jpg	YN	Right	No	0.73332560000199	0	379045	251
741.359375	2	health	foodImageDisplay	2	75	15	foodImage.39	FOODEEG_Images\0367.jpg	YN	Right	No	0.73332560000199	0	379577	252
743.423828125	0.73332560000199	health	choicePhaseStart	2	75	15	foodImage.39	FOODEEG_Images\0367.jpg	YN	Right	No	0.73332560000199	0	380634	253
744.150390625	0	health	response	2	75	15	foodImage.39	FOODEEG_Images\0367.jpg	YN	Right	No	0.73332560000199	0	381006	235
745.19921875	1	health	trialStart	2	76	16	foodImage.70	FOODEEG_Images\0705.jpg	YN	Right	No	0.790329399998882	0	381543	251
746.255859375	2	health	foodImageDisplay	2	76	16	foodImage.70	FOODEEG_Images\0705.jpg	YN	Right	No	0.790329399998882	0	382084	252
748.3203125	0.790329399998882	health	choicePhaseStart	2	76	16	foodImage.70	FOODEEG_Images\0705.jpg	YN	Right	No	0.790329399998882	0	383141	253
749.1015625	0	health	response	2	76	16	foodImage.70	FOODEEG_Images\0705.jpg	YN	Right	No	0.790329399998882	0	383541	235
750.142578125	1	taste	trialStart	2	77	17	foodImage.71	FOODEEG_Images\0713.jpg	YN	Left	Yes	0.707983399999648	0	384074	251
751.1875	2	taste	foodImageDisplay	2	77	17	foodImage.71	FOODEEG_Images\0713.jpg	YN	Left	Yes	0.707983399999648	0	384609	252
753.251953125	0.707983399999648	taste	choicePhaseStart	2	77	17	foodImage.71	FOODEEG_Images\0713.jpg	YN	Left	Yes	0.707983399999648	0	385666	253
753.94921875	0	taste	response	2	77	17	foodImage.71	FOODEEG_Images\0713.jpg	YN	Left	Yes	0.707983399999648	0	386023	234
754.9921875	1	taste	trialStart	2	78	18	foodImage.40	FOODEEG_Images\0373.jpg	NY	Right	Yes	0.60900490000131	0	386557	251
756.033203125	2	taste	foodImageDisplay	2	78	18	foodImage.40	FOODEEG_Images\0373.jpg	NY	Right	Yes	0.60900490000131	0	387090	252
758.09765625	0.60900490000131	taste	choicePhaseStart	2	78	18	foodImage.40	FOODEEG_Images\0373.jpg	NY	Right	Yes	0.60900490000131	0	388147	253
758.701171875	0	taste	response	2	78	18	foodImage.40	FOODEEG_Images\0373.jpg	NY	Right	Yes	0.60900490000131	0	388456	235
759.7421875	1	taste	trialStart	2	79	19	foodImage.82	FOODEEG_Images\0805.jpg	NY	Left	No	0.902939700001298	0	388989	251
760.798828125	2	taste	foodImageDisplay	2	79	19	foodImage.82	FOODEEG_Images\0805.jpg	NY	Left	No	0.902939700001298	0	389530	252
762.86328125	0.902939700001298	taste	choicePhaseStart	2	79	19	foodImage.82	FOODEEG_Images\0805.jpg	NY	Left	No	0.902939700001298	0	390587	253
763.7578125	0	taste	response	2	79	19	foodImage.82	FOODEEG_Images\0805.jpg	NY	Left	No	0.902939700001298	0	391045	234
764.802734375	1	taste	trialStart	2	80	20	foodImage.112	FOODEEG_Images\0920.jpg	NY	Left	No	0.7206256999998	0	391580	251
765.84375	2	taste	foodImageDisplay	2	80	20	foodImage.112	FOODEEG_Images\0920.jpg	NY	Left	No	0.7206256999998	0	392113	252
767.908203125	0.7206256999998	taste	choicePhaseStart	2	80	20	foodImage.112	FOODEEG_Images\0920.jpg	NY	Left	No	0.7206256999998	0	393170	253
768.62109375	0	taste	response	2	80	20	foodImage.112	FOODEEG_Images\0920.jpg	NY	Left	No	0.7206256999998	0	393535	234
769.6640625	1	taste	trialStart	2	81	21	foodImage.5	FOODEEG_Images\0107.jpg	YN	Left	Yes	0.748135000001639	0	394069	251
770.72265625	2	taste	foodImageDisplay	2	81	21	foodImage.5	FOODEEG_Images\0107.jpg	YN	Left	Yes	0.748135000001639	0	394611	252
772.78515625	0.748135000001639	taste	choicePhaseStart	2	81	21	foodImage.5	FOODEEG_Images\0107.jpg	YN	Left	Yes	0.748135000001639	0	395667	253
773.525390625	0	taste	response	2	81	21	foodImage.5	FOODEEG_Images\0107.jpg	YN	Left	Yes	0.748135000001639	0	396046	234
774.56640625	1	taste	trialStart	2	82	22	foodImage.21	FOODEEG_Images\0234.jpg	NY	Right	Yes	0.711201099999016	0	396579	251
775.623046875	2	taste	foodImageDisplay	2	82	22	foodImage.21	FOODEEG_Images\0234.jpg	NY	Right	Yes	0.711201099999016	0	397120	252
777.6875	0.711201099999016	taste	choicePhaseStart	2	82	22	foodImage.21	FOODEEG_Images\0234.jpg	NY	Right	Yes	0.711201099999016	0	398177	253
778.388671875	0	taste	response	2	82	22	foodImage.21	FOODEEG_Images\0234.jpg	NY	Right	Yes	0.711201099999016	0	398536	235
779.427734375	1	decision	trialStart	2	83	23	foodImage.33	FOODEEG_Images\0329.jpg	NY	Right	Yes	0.601706100002048	0	399068	251
780.46875	2	decision	foodImageDisplay	2	83	23	foodImage.33	FOODEEG_Images\0329.jpg	NY	Right	Yes	0.601706100002048	0	399601	252
782.53125	0.601706100002048	decision	choicePhaseStart	2	83	23	foodImage.33	FOODEEG_Images\0329.jpg	NY	Right	Yes	0.601706100002048	0	400657	253
783.125	0	decision	response	2	83	23	foodImage.33	FOODEEG_Images\0329.jpg	NY	Right	Yes	0.601706100002048	0	400961	235
784.166015625	1	taste	trialStart	2	84	24	foodImage.2	FOODEEG_Images\0028.jpg	NY	Right	Yes	0.835358599997562	0	401494	251
785.2109375	2	taste	foodImageDisplay	2	84	24	foodImage.2	FOODEEG_Images\0028.jpg	NY	Right	Yes	0.835358599997562	0	402029	252
787.2734375	0.835358599997562	taste	choicePhaseStart	2	84	24	foodImage.2	FOODEEG_Images\0028.jpg	NY	Right	Yes	0.835358599997562	0	403085	253
788.099609375	0	taste	response	2	84	24	foodImage.2	FOODEEG_Images\0028.jpg	NY	Right	Yes	0.835358599997562	0	403508	235
789.14453125	1	health	trialStart	2	85	25	foodImage.32	FOODEEG_Images\0319.jpg	YN	Left	Yes	1.33173279999755	0	404043	251
790.201171875	2	health	foodImageDisplay	2	85	25	foodImage.32	FOODEEG_Images\0319.jpg	YN	Left	Yes	1.33173279999755	0	404584	252
792.265625	1.33173279999755	health	choicePhaseStart	2	85	25	foodImage.32	FOODEEG_Images\0319.jpg	YN	Left	Yes	1.33173279999755	0	405641	253
793.587890625	0	health	response	2	85	25	foodImage.32	FOODEEG_Images\0319.jpg	YN	Left	Yes	1.33173279999755	0	406318	234
794.634765625	1	health	trialStart	2	86	26	foodImage.105	FOODEEG_Images\0913.jpg	YN	Right	No	0.938935000001948	0	406854	251
795.671875	2	health	foodImageDisplay	2	86	26	foodImage.105	FOODEEG_Images\0913.jpg	YN	Right	No	0.938935000001948	0	407385	252
797.734375	0.938935000001948	health	choicePhaseStart	2	86	26	foodImage.105	FOODEEG_Images\0913.jpg	YN	Right	No	0.938935000001948	0	408441	253
798.66796875	0	health	response	2	86	26	foodImage.105	FOODEEG_Images\0913.jpg	YN	Right	No	0.938935000001948	0	408919	235
799.7109375	1	health	trialStart	2	87	27	foodImage.64	FOODEEG_Images\0647.jpg	YN	Left	Yes	0.879110899997613	0	409453	251
800.7734375	2	health	foodImageDisplay	2	87	27	foodImage.64	FOODEEG_Images\0647.jpg	YN	Left	Yes	0.879110899997613	0	409997	252
802.837890625	0.879110899997613	health	choicePhaseStart	2	87	27	foodImage.64	FOODEEG_Images\0647.jpg	YN	Left	Yes	0.879110899997613	0	411054	253
803.70703125	0	health	response	2	87	27	foodImage.64	FOODEEG_Images\0647.jpg	YN	Left	Yes	0.879110899997613	0	411499	234
804.75390625	1	taste	trialStart	2	88	28	foodImage.120	FOODEEG_Images\0928.jpg	YN	Right	No	0.69190879999951	0	412035	251
805.79296875	2	taste	foodImageDisplay	2	88	28	foodImage.120	FOODEEG_Images\0928.jpg	YN	Right	No	0.69190879999951	0	412567	252
807.857421875	0.69190879999951	taste	choicePhaseStart	2	88	28	foodImage.120	FOODEEG_Images\0928.jpg	YN	Right	No	0.69190879999951	0	413624	253
808.5390625	0	taste	response	2	88	28	foodImage.120	FOODEEG_Images\0928.jpg	YN	Right	No	0.69190879999951	0	413973	235
809.58203125	1	decision	trialStart	2	89	29	foodImage.61	FOODEEG_Images\0640.jpg	YN	Left	Yes	0.585312400002294	0	414507	251
810.625	2	decision	foodImageDisplay	2	89	29	foodImage.61	FOODEEG_Images\0640.jpg	YN	Left	Yes	0.585312400002294	0	415041	252
812.69140625	0.585312400002294	decision	choicePhaseStart	2	89	29	foodImage.61	FOODEEG_Images\0640.jpg	YN	Left	Yes	0.585312400002294	0	416099	253
813.267578125	0	decision	response	2	89	29	foodImage.61	FOODEEG_Images\0640.jpg	YN	Left	Yes	0.585312400002294	0	416394	234
814.30859375	1	decision	trialStart	2	90	30	foodImage.48	FOODEEG_Images\0494.jpg	YN	Left	Yes	0.848065800000768	0	416927	251
815.35546875	2	decision	foodImageDisplay	2	90	30	foodImage.48	FOODEEG_Images\0494.jpg	YN	Left	Yes	0.848065800000768	0	417463	252
817.419921875	0.848065800000768	decision	choicePhaseStart	2	90	30	foodImage.48	FOODEEG_Images\0494.jpg	YN	Left	Yes	0.848065800000768	0	418520	253
818.259765625	0	decision	response	2	90	30	foodImage.48	FOODEEG_Images\0494.jpg	YN	Left	Yes	0.848065800000768	0	418950	234
819.30078125	1	health	trialStart	2	91	31	foodImage.38	FOODEEG_Images\0365.jpg	YN	Left	Yes	0.589879799998016	0	419483	251
820.33984375	2	health	foodImageDisplay	2	91	31	foodImage.38	FOODEEG_Images\0365.jpg	YN	Left	Yes	0.589879799998016	0	420015	252
822.40234375	0.589879799998016	health	choicePhaseStart	2	91	31	foodImage.38	FOODEEG_Images\0365.jpg	YN	Left	Yes	0.589879799998016	0	421071	253
822.986328125	0	health	response	2	91	31	foodImage.38	FOODEEG_Images\0365.jpg	YN	Left	Yes	0.589879799998016	0	421370	234
824.03125	1	health	trialStart	2	92	32	foodImage.21	FOODEEG_Images\0234.jpg	NY	Right	Yes	0.702616599999601	0	421905	251
825.09375	2	health	foodImageDisplay	2	92	32	foodImage.21	FOODEEG_Images\0234.jpg	NY	Right	Yes	0.702616599999601	0	422449	252
827.162109375	0.702616599999601	health	choicePhaseStart	2	92	32	foodImage.21	FOODEEG_Images\0234.jpg	NY	Right	Yes	0.702616599999601	0	423508	253
827.857421875	0	health	response	2	92	32	foodImage.21	FOODEEG_Images\0234.jpg	NY	Right	Yes	0.702616599999601	0	423864	235
828.90234375	1	taste	trialStart	2	93	33	foodImage.45	FOODEEG_Images\0478.jpg	YN	Left	Yes	0.814174499999353	0	424399	251
829.94921875	2	taste	foodImageDisplay	2	93	33	foodImage.45	FOODEEG_Images\0478.jpg	YN	Left	Yes	0.814174499999353	0	424935	252
832.013671875	0.814174499999353	taste	choicePhaseStart	2	93	33	foodImage.45	FOODEEG_Images\0478.jpg	YN	Left	Yes	0.814174499999353	0	425992	253
832.818359375	0	taste	response	2	93	33	foodImage.45	FOODEEG_Images\0478.jpg	YN	Left	Yes	0.814174499999353	0	426404	234
833.8671875	1	taste	trialStart	2	94	34	foodImage.9	FOODEEG_Images\0138.jpg	NY	Right	Yes	1.11299019999933	0	426941	251
834.921875	2	taste	foodImageDisplay	2	94	34	foodImage.9	FOODEEG_Images\0138.jpg	NY	Right	Yes	1.11299019999933	0	427481	252
836.986328125	1.11299019999933	taste	choicePhaseStart	2	94	34	foodImage.9	FOODEEG_Images\0138.jpg	NY	Right	Yes	1.11299019999933	0	428538	253
838.08984375	0	taste	response	2	94	34	foodImage.9	FOODEEG_Images\0138.jpg	NY	Right	Yes	1.11299019999933	0	429103	235
839.146484375	1	decision	trialStart	2	95	35	foodImage.72	FOODEEG_Images\0714.jpg	NY	Left	No	0.632685799999308	0	429644	251
840.1953125	2	decision	foodImageDisplay	2	95	35	foodImage.72	FOODEEG_Images\0714.jpg	NY	Left	No	0.632685799999308	0	430181	252
842.259765625	0.632685799999308	decision	choicePhaseStart	2	95	35	foodImage.72	FOODEEG_Images\0714.jpg	NY	Left	No	0.632685799999308	0	431238	253
842.880859375	0	decision	response	2	95	35	foodImage.72	FOODEEG_Images\0714.jpg	NY	Left	No	0.632685799999308	0	431556	234
843.923828125	1	health	trialStart	2	96	36	foodImage.48	FOODEEG_Images\0494.jpg	NY	Left	No	1.33773420000216	0	432090	251
844.96484375	2	health	foodImageDisplay	2	96	36	foodImage.48	FOODEEG_Images\0494.jpg	NY	Left	No	1.33773420000216	0	432623	252
847.03125	1.33773420000216	health	choicePhaseStart	2	96	36	foodImage.48	FOODEEG_Images\0494.jpg	NY	Left	No	1.33773420000216	0	433681	253
848.361328125	0	health	response	2	96	36	foodImage.48	FOODEEG_Images\0494.jpg	NY	Left	No	1.33773420000216	0	434362	234
849.40625	1	taste	trialStart	2	97	37	foodImage.93	FOODEEG_Images\0901.jpg	NY	Left	No	0.502330499999516	0	434897	251
850.443359375	2	taste	foodImageDisplay	2	97	37	foodImage.93	FOODEEG_Images\0901.jpg	NY	Left	No	0.502330499999516	0	435428	252
852.5078125	0.502330499999516	taste	choicePhaseStart	2	97	37	foodImage.93	FOODEEG_Images\0901.jpg	NY	Left	No	0.502330499999516	0	436485	253
853.001953125	0	taste	response	2	97	37	foodImage.93	FOODEEG_Images\0901.jpg	NY	Left	No	0.502330499999516	0	436738	234
854.044921875	1	decision	trialStart	2	98	38	foodImage.76	FOODEEG_Images\0766.jpg	YN	Left	Yes	0.98498760000075	0	437272	251
855.08984375	2	decision	foodImageDisplay	2	98	38	foodImage.76	FOODEEG_Images\0766.jpg	YN	Left	Yes	0.98498760000075	0	437807	252
857.15234375	0.98498760000075	decision	choicePhaseStart	2	98	38	foodImage.76	FOODEEG_Images\0766.jpg	YN	Left	Yes	0.98498760000075	0	438863	253
858.12890625	0	decision	response	2	98	38	foodImage.76	FOODEEG_Images\0766.jpg	YN	Left	Yes	0.98498760000075	0	439363	234
859.177734375	1	decision	trialStart	2	99	39	foodImage.37	FOODEEG_Images\0359.jpg	YN	Left	Yes	0.739312799996696	0	439900	251
860.220703125	2	decision	foodImageDisplay	2	99	39	foodImage.37	FOODEEG_Images\0359.jpg	YN	Left	Yes	0.739312799996696	0	440434	252
862.28515625	0.739312799996696	decision	choicePhaseStart	2	99	39	foodImage.37	FOODEEG_Images\0359.jpg	YN	Left	Yes	0.739312799996696	0	441491	253
863.017578125	0	decision	response	2	99	39	foodImage.37	FOODEEG_Images\0359.jpg	YN	Left	Yes	0.739312799996696	0	441866	234
864.05859375	1	taste	trialStart	2	100	40	foodImage.83	FOODEEG_Images\0827.jpg	NY	Right	Yes	1.38732720000189	0	442399	251
865.1171875	2	taste	foodImageDisplay	2	100	40	foodImage.83	FOODEEG_Images\0827.jpg	NY	Right	Yes	1.38732720000189	0	442941	252
867.1796875	1.38732720000189	taste	choicePhaseStart	2	100	40	foodImage.83	FOODEEG_Images\0827.jpg	NY	Right	Yes	1.38732720000189	0	443997	253
868.560546875	0	taste	response	2	100	40	foodImage.83	FOODEEG_Images\0827.jpg	NY	Right	Yes	1.38732720000189	0	444704	235
869.607421875	1	decision	trialStart	2	101	41	foodImage.74	FOODEEG_Images\0752.jpg	NY	Right	Yes	0.661319599999842	0	445240	251
870.65234375	2	decision	foodImageDisplay	2	101	41	foodImage.74	FOODEEG_Images\0752.jpg	NY	Right	Yes	0.661319599999842	0	445775	252
872.716796875	0.661319599999842	decision	choicePhaseStart	2	101	41	foodImage.74	FOODEEG_Images\0752.jpg	NY	Right	Yes	0.661319599999842	0	446832	253
873.369140625	0	decision	response	2	101	41	foodImage.74	FOODEEG_Images\0752.jpg	NY	Right	Yes	0.661319599999842	0	447166	235
874.4140625	1	taste	trialStart	2	102	42	foodImage.38	FOODEEG_Images\0365.jpg	NY	Right	Yes	0.633832800001983	0	447701	251
875.453125	2	taste	foodImageDisplay	2	102	42	foodImage.38	FOODEEG_Images\0365.jpg	NY	Right	Yes	0.633832800001983	0	448233	252
877.517578125	0.633832800001983	taste	choicePhaseStart	2	102	42	foodImage.38	FOODEEG_Images\0365.jpg	NY	Right	Yes	0.633832800001983	0	449290	253
878.14453125	0	taste	response	2	102	42	foodImage.38	FOODEEG_Images\0365.jpg	NY	Right	Yes	0.633832800001983	0	449611	235
879.19140625	1	decision	trialStart	2	103	43	foodImage.46	FOODEEG_Images\0479.jpg	YN	Left	Yes	1.54807860000074	0	450147	251
880.25	2	decision	foodImageDisplay	2	103	43	foodImage.46	FOODEEG_Images\0479.jpg	YN	Left	Yes	1.54807860000074	0	450689	252
882.314453125	1.54807860000074	decision	choicePhaseStart	2	103	43	foodImage.46	FOODEEG_Images\0479.jpg	YN	Left	Yes	1.54807860000074	0	451746	253
883.85546875	0	decision	response	2	103	43	foodImage.46	FOODEEG_Images\0479.jpg	YN	Left	Yes	1.54807860000074	0	452535	234
884.8984375	1	taste	trialStart	2	104	44	foodImage.96	FOODEEG_Images\0904.jpg	YN	Right	No	0.519992000001366	0	453069	251
885.9375	2	taste	foodImageDisplay	2	104	44	foodImage.96	FOODEEG_Images\0904.jpg	YN	Right	No	0.519992000001366	0	453601	252
888.001953125	0.519992000001366	taste	choicePhaseStart	2	104	44	foodImage.96	FOODEEG_Images\0904.jpg	YN	Right	No	0.519992000001366	0	454658	253
888.51171875	0	taste	response	2	104	44	foodImage.96	FOODEEG_Images\0904.jpg	YN	Right	No	0.519992000001366	0	454919	235
889.55859375	1	decision	trialStart	2	105	45	foodImage.66	FOODEEG_Images\0676.jpg	NY	Right	Yes	0.620974100002059	0	455455	251
890.6015625	2	decision	foodImageDisplay	2	105	45	foodImage.66	FOODEEG_Images\0676.jpg	NY	Right	Yes	0.620974100002059	0	455989	252
892.666015625	0.620974100002059	decision	choicePhaseStart	2	105	45	foodImage.66	FOODEEG_Images\0676.jpg	NY	Right	Yes	0.620974100002059	0	457046	253
893.279296875	0	decision	response	2	105	45	foodImage.66	FOODEEG_Images\0676.jpg	NY	Right	Yes	0.620974100002059	0	457360	235
894.32421875	1	decision	trialStart	2	106	46	foodImage.8	FOODEEG_Images\0136.jpg	YN	Right	No	0.627704099999391	0	457895	251
895.365234375	2	decision	foodImageDisplay	2	106	46	foodImage.8	FOODEEG_Images\0136.jpg	YN	Right	No	0.627704099999391	0	458428	252
897.43359375	0.627704099999391	decision	choicePhaseStart	2	106	46	foodImage.8	FOODEEG_Images\0136.jpg	YN	Right	No	0.627704099999391	0	459487	253
898.056640625	0	decision	response	2	106	46	foodImage.8	FOODEEG_Images\0136.jpg	YN	Right	No	0.627704099999391	0	459806	235
899.09765625	1	decision	trialStart	2	107	47	foodImage.17	FOODEEG_Images\0199.jpg	YN	Left	Yes	0.985395399999106	0	460339	251
900.140625	2	decision	foodImageDisplay	2	107	47	foodImage.17	FOODEEG_Images\0199.jpg	YN	Left	Yes	0.985395399999106	0	460873	252
902.203125	0.985395399999106	decision	choicePhaseStart	2	107	47	foodImage.17	FOODEEG_Images\0199.jpg	YN	Left	Yes	0.985395399999106	0	461929	253
903.18359375	0	decision	response	2	107	47	foodImage.17	FOODEEG_Images\0199.jpg	YN	Left	Yes	0.985395399999106	0	462431	234
904.228515625	1	decision	trialStart	2	108	48	foodImage.69	FOODEEG_Images\0693.jpg	YN	Left	Yes	0.511417599998822	0	462966	251
905.2734375	2	decision	foodImageDisplay	2	108	48	foodImage.69	FOODEEG_Images\0693.jpg	YN	Left	Yes	0.511417599998822	0	463501	252
907.3359375	0.511417599998822	decision	choicePhaseStart	2	108	48	foodImage.69	FOODEEG_Images\0693.jpg	YN	Left	Yes	0.511417599998822	0	464557	253
907.83984375	0	decision	response	2	108	48	foodImage.69	FOODEEG_Images\0693.jpg	YN	Left	Yes	0.511417599998822	0	464815	234
908.8828125	1	taste	trialStart	2	109	49	foodImage.119	FOODEEG_Images\0927.jpg	NY	Left	No	0.686839000001783	0	465349	251
909.921875	2	taste	foodImageDisplay	2	109	49	foodImage.119	FOODEEG_Images\0927.jpg	NY	Left	No	0.686839000001783	0	465881	252
911.986328125	0.686839000001783	taste	choicePhaseStart	2	109	49	foodImage.119	FOODEEG_Images\0927.jpg	NY	Left	No	0.686839000001783	0	466938	253
912.662109375	0	taste	response	2	109	49	foodImage.119	FOODEEG_Images\0927.jpg	NY	Left	No	0.686839000001783	0	467284	234
913.705078125	1	decision	trialStart	2	110	50	foodImage.92	FOODEEG_Images\0900.jpg	NY	Left	No	0.696552000001248	0	467818	251
914.744140625	2	decision	foodImageDisplay	2	110	50	foodImage.92	FOODEEG_Images\0900.jpg	NY	Left	No	0.696552000001248	0	468350	252
916.806640625	0.696552000001248	decision	choicePhaseStart	2	110	50	foodImage.92	FOODEEG_Images\0900.jpg	NY	Left	No	0.696552000001248	0	469406	253
917.494140625	0	decision	response	2	110	50	foodImage.92	FOODEEG_Images\0900.jpg	NY	Left	No	0.696552000001248	0	469758	234
918.54296875	1	health	trialStart	2	111	51	foodImage.102	FOODEEG_Images\0910.jpg	YN	Left	Yes	1.08063330000004	0	470295	251
919.583984375	2	health	foodImageDisplay	2	111	51	foodImage.102	FOODEEG_Images\0910.jpg	YN	Left	Yes	1.08063330000004	0	470828	252
921.65234375	1.08063330000004	health	choicePhaseStart	2	111	51	foodImage.102	FOODEEG_Images\0910.jpg	YN	Left	Yes	1.08063330000004	0	471887	253
922.7265625	0	health	response	2	111	51	foodImage.102	FOODEEG_Images\0910.jpg	YN	Left	Yes	1.08063330000004	0	472437	234
923.767578125	1	taste	trialStart	2	112	52	foodImage.115	FOODEEG_Images\0923.jpg	YN	Right	No	0.534745900000416	0	472970	251
924.806640625	2	taste	foodImageDisplay	2	112	52	foodImage.115	FOODEEG_Images\0923.jpg	YN	Right	No	0.534745900000416	0	473502	252
926.87109375	0.534745900000416	taste	choicePhaseStart	2	112	52	foodImage.115	FOODEEG_Images\0923.jpg	YN	Right	No	0.534745900000416	0	474559	253
927.3984375	0	taste	response	2	112	52	foodImage.115	FOODEEG_Images\0923.jpg	YN	Right	No	0.534745900000416	0	474829	235
928.44140625	1	health	trialStart	2	113	53	foodImage.81	FOODEEG_Images\0797.jpg	NY	Right	Yes	0.861310600001161	0	475363	251
929.498046875	2	health	foodImageDisplay	2	113	53	foodImage.81	FOODEEG_Images\0797.jpg	NY	Right	Yes	0.861310600001161	0	475904	252
931.5625	0.861310600001161	health	choicePhaseStart	2	113	53	foodImage.81	FOODEEG_Images\0797.jpg	NY	Right	Yes	0.861310600001161	0	476961	253
932.4140625	0	health	response	2	113	53	foodImage.81	FOODEEG_Images\0797.jpg	NY	Right	Yes	0.861310600001161	0	477397	235
933.45703125	1	taste	trialStart	2	114	54	foodImage.110	FOODEEG_Images\0918.jpg	NY	Left	No	0.631651699997747	0	477931	251
934.505859375	2	taste	foodImageDisplay	2	114	54	foodImage.110	FOODEEG_Images\0918.jpg	NY	Left	No	0.631651699997747	0	478468	252
936.568359375	0.631651699997747	taste	choicePhaseStart	2	114	54	foodImage.110	FOODEEG_Images\0918.jpg	NY	Left	No	0.631651699997747	0	479524	253
937.189453125	0	taste	response	2	114	54	foodImage.110	FOODEEG_Images\0918.jpg	NY	Left	No	0.631651699997747	0	479842	234
938.232421875	1	taste	trialStart	2	115	55	foodImage.72	FOODEEG_Images\0714.jpg	NY	Left	No	0.845011400000658	0	480376	251
939.275390625	2	taste	foodImageDisplay	2	115	55	foodImage.72	FOODEEG_Images\0714.jpg	NY	Left	No	0.845011400000658	0	480910	252
941.337890625	0.845011400000658	taste	choicePhaseStart	2	115	55	foodImage.72	FOODEEG_Images\0714.jpg	NY	Left	No	0.845011400000658	0	481966	253
942.173828125	0	taste	response	2	115	55	foodImage.72	FOODEEG_Images\0714.jpg	NY	Left	No	0.845011400000658	0	482394	234
943.216796875	1	health	trialStart	2	116	56	foodImage.17	FOODEEG_Images\0199.jpg	NY	Right	Yes	0.637548400001833	0	482928	251
944.2578125	2	health	foodImageDisplay	2	116	56	foodImage.17	FOODEEG_Images\0199.jpg	NY	Right	Yes	0.637548400001833	0	483461	252
946.3203125	0.637548400001833	health	choicePhaseStart	2	116	56	foodImage.17	FOODEEG_Images\0199.jpg	NY	Right	Yes	0.637548400001833	0	484517	253
946.94921875	0	health	response	2	116	56	foodImage.17	FOODEEG_Images\0199.jpg	NY	Right	Yes	0.637548400001833	0	484839	235
947.9921875	1	decision	trialStart	2	117	57	foodImage.115	FOODEEG_Images\0923.jpg	YN	Right	No	0.700762600001326	0	485373	251
949.05078125	2	decision	foodImageDisplay	2	117	57	foodImage.115	FOODEEG_Images\0923.jpg	YN	Right	No	0.700762600001326	0	485915	252
951.11328125	0.700762600001326	decision	choicePhaseStart	2	117	57	foodImage.115	FOODEEG_Images\0923.jpg	YN	Right	No	0.700762600001326	0	486971	253
951.8046875	0	decision	response	2	117	57	foodImage.115	FOODEEG_Images\0923.jpg	YN	Right	No	0.700762600001326	0	487325	235
952.849609375	1	taste	trialStart	2	118	58	foodImage.54	FOODEEG_Images\0560.jpg	YN	Left	Yes	0.648807300000044	0	487860	251
953.908203125	2	taste	foodImageDisplay	2	118	58	foodImage.54	FOODEEG_Images\0560.jpg	YN	Left	Yes	0.648807300000044	0	488402	252
955.97265625	0.648807300000044	taste	choicePhaseStart	2	118	58	foodImage.54	FOODEEG_Images\0560.jpg	YN	Left	Yes	0.648807300000044	0	489459	253
956.61328125	0	taste	response	2	118	58	foodImage.54	FOODEEG_Images\0560.jpg	YN	Left	Yes	0.648807300000044	0	489787	234
957.654296875	1	taste	trialStart	2	119	59	foodImage.49	FOODEEG_Images\0515.jpg	NY	Right	Yes	1.00498869999865	0	490320	251
958.69921875	2	taste	foodImageDisplay	2	119	59	foodImage.49	FOODEEG_Images\0515.jpg	NY	Right	Yes	1.00498869999865	0	490855	252
960.767578125	1.00498869999865	taste	choicePhaseStart	2	119	59	foodImage.49	FOODEEG_Images\0515.jpg	NY	Right	Yes	1.00498869999865	0	491914	253
961.765625	0	taste	response	2	119	59	foodImage.49	FOODEEG_Images\0515.jpg	NY	Right	Yes	1.00498869999865	0	492425	235
962.8125	1	health	trialStart	2	120	60	foodImage.71	FOODEEG_Images\0713.jpg	YN	Right	No	0.951033299999835	0	492961	251
963.85546875	2	health	foodImageDisplay	2	120	60	foodImage.71	FOODEEG_Images\0713.jpg	YN	Right	No	0.951033299999835	0	493495	252
965.919921875	0.951033299999835	health	choicePhaseStart	2	120	60	foodImage.71	FOODEEG_Images\0713.jpg	YN	Right	No	0.951033299999835	0	494552	253
966.861328125	0	health	response	2	120	60	foodImage.71	FOODEEG_Images\0713.jpg	YN	Right	No	0.951033299999835	0	495034	235
968.908203125	22.373046875	n/a	blockEnd	n/a	n/a	n/a	n/a	n/a	n/a	n/a	n/a	n/a	n/a	496082	254
991.28125	2	n/a	blockStart	3	n/a	n/a	n/a	n/a	n/a	n/a	n/a	n/a	n/a	507537	250
993.3203125	1	decision	trialStart	3	121	1	foodImage.45	FOODEEG_Images\0478.jpg	YN	Left	Yes	0.544035200000508	0	508581	251
994.38671875	2	decision	foodImageDisplay	3	121	1	foodImage.45	FOODEEG_Images\0478.jpg	YN	Left	Yes	0.544035200000508	0	509127	252
996.451171875	0.544035200000508	decision	choicePhaseStart	3	121	1	foodImage.45	FOODEEG_Images\0478.jpg	YN	Left	Yes	0.544035200000508	0	510184	253
996.98828125	0	decision	response	3	121	1	foodImage.45	FOODEEG_Images\0478.jpg	YN	Left	Yes	0.544035200000508	0	510459	234
998.03125	1	health	trialStart	3	122	2	foodImage.50	FOODEEG_Images\0529.jpg	YN	Left	Yes	1.69486630000029	0	510993	251
999.087890625	2	health	foodImageDisplay	3	122	2	foodImage.50	FOODEEG_Images\0529.jpg	YN	Left	Yes	1.69486630000029	0	511534	252
1001.150390625	1.69486630000029	health	choicePhaseStart	3	122	2	foodImage.50	FOODEEG_Images\0529.jpg	YN	Left	Yes	1.69486630000029	0	512590	253
1002.8359375	0	health	response	3	122	2	foodImage.50	FOODEEG_Images\0529.jpg	YN	Left	Yes	1.69486630000029	0	513453	234
1003.880859375	1	health	trialStart	3	123	3	foodImage.111	FOODEEG_Images\0919.jpg	NY	Left	No	0.9842478999999	0	513988	251
1004.919921875	2	health	foodImageDisplay	3	123	3	foodImage.111	FOODEEG_Images\0919.jpg	NY	Left	No	0.9842478999999	0	514520	252
1006.986328125	0.9842478999999	health	choicePhaseStart	3	123	3	foodImage.111	FOODEEG_Images\0919.jpg	NY	Left	No	0.9842478999999	0	515578	253
1007.962890625	0	health	response	3	123	3	foodImage.111	FOODEEG_Images\0919.jpg	NY	Left	No	0.9842478999999	0	516078	234
1009.0078125	1	health	trialStart	3	124	4	foodImage.79	FOODEEG_Images\0794.jpg	YN	Left	Yes	1.12113169999793	0	516613	251
1010.052734375	2	health	foodImageDisplay	3	124	4	foodImage.79	FOODEEG_Images\0794.jpg	YN	Left	Yes	1.12113169999793	0	517148	252
1012.115234375	1.12113169999793	health	choicePhaseStart	3	124	4	foodImage.79	FOODEEG_Images\0794.jpg	YN	Left	Yes	1.12113169999793	0	518204	253
1013.2265625	0	health	response	3	124	4	foodImage.79	FOODEEG_Images\0794.jpg	YN	Left	Yes	1.12113169999793	0	518773	234
1014.26953125	1	taste	trialStart	3	125	5	foodImage.61	FOODEEG_Images\0640.jpg	YN	Left	Yes	0.68469720000212	0	519307	251
1015.310546875	2	taste	foodImageDisplay	3	125	5	foodImage.61	FOODEEG_Images\0640.jpg	YN	Left	Yes	0.68469720000212	0	519840	252
1017.380859375	0.68469720000212	taste	choicePhaseStart	3	125	5	foodImage.61	FOODEEG_Images\0640.jpg	YN	Left	Yes	0.68469720000212	0	520900	253
1018.05859375	0	taste	response	3	125	5	foodImage.61	FOODEEG_Images\0640.jpg	YN	Left	Yes	0.68469720000212	0	521247	234
1019.1015625	1	health	trialStart	3	126	6	foodImage.120	FOODEEG_Images\0928.jpg	NY	Left	No	0.807583700003306	0	521781	251
1020.140625	2	health	foodImageDisplay	3	126	6	foodImage.120	FOODEEG_Images\0928.jpg	NY	Left	No	0.807583700003306	0	522313	252
1022.205078125	0.807583700003306	health	choicePhaseStart	3	126	6	foodImage.120	FOODEEG_Images\0928.jpg	NY	Left	No	0.807583700003306	0	523370	253
1023.001953125	0	health	response	3	126	6	foodImage.120	FOODEEG_Images\0928.jpg	NY	Left	No	0.807583700003306	0	523778	234
1024.0546875	1	decision	trialStart	3	127	7	foodImage.42	FOODEEG_Images\0438.jpg	NY	Left	No	1.52207730000009	0	524317	251
1025.162109375	2	decision	foodImageDisplay	3	127	7	foodImage.42	FOODEEG_Images\0438.jpg	NY	Left	No	1.52207730000009	0	524884	252
1027.224609375	1.52207730000009	decision	choicePhaseStart	3	127	7	foodImage.42	FOODEEG_Images\0438.jpg	NY	Left	No	1.52207730000009	0	525940	253
1028.73828125	0	decision	response	3	127	7	foodImage.42	FOODEEG_Images\0438.jpg	NY	Left	No	1.52207730000009	0	526715	234
1029.78125	1	health	trialStart	3	128	8	foodImage.65	FOODEEG_Images\0658.jpg	YN	Right	No	1.06606800000009	0	527249	251
1030.82421875	2	health	foodImageDisplay	3	128	8	foodImage.65	FOODEEG_Images\0658.jpg	YN	Right	No	1.06606800000009	0	527783	252
1032.888671875	1.06606800000009	health	choicePhaseStart	3	128	8	foodImage.65	FOODEEG_Images\0658.jpg	YN	Right	No	1.06606800000009	0	528840	253
1033.947265625	0	health	response	3	128	8	foodImage.65	FOODEEG_Images\0658.jpg	YN	Right	No	1.06606800000009	0	529382	235
1034.990234375	1	decision	trialStart	3	129	9	foodImage.83	FOODEEG_Images\0827.jpg	NY	Right	Yes	0.778985599998123	0	529916	251
1036.072265625	2	decision	foodImageDisplay	3	129	9	foodImage.83	FOODEEG_Images\0827.jpg	NY	Right	Yes	0.778985599998123	0	530470	252
1038.13671875	0.778985599998123	decision	choicePhaseStart	3	129	9	foodImage.83	FOODEEG_Images\0827.jpg	NY	Right	Yes	0.778985599998123	0	531527	253
1038.90625	0	decision	response	3	129	9	foodImage.83	FOODEEG_Images\0827.jpg	NY	Right	Yes	0.778985599998123	0	531921	235
1039.94921875	1	decision	trialStart	3	130	10	foodImage.65	FOODEEG_Images\0658.jpg	YN	Right	No	0.723734399998648	0	532455	251
1040.990234375	2	decision	foodImageDisplay	3	130	10	foodImage.65	FOODEEG_Images\0658.jpg	YN	Right	No	0.723734399998648	0	532988	252
1043.0546875	0.723734399998648	decision	choicePhaseStart	3	130	10	foodImage.65	FOODEEG_Images\0658.jpg	YN	Right	No	0.723734399998648	0	534045	253
1043.76953125	0	decision	response	3	130	10	foodImage.65	FOODEEG_Images\0658.jpg	YN	Right	No	0.723734399998648	0	534411	235
1044.8125	1	decision	trialStart	3	131	11	foodImage.67	FOODEEG_Images\0679.jpg	YN	Right	No	1.19774419999885	0	534945	251
1045.869140625	2	decision	foodImageDisplay	3	131	11	foodImage.67	FOODEEG_Images\0679.jpg	YN	Right	No	1.19774419999885	0	535486	252
1047.93359375	1.19774419999885	decision	choicePhaseStart	3	131	11	foodImage.67	FOODEEG_Images\0679.jpg	YN	Right	No	1.19774419999885	0	536543	253
1049.12109375	0	decision	response	3	131	11	foodImage.67	FOODEEG_Images\0679.jpg	YN	Right	No	1.19774419999885	0	537151	235
1050.171875	1	health	trialStart	3	132	12	foodImage.5	FOODEEG_Images\0107.jpg	YN	Right	No	0.868386099999043	0	537689	251
1051.23046875	2	health	foodImageDisplay	3	132	12	foodImage.5	FOODEEG_Images\0107.jpg	YN	Right	No	0.868386099999043	0	538231	252
1053.294921875	0.868386099999043	health	choicePhaseStart	3	132	12	foodImage.5	FOODEEG_Images\0107.jpg	YN	Right	No	0.868386099999043	0	539288	253
1054.15234375	0	health	response	3	132	12	foodImage.5	FOODEEG_Images\0107.jpg	YN	Right	No	0.868386099999043	0	539727	235
1055.201171875	1	health	trialStart	3	133	13	foodImage.13	FOODEEG_Images\0183.jpg	NY	Right	Yes	0.923937400002615	0	540264	251
1056.248046875	2	health	foodImageDisplay	3	133	13	foodImage.13	FOODEEG_Images\0183.jpg	NY	Right	Yes	0.923937400002615	0	540800	252
1058.310546875	0.923937400002615	health	choicePhaseStart	3	133	13	foodImage.13	FOODEEG_Images\0183.jpg	NY	Right	Yes	0.923937400002615	0	541856	253
1059.224609375	0	health	response	3	133	13	foodImage.13	FOODEEG_Images\0183.jpg	NY	Right	Yes	0.923937400002615	0	542324	235
1060.2734375	1	taste	trialStart	3	134	14	foodImage.97	FOODEEG_Images\0905.jpg	YN	Right	No	0.615644699999393	0	542861	251
1061.314453125	2	taste	foodImageDisplay	3	134	14	foodImage.97	FOODEEG_Images\0905.jpg	YN	Right	No	0.615644699999393	0	543394	252
1063.37890625	0.615644699999393	taste	choicePhaseStart	3	134	14	foodImage.97	FOODEEG_Images\0905.jpg	YN	Right	No	0.615644699999393	0	544451	253
1063.984375	0	taste	response	3	134	14	foodImage.97	FOODEEG_Images\0905.jpg	YN	Right	No	0.615644699999393	0	544761	235
1065.02734375	1	taste	trialStart	3	135	15	foodImage.64	FOODEEG_Images\0647.jpg	YN	Left	Yes	1.14257559999896	0	545295	251
1066.08203125	2	taste	foodImageDisplay	3	135	15	foodImage.64	FOODEEG_Images\0647.jpg	YN	Left	Yes	1.14257559999896	0	545835	252
1068.146484375	1.14257559999896	taste	choicePhaseStart	3	135	15	foodImage.64	FOODEEG_Images\0647.jpg	YN	Left	Yes	1.14257559999896	0	546892	253
1069.28125	0	taste	response	3	135	15	foodImage.64	FOODEEG_Images\0647.jpg	YN	Left	Yes	1.14257559999896	0	547473	234
1070.328125	1	health	trialStart	3	136	16	foodImage.78	FOODEEG_Images\0787.jpg	NY	Right	Yes	0.685691700000461	0	548009	251
1071.373046875	2	health	foodImageDisplay	3	136	16	foodImage.78	FOODEEG_Images\0787.jpg	NY	Right	Yes	0.685691700000461	0	548544	252
1073.435546875	0.685691700000461	health	choicePhaseStart	3	136	16	foodImage.78	FOODEEG_Images\0787.jpg	NY	Right	Yes	0.685691700000461	0	549600	253
1074.11328125	0	health	response	3	136	16	foodImage.78	FOODEEG_Images\0787.jpg	NY	Right	Yes	0.685691700000461	0	549947	235
1075.154296875	1	decision	trialStart	3	137	17	foodImage.89	FOODEEG_Images\0881.jpg	NY	Right	Yes	0.91351659999782	0	550480	251
1076.208984375	2	decision	foodImageDisplay	3	137	17	foodImage.89	FOODEEG_Images\0881.jpg	NY	Right	Yes	0.91351659999782	0	551020	252
1078.271484375	0.91351659999782	decision	choicePhaseStart	3	137	17	foodImage.89	FOODEEG_Images\0881.jpg	NY	Right	Yes	0.91351659999782	0	552076	253
1079.17578125	0	decision	response	3	137	17	foodImage.89	FOODEEG_Images\0881.jpg	NY	Right	Yes	0.91351659999782	0	552539	235
1080.21484375	1	health	trialStart	3	138	18	foodImage.10	FOODEEG_Images\0145.jpg	NY	Left	No	0.891576599999098	0	553071	251
1081.298828125	2	health	foodImageDisplay	3	138	18	foodImage.10	FOODEEG_Images\0145.jpg	NY	Left	No	0.891576599999098	0	553626	252
1083.3671875	0.891576599999098	health	choicePhaseStart	3	138	18	foodImage.10	FOODEEG_Images\0145.jpg	NY	Left	No	0.891576599999098	0	554685	253
1084.248046875	0	health	response	3	138	18	foodImage.10	FOODEEG_Images\0145.jpg	NY	Left	No	0.891576599999098	0	555136	234
1085.298828125	1	decision	trialStart	3	139	19	foodImage.21	FOODEEG_Images\0234.jpg	YN	Left	Yes	0.777431499998784	0	555674	251
1086.35546875	2	decision	foodImageDisplay	3	139	19	foodImage.21	FOODEEG_Images\0234.jpg	YN	Left	Yes	0.777431499998784	0	556215	252
1088.421875	0.777431499998784	decision	choicePhaseStart	3	139	19	foodImage.21	FOODEEG_Images\0234.jpg	YN	Left	Yes	0.777431499998784	0	557273	253
1089.19140625	0	decision	response	3	139	19	foodImage.21	FOODEEG_Images\0234.jpg	YN	Left	Yes	0.777431499998784	0	557667	234
1090.240234375	1	taste	trialStart	3	140	20	foodImage.22	FOODEEG_Images\0236.jpg	NY	Right	Yes	1.50371169999926	0	558204	251
1091.28125	2	taste	foodImageDisplay	3	140	20	foodImage.22	FOODEEG_Images\0236.jpg	NY	Right	Yes	1.50371169999926	0	558737	252
1093.34375	1.50371169999926	taste	choicePhaseStart	3	140	20	foodImage.22	FOODEEG_Images\0236.jpg	NY	Right	Yes	1.50371169999926	0	559793	253
1094.83984375	0	taste	response	3	140	20	foodImage.22	FOODEEG_Images\0236.jpg	NY	Right	Yes	1.50371169999926	0	560559	235
1095.888671875	1	decision	trialStart	3	141	21	foodImage.110	FOODEEG_Images\0918.jpg	YN	Right	No	1.1857697000014	0	561096	251
1096.927734375	2	decision	foodImageDisplay	3	141	21	foodImage.110	FOODEEG_Images\0918.jpg	YN	Right	No	1.1857697000014	0	561628	252
1098.9921875	1.1857697000014	decision	choicePhaseStart	3	141	21	foodImage.110	FOODEEG_Images\0918.jpg	YN	Right	No	1.1857697000014	0	562685	253
1100.16796875	0	decision	response	3	141	21	foodImage.110	FOODEEG_Images\0918.jpg	YN	Right	No	1.1857697000014	0	563287	235
1101.2109375	1	taste	trialStart	3	142	22	foodImage.107	FOODEEG_Images\0915.jpg	YN	Right	No	0.672626899999159	0	563821	251
1102.248046875	2	taste	foodImageDisplay	3	142	22	foodImage.107	FOODEEG_Images\0915.jpg	YN	Right	No	0.672626899999159	0	564352	252
1104.3125	0.672626899999159	taste	choicePhaseStart	3	142	22	foodImage.107	FOODEEG_Images\0915.jpg	YN	Right	No	0.672626899999159	0	565409	253
1104.974609375	0	taste	response	3	142	22	foodImage.107	FOODEEG_Images\0915.jpg	YN	Right	No	0.672626899999159	0	565748	235
1106.01953125	1	health	trialStart	3	143	23	foodImage.1	FOODEEG_Images\0004.jpg	NY	Left	No	0.925643500002479	0	566283	251
1107.05859375	2	health	foodImageDisplay	3	143	23	foodImage.1	FOODEEG_Images\0004.jpg	NY	Left	No	0.925643500002479	0	566815	252
1109.123046875	0.925643500002479	health	choicePhaseStart	3	143	23	foodImage.1	FOODEEG_Images\0004.jpg	NY	Left	No	0.925643500002479	0	567872	253
1110.0390625	0	health	response	3	143	23	foodImage.1	FOODEEG_Images\0004.jpg	NY	Left	No	0.925643500002479	0	568341	234
1111.08203125	1	health	trialStart	3	144	24	foodImage.47	FOODEEG_Images\0488.jpg	NY	Left	No	0.675798000000214	0	568875	251
1112.125	2	health	foodImageDisplay	3	144	24	foodImage.47	FOODEEG_Images\0488.jpg	NY	Left	No	0.675798000000214	0	569409	252
1114.189453125	0.675798000000214	health	choicePhaseStart	3	144	24	foodImage.47	FOODEEG_Images\0488.jpg	NY	Left	No	0.675798000000214	0	570466	253
1114.85546875	0	health	response	3	144	24	foodImage.47	FOODEEG_Images\0488.jpg	NY	Left	No	0.675798000000214	0	570807	234
1115.90234375	1	health	trialStart	3	145	25	foodImage.60	FOODEEG_Images\0614.jpg	NY	Right	Yes	1.1584789999979	0	571343	251
1116.9609375	2	health	foodImageDisplay	3	145	25	foodImage.60	FOODEEG_Images\0614.jpg	NY	Right	Yes	1.1584789999979	0	571885	252
1119.025390625	1.1584789999979	health	choicePhaseStart	3	145	25	foodImage.60	FOODEEG_Images\0614.jpg	NY	Right	Yes	1.1584789999979	0	572942	253
1120.173828125	0	health	response	3	145	25	foodImage.60	FOODEEG_Images\0614.jpg	NY	Right	Yes	1.1584789999979	0	573530	235
1121.220703125	1	health	trialStart	3	146	26	foodImage.22	FOODEEG_Images\0236.jpg	YN	Left	Yes	0.959876500000973	0	574066	251
1122.26171875	2	health	foodImageDisplay	3	146	26	foodImage.22	FOODEEG_Images\0236.jpg	YN	Left	Yes	0.959876500000973	0	574599	252
1124.328125	0.959876500000973	health	choicePhaseStart	3	146	26	foodImage.22	FOODEEG_Images\0236.jpg	YN	Left	Yes	0.959876500000973	0	575657	253
1125.279296875	0	health	response	3	146	26	foodImage.22	FOODEEG_Images\0236.jpg	YN	Left	Yes	0.959876500000973	0	576144	234
1126.322265625	1	health	trialStart	3	147	27	foodImage.95	FOODEEG_Images\0903.jpg	NY	Left	No	1.14552510000067	0	576678	251
1127.361328125	2	health	foodImageDisplay	3	147	27	foodImage.95	FOODEEG_Images\0903.jpg	NY	Left	No	1.14552510000067	0	577210	252
1129.4296875	1.14552510000067	health	choicePhaseStart	3	147	27	foodImage.95	FOODEEG_Images\0903.jpg	NY	Left	No	1.14552510000067	0	578269	253
1130.56640625	0	health	response	3	147	27	foodImage.95	FOODEEG_Images\0903.jpg	NY	Left	No	1.14552510000067	0	578851	234
1131.611328125	1	health	trialStart	3	148	28	foodImage.83	FOODEEG_Images\0827.jpg	NY	Right	Yes	1.01928580000094	0	579386	251
1132.66796875	2	health	foodImageDisplay	3	148	28	foodImage.83	FOODEEG_Images\0827.jpg	NY	Right	Yes	1.01928580000094	0	579927	252
1134.732421875	1.01928580000094	health	choicePhaseStart	3	148	28	foodImage.83	FOODEEG_Images\0827.jpg	NY	Right	Yes	1.01928580000094	0	580984	253
1135.7421875	0	health	response	3	148	28	foodImage.83	FOODEEG_Images\0827.jpg	NY	Right	Yes	1.01928580000094	0	581501	235
1136.78515625	1	health	trialStart	3	149	29	foodImage.49	FOODEEG_Images\0515.jpg	YN	Left	Yes	3.75696309999694	0	582035	251
1137.828125	2	health	foodImageDisplay	3	149	29	foodImage.49	FOODEEG_Images\0515.jpg	YN	Left	Yes	3.75696309999694	0	582569	252
1139.890625	3.75696309999694	health	choicePhaseStart	3	149	29	foodImage.49	FOODEEG_Images\0515.jpg	YN	Left	Yes	3.75696309999694	0	583625	253
1143.638671875	0	health	response	3	149	29	foodImage.49	FOODEEG_Images\0515.jpg	YN	Left	Yes	3.75696309999694	0	585544	234
1144.6796875	1	decision	trialStart	3	150	30	foodImage.5	FOODEEG_Images\0107.jpg	YN	Left	Yes	0.949030100000527	0	586077	251
1145.73828125	2	decision	foodImageDisplay	3	150	30	foodImage.5	FOODEEG_Images\0107.jpg	YN	Left	Yes	0.949030100000527	0	586619	252
1147.80078125	0.949030100000527	decision	choicePhaseStart	3	150	30	foodImage.5	FOODEEG_Images\0107.jpg	YN	Left	Yes	0.949030100000527	0	587675	253
1148.7421875	0	decision	response	3	150	30	foodImage.5	FOODEEG_Images\0107.jpg	YN	Left	Yes	0.949030100000527	0	588157	234
1149.78515625	1	decision	trialStart	3	151	31	foodImage.26	FOODEEG_Images\0262.jpg	NY	Right	Yes	0.536510900001304	0	588691	251
1150.828125	2	decision	foodImageDisplay	3	151	31	foodImage.26	FOODEEG_Images\0262.jpg	NY	Right	Yes	0.536510900001304	0	589225	252
1152.890625	0.536510900001304	decision	choicePhaseStart	3	151	31	foodImage.26	FOODEEG_Images\0262.jpg	NY	Right	Yes	0.536510900001304	0	590281	253
1153.421875	0	decision	response	3	151	31	foodImage.26	FOODEEG_Images\0262.jpg	NY	Right	Yes	0.536510900001304	0	590553	235
1154.46484375	1	health	trialStart	3	152	32	foodImage.56	FOODEEG_Images\0586.jpg	NY	Right	Yes	0.528299999998126	0	591087	251
1155.509765625	2	health	foodImageDisplay	3	152	32	foodImage.56	FOODEEG_Images\0586.jpg	NY	Right	Yes	0.528299999998126	0	591622	252
1157.57421875	0.528299999998126	health	choicePhaseStart	3	152	32	foodImage.56	FOODEEG_Images\0586.jpg	NY	Right	Yes	0.528299999998126	0	592679	253
1158.09375	0	health	response	3	152	32	foodImage.56	FOODEEG_Images\0586.jpg	NY	Right	Yes	0.528299999998126	0	592945	235
1159.142578125	1	taste	trialStart	3	153	33	foodImage.51	FOODEEG_Images\0536.jpg	NY	Right	Yes	0.906064099999639	0	593482	251
1160.1875	2	taste	foodImageDisplay	3	153	33	foodImage.51	FOODEEG_Images\0536.jpg	NY	Right	Yes	0.906064099999639	0	594017	252
1162.251953125	0.906064099999639	taste	choicePhaseStart	3	153	33	foodImage.51	FOODEEG_Images\0536.jpg	NY	Right	Yes	0.906064099999639	0	595074	253
1163.1484375	0	taste	response	3	153	33	foodImage.51	FOODEEG_Images\0536.jpg	NY	Right	Yes	0.906064099999639	0	595533	235
1164.197265625	1	taste	trialStart	3	154	34	foodImage.13	FOODEEG_Images\0183.jpg	YN	Left	Yes	0.752854500002286	0	596070	251
1165.240234375	2	taste	foodImageDisplay	3	154	34	foodImage.13	FOODEEG_Images\0183.jpg	YN	Left	Yes	0.752854500002286	0	596604	252
1167.30078125	0.752854500002286	taste	choicePhaseStart	3	154	34	foodImage.13	FOODEEG_Images\0183.jpg	YN	Left	Yes	0.752854500002286	0	597659	253
1168.044921875	0	taste	response	3	154	34	foodImage.13	FOODEEG_Images\0183.jpg	YN	Left	Yes	0.752854500002286	0	598040	234
1169.087890625	1	health	trialStart	3	155	35	foodImage.107	FOODEEG_Images\0915.jpg	NY	Left	No	0.613508200000069	0	598574	251
1170.126953125	2	health	foodImageDisplay	3	155	35	foodImage.107	FOODEEG_Images\0915.jpg	NY	Left	No	0.613508200000069	0	599106	252
1172.197265625	0.613508200000069	health	choicePhaseStart	3	155	35	foodImage.107	FOODEEG_Images\0915.jpg	NY	Left	No	0.613508200000069	0	600166	253
1172.8046875	0	health	response	3	155	35	foodImage.107	FOODEEG_Images\0915.jpg	NY	Left	No	0.613508200000069	0	600477	234
1173.84765625	1	decision	trialStart	3	156	36	foodImage.88	FOODEEG_Images\0878.jpg	NY	Right	Yes	0.96447260000059	0	601011	251
1174.90234375	2	decision	foodImageDisplay	3	156	36	foodImage.88	FOODEEG_Images\0878.jpg	NY	Right	Yes	0.96447260000059	0	601551	252
1176.966796875	0.96447260000059	decision	choicePhaseStart	3	156	36	foodImage.88	FOODEEG_Images\0878.jpg	NY	Right	Yes	0.96447260000059	0	602608	253
1177.923828125	0	decision	response	3	156	36	foodImage.88	FOODEEG_Images\0878.jpg	NY	Right	Yes	0.96447260000059	0	603098	235
1178.966796875	1	decision	trialStart	3	157	37	foodImage.19	FOODEEG_Images\0225.jpg	YN	Right	No	1.33889679999993	0	603632	251
1180.009765625	2	decision	foodImageDisplay	3	157	37	foodImage.19	FOODEEG_Images\0225.jpg	YN	Right	No	1.33889679999993	0	604166	252
1182.07421875	1.33889679999993	decision	choicePhaseStart	3	157	37	foodImage.19	FOODEEG_Images\0225.jpg	YN	Right	No	1.33889679999993	0	605223	253
1183.404296875	0	decision	response	3	157	37	foodImage.19	FOODEEG_Images\0225.jpg	YN	Right	No	1.33889679999993	0	605904	235
1184.44921875	1	health	trialStart	3	158	38	foodImage.112	FOODEEG_Images\0920.jpg	NY	Left	No	2.56439420000243	0	606439	251
1185.48828125	2	health	foodImageDisplay	3	158	38	foodImage.112	FOODEEG_Images\0920.jpg	NY	Left	No	2.56439420000243	0	606971	252
1187.552734375	2.56439420000243	health	choicePhaseStart	3	158	38	foodImage.112	FOODEEG_Images\0920.jpg	NY	Left	No	2.56439420000243	0	608028	253
1190.107421875	0	health	response	3	158	38	foodImage.112	FOODEEG_Images\0920.jpg	NY	Left	No	2.56439420000243	0	609336	234
1191.15625	1	decision	trialStart	3	159	39	foodImage.10	FOODEEG_Images\0145.jpg	YN	Left	Yes	0.699959100002161	0	609873	251
1192.2109375	2	decision	foodImageDisplay	3	159	39	foodImage.10	FOODEEG_Images\0145.jpg	YN	Left	Yes	0.699959100002161	0	610413	252
1194.2734375	0.699959100002161	decision	choicePhaseStart	3	159	39	foodImage.10	FOODEEG_Images\0145.jpg	YN	Left	Yes	0.699959100002161	0	611469	253
1194.96484375	0	decision	response	3	159	39	foodImage.10	FOODEEG_Images\0145.jpg	YN	Left	Yes	0.699959100002161	0	611823	234
1196.00390625	1	decision	trialStart	3	160	40	foodImage.15	FOODEEG_Images\0189.jpg	NY	Right	Yes	0.765939000000799	0	612355	251
1197.0625	2	decision	foodImageDisplay	3	160	40	foodImage.15	FOODEEG_Images\0189.jpg	NY	Right	Yes	0.765939000000799	0	612897	252
1199.126953125	0.765939000000799	decision	choicePhaseStart	3	160	40	foodImage.15	FOODEEG_Images\0189.jpg	NY	Right	Yes	0.765939000000799	0	613954	253
1199.8828125	0	decision	response	3	160	40	foodImage.15	FOODEEG_Images\0189.jpg	NY	Right	Yes	0.765939000000799	0	614341	235
1200.927734375	1	taste	trialStart	3	161	41	foodImage.29	FOODEEG_Images\0278.jpg	YN	Right	No	1.14949639999759	0	614876	251
1201.96875	2	taste	foodImageDisplay	3	161	41	foodImage.29	FOODEEG_Images\0278.jpg	YN	Right	No	1.14949639999759	0	615409	252
1204.03125	1.14949639999759	taste	choicePhaseStart	3	161	41	foodImage.29	FOODEEG_Images\0278.jpg	YN	Right	No	1.14949639999759	0	616465	253
1205.171875	0	taste	response	3	161	41	foodImage.29	FOODEEG_Images\0278.jpg	YN	Right	No	1.14949639999759	0	617049	235
1206.21875	1	taste	trialStart	3	162	42	foodImage.69	FOODEEG_Images\0693.jpg	NY	Right	Yes	0.679034499997215	0	617585	251
1207.279296875	2	taste	foodImageDisplay	3	162	42	foodImage.69	FOODEEG_Images\0693.jpg	NY	Right	Yes	0.679034499997215	0	618128	252
1209.34765625	0.679034499997215	taste	choicePhaseStart	3	162	42	foodImage.69	FOODEEG_Images\0693.jpg	NY	Right	Yes	0.679034499997215	0	619187	253
1210.01953125	0	taste	response	3	162	42	foodImage.69	FOODEEG_Images\0693.jpg	NY	Right	Yes	0.679034499997215	0	619531	235
1211.0625	1	decision	trialStart	3	163	43	foodImage.117	FOODEEG_Images\0925.jpg	YN	Right	No	0.672425799999473	0	620065	251
1212.1015625	2	decision	foodImageDisplay	3	163	43	foodImage.117	FOODEEG_Images\0925.jpg	YN	Right	No	0.672425799999473	0	620597	252
1214.169921875	0.672425799999473	decision	choicePhaseStart	3	163	43	foodImage.117	FOODEEG_Images\0925.jpg	YN	Right	No	0.672425799999473	0	621656	253
1214.8359375	0	decision	response	3	163	43	foodImage.117	FOODEEG_Images\0925.jpg	YN	Right	No	0.672425799999473	0	621997	235
1215.87890625	1	decision	trialStart	3	164	44	foodImage.54	FOODEEG_Images\0560.jpg	NY	Right	Yes	0.834960399999545	0	622531	251
1216.9375	2	decision	foodImageDisplay	3	164	44	foodImage.54	FOODEEG_Images\0560.jpg	NY	Right	Yes	0.834960399999545	0	623073	252
1219	0.834960399999545	decision	choicePhaseStart	3	164	44	foodImage.54	FOODEEG_Images\0560.jpg	NY	Right	Yes	0.834960399999545	0	624129	253
1219.826171875	0	decision	response	3	164	44	foodImage.54	FOODEEG_Images\0560.jpg	NY	Right	Yes	0.834960399999545	0	624552	235
1220.875	1	decision	trialStart	3	165	45	foodImage.77	FOODEEG_Images\0771.jpg	YN	Left	Yes	0.726659899999504	0	625089	251
1221.91796875	2	decision	foodImageDisplay	3	165	45	foodImage.77	FOODEEG_Images\0771.jpg	YN	Left	Yes	0.726659899999504	0	625623	252
1223.98046875	0.726659899999504	decision	choicePhaseStart	3	165	45	foodImage.77	FOODEEG_Images\0771.jpg	YN	Left	Yes	0.726659899999504	0	626679	253
1224.69921875	0	decision	response	3	165	45	foodImage.77	FOODEEG_Images\0771.jpg	YN	Left	Yes	0.726659899999504	0	627047	234
1225.740234375	1	decision	trialStart	3	166	46	foodImage.14	FOODEEG_Images\0188.jpg	YN	Left	Yes	0.618587799999659	0	627580	251
1226.802734375	2	decision	foodImageDisplay	3	166	46	foodImage.14	FOODEEG_Images\0188.jpg	YN	Left	Yes	0.618587799999659	0	628124	252
1228.865234375	0.618587799999659	decision	choicePhaseStart	3	166	46	foodImage.14	FOODEEG_Images\0188.jpg	YN	Left	Yes	0.618587799999659	0	629180	253
1229.474609375	0	decision	response	3	166	46	foodImage.14	FOODEEG_Images\0188.jpg	YN	Left	Yes	0.618587799999659	0	629492	234
1230.517578125	1	taste	trialStart	3	167	47	foodImage.57	FOODEEG_Images\0587.jpg	YN	Left	Yes	0.539341200001218	0	630026	251
1231.560546875	2	taste	foodImageDisplay	3	167	47	foodImage.57	FOODEEG_Images\0587.jpg	YN	Left	Yes	0.539341200001218	0	630560	252
1233.625	0.539341200001218	taste	choicePhaseStart	3	167	47	foodImage.57	FOODEEG_Images\0587.jpg	YN	Left	Yes	0.539341200001218	0	631617	253
1234.154296875	0	taste	response	3	167	47	foodImage.57	FOODEEG_Images\0587.jpg	YN	Left	Yes	0.539341200001218	0	631888	234
1235.197265625	1	health	trialStart	3	168	48	foodImage.58	FOODEEG_Images\0605.jpg	NY	Right	Yes	1.67981909999799	0	632422	251
1236.251953125	2	health	foodImageDisplay	3	168	48	foodImage.58	FOODEEG_Images\0605.jpg	NY	Right	Yes	1.67981909999799	0	632962	252
1238.31640625	1.67981909999799	health	choicePhaseStart	3	168	48	foodImage.58	FOODEEG_Images\0605.jpg	NY	Right	Yes	1.67981909999799	0	634019	253
1239.986328125	0	health	response	3	168	48	foodImage.58	FOODEEG_Images\0605.jpg	NY	Right	Yes	1.67981909999799	0	634874	235
1241.02734375	1	decision	trialStart	3	169	49	foodImage.7	FOODEEG_Images\0116.jpg	YN	Left	Yes	0.773901900000055	0	635407	251
1242.068359375	2	decision	foodImageDisplay	3	169	49	foodImage.7	FOODEEG_Images\0116.jpg	YN	Left	Yes	0.773901900000055	0	635940	252
1244.1328125	0.773901900000055	decision	choicePhaseStart	3	169	49	foodImage.7	FOODEEG_Images\0116.jpg	YN	Left	Yes	0.773901900000055	0	636997	253
1244.8984375	0	decision	response	3	169	49	foodImage.7	FOODEEG_Images\0116.jpg	YN	Left	Yes	0.773901900000055	0	637389	234
1245.94921875	1	health	trialStart	3	170	50	foodImage.108	FOODEEG_Images\0916.jpg	NY	Left	No	0.696029999999155	0	637927	251
1246.986328125	2	health	foodImageDisplay	3	170	50	foodImage.108	FOODEEG_Images\0916.jpg	NY	Left	No	0.696029999999155	0	638458	252
1249.05078125	0.696029999999155	health	choicePhaseStart	3	170	50	foodImage.108	FOODEEG_Images\0916.jpg	NY	Left	No	0.696029999999155	0	639515	253
1249.73828125	0	health	response	3	170	50	foodImage.108	FOODEEG_Images\0916.jpg	NY	Left	No	0.696029999999155	0	639867	234
1250.78125	1	decision	trialStart	3	171	51	foodImage.34	FOODEEG_Images\0339.jpg	NY	Left	No	1.32586099999753	0	640401	251
1251.837890625	2	decision	foodImageDisplay	3	171	51	foodImage.34	FOODEEG_Images\0339.jpg	NY	Left	No	1.32586099999753	0	640942	252
1253.900390625	1.32586099999753	decision	choicePhaseStart	3	171	51	foodImage.34	FOODEEG_Images\0339.jpg	NY	Left	No	1.32586099999753	0	641998	253
1255.216796875	0	decision	response	3	171	51	foodImage.34	FOODEEG_Images\0339.jpg	NY	Left	No	1.32586099999753	0	642672	234
1256.26171875	1	decision	trialStart	3	172	52	foodImage.62	FOODEEG_Images\0644.jpg	NY	Left	No	0.846197599999869	0	643207	251
1257.322265625	2	decision	foodImageDisplay	3	172	52	foodImage.62	FOODEEG_Images\0644.jpg	NY	Left	No	0.846197599999869	0	643750	252
1259.38671875	0.846197599999869	decision	choicePhaseStart	3	172	52	foodImage.62	FOODEEG_Images\0644.jpg	NY	Left	No	0.846197599999869	0	644807	253
1260.224609375	0	decision	response	3	172	52	foodImage.62	FOODEEG_Images\0644.jpg	NY	Left	No	0.846197599999869	0	645236	234
1261.26953125	1	taste	trialStart	3	173	53	foodImage.81	FOODEEG_Images\0797.jpg	NY	Left	No	0.877642899999046	0	645771	251
1262.326171875	2	taste	foodImageDisplay	3	173	53	foodImage.81	FOODEEG_Images\0797.jpg	NY	Left	No	0.877642899999046	0	646312	252
1264.388671875	0.877642899999046	taste	choicePhaseStart	3	173	53	foodImage.81	FOODEEG_Images\0797.jpg	NY	Left	No	0.877642899999046	0	647368	253
1265.2578125	0	taste	response	3	173	53	foodImage.81	FOODEEG_Images\0797.jpg	NY	Left	No	0.877642899999046	0	647813	234
1266.302734375	1	taste	trialStart	3	174	54	foodImage.95	FOODEEG_Images\0903.jpg	NY	Left	No	0.784380400000373	0	648348	251
1267.33984375	2	taste	foodImageDisplay	3	174	54	foodImage.95	FOODEEG_Images\0903.jpg	NY	Left	No	0.784380400000373	0	648879	252
1269.40234375	0.784380400000373	taste	choicePhaseStart	3	174	54	foodImage.95	FOODEEG_Images\0903.jpg	NY	Left	No	0.784380400000373	0	649935	253
1270.177734375	0	taste	response	3	174	54	foodImage.95	FOODEEG_Images\0903.jpg	NY	Left	No	0.784380400000373	0	650332	234
1271.21875	1	decision	trialStart	3	175	55	foodImage.114	FOODEEG_Images\0922.jpg	YN	Right	No	0.775451800000155	0	650865	251
1272.2578125	2	decision	foodImageDisplay	3	175	55	foodImage.114	FOODEEG_Images\0922.jpg	YN	Right	No	0.775451800000155	0	651397	252
1274.322265625	0.775451800000155	decision	choicePhaseStart	3	175	55	foodImage.114	FOODEEG_Images\0922.jpg	YN	Right	No	0.775451800000155	0	652454	253
1275.087890625	0	decision	response	3	175	55	foodImage.114	FOODEEG_Images\0922.jpg	YN	Right	No	0.775451800000155	0	652846	235
1276.1328125	1	taste	trialStart	3	176	56	foodImage.39	FOODEEG_Images\0367.jpg	NY	Right	Yes	1.07081649999964	0	653381	251
1277.171875	2	taste	foodImageDisplay	3	176	56	foodImage.39	FOODEEG_Images\0367.jpg	NY	Right	Yes	1.07081649999964	0	653913	252
1279.234375	1.07081649999964	taste	choicePhaseStart	3	176	56	foodImage.39	FOODEEG_Images\0367.jpg	NY	Right	Yes	1.07081649999964	0	654969	253
1280.296875	0	taste	response	3	176	56	foodImage.39	FOODEEG_Images\0367.jpg	NY	Right	Yes	1.07081649999964	0	655513	235
1281.33984375	1	decision	trialStart	3	177	57	foodImage.23	FOODEEG_Images\0244.jpg	YN	Right	No	0.733836099996552	0	656047	251
1282.380859375	2	decision	foodImageDisplay	3	177	57	foodImage.23	FOODEEG_Images\0244.jpg	YN	Right	No	0.733836099996552	0	656580	252
1284.443359375	0.733836099996552	decision	choicePhaseStart	3	177	57	foodImage.23	FOODEEG_Images\0244.jpg	YN	Right	No	0.733836099996552	0	657636	253
1285.16796875	0	decision	response	3	177	57	foodImage.23	FOODEEG_Images\0244.jpg	YN	Right	No	0.733836099996552	0	658007	235
1286.216796875	1	decision	trialStart	3	178	58	foodImage.116	FOODEEG_Images\0924.jpg	NY	Left	No	0.690250299998297	0	658544	251
1287.255859375	2	decision	foodImageDisplay	3	178	58	foodImage.116	FOODEEG_Images\0924.jpg	NY	Left	No	0.690250299998297	0	659076	252
1289.3203125	0.690250299998297	decision	choicePhaseStart	3	178	58	foodImage.116	FOODEEG_Images\0924.jpg	NY	Left	No	0.690250299998297	0	660133	253
1290	0	decision	response	3	178	58	foodImage.116	FOODEEG_Images\0924.jpg	NY	Left	No	0.690250299998297	0	660481	234
1291.044921875	1	taste	trialStart	3	179	59	foodImage.25	FOODEEG_Images\0261.jpg	YN	Left	Yes	0.72620950000055	0	661016	251
1292.091796875	2	taste	foodImageDisplay	3	179	59	foodImage.25	FOODEEG_Images\0261.jpg	YN	Left	Yes	0.72620950000055	0	661552	252
1294.154296875	0.72620950000055	taste	choicePhaseStart	3	179	59	foodImage.25	FOODEEG_Images\0261.jpg	YN	Left	Yes	0.72620950000055	0	662608	253
1294.87109375	0	taste	response	3	179	59	foodImage.25	FOODEEG_Images\0261.jpg	YN	Left	Yes	0.72620950000055	0	662975	234
1295.919921875	1	taste	trialStart	3	180	60	foodImage.41	FOODEEG_Images\0409.jpg	YN	Left	Yes	0.728951399996731	0	663512	251
1296.96875	2	taste	foodImageDisplay	3	180	60	foodImage.41	FOODEEG_Images\0409.jpg	YN	Left	Yes	0.728951399996731	0	664049	252
1299.03125	0.728951399996731	taste	choicePhaseStart	3	180	60	foodImage.41	FOODEEG_Images\0409.jpg	YN	Left	Yes	0.728951399996731	0	665105	253
1299.751953125	0	taste	response	3	180	60	foodImage.41	FOODEEG_Images\0409.jpg	YN	Left	Yes	0.728951399996731	0	665474	234
1301.794921875	29.611328125	n/a	blockEnd	n/a	n/a	n/a	n/a	n/a	n/a	n/a	n/a	n/a	n/a	666520	254
1331.40625	2	n/a	blockStart	4	n/a	n/a	n/a	n/a	n/a	n/a	n/a	n/a	n/a	681681	250
1333.439453125	1	taste	trialStart	4	181	1	foodImage.48	FOODEEG_Images\0494.jpg	NY	Right	Yes	0.637449500001821	0	682722	251
1334.482421875	2	taste	foodImageDisplay	4	181	1	foodImage.48	FOODEEG_Images\0494.jpg	NY	Right	Yes	0.637449500001821	0	683256	252
1336.544921875	0.637449500001821	taste	choicePhaseStart	4	181	1	foodImage.48	FOODEEG_Images\0494.jpg	NY	Right	Yes	0.637449500001821	0	684312	253
1337.173828125	0	taste	response	4	181	1	foodImage.48	FOODEEG_Images\0494.jpg	NY	Right	Yes	0.637449500001821	0	684634	235
1338.21875	1	health	trialStart	4	182	2	foodImage.45	FOODEEG_Images\0478.jpg	NY	Right	Yes	0.609701100001985	0	685169	251
1339.263671875	2	health	foodImageDisplay	4	182	2	foodImage.45	FOODEEG_Images\0478.jpg	NY	Right	Yes	0.609701100001985	0	685704	252
1341.326171875	0.609701100001985	health	choicePhaseStart	4	182	2	foodImage.45	FOODEEG_Images\0478.jpg	NY	Right	Yes	0.609701100001985	0	686760	253
1341.92578125	0	health	response	4	182	2	foodImage.45	FOODEEG_Images\0478.jpg	NY	Right	Yes	0.609701100001985	0	687067	235
1342.96875	1	taste	trialStart	4	183	3	foodImage.56	FOODEEG_Images\0586.jpg	YN	Left	Yes	0.566357100000459	0	687601	251
1344.01171875	2	taste	foodImageDisplay	4	183	3	foodImage.56	FOODEEG_Images\0586.jpg	YN	Left	Yes	0.566357100000459	0	688135	252
1346.07421875	0.566357100000459	taste	choicePhaseStart	4	183	3	foodImage.56	FOODEEG_Images\0586.jpg	YN	Left	Yes	0.566357100000459	0	689191	253
1346.62890625	0	taste	response	4	183	3	foodImage.56	FOODEEG_Images\0586.jpg	YN	Left	Yes	0.566357100000459	0	689475	234
1347.671875	1	decision	trialStart	4	184	4	foodImage.111	FOODEEG_Images\0919.jpg	YN	Right	No	0.586316600001737	0	690009	251
1348.708984375	2	decision	foodImageDisplay	4	184	4	foodImage.111	FOODEEG_Images\0919.jpg	YN	Right	No	0.586316600001737	0	690540	252
1350.7734375	0.586316600001737	decision	choicePhaseStart	4	184	4	foodImage.111	FOODEEG_Images\0919.jpg	YN	Right	No	0.586316600001737	0	691597	253
1351.349609375	0	decision	response	4	184	4	foodImage.111	FOODEEG_Images\0919.jpg	YN	Right	No	0.586316600001737	0	691892	235
1352.396484375	1	decision	trialStart	4	185	5	foodImage.40	FOODEEG_Images\0373.jpg	YN	Left	Yes	0.568779400000494	0	692428	251
1353.4375	2	decision	foodImageDisplay	4	185	5	foodImage.40	FOODEEG_Images\0373.jpg	YN	Left	Yes	0.568779400000494	0	692961	252
1355.501953125	0.568779400000494	decision	choicePhaseStart	4	185	5	foodImage.40	FOODEEG_Images\0373.jpg	YN	Left	Yes	0.568779400000494	0	694018	253
1356.060546875	0	decision	response	4	185	5	foodImage.40	FOODEEG_Images\0373.jpg	YN	Left	Yes	0.568779400000494	0	694304	234
1357.107421875	1	taste	trialStart	4	186	6	foodImage.109	FOODEEG_Images\0917.jpg	YN	Right	No	0.563596200001484	0	694840	251
1358.146484375	2	taste	foodImageDisplay	4	186	6	foodImage.109	FOODEEG_Images\0917.jpg	YN	Right	No	0.563596200001484	0	695372	252
1360.2109375	0.563596200001484	taste	choicePhaseStart	4	186	6	foodImage.109	FOODEEG_Images\0917.jpg	YN	Right	No	0.563596200001484	0	696429	253
1360.765625	0	taste	response	4	186	6	foodImage.109	FOODEEG_Images\0917.jpg	YN	Right	No	0.563596200001484	0	696713	235
1361.81640625	1	taste	trialStart	4	187	7	foodImage.66	FOODEEG_Images\0676.jpg	YN	Left	Yes	0.948660800000653	0	697251	251
1362.857421875	2	taste	foodImageDisplay	4	187	7	foodImage.66	FOODEEG_Images\0676.jpg	YN	Left	Yes	0.948660800000653	0	697784	252
1364.921875	0.948660800000653	taste	choicePhaseStart	4	187	7	foodImage.66	FOODEEG_Images\0676.jpg	YN	Left	Yes	0.948660800000653	0	698841	253
1365.861328125	0	taste	response	4	187	7	foodImage.66	FOODEEG_Images\0676.jpg	YN	Left	Yes	0.948660800000653	0	699322	234
1366.904296875	1	decision	trialStart	4	188	8	foodImage.70	FOODEEG_Images\0705.jpg	NY	Right	Yes	0.739323600002535	0	699856	251
1367.962890625	2	decision	foodImageDisplay	4	188	8	foodImage.70	FOODEEG_Images\0705.jpg	NY	Right	Yes	0.739323600002535	0	700398	252
1370.02734375	0.739323600002535	decision	choicePhaseStart	4	188	8	foodImage.70	FOODEEG_Images\0705.jpg	NY	Right	Yes	0.739323600002535	0	701455	253
1370.755859375	0	decision	response	4	188	8	foodImage.70	FOODEEG_Images\0705.jpg	NY	Right	Yes	0.739323600002535	0	701828	235
1371.798828125	1	taste	trialStart	4	189	9	foodImage.37	FOODEEG_Images\0359.jpg	NY	Right	Yes	0.940867500001332	0	702362	251
1372.841796875	2	taste	foodImageDisplay	4	189	9	foodImage.37	FOODEEG_Images\0359.jpg	NY	Right	Yes	0.940867500001332	0	702896	252
1374.90625	0.940867500001332	taste	choicePhaseStart	4	189	9	foodImage.37	FOODEEG_Images\0359.jpg	NY	Right	Yes	0.940867500001332	0	703953	253
1375.8359375	0	taste	response	4	189	9	foodImage.37	FOODEEG_Images\0359.jpg	NY	Right	Yes	0.940867500001332	0	704429	235
1376.87890625	1	taste	trialStart	4	190	10	foodImage.76	FOODEEG_Images\0766.jpg	YN	Left	Yes	0.683610600000975	0	704963	251
1377.923828125	2	taste	foodImageDisplay	4	190	10	foodImage.76	FOODEEG_Images\0766.jpg	YN	Left	Yes	0.683610600000975	0	705498	252
1379.986328125	0.683610600000975	taste	choicePhaseStart	4	190	10	foodImage.76	FOODEEG_Images\0766.jpg	YN	Left	Yes	0.683610600000975	0	706554	253
1380.66015625	0	taste	response	4	190	10	foodImage.76	FOODEEG_Images\0766.jpg	YN	Left	Yes	0.683610600000975	0	706899	234
1381.703125	1	decision	trialStart	4	191	11	foodImage.86	FOODEEG_Images\0844.jpg	NY	Right	Yes	0.619379899999331	0	707433	251
1382.76171875	2	decision	foodImageDisplay	4	191	11	foodImage.86	FOODEEG_Images\0844.jpg	NY	Right	Yes	0.619379899999331	0	707975	252
1384.826171875	0.619379899999331	decision	choicePhaseStart	4	191	11	foodImage.86	FOODEEG_Images\0844.jpg	NY	Right	Yes	0.619379899999331	0	709032	253
1385.435546875	0	decision	response	4	191	11	foodImage.86	FOODEEG_Images\0844.jpg	NY	Right	Yes	0.619379899999331	0	709344	235
1386.482421875	1	decision	trialStart	4	192	12	foodImage.107	FOODEEG_Images\0915.jpg	YN	Right	No	0.683681499998784	0	709880	251
1387.52734375	2	decision	foodImageDisplay	4	192	12	foodImage.107	FOODEEG_Images\0915.jpg	YN	Right	No	0.683681499998784	0	710415	252
1389.591796875	0.683681499998784	decision	choicePhaseStart	4	192	12	foodImage.107	FOODEEG_Images\0915.jpg	YN	Right	No	0.683681499998784	0	711472	253
1390.267578125	0	decision	response	4	192	12	foodImage.107	FOODEEG_Images\0915.jpg	YN	Right	No	0.683681499998784	0	711818	235
1391.310546875	1	health	trialStart	4	193	13	foodImage.109	FOODEEG_Images\0917.jpg	YN	Right	No	0.75294059999942	0	712352	251
1392.349609375	2	health	foodImageDisplay	4	193	13	foodImage.109	FOODEEG_Images\0917.jpg	YN	Right	No	0.75294059999942	0	712884	252
1394.412109375	0.75294059999942	health	choicePhaseStart	4	193	13	foodImage.109	FOODEEG_Images\0917.jpg	YN	Right	No	0.75294059999942	0	713940	253
1395.15625	0	health	response	4	193	13	foodImage.109	FOODEEG_Images\0917.jpg	YN	Right	No	0.75294059999942	0	714321	235
1396.19921875	1	decision	trialStart	4	194	14	foodImage.58	FOODEEG_Images\0605.jpg	YN	Left	Yes	0.637323800001468	0	714855	251
1397.255859375	2	decision	foodImageDisplay	4	194	14	foodImage.58	FOODEEG_Images\0605.jpg	YN	Left	Yes	0.637323800001468	0	715396	252
