onset	duration	trial_type	event_type	block	trial_total	trial_in_block	food_image_code	food_image_path	button_position	resp_position	resp_choice	choice_rt	resp_too_slow	sample	trigger
234.87890625	2	n/a	blockStart	1	n/a	n/a	n/a	n/a	n/a	n/a	n/a	n/a	n/a	120259	250
236.9140625	1	taste	trialStart	1	1	1	foodImage.12	FOODEEG_Images\0181.jpg	YN	Left	Yes	0.969347699996433	0	121301	251
237.9609375	2	taste	foodImageDisplay	1	1	1	foodImage.12	FOODEEG_Images\0181.jpg	YN	Left	Yes	0.969347699996433	0	121837	252
240.03515625	0.969347699996433	taste	choicePhaseStart	1	1	1	foodImage.12	FOODEEG_Images\0181.jpg	YN	Left	Yes	0.969347699996433	0	122899	253
240.998046875	0	taste	response	1	1	1	foodImage.12	FOODEEG_Images\0181.jpg	YN	Left	Yes	0.969347699996433	0	123392	234
242.14453125	1	decision	trialStart	1	2	2	foodImage.63	FOODEEG_Images\0645.jpg	NY	Right	Yes	0.598258700003498	0	123979	251
243.189453125	2	decision	foodImageDisplay	1	2	2	foodImage.63	FOODEEG_Images\0645.jpg	NY	Right	Yes	0.598258700003498	0	124514	252
245.259765625	0.598258700003498	decision	choicePhaseStart	1	2	2	foodImage.63	FOODEEG_Images\0645.jpg	NY	Right	Yes	0.598258700003498	0	125574	253
245.853515625	0	decision	response	1	2	2	foodImage.63	FOODEEG_Images\0645.jpg	NY	Right	Yes	0.598258700003498	0	125878	235
246.904296875	1	decision	trialStart	1	3	3	foodImage.120	FOODEEG_Images\0928.jpg	NY	Right	Yes	0.601244800003769	0	126416	251
247.9453125	2	decision	foodImageDisplay	1	3	3	foodImage.120	FOODEEG_Images\0928.jpg	NY	Right	Yes	0.601244800003769	0	126949	252
250.009765625	0.601244800003769	decision	choicePhaseStart	1	3	3	foodImage.120	FOODEEG_Images\0928.jpg	NY	Right	Yes	0.601244800003769	0	128006	253
250.603515625	0	decision	response	1	3	3	foodImage.120	FOODEEG_Images\0928.jpg	NY	Right	Yes	0.601244800003769	0	128310	235
251.646484375	1	health	trialStart	1	4	4	foodImage.82	FOODEEG_Images\0805.jpg	NY	Right	Yes	0.763386099999479	0	128844	251
252.703125	2	health	foodImageDisplay	1	4	4	foodImage.82	FOODEEG_Images\0805.jpg	NY	Right	Yes	0.763386099999479	0	129385	252
254.767578125	0.763386099999479	health	choicePhaseStart	1	4	4	foodImage.82	FOODEEG_Images\0805.jpg	NY	Right	Yes	0.763386099999479	0	130442	253
255.525390625	0	health	response	1	4	4	foodImage.82	FOODEEG_Images\0805.jpg	NY	Right	Yes	0.763386099999479	0	130830	235
256.568359375	1	decision	trialStart	1	5	5	foodImage.21	FOODEEG_Images\0234.jpg	NY	Right	Yes	0.799085200000263	0	131364	251
257.626953125	2	decision	foodImageDisplay	1	5	5	foodImage.21	FOODEEG_Images\0234.jpg	NY	Right	Yes	0.799085200000263	0	131906	252
259.693359375	0.799085200000263	decision	choicePhaseStart	1	5	5	foodImage.21	FOODEEG_Images\0234.jpg	NY	Right	Yes	0.799085200000263	0	132964	253
260.484375	0	decision	response	1	5	5	foodImage.21	FOODEEG_Images\0234.jpg	NY	Right	Yes	0.799085200000263	0	133369	235
261.53515625	1	taste	trialStart	1	6	6	foodImage.77	FOODEEG_Images\0771.jpg	YN	Left	Yes	0.977566300003673	0	133907	251
262.578125	2	taste	foodImageDisplay	1	6	6	foodImage.77	FOODEEG_Images\0771.jpg	YN	Left	Yes	0.977566300003673	0	134441	252
264.642578125	0.977566300003673	taste	choicePhaseStart	1	6	6	foodImage.77	FOODEEG_Images\0771.jpg	YN	Left	Yes	0.977566300003673	0	135498	253
265.611328125	0	taste	response	1	6	6	foodImage.77	FOODEEG_Images\0771.jpg	YN	Left	Yes	0.977566300003673	0	135994	234
266.65234375	1	taste	trialStart	1	7	7	foodImage.84	FOODEEG_Images\0830.jpg	NY	Right	Yes	0.71902720000071	0	136527	251
267.708984375	2	taste	foodImageDisplay	1	7	7	foodImage.84	FOODEEG_Images\0830.jpg	NY	Right	Yes	0.71902720000071	0	137068	252
269.7734375	0.71902720000071	taste	choicePhaseStart	1	7	7	foodImage.84	FOODEEG_Images\0830.jpg	NY	Right	Yes	0.71902720000071	0	138125	253
270.484375	0	taste	response	1	7	7	foodImage.84	FOODEEG_Images\0830.jpg	NY	Right	Yes	0.71902720000071	0	138489	235
271.5234375	1	decision	trialStart	1	8	8	foodImage.13	FOODEEG_Images\0183.jpg	YN	Left	Yes	0.875945399995544	0	139021	251
272.56640625	2	decision	foodImageDisplay	1	8	8	foodImage.13	FOODEEG_Images\0183.jpg	YN	Left	Yes	0.875945399995544	0	139555	252
274.62890625	0.875945399995544	decision	choicePhaseStart	1	8	8	foodImage.13	FOODEEG_Images\0183.jpg	YN	Left	Yes	0.875945399995544	0	140611	253
275.5	0	decision	response	1	8	8	foodImage.13	FOODEEG_Images\0183.jpg	YN	Left	Yes	0.875945399995544	0	141057	234
276.541015625	1	taste	trialStart	1	9	9	foodImage.24	FOODEEG_Images\0250.jpg	NY	Left	No	0.679732999997213	0	141590	251
277.58203125	2	taste	foodImageDisplay	1	9	9	foodImage.24	FOODEEG_Images\0250.jpg	NY	Left	No	0.679732999997213	0	142123	252
279.64453125	0.679732999997213	taste	choicePhaseStart	1	9	9	foodImage.24	FOODEEG_Images\0250.jpg	NY	Left	No	0.679732999997213	0	143179	253
280.314453125	0	taste	response	1	9	9	foodImage.24	FOODEEG_Images\0250.jpg	NY	Left	No	0.679732999997213	0	143522	234
281.357421875	1	decision	trialStart	1	10	10	foodImage.68	FOODEEG_Images\0685.jpg	YN	Left	Yes	1.04534099999728	0	144056	251
282.435546875	2	decision	foodImageDisplay	1	10	10	foodImage.68	FOODEEG_Images\0685.jpg	YN	Left	Yes	1.04534099999728	0	144608	252
284.501953125	1.04534099999728	decision	choicePhaseStart	1	10	10	foodImage.68	FOODEEG_Images\0685.jpg	YN	Left	Yes	1.04534099999728	0	145666	253
285.5390625	0	decision	response	1	10	10	foodImage.68	FOODEEG_Images\0685.jpg	YN	Left	Yes	1.04534099999728	0	146197	234
286.580078125	1	decision	trialStart	1	11	11	foodImage.41	FOODEEG_Images\0409.jpg	YN	Left	Yes	0.597902199995588	0	146730	251
287.62890625	2	decision	foodImageDisplay	1	11	11	foodImage.41	FOODEEG_Images\0409.jpg	YN	Left	Yes	0.597902199995588	0	147267	252
289.693359375	0.597902199995588	decision	choicePhaseStart	1	11	11	foodImage.41	FOODEEG_Images\0409.jpg	YN	Left	Yes	0.597902199995588	0	148324	253
290.283203125	0	decision	response	1	11	11	foodImage.41	FOODEEG_Images\0409.jpg	YN	Left	Yes	0.597902199995588	0	148626	234
291.330078125	1	taste	trialStart	1	12	12	foodImage.32	FOODEEG_Images\0319.jpg	NY	Right	Yes	1.30250030000025	0	149162	251
292.373046875	2	taste	foodImageDisplay	1	12	12	foodImage.32	FOODEEG_Images\0319.jpg	NY	Right	Yes	1.30250030000025	0	149696	252
294.4375	1.30250030000025	taste	choicePhaseStart	1	12	12	foodImage.32	FOODEEG_Images\0319.jpg	NY	Right	Yes	1.30250030000025	0	150753	253
295.73046875	0	taste	response	1	12	12	foodImage.32	FOODEEG_Images\0319.jpg	NY	Right	Yes	1.30250030000025	0	151415	235
296.771484375	1	taste	trialStart	1	13	13	foodImage.57	FOODEEG_Images\0587.jpg	YN	Left	Yes	0.652054299993324	0	151948	251
297.814453125	2	taste	foodImageDisplay	1	13	13	foodImage.57	FOODEEG_Images\0587.jpg	YN	Left	Yes	0.652054299993324	0	152482	252
299.87890625	0.652054299993324	taste	choicePhaseStart	1	13	13	foodImage.57	FOODEEG_Images\0587.jpg	YN	Left	Yes	0.652054299993324	0	153539	253
300.521484375	0	taste	response	1	13	13	foodImage.57	FOODEEG_Images\0587.jpg	YN	Left	Yes	0.652054299993324	0	153868	234
301.5625	1	taste	trialStart	1	14	14	foodImage.118	FOODEEG_Images\0926.jpg	YN	Right	No	0.937607899999421	0	154401	251
302.603515625	2	taste	foodImageDisplay	1	14	14	foodImage.118	FOODEEG_Images\0926.jpg	YN	Right	No	0.937607899999421	0	154934	252
304.666015625	0.937607899999421	taste	choicePhaseStart	1	14	14	foodImage.118	FOODEEG_Images\0926.jpg	YN	Right	No	0.937607899999421	0	155990	253
305.59375	0	taste	response	1	14	14	foodImage.118	FOODEEG_Images\0926.jpg	YN	Right	No	0.937607899999421	0	156465	235
306.634765625	1	taste	trialStart	1	15	15	foodImage.8	FOODEEG_Images\0136.jpg	YN	Right	No	0.558546000000206	0	156998	251
307.67578125	2	taste	foodImageDisplay	1	15	15	foodImage.8	FOODEEG_Images\0136.jpg	YN	Right	No	0.558546000000206	0	157531	252
309.740234375	0.558546000000206	taste	choicePhaseStart	1	15	15	foodImage.8	FOODEEG_Images\0136.jpg	YN	Right	No	0.558546000000206	0	158588	253
310.291015625	0	taste	response	1	15	15	foodImage.8	FOODEEG_Images\0136.jpg	YN	Right	No	0.558546000000206	0	158870	235
311.330078125	1	decision	trialStart	1	16	16	foodImage.30	FOODEEG_Images\0282.jpg	NY	Right	Yes	0.872491299996909	0	159402	251
312.37109375	2	decision	foodImageDisplay	1	16	16	foodImage.30	FOODEEG_Images\0282.jpg	NY	Right	Yes	0.872491299996909	0	159935	252
314.435546875	0.872491299996909	decision	choicePhaseStart	1	16	16	foodImage.30	FOODEEG_Images\0282.jpg	NY	Right	Yes	0.872491299996909	0	160992	253
315.296875	0	decision	response	1	16	16	foodImage.30	FOODEEG_Images\0282.jpg	NY	Right	Yes	0.872491299996909	0	161433	235
316.337890625	1	health	trialStart	1	17	17	foodImage.37	FOODEEG_Images\0359.jpg	NY	Right	Yes	0.765152699997998	0	161966	251
317.380859375	2	health	foodImageDisplay	1	17	17	foodImage.37	FOODEEG_Images\0359.jpg	NY	Right	Yes	0.765152699997998	0	162500	252
319.443359375	0.765152699997998	health	choicePhaseStart	1	17	17	foodImage.37	FOODEEG_Images\0359.jpg	NY	Right	Yes	0.765152699997998	0	163556	253
320.201171875	0	health	response	1	17	17	foodImage.37	FOODEEG_Images\0359.jpg	NY	Right	Yes	0.765152699997998	0	163944	235
321.2421875	1	health	trialStart	1	18	18	foodImage.10	FOODEEG_Images\0145.jpg	NY	Left	No	0.968070000002626	0	164477	251
322.298828125	2	health	foodImageDisplay	1	18	18	foodImage.10	FOODEEG_Images\0145.jpg	NY	Left	No	0.968070000002626	0	165018	252
324.36328125	0.968070000002626	health	choicePhaseStart	1	18	18	foodImage.10	FOODEEG_Images\0145.jpg	NY	Left	No	0.968070000002626	0	166075	253
325.322265625	0	health	response	1	18	18	foodImage.10	FOODEEG_Images\0145.jpg	NY	Left	No	0.968070000002626	0	166566	234
326.36328125	1	taste	trialStart	1	19	19	foodImage.29	FOODEEG_Images\0278.jpg	YN	Right	No	1.10206140000082	0	167099	251
327.404296875	2	taste	foodImageDisplay	1	19	19	foodImage.29	FOODEEG_Images\0278.jpg	YN	Right	No	1.10206140000082	0	167632	252
329.46875	1.10206140000082	taste	choicePhaseStart	1	19	19	foodImage.29	FOODEEG_Images\0278.jpg	YN	Right	No	1.10206140000082	0	168689	253
330.560546875	0	taste	response	1	19	19	foodImage.29	FOODEEG_Images\0278.jpg	YN	Right	No	1.10206140000082	0	169248	235
331.6015625	1	taste	trialStart	1	20	20	foodImage.101	FOODEEG_Images\0909.jpg	NY	Right	Yes	1.47423179999896	0	169781	251
332.642578125	2	taste	foodImageDisplay	1	20	20	foodImage.101	FOODEEG_Images\0909.jpg	NY	Right	Yes	1.47423179999896	0	170314	252
334.705078125	1.47423179999896	taste	choicePhaseStart	1	20	20	foodImage.101	FOODEEG_Images\0909.jpg	NY	Right	Yes	1.47423179999896	0	171370	253
336.169921875	0	taste	response	1	20	20	foodImage.101	FOODEEG_Images\0909.jpg	NY	Right	Yes	1.47423179999896	0	172120	235
337.208984375	1	decision	trialStart	1	21	21	foodImage.4	FOODEEG_Images\0065.jpg	YN	Left	Yes	0.829776799997489	0	172652	251
338.26953125	2	decision	foodImageDisplay	1	21	21	foodImage.4	FOODEEG_Images\0065.jpg	YN	Left	Yes	0.829776799997489	0	173195	252
340.333984375	0.829776799997489	decision	choicePhaseStart	1	21	21	foodImage.4	FOODEEG_Images\0065.jpg	YN	Left	Yes	0.829776799997489	0	174252	253
341.15234375	0	decision	response	1	21	21	foodImage.4	FOODEEG_Images\0065.jpg	YN	Left	Yes	0.829776799997489	0	174671	234
342.193359375	1	health	trialStart	1	22	22	foodImage.7	FOODEEG_Images\0116.jpg	YN	Right	No	0.710902799997712	0	175204	251
343.234375	2	health	foodImageDisplay	1	22	22	foodImage.7	FOODEEG_Images\0116.jpg	YN	Right	No	0.710902799997712	0	175737	252
345.298828125	0.710902799997712	health	choicePhaseStart	1	22	22	foodImage.7	FOODEEG_Images\0116.jpg	YN	Right	No	0.710902799997712	0	176794	253
346	0	health	response	1	22	22	foodImage.7	FOODEEG_Images\0116.jpg	YN	Right	No	0.710902799997712	0	177153	235
347.044921875	1	health	trialStart	1	23	23	foodImage.58	FOODEEG_Images\0605.jpg	YN	Right	No	0.94787080000242	0	177688	251
348.1015625	2	health	foodImageDisplay	1	23	23	foodImage.58	FOODEEG_Images\0605.jpg	YN	Right	No	0.94787080000242	0	178229	252
350.166015625	0.94787080000242	health	choicePhaseStart	1	23	23	foodImage.58	FOODEEG_Images\0605.jpg	YN	Right	No	0.94787080000242	0	179286	253
351.103515625	0	health	response	1	23	23	foodImage.58	FOODEEG_Images\0605.jpg	YN	Right	No	0.94787080000242	0	179766	235
352.14453125	1	taste	trialStart	1	24	24	foodImage.63	FOODEEG_Images\0645.jpg	YN	Left	Yes	1.77647140000045	0	180299	251
353.185546875	2	taste	foodImageDisplay	1	24	24	foodImage.63	FOODEEG_Images\0645.jpg	YN	Left	Yes	1.77647140000045	0	180832	252
355.25	1.77647140000045	taste	choicePhaseStart	1	24	24	foodImage.63	FOODEEG_Images\0645.jpg	YN	Left	Yes	1.77647140000045	0	181889	253
357.015625	0	taste	response	1	24	24	foodImage.63	FOODEEG_Images\0645.jpg	YN	Left	Yes	1.77647140000045	0	182793	234
358.056640625	1	taste	trialStart	1	25	25	foodImage.65	FOODEEG_Images\0658.jpg	YN	Left	Yes	1.28136639999866	0	183326	251
359.119140625	2	taste	foodImageDisplay	1	25	25	foodImage.65	FOODEEG_Images\0658.jpg	YN	Left	Yes	1.28136639999866	0	183870	252
361.18359375	1.28136639999866	taste	choicePhaseStart	1	25	25	foodImage.65	FOODEEG_Images\0658.jpg	YN	Left	Yes	1.28136639999866	0	184927	253
362.455078125	0	taste	response	1	25	25	foodImage.65	FOODEEG_Images\0658.jpg	YN	Left	Yes	1.28136639999866	0	185578	234
363.49609375	1	health	trialStart	1	26	26	foodImage.54	FOODEEG_Images\0560.jpg	YN	Left	Yes	1.31376740000269	0	186111	251
364.552734375	2	health	foodImageDisplay	1	26	26	foodImage.54	FOODEEG_Images\0560.jpg	YN	Left	Yes	1.31376740000269	0	186652	252
366.615234375	1.31376740000269	health	choicePhaseStart	1	26	26	foodImage.54	FOODEEG_Images\0560.jpg	YN	Left	Yes	1.31376740000269	0	187708	253
367.919921875	0	health	response	1	26	26	foodImage.54	FOODEEG_Images\0560.jpg	YN	Left	Yes	1.31376740000269	0	188376	234
368.9609375	1	decision	trialStart	1	27	27	foodImage.31	FOODEEG_Images\0294.jpg	NY	Right	Yes	1.30207689999952	0	188909	251
370.00390625	2	decision	foodImageDisplay	1	27	27	foodImage.31	FOODEEG_Images\0294.jpg	NY	Right	Yes	1.30207689999952	0	189443	252
372.06640625	1.30207689999952	decision	choicePhaseStart	1	27	27	foodImage.31	FOODEEG_Images\0294.jpg	NY	Right	Yes	1.30207689999952	0	190499	253
373.359375	0	decision	response	1	27	27	foodImage.31	FOODEEG_Images\0294.jpg	NY	Right	Yes	1.30207689999952	0	191161	235
374.400390625	1	decision	trialStart	1	28	28	foodImage.80	FOODEEG_Images\0796.jpg	NY	Right	Yes	0.881729399996402	0	191694	251
375.45703125	2	decision	foodImageDisplay	1	28	28	foodImage.80	FOODEEG_Images\0796.jpg	NY	Right	Yes	0.881729399996402	0	192235	252
377.51953125	0.881729399996402	decision	choicePhaseStart	1	28	28	foodImage.80	FOODEEG_Images\0796.jpg	NY	Right	Yes	0.881729399996402	0	193291	253
378.390625	0	decision	response	1	28	28	foodImage.80	FOODEEG_Images\0796.jpg	NY	Right	Yes	0.881729399996402	0	193737	235
379.431640625	1	decision	trialStart	1	29	29	foodImage.107	FOODEEG_Images\0915.jpg	NY	Left	No	1.01134899999306	0	194270	251
380.470703125	2	decision	foodImageDisplay	1	29	29	foodImage.107	FOODEEG_Images\0915.jpg	NY	Left	No	1.01134899999306	0	194802	252
382.53515625	1.01134899999306	decision	choicePhaseStart	1	29	29	foodImage.107	FOODEEG_Images\0915.jpg	NY	Left	No	1.01134899999306	0	195859	253
383.53515625	0	decision	response	1	29	29	foodImage.107	FOODEEG_Images\0915.jpg	NY	Left	No	1.01134899999306	0	196371	234
384.576171875	1	health	trialStart	1	30	30	foodImage.105	FOODEEG_Images\0913.jpg	NY	Right	Yes	0.804284999998345	0	196904	251
385.61328125	2	health	foodImageDisplay	1	30	30	foodImage.105	FOODEEG_Images\0913.jpg	NY	Right	Yes	0.804284999998345	0	197435	252
387.67578125	0.804284999998345	health	choicePhaseStart	1	30	30	foodImage.105	FOODEEG_Images\0913.jpg	NY	Right	Yes	0.804284999998345	0	198491	253
388.470703125	0	health	response	1	30	30	foodImage.105	FOODEEG_Images\0913.jpg	NY	Right	Yes	0.804284999998345	0	198898	235
389.51171875	1	taste	trialStart	1	31	31	foodImage.13	FOODEEG_Images\0183.jpg	NY	Right	Yes	0.920483800000511	0	199431	251
390.552734375	2	taste	foodImageDisplay	1	31	31	foodImage.13	FOODEEG_Images\0183.jpg	NY	Right	Yes	0.920483800000511	0	199964	252
392.615234375	0.920483800000511	taste	choicePhaseStart	1	31	31	foodImage.13	FOODEEG_Images\0183.jpg	NY	Right	Yes	0.920483800000511	0	201020	253
393.52734375	0	taste	response	1	31	31	foodImage.13	FOODEEG_Images\0183.jpg	NY	Right	Yes	0.920483800000511	0	201487	235
394.568359375	1	decision	trialStart	1	32	32	foodImage.119	FOODEEG_Images\0927.jpg	YN	Right	No	1.20072200000141	0	202020	251
395.607421875	2	decision	foodImageDisplay	1	32	32	foodImage.119	FOODEEG_Images\0927.jpg	YN	Right	No	1.20072200000141	0	202552	252
397.669921875	1.20072200000141	decision	choicePhaseStart	1	32	32	foodImage.119	FOODEEG_Images\0927.jpg	YN	Right	No	1.20072200000141	0	203608	253
398.86328125	0	decision	response	1	32	32	foodImage.119	FOODEEG_Images\0927.jpg	YN	Right	No	1.20072200000141	0	204219	235
399.90234375	1	health	trialStart	1	33	33	foodImage.69	FOODEEG_Images\0693.jpg	YN	Right	No	1.66955250000319	0	204751	251
400.947265625	2	health	foodImageDisplay	1	33	33	foodImage.69	FOODEEG_Images\0693.jpg	YN	Right	No	1.66955250000319	0	205286	252
403.009765625	1.66955250000319	health	choicePhaseStart	1	33	33	foodImage.69	FOODEEG_Images\0693.jpg	YN	Right	No	1.66955250000319	0	206342	253
404.669921875	0	health	response	1	33	33	foodImage.69	FOODEEG_Images\0693.jpg	YN	Right	No	1.66955250000319	0	207192	235
405.7109375	1	health	trialStart	1	34	34	foodImage.116	FOODEEG_Images\0924.jpg	NY	Left	No	0.729835899997852	0	207725	251
406.751953125	2	health	foodImageDisplay	1	34	34	foodImage.116	FOODEEG_Images\0924.jpg	NY	Left	No	0.729835899997852	0	208258	252
408.814453125	0.729835899997852	health	choicePhaseStart	1	34	34	foodImage.116	FOODEEG_Images\0924.jpg	NY	Left	No	0.729835899997852	0	209314	253
409.533203125	0	health	response	1	34	34	foodImage.116	FOODEEG_Images\0924.jpg	NY	Left	No	0.729835899997852	0	209682	234
410.576171875	1	decision	trialStart	1	35	35	foodImage.42	FOODEEG_Images\0438.jpg	NY	Left	No	0.911379600001965	0	210216	251
411.6640625	2	decision	foodImageDisplay	1	35	35	foodImage.42	FOODEEG_Images\0438.jpg	NY	Left	No	0.911379600001965	0	210773	252
413.7265625	0.911379600001965	decision	choicePhaseStart	1	35	35	foodImage.42	FOODEEG_Images\0438.jpg	NY	Left	No	0.911379600001965	0	211829	253
414.62890625	0	decision	response	1	35	35	foodImage.42	FOODEEG_Images\0438.jpg	NY	Left	No	0.911379600001965	0	212291	234
415.677734375	1	taste	trialStart	1	36	36	foodImage.93	FOODEEG_Images\0901.jpg	NY	Right	Yes	0.676440999995975	0	212828	251
416.720703125	2	taste	foodImageDisplay	1	36	36	foodImage.93	FOODEEG_Images\0901.jpg	NY	Right	Yes	0.676440999995975	0	213362	252
418.783203125	0.676440999995975	taste	choicePhaseStart	1	36	36	foodImage.93	FOODEEG_Images\0901.jpg	NY	Right	Yes	0.676440999995975	0	214418	253
419.453125	0	taste	response	1	36	36	foodImage.93	FOODEEG_Images\0901.jpg	NY	Right	Yes	0.676440999995975	0	214761	235
420.494140625	1	health	trialStart	1	37	37	foodImage.17	FOODEEG_Images\0199.jpg	YN	Left	Yes	0.963160899998911	0	215294	251
421.541015625	2	health	foodImageDisplay	1	37	37	foodImage.17	FOODEEG_Images\0199.jpg	YN	Left	Yes	0.963160899998911	0	215830	252
423.60546875	0.963160899998911	health	choicePhaseStart	1	37	37	foodImage.17	FOODEEG_Images\0199.jpg	YN	Left	Yes	0.963160899998911	0	216887	253
424.55859375	0	health	response	1	37	37	foodImage.17	FOODEEG_Images\0199.jpg	YN	Left	Yes	0.963160899998911	0	217375	234
425.59765625	1	health	trialStart	1	38	38	foodImage.67	FOODEEG_Images\0679.jpg	YN	Right	No	1.40307519999624	0	217907	251
426.65234375	2	health	foodImageDisplay	1	38	38	foodImage.67	FOODEEG_Images\0679.jpg	YN	Right	No	1.40307519999624	0	218447	252
428.72265625	1.40307519999624	health	choicePhaseStart	1	38	38	foodImage.67	FOODEEG_Images\0679.jpg	YN	Right	No	1.40307519999624	0	219507	253
430.1171875	0	health	response	1	38	38	foodImage.67	FOODEEG_Images\0679.jpg	YN	Right	No	1.40307519999624	0	220221	235
431.158203125	1	health	trialStart	1	39	39	foodImage.96	FOODEEG_Images\0904.jpg	NY	Left	No	3.09052349999547	0	220754	251
432.197265625	2	health	foodImageDisplay	1	39	39	foodImage.96	FOODEEG_Images\0904.jpg	NY	Left	No	3.09052349999547	0	221286	252
434.259765625	3.09052349999547	health	choicePhaseStart	1	39	39	foodImage.96	FOODEEG_Images\0904.jpg	NY	Left	No	3.09052349999547	0	222342	253
437.341796875	0	health	response	1	39	39	foodImage.96	FOODEEG_Images\0904.jpg	NY	Left	No	3.09052349999547	0	223920	234
438.38671875	1	taste	trialStart	1	40	40	foodImage.28	FOODEEG_Images\0273.jpg	NY	Right	Yes	0.794368499999109	0	224455	251
439.427734375	2	taste	foodImageDisplay	1	40	40	foodImage.28	FOODEEG_Images\0273.jpg	NY	Right	Yes	0.794368499999109	0	224988	252
441.4921875	0.794368499999109	taste	choicePhaseStart	1	40	40	foodImage.28	FOODEEG_Images\0273.jpg	NY	Right	Yes	0.794368499999109	0	226045	253
442.27734375	0	taste	response	1	40	40	foodImage.28	FOODEEG_Images\0273.jpg	NY	Right	Yes	0.794368499999109	0	226447	235
443.318359375	1	decision	trialStart	1	41	41	foodImage.2	FOODEEG_Images\0028.jpg	NY	Right	Yes	0.663558799999009	0	226980	251
444.359375	2	decision	foodImageDisplay	1	41	41	foodImage.2	FOODEEG_Images\0028.jpg	NY	Right	Yes	0.663558799999009	0	227513	252
446.423828125	0.663558799999009	decision	choicePhaseStart	1	41	41	foodImage.2	FOODEEG_Images\0028.jpg	NY	Right	Yes	0.663558799999009	0	228570	253
447.076171875	0	decision	response	1	41	41	foodImage.2	FOODEEG_Images\0028.jpg	NY	Right	Yes	0.663558799999009	0	228904	235
448.119140625	1	taste	trialStart	1	42	42	foodImage.10	FOODEEG_Images\0145.jpg	NY	Right	Yes	2.04817449999973	0	229438	251
449.173828125	2	taste	foodImageDisplay	1	42	42	foodImage.10	FOODEEG_Images\0145.jpg	NY	Right	Yes	2.04817449999973	0	229978	252
451.23828125	2.04817449999973	taste	choicePhaseStart	1	42	42	foodImage.10	FOODEEG_Images\0145.jpg	NY	Right	Yes	2.04817449999973	0	231035	253
453.275390625	0	taste	response	1	42	42	foodImage.10	FOODEEG_Images\0145.jpg	NY	Right	Yes	2.04817449999973	0	232078	235
454.318359375	1	decision	trialStart	1	43	43	foodImage.3	FOODEEG_Images\0046.jpg	YN	Left	Yes	1.44216199999937	0	232612	251
455.361328125	2	decision	foodImageDisplay	1	43	43	foodImage.3	FOODEEG_Images\0046.jpg	YN	Left	Yes	1.44216199999937	0	233146	252
457.42578125	1.44216199999937	decision	choicePhaseStart	1	43	43	foodImage.3	FOODEEG_Images\0046.jpg	YN	Left	Yes	1.44216199999937	0	234203	253
458.859375	0	decision	response	1	43	43	foodImage.3	FOODEEG_Images\0046.jpg	YN	Left	Yes	1.44216199999937	0	234937	234
459.900390625	1	health	trialStart	1	44	44	foodImage.73	FOODEEG_Images\0717.jpg	NY	Right	Yes	0.592655100001139	0	235470	251
460.958984375	2	health	foodImageDisplay	1	44	44	foodImage.73	FOODEEG_Images\0717.jpg	NY	Right	Yes	0.592655100001139	0	236012	252
463.021484375	0.592655100001139	health	choicePhaseStart	1	44	44	foodImage.73	FOODEEG_Images\0717.jpg	NY	Right	Yes	0.592655100001139	0	237068	253
463.60546875	0	health	response	1	44	44	foodImage.73	FOODEEG_Images\0717.jpg	NY	Right	Yes	0.592655100001139	0	237367	235
464.646484375	1	decision	trialStart	1	45	45	foodImage.94	FOODEEG_Images\0902.jpg	YN	Right	No	0.858897899997828	0	237900	251
465.685546875	2	decision	foodImageDisplay	1	45	45	foodImage.94	FOODEEG_Images\0902.jpg	YN	Right	No	0.858897899997828	0	238432	252
467.75390625	0.858897899997828	decision	choicePhaseStart	1	45	45	foodImage.94	FOODEEG_Images\0902.jpg	YN	Right	No	0.858897899997828	0	239491	253
468.603515625	0	decision	response	1	45	45	foodImage.94	FOODEEG_Images\0902.jpg	YN	Right	No	0.858897899997828	0	239926	235
469.64453125	1	decision	trialStart	1	46	46	foodImage.70	FOODEEG_Images\0705.jpg	NY	Right	Yes	1.59428499999922	0	240459	251
470.69921875	2	decision	foodImageDisplay	1	46	46	foodImage.70	FOODEEG_Images\0705.jpg	NY	Right	Yes	1.59428499999922	0	240999	252
472.76171875	1.59428499999922	decision	choicePhaseStart	1	46	46	foodImage.70	FOODEEG_Images\0705.jpg	NY	Right	Yes	1.59428499999922	0	242055	253
474.34765625	0	decision	response	1	46	46	foodImage.70	FOODEEG_Images\0705.jpg	NY	Right	Yes	1.59428499999922	0	242867	235
475.388671875	1	decision	trialStart	1	47	47	foodImage.43	FOODEEG_Images\0445.jpg	YN	Left	Yes	0.902017000000342	0	243400	251
476.447265625	2	decision	foodImageDisplay	1	47	47	foodImage.43	FOODEEG_Images\0445.jpg	YN	Left	Yes	0.902017000000342	0	243942	252
478.509765625	0.902017000000342	decision	choicePhaseStart	1	47	47	foodImage.43	FOODEEG_Images\0445.jpg	YN	Left	Yes	0.902017000000342	0	244998	253
479.40234375	0	decision	response	1	47	47	foodImage.43	FOODEEG_Images\0445.jpg	YN	Left	Yes	0.902017000000342	0	245455	234
480.443359375	1	health	trialStart	1	48	48	foodImage.92	FOODEEG_Images\0900.jpg	NY	Left	No	1.57926690000022	0	245988	251
481.48046875	2	health	foodImageDisplay	1	48	48	foodImage.92	FOODEEG_Images\0900.jpg	NY	Left	No	1.57926690000022	0	246519	252
483.544921875	1.57926690000022	health	choicePhaseStart	1	48	48	foodImage.92	FOODEEG_Images\0900.jpg	NY	Left	No	1.57926690000022	0	247576	253
485.115234375	0	health	response	1	48	48	foodImage.92	FOODEEG_Images\0900.jpg	NY	Left	No	1.57926690000022	0	248380	234
486.15625	1	decision	trialStart	1	49	49	foodImage.25	FOODEEG_Images\0261.jpg	NY	Right	Yes	0.878937000001315	0	248913	251
487.212890625	2	decision	foodImageDisplay	1	49	49	foodImage.25	FOODEEG_Images\0261.jpg	NY	Right	Yes	0.878937000001315	0	249454	252
489.27734375	0.878937000001315	decision	choicePhaseStart	1	49	49	foodImage.25	FOODEEG_Images\0261.jpg	NY	Right	Yes	0.878937000001315	0	250511	253
490.146484375	0	decision	response	1	49	49	foodImage.25	FOODEEG_Images\0261.jpg	NY	Right	Yes	0.878937000001315	0	250956	235
491.1875	1	decision	trialStart	1	50	50	foodImage.118	FOODEEG_Images\0926.jpg	NY	Left	No	0.770908300000883	0	251489	251
492.2265625	2	decision	foodImageDisplay	1	50	50	foodImage.118	FOODEEG_Images\0926.jpg	NY	Left	No	0.770908300000883	0	252021	252
494.2890625	0.770908300000883	decision	choicePhaseStart	1	50	50	foodImage.118	FOODEEG_Images\0926.jpg	NY	Left	No	0.770908300000883	0	253077	253
495.05078125	0	decision	response	1	50	50	foodImage.118	FOODEEG_Images\0926.jpg	NY	Left	No	0.770908300000883	0	253467	234
496.08984375	1	taste	trialStart	1	51	51	foodImage.37	FOODEEG_Images\0359.jpg	NY	Left	No	0.786364900006447	0	253999	251
497.130859375	2	taste	foodImageDisplay	1	51	51	foodImage.37	FOODEEG_Images\0359.jpg	NY	Left	No	0.786364900006447	0	254532	252
499.193359375	0.786364900006447	taste	choicePhaseStart	1	51	51	foodImage.37	FOODEEG_Images\0359.jpg	NY	Left	No	0.786364900006447	0	255588	253
499.970703125	0	taste	response	1	51	51	foodImage.37	FOODEEG_Images\0359.jpg	NY	Left	No	0.786364900006447	0	255986	234
501.009765625	1	taste	trialStart	1	52	52	foodImage.3	FOODEEG_Images\0046.jpg	YN	Left	Yes	0.840570500004105	0	256518	251
502.052734375	2	taste	foodImageDisplay	1	52	52	foodImage.3	FOODEEG_Images\0046.jpg	YN	Left	Yes	0.840570500004105	0	257052	252
504.115234375	0.840570500004105	taste	choicePhaseStart	1	52	52	foodImage.3	FOODEEG_Images\0046.jpg	YN	Left	Yes	0.840570500004105	0	258108	253
504.947265625	0	taste	response	1	52	52	foodImage.3	FOODEEG_Images\0046.jpg	YN	Left	Yes	0.840570500004105	0	258534	234
505.986328125	1	health	trialStart	1	53	53	foodImage.108	FOODEEG_Images\0916.jpg	NY	Right	Yes	1.26364710000053	0	259066	251
507.0234375	2	health	foodImageDisplay	1	53	53	foodImage.108	FOODEEG_Images\0916.jpg	NY	Right	Yes	1.26364710000053	0	259597	252
509.091796875	1.26364710000053	health	choicePhaseStart	1	53	53	foodImage.108	FOODEEG_Images\0916.jpg	NY	Right	Yes	1.26364710000053	0	260656	253
510.345703125	0	health	response	1	53	53	foodImage.108	FOODEEG_Images\0916.jpg	NY	Right	Yes	1.26364710000053	0	261298	235
511.384765625	1	taste	trialStart	1	54	54	foodImage.61	FOODEEG_Images\0640.jpg	YN	Left	Yes	0.988608900006511	0	261830	251
512.4296875	2	taste	foodImageDisplay	1	54	54	foodImage.61	FOODEEG_Images\0640.jpg	YN	Left	Yes	0.988608900006511	0	262365	252
514.4921875	0.988608900006511	taste	choicePhaseStart	1	54	54	foodImage.61	FOODEEG_Images\0640.jpg	YN	Left	Yes	0.988608900006511	0	263421	253
515.474609375	0	taste	response	1	54	54	foodImage.61	FOODEEG_Images\0640.jpg	YN	Left	Yes	0.988608900006511	0	263924	234
516.517578125	1	decision	trialStart	1	55	55	foodImage.96	FOODEEG_Images\0904.jpg	NY	Left	No	0.895994200000132	0	264458	251
517.5546875	2	decision	foodImageDisplay	1	55	55	foodImage.96	FOODEEG_Images\0904.jpg	NY	Left	No	0.895994200000132	0	264989	252
519.619140625	0.895994200000132	decision	choicePhaseStart	1	55	55	foodImage.96	FOODEEG_Images\0904.jpg	NY	Left	No	0.895994200000132	0	266046	253
520.505859375	0	decision	response	1	55	55	foodImage.96	FOODEEG_Images\0904.jpg	NY	Left	No	0.895994200000132	0	266500	234
521.546875	1	decision	trialStart	1	56	56	foodImage.78	FOODEEG_Images\0787.jpg	YN	Left	Yes	0.931379300003755	0	267033	251
522.591796875	2	decision	foodImageDisplay	1	56	56	foodImage.78	FOODEEG_Images\0787.jpg	YN	Left	Yes	0.931379300003755	0	267568	252
524.65625	0.931379300003755	decision	choicePhaseStart	1	56	56	foodImage.78	FOODEEG_Images\0787.jpg	YN	Left	Yes	0.931379300003755	0	268625	253
525.578125	0	decision	response	1	56	56	foodImage.78	FOODEEG_Images\0787.jpg	YN	Left	Yes	0.931379300003755	0	269097	234
526.619140625	1	health	trialStart	1	57	57	foodImage.59	FOODEEG_Images\0607.jpg	NY	Left	No	0.986040799994953	0	269630	251
527.666015625	2	health	foodImageDisplay	1	57	57	foodImage.59	FOODEEG_Images\0607.jpg	NY	Left	No	0.986040799994953	0	270166	252
529.728515625	0.986040799994953	health	choicePhaseStart	1	57	57	foodImage.59	FOODEEG_Images\0607.jpg	NY	Left	No	0.986040799994953	0	271222	253
530.705078125	0	health	response	1	57	57	foodImage.59	FOODEEG_Images\0607.jpg	NY	Left	No	0.986040799994953	0	271722	234
531.74609375	1	decision	trialStart	1	58	58	foodImage.7	FOODEEG_Images\0116.jpg	NY	Right	Yes	1.21419599999354	0	272255	251
532.78515625	2	decision	foodImageDisplay	1	58	58	foodImage.7	FOODEEG_Images\0116.jpg	NY	Right	Yes	1.21419599999354	0	272787	252
534.849609375	1.21419599999354	decision	choicePhaseStart	1	58	58	foodImage.7	FOODEEG_Images\0116.jpg	NY	Right	Yes	1.21419599999354	0	273844	253
536.056640625	0	decision	response	1	58	58	foodImage.7	FOODEEG_Images\0116.jpg	NY	Right	Yes	1.21419599999354	0	274462	235
537.09765625	1	health	trialStart	1	59	59	foodImage.31	FOODEEG_Images\0294.jpg	YN	Left	Yes	1.76049139999668	0	274995	251
538.138671875	2	health	foodImageDisplay	1	59	59	foodImage.31	FOODEEG_Images\0294.jpg	YN	Left	Yes	1.76049139999668	0	275528	252
540.203125	1.76049139999668	health	choicePhaseStart	1	59	59	foodImage.31	FOODEEG_Images\0294.jpg	YN	Left	Yes	1.76049139999668	0	276585	253
541.953125	0	health	response	1	59	59	foodImage.31	FOODEEG_Images\0294.jpg	YN	Left	Yes	1.76049139999668	0	277481	234
542.99609375	1	taste	trialStart	1	60	60	foodImage.21	FOODEEG_Images\0234.jpg	NY	Right	Yes	1.06290790000639	0	278015	251
544.076171875	2	taste	foodImageDisplay	1	60	60	foodImage.21	FOODEEG_Images\0234.jpg	NY	Right	Yes	1.06290790000639	0	278568	252
546.138671875	1.06290790000639	taste	choicePhaseStart	1	60	60	foodImage.21	FOODEEG_Images\0234.jpg	NY	Right	Yes	1.06290790000639	0	279624	253
547.193359375	0	taste	response	1	60	60	foodImage.21	FOODEEG_Images\0234.jpg	NY	Right	Yes	1.06290790000639	0	280164	235
549.232421875	20.744140625	n/a	blockEnd	n/a	n/a	n/a	n/a	n/a	n/a	n/a	n/a	n/a	n/a	281208	254
569.9765625	2	n/a	blockStart	2	n/a	n/a	n/a	n/a	n/a	n/a	n/a	n/a	n/a	291829	250
572.0078125	1	taste	trialStart	2	61	1	foodImage.96	FOODEEG_Images\0904.jpg	NY	Left	No	1.27427039999748	0	292869	251
573.046875	2	taste	foodImageDisplay	2	61	1	foodImage.96	FOODEEG_Images\0904.jpg	NY	Left	No	1.27427039999748	0	293401	252
575.109375	1.27427039999748	taste	choicePhaseStart	2	61	1	foodImage.96	FOODEEG_Images\0904.jpg	NY	Left	No	1.27427039999748	0	294457	253
576.375	0	taste	response	2	61	1	foodImage.96	FOODEEG_Images\0904.jpg	NY	Left	No	1.27427039999748	0	295105	234
577.419921875	1	health	trialStart	2	62	2	foodImage.111	FOODEEG_Images\0919.jpg	YN	Right	No	1.66943989999709	0	295640	251
578.458984375	2	health	foodImageDisplay	2	62	2	foodImage.111	FOODEEG_Images\0919.jpg	YN	Right	No	1.66943989999709	0	296172	252
580.5234375	1.66943989999709	health	choicePhaseStart	2	62	2	foodImage.111	FOODEEG_Images\0919.jpg	YN	Right	No	1.66943989999709	0	297229	253
582.18359375	0	health	response	2	62	2	foodImage.111	FOODEEG_Images\0919.jpg	YN	Right	No	1.66943989999709	0	298079	235
583.224609375	1	taste	trialStart	2	63	3	foodImage.90	FOODEEG_Images\0890.jpg	NY	Right	Yes	1.45138439999573	0	298612	251
584.28125	2	taste	foodImageDisplay	2	63	3	foodImage.90	FOODEEG_Images\0890.jpg	NY	Right	Yes	1.45138439999573	0	299153	252
586.345703125	1.45138439999573	taste	choicePhaseStart	2	63	3	foodImage.90	FOODEEG_Images\0890.jpg	NY	Right	Yes	1.45138439999573	0	300210	253
587.791015625	0	taste	response	2	63	3	foodImage.90	FOODEEG_Images\0890.jpg	NY	Right	Yes	1.45138439999573	0	300950	235
588.83203125	1	health	trialStart	2	64	4	foodImage.61	FOODEEG_Images\0640.jpg	NY	Right	Yes	0.729766600001312	0	301483	251
589.890625	2	health	foodImageDisplay	2	64	4	foodImage.61	FOODEEG_Images\0640.jpg	NY	Right	Yes	0.729766600001312	0	302025	252
591.955078125	0.729766600001312	health	choicePhaseStart	2	64	4	foodImage.61	FOODEEG_Images\0640.jpg	NY	Right	Yes	0.729766600001312	0	303082	253
592.677734375	0	health	response	2	64	4	foodImage.61	FOODEEG_Images\0640.jpg	NY	Right	Yes	0.729766600001312	0	303452	235
593.71875	1	decision	trialStart	2	65	5	foodImage.73	FOODEEG_Images\0717.jpg	NY	Right	Yes	1.49155769999925	0	303985	251
594.7734375	2	decision	foodImageDisplay	2	65	5	foodImage.73	FOODEEG_Images\0717.jpg	NY	Right	Yes	1.49155769999925	0	304525	252
596.8359375	1.49155769999925	decision	choicePhaseStart	2	65	5	foodImage.73	FOODEEG_Images\0717.jpg	NY	Right	Yes	1.49155769999925	0	305581	253
598.318359375	0	decision	response	2	65	5	foodImage.73	FOODEEG_Images\0717.jpg	NY	Right	Yes	1.49155769999925	0	306340	235
599.359375	1	health	trialStart	2	66	6	foodImage.29	FOODEEG_Images\0278.jpg	YN	Left	Yes	1.34381679999933	0	306873	251
600.3984375	2	health	foodImageDisplay	2	66	6	foodImage.29	FOODEEG_Images\0278.jpg	YN	Left	Yes	1.34381679999933	0	307405	252
602.462890625	1.34381679999933	health	choicePhaseStart	2	66	6	foodImage.29	FOODEEG_Images\0278.jpg	YN	Left	Yes	1.34381679999933	0	308462	253
603.798828125	0	health	response	2	66	6	foodImage.29	FOODEEG_Images\0278.jpg	YN	Left	Yes	1.34381679999933	0	309146	234
604.841796875	1	taste	trialStart	2	67	7	foodImage.31	FOODEEG_Images\0294.jpg	YN	Left	Yes	1.47441040000558	0	309680	251
605.88671875	2	taste	foodImageDisplay	2	67	7	foodImage.31	FOODEEG_Images\0294.jpg	YN	Left	Yes	1.47441040000558	0	310215	252
607.94921875	1.47441040000558	taste	choicePhaseStart	2	67	7	foodImage.31	FOODEEG_Images\0294.jpg	YN	Left	Yes	1.47441040000558	0	311271	253
609.4140625	0	taste	response	2	67	7	foodImage.31	FOODEEG_Images\0294.jpg	YN	Left	Yes	1.47441040000558	0	312021	234
610.45703125	1	health	trialStart	2	68	8	foodImage.90	FOODEEG_Images\0890.jpg	YN	Left	Yes	1.33471089999512	0	312555	251
611.513671875	2	health	foodImageDisplay	2	68	8	foodImage.90	FOODEEG_Images\0890.jpg	YN	Left	Yes	1.33471089999512	0	313096	252
613.576171875	1.33471089999512	health	choicePhaseStart	2	68	8	foodImage.90	FOODEEG_Images\0890.jpg	YN	Left	Yes	1.33471089999512	0	314152	253
614.90234375	0	health	response	2	68	8	foodImage.90	FOODEEG_Images\0890.jpg	YN	Left	Yes	1.33471089999512	0	314831	234
615.943359375	1	decision	trialStart	2	69	9	foodImage.18	FOODEEG_Images\0202.jpg	NY	Right	Yes	0.712294500001008	0	315364	251
617	2	decision	foodImageDisplay	2	69	9	foodImage.18	FOODEEG_Images\0202.jpg	NY	Right	Yes	0.712294500001008	0	315905	252
619.0625	0.712294500001008	decision	choicePhaseStart	2	69	9	foodImage.18	FOODEEG_Images\0202.jpg	NY	Right	Yes	0.712294500001008	0	316961	253
619.765625	0	decision	response	2	69	9	foodImage.18	FOODEEG_Images\0202.jpg	NY	Right	Yes	0.712294500001008	0	317321	235
620.806640625	1	taste	trialStart	2	70	10	foodImage.9	FOODEEG_Images\0138.jpg	NY	Left	No	1.02918269999645	0	317854	251
621.861328125	2	taste	foodImageDisplay	2	70	10	foodImage.9	FOODEEG_Images\0138.jpg	NY	Left	No	1.02918269999645	0	318394	252
623.9296875	1.02918269999645	taste	choicePhaseStart	2	70	10	foodImage.9	FOODEEG_Images\0138.jpg	NY	Left	No	1.02918269999645	0	319453	253
624.94921875	0	taste	response	2	70	10	foodImage.9	FOODEEG_Images\0138.jpg	NY	Left	No	1.02918269999645	0	319975	234
625.98828125	1	decision	trialStart	2	71	11	foodImage.50	FOODEEG_Images\0529.jpg	YN	Right	No	1.09366089999821	0	320507	251
627.048828125	2	decision	foodImageDisplay	2	71	11	foodImage.50	FOODEEG_Images\0529.jpg	YN	Right	No	1.09366089999821	0	321050	252
629.11328125	1.09366089999821	decision	choicePhaseStart	2	71	11	foodImage.50	FOODEEG_Images\0529.jpg	YN	Right	No	1.09366089999821	0	322107	253
630.197265625	0	decision	response	2	71	11	foodImage.50	FOODEEG_Images\0529.jpg	YN	Right	No	1.09366089999821	0	322662	235
631.23828125	1	health	trialStart	2	72	12	foodImage.74	FOODEEG_Images\0752.jpg	YN	Left	Yes	0.691070299995772	0	323195	251
632.283203125	2	health	foodImageDisplay	2	72	12	foodImage.74	FOODEEG_Images\0752.jpg	YN	Left	Yes	0.691070299995772	0	323730	252
634.34765625	0.691070299995772	health	choicePhaseStart	2	72	12	foodImage.74	FOODEEG_Images\0752.jpg	YN	Left	Yes	0.691070299995772	0	324787	253
635.029296875	0	health	response	2	72	12	foodImage.74	FOODEEG_Images\0752.jpg	YN	Left	Yes	0.691070299995772	0	325136	234
636.0703125	1	taste	trialStart	2	73	13	foodImage.55	FOODEEG_Images\0567.jpg	NY	Right	Yes	1.41973059999873	0	325669	251
637.130859375	2	taste	foodImageDisplay	2	73	13	foodImage.55	FOODEEG_Images\0567.jpg	NY	Right	Yes	1.41973059999873	0	326212	252
639.1953125	1.41973059999873	taste	choicePhaseStart	2	73	13	foodImage.55	FOODEEG_Images\0567.jpg	NY	Right	Yes	1.41973059999873	0	327269	253
640.60546875	0	taste	response	2	73	13	foodImage.55	FOODEEG_Images\0567.jpg	NY	Right	Yes	1.41973059999873	0	327991	235
641.6484375	1	taste	trialStart	2	74	14	foodImage.105	FOODEEG_Images\0913.jpg	YN	Left	Yes	1.60790019999695	0	328525	251
642.6875	2	taste	foodImageDisplay	2	74	14	foodImage.105	FOODEEG_Images\0913.jpg	YN	Left	Yes	1.60790019999695	0	329057	252
644.75	1.60790019999695	taste	choicePhaseStart	2	74	14	foodImage.105	FOODEEG_Images\0913.jpg	YN	Left	Yes	1.60790019999695	0	330113	253
646.349609375	0	taste	response	2	74	14	foodImage.105	FOODEEG_Images\0913.jpg	YN	Left	Yes	1.60790019999695	0	330932	234
647.388671875	1	taste	trialStart	2	75	15	foodImage.34	FOODEEG_Images\0339.jpg	NY	Left	No	1.17607960000169	0	331464	251
648.4453125	2	taste	foodImageDisplay	2	75	15	foodImage.34	FOODEEG_Images\0339.jpg	NY	Left	No	1.17607960000169	0	332005	252
650.509765625	1.17607960000169	taste	choicePhaseStart	2	75	15	foodImage.34	FOODEEG_Images\0339.jpg	NY	Left	No	1.17607960000169	0	333062	253
651.67578125	0	taste	response	2	75	15	foodImage.34	FOODEEG_Images\0339.jpg	NY	Left	No	1.17607960000169	0	333659	234
652.716796875	1	health	trialStart	2	76	16	foodImage.45	FOODEEG_Images\0478.jpg	NY	Right	Yes	1.93087360000209	0	334192	251
653.763671875	2	health	foodImageDisplay	2	76	16	foodImage.45	FOODEEG_Images\0478.jpg	NY	Right	Yes	1.93087360000209	0	334728	252
655.826171875	1.93087360000209	health	choicePhaseStart	2	76	16	foodImage.45	FOODEEG_Images\0478.jpg	NY	Right	Yes	1.93087360000209	0	335784	253
657.748046875	0	health	response	2	76	16	foodImage.45	FOODEEG_Images\0478.jpg	NY	Right	Yes	1.93087360000209	0	336768	235
658.7890625	1	health	trialStart	2	77	17	foodImage.23	FOODEEG_Images\0244.jpg	NY	Right	Yes	1.68221539999649	0	337301	251
659.830078125	2	health	foodImageDisplay	2	77	17	foodImage.23	FOODEEG_Images\0244.jpg	NY	Right	Yes	1.68221539999649	0	337834	252
661.892578125	1.68221539999649	health	choicePhaseStart	2	77	17	foodImage.23	FOODEEG_Images\0244.jpg	NY	Right	Yes	1.68221539999649	0	338890	253
663.564453125	0	health	response	2	77	17	foodImage.23	FOODEEG_Images\0244.jpg	NY	Right	Yes	1.68221539999649	0	339746	235
664.60546875	1	health	trialStart	2	78	18	foodImage.18	FOODEEG_Images\0202.jpg	YN	Left	Yes	1.92508269999962	0	340279	251
665.66015625	2	health	foodImageDisplay	2	78	18	foodImage.18	FOODEEG_Images\0202.jpg	YN	Left	Yes	1.92508269999962	0	340819	252
667.724609375	1.92508269999962	health	choicePhaseStart	2	78	18	foodImage.18	FOODEEG_Images\0202.jpg	YN	Left	Yes	1.92508269999962	0	341876	253
669.64453125	0	health	response	2	78	18	foodImage.18	FOODEEG_Images\0202.jpg	YN	Left	Yes	1.92508269999962	0	342859	234
670.68359375	1	decision	trialStart	2	79	19	foodImage.22	FOODEEG_Images\0236.jpg	NY	Right	Yes	0.835662600002252	0	343391	251
671.724609375	2	decision	foodImageDisplay	2	79	19	foodImage.22	FOODEEG_Images\0236.jpg	NY	Right	Yes	0.835662600002252	0	343924	252
673.79296875	0.835662600002252	decision	choicePhaseStart	2	79	19	foodImage.22	FOODEEG_Images\0236.jpg	NY	Right	Yes	0.835662600002252	0	344983	253
674.619140625	0	decision	response	2	79	19	foodImage.22	FOODEEG_Images\0236.jpg	NY	Right	Yes	0.835662600002252	0	345406	235
675.6640625	1	health	trialStart	2	80	20	foodImage.98	FOODEEG_Images\0906.jpg	YN	Left	Yes	1.5820451000036	0	345941	251
676.703125	2	health	foodImageDisplay	2	80	20	foodImage.98	FOODEEG_Images\0906.jpg	YN	Left	Yes	1.5820451000036	0	346473	252
678.767578125	1.5820451000036	health	choicePhaseStart	2	80	20	foodImage.98	FOODEEG_Images\0906.jpg	YN	Left	Yes	1.5820451000036	0	347530	253
680.33984375	0	health	response	2	80	20	foodImage.98	FOODEEG_Images\0906.jpg	YN	Left	Yes	1.5820451000036	0	348335	234
681.380859375	1	taste	trialStart	2	81	21	foodImage.114	FOODEEG_Images\0922.jpg	NY	Left	No	0.961257599999954	0	348868	251
682.419921875	2	taste	foodImageDisplay	2	81	21	foodImage.114	FOODEEG_Images\0922.jpg	NY	Left	No	0.961257599999954	0	349400	252
684.482421875	0.961257599999954	taste	choicePhaseStart	2	81	21	foodImage.114	FOODEEG_Images\0922.jpg	NY	Left	No	0.961257599999954	0	350456	253
685.435546875	0	taste	response	2	81	21	foodImage.114	FOODEEG_Images\0922.jpg	NY	Left	No	0.961257599999954	0	350944	234
686.474609375	1	health	trialStart	2	82	22	foodImage.35	FOODEEG_Images\0350.jpg	YN	Left	Yes	0.890778000000864	0	351476	251
687.515625	2	health	foodImageDisplay	2	82	22	foodImage.35	FOODEEG_Images\0350.jpg	YN	Left	Yes	0.890778000000864	0	352009	252
689.578125	0.890778000000864	health	choicePhaseStart	2	82	22	foodImage.35	FOODEEG_Images\0350.jpg	YN	Left	Yes	0.890778000000864	0	353065	253
690.458984375	0	health	response	2	82	22	foodImage.35	FOODEEG_Images\0350.jpg	YN	Left	Yes	0.890778000000864	0	353516	234
691.5078125	1	taste	trialStart	2	83	23	foodImage.67	FOODEEG_Images\0679.jpg	NY	Left	No	1.03815999999642	0	354053	251
692.564453125	2	taste	foodImageDisplay	2	83	23	foodImage.67	FOODEEG_Images\0679.jpg	NY	Left	No	1.03815999999642	0	354594	252
694.626953125	1.03815999999642	taste	choicePhaseStart	2	83	23	foodImage.67	FOODEEG_Images\0679.jpg	NY	Left	No	1.03815999999642	0	355650	253
695.658203125	0	taste	response	2	83	23	foodImage.67	FOODEEG_Images\0679.jpg	NY	Left	No	1.03815999999642	0	356178	234
696.701171875	1	health	trialStart	2	84	24	foodImage.15	FOODEEG_Images\0189.jpg	NY	Left	No	0.751781099999789	0	356712	251
697.755859375	2	health	foodImageDisplay	2	84	24	foodImage.15	FOODEEG_Images\0189.jpg	NY	Left	No	0.751781099999789	0	357252	252
699.8203125	0.751781099999789	health	choicePhaseStart	2	84	24	foodImage.15	FOODEEG_Images\0189.jpg	NY	Left	No	0.751781099999789	0	358309	253
700.5625	0	health	response	2	84	24	foodImage.15	FOODEEG_Images\0189.jpg	NY	Left	No	0.751781099999789	0	358689	234
701.60546875	1	health	trialStart	2	85	25	foodImage.78	FOODEEG_Images\0787.jpg	YN	Left	Yes	0.827451400000427	0	359223	251
702.65625	2	health	foodImageDisplay	2	85	25	foodImage.78	FOODEEG_Images\0787.jpg	YN	Left	Yes	0.827451400000427	0	359761	252
704.720703125	0.827451400000427	health	choicePhaseStart	2	85	25	foodImage.78	FOODEEG_Images\0787.jpg	YN	Left	Yes	0.827451400000427	0	360818	253
705.5390625	0	health	response	2	85	25	foodImage.78	FOODEEG_Images\0787.jpg	YN	Left	Yes	0.827451400000427	0	361237	234
706.583984375	1	taste	trialStart	2	86	26	foodImage.49	FOODEEG_Images\0515.jpg	NY	Right	Yes	1.64891869999701	0	361772	251
707.626953125	2	taste	foodImageDisplay	2	86	26	foodImage.49	FOODEEG_Images\0515.jpg	NY	Right	Yes	1.64891869999701	0	362306	252
709.69140625	1.64891869999701	taste	choicePhaseStart	2	86	26	foodImage.49	FOODEEG_Images\0515.jpg	NY	Right	Yes	1.64891869999701	0	363363	253
711.330078125	0	taste	response	2	86	26	foodImage.49	FOODEEG_Images\0515.jpg	NY	Right	Yes	1.64891869999701	0	364202	235
712.37109375	1	decision	trialStart	2	87	27	foodImage.93	FOODEEG_Images\0901.jpg	YN	Left	Yes	2.12001790000068	0	364735	251
713.408203125	2	decision	foodImageDisplay	2	87	27	foodImage.93	FOODEEG_Images\0901.jpg	YN	Left	Yes	2.12001790000068	0	365266	252
715.474609375	2.12001790000068	decision	choicePhaseStart	2	87	27	foodImage.93	FOODEEG_Images\0901.jpg	YN	Left	Yes	2.12001790000068	0	366324	253
717.5859375	0	decision	response	2	87	27	foodImage.93	FOODEEG_Images\0901.jpg	YN	Left	Yes	2.12001790000068	0	367405	234
718.625	1	taste	trialStart	2	88	28	foodImage.2	FOODEEG_Images\0028.jpg	NY	Right	Yes	0.719945299999381	0	367937	251
719.666015625	2	taste	foodImageDisplay	2	88	28	foodImage.2	FOODEEG_Images\0028.jpg	NY	Right	Yes	0.719945299999381	0	368470	252
721.732421875	0.719945299999381	taste	choicePhaseStart	2	88	28	foodImage.2	FOODEEG_Images\0028.jpg	NY	Right	Yes	0.719945299999381	0	369528	253
722.44140625	0	taste	response	2	88	28	foodImage.2	FOODEEG_Images\0028.jpg	NY	Right	Yes	0.719945299999381	0	369891	235
723.48046875	1	health	trialStart	2	89	29	foodImage.70	FOODEEG_Images\0705.jpg	YN	Left	Yes	1.61616130000039	0	370423	251
724.537109375	2	health	foodImageDisplay	2	89	29	foodImage.70	FOODEEG_Images\0705.jpg	YN	Left	Yes	1.61616130000039	0	370964	252
726.599609375	1.61616130000039	health	choicePhaseStart	2	89	29	foodImage.70	FOODEEG_Images\0705.jpg	YN	Left	Yes	1.61616130000039	0	372020	253
728.208984375	0	health	response	2	89	29	foodImage.70	FOODEEG_Images\0705.jpg	YN	Left	Yes	1.61616130000039	0	372844	234
729.25	1	health	trialStart	2	90	30	foodImage.118	FOODEEG_Images\0926.jpg	YN	Right	No	1.5347557999994	0	373377	251
730.28515625	2	health	foodImageDisplay	2	90	30	foodImage.118	FOODEEG_Images\0926.jpg	YN	Right	No	1.5347557999994	0	373907	252
732.34765625	1.5347557999994	health	choicePhaseStart	2	90	30	foodImage.118	FOODEEG_Images\0926.jpg	YN	Right	No	1.5347557999994	0	374963	253
733.873046875	0	health	response	2	90	30	foodImage.118	FOODEEG_Images\0926.jpg	YN	Right	No	1.5347557999994	0	375744	235
734.9140625	1	taste	trialStart	2	91	31	foodImage.27	FOODEEG_Images\0263.jpg	YN	Left	Yes	1.22561129999667	0	376277	251
735.955078125	2	taste	foodImageDisplay	2	91	31	foodImage.27	FOODEEG_Images\0263.jpg	YN	Left	Yes	1.22561129999667	0	376810	252
738.025390625	1.22561129999667	taste	choicePhaseStart	2	91	31	foodImage.27	FOODEEG_Images\0263.jpg	YN	Left	Yes	1.22561129999667	0	377870	253
739.240234375	0	taste	response	2	91	31	foodImage.27	FOODEEG_Images\0263.jpg	YN	Left	Yes	1.22561129999667	0	378492	234
740.28125	1	health	trialStart	2	92	32	foodImage.22	FOODEEG_Images\0236.jpg	YN	Left	Yes	1.0016598000002	0	379025	251
741.322265625	2	health	foodImageDisplay	2	92	32	foodImage.22	FOODEEG_Images\0236.jpg	YN	Left	Yes	1.0016598000002	0	379558	252
743.384765625	1.0016598000002	health	choicePhaseStart	2	92	32	foodImage.22	FOODEEG_Images\0236.jpg	YN	Left	Yes	1.0016598000002	0	380614	253
744.376953125	0	health	response	2	92	32	foodImage.22	FOODEEG_Images\0236.jpg	YN	Left	Yes	1.0016598000002	0	381122	234
745.423828125	1	taste	trialStart	2	93	33	foodImage.70	FOODEEG_Images\0705.jpg	YN	Left	Yes	0.696126900002128	0	381658	251
746.482421875	2	taste	foodImageDisplay	2	93	33	foodImage.70	FOODEEG_Images\0705.jpg	YN	Left	Yes	0.696126900002128	0	382200	252
748.546875	0.696126900002128	taste	choicePhaseStart	2	93	33	foodImage.70	FOODEEG_Images\0705.jpg	YN	Left	Yes	0.696126900002128	0	383257	253
749.232421875	0	taste	response	2	93	33	foodImage.70	FOODEEG_Images\0705.jpg	YN	Left	Yes	0.696126900002128	0	383608	234
750.2734375	1	health	trialStart	2	94	34	foodImage.49	FOODEEG_Images\0515.jpg	NY	Left	No	2.09432509999897	0	384141	251
751.314453125	2	health	foodImageDisplay	2	94	34	foodImage.49	FOODEEG_Images\0515.jpg	NY	Left	No	2.09432509999897	0	384674	252
753.37890625	2.09432509999897	health	choicePhaseStart	2	94	34	foodImage.49	FOODEEG_Images\0515.jpg	NY	Left	No	2.09432509999897	0	385731	253
755.46484375	0	health	response	2	94	34	foodImage.49	FOODEEG_Images\0515.jpg	NY	Left	No	2.09432509999897	0	386799	234
756.505859375	1	health	trialStart	2	95	35	foodImage.91	FOODEEG_Images\0896.jpg	NY	Left	No	0.807259100001829	0	387332	251
757.564453125	2	health	foodImageDisplay	2	95	35	foodImage.91	FOODEEG_Images\0896.jpg	NY	Left	No	0.807259100001829	0	387874	252
759.626953125	0.807259100001829	health	choicePhaseStart	2	95	35	foodImage.91	FOODEEG_Images\0896.jpg	NY	Left	No	0.807259100001829	0	388930	253
760.423828125	0	health	response	2	95	35	foodImage.91	FOODEEG_Images\0896.jpg	NY	Left	No	0.807259100001829	0	389338	234
761.466796875	1	decision	trialStart	2	96	36	foodImage.8	FOODEEG_Images\0136.jpg	NY	Left	No	1.58981450000283	0	389872	251
762.5078125	2	decision	foodImageDisplay	2	96	36	foodImage.8	FOODEEG_Images\0136.jpg	NY	Left	No	1.58981450000283	0	390405	252
764.572265625	1.58981450000283	decision	choicePhaseStart	2	96	36	foodImage.8	FOODEEG_Images\0136.jpg	NY	Left	No	1.58981450000283	0	391462	253
766.15234375	0	decision	response	2	96	36	foodImage.8	FOODEEG_Images\0136.jpg	NY	Left	No	1.58981450000283	0	392271	234
767.1953125	1	decision	trialStart	2	97	37	foodImage.101	FOODEEG_Images\0909.jpg	NY	Right	Yes	0.592674400002579	0	392805	251
768.232421875	2	decision	foodImageDisplay	2	97	37	foodImage.101	FOODEEG_Images\0909.jpg	NY	Right	Yes	0.592674400002579	0	393336	252
770.296875	0.592674400002579	decision	choicePhaseStart	2	97	37	foodImage.101	FOODEEG_Images\0909.jpg	NY	Right	Yes	0.592674400002579	0	394393	253
770.87890625	0	decision	response	2	97	37	foodImage.101	FOODEEG_Images\0909.jpg	NY	Right	Yes	0.592674400002579	0	394691	235
771.919921875	1	health	trialStart	2	98	38	foodImage.106	FOODEEG_Images\0914.jpg	NY	Left	No	1.59436850000202	0	395224	251
772.958984375	2	health	foodImageDisplay	2	98	38	foodImage.106	FOODEEG_Images\0914.jpg	NY	Left	No	1.59436850000202	0	395756	252
775.021484375	1.59436850000202	health	choicePhaseStart	2	98	38	foodImage.106	FOODEEG_Images\0914.jpg	NY	Left	No	1.59436850000202	0	396812	253
776.607421875	0	health	response	2	98	38	foodImage.106	FOODEEG_Images\0914.jpg	NY	Left	No	1.59436850000202	0	397624	234
777.650390625	1	decision	trialStart	2	99	39	foodImage.79	FOODEEG_Images\0794.jpg	YN	Left	Yes	0.73830160000216	0	398158	251
778.693359375	2	decision	foodImageDisplay	2	99	39	foodImage.79	FOODEEG_Images\0794.jpg	YN	Left	Yes	0.73830160000216	0	398692	252
780.7578125	0.73830160000216	decision	choicePhaseStart	2	99	39	foodImage.79	FOODEEG_Images\0794.jpg	YN	Left	Yes	0.73830160000216	0	399749	253
781.486328125	0	decision	response	2	99	39	foodImage.79	FOODEEG_Images\0794.jpg	YN	Left	Yes	0.73830160000216	0	400122	234
782.529296875	1	taste	trialStart	2	100	40	foodImage.4	FOODEEG_Images\0065.jpg	NY	Right	Yes	0.999520600002143	0	400656	251
783.583984375	2	taste	foodImageDisplay	2	100	40	foodImage.4	FOODEEG_Images\0065.jpg	NY	Right	Yes	0.999520600002143	0	401196	252
785.6484375	0.999520600002143	taste	choicePhaseStart	2	100	40	foodImage.4	FOODEEG_Images\0065.jpg	NY	Right	Yes	0.999520600002143	0	402253	253
786.638671875	0	taste	response	2	100	40	foodImage.4	FOODEEG_Images\0065.jpg	NY	Right	Yes	0.999520600002143	0	402760	235
787.685546875	1	decision	trialStart	2	101	41	foodImage.88	FOODEEG_Images\0878.jpg	NY	Right	Yes	0.973899500000698	0	403296	251
788.744140625	2	decision	foodImageDisplay	2	101	41	foodImage.88	FOODEEG_Images\0878.jpg	NY	Right	Yes	0.973899500000698	0	403838	252
790.806640625	0.973899500000698	decision	choicePhaseStart	2	101	41	foodImage.88	FOODEEG_Images\0878.jpg	NY	Right	Yes	0.973899500000698	0	404894	253
791.775390625	0	decision	response	2	101	41	foodImage.88	FOODEEG_Images\0878.jpg	NY	Right	Yes	0.973899500000698	0	405390	235
792.8203125	1	taste	trialStart	2	102	42	foodImage.18	FOODEEG_Images\0202.jpg	NY	Left	No	0.701011799996195	0	405925	251
793.875	2	taste	foodImageDisplay	2	102	42	foodImage.18	FOODEEG_Images\0202.jpg	NY	Left	No	0.701011799996195	0	406465	252
795.939453125	0.701011799996195	taste	choicePhaseStart	2	102	42	foodImage.18	FOODEEG_Images\0202.jpg	NY	Left	No	0.701011799996195	0	407522	253
796.630859375	0	taste	response	2	102	42	foodImage.18	FOODEEG_Images\0202.jpg	NY	Left	No	0.701011799996195	0	407876	234
797.673828125	1	taste	trialStart	2	103	43	foodImage.72	FOODEEG_Images\0714.jpg	YN	Left	Yes	0.931218799996714	0	408410	251
798.716796875	2	taste	foodImageDisplay	2	103	43	foodImage.72	FOODEEG_Images\0714.jpg	YN	Left	Yes	0.931218799996714	0	408944	252
800.78125	0.931218799996714	taste	choicePhaseStart	2	103	43	foodImage.72	FOODEEG_Images\0714.jpg	YN	Left	Yes	0.931218799996714	0	410001	253
801.703125	0	taste	response	2	103	43	foodImage.72	FOODEEG_Images\0714.jpg	YN	Left	Yes	0.931218799996714	0	410473	234
802.744140625	1	decision	trialStart	2	104	44	foodImage.61	FOODEEG_Images\0640.jpg	NY	Right	Yes	1.58885060000466	0	411006	251
803.78515625	2	decision	foodImageDisplay	2	104	44	foodImage.61	FOODEEG_Images\0640.jpg	NY	Right	Yes	1.58885060000466	0	411539	252
805.84765625	1.58885060000466	decision	choicePhaseStart	2	104	44	foodImage.61	FOODEEG_Images\0640.jpg	NY	Right	Yes	1.58885060000466	0	412595	253
807.4296875	0	decision	response	2	104	44	foodImage.61	FOODEEG_Images\0640.jpg	NY	Right	Yes	1.58885060000466	0	413405	235
808.47265625	1	decision	trialStart	2	105	45	foodImage.59	FOODEEG_Images\0607.jpg	YN	Right	No	1.75362189999578	0	413939	251
809.52734375	2	decision	foodImageDisplay	2	105	45	foodImage.59	FOODEEG_Images\0607.jpg	YN	Right	No	1.75362189999578	0	414479	252
811.58984375	1.75362189999578	decision	choicePhaseStart	2	105	45	foodImage.59	FOODEEG_Images\0607.jpg	YN	Right	No	1.75362189999578	0	415535	253
813.333984375	0	decision	response	2	105	45	foodImage.59	FOODEEG_Images\0607.jpg	YN	Right	No	1.75362189999578	0	416428	235
814.375	1	decision	trialStart	2	106	46	foodImage.116	FOODEEG_Images\0924.jpg	NY	Left	No	0.787591700005578	0	416961	251
815.412109375	2	decision	foodImageDisplay	2	106	46	foodImage.116	FOODEEG_Images\0924.jpg	NY	Left	No	0.787591700005578	0	417492	252
817.4765625	0.787591700005578	decision	choicePhaseStart	2	106	46	foodImage.116	FOODEEG_Images\0924.jpg	NY	Left	No	0.787591700005578	0	418549	253
818.25390625	0	decision	response	2	106	46	foodImage.116	FOODEEG_Images\0924.jpg	NY	Left	No	0.787591700005578	0	418947	234
819.294921875	1	decision	trialStart	2	107	47	foodImage.106	FOODEEG_Images\0914.jpg	YN	Right	No	0.658648699994956	0	419480	251
820.349609375	2	decision	foodImageDisplay	2	107	47	foodImage.106	FOODEEG_Images\0914.jpg	YN	Right	No	0.658648699994956	0	420020	252
822.412109375	0.658648699994956	decision	choicePhaseStart	2	107	47	foodImage.106	FOODEEG_Images\0914.jpg	YN	Right	No	0.658648699994956	0	421076	253
823.0625	0	decision	response	2	107	47	foodImage.106	FOODEEG_Images\0914.jpg	YN	Right	No	0.658648699994956	0	421409	235
824.103515625	1	health	trialStart	2	108	48	foodImage.97	FOODEEG_Images\0905.jpg	NY	Left	No	1.56116910000128	0	421942	251
825.142578125	2	health	foodImageDisplay	2	108	48	foodImage.97	FOODEEG_Images\0905.jpg	NY	Left	No	1.56116910000128	0	422474	252
827.2109375	1.56116910000128	health	choicePhaseStart	2	108	48	foodImage.97	FOODEEG_Images\0905.jpg	NY	Left	No	1.56116910000128	0	423533	253
828.765625	0	health	response	2	108	48	foodImage.97	FOODEEG_Images\0905.jpg	NY	Left	No	1.56116910000128	0	424329	234
829.80859375	1	taste	trialStart	2	109	49	foodImage.71	FOODEEG_Images\0713.jpg	YN	Left	Yes	1.747761300001	0	424863	251
830.8515625	2	taste	foodImageDisplay	2	109	49	foodImage.71	FOODEEG_Images\0713.jpg	YN	Left	Yes	1.747761300001	0	425397	252
832.916015625	1.747761300001	taste	choicePhaseStart	2	109	49	foodImage.71	FOODEEG_Images\0713.jpg	YN	Left	Yes	1.747761300001	0	426454	253
834.65234375	0	taste	response	2	109	49	foodImage.71	FOODEEG_Images\0713.jpg	YN	Left	Yes	1.747761300001	0	427343	234
835.693359375	1	decision	trialStart	2	110	50	foodImage.98	FOODEEG_Images\0906.jpg	YN	Right	No	1.2034874000019	0	427876	251
836.73046875	2	decision	foodImageDisplay	2	110	50	foodImage.98	FOODEEG_Images\0906.jpg	YN	Right	No	1.2034874000019	0	428407	252
838.794921875	1.2034874000019	decision	choicePhaseStart	2	110	50	foodImage.98	FOODEEG_Images\0906.jpg	YN	Right	No	1.2034874000019	0	429464	253
839.98828125	0	decision	response	2	110	50	foodImage.98	FOODEEG_Images\0906.jpg	YN	Right	No	1.2034874000019	0	430075	235
841.048828125	1	health	trialStart	2	111	51	foodImage.52	FOODEEG_Images\0539.jpg	YN	Left	Yes	1.29284000000189	0	430618	251
842.10546875	2	health	foodImageDisplay	2	111	51	foodImage.52	FOODEEG_Images\0539.jpg	YN	Left	Yes	1.29284000000189	0	431159	252
844.16796875	1.29284000000189	health	choicePhaseStart	2	111	51	foodImage.52	FOODEEG_Images\0539.jpg	YN	Left	Yes	1.29284000000189	0	432215	253
845.453125	0	health	response	2	111	51	foodImage.52	FOODEEG_Images\0539.jpg	YN	Left	Yes	1.29284000000189	0	432873	234
846.49609375	1	decision	trialStart	2	112	52	foodImage.20	FOODEEG_Images\0226.jpg	YN	Right	No	1.65927399999782	0	433407	251
847.5390625	2	decision	foodImageDisplay	2	112	52	foodImage.20	FOODEEG_Images\0226.jpg	YN	Right	No	1.65927399999782	0	433941	252
849.6015625	1.65927399999782	decision	choicePhaseStart	2	112	52	foodImage.20	FOODEEG_Images\0226.jpg	YN	Right	No	1.65927399999782	0	434997	253
851.251953125	0	decision	response	2	112	52	foodImage.20	FOODEEG_Images\0226.jpg	YN	Right	No	1.65927399999782	0	435842	235
852.302734375	1	decision	trialStart	2	113	53	foodImage.14	FOODEEG_Images\0188.jpg	YN	Left	Yes	0.669243399999687	0	436380	251
853.359375	2	decision	foodImageDisplay	2	113	53	foodImage.14	FOODEEG_Images\0188.jpg	YN	Left	Yes	0.669243399999687	0	436921	252
855.42578125	0.669243399999687	decision	choicePhaseStart	2	113	53	foodImage.14	FOODEEG_Images\0188.jpg	YN	Left	Yes	0.669243399999687	0	437979	253
856.083984375	0	decision	response	2	113	53	foodImage.14	FOODEEG_Images\0188.jpg	YN	Left	Yes	0.669243399999687	0	438316	234
857.125	1	taste	trialStart	2	114	54	foodImage.76	FOODEEG_Images\0766.jpg	YN	Left	Yes	1.51915129999543	0	438849	251
858.16796875	2	taste	foodImageDisplay	2	114	54	foodImage.76	FOODEEG_Images\0766.jpg	YN	Left	Yes	1.51915129999543	0	439383	252
860.23046875	1.51915129999543	taste	choicePhaseStart	2	114	54	foodImage.76	FOODEEG_Images\0766.jpg	YN	Left	Yes	1.51915129999543	0	440439	253
861.740234375	0	taste	response	2	114	54	foodImage.76	FOODEEG_Images\0766.jpg	YN	Left	Yes	1.51915129999543	0	441212	234
862.78125	1	health	trialStart	2	115	55	foodImage.16	FOODEEG_Images\0196.jpg	YN	Left	Yes	0.425217500000144	0	441745	251
863.837890625	2	health	foodImageDisplay	2	115	55	foodImage.16	FOODEEG_Images\0196.jpg	YN	Left	Yes	0.425217500000144	0	442286	252
865.900390625	0.425217500000144	health	choicePhaseStart	2	115	55	foodImage.16	FOODEEG_Images\0196.jpg	YN	Left	Yes	0.425217500000144	0	443342	253
866.31640625	0	health	response	2	115	55	foodImage.16	FOODEEG_Images\0196.jpg	YN	Left	Yes	0.425217500000144	0	443555	234
867.359375	1	health	trialStart	2	116	56	foodImage.14	FOODEEG_Images\0188.jpg	YN	Right	No	0.650251599996409	0	444089	251
868.416015625	2	health	foodImageDisplay	2	116	56	foodImage.14	FOODEEG_Images\0188.jpg	YN	Right	No	0.650251599996409	0	444630	252
870.482421875	0.650251599996409	health	choicePhaseStart	2	116	56	foodImage.14	FOODEEG_Images\0188.jpg	YN	Right	No	0.650251599996409	0	445688	253
871.123046875	0	health	response	2	116	56	foodImage.14	FOODEEG_Images\0188.jpg	YN	Right	No	0.650251599996409	0	446016	235
872.1640625	1	decision	trialStart	2	117	57	foodImage.11	FOODEEG_Images\0180.jpg	YN	Left	Yes	0.888313799994648	0	446549	251
873.205078125	2	decision	foodImageDisplay	2	117	57	foodImage.11	FOODEEG_Images\0180.jpg	YN	Left	Yes	0.888313799994648	0	447082	252
875.267578125	0.888313799994648	decision	choicePhaseStart	2	117	57	foodImage.11	FOODEEG_Images\0180.jpg	YN	Left	Yes	0.888313799994648	0	448138	253
876.1484375	0	decision	response	2	117	57	foodImage.11	FOODEEG_Images\0180.jpg	YN	Left	Yes	0.888313799994648	0	448589	234
877.1875	1	decision	trialStart	2	118	58	foodImage.84	FOODEEG_Images\0830.jpg	NY	Right	Yes	1.46775889999844	0	449121	251
878.2421875	2	decision	foodImageDisplay	2	118	58	foodImage.84	FOODEEG_Images\0830.jpg	NY	Right	Yes	1.46775889999844	0	449661	252
880.3046875	1.46775889999844	decision	choicePhaseStart	2	118	58	foodImage.84	FOODEEG_Images\0830.jpg	NY	Right	Yes	1.46775889999844	0	450717	253
881.763671875	0	decision	response	2	118	58	foodImage.84	FOODEEG_Images\0830.jpg	NY	Right	Yes	1.46775889999844	0	451464	235
882.8046875	1	decision	trialStart	2	119	59	foodImage.38	FOODEEG_Images\0365.jpg	YN	Right	No	0.552027399993676	0	451997	251
883.84375	2	decision	foodImageDisplay	2	119	59	foodImage.38	FOODEEG_Images\0365.jpg	YN	Right	No	0.552027399993676	0	452529	252
885.908203125	0.552027399993676	decision	choicePhaseStart	2	119	59	foodImage.38	FOODEEG_Images\0365.jpg	YN	Right	No	0.552027399993676	0	453586	253
886.451171875	0	decision	response	2	119	59	foodImage.38	FOODEEG_Images\0365.jpg	YN	Right	No	0.552027399993676	0	453864	235
887.494140625	1	taste	trialStart	2	120	60	foodImage.35	FOODEEG_Images\0350.jpg	NY	Right	Yes	0.944640100002289	0	454398	251
888.53125	2	taste	foodImageDisplay	2	120	60	foodImage.35	FOODEEG_Images\0350.jpg	NY	Right	Yes	0.944640100002289	0	454929	252
890.595703125	0.944640100002289	taste	choicePhaseStart	2	120	60	foodImage.35	FOODEEG_Images\0350.jpg	NY	Right	Yes	0.944640100002289	0	455986	253
891.53125	0	taste	response	2	120	60	foodImage.35	FOODEEG_Images\0350.jpg	NY	Right	Yes	0.944640100002289	0	456465	235
893.572265625	7.3125	n/a	blockEnd	n/a	n/a	n/a	n/a	n/a	n/a	n/a	n/a	n/a	n/a	457510	254
900.884765625	2	n/a	blockStart	3	n/a	n/a	n/a	n/a	n/a	n/a	n/a	n/a	n/a	461254	250
902.921875	1	health	trialStart	3	121	1	foodImage.30	FOODEEG_Images\0282.jpg	NY	Right	Yes	0.805708499996399	0	462297	251
903.966796875	2	health	foodImageDisplay	3	121	1	foodImage.30	FOODEEG_Images\0282.jpg	NY	Right	Yes	0.805708499996399	0	462832	252
906.029296875	0.805708499996399	health	choicePhaseStart	3	121	1	foodImage.30	FOODEEG_Images\0282.jpg	NY	Right	Yes	0.805708499996399	0	463888	253
906.826171875	0	health	response	3	121	1	foodImage.30	FOODEEG_Images\0282.jpg	NY	Right	Yes	0.805708499996399	0	464296	235
907.8671875	1	taste	trialStart	3	122	2	foodImage.94	FOODEEG_Images\0902.jpg	NY	Left	No	0.693597500001488	0	464829	251
908.908203125	2	taste	foodImageDisplay	3	122	2	foodImage.94	FOODEEG_Images\0902.jpg	NY	Left	No	0.693597500001488	0	465362	252
910.970703125	0.693597500001488	taste	choicePhaseStart	3	122	2	foodImage.94	FOODEEG_Images\0902.jpg	NY	Left	No	0.693597500001488	0	466418	253
911.658203125	0	taste	response	3	122	2	foodImage.94	FOODEEG_Images\0902.jpg	NY	Left	No	0.693597500001488	0	466770	234
912.697265625	1	decision	trialStart	3	123	3	foodImage.15	FOODEEG_Images\0189.jpg	YN	Left	Yes	1.77372160000232	0	467302	251
913.78125	2	decision	foodImageDisplay	3	123	3	foodImage.15	FOODEEG_Images\0189.jpg	YN	Left	Yes	1.77372160000232	0	467857	252
915.845703125	1.77372160000232	decision	choicePhaseStart	3	123	3	foodImage.15	FOODEEG_Images\0189.jpg	YN	Left	Yes	1.77372160000232	0	468914	253
917.609375	0	decision	response	3	123	3	foodImage.15	FOODEEG_Images\0189.jpg	YN	Left	Yes	1.77372160000232	0	469817	234
918.65234375	1	taste	trialStart	3	124	4	foodImage.23	FOODEEG_Images\0244.jpg	NY	Right	Yes	0.989854999999807	0	470351	251
919.693359375	2	taste	foodImageDisplay	3	124	4	foodImage.23	FOODEEG_Images\0244.jpg	NY	Right	Yes	0.989854999999807	0	470884	252
921.7578125	0.989854999999807	taste	choicePhaseStart	3	124	4	foodImage.23	FOODEEG_Images\0244.jpg	NY	Right	Yes	0.989854999999807	0	471941	253
922.73828125	0	taste	response	3	124	4	foodImage.23	FOODEEG_Images\0244.jpg	NY	Right	Yes	0.989854999999807	0	472443	235
923.783203125	1	taste	trialStart	3	125	5	foodImage.100	FOODEEG_Images\0908.jpg	NY	Left	No	0.577679599999101	0	472978	251
924.8203125	2	taste	foodImageDisplay	3	125	5	foodImage.100	FOODEEG_Images\0908.jpg	NY	Left	No	0.577679599999101	0	473509	252
926.88671875	0.577679599999101	taste	choicePhaseStart	3	125	5	foodImage.100	FOODEEG_Images\0908.jpg	NY	Left	No	0.577679599999101	0	474567	253
927.45703125	0	taste	response	3	125	5	foodImage.100	FOODEEG_Images\0908.jpg	NY	Left	No	0.577679599999101	0	474859	234
928.5	1	health	trialStart	3	126	6	foodImage.99	FOODEEG_Images\0907.jpg	NY	Left	No	1.34348309999768	0	475393	251
929.5390625	2	health	foodImageDisplay	3	126	6	foodImage.99	FOODEEG_Images\0907.jpg	NY	Left	No	1.34348309999768	0	475925	252
931.603515625	1.34348309999768	health	choicePhaseStart	3	126	6	foodImage.99	FOODEEG_Images\0907.jpg	NY	Left	No	1.34348309999768	0	476982	253
932.9375	0	health	response	3	126	6	foodImage.99	FOODEEG_Images\0907.jpg	NY	Left	No	1.34348309999768	0	477665	234
933.978515625	1	health	trialStart	3	127	7	foodImage.47	FOODEEG_Images\0488.jpg	YN	Left	Yes	0.744409700004326	0	478198	251
935.04296875	2	health	foodImageDisplay	3	127	7	foodImage.47	FOODEEG_Images\0488.jpg	YN	Left	Yes	0.744409700004326	0	478743	252
937.10546875	0.744409700004326	health	choicePhaseStart	3	127	7	foodImage.47	FOODEEG_Images\0488.jpg	YN	Left	Yes	0.744409700004326	0	479799	253
937.83984375	0	health	response	3	127	7	foodImage.47	FOODEEG_Images\0488.jpg	YN	Left	Yes	0.744409700004326	0	480175	234
938.8828125	1	health	trialStart	3	128	8	foodImage.42	FOODEEG_Images\0438.jpg	YN	Left	Yes	1.23215150000033	0	480709	251
939.96875	2	health	foodImageDisplay	3	128	8	foodImage.42	FOODEEG_Images\0438.jpg	YN	Left	Yes	1.23215150000033	0	481265	252
942.03125	1.23215150000033	health	choicePhaseStart	3	128	8	foodImage.42	FOODEEG_Images\0438.jpg	YN	Left	Yes	1.23215150000033	0	482321	253
943.2578125	0	health	response	3	128	8	foodImage.42	FOODEEG_Images\0438.jpg	YN	Left	Yes	1.23215150000033	0	482949	234
944.296875	1	decision	trialStart	3	129	9	foodImage.69	FOODEEG_Images\0693.jpg	NY	Right	Yes	0.68638440000359	0	483481	251
945.33984375	2	decision	foodImageDisplay	3	129	9	foodImage.69	FOODEEG_Images\0693.jpg	NY	Right	Yes	0.68638440000359	0	484015	252
947.404296875	0.68638440000359	decision	choicePhaseStart	3	129	9	foodImage.69	FOODEEG_Images\0693.jpg	NY	Right	Yes	0.68638440000359	0	485072	253
948.080078125	0	decision	response	3	129	9	foodImage.69	FOODEEG_Images\0693.jpg	NY	Right	Yes	0.68638440000359	0	485418	235
949.125	1	taste	trialStart	3	130	10	foodImage.98	FOODEEG_Images\0906.jpg	YN	Right	No	0.78397699999914	0	485953	251
950.162109375	2	taste	foodImageDisplay	3	130	10	foodImage.98	FOODEEG_Images\0906.jpg	YN	Right	No	0.78397699999914	0	486484	252
952.2265625	0.78397699999914	taste	choicePhaseStart	3	130	10	foodImage.98	FOODEEG_Images\0906.jpg	YN	Right	No	0.78397699999914	0	487541	253
953	0	taste	response	3	130	10	foodImage.98	FOODEEG_Images\0906.jpg	YN	Right	No	0.78397699999914	0	487937	235
954.041015625	1	taste	trialStart	3	131	11	foodImage.86	FOODEEG_Images\0844.jpg	YN	Right	No	1.25011470000027	0	488470	251
955.095703125	2	taste	foodImageDisplay	3	131	11	foodImage.86	FOODEEG_Images\0844.jpg	YN	Right	No	1.25011470000027	0	489010	252
957.16015625	1.25011470000027	taste	choicePhaseStart	3	131	11	foodImage.86	FOODEEG_Images\0844.jpg	YN	Right	No	1.25011470000027	0	490067	253
958.400390625	0	taste	response	3	131	11	foodImage.86	FOODEEG_Images\0844.jpg	YN	Right	No	1.25011470000027	0	490702	235
959.439453125	1	health	trialStart	3	132	12	foodImage.6	FOODEEG_Images\0113.jpg	NY	Left	No	1.41140900000028	0	491234	251
960.482421875	2	health	foodImageDisplay	3	132	12	foodImage.6	FOODEEG_Images\0113.jpg	NY	Left	No	1.41140900000028	0	491768	252
962.55078125	1.41140900000028	health	choicePhaseStart	3	132	12	foodImage.6	FOODEEG_Images\0113.jpg	NY	Left	No	1.41140900000028	0	492827	253
963.951171875	0	health	response	3	132	12	foodImage.6	FOODEEG_Images\0113.jpg	NY	Left	No	1.41140900000028	0	493544	234
964.99609375	1	health	trialStart	3	133	13	foodImage.41	FOODEEG_Images\0409.jpg	NY	Right	Yes	1.78742749999947	0	494079	251
966.0625	2	health	foodImageDisplay	3	133	13	foodImage.41	FOODEEG_Images\0409.jpg	NY	Right	Yes	1.78742749999947	0	494625	252
968.125	1.78742749999947	health	choicePhaseStart	3	133	13	foodImage.41	FOODEEG_Images\0409.jpg	NY	Right	Yes	1.78742749999947	0	495681	253
969.904296875	0	health	response	3	133	13	foodImage.41	FOODEEG_Images\0409.jpg	NY	Right	Yes	1.78742749999947	0	496592	235
970.94921875	1	decision	trialStart	3	134	14	foodImage.34	FOODEEG_Images\0339.jpg	YN	Right	No	2.20189949999622	0	497127	251
972.005859375	2	decision	foodImageDisplay	3	134	14	foodImage.34	FOODEEG_Images\0339.jpg	YN	Right	No	2.20189949999622	0	497668	252
974.072265625	2.20189949999622	decision	choicePhaseStart	3	134	14	foodImage.34	FOODEEG_Images\0339.jpg	YN	Right	No	2.20189949999622	0	498726	253
976.263671875	0	decision	response	3	134	14	foodImage.34	FOODEEG_Images\0339.jpg	YN	Right	No	2.20189949999622	0	499848	235
977.3046875	1	health	trialStart	3	135	15	foodImage.19	FOODEEG_Images\0225.jpg	YN	Left	Yes	1.15801429999556	0	500381	251
978.345703125	2	health	foodImageDisplay	3	135	15	foodImage.19	FOODEEG_Images\0225.jpg	YN	Left	Yes	1.15801429999556	0	500914	252
980.41015625	1.15801429999556	health	choicePhaseStart	3	135	15	foodImage.19	FOODEEG_Images\0225.jpg	YN	Left	Yes	1.15801429999556	0	501971	253
981.55859375	0	health	response	3	135	15	foodImage.19	FOODEEG_Images\0225.jpg	YN	Left	Yes	1.15801429999556	0	502559	234
982.6015625	1	decision	trialStart	3	136	16	foodImage.97	FOODEEG_Images\0905.jpg	NY	Left	No	0.997056399995927	0	503093	251
983.642578125	2	decision	foodImageDisplay	3	136	16	foodImage.97	FOODEEG_Images\0905.jpg	NY	Left	No	0.997056399995927	0	503626	252
985.70703125	0.997056399995927	decision	choicePhaseStart	3	136	16	foodImage.97	FOODEEG_Images\0905.jpg	NY	Left	No	0.997056399995927	0	504683	253
986.6953125	0	decision	response	3	136	16	foodImage.97	FOODEEG_Images\0905.jpg	NY	Left	No	0.997056399995927	0	505189	234
987.73828125	1	decision	trialStart	3	137	17	foodImage.117	FOODEEG_Images\0925.jpg	NY	Left	No	0.912241099998937	0	505723	251
988.77734375	2	decision	foodImageDisplay	3	137	17	foodImage.117	FOODEEG_Images\0925.jpg	NY	Left	No	0.912241099998937	0	506255	252
990.83984375	0.912241099998937	decision	choicePhaseStart	3	137	17	foodImage.117	FOODEEG_Images\0925.jpg	NY	Left	No	0.912241099998937	0	507311	253
991.7421875	0	decision	response	3	137	17	foodImage.117	FOODEEG_Images\0925.jpg	NY	Left	No	0.912241099998937	0	507773	234
992.783203125	1	health	trialStart	3	138	18	foodImage.102	FOODEEG_Images\0910.jpg	YN	Left	Yes	0.97170560000086	0	508306	251
993.822265625	2	health	foodImageDisplay	3	138	18	foodImage.102	FOODEEG_Images\0910.jpg	YN	Left	Yes	0.97170560000086	0	508838	252
995.884765625	0.97170560000086	health	choicePhaseStart	3	138	18	foodImage.102	FOODEEG_Images\0910.jpg	YN	Left	Yes	0.97170560000086	0	509894	253
996.84765625	0	health	response	3	138	18	foodImage.102	FOODEEG_Images\0910.jpg	YN	Left	Yes	0.97170560000086	0	510387	234
997.88671875	1	health	trialStart	3	139	19	foodImage.85	FOODEEG_Images\0841.jpg	YN	Right	No	1.48288710000634	0	510919	251
998.94140625	2	health	foodImageDisplay	3	139	19	foodImage.85	FOODEEG_Images\0841.jpg	YN	Right	No	1.48288710000634	0	511459	252
1001.005859375	1.48288710000634	health	choicePhaseStart	3	139	19	foodImage.85	FOODEEG_Images\0841.jpg	YN	Right	No	1.48288710000634	0	512516	253
1002.478515625	0	health	response	3	139	19	foodImage.85	FOODEEG_Images\0841.jpg	YN	Right	No	1.48288710000634	0	513270	235
1003.51953125	1	decision	trialStart	3	140	20	foodImage.87	FOODEEG_Images\0873.jpg	NY	Left	No	1.4177789000023	0	513803	251
1004.57421875	2	decision	foodImageDisplay	3	140	20	foodImage.87	FOODEEG_Images\0873.jpg	NY	Left	No	1.4177789000023	0	514343	252
1006.638671875	1.4177789000023	decision	choicePhaseStart	3	140	20	foodImage.87	FOODEEG_Images\0873.jpg	NY	Left	No	1.4177789000023	0	515400	253
1008.046875	0	decision	response	3	140	20	foodImage.87	FOODEEG_Images\0873.jpg	NY	Left	No	1.4177789000023	0	516121	234
1009.087890625	1	taste	trialStart	3	141	21	foodImage.113	FOODEEG_Images\0921.jpg	YN	Left	Yes	0.84363910000684	0	516654	251
1010.140625	2	taste	foodImageDisplay	3	141	21	foodImage.113	FOODEEG_Images\0921.jpg	YN	Left	Yes	0.84363910000684	0	517193	252
1012.203125	0.84363910000684	taste	choicePhaseStart	3	141	21	foodImage.113	FOODEEG_Images\0921.jpg	YN	Left	Yes	0.84363910000684	0	518249	253
1013.0390625	0	taste	response	3	141	21	foodImage.113	FOODEEG_Images\0921.jpg	YN	Left	Yes	0.84363910000684	0	518677	234
1014.08203125	1	taste	trialStart	3	142	22	foodImage.5	FOODEEG_Images\0107.jpg	NY	Left	No	0.564066900005855	0	519211	251
1015.1640625	2	taste	foodImageDisplay	3	142	22	foodImage.5	FOODEEG_Images\0107.jpg	NY	Left	No	0.564066900005855	0	519765	252
1017.2265625	0.564066900005855	taste	choicePhaseStart	3	142	22	foodImage.5	FOODEEG_Images\0107.jpg	NY	Left	No	0.564066900005855	0	520821	253
1017.78125	0	taste	response	3	142	22	foodImage.5	FOODEEG_Images\0107.jpg	NY	Left	No	0.564066900005855	0	521105	234
1018.822265625	1	taste	trialStart	3	143	23	foodImage.115	FOODEEG_Images\0923.jpg	YN	Right	No	0.657130799998413	0	521638	251
1019.86328125	2	taste	foodImageDisplay	3	143	23	foodImage.115	FOODEEG_Images\0923.jpg	YN	Right	No	0.657130799998413	0	522171	252
1021.92578125	0.657130799998413	taste	choicePhaseStart	3	143	23	foodImage.115	FOODEEG_Images\0923.jpg	YN	Right	No	0.657130799998413	0	523227	253
1022.57421875	0	taste	response	3	143	23	foodImage.115	FOODEEG_Images\0923.jpg	YN	Right	No	0.657130799998413	0	523559	235
1023.615234375	1	taste	trialStart	3	144	24	foodImage.99	FOODEEG_Images\0907.jpg	NY	Left	No	3.81831580000289	0	524092	251
1024.654296875	2	taste	foodImageDisplay	3	144	24	foodImage.99	FOODEEG_Images\0907.jpg	NY	Left	No	3.81831580000289	0	524624	252
1026.716796875	3.81831580000289	taste	choicePhaseStart	3	144	24	foodImage.99	FOODEEG_Images\0907.jpg	NY	Left	No	3.81831580000289	0	525680	253
1030.525390625	0	taste	response	3	144	24	foodImage.99	FOODEEG_Images\0907.jpg	NY	Left	No	3.81831580000289	0	527630	234
1031.568359375	1	decision	trialStart	3	145	25	foodImage.111	FOODEEG_Images\0919.jpg	YN	Right	No	0.838937799999258	0	528164	251
1032.607421875	2	decision	foodImageDisplay	3	145	25	foodImage.111	FOODEEG_Images\0919.jpg	YN	Right	No	0.838937799999258	0	528696	252
1034.671875	0.838937799999258	decision	choicePhaseStart	3	145	25	foodImage.111	FOODEEG_Images\0919.jpg	YN	Right	No	0.838937799999258	0	529753	253
1035.5	0	decision	response	3	145	25	foodImage.111	FOODEEG_Images\0919.jpg	YN	Right	No	0.838937799999258	0	530177	235
1036.548828125	1	taste	trialStart	3	146	26	foodImage.85	FOODEEG_Images\0841.jpg	YN	Left	Yes	2.06655489999685	0	530714	251
1037.60546875	2	taste	foodImageDisplay	3	146	26	foodImage.85	FOODEEG_Images\0841.jpg	YN	Left	Yes	2.06655489999685	0	531255	252
1039.66796875	2.06655489999685	taste	choicePhaseStart	3	146	26	foodImage.85	FOODEEG_Images\0841.jpg	YN	Left	Yes	2.06655489999685	0	532311	253
1041.724609375	0	taste	response	3	146	26	foodImage.85	FOODEEG_Images\0841.jpg	YN	Left	Yes	2.06655489999685	0	533364	234
1042.767578125	1	taste	trialStart	3	147	27	foodImage.119	FOODEEG_Images\0927.jpg	YN	Right	No	5.25773480000498	1	533898	251
1043.8203125	2	taste	foodImageDisplay	3	147	27	foodImage.119	FOODEEG_Images\0927.jpg	YN	Right	No	5.25773480000498	1	534437	252
1045.884765625	5.25773480000498	taste	choicePhaseStart	3	147	27	foodImage.119	FOODEEG_Images\0927.jpg	YN	Right	No	5.25773480000498	1	535494	253
1051.1328125	0	taste	response	3	147	27	foodImage.119	FOODEEG_Images\0927.jpg	YN	Right	No	5.25773480000498	1	538181	235
1052.177734375	1	taste	trialStart	3	148	28	foodImage.6	FOODEEG_Images\0113.jpg	NY	Left	No	0.819085900002392	0	538716	251
1053.21875	2	taste	foodImageDisplay	3	148	28	foodImage.6	FOODEEG_Images\0113.jpg	NY	Left	No	0.819085900002392	0	539249	252
1055.283203125	0.819085900002392	taste	choicePhaseStart	3	148	28	foodImage.6	FOODEEG_Images\0113.jpg	NY	Left	No	0.819085900002392	0	540306	253
1056.091796875	0	taste	response	3	148	28	foodImage.6	FOODEEG_Images\0113.jpg	NY	Left	No	0.819085900002392	0	540720	234
1057.1328125	1	health	trialStart	3	149	29	foodImage.53	FOODEEG_Images\0547.jpg	NY	Left	No	1.02093690000038	0	541253	251
1058.216796875	2	health	foodImageDisplay	3	149	29	foodImage.53	FOODEEG_Images\0547.jpg	NY	Left	No	1.02093690000038	0	541808	252
1060.279296875	1.02093690000038	health	choicePhaseStart	3	149	29	foodImage.53	FOODEEG_Images\0547.jpg	NY	Left	No	1.02093690000038	0	542864	253
1061.29296875	0	health	response	3	149	29	foodImage.53	FOODEEG_Images\0547.jpg	NY	Left	No	1.02093690000038	0	543383	234
1062.3359375	1	decision	trialStart	3	150	30	foodImage.5	FOODEEG_Images\0107.jpg	NY	Left	No	1.87834580000344	0	543917	251
1063.392578125	2	decision	foodImageDisplay	3	150	30	foodImage.5	FOODEEG_Images\0107.jpg	NY	Left	No	1.87834580000344	0	544458	252
1065.462890625	1.87834580000344	decision	choicePhaseStart	3	150	30	foodImage.5	FOODEEG_Images\0107.jpg	NY	Left	No	1.87834580000344	0	545518	253
1067.33203125	0	decision	response	3	150	30	foodImage.5	FOODEEG_Images\0107.jpg	NY	Left	No	1.87834580000344	0	546475	234
1068.373046875	1	taste	trialStart	3	151	31	foodImage.54	FOODEEG_Images\0560.jpg	NY	Right	Yes	2.05074060000334	0	547008	251
1069.427734375	2	taste	foodImageDisplay	3	151	31	foodImage.54	FOODEEG_Images\0560.jpg	NY	Right	Yes	2.05074060000334	0	547548	252
1071.490234375	2.05074060000334	taste	choicePhaseStart	3	151	31	foodImage.54	FOODEEG_Images\0560.jpg	NY	Right	Yes	2.05074060000334	0	548604	253
1073.53125	0	taste	response	3	151	31	foodImage.54	FOODEEG_Images\0560.jpg	NY	Right	Yes	2.05074060000334	0	549649	235
1074.57421875	1	taste	trialStart	3	152	32	foodImage.36	FOODEEG_Images\0352.jpg	NY	Right	Yes	2.3980109999975	0	550183	251
1075.630859375	2	taste	foodImageDisplay	3	152	32	foodImage.36	FOODEEG_Images\0352.jpg	NY	Right	Yes	2.3980109999975	0	550724	252
1077.6953125	2.3980109999975	taste	choicePhaseStart	3	152	32	foodImage.36	FOODEEG_Images\0352.jpg	NY	Right	Yes	2.3980109999975	0	551781	253
1080.083984375	0	taste	response	3	152	32	foodImage.36	FOODEEG_Images\0352.jpg	NY	Right	Yes	2.3980109999975	0	553004	235
1081.12890625	1	health	trialStart	3	153	33	foodImage.24	FOODEEG_Images\0250.jpg	YN	Left	Yes	0.7388390000051	0	553539	251
1082.169921875	2	health	foodImageDisplay	3	153	33	foodImage.24	FOODEEG_Images\0250.jpg	YN	Left	Yes	0.7388390000051	0	554072	252
1084.232421875	0.7388390000051	health	choicePhaseStart	3	153	33	foodImage.24	FOODEEG_Images\0250.jpg	YN	Left	Yes	0.7388390000051	0	555128	253
1084.962890625	0	health	response	3	153	33	foodImage.24	FOODEEG_Images\0250.jpg	YN	Left	Yes	0.7388390000051	0	555502	234
1086.005859375	1	health	trialStart	3	154	34	foodImage.48	FOODEEG_Images\0494.jpg	NY	Left	No	0.715852000001178	0	556036	251
1087.048828125	2	health	foodImageDisplay	3	154	34	foodImage.48	FOODEEG_Images\0494.jpg	NY	Left	No	0.715852000001178	0	556570	252
1089.1171875	0.715852000001178	health	choicePhaseStart	3	154	34	foodImage.48	FOODEEG_Images\0494.jpg	NY	Left	No	0.715852000001178	0	557629	253
1089.826171875	0	health	response	3	154	34	foodImage.48	FOODEEG_Images\0494.jpg	NY	Left	No	0.715852000001178	0	557992	234
1090.869140625	1	taste	trialStart	3	155	35	foodImage.60	FOODEEG_Images\0614.jpg	NY	Right	Yes	0.965550100001565	0	558526	251
1091.927734375	2	taste	foodImageDisplay	3	155	35	foodImage.60	FOODEEG_Images\0614.jpg	NY	Right	Yes	0.965550100001565	0	559068	252
1093.990234375	0.965550100001565	taste	choicePhaseStart	3	155	35	foodImage.60	FOODEEG_Images\0614.jpg	NY	Right	Yes	0.965550100001565	0	560124	253
1094.947265625	0	taste	response	3	155	35	foodImage.60	FOODEEG_Images\0614.jpg	NY	Right	Yes	0.965550100001565	0	560614	235
1095.98828125	1	taste	trialStart	3	156	36	foodImage.46	FOODEEG_Images\0479.jpg	NY	Left	No	1.02405200000067	0	561147	251
1097.044921875	2	taste	foodImageDisplay	3	156	36	foodImage.46	FOODEEG_Images\0479.jpg	NY	Left	No	1.02405200000067	0	561688	252
1099.109375	1.02405200000067	taste	choicePhaseStart	3	156	36	foodImage.46	FOODEEG_Images\0479.jpg	NY	Left	No	1.02405200000067	0	562745	253
1100.123046875	0	taste	response	3	156	36	foodImage.46	FOODEEG_Images\0479.jpg	NY	Left	No	1.02405200000067	0	563264	234
1101.1640625	1	health	trialStart	3	157	37	foodImage.76	FOODEEG_Images\0766.jpg	NY	Right	Yes	1.27420310000161	0	563797	251
1102.208984375	2	health	foodImageDisplay	3	157	37	foodImage.76	FOODEEG_Images\0766.jpg	NY	Right	Yes	1.27420310000161	0	564332	252
1104.2734375	1.27420310000161	health	choicePhaseStart	3	157	37	foodImage.76	FOODEEG_Images\0766.jpg	NY	Right	Yes	1.27420310000161	0	565389	253
1105.5390625	0	health	response	3	157	37	foodImage.76	FOODEEG_Images\0766.jpg	NY	Right	Yes	1.27420310000161	0	566037	235
1106.580078125	1	taste	trialStart	3	158	38	foodImage.80	FOODEEG_Images\0796.jpg	YN	Left	Yes	1.469955200002	0	566570	251
1107.638671875	2	taste	foodImageDisplay	3	158	38	foodImage.80	FOODEEG_Images\0796.jpg	YN	Left	Yes	1.469955200002	0	567112	252
1109.701171875	1.469955200002	taste	choicePhaseStart	3	158	38	foodImage.80	FOODEEG_Images\0796.jpg	YN	Left	Yes	1.469955200002	0	568168	253
1111.162109375	0	taste	response	3	158	38	foodImage.80	FOODEEG_Images\0796.jpg	YN	Left	Yes	1.469955200002	0	568916	234
1112.205078125	1	taste	trialStart	3	159	39	foodImage.78	FOODEEG_Images\0787.jpg	NY	Right	Yes	1.24167329999909	0	569450	251
1113.25	2	taste	foodImageDisplay	3	159	39	foodImage.78	FOODEEG_Images\0787.jpg	NY	Right	Yes	1.24167329999909	0	569985	252
1115.3125	1.24167329999909	taste	choicePhaseStart	3	159	39	foodImage.78	FOODEEG_Images\0787.jpg	NY	Right	Yes	1.24167329999909	0	571041	253
1116.544921875	0	taste	response	3	159	39	foodImage.78	FOODEEG_Images\0787.jpg	NY	Right	Yes	1.24167329999909	0	571672	235
1117.5859375	1	decision	trialStart	3	160	40	foodImage.24	FOODEEG_Images\0250.jpg	YN	Left	Yes	1.31798460000573	0	572205	251
1118.626953125	2	decision	foodImageDisplay	3	160	40	foodImage.24	FOODEEG_Images\0250.jpg	YN	Left	Yes	1.31798460000573	0	572738	252
1120.693359375	1.31798460000573	decision	choicePhaseStart	3	160	40	foodImage.24	FOODEEG_Images\0250.jpg	YN	Left	Yes	1.31798460000573	0	573796	253
1122.001953125	0	decision	response	3	160	40	foodImage.24	FOODEEG_Images\0250.jpg	YN	Left	Yes	1.31798460000573	0	574466	234
1123.041015625	1	health	trialStart	3	161	41	foodImage.100	FOODEEG_Images\0908.jpg	NY	Left	No	1.50050740000006	0	574998	251
1124.080078125	2	health	foodImageDisplay	3	161	41	foodImage.100	FOODEEG_Images\0908.jpg	NY	Left	No	1.50050740000006	0	575530	252
1126.142578125	1.50050740000006	health	choicePhaseStart	3	161	41	foodImage.100	FOODEEG_Images\0908.jpg	NY	Left	No	1.50050740000006	0	576586	253
1127.6328125	0	health	response	3	161	41	foodImage.100	FOODEEG_Images\0908.jpg	NY	Left	No	1.50050740000006	0	577349	234
1128.67578125	1	health	trialStart	3	162	42	foodImage.117	FOODEEG_Images\0925.jpg	YN	Right	No	1.08150639999803	0	577883	251
1129.712890625	2	health	foodImageDisplay	3	162	42	foodImage.117	FOODEEG_Images\0925.jpg	YN	Right	No	1.08150639999803	0	578414	252
1131.77734375	1.08150639999803	health	choicePhaseStart	3	162	42	foodImage.117	FOODEEG_Images\0925.jpg	YN	Right	No	1.08150639999803	0	579471	253
1132.849609375	0	health	response	3	162	42	foodImage.117	FOODEEG_Images\0925.jpg	YN	Right	No	1.08150639999803	0	580020	235
1133.890625	1	health	trialStart	3	163	43	foodImage.51	FOODEEG_Images\0536.jpg	YN	Right	No	1.05732849999913	0	580553	251
1134.935546875	2	health	foodImageDisplay	3	163	43	foodImage.51	FOODEEG_Images\0536.jpg	YN	Right	No	1.05732849999913	0	581088	252
1136.998046875	1.05732849999913	health	choicePhaseStart	3	163	43	foodImage.51	FOODEEG_Images\0536.jpg	YN	Right	No	1.05732849999913	0	582144	253
1138.048828125	0	health	response	3	163	43	foodImage.51	FOODEEG_Images\0536.jpg	YN	Right	No	1.05732849999913	0	582682	235
1139.08984375	1	health	trialStart	3	164	44	foodImage.77	FOODEEG_Images\0771.jpg	YN	Left	Yes	2.52402409999922	0	583215	251
1140.14453125	2	health	foodImageDisplay	3	164	44	foodImage.77	FOODEEG_Images\0771.jpg	YN	Left	Yes	2.52402409999922	0	583755	252
1142.20703125	2.52402409999922	health	choicePhaseStart	3	164	44	foodImage.77	FOODEEG_Images\0771.jpg	YN	Left	Yes	2.52402409999922	0	584811	253
1144.720703125	0	health	response	3	164	44	foodImage.77	FOODEEG_Images\0771.jpg	YN	Left	Yes	2.52402409999922	0	586098	234
1145.763671875	1	decision	trialStart	3	165	45	foodImage.19	FOODEEG_Images\0225.jpg	YN	Left	Yes	0.849718199999188	0	586632	251
1146.8046875	2	decision	foodImageDisplay	3	165	45	foodImage.19	FOODEEG_Images\0225.jpg	YN	Left	Yes	0.849718199999188	0	587165	252
1148.869140625	0.849718199999188	decision	choicePhaseStart	3	165	45	foodImage.19	FOODEEG_Images\0225.jpg	YN	Left	Yes	0.849718199999188	0	588222	253
1149.712890625	0	decision	response	3	165	45	foodImage.19	FOODEEG_Images\0225.jpg	YN	Left	Yes	0.849718199999188	0	588654	234
1150.75390625	1	taste	trialStart	3	166	46	foodImage.103	FOODEEG_Images\0911.jpg	YN	Right	No	0.597218299997621	0	589187	251
1151.79296875	2	taste	foodImageDisplay	3	166	46	foodImage.103	FOODEEG_Images\0911.jpg	YN	Right	No	0.597218299997621	0	589719	252
1153.861328125	0.597218299997621	taste	choicePhaseStart	3	166	46	foodImage.103	FOODEEG_Images\0911.jpg	YN	Right	No	0.597218299997621	0	590778	253
1154.44921875	0	taste	response	3	166	46	foodImage.103	FOODEEG_Images\0911.jpg	YN	Right	No	0.597218299997621	0	591079	235
1155.490234375	1	taste	trialStart	3	167	47	foodImage.42	FOODEEG_Images\0438.jpg	NY	Left	No	1.20638569999574	0	591612	251
1156.578125	2	taste	foodImageDisplay	3	167	47	foodImage.42	FOODEEG_Images\0438.jpg	NY	Left	No	1.20638569999574	0	592169	252
1158.642578125	1.20638569999574	taste	choicePhaseStart	3	167	47	foodImage.42	FOODEEG_Images\0438.jpg	NY	Left	No	1.20638569999574	0	593226	253
1159.83984375	0	taste	response	3	167	47	foodImage.42	FOODEEG_Images\0438.jpg	NY	Left	No	1.20638569999574	0	593839	234
1160.880859375	1	decision	trialStart	3	168	48	foodImage.92	FOODEEG_Images\0900.jpg	NY	Left	No	1.21124000000418	0	594372	251
1161.919921875	2	decision	foodImageDisplay	3	168	48	foodImage.92	FOODEEG_Images\0900.jpg	NY	Left	No	1.21124000000418	0	594904	252
1163.982421875	1.21124000000418	decision	choicePhaseStart	3	168	48	foodImage.92	FOODEEG_Images\0900.jpg	NY	Left	No	1.21124000000418	0	595960	253
1165.18359375	0	decision	response	3	168	48	foodImage.92	FOODEEG_Images\0900.jpg	NY	Left	No	1.21124000000418	0	596575	234
1166.228515625	1	decision	trialStart	3	169	49	foodImage.66	FOODEEG_Images\0676.jpg	YN	Left	Yes	0.927407199997106	0	597110	251
1167.271484375	2	decision	foodImageDisplay	3	169	49	foodImage.66	FOODEEG_Images\0676.jpg	YN	Left	Yes	0.927407199997106	0	597644	252
1169.3359375	0.927407199997106	decision	choicePhaseStart	3	169	49	foodImage.66	FOODEEG_Images\0676.jpg	YN	Left	Yes	0.927407199997106	0	598701	253
1170.255859375	0	decision	response	3	169	49	foodImage.66	FOODEEG_Images\0676.jpg	YN	Left	Yes	0.927407199997106	0	599172	234
1171.298828125	1	decision	trialStart	3	170	50	foodImage.53	FOODEEG_Images\0547.jpg	NY	Left	No	2.09285439999803	0	599706	251
1172.37890625	2	decision	foodImageDisplay	3	170	50	foodImage.53	FOODEEG_Images\0547.jpg	NY	Left	No	2.09285439999803	0	600259	252
1174.443359375	2.09285439999803	decision	choicePhaseStart	3	170	50	foodImage.53	FOODEEG_Images\0547.jpg	NY	Left	No	2.09285439999803	0	601316	253
1176.52734375	0	decision	response	3	170	50	foodImage.53	FOODEEG_Images\0547.jpg	NY	Left	No	2.09285439999803	0	602383	234
1177.5703125	1	taste	trialStart	3	171	51	foodImage.116	FOODEEG_Images\0924.jpg	NY	Left	No	1.5205139000027	0	602917	251
1178.609375	2	taste	foodImageDisplay	3	171	51	foodImage.116	FOODEEG_Images\0924.jpg	NY	Left	No	1.5205139000027	0	603449	252
1180.671875	1.5205139000027	taste	choicePhaseStart	3	171	51	foodImage.116	FOODEEG_Images\0924.jpg	NY	Left	No	1.5205139000027	0	604505	253
1182.18359375	0	taste	response	3	171	51	foodImage.116	FOODEEG_Images\0924.jpg	NY	Left	No	1.5205139000027	0	605279	234
1183.2265625	1	decision	trialStart	3	172	52	foodImage.37	FOODEEG_Images\0359.jpg	NY	Left	No	1.07391619999544	0	605813	251
1184.287109375	2	decision	foodImageDisplay	3	172	52	foodImage.37	FOODEEG_Images\0359.jpg	NY	Left	No	1.07391619999544	0	606356	252
1186.3515625	1.07391619999544	decision	choicePhaseStart	3	172	52	foodImage.37	FOODEEG_Images\0359.jpg	NY	Left	No	1.07391619999544	0	607413	253
1187.416015625	0	decision	response	3	172	52	foodImage.37	FOODEEG_Images\0359.jpg	NY	Left	No	1.07391619999544	0	607958	234
1188.4609375	1	health	trialStart	3	173	53	foodImage.43	FOODEEG_Images\0445.jpg	YN	Left	Yes	1.15297749999445	0	608493	251
1189.54296875	2	health	foodImageDisplay	3	173	53	foodImage.43	FOODEEG_Images\0445.jpg	YN	Left	Yes	1.15297749999445	0	609047	252
1191.607421875	1.15297749999445	health	choicePhaseStart	3	173	53	foodImage.43	FOODEEG_Images\0445.jpg	YN	Left	Yes	1.15297749999445	0	610104	253
1192.75	0	health	response	3	173	53	foodImage.43	FOODEEG_Images\0445.jpg	YN	Left	Yes	1.15297749999445	0	610689	234
1193.79296875	1	taste	trialStart	3	174	54	foodImage.20	FOODEEG_Images\0226.jpg	YN	Left	Yes	1.11171059999469	0	611223	251
1194.833984375	2	taste	foodImageDisplay	3	174	54	foodImage.20	FOODEEG_Images\0226.jpg	YN	Left	Yes	1.11171059999469	0	611756	252
1196.896484375	1.11171059999469	taste	choicePhaseStart	3	174	54	foodImage.20	FOODEEG_Images\0226.jpg	YN	Left	Yes	1.11171059999469	0	612812	253
1197.998046875	0	taste	response	3	174	54	foodImage.20	FOODEEG_Images\0226.jpg	YN	Left	Yes	1.11171059999469	0	613376	234
1199.0390625	1	taste	trialStart	3	175	55	foodImage.1	FOODEEG_Images\0004.jpg	YN	Left	Yes	0.781163300001936	0	613909	251
1200.080078125	2	taste	foodImageDisplay	3	175	55	foodImage.1	FOODEEG_Images\0004.jpg	YN	Left	Yes	0.781163300001936	0	614442	252
1202.14453125	0.781163300001936	taste	choicePhaseStart	3	175	55	foodImage.1	FOODEEG_Images\0004.jpg	YN	Left	Yes	0.781163300001936	0	615499	253
1202.91796875	0	taste	response	3	175	55	foodImage.1	FOODEEG_Images\0004.jpg	YN	Left	Yes	0.781163300001936	0	615895	234
1203.9609375	1	taste	trialStart	3	176	56	foodImage.104	FOODEEG_Images\0912.jpg	NY	Left	No	1.31947989999753	0	616429	251
1205	2	taste	foodImageDisplay	3	176	56	foodImage.104	FOODEEG_Images\0912.jpg	NY	Left	No	1.31947989999753	0	616961	252
1207.064453125	1.31947989999753	taste	choicePhaseStart	3	176	56	foodImage.104	FOODEEG_Images\0912.jpg	NY	Left	No	1.31947989999753	0	618018	253
1208.375	0	taste	response	3	176	56	foodImage.104	FOODEEG_Images\0912.jpg	NY	Left	No	1.31947989999753	0	618689	234
1209.416015625	1	health	trialStart	3	177	57	foodImage.50	FOODEEG_Images\0529.jpg	YN	Left	Yes	1.54385750000074	0	619222	251
1210.47265625	2	health	foodImageDisplay	3	177	57	foodImage.50	FOODEEG_Images\0529.jpg	YN	Left	Yes	1.54385750000074	0	619763	252
1212.53515625	1.54385750000074	health	choicePhaseStart	3	177	57	foodImage.50	FOODEEG_Images\0529.jpg	YN	Left	Yes	1.54385750000074	0	620819	253
1214.0703125	0	health	response	3	177	57	foodImage.50	FOODEEG_Images\0529.jpg	YN	Left	Yes	1.54385750000074	0	621605	234
1215.109375	1	decision	trialStart	3	178	58	foodImage.95	FOODEEG_Images\0903.jpg	NY	Right	Yes	1.39521070000046	0	622137	251
1216.1484375	2	decision	foodImageDisplay	3	178	58	foodImage.95	FOODEEG_Images\0903.jpg	NY	Right	Yes	1.39521070000046	0	622669	252
1218.212890625	1.39521070000046	decision	choicePhaseStart	3	178	58	foodImage.95	FOODEEG_Images\0903.jpg	NY	Right	Yes	1.39521070000046	0	623726	253
1219.59765625	0	decision	response	3	178	58	foodImage.95	FOODEEG_Images\0903.jpg	NY	Right	Yes	1.39521070000046	0	624435	235
1220.640625	1	decision	trialStart	3	179	59	foodImage.102	FOODEEG_Images\0910.jpg	NY	Right	Yes	0.667434799994226	0	624969	251
1221.6796875	2	decision	foodImageDisplay	3	179	59	foodImage.102	FOODEEG_Images\0910.jpg	NY	Right	Yes	0.667434799994226	0	625501	252
1223.748046875	0.667434799994226	decision	choicePhaseStart	3	179	59	foodImage.102	FOODEEG_Images\0910.jpg	NY	Right	Yes	0.667434799994226	0	626560	253
1224.40625	0	decision	response	3	179	59	foodImage.102	FOODEEG_Images\0910.jpg	NY	Right	Yes	0.667434799994226	0	626897	235
1225.447265625	1	health	trialStart	3	180	60	foodImage.120	FOODEEG_Images\0928.jpg	YN	Right	No	2.07422509999742	0	627430	251
1226.484375	2	health	foodImageDisplay	3	180	60	foodImage.120	FOODEEG_Images\0928.jpg	YN	Right	No	2.07422509999742	0	627961	252
1228.548828125	2.07422509999742	health	choicePhaseStart	3	180	60	foodImage.120	FOODEEG_Images\0928.jpg	YN	Right	No	2.07422509999742	0	629018	253
1230.61328125	0	health	response	3	180	60	foodImage.120	FOODEEG_Images\0928.jpg	YN	Right	No	2.07422509999742	0	630075	235
1232.66015625	10.68359375	n/a	blockEnd	n/a	n/a	n/a	n/a	n/a	n/a	n/a	n/a	n/a	n/a	631123	254
1243.34375	2	n/a	blockStart	4	n/a	n/a	n/a	n/a	n/a	n/a	n/a	n/a	n/a	636593	250
1245.375	1	taste	trialStart	4	181	1	foodImage.108	FOODEEG_Images\0916.jpg	YN	Right	No	0.595575199993618	0	637633	251
1246.4140625	2	taste	foodImageDisplay	4	181	1	foodImage.108	FOODEEG_Images\0916.jpg	YN	Right	No	0.595575199993618	0	638165	252
1248.482421875	0.595575199993618	taste	choicePhaseStart	4	181	1	foodImage.108	FOODEEG_Images\0916.jpg	YN	Right	No	0.595575199993618	0	639224	253
1249.068359375	0	taste	response	4	181	1	foodImage.108	FOODEEG_Images\0916.jpg	YN	Right	No	0.595575199993618	0	639524	235
1250.109375	1	taste	trialStart	4	182	2	foodImage.111	FOODEEG_Images\0919.jpg	NY	Left	No	0.651515800003835	0	640057	251
1251.1484375	2	taste	foodImageDisplay	4	182	2	foodImage.111	FOODEEG_Images\0919.jpg	NY	Left	No	0.651515800003835	0	640589	252
1253.2109375	0.651515800003835	taste	choicePhaseStart	4	182	2	foodImage.111	FOODEEG_Images\0919.jpg	NY	Left	No	0.651515800003835	0	641645	253
1253.8515625	0	taste	response	4	182	2	foodImage.111	FOODEEG_Images\0919.jpg	NY	Left	No	0.651515800003835	0	641973	234
1254.892578125	1	taste	trialStart	4	183	3	foodImage.88	FOODEEG_Images\0878.jpg	YN	Left	Yes	1.81408409999858	0	642506	251
1255.947265625	2	taste	foodImageDisplay	4	183	3	foodImage.88	FOODEEG_Images\0878.jpg	YN	Left	Yes	1.81408409999858	0	643046	252
1258.015625	1.81408409999858	taste	choicePhaseStart	4	183	3	foodImage.88	FOODEEG_Images\0878.jpg	YN	Left	Yes	1.81408409999858	0	644105	253
1259.8203125	0	taste	response	4	183	3	foodImage.88	FOODEEG_Images\0878.jpg	YN	Left	Yes	1.81408409999858	0	645029	234
1260.861328125	1	taste	trialStart	4	184	4	foodImage.39	FOODEEG_Images\0367.jpg	NY	Left	No	1.20133129999886	0	645562	251
1261.900390625	2	taste	foodImageDisplay	4	184	4	foodImage.39	FOODEEG_Images\0367.jpg	NY	Left	No	1.20133129999886	0	646094	252
1263.96484375	1.20133129999886	taste	choicePhaseStart	4	184	4	foodImage.39	FOODEEG_Images\0367.jpg	NY	Left	No	1.20133129999886	0	647151	253
1265.15625	0	taste	response	4	184	4	foodImage.39	FOODEEG_Images\0367.jpg	NY	Left	No	1.20133129999886	0	647761	234
1266.19921875	1	health	trialStart	4	185	5	foodImage.72	FOODEEG_Images\0714.jpg	NY	Left	No	1.93365889999404	0	648295	251
1267.240234375	2	health	foodImageDisplay	4	185	5	foodImage.72	FOODEEG_Images\0714.jpg	NY	Left	No	1.93365889999404	0	648828	252
1269.3046875	1.93365889999404	health	choicePhaseStart	4	185	5	foodImage.72	FOODEEG_Images\0714.jpg	NY	Left	No	1.93365889999404	0	649885	253
1271.228515625	0	health	response	4	185	5	foodImage.72	FOODEEG_Images\0714.jpg	NY	Left	No	1.93365889999404	0	650870	234
1272.26953125	1	health	trialStart	4	186	6	foodImage.9	FOODEEG_Images\0138.jpg	YN	Left	Yes	0.639689099996758	0	651403	251
1273.32421875	2	health	foodImageDisplay	4	186	6	foodImage.9	FOODEEG_Images\0138.jpg	YN	Left	Yes	0.639689099996758	0	651943	252
1275.388671875	0.639689099996758	health	choicePhaseStart	4	186	6	foodImage.9	FOODEEG_Images\0138.jpg	YN	Left	Yes	0.639689099996758	0	653000	253
1276.01953125	0	health	response	4	186	6	foodImage.9	FOODEEG_Images\0138.jpg	YN	Left	Yes	0.639689099996758	0	653323	234
1277.05859375	1	taste	trialStart	4	187	7	foodImage.97	FOODEEG_Images\0905.jpg	NY	Left	No	2.14413849999983	0	653855	251
1278.115234375	2	taste	foodImageDisplay	4	187	7	foodImage.97	FOODEEG_Images\0905.jpg	NY	Left	No	2.14413849999983	0	654396	252
1280.181640625	2.14413849999983	taste	choicePhaseStart	4	187	7	foodImage.97	FOODEEG_Images\0905.jpg	NY	Left	No	2.14413849999983	0	655454	253
1282.314453125	0	taste	response	4	187	7	foodImage.97	FOODEEG_Images\0905.jpg	NY	Left	No	2.14413849999983	0	656546	234
1283.357421875	1	health	trialStart	4	188	8	foodImage.79	FOODEEG_Images\0794.jpg	NY	Right	Yes	0.908679300002404	0	657080	251
1284.400390625	2	health	foodImageDisplay	4	188	8	foodImage.79	FOODEEG_Images\0794.jpg	NY	Right	Yes	0.908679300002404	0	657614	252
1286.46484375	0.908679300002404	health	choicePhaseStart	4	188	8	foodImage.79	FOODEEG_Images\0794.jpg	NY	Right	Yes	0.908679300002404	0	658671	253
1287.36328125	0	health	response	4	188	8	foodImage.79	FOODEEG_Images\0794.jpg	NY	Right	Yes	0.908679300002404	0	659131	235
1288.404296875	1	taste	trialStart	4	189	9	foodImage.15	FOODEEG_Images\0189.jpg	NY	Right	Yes	0.86611350000021	0	659664	251
1289.458984375	2	taste	foodImageDisplay	4	189	9	foodImage.15	FOODEEG_Images\0189.jpg	NY	Right	Yes	0.86611350000021	0	660204	252
1291.521484375	0.86611350000021	taste	choicePhaseStart	4	189	9	foodImage.15	FOODEEG_Images\0189.jpg	NY	Right	Yes	0.86611350000021	0	661260	253
1292.37890625	0	taste	response	4	189	9	foodImage.15	FOODEEG_Images\0189.jpg	NY	Right	Yes	0.86611350000021	0	661699	235
1293.419921875	1	health	trialStart	4	190	10	foodImage.20	FOODEEG_Images\0226.jpg	NY	Right	Yes	1.24599540000054	0	662232	251
1294.4609375	2	health	foodImageDisplay	4	190	10	foodImage.20	FOODEEG_Images\0226.jpg	NY	Right	Yes	1.24599540000054	0	662765	252
1296.525390625	1.24599540000054	health	choicePhaseStart	4	190	10	foodImage.20	FOODEEG_Images\0226.jpg	NY	Right	Yes	1.24599540000054	0	663822	253
1297.76171875	0	health	response	4	190	10	foodImage.20	FOODEEG_Images\0226.jpg	NY	Right	Yes	1.24599540000054	0	664455	235
1298.8046875	1	decision	trialStart	4	191	11	foodImage.28	FOODEEG_Images\0273.jpg	NY	Right	Yes	0.627576399994723	0	664989	251
1299.84765625	2	decision	foodImageDisplay	4	191	11	foodImage.28	FOODEEG_Images\0273.jpg	NY	Right	Yes	0.627576399994723	0	665523	252
1301.912109375	0.627576399994723	decision	choicePhaseStart	4	191	11	foodImage.28	FOODEEG_Images\0273.jpg	NY	Right	Yes	0.627576399994723	0	666580	253
1302.53125	0	decision	response	4	191	11	foodImage.28	FOODEEG_Images\0273.jpg	NY	Right	Yes	0.627576399994723	0	666897	235
1303.57421875	1	health	trialStart	4	192	12	foodImage.2	FOODEEG_Images\0028.jpg	YN	Right	No	1.02748609999981	0	667431	251
1304.6171875	2	health	foodImageDisplay	4	192	12	foodImage.2	FOODEEG_Images\0028.jpg	YN	Right	No	1.02748609999981	0	667965	252
1306.6796875	1.02748609999981	health	choicePhaseStart	4	192	12	foodImage.2	FOODEEG_Images\0028.jpg	YN	Right	No	1.02748609999981	0	669021	253
1307.69921875	0	health	response	4	192	12	foodImage.2	FOODEEG_Images\0028.jpg	YN	Right	No	1.02748609999981	0	669543	235
1308.744140625	1	decision	trialStart	4	193	13	foodImage.99	FOODEEG_Images\0907.jpg	YN	Right	No	1.06206669999665	0	670078	251
1309.783203125	2	decision	foodImageDisplay	4	193	13	foodImage.99	FOODEEG_Images\0907.jpg	YN	Right	No	1.06206669999665	0	670610	252
1311.845703125	1.06206669999665	decision	choicePhaseStart	4	193	13	foodImage.99	FOODEEG_Images\0907.jpg	YN	Right	No	1.06206669999665	0	671666	253
1312.8984375	0	decision	response	4	193	13	foodImage.99	FOODEEG_Images\0907.jpg	YN	Right	No	1.06206669999665	0	672205	235
1313.94140625	1	health	trialStart	4	194	14	foodImage.68	FOODEEG_Images\0685.jpg	NY	Left	No	1.18542170000001	0	672739	251
1315.017578125	2	health	foodImageDisplay	4	194	14	foodImage.68	FOODEEG_Images\0685.jpg	NY	Left	No	1.18542170000001	0	673290	252
1317.08203125	1.18542170000001	health	choicePhaseStart	4	194	14	foodImage.68	FOODEEG_Images\0685.jpg	NY	Left	No	1.18542170000001	0	674347	253
1318.2578125	0	health	response	4	194	14	foodImage.68	FOODEEG_Images\0685.jpg	NY	Left	No	1.18542170000001	0	674949	234
1319.30078125	1	taste	trialStart	4	195	15	foodImage.74	FOODEEG_Images\0752.jpg	NY	Right	Yes	1.97248389999731	0	675483	251
1320.34375	2	taste	foodImageDisplay	4	195	15	foodImage.74	FOODEEG_Images\0752.jpg	NY	Right	Yes	1.97248389999731	0	676017	252
