onset	duration	trial_type	event_type	block	trial_total	trial_in_block	food_image_code	food_image_path	button_position	resp_position	resp_choice	choice_rt	resp_too_slow	sample	trigger
364.93359375	2	n/a	blockStart	1	n/a	n/a	n/a	n/a	n/a	n/a	n/a	n/a	n/a	186847	250
366.970703125	1	health	trialStart	1	1	1	foodImage.114	FOODEEG_Images\0922.jpg	NY	Left	No	2.2527313999999	0	187890	251
368.017578125	2	health	foodImageDisplay	1	1	1	foodImage.114	FOODEEG_Images\0922.jpg	NY	Left	No	2.2527313999999	0	188426	252
370.08203125	2.2527313999999	health	choicePhaseStart	1	1	1	foodImage.114	FOODEEG_Images\0922.jpg	NY	Left	No	2.2527313999999	0	189483	253
372.328125	0	health	response	1	1	1	foodImage.114	FOODEEG_Images\0922.jpg	NY	Left	No	2.2527313999999	0	190633	234
373.416015625	1	decision	trialStart	1	2	2	foodImage.93	FOODEEG_Images\0901.jpg	NY	Left	No	1.46241940000027	0	191190	251
374.458984375	2	decision	foodImageDisplay	1	2	2	foodImage.93	FOODEEG_Images\0901.jpg	NY	Left	No	1.46241940000027	0	191724	252
376.529296875	1.46241940000027	decision	choicePhaseStart	1	2	2	foodImage.93	FOODEEG_Images\0901.jpg	NY	Left	No	1.46241940000027	0	192784	253
377.984375	0	decision	response	1	2	2	foodImage.93	FOODEEG_Images\0901.jpg	NY	Left	No	1.46241940000027	0	193529	234
379.0390625	1	decision	trialStart	1	3	3	foodImage.9	FOODEEG_Images\0138.jpg	NY	Right	Yes	1.57537219999995	0	194069	251
380.09765625	2	decision	foodImageDisplay	1	3	3	foodImage.9	FOODEEG_Images\0138.jpg	NY	Right	Yes	1.57537219999995	0	194611	252
382.16796875	1.57537219999995	decision	choicePhaseStart	1	3	3	foodImage.9	FOODEEG_Images\0138.jpg	NY	Right	Yes	1.57537219999995	0	195671	253
383.736328125	0	decision	response	1	3	3	foodImage.9	FOODEEG_Images\0138.jpg	NY	Right	Yes	1.57537219999995	0	196474	235
384.779296875	1	health	trialStart	1	4	4	foodImage.78	FOODEEG_Images\0787.jpg	YN	Left	Yes	1.07697149999967	0	197008	251
385.826171875	2	health	foodImageDisplay	1	4	4	foodImage.78	FOODEEG_Images\0787.jpg	YN	Left	Yes	1.07697149999967	0	197544	252
387.890625	1.07697149999967	health	choicePhaseStart	1	4	4	foodImage.78	FOODEEG_Images\0787.jpg	YN	Left	Yes	1.07697149999967	0	198601	253
388.958984375	0	health	response	1	4	4	foodImage.78	FOODEEG_Images\0787.jpg	YN	Left	Yes	1.07697149999967	0	199148	234
390.00390625	1	decision	trialStart	1	5	5	foodImage.51	FOODEEG_Images\0536.jpg	YN	Left	Yes	1.19016940000074	0	199683	251
391.0546875	2	decision	foodImageDisplay	1	5	5	foodImage.51	FOODEEG_Images\0536.jpg	YN	Left	Yes	1.19016940000074	0	200221	252
393.12109375	1.19016940000074	decision	choicePhaseStart	1	5	5	foodImage.51	FOODEEG_Images\0536.jpg	YN	Left	Yes	1.19016940000074	0	201279	253
394.302734375	0	decision	response	1	5	5	foodImage.51	FOODEEG_Images\0536.jpg	YN	Left	Yes	1.19016940000074	0	201884	234
395.353515625	1	health	trialStart	1	6	6	foodImage.59	FOODEEG_Images\0607.jpg	NY	Left	No	1.50182910000058	0	202422	251
396.400390625	2	health	foodImageDisplay	1	6	6	foodImage.59	FOODEEG_Images\0607.jpg	NY	Left	No	1.50182910000058	0	202958	252
398.46484375	1.50182910000058	health	choicePhaseStart	1	6	6	foodImage.59	FOODEEG_Images\0607.jpg	NY	Left	No	1.50182910000058	0	204015	253
399.958984375	0	health	response	1	6	6	foodImage.59	FOODEEG_Images\0607.jpg	NY	Left	No	1.50182910000058	0	204780	234
400.998046875	1	decision	trialStart	1	7	7	foodImage.96	FOODEEG_Images\0904.jpg	YN	Right	No	1.7629739999993	0	205312	251
402.037109375	2	decision	foodImageDisplay	1	7	7	foodImage.96	FOODEEG_Images\0904.jpg	YN	Right	No	1.7629739999993	0	205844	252
404.099609375	1.7629739999993	decision	choicePhaseStart	1	7	7	foodImage.96	FOODEEG_Images\0904.jpg	YN	Right	No	1.7629739999993	0	206900	253
405.853515625	0	decision	response	1	7	7	foodImage.96	FOODEEG_Images\0904.jpg	YN	Right	No	1.7629739999993	0	207798	235
406.896484375	1	taste	trialStart	1	8	8	foodImage.81	FOODEEG_Images\0797.jpg	NY	Left	No	1.83983249999983	0	208332	251
407.978515625	2	taste	foodImageDisplay	1	8	8	foodImage.81	FOODEEG_Images\0797.jpg	NY	Left	No	1.83983249999983	0	208886	252
410.05078125	1.83983249999983	taste	choicePhaseStart	1	8	8	foodImage.81	FOODEEG_Images\0797.jpg	NY	Left	No	1.83983249999983	0	209947	253
411.88671875	0	taste	response	1	8	8	foodImage.81	FOODEEG_Images\0797.jpg	NY	Left	No	1.83983249999983	0	210887	234
412.9296875	1	taste	trialStart	1	9	9	foodImage.22	FOODEEG_Images\0236.jpg	NY	Left	No	1.85034900000028	0	211421	251
413.97265625	2	taste	foodImageDisplay	1	9	9	foodImage.22	FOODEEG_Images\0236.jpg	NY	Left	No	1.85034900000028	0	211955	252
416.04296875	1.85034900000028	taste	choicePhaseStart	1	9	9	foodImage.22	FOODEEG_Images\0236.jpg	NY	Left	No	1.85034900000028	0	213015	253
417.88671875	0	taste	response	1	9	9	foodImage.22	FOODEEG_Images\0236.jpg	NY	Left	No	1.85034900000028	0	213959	234
418.9296875	1	health	trialStart	1	10	10	foodImage.71	FOODEEG_Images\0713.jpg	NY	Left	No	1.80009950000021	0	214493	251
419.974609375	2	health	foodImageDisplay	1	10	10	foodImage.71	FOODEEG_Images\0713.jpg	NY	Left	No	1.80009950000021	0	215028	252
422.0390625	1.80009950000021	health	choicePhaseStart	1	10	10	foodImage.71	FOODEEG_Images\0713.jpg	NY	Left	No	1.80009950000021	0	216085	253
423.830078125	0	health	response	1	10	10	foodImage.71	FOODEEG_Images\0713.jpg	NY	Left	No	1.80009950000021	0	217002	234
424.87109375	1	decision	trialStart	1	11	11	foodImage.65	FOODEEG_Images\0658.jpg	NY	Right	Yes	1.08268649999991	0	217535	251
425.9140625	2	decision	foodImageDisplay	1	11	11	foodImage.65	FOODEEG_Images\0658.jpg	NY	Right	Yes	1.08268649999991	0	218069	252
427.978515625	1.08268649999991	decision	choicePhaseStart	1	11	11	foodImage.65	FOODEEG_Images\0658.jpg	NY	Right	Yes	1.08268649999991	0	219126	253
429.052734375	0	decision	response	1	11	11	foodImage.65	FOODEEG_Images\0658.jpg	NY	Right	Yes	1.08268649999991	0	219676	235
430.095703125	1	decision	trialStart	1	12	12	foodImage.41	FOODEEG_Images\0409.jpg	NY	Right	Yes	1.08097270000053	0	220210	251
431.166015625	2	decision	foodImageDisplay	1	12	12	foodImage.41	FOODEEG_Images\0409.jpg	NY	Right	Yes	1.08097270000053	0	220758	252
433.23046875	1.08097270000053	decision	choicePhaseStart	1	12	12	foodImage.41	FOODEEG_Images\0409.jpg	NY	Right	Yes	1.08097270000053	0	221815	253
434.30078125	0	decision	response	1	12	12	foodImage.41	FOODEEG_Images\0409.jpg	NY	Right	Yes	1.08097270000053	0	222363	235
435.3515625	1	taste	trialStart	1	13	13	foodImage.102	FOODEEG_Images\0910.jpg	YN	Left	Yes	2.32674459999998	0	222901	251
436.390625	2	taste	foodImageDisplay	1	13	13	foodImage.102	FOODEEG_Images\0910.jpg	YN	Left	Yes	2.32674459999998	0	223433	252
438.453125	2.32674459999998	taste	choicePhaseStart	1	13	13	foodImage.102	FOODEEG_Images\0910.jpg	YN	Left	Yes	2.32674459999998	0	224489	253
440.7734375	0	taste	response	1	13	13	foodImage.102	FOODEEG_Images\0910.jpg	YN	Left	Yes	2.32674459999998	0	225677	234
441.81640625	1	taste	trialStart	1	14	14	foodImage.9	FOODEEG_Images\0138.jpg	YN	Left	Yes	1.35268760000054	0	226211	251
442.875	2	taste	foodImageDisplay	1	14	14	foodImage.9	FOODEEG_Images\0138.jpg	YN	Left	Yes	1.35268760000054	0	226753	252
444.939453125	1.35268760000054	taste	choicePhaseStart	1	14	14	foodImage.9	FOODEEG_Images\0138.jpg	YN	Left	Yes	1.35268760000054	0	227810	253
446.28515625	0	taste	response	1	14	14	foodImage.9	FOODEEG_Images\0138.jpg	YN	Left	Yes	1.35268760000054	0	228499	234
447.328125	1	taste	trialStart	1	15	15	foodImage.26	FOODEEG_Images\0262.jpg	YN	Left	Yes	1.04575019999993	0	229033	251
448.369140625	2	taste	foodImageDisplay	1	15	15	foodImage.26	FOODEEG_Images\0262.jpg	YN	Left	Yes	1.04575019999993	0	229566	252
450.443359375	1.04575019999993	taste	choicePhaseStart	1	15	15	foodImage.26	FOODEEG_Images\0262.jpg	YN	Left	Yes	1.04575019999993	0	230628	253
451.484375	0	taste	response	1	15	15	foodImage.26	FOODEEG_Images\0262.jpg	YN	Left	Yes	1.04575019999993	0	231161	234
452.52734375	1	health	trialStart	1	16	16	foodImage.48	FOODEEG_Images\0494.jpg	YN	Right	No	1.11653500000011	0	231695	251
453.568359375	2	health	foodImageDisplay	1	16	16	foodImage.48	FOODEEG_Images\0494.jpg	YN	Right	No	1.11653500000011	0	232228	252
455.6328125	1.11653500000011	health	choicePhaseStart	1	16	16	foodImage.48	FOODEEG_Images\0494.jpg	YN	Right	No	1.11653500000011	0	233285	253
456.740234375	0	health	response	1	16	16	foodImage.48	FOODEEG_Images\0494.jpg	YN	Right	No	1.11653500000011	0	233852	235
457.78515625	1	health	trialStart	1	17	17	foodImage.93	FOODEEG_Images\0901.jpg	NY	Right	Yes	2.32566549999956	0	234387	251
458.82421875	2	health	foodImageDisplay	1	17	17	foodImage.93	FOODEEG_Images\0901.jpg	NY	Right	Yes	2.32566549999956	0	234919	252
460.88671875	2.32566549999956	health	choicePhaseStart	1	17	17	foodImage.93	FOODEEG_Images\0901.jpg	NY	Right	Yes	2.32566549999956	0	235975	253
463.203125	0	health	response	1	17	17	foodImage.93	FOODEEG_Images\0901.jpg	NY	Right	Yes	2.32566549999956	0	237161	235
464.248046875	1	health	trialStart	1	18	18	foodImage.70	FOODEEG_Images\0705.jpg	NY	Left	No	1.6013281000005	0	237696	251
465.30859375	2	health	foodImageDisplay	1	18	18	foodImage.70	FOODEEG_Images\0705.jpg	NY	Left	No	1.6013281000005	0	238239	252
467.376953125	1.6013281000005	health	choicePhaseStart	1	18	18	foodImage.70	FOODEEG_Images\0705.jpg	NY	Left	No	1.6013281000005	0	239298	253
468.970703125	0	health	response	1	18	18	foodImage.70	FOODEEG_Images\0705.jpg	NY	Left	No	1.6013281000005	0	240114	234
470.013671875	1	decision	trialStart	1	19	19	foodImage.43	FOODEEG_Images\0445.jpg	NY	Left	No	2.10737960000006	0	240648	251
471.08203125	2	decision	foodImageDisplay	1	19	19	foodImage.43	FOODEEG_Images\0445.jpg	NY	Left	No	2.10737960000006	0	241195	252
473.14453125	2.10737960000006	decision	choicePhaseStart	1	19	19	foodImage.43	FOODEEG_Images\0445.jpg	NY	Left	No	2.10737960000006	0	242251	253
475.244140625	0	decision	response	1	19	19	foodImage.43	FOODEEG_Images\0445.jpg	NY	Left	No	2.10737960000006	0	243326	234
476.283203125	1	decision	trialStart	1	20	20	foodImage.49	FOODEEG_Images\0515.jpg	NY	Right	Yes	0.931927599999653	0	243858	251
477.328125	2	decision	foodImageDisplay	1	20	20	foodImage.49	FOODEEG_Images\0515.jpg	NY	Right	Yes	0.931927599999653	0	244393	252
479.392578125	0.931927599999653	decision	choicePhaseStart	1	20	20	foodImage.49	FOODEEG_Images\0515.jpg	NY	Right	Yes	0.931927599999653	0	245450	253
480.314453125	0	decision	response	1	20	20	foodImage.49	FOODEEG_Images\0515.jpg	NY	Right	Yes	0.931927599999653	0	245922	235
481.357421875	1	taste	trialStart	1	21	21	foodImage.56	FOODEEG_Images\0586.jpg	NY	Right	Yes	1.20846729999994	0	246456	251
482.40234375	2	taste	foodImageDisplay	1	21	21	foodImage.56	FOODEEG_Images\0586.jpg	NY	Right	Yes	1.20846729999994	0	246991	252
484.466796875	1.20846729999994	taste	choicePhaseStart	1	21	21	foodImage.56	FOODEEG_Images\0586.jpg	NY	Right	Yes	1.20846729999994	0	248048	253
485.666015625	0	taste	response	1	21	21	foodImage.56	FOODEEG_Images\0586.jpg	NY	Right	Yes	1.20846729999994	0	248662	235
486.7109375	1	taste	trialStart	1	22	22	foodImage.113	FOODEEG_Images\0921.jpg	YN	Left	Yes	1.63083220000044	0	249197	251
487.748046875	2	taste	foodImageDisplay	1	22	22	foodImage.113	FOODEEG_Images\0921.jpg	YN	Left	Yes	1.63083220000044	0	249728	252
489.8125	1.63083220000044	taste	choicePhaseStart	1	22	22	foodImage.113	FOODEEG_Images\0921.jpg	YN	Left	Yes	1.63083220000044	0	250785	253
491.435546875	0	taste	response	1	22	22	foodImage.113	FOODEEG_Images\0921.jpg	YN	Left	Yes	1.63083220000044	0	251616	234
492.48046875	1	health	trialStart	1	23	23	foodImage.109	FOODEEG_Images\0917.jpg	NY	Left	No	2.17545729999983	0	252151	251
493.51953125	2	health	foodImageDisplay	1	23	23	foodImage.109	FOODEEG_Images\0917.jpg	NY	Left	No	2.17545729999983	0	252683	252
495.5859375	2.17545729999983	health	choicePhaseStart	1	23	23	foodImage.109	FOODEEG_Images\0917.jpg	NY	Left	No	2.17545729999983	0	253741	253
497.75390625	0	health	response	1	23	23	foodImage.109	FOODEEG_Images\0917.jpg	NY	Left	No	2.17545729999983	0	254851	234
498.798828125	1	health	trialStart	1	24	24	foodImage.69	FOODEEG_Images\0693.jpg	NY	Right	Yes	1.03010470000027	0	255386	251
499.841796875	2	health	foodImageDisplay	1	24	24	foodImage.69	FOODEEG_Images\0693.jpg	NY	Right	Yes	1.03010470000027	0	255920	252
501.91015625	1.03010470000027	health	choicePhaseStart	1	24	24	foodImage.69	FOODEEG_Images\0693.jpg	NY	Right	Yes	1.03010470000027	0	256979	253
502.9296875	0	health	response	1	24	24	foodImage.69	FOODEEG_Images\0693.jpg	NY	Right	Yes	1.03010470000027	0	257501	235
503.97265625	1	health	trialStart	1	25	25	foodImage.119	FOODEEG_Images\0927.jpg	NY	Left	No	1.87185929999941	0	258035	251
505.029296875	2	health	foodImageDisplay	1	25	25	foodImage.119	FOODEEG_Images\0927.jpg	NY	Left	No	1.87185929999941	0	258576	252
507.09765625	1.87185929999941	health	choicePhaseStart	1	25	25	foodImage.119	FOODEEG_Images\0927.jpg	NY	Left	No	1.87185929999941	0	259635	253
508.962890625	0	health	response	1	25	25	foodImage.119	FOODEEG_Images\0927.jpg	NY	Left	No	1.87185929999941	0	260590	234
510.00390625	1	decision	trialStart	1	26	26	foodImage.21	FOODEEG_Images\0234.jpg	NY	Right	Yes	0.954993000000286	0	261123	251
511.064453125	2	decision	foodImageDisplay	1	26	26	foodImage.21	FOODEEG_Images\0234.jpg	NY	Right	Yes	0.954993000000286	0	261666	252
513.134765625	0.954993000000286	decision	choicePhaseStart	1	26	26	foodImage.21	FOODEEG_Images\0234.jpg	NY	Right	Yes	0.954993000000286	0	262726	253
514.08203125	0	decision	response	1	26	26	foodImage.21	FOODEEG_Images\0234.jpg	NY	Right	Yes	0.954993000000286	0	263211	235
515.125	1	decision	trialStart	1	27	27	foodImage.61	FOODEEG_Images\0640.jpg	YN	Left	Yes	1.09768970000005	0	263745	251
516.169921875	2	decision	foodImageDisplay	1	27	27	foodImage.61	FOODEEG_Images\0640.jpg	YN	Left	Yes	1.09768970000005	0	264280	252
518.234375	1.09768970000005	decision	choicePhaseStart	1	27	27	foodImage.61	FOODEEG_Images\0640.jpg	YN	Left	Yes	1.09768970000005	0	265337	253
519.322265625	0	decision	response	1	27	27	foodImage.61	FOODEEG_Images\0640.jpg	YN	Left	Yes	1.09768970000005	0	265894	234
520.365234375	1	health	trialStart	1	28	28	foodImage.67	FOODEEG_Images\0679.jpg	YN	Left	Yes	3.89251080000031	0	266428	251
521.431640625	2	health	foodImageDisplay	1	28	28	foodImage.67	FOODEEG_Images\0679.jpg	YN	Left	Yes	3.89251080000031	0	266974	252
523.494140625	3.89251080000031	health	choicePhaseStart	1	28	28	foodImage.67	FOODEEG_Images\0679.jpg	YN	Left	Yes	3.89251080000031	0	268030	253
527.376953125	0	health	response	1	28	28	foodImage.67	FOODEEG_Images\0679.jpg	YN	Left	Yes	3.89251080000031	0	270018	234
528.419921875	1	health	trialStart	1	29	29	foodImage.20	FOODEEG_Images\0226.jpg	YN	Right	No	1.34363399999984	0	270552	251
529.46484375	2	health	foodImageDisplay	1	29	29	foodImage.20	FOODEEG_Images\0226.jpg	YN	Right	No	1.34363399999984	0	271087	252
531.53515625	1.34363399999984	health	choicePhaseStart	1	29	29	foodImage.20	FOODEEG_Images\0226.jpg	YN	Right	No	1.34363399999984	0	272147	253
532.873046875	0	health	response	1	29	29	foodImage.20	FOODEEG_Images\0226.jpg	YN	Right	No	1.34363399999984	0	272832	235
533.92578125	1	decision	trialStart	1	30	30	foodImage.120	FOODEEG_Images\0928.jpg	NY	Left	No	1.20286919999944	0	273371	251
534.96484375	2	decision	foodImageDisplay	1	30	30	foodImage.120	FOODEEG_Images\0928.jpg	NY	Left	No	1.20286919999944	0	273903	252
537.029296875	1.20286919999944	decision	choicePhaseStart	1	30	30	foodImage.120	FOODEEG_Images\0928.jpg	NY	Left	No	1.20286919999944	0	274960	253
538.224609375	0	decision	response	1	30	30	foodImage.120	FOODEEG_Images\0928.jpg	NY	Left	No	1.20286919999944	0	275572	234
539.267578125	1	health	trialStart	1	31	31	foodImage.89	FOODEEG_Images\0881.jpg	YN	Left	Yes	1.23995280000054	0	276106	251
540.322265625	2	health	foodImageDisplay	1	31	31	foodImage.89	FOODEEG_Images\0881.jpg	YN	Left	Yes	1.23995280000054	0	276646	252
542.38671875	1.23995280000054	health	choicePhaseStart	1	31	31	foodImage.89	FOODEEG_Images\0881.jpg	YN	Left	Yes	1.23995280000054	0	277703	253
543.6171875	0	health	response	1	31	31	foodImage.89	FOODEEG_Images\0881.jpg	YN	Left	Yes	1.23995280000054	0	278333	234
544.658203125	1	taste	trialStart	1	32	32	foodImage.114	FOODEEG_Images\0922.jpg	NY	Right	Yes	1.05183269999998	0	278866	251
545.697265625	2	taste	foodImageDisplay	1	32	32	foodImage.114	FOODEEG_Images\0922.jpg	NY	Right	Yes	1.05183269999998	0	279398	252
547.763671875	1.05183269999998	taste	choicePhaseStart	1	32	32	foodImage.114	FOODEEG_Images\0922.jpg	NY	Right	Yes	1.05183269999998	0	280456	253
548.80859375	0	taste	response	1	32	32	foodImage.114	FOODEEG_Images\0922.jpg	NY	Right	Yes	1.05183269999998	0	280991	235
549.857421875	1	taste	trialStart	1	33	33	foodImage.71	FOODEEG_Images\0713.jpg	NY	Right	Yes	1.31556660000024	0	281528	251
550.904296875	2	taste	foodImageDisplay	1	33	33	foodImage.71	FOODEEG_Images\0713.jpg	NY	Right	Yes	1.31556660000024	0	282064	252
552.97265625	1.31556660000024	taste	choicePhaseStart	1	33	33	foodImage.71	FOODEEG_Images\0713.jpg	NY	Right	Yes	1.31556660000024	0	283123	253
554.28125	0	taste	response	1	33	33	foodImage.71	FOODEEG_Images\0713.jpg	NY	Right	Yes	1.31556660000024	0	283793	235
555.32421875	1	taste	trialStart	1	34	34	foodImage.95	FOODEEG_Images\0903.jpg	YN	Left	Yes	1.14665010000044	0	284327	251
556.37890625	2	taste	foodImageDisplay	1	34	34	foodImage.95	FOODEEG_Images\0903.jpg	YN	Left	Yes	1.14665010000044	0	284867	252
558.443359375	1.14665010000044	taste	choicePhaseStart	1	34	34	foodImage.95	FOODEEG_Images\0903.jpg	YN	Left	Yes	1.14665010000044	0	285924	253
559.583984375	0	taste	response	1	34	34	foodImage.95	FOODEEG_Images\0903.jpg	YN	Left	Yes	1.14665010000044	0	286508	234
560.62890625	1	decision	trialStart	1	35	35	foodImage.36	FOODEEG_Images\0352.jpg	YN	Left	Yes	1.12520979999954	0	287043	251
561.693359375	2	decision	foodImageDisplay	1	35	35	foodImage.36	FOODEEG_Images\0352.jpg	YN	Left	Yes	1.12520979999954	0	287588	252
563.76171875	1.12520979999954	decision	choicePhaseStart	1	35	35	foodImage.36	FOODEEG_Images\0352.jpg	YN	Left	Yes	1.12520979999954	0	288647	253
564.880859375	0	decision	response	1	35	35	foodImage.36	FOODEEG_Images\0352.jpg	YN	Left	Yes	1.12520979999954	0	289220	234
565.921875	1	taste	trialStart	1	36	36	foodImage.14	FOODEEG_Images\0188.jpg	YN	Left	Yes	1.01455110000006	0	289753	251
567.00390625	2	taste	foodImageDisplay	1	36	36	foodImage.14	FOODEEG_Images\0188.jpg	YN	Left	Yes	1.01455110000006	0	290307	252
569.072265625	1.01455110000006	taste	choicePhaseStart	1	36	36	foodImage.14	FOODEEG_Images\0188.jpg	YN	Left	Yes	1.01455110000006	0	291366	253
570.080078125	0	taste	response	1	36	36	foodImage.14	FOODEEG_Images\0188.jpg	YN	Left	Yes	1.01455110000006	0	291882	234
571.123046875	1	decision	trialStart	1	37	37	foodImage.50	FOODEEG_Images\0529.jpg	YN	Left	Yes	1.17074990000037	0	292416	251
572.181640625	2	decision	foodImageDisplay	1	37	37	foodImage.50	FOODEEG_Images\0529.jpg	YN	Left	Yes	1.17074990000037	0	292958	252
574.24609375	1.17074990000037	decision	choicePhaseStart	1	37	37	foodImage.50	FOODEEG_Images\0529.jpg	YN	Left	Yes	1.17074990000037	0	294015	253
575.40625	0	decision	response	1	37	37	foodImage.50	FOODEEG_Images\0529.jpg	YN	Left	Yes	1.17074990000037	0	294609	234
576.44921875	1	decision	trialStart	1	38	38	foodImage.58	FOODEEG_Images\0605.jpg	YN	Left	Yes	1.04772689999936	0	295143	251
577.5078125	2	decision	foodImageDisplay	1	38	38	foodImage.58	FOODEEG_Images\0605.jpg	YN	Left	Yes	1.04772689999936	0	295685	252
579.57421875	1.04772689999936	decision	choicePhaseStart	1	38	38	foodImage.58	FOODEEG_Images\0605.jpg	YN	Left	Yes	1.04772689999936	0	296743	253
580.615234375	0	decision	response	1	38	38	foodImage.58	FOODEEG_Images\0605.jpg	YN	Left	Yes	1.04772689999936	0	297276	234
581.658203125	1	taste	trialStart	1	39	39	foodImage.32	FOODEEG_Images\0319.jpg	YN	Left	Yes	0.97560009999961	0	297810	251
582.705078125	2	taste	foodImageDisplay	1	39	39	foodImage.32	FOODEEG_Images\0319.jpg	YN	Left	Yes	0.97560009999961	0	298346	252
584.7734375	0.97560009999961	taste	choicePhaseStart	1	39	39	foodImage.32	FOODEEG_Images\0319.jpg	YN	Left	Yes	0.97560009999961	0	299405	253
585.744140625	0	taste	response	1	39	39	foodImage.32	FOODEEG_Images\0319.jpg	YN	Left	Yes	0.97560009999961	0	299902	234
586.787109375	1	taste	trialStart	1	40	40	foodImage.47	FOODEEG_Images\0488.jpg	YN	Left	Yes	0.98021079999944	0	300436	251
587.830078125	2	taste	foodImageDisplay	1	40	40	foodImage.47	FOODEEG_Images\0488.jpg	YN	Left	Yes	0.98021079999944	0	300970	252
589.900390625	0.98021079999944	taste	choicePhaseStart	1	40	40	foodImage.47	FOODEEG_Images\0488.jpg	YN	Left	Yes	0.98021079999944	0	302030	253
590.87109375	0	taste	response	1	40	40	foodImage.47	FOODEEG_Images\0488.jpg	YN	Left	Yes	0.98021079999944	0	302527	234
591.912109375	1	health	trialStart	1	41	41	foodImage.37	FOODEEG_Images\0359.jpg	NY	Right	Yes	1.19273020000037	0	303060	251
592.95703125	2	health	foodImageDisplay	1	41	41	foodImage.37	FOODEEG_Images\0359.jpg	NY	Right	Yes	1.19273020000037	0	303595	252
595.021484375	1.19273020000037	health	choicePhaseStart	1	41	41	foodImage.37	FOODEEG_Images\0359.jpg	NY	Right	Yes	1.19273020000037	0	304652	253
596.20703125	0	health	response	1	41	41	foodImage.37	FOODEEG_Images\0359.jpg	NY	Right	Yes	1.19273020000037	0	305259	235
597.25	1	taste	trialStart	1	42	42	foodImage.31	FOODEEG_Images\0294.jpg	NY	Right	Yes	1.29564750000009	0	305793	251
598.3046875	2	taste	foodImageDisplay	1	42	42	foodImage.31	FOODEEG_Images\0294.jpg	NY	Right	Yes	1.29564750000009	0	306333	252
600.373046875	1.29564750000009	taste	choicePhaseStart	1	42	42	foodImage.31	FOODEEG_Images\0294.jpg	NY	Right	Yes	1.29564750000009	0	307392	253
601.662109375	0	taste	response	1	42	42	foodImage.31	FOODEEG_Images\0294.jpg	NY	Right	Yes	1.29564750000009	0	308052	235
602.70703125	1	decision	trialStart	1	43	43	foodImage.56	FOODEEG_Images\0586.jpg	NY	Left	No	2.22598579999976	0	308587	251
603.75	2	decision	foodImageDisplay	1	43	43	foodImage.56	FOODEEG_Images\0586.jpg	NY	Left	No	2.22598579999976	0	309121	252
605.8125	2.22598579999976	decision	choicePhaseStart	1	43	43	foodImage.56	FOODEEG_Images\0586.jpg	NY	Left	No	2.22598579999976	0	310177	253
608.029296875	0	decision	response	1	43	43	foodImage.56	FOODEEG_Images\0586.jpg	NY	Left	No	2.22598579999976	0	311312	234
609.072265625	1	health	trialStart	1	44	44	foodImage.112	FOODEEG_Images\0920.jpg	NY	Right	Yes	2.0642600000001	0	311846	251
610.1171875	2	health	foodImageDisplay	1	44	44	foodImage.112	FOODEEG_Images\0920.jpg	NY	Right	Yes	2.0642600000001	0	312381	252
612.1796875	2.0642600000001	health	choicePhaseStart	1	44	44	foodImage.112	FOODEEG_Images\0920.jpg	NY	Right	Yes	2.0642600000001	0	313437	253
614.23828125	0	health	response	1	44	44	foodImage.112	FOODEEG_Images\0920.jpg	NY	Right	Yes	2.0642600000001	0	314491	235
615.28125	1	health	trialStart	1	45	45	foodImage.87	FOODEEG_Images\0873.jpg	YN	Left	Yes	1.2900811999998	0	315025	251
616.33984375	2	health	foodImageDisplay	1	45	45	foodImage.87	FOODEEG_Images\0873.jpg	YN	Left	Yes	1.2900811999998	0	315567	252
618.40625	1.2900811999998	health	choicePhaseStart	1	45	45	foodImage.87	FOODEEG_Images\0873.jpg	YN	Left	Yes	1.2900811999998	0	316625	253
619.685546875	0	health	response	1	45	45	foodImage.87	FOODEEG_Images\0873.jpg	YN	Left	Yes	1.2900811999998	0	317280	234
620.728515625	1	health	trialStart	1	46	46	foodImage.43	FOODEEG_Images\0445.jpg	NY	Right	Yes	1.18268230000012	0	317814	251
621.78515625	2	health	foodImageDisplay	1	46	46	foodImage.43	FOODEEG_Images\0445.jpg	NY	Right	Yes	1.18268230000012	0	318355	252
623.84765625	1.18268230000012	health	choicePhaseStart	1	46	46	foodImage.43	FOODEEG_Images\0445.jpg	NY	Right	Yes	1.18268230000012	0	319411	253
625.021484375	0	health	response	1	46	46	foodImage.43	FOODEEG_Images\0445.jpg	NY	Right	Yes	1.18268230000012	0	320012	235
626.0625	1	health	trialStart	1	47	47	foodImage.72	FOODEEG_Images\0714.jpg	YN	Left	Yes	1.86814389999927	0	320545	251
627.107421875	2	health	foodImageDisplay	1	47	47	foodImage.72	FOODEEG_Images\0714.jpg	YN	Left	Yes	1.86814389999927	0	321080	252
629.169921875	1.86814389999927	health	choicePhaseStart	1	47	47	foodImage.72	FOODEEG_Images\0714.jpg	YN	Left	Yes	1.86814389999927	0	322136	253
631.029296875	0	health	response	1	47	47	foodImage.72	FOODEEG_Images\0714.jpg	YN	Left	Yes	1.86814389999927	0	323088	234
632.072265625	1	health	trialStart	1	48	48	foodImage.15	FOODEEG_Images\0189.jpg	NY	Left	No	1.41419289999976	0	323622	251
633.1328125	2	health	foodImageDisplay	1	48	48	foodImage.15	FOODEEG_Images\0189.jpg	NY	Left	No	1.41419289999976	0	324165	252
635.19921875	1.41419289999976	health	choicePhaseStart	1	48	48	foodImage.15	FOODEEG_Images\0189.jpg	NY	Left	No	1.41419289999976	0	325223	253
636.60546875	0	health	response	1	48	48	foodImage.15	FOODEEG_Images\0189.jpg	NY	Left	No	1.41419289999976	0	325943	234
637.650390625	1	decision	trialStart	1	49	49	foodImage.105	FOODEEG_Images\0913.jpg	NY	Right	Yes	1.5350854999997	0	326478	251
638.689453125	2	decision	foodImageDisplay	1	49	49	foodImage.105	FOODEEG_Images\0913.jpg	NY	Right	Yes	1.5350854999997	0	327010	252
640.7578125	1.5350854999997	decision	choicePhaseStart	1	49	49	foodImage.105	FOODEEG_Images\0913.jpg	NY	Right	Yes	1.5350854999997	0	328069	253
642.28515625	0	decision	response	1	49	49	foodImage.105	FOODEEG_Images\0913.jpg	NY	Right	Yes	1.5350854999997	0	328851	235
643.328125	1	decision	trialStart	1	50	50	foodImage.64	FOODEEG_Images\0647.jpg	YN	Left	Yes	1.19225290000031	0	329385	251
644.404296875	2	decision	foodImageDisplay	1	50	50	foodImage.64	FOODEEG_Images\0647.jpg	YN	Left	Yes	1.19225290000031	0	329936	252
646.470703125	1.19225290000031	decision	choicePhaseStart	1	50	50	foodImage.64	FOODEEG_Images\0647.jpg	YN	Left	Yes	1.19225290000031	0	330994	253
647.65234375	0	decision	response	1	50	50	foodImage.64	FOODEEG_Images\0647.jpg	YN	Left	Yes	1.19225290000031	0	331599	234
648.6953125	1	taste	trialStart	1	51	51	foodImage.19	FOODEEG_Images\0225.jpg	YN	Left	Yes	1.77108089999911	0	332133	251
649.73828125	2	taste	foodImageDisplay	1	51	51	foodImage.19	FOODEEG_Images\0225.jpg	YN	Left	Yes	1.77108089999911	0	332667	252
651.80859375	1.77108089999911	taste	choicePhaseStart	1	51	51	foodImage.19	FOODEEG_Images\0225.jpg	YN	Left	Yes	1.77108089999911	0	333727	253
653.572265625	0	taste	response	1	51	51	foodImage.19	FOODEEG_Images\0225.jpg	YN	Left	Yes	1.77108089999911	0	334630	234
654.615234375	1	taste	trialStart	1	52	52	foodImage.76	FOODEEG_Images\0766.jpg	YN	Right	No	1.7281952000003	0	335164	251
655.66015625	2	taste	foodImageDisplay	1	52	52	foodImage.76	FOODEEG_Images\0766.jpg	YN	Right	No	1.7281952000003	0	335699	252
657.724609375	1.7281952000003	taste	choicePhaseStart	1	52	52	foodImage.76	FOODEEG_Images\0766.jpg	YN	Right	No	1.7281952000003	0	336756	253
659.443359375	0	taste	response	1	52	52	foodImage.76	FOODEEG_Images\0766.jpg	YN	Right	No	1.7281952000003	0	337636	235
660.486328125	1	decision	trialStart	1	53	53	foodImage.57	FOODEEG_Images\0587.jpg	YN	Left	Yes	1.01082990000032	0	338170	251
661.53125	2	decision	foodImageDisplay	1	53	53	foodImage.57	FOODEEG_Images\0587.jpg	YN	Left	Yes	1.01082990000032	0	338705	252
663.599609375	1.01082990000032	decision	choicePhaseStart	1	53	53	foodImage.57	FOODEEG_Images\0587.jpg	YN	Left	Yes	1.01082990000032	0	339764	253
664.603515625	0	decision	response	1	53	53	foodImage.57	FOODEEG_Images\0587.jpg	YN	Left	Yes	1.01082990000032	0	340278	234
665.646484375	1	health	trialStart	1	54	54	foodImage.5	FOODEEG_Images\0107.jpg	NY	Left	No	1.22689650000029	0	340812	251
666.705078125	2	health	foodImageDisplay	1	54	54	foodImage.5	FOODEEG_Images\0107.jpg	NY	Left	No	1.22689650000029	0	341354	252
668.76953125	1.22689650000029	health	choicePhaseStart	1	54	54	foodImage.5	FOODEEG_Images\0107.jpg	NY	Left	No	1.22689650000029	0	342411	253
669.98828125	0	health	response	1	54	54	foodImage.5	FOODEEG_Images\0107.jpg	NY	Left	No	1.22689650000029	0	343035	234
671.03125	1	decision	trialStart	1	55	55	foodImage.24	FOODEEG_Images\0250.jpg	YN	Left	Yes	1.48769389999961	0	343569	251
672.07421875	2	decision	foodImageDisplay	1	55	55	foodImage.24	FOODEEG_Images\0250.jpg	YN	Left	Yes	1.48769389999961	0	344103	252
674.138671875	1.48769389999961	decision	choicePhaseStart	1	55	55	foodImage.24	FOODEEG_Images\0250.jpg	YN	Left	Yes	1.48769389999961	0	345160	253
675.619140625	0	decision	response	1	55	55	foodImage.24	FOODEEG_Images\0250.jpg	YN	Left	Yes	1.48769389999961	0	345918	234
676.662109375	1	taste	trialStart	1	56	56	foodImage.61	FOODEEG_Images\0640.jpg	YN	Left	Yes	2.45969299999979	0	346452	251
677.705078125	2	taste	foodImageDisplay	1	56	56	foodImage.61	FOODEEG_Images\0640.jpg	YN	Left	Yes	2.45969299999979	0	346986	252
679.775390625	2.45969299999979	taste	choicePhaseStart	1	56	56	foodImage.61	FOODEEG_Images\0640.jpg	YN	Left	Yes	2.45969299999979	0	348046	253
682.2265625	0	taste	response	1	56	56	foodImage.61	FOODEEG_Images\0640.jpg	YN	Left	Yes	2.45969299999979	0	349301	234
683.26953125	1	health	trialStart	1	57	57	foodImage.81	FOODEEG_Images\0797.jpg	YN	Left	Yes	1.18896099999984	0	349835	251
684.328125	2	health	foodImageDisplay	1	57	57	foodImage.81	FOODEEG_Images\0797.jpg	YN	Left	Yes	1.18896099999984	0	350377	252
686.396484375	1.18896099999984	health	choicePhaseStart	1	57	57	foodImage.81	FOODEEG_Images\0797.jpg	YN	Left	Yes	1.18896099999984	0	351436	253
687.578125	0	health	response	1	57	57	foodImage.81	FOODEEG_Images\0797.jpg	YN	Left	Yes	1.18896099999984	0	352041	234
688.62109375	1	health	trialStart	1	58	58	foodImage.38	FOODEEG_Images\0365.jpg	YN	Left	Yes	1.19199740000022	0	352575	251
689.662109375	2	health	foodImageDisplay	1	58	58	foodImage.38	FOODEEG_Images\0365.jpg	YN	Left	Yes	1.19199740000022	0	353108	252
691.724609375	1.19199740000022	health	choicePhaseStart	1	58	58	foodImage.38	FOODEEG_Images\0365.jpg	YN	Left	Yes	1.19199740000022	0	354164	253
692.908203125	0	health	response	1	58	58	foodImage.38	FOODEEG_Images\0365.jpg	YN	Left	Yes	1.19199740000022	0	354770	234
693.951171875	1	taste	trialStart	1	59	59	foodImage.18	FOODEEG_Images\0202.jpg	YN	Left	Yes	1.18105450000076	0	355304	251
695.01171875	2	taste	foodImageDisplay	1	59	59	foodImage.18	FOODEEG_Images\0202.jpg	YN	Left	Yes	1.18105450000076	0	355847	252
697.078125	1.18105450000076	taste	choicePhaseStart	1	59	59	foodImage.18	FOODEEG_Images\0202.jpg	YN	Left	Yes	1.18105450000076	0	356905	253
698.25	0	taste	response	1	59	59	foodImage.18	FOODEEG_Images\0202.jpg	YN	Left	Yes	1.18105450000076	0	357505	234
699.29296875	1	taste	trialStart	1	60	60	foodImage.45	FOODEEG_Images\0478.jpg	NY	Right	Yes	1.30760529999952	0	358039	251
700.33984375	2	taste	foodImageDisplay	1	60	60	foodImage.45	FOODEEG_Images\0478.jpg	NY	Right	Yes	1.30760529999952	0	358575	252
702.408203125	1.30760529999952	taste	choicePhaseStart	1	60	60	foodImage.45	FOODEEG_Images\0478.jpg	NY	Right	Yes	1.30760529999952	0	359634	253
703.70703125	0	taste	response	1	60	60	foodImage.45	FOODEEG_Images\0478.jpg	NY	Right	Yes	1.30760529999952	0	360299	235
705.748046875	11.734375	n/a	blockEnd	n/a	n/a	n/a	n/a	n/a	n/a	n/a	n/a	n/a	n/a	361344	254
717.482421875	2	n/a	blockStart	2	n/a	n/a	n/a	n/a	n/a	n/a	n/a	n/a	n/a	367352	250
719.513671875	1	taste	trialStart	2	61	1	foodImage.36	FOODEEG_Images\0352.jpg	NY	Right	Yes	1.6249428000001	0	368392	251
720.57421875	2	taste	foodImageDisplay	2	61	1	foodImage.36	FOODEEG_Images\0352.jpg	NY	Right	Yes	1.6249428000001	0	368935	252
722.63671875	1.6249428000001	taste	choicePhaseStart	2	61	1	foodImage.36	FOODEEG_Images\0352.jpg	NY	Right	Yes	1.6249428000001	0	369991	253
724.2578125	0	taste	response	2	61	1	foodImage.36	FOODEEG_Images\0352.jpg	NY	Right	Yes	1.6249428000001	0	370821	235
725.30078125	1	decision	trialStart	2	62	2	foodImage.42	FOODEEG_Images\0438.jpg	YN	Left	Yes	1.6916297000007	0	371355	251
726.3984375	2	decision	foodImageDisplay	2	62	2	foodImage.42	FOODEEG_Images\0438.jpg	YN	Left	Yes	1.6916297000007	0	371917	252
728.462890625	1.6916297000007	decision	choicePhaseStart	2	62	2	foodImage.42	FOODEEG_Images\0438.jpg	YN	Left	Yes	1.6916297000007	0	372974	253
730.14453125	0	decision	response	2	62	2	foodImage.42	FOODEEG_Images\0438.jpg	YN	Left	Yes	1.6916297000007	0	373835	234
731.1875	1	health	trialStart	2	63	3	foodImage.63	FOODEEG_Images\0645.jpg	NY	Left	No	3.19387300000017	0	374369	251
732.232421875	2	health	foodImageDisplay	2	63	3	foodImage.63	FOODEEG_Images\0645.jpg	NY	Left	No	3.19387300000017	0	374904	252
734.296875	3.19387300000017	health	choicePhaseStart	2	63	3	foodImage.63	FOODEEG_Images\0645.jpg	NY	Left	No	3.19387300000017	0	375961	253
737.48046875	0	health	response	2	63	3	foodImage.63	FOODEEG_Images\0645.jpg	NY	Left	No	3.19387300000017	0	377591	234
738.5234375	1	health	trialStart	2	64	4	foodImage.46	FOODEEG_Images\0479.jpg	YN	Left	Yes	1.26762930000041	0	378125	251
739.583984375	2	health	foodImageDisplay	2	64	4	foodImage.46	FOODEEG_Images\0479.jpg	YN	Left	Yes	1.26762930000041	0	378668	252
741.65234375	1.26762930000041	health	choicePhaseStart	2	64	4	foodImage.46	FOODEEG_Images\0479.jpg	YN	Left	Yes	1.26762930000041	0	379727	253
742.912109375	0	health	response	2	64	4	foodImage.46	FOODEEG_Images\0479.jpg	YN	Left	Yes	1.26762930000041	0	380372	234
743.955078125	1	taste	trialStart	2	65	5	foodImage.38	FOODEEG_Images\0365.jpg	YN	Left	Yes	1.21959369999968	0	380906	251
744.994140625	2	taste	foodImageDisplay	2	65	5	foodImage.38	FOODEEG_Images\0365.jpg	YN	Left	Yes	1.21959369999968	0	381438	252
747.0625	1.21959369999968	taste	choicePhaseStart	2	65	5	foodImage.38	FOODEEG_Images\0365.jpg	YN	Left	Yes	1.21959369999968	0	382497	253
748.2734375	0	taste	response	2	65	5	foodImage.38	FOODEEG_Images\0365.jpg	YN	Left	Yes	1.21959369999968	0	383117	234
749.314453125	1	decision	trialStart	2	66	6	foodImage.75	FOODEEG_Images\0763.jpg	YN	Left	Yes	1.36412570000084	0	383650	251
750.361328125	2	decision	foodImageDisplay	2	66	6	foodImage.75	FOODEEG_Images\0763.jpg	YN	Left	Yes	1.36412570000084	0	384186	252
752.435546875	1.36412570000084	decision	choicePhaseStart	2	66	6	foodImage.75	FOODEEG_Images\0763.jpg	YN	Left	Yes	1.36412570000084	0	385248	253
753.79296875	0	decision	response	2	66	6	foodImage.75	FOODEEG_Images\0763.jpg	YN	Left	Yes	1.36412570000084	0	385943	234
754.8359375	1	decision	trialStart	2	67	7	foodImage.73	FOODEEG_Images\0717.jpg	YN	Left	Yes	1.07569960000001	0	386477	251
755.89453125	2	decision	foodImageDisplay	2	67	7	foodImage.73	FOODEEG_Images\0717.jpg	YN	Left	Yes	1.07569960000001	0	387019	252
757.962890625	1.07569960000001	decision	choicePhaseStart	2	67	7	foodImage.73	FOODEEG_Images\0717.jpg	YN	Left	Yes	1.07569960000001	0	388078	253
759.033203125	0	decision	response	2	67	7	foodImage.73	FOODEEG_Images\0717.jpg	YN	Left	Yes	1.07569960000001	0	388626	234
760.07421875	1	decision	trialStart	2	68	8	foodImage.47	FOODEEG_Images\0488.jpg	YN	Left	Yes	1.10388969999985	0	389159	251
761.1171875	2	decision	foodImageDisplay	2	68	8	foodImage.47	FOODEEG_Images\0488.jpg	YN	Left	Yes	1.10388969999985	0	389693	252
763.185546875	1.10388969999985	decision	choicePhaseStart	2	68	8	foodImage.47	FOODEEG_Images\0488.jpg	YN	Left	Yes	1.10388969999985	0	390752	253
764.279296875	0	decision	response	2	68	8	foodImage.47	FOODEEG_Images\0488.jpg	YN	Left	Yes	1.10388969999985	0	391312	234
765.32421875	1	health	trialStart	2	69	9	foodImage.94	FOODEEG_Images\0902.jpg	NY	Right	Yes	1.67137959999945	0	391847	251
766.36328125	2	health	foodImageDisplay	2	69	9	foodImage.94	FOODEEG_Images\0902.jpg	NY	Right	Yes	1.67137959999945	0	392379	252
768.431640625	1.67137959999945	health	choicePhaseStart	2	69	9	foodImage.94	FOODEEG_Images\0902.jpg	NY	Right	Yes	1.67137959999945	0	393438	253
770.095703125	0	health	response	2	69	9	foodImage.94	FOODEEG_Images\0902.jpg	NY	Right	Yes	1.67137959999945	0	394290	235
771.138671875	1	taste	trialStart	2	70	10	foodImage.111	FOODEEG_Images\0919.jpg	NY	Right	Yes	1.6011054999999	0	394824	251
772.177734375	2	taste	foodImageDisplay	2	70	10	foodImage.111	FOODEEG_Images\0919.jpg	NY	Right	Yes	1.6011054999999	0	395356	252
774.24609375	1.6011054999999	taste	choicePhaseStart	2	70	10	foodImage.111	FOODEEG_Images\0919.jpg	NY	Right	Yes	1.6011054999999	0	396415	253
775.83984375	0	taste	response	2	70	10	foodImage.111	FOODEEG_Images\0919.jpg	NY	Right	Yes	1.6011054999999	0	397231	235
776.8828125	1	taste	trialStart	2	71	11	foodImage.86	FOODEEG_Images\0844.jpg	NY	Right	Yes	0.879987399999663	0	397765	251
777.943359375	2	taste	foodImageDisplay	2	71	11	foodImage.86	FOODEEG_Images\0844.jpg	NY	Right	Yes	0.879987399999663	0	398308	252
780.013671875	0.879987399999663	taste	choicePhaseStart	2	71	11	foodImage.86	FOODEEG_Images\0844.jpg	NY	Right	Yes	0.879987399999663	0	399368	253
780.88671875	0	taste	response	2	71	11	foodImage.86	FOODEEG_Images\0844.jpg	NY	Right	Yes	0.879987399999663	0	399815	235
781.9296875	1	decision	trialStart	2	72	12	foodImage.35	FOODEEG_Images\0350.jpg	YN	Left	Yes	1.12654389999989	0	400349	251
782.970703125	2	decision	foodImageDisplay	2	72	12	foodImage.35	FOODEEG_Images\0350.jpg	YN	Left	Yes	1.12654389999989	0	400882	252
785.033203125	1.12654389999989	decision	choicePhaseStart	2	72	12	foodImage.35	FOODEEG_Images\0350.jpg	YN	Left	Yes	1.12654389999989	0	401938	253
786.150390625	0	decision	response	2	72	12	foodImage.35	FOODEEG_Images\0350.jpg	YN	Left	Yes	1.12654389999989	0	402510	234
787.193359375	1	health	trialStart	2	73	13	foodImage.64	FOODEEG_Images\0647.jpg	NY	Right	Yes	1.04031980000036	0	403044	251
788.25390625	2	health	foodImageDisplay	2	73	13	foodImage.64	FOODEEG_Images\0647.jpg	NY	Right	Yes	1.04031980000036	0	403587	252
790.31640625	1.04031980000036	health	choicePhaseStart	2	73	13	foodImage.64	FOODEEG_Images\0647.jpg	NY	Right	Yes	1.04031980000036	0	404643	253
791.3515625	0	health	response	2	73	13	foodImage.64	FOODEEG_Images\0647.jpg	NY	Right	Yes	1.04031980000036	0	405173	235
792.39453125	1	taste	trialStart	2	74	14	foodImage.69	FOODEEG_Images\0693.jpg	NY	Right	Yes	3.16547640000044	0	405707	251
793.435546875	2	taste	foodImageDisplay	2	74	14	foodImage.69	FOODEEG_Images\0693.jpg	NY	Right	Yes	3.16547640000044	0	406240	252
795.50390625	3.16547640000044	taste	choicePhaseStart	2	74	14	foodImage.69	FOODEEG_Images\0693.jpg	NY	Right	Yes	3.16547640000044	0	407299	253
798.662109375	0	taste	response	2	74	14	foodImage.69	FOODEEG_Images\0693.jpg	NY	Right	Yes	3.16547640000044	0	408916	235
799.705078125	1	decision	trialStart	2	75	15	foodImage.48	FOODEEG_Images\0494.jpg	YN	Left	Yes	1.21773459999986	0	409450	251
800.75	2	decision	foodImageDisplay	2	75	15	foodImage.48	FOODEEG_Images\0494.jpg	YN	Left	Yes	1.21773459999986	0	409985	252
802.818359375	1.21773459999986	decision	choicePhaseStart	2	75	15	foodImage.48	FOODEEG_Images\0494.jpg	YN	Left	Yes	1.21773459999986	0	411044	253
804.029296875	0	decision	response	2	75	15	foodImage.48	FOODEEG_Images\0494.jpg	YN	Left	Yes	1.21773459999986	0	411664	234
805.07421875	1	taste	trialStart	2	76	16	foodImage.1	FOODEEG_Images\0004.jpg	YN	Left	Yes	1.08921999999984	0	412199	251
806.115234375	2	taste	foodImageDisplay	2	76	16	foodImage.1	FOODEEG_Images\0004.jpg	YN	Left	Yes	1.08921999999984	0	412732	252
808.181640625	1.08921999999984	taste	choicePhaseStart	2	76	16	foodImage.1	FOODEEG_Images\0004.jpg	YN	Left	Yes	1.08921999999984	0	413790	253
809.26171875	0	taste	response	2	76	16	foodImage.1	FOODEEG_Images\0004.jpg	YN	Left	Yes	1.08921999999984	0	414343	234
810.3046875	1	taste	trialStart	2	77	17	foodImage.29	FOODEEG_Images\0278.jpg	YN	Left	Yes	1.82886159999998	0	414877	251
811.34765625	2	taste	foodImageDisplay	2	77	17	foodImage.29	FOODEEG_Images\0278.jpg	YN	Left	Yes	1.82886159999998	0	415411	252
813.41796875	1.82886159999998	taste	choicePhaseStart	2	77	17	foodImage.29	FOODEEG_Images\0278.jpg	YN	Left	Yes	1.82886159999998	0	416471	253
815.23828125	0	taste	response	2	77	17	foodImage.29	FOODEEG_Images\0278.jpg	YN	Left	Yes	1.82886159999998	0	417403	234
816.28125	1	taste	trialStart	2	78	18	foodImage.40	FOODEEG_Images\0373.jpg	YN	Left	Yes	1.19169539999984	0	417937	251
817.3359375	2	taste	foodImageDisplay	2	78	18	foodImage.40	FOODEEG_Images\0373.jpg	YN	Left	Yes	1.19169539999984	0	418477	252
819.404296875	1.19169539999984	taste	choicePhaseStart	2	78	18	foodImage.40	FOODEEG_Images\0373.jpg	YN	Left	Yes	1.19169539999984	0	419536	253
820.58984375	0	taste	response	2	78	18	foodImage.40	FOODEEG_Images\0373.jpg	YN	Left	Yes	1.19169539999984	0	420143	234
821.6328125	1	decision	trialStart	2	79	19	foodImage.95	FOODEEG_Images\0903.jpg	YN	Left	Yes	1.36083449999933	0	420677	251
822.671875	2	decision	foodImageDisplay	2	79	19	foodImage.95	FOODEEG_Images\0903.jpg	YN	Left	Yes	1.36083449999933	0	421209	252
824.740234375	1.36083449999933	decision	choicePhaseStart	2	79	19	foodImage.95	FOODEEG_Images\0903.jpg	YN	Left	Yes	1.36083449999933	0	422268	253
826.09375	0	decision	response	2	79	19	foodImage.95	FOODEEG_Images\0903.jpg	YN	Left	Yes	1.36083449999933	0	422961	234
827.13671875	1	health	trialStart	2	80	20	foodImage.26	FOODEEG_Images\0262.jpg	NY	Right	Yes	1.14549689999967	0	423495	251
828.193359375	2	health	foodImageDisplay	2	80	20	foodImage.26	FOODEEG_Images\0262.jpg	NY	Right	Yes	1.14549689999967	0	424036	252
830.259765625	1.14549689999967	health	choicePhaseStart	2	80	20	foodImage.26	FOODEEG_Images\0262.jpg	NY	Right	Yes	1.14549689999967	0	425094	253
831.3984375	0	health	response	2	80	20	foodImage.26	FOODEEG_Images\0262.jpg	NY	Right	Yes	1.14549689999967	0	425677	235
832.439453125	1	health	trialStart	2	81	21	foodImage.106	FOODEEG_Images\0914.jpg	NY	Right	Yes	3.10237959999995	0	426210	251
833.478515625	2	health	foodImageDisplay	2	81	21	foodImage.106	FOODEEG_Images\0914.jpg	NY	Right	Yes	3.10237959999995	0	426742	252
835.54296875	3.10237959999995	health	choicePhaseStart	2	81	21	foodImage.106	FOODEEG_Images\0914.jpg	NY	Right	Yes	3.10237959999995	0	427799	253
838.63671875	0	health	response	2	81	21	foodImage.106	FOODEEG_Images\0914.jpg	NY	Right	Yes	3.10237959999995	0	429383	235
839.6796875	1	health	trialStart	2	82	22	foodImage.115	FOODEEG_Images\0923.jpg	NY	Left	No	2.32036499999958	0	429917	251
840.71875	2	health	foodImageDisplay	2	82	22	foodImage.115	FOODEEG_Images\0923.jpg	NY	Left	No	2.32036499999958	0	430449	252
842.787109375	2.32036499999958	health	choicePhaseStart	2	82	22	foodImage.115	FOODEEG_Images\0923.jpg	NY	Left	No	2.32036499999958	0	431508	253
845.1015625	0	health	response	2	82	22	foodImage.115	FOODEEG_Images\0923.jpg	NY	Left	No	2.32036499999958	0	432693	234
846.142578125	1	decision	trialStart	2	83	23	foodImage.92	FOODEEG_Images\0900.jpg	NY	Left	No	1.30814519999967	0	433226	251
847.18359375	2	decision	foodImageDisplay	2	83	23	foodImage.92	FOODEEG_Images\0900.jpg	NY	Left	No	1.30814519999967	0	433759	252
849.25	1.30814519999967	decision	choicePhaseStart	2	83	23	foodImage.92	FOODEEG_Images\0900.jpg	NY	Left	No	1.30814519999967	0	434817	253
850.548828125	0	decision	response	2	83	23	foodImage.92	FOODEEG_Images\0900.jpg	NY	Left	No	1.30814519999967	0	435482	234
851.591796875	1	decision	trialStart	2	84	24	foodImage.70	FOODEEG_Images\0705.jpg	YN	Left	Yes	1.14770839999983	0	436016	251
852.650390625	2	decision	foodImageDisplay	2	84	24	foodImage.70	FOODEEG_Images\0705.jpg	YN	Left	Yes	1.14770839999983	0	436558	252
854.71875	1.14770839999983	decision	choicePhaseStart	2	84	24	foodImage.70	FOODEEG_Images\0705.jpg	YN	Left	Yes	1.14770839999983	0	437617	253
855.861328125	0	decision	response	2	84	24	foodImage.70	FOODEEG_Images\0705.jpg	YN	Left	Yes	1.14770839999983	0	438202	234
856.904296875	1	health	trialStart	2	85	25	foodImage.28	FOODEEG_Images\0273.jpg	NY	Right	Yes	0.992207500000404	0	438736	251
857.94921875	2	health	foodImageDisplay	2	85	25	foodImage.28	FOODEEG_Images\0273.jpg	NY	Right	Yes	0.992207500000404	0	439271	252
860.01171875	0.992207500000404	health	choicePhaseStart	2	85	25	foodImage.28	FOODEEG_Images\0273.jpg	NY	Right	Yes	0.992207500000404	0	440327	253
860.99609375	0	health	response	2	85	25	foodImage.28	FOODEEG_Images\0273.jpg	NY	Right	Yes	0.992207500000404	0	440831	235
862.0390625	1	decision	trialStart	2	86	26	foodImage.117	FOODEEG_Images\0925.jpg	NY	Left	No	2.58872219999921	0	441365	251
863.078125	2	decision	foodImageDisplay	2	86	26	foodImage.117	FOODEEG_Images\0925.jpg	NY	Left	No	2.58872219999921	0	441897	252
865.14453125	2.58872219999921	decision	choicePhaseStart	2	86	26	foodImage.117	FOODEEG_Images\0925.jpg	NY	Left	No	2.58872219999921	0	442955	253
867.724609375	0	decision	response	2	86	26	foodImage.117	FOODEEG_Images\0925.jpg	NY	Left	No	2.58872219999921	0	444276	234
868.767578125	1	health	trialStart	2	87	27	foodImage.34	FOODEEG_Images\0339.jpg	YN	Right	No	1.91471060000003	0	444810	251
869.828125	2	health	foodImageDisplay	2	87	27	foodImage.34	FOODEEG_Images\0339.jpg	YN	Right	No	1.91471060000003	0	445353	252
871.896484375	1.91471060000003	health	choicePhaseStart	2	87	27	foodImage.34	FOODEEG_Images\0339.jpg	YN	Right	No	1.91471060000003	0	446412	253
873.8046875	0	health	response	2	87	27	foodImage.34	FOODEEG_Images\0339.jpg	YN	Right	No	1.91471060000003	0	447389	235
874.845703125	1	health	trialStart	2	88	28	foodImage.41	FOODEEG_Images\0409.jpg	YN	Left	Yes	0.997842900000251	0	447922	251
875.916015625	2	health	foodImageDisplay	2	88	28	foodImage.41	FOODEEG_Images\0409.jpg	YN	Left	Yes	0.997842900000251	0	448470	252
877.982421875	0.997842900000251	health	choicePhaseStart	2	88	28	foodImage.41	FOODEEG_Images\0409.jpg	YN	Left	Yes	0.997842900000251	0	449528	253
878.970703125	0	health	response	2	88	28	foodImage.41	FOODEEG_Images\0409.jpg	YN	Left	Yes	0.997842900000251	0	450034	234
880.013671875	1	taste	trialStart	2	89	29	foodImage.52	FOODEEG_Images\0539.jpg	NY	Right	Yes	1.46720089999963	0	450568	251
881.07421875	2	taste	foodImageDisplay	2	89	29	foodImage.52	FOODEEG_Images\0539.jpg	NY	Right	Yes	1.46720089999963	0	451111	252
883.13671875	1.46720089999963	taste	choicePhaseStart	2	89	29	foodImage.52	FOODEEG_Images\0539.jpg	NY	Right	Yes	1.46720089999963	0	452167	253
884.595703125	0	taste	response	2	89	29	foodImage.52	FOODEEG_Images\0539.jpg	NY	Right	Yes	1.46720089999963	0	452914	235
885.63671875	1	taste	trialStart	2	90	30	foodImage.37	FOODEEG_Images\0359.jpg	YN	Left	Yes	1.99588750000021	0	453447	251
886.697265625	2	taste	foodImageDisplay	2	90	30	foodImage.37	FOODEEG_Images\0359.jpg	YN	Left	Yes	1.99588750000021	0	453990	252
888.765625	1.99588750000021	taste	choicePhaseStart	2	90	30	foodImage.37	FOODEEG_Images\0359.jpg	YN	Left	Yes	1.99588750000021	0	455049	253
890.755859375	0	taste	response	2	90	30	foodImage.37	FOODEEG_Images\0359.jpg	YN	Left	Yes	1.99588750000021	0	456068	234
891.796875	1	taste	trialStart	2	91	31	foodImage.34	FOODEEG_Images\0339.jpg	YN	Left	Yes	1.0304886999993	0	456601	251
892.85546875	2	taste	foodImageDisplay	2	91	31	foodImage.34	FOODEEG_Images\0339.jpg	YN	Left	Yes	1.0304886999993	0	457143	252
894.921875	1.0304886999993	taste	choicePhaseStart	2	91	31	foodImage.34	FOODEEG_Images\0339.jpg	YN	Left	Yes	1.0304886999993	0	458201	253
895.947265625	0	taste	response	2	91	31	foodImage.34	FOODEEG_Images\0339.jpg	YN	Left	Yes	1.0304886999993	0	458726	234
896.990234375	1	health	trialStart	2	92	32	foodImage.91	FOODEEG_Images\0896.jpg	NY	Right	Yes	3.07566230000066	0	459260	251
898.05078125	2	health	foodImageDisplay	2	92	32	foodImage.91	FOODEEG_Images\0896.jpg	NY	Right	Yes	3.07566230000066	0	459803	252
900.11328125	3.07566230000066	health	choicePhaseStart	2	92	32	foodImage.91	FOODEEG_Images\0896.jpg	NY	Right	Yes	3.07566230000066	0	460859	253
903.177734375	0	health	response	2	92	32	foodImage.91	FOODEEG_Images\0896.jpg	NY	Right	Yes	3.07566230000066	0	462428	235
904.220703125	1	health	trialStart	2	93	33	foodImage.88	FOODEEG_Images\0878.jpg	NY	Left	No	2.08286489999955	0	462962	251
905.294921875	2	health	foodImageDisplay	2	93	33	foodImage.88	FOODEEG_Images\0878.jpg	NY	Left	No	2.08286489999955	0	463512	252
907.357421875	2.08286489999955	health	choicePhaseStart	2	93	33	foodImage.88	FOODEEG_Images\0878.jpg	NY	Left	No	2.08286489999955	0	464568	253
909.43359375	0	health	response	2	93	33	foodImage.88	FOODEEG_Images\0878.jpg	NY	Left	No	2.08286489999955	0	465631	234
910.482421875	1	decision	trialStart	2	94	34	foodImage.8	FOODEEG_Images\0136.jpg	YN	Left	Yes	1.3833736000006	0	466168	251
911.525390625	2	decision	foodImageDisplay	2	94	34	foodImage.8	FOODEEG_Images\0136.jpg	YN	Left	Yes	1.3833736000006	0	466702	252
913.59375	1.3833736000006	decision	choicePhaseStart	2	94	34	foodImage.8	FOODEEG_Images\0136.jpg	YN	Left	Yes	1.3833736000006	0	467761	253
914.970703125	0	decision	response	2	94	34	foodImage.8	FOODEEG_Images\0136.jpg	YN	Left	Yes	1.3833736000006	0	468466	234
916.013671875	1	taste	trialStart	2	95	35	foodImage.72	FOODEEG_Images\0714.jpg	NY	Right	Yes	1.12413480000032	0	469000	251
917.076171875	2	taste	foodImageDisplay	2	95	35	foodImage.72	FOODEEG_Images\0714.jpg	NY	Right	Yes	1.12413480000032	0	469544	252
919.140625	1.12413480000032	taste	choicePhaseStart	2	95	35	foodImage.72	FOODEEG_Images\0714.jpg	NY	Right	Yes	1.12413480000032	0	470601	253
920.2578125	0	taste	response	2	95	35	foodImage.72	FOODEEG_Images\0714.jpg	NY	Right	Yes	1.12413480000032	0	471173	235
921.30078125	1	decision	trialStart	2	96	36	foodImage.27	FOODEEG_Images\0263.jpg	YN	Left	Yes	0.908714999999575	0	471707	251
922.349609375	2	decision	foodImageDisplay	2	96	36	foodImage.27	FOODEEG_Images\0263.jpg	YN	Left	Yes	0.908714999999575	0	472244	252
924.419921875	0.908714999999575	decision	choicePhaseStart	2	96	36	foodImage.27	FOODEEG_Images\0263.jpg	YN	Left	Yes	0.908714999999575	0	473304	253
925.322265625	0	decision	response	2	96	36	foodImage.27	FOODEEG_Images\0263.jpg	YN	Left	Yes	0.908714999999575	0	473766	234
926.365234375	1	taste	trialStart	2	97	37	foodImage.75	FOODEEG_Images\0763.jpg	YN	Left	Yes	1.39293929999985	0	474300	251
927.41015625	2	taste	foodImageDisplay	2	97	37	foodImage.75	FOODEEG_Images\0763.jpg	YN	Left	Yes	1.39293929999985	0	474835	252
929.474609375	1.39293929999985	taste	choicePhaseStart	2	97	37	foodImage.75	FOODEEG_Images\0763.jpg	YN	Left	Yes	1.39293929999985	0	475892	253
930.857421875	0	taste	response	2	97	37	foodImage.75	FOODEEG_Images\0763.jpg	YN	Left	Yes	1.39293929999985	0	476600	234
931.900390625	1	decision	trialStart	2	98	38	foodImage.108	FOODEEG_Images\0916.jpg	NY	Left	No	1.13141799999994	0	477134	251
932.94140625	2	decision	foodImageDisplay	2	98	38	foodImage.108	FOODEEG_Images\0916.jpg	NY	Left	No	1.13141799999994	0	477667	252
935.005859375	1.13141799999994	decision	choicePhaseStart	2	98	38	foodImage.108	FOODEEG_Images\0916.jpg	NY	Left	No	1.13141799999994	0	478724	253
936.12890625	0	decision	response	2	98	38	foodImage.108	FOODEEG_Images\0916.jpg	NY	Left	No	1.13141799999994	0	479299	234
937.171875	1	taste	trialStart	2	99	39	foodImage.60	FOODEEG_Images\0614.jpg	NY	Right	Yes	0.895548999999846	0	479833	251
938.232421875	2	taste	foodImageDisplay	2	99	39	foodImage.60	FOODEEG_Images\0614.jpg	NY	Right	Yes	0.895548999999846	0	480376	252
940.298828125	0.895548999999846	taste	choicePhaseStart	2	99	39	foodImage.60	FOODEEG_Images\0614.jpg	NY	Right	Yes	0.895548999999846	0	481434	253
941.185546875	0	taste	response	2	99	39	foodImage.60	FOODEEG_Images\0614.jpg	NY	Right	Yes	0.895548999999846	0	481888	235
942.2265625	1	health	trialStart	2	100	40	foodImage.84	FOODEEG_Images\0830.jpg	YN	Left	Yes	0.79833890000009	0	482421	251
943.28515625	2	health	foodImageDisplay	2	100	40	foodImage.84	FOODEEG_Images\0830.jpg	YN	Left	Yes	0.79833890000009	0	482963	252
945.34765625	0.79833890000009	health	choicePhaseStart	2	100	40	foodImage.84	FOODEEG_Images\0830.jpg	YN	Left	Yes	0.79833890000009	0	484019	253
946.13671875	0	health	response	2	100	40	foodImage.84	FOODEEG_Images\0830.jpg	YN	Left	Yes	0.79833890000009	0	484423	234
947.1796875	1	decision	trialStart	2	101	41	foodImage.20	FOODEEG_Images\0226.jpg	YN	Left	Yes	1.40972710000005	0	484957	251
948.2421875	2	decision	foodImageDisplay	2	101	41	foodImage.20	FOODEEG_Images\0226.jpg	YN	Left	Yes	1.40972710000005	0	485501	252
950.3046875	1.40972710000005	decision	choicePhaseStart	2	101	41	foodImage.20	FOODEEG_Images\0226.jpg	YN	Left	Yes	1.40972710000005	0	486557	253
951.705078125	0	decision	response	2	101	41	foodImage.20	FOODEEG_Images\0226.jpg	YN	Left	Yes	1.40972710000005	0	487274	234
952.74609375	1	decision	trialStart	2	102	42	foodImage.33	FOODEEG_Images\0329.jpg	NY	Right	Yes	0.894422600000325	0	487807	251
953.7890625	2	decision	foodImageDisplay	2	102	42	foodImage.33	FOODEEG_Images\0329.jpg	NY	Right	Yes	0.894422600000325	0	488341	252
955.857421875	0.894422600000325	decision	choicePhaseStart	2	102	42	foodImage.33	FOODEEG_Images\0329.jpg	NY	Right	Yes	0.894422600000325	0	489400	253
956.744140625	0	decision	response	2	102	42	foodImage.33	FOODEEG_Images\0329.jpg	NY	Right	Yes	0.894422600000325	0	489854	235
957.79296875	1	decision	trialStart	2	103	43	foodImage.94	FOODEEG_Images\0902.jpg	YN	Left	Yes	1.21230920000016	0	490391	251
958.84375	2	decision	foodImageDisplay	2	103	43	foodImage.94	FOODEEG_Images\0902.jpg	YN	Left	Yes	1.21230920000016	0	490929	252
960.9140625	1.21230920000016	decision	choicePhaseStart	2	103	43	foodImage.94	FOODEEG_Images\0902.jpg	YN	Left	Yes	1.21230920000016	0	491989	253
962.12109375	0	decision	response	2	103	43	foodImage.94	FOODEEG_Images\0902.jpg	YN	Left	Yes	1.21230920000016	0	492607	234
963.162109375	1	taste	trialStart	2	104	44	foodImage.80	FOODEEG_Images\0796.jpg	NY	Right	Yes	1.94555390000005	0	493140	251
964.22265625	2	taste	foodImageDisplay	2	104	44	foodImage.80	FOODEEG_Images\0796.jpg	NY	Right	Yes	1.94555390000005	0	493683	252
966.287109375	1.94555390000005	taste	choicePhaseStart	2	104	44	foodImage.80	FOODEEG_Images\0796.jpg	NY	Right	Yes	1.94555390000005	0	494740	253
968.224609375	0	taste	response	2	104	44	foodImage.80	FOODEEG_Images\0796.jpg	NY	Right	Yes	1.94555390000005	0	495732	235
969.267578125	1	health	trialStart	2	105	45	foodImage.53	FOODEEG_Images\0547.jpg	YN	Right	No	1.07198410000001	0	496266	251
970.322265625	2	health	foodImageDisplay	2	105	45	foodImage.53	FOODEEG_Images\0547.jpg	YN	Right	No	1.07198410000001	0	496806	252
972.384765625	1.07198410000001	health	choicePhaseStart	2	105	45	foodImage.53	FOODEEG_Images\0547.jpg	YN	Right	No	1.07198410000001	0	497862	253
973.447265625	0	health	response	2	105	45	foodImage.53	FOODEEG_Images\0547.jpg	YN	Right	No	1.07198410000001	0	498406	235
974.490234375	1	health	trialStart	2	106	46	foodImage.51	FOODEEG_Images\0536.jpg	NY	Left	No	1.37295820000054	0	498940	251
975.556640625	2	health	foodImageDisplay	2	106	46	foodImage.51	FOODEEG_Images\0536.jpg	NY	Left	No	1.37295820000054	0	499486	252
977.625	1.37295820000054	health	choicePhaseStart	2	106	46	foodImage.51	FOODEEG_Images\0536.jpg	NY	Left	No	1.37295820000054	0	500545	253
978.9921875	0	health	response	2	106	46	foodImage.51	FOODEEG_Images\0536.jpg	NY	Left	No	1.37295820000054	0	501245	234
980.033203125	1	taste	trialStart	2	107	47	foodImage.35	FOODEEG_Images\0350.jpg	YN	Left	Yes	0.929105100000015	0	501778	251
981.072265625	2	taste	foodImageDisplay	2	107	47	foodImage.35	FOODEEG_Images\0350.jpg	YN	Left	Yes	0.929105100000015	0	502310	252
983.134765625	0.929105100000015	taste	choicePhaseStart	2	107	47	foodImage.35	FOODEEG_Images\0350.jpg	YN	Left	Yes	0.929105100000015	0	503366	253
984.0546875	0	taste	response	2	107	47	foodImage.35	FOODEEG_Images\0350.jpg	YN	Left	Yes	0.929105100000015	0	503837	234
985.09765625	1	decision	trialStart	2	108	48	foodImage.31	FOODEEG_Images\0294.jpg	NY	Right	Yes	1.16819300000043	0	504371	251
986.140625	2	decision	foodImageDisplay	2	108	48	foodImage.31	FOODEEG_Images\0294.jpg	NY	Right	Yes	1.16819300000043	0	504905	252
988.20703125	1.16819300000043	decision	choicePhaseStart	2	108	48	foodImage.31	FOODEEG_Images\0294.jpg	NY	Right	Yes	1.16819300000043	0	505963	253
989.3671875	0	decision	response	2	108	48	foodImage.31	FOODEEG_Images\0294.jpg	NY	Right	Yes	1.16819300000043	0	506557	235
990.41015625	1	health	trialStart	2	109	49	foodImage.30	FOODEEG_Images\0282.jpg	NY	Right	Yes	0.941022500000145	0	507091	251
991.453125	2	health	foodImageDisplay	2	109	49	foodImage.30	FOODEEG_Images\0282.jpg	NY	Right	Yes	0.941022500000145	0	507625	252
993.521484375	0.941022500000145	health	choicePhaseStart	2	109	49	foodImage.30	FOODEEG_Images\0282.jpg	NY	Right	Yes	0.941022500000145	0	508684	253
994.455078125	0	health	response	2	109	49	foodImage.30	FOODEEG_Images\0282.jpg	NY	Right	Yes	0.941022500000145	0	509162	235
995.498046875	1	taste	trialStart	2	110	50	foodImage.6	FOODEEG_Images\0113.jpg	NY	Right	Yes	0.849945599999955	0	509696	251
996.544921875	2	taste	foodImageDisplay	2	110	50	foodImage.6	FOODEEG_Images\0113.jpg	NY	Right	Yes	0.849945599999955	0	510232	252
998.61328125	0.849945599999955	taste	choicePhaseStart	2	110	50	foodImage.6	FOODEEG_Images\0113.jpg	NY	Right	Yes	0.849945599999955	0	511291	253
999.455078125	0	taste	response	2	110	50	foodImage.6	FOODEEG_Images\0113.jpg	NY	Right	Yes	0.849945599999955	0	511722	235
1000.498046875	1	health	trialStart	2	111	51	foodImage.113	FOODEEG_Images\0921.jpg	YN	Left	Yes	1.39131999999972	0	512256	251
1001.53515625	2	health	foodImageDisplay	2	111	51	foodImage.113	FOODEEG_Images\0921.jpg	YN	Left	Yes	1.39131999999972	0	512787	252
1003.599609375	1.39131999999972	health	choicePhaseStart	2	111	51	foodImage.113	FOODEEG_Images\0921.jpg	YN	Left	Yes	1.39131999999972	0	513844	253
1004.982421875	0	health	response	2	111	51	foodImage.113	FOODEEG_Images\0921.jpg	YN	Left	Yes	1.39131999999972	0	514552	234
1006.025390625	1	decision	trialStart	2	112	52	foodImage.7	FOODEEG_Images\0116.jpg	NY	Right	Yes	1.20703220000087	0	515086	251
1007.068359375	2	decision	foodImageDisplay	2	112	52	foodImage.7	FOODEEG_Images\0116.jpg	NY	Right	Yes	1.20703220000087	0	515620	252
1009.142578125	1.20703220000087	decision	choicePhaseStart	2	112	52	foodImage.7	FOODEEG_Images\0116.jpg	NY	Right	Yes	1.20703220000087	0	516682	253
1010.341796875	0	decision	response	2	112	52	foodImage.7	FOODEEG_Images\0116.jpg	NY	Right	Yes	1.20703220000087	0	517296	235
1011.388671875	1	taste	trialStart	2	113	53	foodImage.85	FOODEEG_Images\0841.jpg	YN	Left	Yes	1.85033979999935	0	517832	251
1012.44921875	2	taste	foodImageDisplay	2	113	53	foodImage.85	FOODEEG_Images\0841.jpg	YN	Left	Yes	1.85033979999935	0	518375	252
1014.515625	1.85033979999935	taste	choicePhaseStart	2	113	53	foodImage.85	FOODEEG_Images\0841.jpg	YN	Left	Yes	1.85033979999935	0	519433	253
1016.357421875	0	taste	response	2	113	53	foodImage.85	FOODEEG_Images\0841.jpg	YN	Left	Yes	1.85033979999935	0	520376	234
1017.400390625	1	health	trialStart	2	114	54	foodImage.111	FOODEEG_Images\0919.jpg	NY	Left	No	2.02551760000006	0	520910	251
1018.439453125	2	health	foodImageDisplay	2	114	54	foodImage.111	FOODEEG_Images\0919.jpg	NY	Left	No	2.02551760000006	0	521442	252
1020.5078125	2.02551760000006	health	choicePhaseStart	2	114	54	foodImage.111	FOODEEG_Images\0919.jpg	NY	Left	No	2.02551760000006	0	522501	253
1022.525390625	0	health	response	2	114	54	foodImage.111	FOODEEG_Images\0919.jpg	NY	Left	No	2.02551760000006	0	523534	234
1023.568359375	1	decision	trialStart	2	115	55	foodImage.23	FOODEEG_Images\0244.jpg	YN	Right	No	2.07254000000012	0	524068	251
1024.611328125	2	decision	foodImageDisplay	2	115	55	foodImage.23	FOODEEG_Images\0244.jpg	YN	Right	No	2.07254000000012	0	524602	252
1026.67578125	2.07254000000012	decision	choicePhaseStart	2	115	55	foodImage.23	FOODEEG_Images\0244.jpg	YN	Right	No	2.07254000000012	0	525659	253
1028.7421875	0	decision	response	2	115	55	foodImage.23	FOODEEG_Images\0244.jpg	YN	Right	No	2.07254000000012	0	526717	235
1029.7890625	1	decision	trialStart	2	116	56	foodImage.101	FOODEEG_Images\0909.jpg	NY	Left	No	1.12697920000028	0	527253	251
1030.828125	2	decision	foodImageDisplay	2	116	56	foodImage.101	FOODEEG_Images\0909.jpg	NY	Left	No	1.12697920000028	0	527785	252
1032.89453125	1.12697920000028	decision	choicePhaseStart	2	116	56	foodImage.101	FOODEEG_Images\0909.jpg	NY	Left	No	1.12697920000028	0	528843	253
1034.013671875	0	decision	response	2	116	56	foodImage.101	FOODEEG_Images\0909.jpg	NY	Left	No	1.12697920000028	0	529416	234
1035.056640625	1	decision	trialStart	2	117	57	foodImage.46	FOODEEG_Images\0479.jpg	YN	Left	Yes	0.937372200000027	0	529950	251
1036.1171875	2	decision	foodImageDisplay	2	117	57	foodImage.46	FOODEEG_Images\0479.jpg	YN	Left	Yes	0.937372200000027	0	530493	252
1038.181640625	0.937372200000027	decision	choicePhaseStart	2	117	57	foodImage.46	FOODEEG_Images\0479.jpg	YN	Left	Yes	0.937372200000027	0	531550	253
1039.109375	0	decision	response	2	117	57	foodImage.46	FOODEEG_Images\0479.jpg	YN	Left	Yes	0.937372200000027	0	532025	234
1040.15234375	1	taste	trialStart	2	118	58	foodImage.10	FOODEEG_Images\0145.jpg	NY	Right	Yes	1.06647789999988	0	532559	251
1041.2109375	2	taste	foodImageDisplay	2	118	58	foodImage.10	FOODEEG_Images\0145.jpg	NY	Right	Yes	1.06647789999988	0	533101	252
1043.279296875	1.06647789999988	taste	choicePhaseStart	2	118	58	foodImage.10	FOODEEG_Images\0145.jpg	NY	Right	Yes	1.06647789999988	0	534160	253
1044.341796875	0	taste	response	2	118	58	foodImage.10	FOODEEG_Images\0145.jpg	NY	Right	Yes	1.06647789999988	0	534704	235
1045.3828125	1	decision	trialStart	2	119	59	foodImage.112	FOODEEG_Images\0920.jpg	NY	Left	No	1.10352019999937	0	535237	251
1046.421875	2	decision	foodImageDisplay	2	119	59	foodImage.112	FOODEEG_Images\0920.jpg	NY	Left	No	1.10352019999937	0	535769	252
1048.486328125	1.10352019999937	decision	choicePhaseStart	2	119	59	foodImage.112	FOODEEG_Images\0920.jpg	NY	Left	No	1.10352019999937	0	536826	253
1049.580078125	0	decision	response	2	119	59	foodImage.112	FOODEEG_Images\0920.jpg	NY	Left	No	1.10352019999937	0	537386	234
1050.623046875	1	decision	trialStart	2	120	60	foodImage.60	FOODEEG_Images\0614.jpg	YN	Left	Yes	0.926288500000737	0	537920	251
1051.681640625	2	decision	foodImageDisplay	2	120	60	foodImage.60	FOODEEG_Images\0614.jpg	YN	Left	Yes	0.926288500000737	0	538462	252
1053.75	0.926288500000737	decision	choicePhaseStart	2	120	60	foodImage.60	FOODEEG_Images\0614.jpg	YN	Left	Yes	0.926288500000737	0	539521	253
1054.66796875	0	decision	response	2	120	60	foodImage.60	FOODEEG_Images\0614.jpg	YN	Left	Yes	0.926288500000737	0	539991	234
1056.7109375	11.896484375	n/a	blockEnd	n/a	n/a	n/a	n/a	n/a	n/a	n/a	n/a	n/a	n/a	541037	254
1068.607421875	2	n/a	blockStart	3	n/a	n/a	n/a	n/a	n/a	n/a	n/a	n/a	n/a	547128	250
1070.6484375	1	taste	trialStart	3	121	1	foodImage.12	FOODEEG_Images\0181.jpg	YN	Left	Yes	1.39698120000048	0	548173	251
1071.693359375	2	taste	foodImageDisplay	3	121	1	foodImage.12	FOODEEG_Images\0181.jpg	YN	Left	Yes	1.39698120000048	0	548708	252
1073.7578125	1.39698120000048	taste	choicePhaseStart	3	121	1	foodImage.12	FOODEEG_Images\0181.jpg	YN	Left	Yes	1.39698120000048	0	549765	253
1075.1484375	0	taste	response	3	121	1	foodImage.12	FOODEEG_Images\0181.jpg	YN	Left	Yes	1.39698120000048	0	550477	234
1076.189453125	1	taste	trialStart	3	122	2	foodImage.115	FOODEEG_Images\0923.jpg	YN	Left	Yes	1.80783239999982	0	551010	251
1077.23046875	2	taste	foodImageDisplay	3	122	2	foodImage.115	FOODEEG_Images\0923.jpg	YN	Left	Yes	1.80783239999982	0	551543	252
1079.298828125	1.80783239999982	taste	choicePhaseStart	3	122	2	foodImage.115	FOODEEG_Images\0923.jpg	YN	Left	Yes	1.80783239999982	0	552602	253
1081.099609375	0	taste	response	3	122	2	foodImage.115	FOODEEG_Images\0923.jpg	YN	Left	Yes	1.80783239999982	0	553524	234
1082.142578125	1	health	trialStart	3	123	3	foodImage.25	FOODEEG_Images\0261.jpg	YN	Left	Yes	1.03218749999996	0	554058	251
1083.1875	2	health	foodImageDisplay	3	123	3	foodImage.25	FOODEEG_Images\0261.jpg	YN	Left	Yes	1.03218749999996	0	554593	252
1085.251953125	1.03218749999996	health	choicePhaseStart	3	123	3	foodImage.25	FOODEEG_Images\0261.jpg	YN	Left	Yes	1.03218749999996	0	555650	253
1086.275390625	0	health	response	3	123	3	foodImage.25	FOODEEG_Images\0261.jpg	YN	Left	Yes	1.03218749999996	0	556174	234
1087.318359375	1	health	trialStart	3	124	4	foodImage.12	FOODEEG_Images\0181.jpg	YN	Left	Yes	0.903812399999879	0	556708	251
1088.36328125	2	health	foodImageDisplay	3	124	4	foodImage.12	FOODEEG_Images\0181.jpg	YN	Left	Yes	0.903812399999879	0	557243	252
1090.42578125	0.903812399999879	health	choicePhaseStart	3	124	4	foodImage.12	FOODEEG_Images\0181.jpg	YN	Left	Yes	0.903812399999879	0	558299	253
1091.322265625	0	health	response	3	124	4	foodImage.12	FOODEEG_Images\0181.jpg	YN	Left	Yes	0.903812399999879	0	558758	234
1092.365234375	1	health	trialStart	3	125	5	foodImage.50	FOODEEG_Images\0529.jpg	NY	Right	Yes	0.958908599999631	0	559292	251
1093.427734375	2	health	foodImageDisplay	3	125	5	foodImage.50	FOODEEG_Images\0529.jpg	NY	Right	Yes	0.958908599999631	0	559836	252
1095.494140625	0.958908599999631	health	choicePhaseStart	3	125	5	foodImage.50	FOODEEG_Images\0529.jpg	NY	Right	Yes	0.958908599999631	0	560894	253
1096.443359375	0	health	response	3	125	5	foodImage.50	FOODEEG_Images\0529.jpg	NY	Right	Yes	0.958908599999631	0	561380	235
1097.486328125	1	decision	trialStart	3	126	6	foodImage.11	FOODEEG_Images\0180.jpg	YN	Left	Yes	0.900283299999501	0	561914	251
1098.529296875	2	decision	foodImageDisplay	3	126	6	foodImage.11	FOODEEG_Images\0180.jpg	YN	Left	Yes	0.900283299999501	0	562448	252
1100.59765625	0.900283299999501	decision	choicePhaseStart	3	126	6	foodImage.11	FOODEEG_Images\0180.jpg	YN	Left	Yes	0.900283299999501	0	563507	253
1101.490234375	0	decision	response	3	126	6	foodImage.11	FOODEEG_Images\0180.jpg	YN	Left	Yes	0.900283299999501	0	563964	234
1102.533203125	1	decision	trialStart	3	127	7	foodImage.37	FOODEEG_Images\0359.jpg	NY	Right	Yes	1.49393119999968	0	564498	251
1103.576171875	2	decision	foodImageDisplay	3	127	7	foodImage.37	FOODEEG_Images\0359.jpg	NY	Right	Yes	1.49393119999968	0	565032	252
1105.64453125	1.49393119999968	decision	choicePhaseStart	3	127	7	foodImage.37	FOODEEG_Images\0359.jpg	NY	Right	Yes	1.49393119999968	0	566091	253
1107.130859375	0	decision	response	3	127	7	foodImage.37	FOODEEG_Images\0359.jpg	NY	Right	Yes	1.49393119999968	0	566852	235
1108.173828125	1	decision	trialStart	3	128	8	foodImage.25	FOODEEG_Images\0261.jpg	NY	Right	Yes	1.23164069999984	0	567386	251
1109.216796875	2	decision	foodImageDisplay	3	128	8	foodImage.25	FOODEEG_Images\0261.jpg	NY	Right	Yes	1.23164069999984	0	567920	252
1111.28125	1.23164069999984	decision	choicePhaseStart	3	128	8	foodImage.25	FOODEEG_Images\0261.jpg	NY	Right	Yes	1.23164069999984	0	568977	253
1112.505859375	0	decision	response	3	128	8	foodImage.25	FOODEEG_Images\0261.jpg	NY	Right	Yes	1.23164069999984	0	569604	235
1113.548828125	1	health	trialStart	3	129	9	foodImage.73	FOODEEG_Images\0717.jpg	YN	Left	Yes	1.01289510000061	0	570138	251
1114.607421875	2	health	foodImageDisplay	3	129	9	foodImage.73	FOODEEG_Images\0717.jpg	YN	Left	Yes	1.01289510000061	0	570680	252
1116.67578125	1.01289510000061	health	choicePhaseStart	3	129	9	foodImage.73	FOODEEG_Images\0717.jpg	YN	Left	Yes	1.01289510000061	0	571739	253
1117.681640625	0	health	response	3	129	9	foodImage.73	FOODEEG_Images\0717.jpg	YN	Left	Yes	1.01289510000061	0	572254	234
1118.724609375	1	taste	trialStart	3	130	10	foodImage.116	FOODEEG_Images\0924.jpg	NY	Left	No	2.54451719999997	0	572788	251
1119.78125	2	taste	foodImageDisplay	3	130	10	foodImage.116	FOODEEG_Images\0924.jpg	NY	Left	No	2.54451719999997	0	573329	252
1121.84765625	2.54451719999997	taste	choicePhaseStart	3	130	10	foodImage.116	FOODEEG_Images\0924.jpg	NY	Left	No	2.54451719999997	0	574387	253
1124.38671875	0	taste	response	3	130	10	foodImage.116	FOODEEG_Images\0924.jpg	NY	Left	No	2.54451719999997	0	575687	234
1125.4296875	1	health	trialStart	3	131	11	foodImage.44	FOODEEG_Images\0459.jpg	NY	Right	Yes	0.959557199999836	0	576221	251
1126.474609375	2	health	foodImageDisplay	3	131	11	foodImage.44	FOODEEG_Images\0459.jpg	NY	Right	Yes	0.959557199999836	0	576756	252
1128.5390625	0.959557199999836	health	choicePhaseStart	3	131	11	foodImage.44	FOODEEG_Images\0459.jpg	NY	Right	Yes	0.959557199999836	0	577813	253
1129.490234375	0	health	response	3	131	11	foodImage.44	FOODEEG_Images\0459.jpg	NY	Right	Yes	0.959557199999836	0	578300	235
1130.533203125	1	health	trialStart	3	132	12	foodImage.36	FOODEEG_Images\0352.jpg	YN	Right	No	2.92652400000043	0	578834	251
1131.58984375	2	health	foodImageDisplay	3	132	12	foodImage.36	FOODEEG_Images\0352.jpg	YN	Right	No	2.92652400000043	0	579375	252
1133.658203125	2.92652400000043	health	choicePhaseStart	3	132	12	foodImage.36	FOODEEG_Images\0352.jpg	YN	Right	No	2.92652400000043	0	580434	253
1136.578125	0	health	response	3	132	12	foodImage.36	FOODEEG_Images\0352.jpg	YN	Right	No	2.92652400000043	0	581929	235
1137.619140625	1	decision	trialStart	3	133	13	foodImage.2	FOODEEG_Images\0028.jpg	YN	Left	Yes	1.3740015000003	0	582462	251
1138.662109375	2	decision	foodImageDisplay	3	133	13	foodImage.2	FOODEEG_Images\0028.jpg	YN	Left	Yes	1.3740015000003	0	582996	252
1140.724609375	1.3740015000003	decision	choicePhaseStart	3	133	13	foodImage.2	FOODEEG_Images\0028.jpg	YN	Left	Yes	1.3740015000003	0	584052	253
1142.08984375	0	decision	response	3	133	13	foodImage.2	FOODEEG_Images\0028.jpg	YN	Left	Yes	1.3740015000003	0	584751	234
1143.1328125	1	decision	trialStart	3	134	14	foodImage.45	FOODEEG_Images\0478.jpg	NY	Right	Yes	1.01487810000071	0	585285	251
1144.1796875	2	decision	foodImageDisplay	3	134	14	foodImage.45	FOODEEG_Images\0478.jpg	NY	Right	Yes	1.01487810000071	0	585821	252
1146.2421875	1.01487810000071	decision	choicePhaseStart	3	134	14	foodImage.45	FOODEEG_Images\0478.jpg	NY	Right	Yes	1.01487810000071	0	586877	253
1147.248046875	0	decision	response	3	134	14	foodImage.45	FOODEEG_Images\0478.jpg	NY	Right	Yes	1.01487810000071	0	587392	235
1148.291015625	1	health	trialStart	3	135	15	foodImage.101	FOODEEG_Images\0909.jpg	NY	Left	No	2.14712190000046	0	587926	251
1149.328125	2	health	foodImageDisplay	3	135	15	foodImage.101	FOODEEG_Images\0909.jpg	NY	Left	No	2.14712190000046	0	588457	252
1151.3984375	2.14712190000046	health	choicePhaseStart	3	135	15	foodImage.101	FOODEEG_Images\0909.jpg	NY	Left	No	2.14712190000046	0	589517	253
1153.537109375	0	health	response	3	135	15	foodImage.101	FOODEEG_Images\0909.jpg	NY	Left	No	2.14712190000046	0	590612	234
1154.580078125	1	taste	trialStart	3	136	16	foodImage.105	FOODEEG_Images\0913.jpg	YN	Left	Yes	1.46032430000014	0	591146	251
1155.6171875	2	taste	foodImageDisplay	3	136	16	foodImage.105	FOODEEG_Images\0913.jpg	YN	Left	Yes	1.46032430000014	0	591677	252
1157.68359375	1.46032430000014	taste	choicePhaseStart	3	136	16	foodImage.105	FOODEEG_Images\0913.jpg	YN	Left	Yes	1.46032430000014	0	592735	253
1159.13671875	0	taste	response	3	136	16	foodImage.105	FOODEEG_Images\0913.jpg	YN	Left	Yes	1.46032430000014	0	593479	234
1160.1796875	1	health	trialStart	3	137	17	foodImage.16	FOODEEG_Images\0196.jpg	YN	Left	Yes	0.821652200000244	0	594013	251
1161.240234375	2	health	foodImageDisplay	3	137	17	foodImage.16	FOODEEG_Images\0196.jpg	YN	Left	Yes	0.821652200000244	0	594556	252
1163.3046875	0.821652200000244	health	choicePhaseStart	3	137	17	foodImage.16	FOODEEG_Images\0196.jpg	YN	Left	Yes	0.821652200000244	0	595613	253
1164.119140625	0	health	response	3	137	17	foodImage.16	FOODEEG_Images\0196.jpg	YN	Left	Yes	0.821652200000244	0	596030	234
1165.162109375	1	decision	trialStart	3	138	18	foodImage.68	FOODEEG_Images\0685.jpg	YN	Left	Yes	0.880391900000177	0	596564	251
1166.2421875	2	decision	foodImageDisplay	3	138	18	foodImage.68	FOODEEG_Images\0685.jpg	YN	Left	Yes	0.880391900000177	0	597117	252
1168.310546875	0.880391900000177	decision	choicePhaseStart	3	138	18	foodImage.68	FOODEEG_Images\0685.jpg	YN	Left	Yes	0.880391900000177	0	598176	253
1169.18359375	0	decision	response	3	138	18	foodImage.68	FOODEEG_Images\0685.jpg	YN	Left	Yes	0.880391900000177	0	598623	234
1170.240234375	1	taste	trialStart	3	139	19	foodImage.42	FOODEEG_Images\0438.jpg	YN	Left	Yes	1.7085189999998	0	599164	251
1171.341796875	2	taste	foodImageDisplay	3	139	19	foodImage.42	FOODEEG_Images\0438.jpg	YN	Left	Yes	1.7085189999998	0	599728	252
1173.41015625	1.7085189999998	taste	choicePhaseStart	3	139	19	foodImage.42	FOODEEG_Images\0438.jpg	YN	Left	Yes	1.7085189999998	0	600787	253
1175.111328125	0	taste	response	3	139	19	foodImage.42	FOODEEG_Images\0438.jpg	YN	Left	Yes	1.7085189999998	0	601658	234
1176.154296875	1	taste	trialStart	3	140	20	foodImage.24	FOODEEG_Images\0250.jpg	NY	Right	Yes	1.25889800000004	0	602192	251
1177.19921875	2	taste	foodImageDisplay	3	140	20	foodImage.24	FOODEEG_Images\0250.jpg	NY	Right	Yes	1.25889800000004	0	602727	252
1179.26171875	1.25889800000004	taste	choicePhaseStart	3	140	20	foodImage.24	FOODEEG_Images\0250.jpg	NY	Right	Yes	1.25889800000004	0	603783	253
1180.51171875	0	taste	response	3	140	20	foodImage.24	FOODEEG_Images\0250.jpg	NY	Right	Yes	1.25889800000004	0	604423	235
1181.5546875	1	taste	trialStart	3	141	21	foodImage.50	FOODEEG_Images\0529.jpg	NY	Right	Yes	4.39156329999969	0	604957	251
1182.611328125	2	taste	foodImageDisplay	3	141	21	foodImage.50	FOODEEG_Images\0529.jpg	NY	Right	Yes	4.39156329999969	0	605498	252
1184.6796875	4.39156329999969	taste	choicePhaseStart	3	141	21	foodImage.50	FOODEEG_Images\0529.jpg	NY	Right	Yes	4.39156329999969	0	606557	253
1189.0625	0	taste	response	3	141	21	foodImage.50	FOODEEG_Images\0529.jpg	NY	Right	Yes	4.39156329999969	0	608801	235
1190.107421875	1	decision	trialStart	3	142	22	foodImage.63	FOODEEG_Images\0645.jpg	NY	Right	Yes	1.43922199999997	0	609336	251
1191.150390625	2	decision	foodImageDisplay	3	142	22	foodImage.63	FOODEEG_Images\0645.jpg	NY	Right	Yes	1.43922199999997	0	609870	252
1193.21484375	1.43922199999997	decision	choicePhaseStart	3	142	22	foodImage.63	FOODEEG_Images\0645.jpg	NY	Right	Yes	1.43922199999997	0	610927	253
1194.646484375	0	decision	response	3	142	22	foodImage.63	FOODEEG_Images\0645.jpg	NY	Right	Yes	1.43922199999997	0	611660	235
1195.689453125	1	health	trialStart	3	143	23	foodImage.24	FOODEEG_Images\0250.jpg	YN	Left	Yes	0.916881600000124	0	612194	251
1196.732421875	2	health	foodImageDisplay	3	143	23	foodImage.24	FOODEEG_Images\0250.jpg	YN	Left	Yes	0.916881600000124	0	612728	252
1198.80078125	0.916881600000124	health	choicePhaseStart	3	143	23	foodImage.24	FOODEEG_Images\0250.jpg	YN	Left	Yes	0.916881600000124	0	613787	253
1199.7109375	0	health	response	3	143	23	foodImage.24	FOODEEG_Images\0250.jpg	YN	Left	Yes	0.916881600000124	0	614253	234
1200.75390625	1	decision	trialStart	3	144	24	foodImage.74	FOODEEG_Images\0752.jpg	YN	Left	Yes	1.2249453000004	0	614787	251
1201.80078125	2	decision	foodImageDisplay	3	144	24	foodImage.74	FOODEEG_Images\0752.jpg	YN	Left	Yes	1.2249453000004	0	615323	252
1203.869140625	1.2249453000004	decision	choicePhaseStart	3	144	24	foodImage.74	FOODEEG_Images\0752.jpg	YN	Left	Yes	1.2249453000004	0	616382	253
1205.0859375	0	decision	response	3	144	24	foodImage.74	FOODEEG_Images\0752.jpg	YN	Left	Yes	1.2249453000004	0	617005	234
1206.12890625	1	decision	trialStart	3	145	25	foodImage.99	FOODEEG_Images\0907.jpg	YN	Left	Yes	1.93069420000029	0	617539	251
1207.173828125	2	decision	foodImageDisplay	3	145	25	foodImage.99	FOODEEG_Images\0907.jpg	YN	Left	Yes	1.93069420000029	0	618074	252
1209.23828125	1.93069420000029	decision	choicePhaseStart	3	145	25	foodImage.99	FOODEEG_Images\0907.jpg	YN	Left	Yes	1.93069420000029	0	619131	253
1211.158203125	0	decision	response	3	145	25	foodImage.99	FOODEEG_Images\0907.jpg	YN	Left	Yes	1.93069420000029	0	620114	234
1212.205078125	1	taste	trialStart	3	146	26	foodImage.79	FOODEEG_Images\0794.jpg	YN	Left	Yes	1.06184830000075	0	620650	251
1213.251953125	2	taste	foodImageDisplay	3	146	26	foodImage.79	FOODEEG_Images\0794.jpg	YN	Left	Yes	1.06184830000075	0	621186	252
1215.314453125	1.06184830000075	taste	choicePhaseStart	3	146	26	foodImage.79	FOODEEG_Images\0794.jpg	YN	Left	Yes	1.06184830000075	0	622242	253
1216.365234375	0	taste	response	3	146	26	foodImage.79	FOODEEG_Images\0794.jpg	YN	Left	Yes	1.06184830000075	0	622780	234
1217.408203125	1	health	trialStart	3	147	27	foodImage.54	FOODEEG_Images\0560.jpg	YN	Left	Yes	1.10537209999984	0	623314	251
1218.46875	2	health	foodImageDisplay	3	147	27	foodImage.54	FOODEEG_Images\0560.jpg	YN	Left	Yes	1.10537209999984	0	623857	252
1220.53515625	1.10537209999984	health	choicePhaseStart	3	147	27	foodImage.54	FOODEEG_Images\0560.jpg	YN	Left	Yes	1.10537209999984	0	624915	253
1221.630859375	0	health	response	3	147	27	foodImage.54	FOODEEG_Images\0560.jpg	YN	Left	Yes	1.10537209999984	0	625476	234
1222.6796875	1	taste	trialStart	3	148	28	foodImage.110	FOODEEG_Images\0918.jpg	NY	Right	Yes	1.74186759999975	0	626013	251
1223.716796875	2	taste	foodImageDisplay	3	148	28	foodImage.110	FOODEEG_Images\0918.jpg	NY	Right	Yes	1.74186759999975	0	626544	252
1225.78515625	1.74186759999975	taste	choicePhaseStart	3	148	28	foodImage.110	FOODEEG_Images\0918.jpg	NY	Right	Yes	1.74186759999975	0	627603	253
1227.517578125	0	taste	response	3	148	28	foodImage.110	FOODEEG_Images\0918.jpg	NY	Right	Yes	1.74186759999975	0	628490	235
1228.5625	1	decision	trialStart	3	149	29	foodImage.91	FOODEEG_Images\0896.jpg	YN	Right	No	1.61344159999953	0	629025	251
1229.623046875	2	decision	foodImageDisplay	3	149	29	foodImage.91	FOODEEG_Images\0896.jpg	YN	Right	No	1.61344159999953	0	629568	252
1231.685546875	1.61344159999953	decision	choicePhaseStart	3	149	29	foodImage.91	FOODEEG_Images\0896.jpg	YN	Right	No	1.61344159999953	0	630624	253
1233.29296875	0	decision	response	3	149	29	foodImage.91	FOODEEG_Images\0896.jpg	YN	Right	No	1.61344159999953	0	631447	235
1234.3359375	1	taste	trialStart	3	150	30	foodImage.88	FOODEEG_Images\0878.jpg	YN	Left	Yes	0.93566760000067	0	631981	251
1235.388671875	2	taste	foodImageDisplay	3	150	30	foodImage.88	FOODEEG_Images\0878.jpg	YN	Left	Yes	0.93566760000067	0	632520	252
1237.453125	0.93566760000067	taste	choicePhaseStart	3	150	30	foodImage.88	FOODEEG_Images\0878.jpg	YN	Left	Yes	0.93566760000067	0	633577	253
1238.380859375	0	taste	response	3	150	30	foodImage.88	FOODEEG_Images\0878.jpg	YN	Left	Yes	0.93566760000067	0	634052	234
1239.423828125	1	taste	trialStart	3	151	31	foodImage.54	FOODEEG_Images\0560.jpg	YN	Left	Yes	2.33820500000002	0	634586	251
1240.5	2	taste	foodImageDisplay	3	151	31	foodImage.54	FOODEEG_Images\0560.jpg	YN	Left	Yes	2.33820500000002	0	635137	252
1242.564453125	2.33820500000002	taste	choicePhaseStart	3	151	31	foodImage.54	FOODEEG_Images\0560.jpg	YN	Left	Yes	2.33820500000002	0	636194	253
1244.892578125	0	taste	response	3	151	31	foodImage.54	FOODEEG_Images\0560.jpg	YN	Left	Yes	2.33820500000002	0	637386	234
1245.935546875	1	taste	trialStart	3	152	32	foodImage.5	FOODEEG_Images\0107.jpg	YN	Left	Yes	1.30800660000023	0	637920	251
1246.994140625	2	taste	foodImageDisplay	3	152	32	foodImage.5	FOODEEG_Images\0107.jpg	YN	Left	Yes	1.30800660000023	0	638462	252
1249.0625	1.30800660000023	taste	choicePhaseStart	3	152	32	foodImage.5	FOODEEG_Images\0107.jpg	YN	Left	Yes	1.30800660000023	0	639521	253
1250.365234375	0	taste	response	3	152	32	foodImage.5	FOODEEG_Images\0107.jpg	YN	Left	Yes	1.30800660000023	0	640188	234
1251.408203125	1	taste	trialStart	3	153	33	foodImage.107	FOODEEG_Images\0915.jpg	NY	Right	Yes	1.42322119999972	0	640722	251
1252.447265625	2	taste	foodImageDisplay	3	153	33	foodImage.107	FOODEEG_Images\0915.jpg	NY	Right	Yes	1.42322119999972	0	641254	252
1254.509765625	1.42322119999972	taste	choicePhaseStart	3	153	33	foodImage.107	FOODEEG_Images\0915.jpg	NY	Right	Yes	1.42322119999972	0	642310	253
1255.923828125	0	taste	response	3	153	33	foodImage.107	FOODEEG_Images\0915.jpg	NY	Right	Yes	1.42322119999972	0	643034	235
1256.97265625	1	health	trialStart	3	154	34	foodImage.82	FOODEEG_Images\0805.jpg	YN	Left	Yes	1.33520070000031	0	643571	251
1258.029296875	2	health	foodImageDisplay	3	154	34	foodImage.82	FOODEEG_Images\0805.jpg	YN	Left	Yes	1.33520070000031	0	644112	252
1260.09375	1.33520070000031	health	choicePhaseStart	3	154	34	foodImage.82	FOODEEG_Images\0805.jpg	YN	Left	Yes	1.33520070000031	0	645169	253
1261.419921875	0	health	response	3	154	34	foodImage.82	FOODEEG_Images\0805.jpg	YN	Left	Yes	1.33520070000031	0	645848	234
1262.462890625	1	decision	trialStart	3	155	35	foodImage.12	FOODEEG_Images\0181.jpg	YN	Left	Yes	1.16081489999942	0	646382	251
1263.505859375	2	decision	foodImageDisplay	3	155	35	foodImage.12	FOODEEG_Images\0181.jpg	YN	Left	Yes	1.16081489999942	0	646916	252
1265.572265625	1.16081489999942	decision	choicePhaseStart	3	155	35	foodImage.12	FOODEEG_Images\0181.jpg	YN	Left	Yes	1.16081489999942	0	647974	253
1266.724609375	0	decision	response	3	155	35	foodImage.12	FOODEEG_Images\0181.jpg	YN	Left	Yes	1.16081489999942	0	648564	234
1267.76953125	1	health	trialStart	3	156	36	foodImage.47	FOODEEG_Images\0488.jpg	YN	Right	No	1.09707400000025	0	649099	251
1268.822265625	2	health	foodImageDisplay	3	156	36	foodImage.47	FOODEEG_Images\0488.jpg	YN	Right	No	1.09707400000025	0	649638	252
1270.890625	1.09707400000025	health	choicePhaseStart	3	156	36	foodImage.47	FOODEEG_Images\0488.jpg	YN	Right	No	1.09707400000025	0	650697	253
1271.98046875	0	health	response	3	156	36	foodImage.47	FOODEEG_Images\0488.jpg	YN	Right	No	1.09707400000025	0	651255	235
1273.025390625	1	decision	trialStart	3	157	37	foodImage.77	FOODEEG_Images\0771.jpg	NY	Right	Yes	1.31309020000026	0	651790	251
1274.0703125	2	decision	foodImageDisplay	3	157	37	foodImage.77	FOODEEG_Images\0771.jpg	NY	Right	Yes	1.31309020000026	0	652325	252
1276.138671875	1.31309020000026	decision	choicePhaseStart	3	157	37	foodImage.77	FOODEEG_Images\0771.jpg	NY	Right	Yes	1.31309020000026	0	653384	253
1277.443359375	0	decision	response	3	157	37	foodImage.77	FOODEEG_Images\0771.jpg	NY	Right	Yes	1.31309020000026	0	654052	235
1278.486328125	1	taste	trialStart	3	158	38	foodImage.108	FOODEEG_Images\0916.jpg	NY	Left	No	1.98438390000047	0	654586	251
1279.525390625	2	taste	foodImageDisplay	3	158	38	foodImage.108	FOODEEG_Images\0916.jpg	NY	Left	No	1.98438390000047	0	655118	252
1281.591796875	1.98438390000047	taste	choicePhaseStart	3	158	38	foodImage.108	FOODEEG_Images\0916.jpg	NY	Left	No	1.98438390000047	0	656176	253
1283.572265625	0	taste	response	3	158	38	foodImage.108	FOODEEG_Images\0916.jpg	NY	Left	No	1.98438390000047	0	657190	234
1284.615234375	1	health	trialStart	3	159	39	foodImage.107	FOODEEG_Images\0915.jpg	NY	Right	Yes	1.54226670000025	0	657724	251
1285.654296875	2	health	foodImageDisplay	3	159	39	foodImage.107	FOODEEG_Images\0915.jpg	NY	Right	Yes	1.54226670000025	0	658256	252
1287.71875	1.54226670000025	health	choicePhaseStart	3	159	39	foodImage.107	FOODEEG_Images\0915.jpg	NY	Right	Yes	1.54226670000025	0	659313	253
1289.251953125	0	health	response	3	159	39	foodImage.107	FOODEEG_Images\0915.jpg	NY	Right	Yes	1.54226670000025	0	660098	235
1290.294921875	1	health	trialStart	3	160	40	foodImage.17	FOODEEG_Images\0199.jpg	NY	Right	Yes	1.30743100000018	0	660632	251
1291.337890625	2	health	foodImageDisplay	3	160	40	foodImage.17	FOODEEG_Images\0199.jpg	NY	Right	Yes	1.30743100000018	0	661166	252
1293.40625	1.30743100000018	health	choicePhaseStart	3	160	40	foodImage.17	FOODEEG_Images\0199.jpg	NY	Right	Yes	1.30743100000018	0	662225	253
1294.70703125	0	health	response	3	160	40	foodImage.17	FOODEEG_Images\0199.jpg	NY	Right	Yes	1.30743100000018	0	662891	235
1295.75	1	decision	trialStart	3	161	41	foodImage.85	FOODEEG_Images\0841.jpg	YN	Left	Yes	1.09168349999982	0	663425	251
1296.80859375	2	decision	foodImageDisplay	3	161	41	foodImage.85	FOODEEG_Images\0841.jpg	YN	Left	Yes	1.09168349999982	0	663967	252
1298.87109375	1.09168349999982	decision	choicePhaseStart	3	161	41	foodImage.85	FOODEEG_Images\0841.jpg	YN	Left	Yes	1.09168349999982	0	665023	253
1299.955078125	0	decision	response	3	161	41	foodImage.85	FOODEEG_Images\0841.jpg	YN	Left	Yes	1.09168349999982	0	665578	234
1300.998046875	1	taste	trialStart	3	162	42	foodImage.100	FOODEEG_Images\0908.jpg	NY	Right	Yes	1.01157240000066	0	666112	251
1302.044921875	2	taste	foodImageDisplay	3	162	42	foodImage.100	FOODEEG_Images\0908.jpg	NY	Right	Yes	1.01157240000066	0	666648	252
1304.109375	1.01157240000066	taste	choicePhaseStart	3	162	42	foodImage.100	FOODEEG_Images\0908.jpg	NY	Right	Yes	1.01157240000066	0	667705	253
1305.115234375	0	taste	response	3	162	42	foodImage.100	FOODEEG_Images\0908.jpg	NY	Right	Yes	1.01157240000066	0	668220	235
1306.15625	1	taste	trialStart	3	163	43	foodImage.2	FOODEEG_Images\0028.jpg	YN	Left	Yes	1.15821700000015	0	668753	251
1307.19921875	2	taste	foodImageDisplay	3	163	43	foodImage.2	FOODEEG_Images\0028.jpg	YN	Left	Yes	1.15821700000015	0	669287	252
1309.26171875	1.15821700000015	taste	choicePhaseStart	3	163	43	foodImage.2	FOODEEG_Images\0028.jpg	YN	Left	Yes	1.15821700000015	0	670343	253
1310.41015625	0	taste	response	3	163	43	foodImage.2	FOODEEG_Images\0028.jpg	YN	Left	Yes	1.15821700000015	0	670931	234
1311.453125	1	taste	trialStart	3	164	44	foodImage.20	FOODEEG_Images\0226.jpg	YN	Right	No	1.15530870000021	0	671465	251
1312.49609375	2	taste	foodImageDisplay	3	164	44	foodImage.20	FOODEEG_Images\0226.jpg	YN	Right	No	1.15530870000021	0	671999	252
1314.560546875	1.15530870000021	taste	choicePhaseStart	3	164	44	foodImage.20	FOODEEG_Images\0226.jpg	YN	Right	No	1.15530870000021	0	673056	253
1315.70703125	0	taste	response	3	164	44	foodImage.20	FOODEEG_Images\0226.jpg	YN	Right	No	1.15530870000021	0	673643	235
1316.75	1	decision	trialStart	3	165	45	foodImage.1	FOODEEG_Images\0004.jpg	NY	Right	Yes	0.96620780000012	0	674177	251
1317.791015625	2	decision	foodImageDisplay	3	165	45	foodImage.1	FOODEEG_Images\0004.jpg	NY	Right	Yes	0.96620780000012	0	674710	252
1319.859375	0.96620780000012	decision	choicePhaseStart	3	165	45	foodImage.1	FOODEEG_Images\0004.jpg	NY	Right	Yes	0.96620780000012	0	675769	253
1320.818359375	0	decision	response	3	165	45	foodImage.1	FOODEEG_Images\0004.jpg	NY	Right	Yes	0.96620780000012	0	676260	235
1321.861328125	1	health	trialStart	3	166	46	foodImage.65	FOODEEG_Images\0658.jpg	YN	Left	Yes	2.2279180000005	0	676794	251
1322.904296875	2	health	foodImageDisplay	3	166	46	foodImage.65	FOODEEG_Images\0658.jpg	YN	Left	Yes	2.2279180000005	0	677328	252
1324.97265625	2.2279180000005	health	choicePhaseStart	3	166	46	foodImage.65	FOODEEG_Images\0658.jpg	YN	Left	Yes	2.2279180000005	0	678387	253
1327.193359375	0	health	response	3	166	46	foodImage.65	FOODEEG_Images\0658.jpg	YN	Left	Yes	2.2279180000005	0	679524	234
1328.23828125	1	health	trialStart	3	167	47	foodImage.66	FOODEEG_Images\0676.jpg	YN	Right	No	0.996779300000526	0	680059	251
1329.279296875	2	health	foodImageDisplay	3	167	47	foodImage.66	FOODEEG_Images\0676.jpg	YN	Right	No	0.996779300000526	0	680592	252
1331.34765625	0.996779300000526	health	choicePhaseStart	3	167	47	foodImage.66	FOODEEG_Images\0676.jpg	YN	Right	No	0.996779300000526	0	681651	253
1332.337890625	0	health	response	3	167	47	foodImage.66	FOODEEG_Images\0676.jpg	YN	Right	No	0.996779300000526	0	682158	235
1333.384765625	1	health	trialStart	3	168	48	foodImage.32	FOODEEG_Images\0319.jpg	NY	Right	Yes	1.14588710000044	0	682694	251
1334.427734375	2	health	foodImageDisplay	3	168	48	foodImage.32	FOODEEG_Images\0319.jpg	NY	Right	Yes	1.14588710000044	0	683228	252
1336.49609375	1.14588710000044	health	choicePhaseStart	3	168	48	foodImage.32	FOODEEG_Images\0319.jpg	NY	Right	Yes	1.14588710000044	0	684287	253
1337.6328125	0	health	response	3	168	48	foodImage.32	FOODEEG_Images\0319.jpg	NY	Right	Yes	1.14588710000044	0	684869	235
1338.67578125	1	decision	trialStart	3	169	49	foodImage.113	FOODEEG_Images\0921.jpg	YN	Left	Yes	1.24562070000047	0	685403	251
1339.71484375	2	decision	foodImageDisplay	3	169	49	foodImage.113	FOODEEG_Images\0921.jpg	YN	Left	Yes	1.24562070000047	0	685935	252
1341.78125	1.24562070000047	decision	choicePhaseStart	3	169	49	foodImage.113	FOODEEG_Images\0921.jpg	YN	Left	Yes	1.24562070000047	0	686993	253
1343.017578125	0	decision	response	3	169	49	foodImage.113	FOODEEG_Images\0921.jpg	YN	Left	Yes	1.24562070000047	0	687626	234
1344.060546875	1	taste	trialStart	3	170	50	foodImage.49	FOODEEG_Images\0515.jpg	YN	Left	Yes	1.57553920000009	0	688160	251
1345.125	2	taste	foodImageDisplay	3	170	50	foodImage.49	FOODEEG_Images\0515.jpg	YN	Left	Yes	1.57553920000009	0	688705	252
1347.193359375	1.57553920000009	taste	choicePhaseStart	3	170	50	foodImage.49	FOODEEG_Images\0515.jpg	YN	Left	Yes	1.57553920000009	0	689764	253
1348.76171875	0	taste	response	3	170	50	foodImage.49	FOODEEG_Images\0515.jpg	YN	Left	Yes	1.57553920000009	0	690567	234
1349.8046875	1	health	trialStart	3	171	51	foodImage.61	FOODEEG_Images\0640.jpg	NY	Right	Yes	0.906650299999455	0	691101	251
1350.84765625	2	health	foodImageDisplay	3	171	51	foodImage.61	FOODEEG_Images\0640.jpg	NY	Right	Yes	0.906650299999455	0	691635	252
1352.916015625	0.906650299999455	health	choicePhaseStart	3	171	51	foodImage.61	FOODEEG_Images\0640.jpg	NY	Right	Yes	0.906650299999455	0	692694	253
1353.81640625	0	health	response	3	171	51	foodImage.61	FOODEEG_Images\0640.jpg	NY	Right	Yes	0.906650299999455	0	693155	235
1354.859375	1	decision	trialStart	3	172	52	foodImage.119	FOODEEG_Images\0927.jpg	NY	Left	No	1.17353810000077	0	693689	251
1355.8984375	2	decision	foodImageDisplay	3	172	52	foodImage.119	FOODEEG_Images\0927.jpg	NY	Left	No	1.17353810000077	0	694221	252
1357.96484375	1.17353810000077	decision	choicePhaseStart	3	172	52	foodImage.119	FOODEEG_Images\0927.jpg	NY	Left	No	1.17353810000077	0	695279	253
1359.12890625	0	decision	response	3	172	52	foodImage.119	FOODEEG_Images\0927.jpg	NY	Left	No	1.17353810000077	0	695875	234
1360.171875	1	health	trialStart	3	173	53	foodImage.116	FOODEEG_Images\0924.jpg	NY	Left	No	1.84088379999957	0	696409	251
1361.2109375	2	health	foodImageDisplay	3	173	53	foodImage.116	FOODEEG_Images\0924.jpg	NY	Left	No	1.84088379999957	0	696941	252
1363.2734375	1.84088379999957	health	choicePhaseStart	3	173	53	foodImage.116	FOODEEG_Images\0924.jpg	NY	Left	No	1.84088379999957	0	697997	253
1365.103515625	0	health	response	3	173	53	foodImage.116	FOODEEG_Images\0924.jpg	NY	Left	No	1.84088379999957	0	698934	234
1366.146484375	1	taste	trialStart	3	174	54	foodImage.68	FOODEEG_Images\0685.jpg	YN	Left	Yes	1.71260410000014	0	699468	251
1367.2265625	2	taste	foodImageDisplay	3	174	54	foodImage.68	FOODEEG_Images\0685.jpg	YN	Left	Yes	1.71260410000014	0	700021	252
1369.294921875	1.71260410000014	taste	choicePhaseStart	3	174	54	foodImage.68	FOODEEG_Images\0685.jpg	YN	Left	Yes	1.71260410000014	0	701080	253
1371	0	taste	response	3	174	54	foodImage.68	FOODEEG_Images\0685.jpg	YN	Left	Yes	1.71260410000014	0	701953	234
1372.04296875	1	health	trialStart	3	175	55	foodImage.86	FOODEEG_Images\0844.jpg	NY	Left	No	1.00273340000058	0	702487	251
1373.1015625	2	health	foodImageDisplay	3	175	55	foodImage.86	FOODEEG_Images\0844.jpg	NY	Left	No	1.00273340000058	0	703029	252
1375.171875	1.00273340000058	health	choicePhaseStart	3	175	55	foodImage.86	FOODEEG_Images\0844.jpg	NY	Left	No	1.00273340000058	0	704089	253
1376.16796875	0	health	response	3	175	55	foodImage.86	FOODEEG_Images\0844.jpg	NY	Left	No	1.00273340000058	0	704599	234
1377.2109375	1	decision	trialStart	3	176	56	foodImage.5	FOODEEG_Images\0107.jpg	NY	Right	Yes	1.05246870000065	0	705133	251
1378.26953125	2	decision	foodImageDisplay	3	176	56	foodImage.5	FOODEEG_Images\0107.jpg	NY	Right	Yes	1.05246870000065	0	705675	252
1380.33203125	1.05246870000065	decision	choicePhaseStart	3	176	56	foodImage.5	FOODEEG_Images\0107.jpg	NY	Right	Yes	1.05246870000065	0	706731	253
1381.375	0	decision	response	3	176	56	foodImage.5	FOODEEG_Images\0107.jpg	NY	Right	Yes	1.05246870000065	0	707265	235
1382.41796875	1	taste	trialStart	3	177	57	foodImage.92	FOODEEG_Images\0900.jpg	YN	Left	Yes	1.28029890000016	0	707799	251
1383.45703125	2	taste	foodImageDisplay	3	177	57	foodImage.92	FOODEEG_Images\0900.jpg	YN	Left	Yes	1.28029890000016	0	708331	252
1385.51953125	1.28029890000016	taste	choicePhaseStart	3	177	57	foodImage.92	FOODEEG_Images\0900.jpg	YN	Left	Yes	1.28029890000016	0	709387	253
1386.791015625	0	taste	response	3	177	57	foodImage.92	FOODEEG_Images\0900.jpg	YN	Left	Yes	1.28029890000016	0	710038	234
1387.833984375	1	decision	trialStart	3	178	58	foodImage.86	FOODEEG_Images\0844.jpg	NY	Right	Yes	0.940853600000082	0	710572	251
1388.890625	2	decision	foodImageDisplay	3	178	58	foodImage.86	FOODEEG_Images\0844.jpg	NY	Right	Yes	0.940853600000082	0	711113	252
1390.955078125	0.940853600000082	decision	choicePhaseStart	3	178	58	foodImage.86	FOODEEG_Images\0844.jpg	NY	Right	Yes	0.940853600000082	0	712170	253
1391.88671875	0	decision	response	3	178	58	foodImage.86	FOODEEG_Images\0844.jpg	NY	Right	Yes	0.940853600000082	0	712647	235
1392.9375	1	decision	trialStart	3	179	59	foodImage.3	FOODEEG_Images\0046.jpg	NY	Right	Yes	1.25975800000015	0	713185	251
1393.98046875	2	decision	foodImageDisplay	3	179	59	foodImage.3	FOODEEG_Images\0046.jpg	NY	Right	Yes	1.25975800000015	0	713719	252
1396.044921875	1.25975800000015	decision	choicePhaseStart	3	179	59	foodImage.3	FOODEEG_Images\0046.jpg	NY	Right	Yes	1.25975800000015	0	714776	253
1397.294921875	0	decision	response	3	179	59	foodImage.3	FOODEEG_Images\0046.jpg	NY	Right	Yes	1.25975800000015	0	715416	235
1398.337890625	1	health	trialStart	3	180	60	foodImage.79	FOODEEG_Images\0794.jpg	YN	Left	Yes	1.02692359999946	0	715950	251
1399.380859375	2	health	foodImageDisplay	3	180	60	foodImage.79	FOODEEG_Images\0794.jpg	YN	Left	Yes	1.02692359999946	0	716484	252
1401.4453125	1.02692359999946	health	choicePhaseStart	3	180	60	foodImage.79	FOODEEG_Images\0794.jpg	YN	Left	Yes	1.02692359999946	0	717541	253
1402.462890625	0	health	response	3	180	60	foodImage.79	FOODEEG_Images\0794.jpg	YN	Left	Yes	1.02692359999946	0	718062	234
1404.505859375	11.193359375	n/a	blockEnd	n/a	n/a	n/a	n/a	n/a	n/a	n/a	n/a	n/a	n/a	719108	254
1415.69921875	2	n/a	blockStart	4	n/a	n/a	n/a	n/a	n/a	n/a	n/a	n/a	n/a	724839	250
1417.73046875	1	decision	trialStart	4	181	1	foodImage.82	FOODEEG_Images\0805.jpg	YN	Left	Yes	1.45240459999968	0	725879	251
1418.787109375	2	decision	foodImageDisplay	4	181	1	foodImage.82	FOODEEG_Images\0805.jpg	YN	Left	Yes	1.45240459999968	0	726420	252
1420.849609375	1.45240459999968	decision	choicePhaseStart	4	181	1	foodImage.82	FOODEEG_Images\0805.jpg	YN	Left	Yes	1.45240459999968	0	727476	253
1422.29296875	0	decision	response	4	181	1	foodImage.82	FOODEEG_Images\0805.jpg	YN	Left	Yes	1.45240459999968	0	728215	234
1423.337890625	1	health	trialStart	4	182	2	foodImage.110	FOODEEG_Images\0918.jpg	NY	Left	No	1.08683290000045	0	728750	251
1424.390625	2	health	foodImageDisplay	4	182	2	foodImage.110	FOODEEG_Images\0918.jpg	NY	Left	No	1.08683290000045	0	729289	252
1426.455078125	1.08683290000045	health	choicePhaseStart	4	182	2	foodImage.110	FOODEEG_Images\0918.jpg	NY	Left	No	1.08683290000045	0	730346	253
1427.533203125	0	health	response	4	182	2	foodImage.110	FOODEEG_Images\0918.jpg	NY	Left	No	1.08683290000045	0	730898	234
1428.576171875	1	decision	trialStart	4	183	3	foodImage.102	FOODEEG_Images\0910.jpg	YN	Right	No	1.00319599999966	0	731432	251
1429.615234375	2	decision	foodImageDisplay	4	183	3	foodImage.102	FOODEEG_Images\0910.jpg	YN	Right	No	1.00319599999966	0	731964	252
1431.68359375	1.00319599999966	decision	choicePhaseStart	4	183	3	foodImage.102	FOODEEG_Images\0910.jpg	YN	Right	No	1.00319599999966	0	733023	253
1432.677734375	0	decision	response	4	183	3	foodImage.102	FOODEEG_Images\0910.jpg	YN	Right	No	1.00319599999966	0	733532	235
1433.720703125	1	decision	trialStart	4	184	4	foodImage.22	FOODEEG_Images\0236.jpg	NY	Right	Yes	1.99627180000061	0	734066	251
1434.76171875	2	decision	foodImageDisplay	4	184	4	foodImage.22	FOODEEG_Images\0236.jpg	NY	Right	Yes	1.99627180000061	0	734599	252
1436.826171875	1.99627180000061	decision	choicePhaseStart	4	184	4	foodImage.22	FOODEEG_Images\0236.jpg	NY	Right	Yes	1.99627180000061	0	735656	253
1438.814453125	0	decision	response	4	184	4	foodImage.22	FOODEEG_Images\0236.jpg	NY	Right	Yes	1.99627180000061	0	736674	235
1439.857421875	1	taste	trialStart	4	185	5	foodImage.67	FOODEEG_Images\0679.jpg	NY	Right	Yes	1.27082229999996	0	737208	251
1440.916015625	2	taste	foodImageDisplay	4	185	5	foodImage.67	FOODEEG_Images\0679.jpg	NY	Right	Yes	1.27082229999996	0	737750	252
1442.984375	1.27082229999996	taste	choicePhaseStart	4	185	5	foodImage.67	FOODEEG_Images\0679.jpg	NY	Right	Yes	1.27082229999996	0	738809	253
1444.24609375	0	taste	response	4	185	5	foodImage.67	FOODEEG_Images\0679.jpg	NY	Right	Yes	1.27082229999996	0	739455	235
1445.2890625	1	health	trialStart	4	186	6	foodImage.27	FOODEEG_Images\0263.jpg	NY	Right	Yes	1.35741380000036	0	739989	251
1446.330078125	2	health	foodImageDisplay	4	186	6	foodImage.27	FOODEEG_Images\0263.jpg	NY	Right	Yes	1.35741380000036	0	740522	252
1448.3984375	1.35741380000036	health	choicePhaseStart	4	186	6	foodImage.27	FOODEEG_Images\0263.jpg	NY	Right	Yes	1.35741380000036	0	741581	253
1449.75	0	health	response	4	186	6	foodImage.27	FOODEEG_Images\0263.jpg	NY	Right	Yes	1.35741380000036	0	742273	235
1450.79296875	1	taste	trialStart	4	187	7	foodImage.59	FOODEEG_Images\0607.jpg	YN	Left	Yes	1.03351699999985	0	742807	251
1451.837890625	2	taste	foodImageDisplay	4	187	7	foodImage.59	FOODEEG_Images\0607.jpg	YN	Left	Yes	1.03351699999985	0	743342	252
1453.90625	1.03351699999985	taste	choicePhaseStart	4	187	7	foodImage.59	FOODEEG_Images\0607.jpg	YN	Left	Yes	1.03351699999985	0	744401	253
1454.93359375	0	taste	response	4	187	7	foodImage.59	FOODEEG_Images\0607.jpg	YN	Left	Yes	1.03351699999985	0	744927	234
1455.9765625	1	taste	trialStart	4	188	8	foodImage.109	FOODEEG_Images\0917.jpg	NY	Right	Yes	3.59320130000015	0	745461	251
1457.013671875	2	taste	foodImageDisplay	4	188	8	foodImage.109	FOODEEG_Images\0917.jpg	NY	Right	Yes	3.59320130000015	0	745992	252
1459.076171875	3.59320130000015	taste	choicePhaseStart	4	188	8	foodImage.109	FOODEEG_Images\0917.jpg	NY	Right	Yes	3.59320130000015	0	747048	253
1462.66015625	0	taste	response	4	188	8	foodImage.109	FOODEEG_Images\0917.jpg	NY	Right	Yes	3.59320130000015	0	748883	235
1463.70703125	1	taste	trialStart	4	189	9	foodImage.25	FOODEEG_Images\0261.jpg	NY	Left	No	1.18160500000067	0	749419	251
1464.763671875	2	taste	foodImageDisplay	4	189	9	foodImage.25	FOODEEG_Images\0261.jpg	NY	Left	No	1.18160500000067	0	749960	252
1466.83203125	1.18160500000067	taste	choicePhaseStart	4	189	9	foodImage.25	FOODEEG_Images\0261.jpg	NY	Left	No	1.18160500000067	0	751019	253
1468.00390625	0	taste	response	4	189	9	foodImage.25	FOODEEG_Images\0261.jpg	NY	Left	No	1.18160500000067	0	751619	234
1469.048828125	1	decision	trialStart	4	190	10	foodImage.14	FOODEEG_Images\0188.jpg	NY	Right	Yes	0.927323799999613	0	752154	251
1470.109375	2	decision	foodImageDisplay	4	190	10	foodImage.14	FOODEEG_Images\0188.jpg	NY	Right	Yes	0.927323799999613	0	752697	252
1472.173828125	0.927323799999613	decision	choicePhaseStart	4	190	10	foodImage.14	FOODEEG_Images\0188.jpg	NY	Right	Yes	0.927323799999613	0	753754	253
1473.091796875	0	decision	response	4	190	10	foodImage.14	FOODEEG_Images\0188.jpg	NY	Right	Yes	0.927323799999613	0	754224	235
1474.134765625	1	decision	trialStart	4	191	11	foodImage.66	FOODEEG_Images\0676.jpg	YN	Left	Yes	1.04304049999973	0	754758	251
1475.17578125	2	decision	foodImageDisplay	4	191	11	foodImage.66	FOODEEG_Images\0676.jpg	YN	Left	Yes	1.04304049999973	0	755291	252
1477.240234375	1.04304049999973	decision	choicePhaseStart	4	191	11	foodImage.66	FOODEEG_Images\0676.jpg	YN	Left	Yes	1.04304049999973	0	756348	253
1478.275390625	0	decision	response	4	191	11	foodImage.66	FOODEEG_Images\0676.jpg	YN	Left	Yes	1.04304049999973	0	756878	234
1479.3203125	1	taste	trialStart	4	192	12	foodImage.120	FOODEEG_Images\0928.jpg	YN	Left	Yes	1.23012130000006	0	757413	251
1480.357421875	2	taste	foodImageDisplay	4	192	12	foodImage.120	FOODEEG_Images\0928.jpg	YN	Left	Yes	1.23012130000006	0	757944	252
1482.421875	1.23012130000006	taste	choicePhaseStart	4	192	12	foodImage.120	FOODEEG_Images\0928.jpg	YN	Left	Yes	1.23012130000006	0	759001	253
1483.64453125	0	taste	response	4	192	12	foodImage.120	FOODEEG_Images\0928.jpg	YN	Left	Yes	1.23012130000006	0	759627	234
1484.685546875	1	taste	trialStart	4	193	13	foodImage.74	FOODEEG_Images\0752.jpg	YN	Left	Yes	0.826529500000106	0	760160	251
1485.73046875	2	taste	foodImageDisplay	4	193	13	foodImage.74	FOODEEG_Images\0752.jpg	YN	Left	Yes	0.826529500000106	0	760695	252
1487.794921875	0.826529500000106	taste	choicePhaseStart	4	193	13	foodImage.74	FOODEEG_Images\0752.jpg	YN	Left	Yes	0.826529500000106	0	761752	253
