onset	duration	trial_type	event_type	block	trial_total	trial_in_block	food_image_code	food_image_path	button_position	resp_position	resp_choice	choice_rt	resp_too_slow	sample	trigger
403.458984375	2	n/a	blockStart	1	n/a	n/a	n/a	n/a	n/a	n/a	n/a	n/a	n/a	206572	250
405.51171875	1	decision	trialStart	1	1	1	foodImage.19	FOODEEG_Images\0225.jpg	YN	Right	No	1.17052309999963	0	207623	251
406.5625	2	decision	foodImageDisplay	1	1	1	foodImage.19	FOODEEG_Images\0225.jpg	YN	Right	No	1.17052309999963	0	208161	252
408.626953125	1.17052309999963	decision	choicePhaseStart	1	1	1	foodImage.19	FOODEEG_Images\0225.jpg	YN	Right	No	1.17052309999963	0	209218	253
409.791015625	0	decision	response	1	1	1	foodImage.19	FOODEEG_Images\0225.jpg	YN	Right	No	1.17052309999963	0	209814	235
410.89453125	1	health	trialStart	1	2	2	foodImage.67	FOODEEG_Images\0679.jpg	YN	Right	No	0.953538499999922	0	210379	251
411.95703125	2	health	foodImageDisplay	1	2	2	foodImage.67	FOODEEG_Images\0679.jpg	YN	Right	No	0.953538499999922	0	210923	252
414.021484375	0.953538499999922	health	choicePhaseStart	1	2	2	foodImage.67	FOODEEG_Images\0679.jpg	YN	Right	No	0.953538499999922	0	211980	253
414.966796875	0	health	response	1	2	2	foodImage.67	FOODEEG_Images\0679.jpg	YN	Right	No	0.953538499999922	0	212464	235
416.01953125	1	health	trialStart	1	3	3	foodImage.47	FOODEEG_Images\0488.jpg	YN	Right	No	0.639595599999666	0	213003	251
417.060546875	2	health	foodImageDisplay	1	3	3	foodImage.47	FOODEEG_Images\0488.jpg	YN	Right	No	0.639595599999666	0	213536	252
419.130859375	0.639595599999666	health	choicePhaseStart	1	3	3	foodImage.47	FOODEEG_Images\0488.jpg	YN	Right	No	0.639595599999666	0	214596	253
419.765625	0	health	response	1	3	3	foodImage.47	FOODEEG_Images\0488.jpg	YN	Right	No	0.639595599999666	0	214921	235
420.810546875	1	decision	trialStart	1	4	4	foodImage.12	FOODEEG_Images\0181.jpg	NY	Right	Yes	1.43933749999997	0	215456	251
421.85546875	2	decision	foodImageDisplay	1	4	4	foodImage.12	FOODEEG_Images\0181.jpg	NY	Right	Yes	1.43933749999997	0	215991	252
423.919921875	1.43933749999997	decision	choicePhaseStart	1	4	4	foodImage.12	FOODEEG_Images\0181.jpg	NY	Right	Yes	1.43933749999997	0	217048	253
425.3515625	0	decision	response	1	4	4	foodImage.12	FOODEEG_Images\0181.jpg	NY	Right	Yes	1.43933749999997	0	217781	235
426.3984375	1	decision	trialStart	1	5	5	foodImage.18	FOODEEG_Images\0202.jpg	YN	Left	Yes	0.869674800000212	0	218317	251
427.458984375	2	decision	foodImageDisplay	1	5	5	foodImage.18	FOODEEG_Images\0202.jpg	YN	Left	Yes	0.869674800000212	0	218860	252
429.525390625	0.869674800000212	decision	choicePhaseStart	1	5	5	foodImage.18	FOODEEG_Images\0202.jpg	YN	Left	Yes	0.869674800000212	0	219918	253
430.388671875	0	decision	response	1	5	5	foodImage.18	FOODEEG_Images\0202.jpg	YN	Left	Yes	0.869674800000212	0	220360	234
431.46484375	1	decision	trialStart	1	6	6	foodImage.28	FOODEEG_Images\0273.jpg	YN	Left	Yes	1.13584489999994	0	220911	251
432.509765625	2	decision	foodImageDisplay	1	6	6	foodImage.28	FOODEEG_Images\0273.jpg	YN	Left	Yes	1.13584489999994	0	221446	252
434.572265625	1.13584489999994	decision	choicePhaseStart	1	6	6	foodImage.28	FOODEEG_Images\0273.jpg	YN	Left	Yes	1.13584489999994	0	222502	253
435.701171875	0	decision	response	1	6	6	foodImage.28	FOODEEG_Images\0273.jpg	YN	Left	Yes	1.13584489999994	0	223080	234
436.744140625	1	health	trialStart	1	7	7	foodImage.108	FOODEEG_Images\0916.jpg	YN	Right	No	1.03140379999968	0	223614	251
437.78515625	2	health	foodImageDisplay	1	7	7	foodImage.108	FOODEEG_Images\0916.jpg	YN	Right	No	1.03140379999968	0	224147	252
439.853515625	1.03140379999968	health	choicePhaseStart	1	7	7	foodImage.108	FOODEEG_Images\0916.jpg	YN	Right	No	1.03140379999968	0	225206	253
440.876953125	0	health	response	1	7	7	foodImage.108	FOODEEG_Images\0916.jpg	YN	Right	No	1.03140379999968	0	225730	235
441.921875	1	taste	trialStart	1	8	8	foodImage.116	FOODEEG_Images\0924.jpg	YN	Right	No	0.995654500000001	0	226265	251
442.9609375	2	taste	foodImageDisplay	1	8	8	foodImage.116	FOODEEG_Images\0924.jpg	YN	Right	No	0.995654500000001	0	226797	252
445.025390625	0.995654500000001	taste	choicePhaseStart	1	8	8	foodImage.116	FOODEEG_Images\0924.jpg	YN	Right	No	0.995654500000001	0	227854	253
446.013671875	0	taste	response	1	8	8	foodImage.116	FOODEEG_Images\0924.jpg	YN	Right	No	0.995654500000001	0	228360	235
447.0625	1	decision	trialStart	1	9	9	foodImage.75	FOODEEG_Images\0763.jpg	YN	Left	Yes	0.6904313	0	228897	251
448.10546875	2	decision	foodImageDisplay	1	9	9	foodImage.75	FOODEEG_Images\0763.jpg	YN	Left	Yes	0.6904313	0	229431	252
450.169921875	0.6904313	decision	choicePhaseStart	1	9	9	foodImage.75	FOODEEG_Images\0763.jpg	YN	Left	Yes	0.6904313	0	230488	253
450.8515625	0	decision	response	1	9	9	foodImage.75	FOODEEG_Images\0763.jpg	YN	Left	Yes	0.6904313	0	230837	234
451.896484375	1	decision	trialStart	1	10	10	foodImage.76	FOODEEG_Images\0766.jpg	NY	Right	Yes	0.639325699999972	0	231372	251
452.94140625	2	decision	foodImageDisplay	1	10	10	foodImage.76	FOODEEG_Images\0766.jpg	NY	Right	Yes	0.639325699999972	0	231907	252
455.005859375	0.639325699999972	decision	choicePhaseStart	1	10	10	foodImage.76	FOODEEG_Images\0766.jpg	NY	Right	Yes	0.639325699999972	0	232964	253
455.63671875	0	decision	response	1	10	10	foodImage.76	FOODEEG_Images\0766.jpg	NY	Right	Yes	0.639325699999972	0	233287	235
456.685546875	1	taste	trialStart	1	11	11	foodImage.88	FOODEEG_Images\0878.jpg	NY	Right	Yes	1.1859172000004	0	233824	251
457.7421875	2	taste	foodImageDisplay	1	11	11	foodImage.88	FOODEEG_Images\0878.jpg	NY	Right	Yes	1.1859172000004	0	234365	252
459.80859375	1.1859172000004	taste	choicePhaseStart	1	11	11	foodImage.88	FOODEEG_Images\0878.jpg	NY	Right	Yes	1.1859172000004	0	235423	253
460.98828125	0	taste	response	1	11	11	foodImage.88	FOODEEG_Images\0878.jpg	NY	Right	Yes	1.1859172000004	0	236027	235
462.03125	1	health	trialStart	1	12	12	foodImage.98	FOODEEG_Images\0906.jpg	NY	Left	No	1.12687820000019	0	236561	251
463.0703125	2	health	foodImageDisplay	1	12	12	foodImage.98	FOODEEG_Images\0906.jpg	NY	Left	No	1.12687820000019	0	237093	252
465.1328125	1.12687820000019	health	choicePhaseStart	1	12	12	foodImage.98	FOODEEG_Images\0906.jpg	NY	Left	No	1.12687820000019	0	238149	253
466.251953125	0	health	response	1	12	12	foodImage.98	FOODEEG_Images\0906.jpg	NY	Left	No	1.12687820000019	0	238722	234
467.294921875	1	taste	trialStart	1	13	13	foodImage.65	FOODEEG_Images\0658.jpg	NY	Left	No	1.27472829999988	0	239256	251
468.337890625	2	taste	foodImageDisplay	1	13	13	foodImage.65	FOODEEG_Images\0658.jpg	NY	Left	No	1.27472829999988	0	239790	252
470.40234375	1.27472829999988	taste	choicePhaseStart	1	13	13	foodImage.65	FOODEEG_Images\0658.jpg	NY	Left	No	1.27472829999988	0	240847	253
471.67578125	0	taste	response	1	13	13	foodImage.65	FOODEEG_Images\0658.jpg	NY	Left	No	1.27472829999988	0	241499	234
472.71875	1	taste	trialStart	1	14	14	foodImage.111	FOODEEG_Images\0919.jpg	NY	Left	No	1.01203509999959	0	242033	251
473.759765625	2	taste	foodImageDisplay	1	14	14	foodImage.111	FOODEEG_Images\0919.jpg	NY	Left	No	1.01203509999959	0	242566	252
475.830078125	1.01203509999959	taste	choicePhaseStart	1	14	14	foodImage.111	FOODEEG_Images\0919.jpg	NY	Left	No	1.01203509999959	0	243626	253
476.8359375	0	taste	response	1	14	14	foodImage.111	FOODEEG_Images\0919.jpg	NY	Left	No	1.01203509999959	0	244141	234
477.87890625	1	taste	trialStart	1	15	15	foodImage.45	FOODEEG_Images\0478.jpg	YN	Left	Yes	2.0109195	0	244675	251
478.92578125	2	taste	foodImageDisplay	1	15	15	foodImage.45	FOODEEG_Images\0478.jpg	YN	Left	Yes	2.0109195	0	245211	252
480.990234375	2.0109195	taste	choicePhaseStart	1	15	15	foodImage.45	FOODEEG_Images\0478.jpg	YN	Left	Yes	2.0109195	0	246268	253
482.994140625	0	taste	response	1	15	15	foodImage.45	FOODEEG_Images\0478.jpg	YN	Left	Yes	2.0109195	0	247294	234
484.0390625	1	decision	trialStart	1	16	16	foodImage.49	FOODEEG_Images\0515.jpg	NY	Left	No	3.87431029999971	0	247829	251
485.08203125	2	decision	foodImageDisplay	1	16	16	foodImage.49	FOODEEG_Images\0515.jpg	NY	Left	No	3.87431029999971	0	248363	252
487.146484375	3.87431029999971	decision	choicePhaseStart	1	16	16	foodImage.49	FOODEEG_Images\0515.jpg	NY	Left	No	3.87431029999971	0	249420	253
491.01171875	0	decision	response	1	16	16	foodImage.49	FOODEEG_Images\0515.jpg	NY	Left	No	3.87431029999971	0	251399	234
492.052734375	1	health	trialStart	1	17	17	foodImage.73	FOODEEG_Images\0717.jpg	YN	Left	Yes	0.810414600000058	0	251932	251
493.125	2	health	foodImageDisplay	1	17	17	foodImage.73	FOODEEG_Images\0717.jpg	YN	Left	Yes	0.810414600000058	0	252481	252
495.189453125	0.810414600000058	health	choicePhaseStart	1	17	17	foodImage.73	FOODEEG_Images\0717.jpg	YN	Left	Yes	0.810414600000058	0	253538	253
495.994140625	0	health	response	1	17	17	foodImage.73	FOODEEG_Images\0717.jpg	YN	Left	Yes	0.810414600000058	0	253950	234
497.037109375	1	taste	trialStart	1	18	18	foodImage.56	FOODEEG_Images\0586.jpg	NY	Right	Yes	1.25859859999991	0	254484	251
498.08203125	2	taste	foodImageDisplay	1	18	18	foodImage.56	FOODEEG_Images\0586.jpg	NY	Right	Yes	1.25859859999991	0	255019	252
500.14453125	1.25859859999991	taste	choicePhaseStart	1	18	18	foodImage.56	FOODEEG_Images\0586.jpg	NY	Right	Yes	1.25859859999991	0	256075	253
501.39453125	0	taste	response	1	18	18	foodImage.56	FOODEEG_Images\0586.jpg	NY	Right	Yes	1.25859859999991	0	256715	235
502.4375	1	decision	trialStart	1	19	19	foodImage.10	FOODEEG_Images\0145.jpg	YN	Left	Yes	0.852504199999657	0	257249	251
503.517578125	2	decision	foodImageDisplay	1	19	19	foodImage.10	FOODEEG_Images\0145.jpg	YN	Left	Yes	0.852504199999657	0	257802	252
505.58203125	0.852504199999657	decision	choicePhaseStart	1	19	19	foodImage.10	FOODEEG_Images\0145.jpg	YN	Left	Yes	0.852504199999657	0	258859	253
506.42578125	0	decision	response	1	19	19	foodImage.10	FOODEEG_Images\0145.jpg	YN	Left	Yes	0.852504199999657	0	259291	234
507.46875	1	decision	trialStart	1	20	20	foodImage.25	FOODEEG_Images\0261.jpg	NY	Right	Yes	0.903691200000139	0	259825	251
508.509765625	2	decision	foodImageDisplay	1	20	20	foodImage.25	FOODEEG_Images\0261.jpg	NY	Right	Yes	0.903691200000139	0	260358	252
510.572265625	0.903691200000139	decision	choicePhaseStart	1	20	20	foodImage.25	FOODEEG_Images\0261.jpg	NY	Right	Yes	0.903691200000139	0	261414	253
511.466796875	0	decision	response	1	20	20	foodImage.25	FOODEEG_Images\0261.jpg	NY	Right	Yes	0.903691200000139	0	261872	235
512.509765625	1	health	trialStart	1	21	21	foodImage.115	FOODEEG_Images\0923.jpg	NY	Left	No	0.593150900000182	0	262406	251
513.546875	2	health	foodImageDisplay	1	21	21	foodImage.115	FOODEEG_Images\0923.jpg	NY	Left	No	0.593150900000182	0	262937	252
515.609375	0.593150900000182	health	choicePhaseStart	1	21	21	foodImage.115	FOODEEG_Images\0923.jpg	NY	Left	No	0.593150900000182	0	263993	253
516.193359375	0	health	response	1	21	21	foodImage.115	FOODEEG_Images\0923.jpg	NY	Left	No	0.593150900000182	0	264292	234
517.236328125	1	taste	trialStart	1	22	22	foodImage.40	FOODEEG_Images\0373.jpg	YN	Left	Yes	0.951927000000069	0	264826	251
518.279296875	2	taste	foodImageDisplay	1	22	22	foodImage.40	FOODEEG_Images\0373.jpg	YN	Left	Yes	0.951927000000069	0	265360	252
520.34765625	0.951927000000069	taste	choicePhaseStart	1	22	22	foodImage.40	FOODEEG_Images\0373.jpg	YN	Left	Yes	0.951927000000069	0	266419	253
521.2890625	0	taste	response	1	22	22	foodImage.40	FOODEEG_Images\0373.jpg	YN	Left	Yes	0.951927000000069	0	266901	234
522.333984375	1	taste	trialStart	1	23	23	foodImage.114	FOODEEG_Images\0922.jpg	NY	Left	No	0.853642000000036	0	267436	251
523.373046875	2	taste	foodImageDisplay	1	23	23	foodImage.114	FOODEEG_Images\0922.jpg	NY	Left	No	0.853642000000036	0	267968	252
525.4375	0.853642000000036	taste	choicePhaseStart	1	23	23	foodImage.114	FOODEEG_Images\0922.jpg	NY	Left	No	0.853642000000036	0	269025	253
526.28125	0	taste	response	1	23	23	foodImage.114	FOODEEG_Images\0922.jpg	NY	Left	No	0.853642000000036	0	269457	234
527.32421875	1	taste	trialStart	1	24	24	foodImage.18	FOODEEG_Images\0202.jpg	YN	Left	Yes	0.822322699999859	0	269991	251
528.37890625	2	taste	foodImageDisplay	1	24	24	foodImage.18	FOODEEG_Images\0202.jpg	YN	Left	Yes	0.822322699999859	0	270531	252
530.44140625	0.822322699999859	taste	choicePhaseStart	1	24	24	foodImage.18	FOODEEG_Images\0202.jpg	YN	Left	Yes	0.822322699999859	0	271587	253
531.2578125	0	taste	response	1	24	24	foodImage.18	FOODEEG_Images\0202.jpg	YN	Left	Yes	0.822322699999859	0	272005	234
532.298828125	1	taste	trialStart	1	25	25	foodImage.57	FOODEEG_Images\0587.jpg	YN	Left	Yes	0.752536899999996	0	272538	251
533.341796875	2	taste	foodImageDisplay	1	25	25	foodImage.57	FOODEEG_Images\0587.jpg	YN	Left	Yes	0.752536899999996	0	273072	252
535.41015625	0.752536899999996	taste	choicePhaseStart	1	25	25	foodImage.57	FOODEEG_Images\0587.jpg	YN	Left	Yes	0.752536899999996	0	274131	253
536.15234375	0	taste	response	1	25	25	foodImage.57	FOODEEG_Images\0587.jpg	YN	Left	Yes	0.752536899999996	0	274511	234
537.1953125	1	decision	trialStart	1	26	26	foodImage.74	FOODEEG_Images\0752.jpg	YN	Left	Yes	0.528983400000016	0	275045	251
538.2421875	2	decision	foodImageDisplay	1	26	26	foodImage.74	FOODEEG_Images\0752.jpg	YN	Left	Yes	0.528983400000016	0	275581	252
540.3046875	0.528983400000016	decision	choicePhaseStart	1	26	26	foodImage.74	FOODEEG_Images\0752.jpg	YN	Left	Yes	0.528983400000016	0	276637	253
540.82421875	0	decision	response	1	26	26	foodImage.74	FOODEEG_Images\0752.jpg	YN	Left	Yes	0.528983400000016	0	276903	234
541.8671875	1	taste	trialStart	1	27	27	foodImage.101	FOODEEG_Images\0909.jpg	YN	Right	No	0.623673500000223	0	277437	251
542.908203125	2	taste	foodImageDisplay	1	27	27	foodImage.101	FOODEEG_Images\0909.jpg	YN	Right	No	0.623673500000223	0	277970	252
544.970703125	0.623673500000223	taste	choicePhaseStart	1	27	27	foodImage.101	FOODEEG_Images\0909.jpg	YN	Right	No	0.623673500000223	0	279026	253
545.583984375	0	taste	response	1	27	27	foodImage.101	FOODEEG_Images\0909.jpg	YN	Right	No	0.623673500000223	0	279340	235
546.62890625	1	decision	trialStart	1	28	28	foodImage.98	FOODEEG_Images\0906.jpg	NY	Left	No	0.581732399999964	0	279875	251
547.66796875	2	decision	foodImageDisplay	1	28	28	foodImage.98	FOODEEG_Images\0906.jpg	NY	Left	No	0.581732399999964	0	280407	252
549.732421875	0.581732399999964	decision	choicePhaseStart	1	28	28	foodImage.98	FOODEEG_Images\0906.jpg	NY	Left	No	0.581732399999964	0	281464	253
550.3046875	0	decision	response	1	28	28	foodImage.98	FOODEEG_Images\0906.jpg	NY	Left	No	0.581732399999964	0	281757	234
551.349609375	1	taste	trialStart	1	29	29	foodImage.79	FOODEEG_Images\0794.jpg	YN	Left	Yes	0.585274900000059	0	282292	251
552.400390625	2	taste	foodImageDisplay	1	29	29	foodImage.79	FOODEEG_Images\0794.jpg	YN	Left	Yes	0.585274900000059	0	282830	252
554.462890625	0.585274900000059	taste	choicePhaseStart	1	29	29	foodImage.79	FOODEEG_Images\0794.jpg	YN	Left	Yes	0.585274900000059	0	283886	253
555.041015625	0	taste	response	1	29	29	foodImage.79	FOODEEG_Images\0794.jpg	YN	Left	Yes	0.585274900000059	0	284182	234
556.083984375	1	health	trialStart	1	30	30	foodImage.11	FOODEEG_Images\0180.jpg	YN	Left	Yes	0.820890899999995	0	284716	251
557.125	2	health	foodImageDisplay	1	30	30	foodImage.11	FOODEEG_Images\0180.jpg	YN	Left	Yes	0.820890899999995	0	285249	252
559.1875	0.820890899999995	health	choicePhaseStart	1	30	30	foodImage.11	FOODEEG_Images\0180.jpg	YN	Left	Yes	0.820890899999995	0	286305	253
560	0	health	response	1	30	30	foodImage.11	FOODEEG_Images\0180.jpg	YN	Left	Yes	0.820890899999995	0	286721	234
561.0625	1	health	trialStart	1	31	31	foodImage.55	FOODEEG_Images\0567.jpg	YN	Left	Yes	0.645338100000117	0	287265	251
562.1171875	2	health	foodImageDisplay	1	31	31	foodImage.55	FOODEEG_Images\0567.jpg	YN	Left	Yes	0.645338100000117	0	287805	252
564.1796875	0.645338100000117	health	choicePhaseStart	1	31	31	foodImage.55	FOODEEG_Images\0567.jpg	YN	Left	Yes	0.645338100000117	0	288861	253
564.81640625	0	health	response	1	31	31	foodImage.55	FOODEEG_Images\0567.jpg	YN	Left	Yes	0.645338100000117	0	289187	234
565.857421875	1	health	trialStart	1	32	32	foodImage.76	FOODEEG_Images\0766.jpg	YN	Left	Yes	0.787246800000048	0	289720	251
566.90234375	2	health	foodImageDisplay	1	32	32	foodImage.76	FOODEEG_Images\0766.jpg	YN	Left	Yes	0.787246800000048	0	290255	252
568.96484375	0.787246800000048	health	choicePhaseStart	1	32	32	foodImage.76	FOODEEG_Images\0766.jpg	YN	Left	Yes	0.787246800000048	0	291311	253
569.744140625	0	health	response	1	32	32	foodImage.76	FOODEEG_Images\0766.jpg	YN	Left	Yes	0.787246800000048	0	291710	234
570.787109375	1	taste	trialStart	1	33	33	foodImage.62	FOODEEG_Images\0644.jpg	NY	Right	Yes	1.24419290000014	0	292244	251
571.845703125	2	taste	foodImageDisplay	1	33	33	foodImage.62	FOODEEG_Images\0644.jpg	NY	Right	Yes	1.24419290000014	0	292786	252
573.908203125	1.24419290000014	taste	choicePhaseStart	1	33	33	foodImage.62	FOODEEG_Images\0644.jpg	NY	Right	Yes	1.24419290000014	0	293842	253
575.14453125	0	taste	response	1	33	33	foodImage.62	FOODEEG_Images\0644.jpg	NY	Right	Yes	1.24419290000014	0	294475	235
576.185546875	1	health	trialStart	1	34	34	foodImage.119	FOODEEG_Images\0927.jpg	NY	Left	No	0.479559599999902	0	295008	251
577.224609375	2	health	foodImageDisplay	1	34	34	foodImage.119	FOODEEG_Images\0927.jpg	NY	Left	No	0.479559599999902	0	295540	252
579.2890625	0.479559599999902	health	choicePhaseStart	1	34	34	foodImage.119	FOODEEG_Images\0927.jpg	NY	Left	No	0.479559599999902	0	296597	253
579.759765625	0	health	response	1	34	34	foodImage.119	FOODEEG_Images\0927.jpg	NY	Left	No	0.479559599999902	0	296838	234
580.806640625	1	decision	trialStart	1	35	35	foodImage.26	FOODEEG_Images\0262.jpg	NY	Right	Yes	0.598174000000199	0	297374	251
581.849609375	2	decision	foodImageDisplay	1	35	35	foodImage.26	FOODEEG_Images\0262.jpg	NY	Right	Yes	0.598174000000199	0	297908	252
583.9140625	0.598174000000199	decision	choicePhaseStart	1	35	35	foodImage.26	FOODEEG_Images\0262.jpg	NY	Right	Yes	0.598174000000199	0	298965	253
584.50390625	0	decision	response	1	35	35	foodImage.26	FOODEEG_Images\0262.jpg	NY	Right	Yes	0.598174000000199	0	299267	235
585.544921875	1	taste	trialStart	1	36	36	foodImage.77	FOODEEG_Images\0771.jpg	NY	Right	Yes	0.593986600000335	0	299800	251
586.591796875	2	taste	foodImageDisplay	1	36	36	foodImage.77	FOODEEG_Images\0771.jpg	NY	Right	Yes	0.593986600000335	0	300336	252
588.654296875	0.593986600000335	taste	choicePhaseStart	1	36	36	foodImage.77	FOODEEG_Images\0771.jpg	NY	Right	Yes	0.593986600000335	0	301392	253
589.23828125	0	taste	response	1	36	36	foodImage.77	FOODEEG_Images\0771.jpg	NY	Right	Yes	0.593986600000335	0	301691	235
590.283203125	1	health	trialStart	1	37	37	foodImage.91	FOODEEG_Images\0896.jpg	YN	Left	Yes	0.822348199999851	0	302226	251
591.34375	2	health	foodImageDisplay	1	37	37	foodImage.91	FOODEEG_Images\0896.jpg	YN	Left	Yes	0.822348199999851	0	302769	252
593.408203125	0.822348199999851	health	choicePhaseStart	1	37	37	foodImage.91	FOODEEG_Images\0896.jpg	YN	Left	Yes	0.822348199999851	0	303826	253
594.22265625	0	health	response	1	37	37	foodImage.91	FOODEEG_Images\0896.jpg	YN	Left	Yes	0.822348199999851	0	304243	234
595.265625	1	health	trialStart	1	38	38	foodImage.58	FOODEEG_Images\0605.jpg	YN	Right	No	1.52551850000009	0	304777	251
596.32421875	2	health	foodImageDisplay	1	38	38	foodImage.58	FOODEEG_Images\0605.jpg	YN	Right	No	1.52551850000009	0	305319	252
598.38671875	1.52551850000009	health	choicePhaseStart	1	38	38	foodImage.58	FOODEEG_Images\0605.jpg	YN	Right	No	1.52551850000009	0	306375	253
599.90234375	0	health	response	1	38	38	foodImage.58	FOODEEG_Images\0605.jpg	YN	Right	No	1.52551850000009	0	307151	235
600.9453125	1	health	trialStart	1	39	39	foodImage.116	FOODEEG_Images\0924.jpg	NY	Left	No	0.993273499999759	0	307685	251
601.984375	2	health	foodImageDisplay	1	39	39	foodImage.116	FOODEEG_Images\0924.jpg	NY	Left	No	0.993273499999759	0	308217	252
604.046875	0.993273499999759	health	choicePhaseStart	1	39	39	foodImage.116	FOODEEG_Images\0924.jpg	NY	Left	No	0.993273499999759	0	309273	253
605.03125	0	health	response	1	39	39	foodImage.116	FOODEEG_Images\0924.jpg	NY	Left	No	0.993273499999759	0	309777	234
606.0703125	1	taste	trialStart	1	40	40	foodImage.63	FOODEEG_Images\0645.jpg	NY	Left	No	1.00484500000039	0	310309	251
607.111328125	2	taste	foodImageDisplay	1	40	40	foodImage.63	FOODEEG_Images\0645.jpg	NY	Left	No	1.00484500000039	0	310842	252
609.177734375	1.00484500000039	taste	choicePhaseStart	1	40	40	foodImage.63	FOODEEG_Images\0645.jpg	NY	Left	No	1.00484500000039	0	311900	253
610.173828125	0	taste	response	1	40	40	foodImage.63	FOODEEG_Images\0645.jpg	NY	Left	No	1.00484500000039	0	312410	234
611.216796875	1	taste	trialStart	1	41	41	foodImage.102	FOODEEG_Images\0910.jpg	YN	Right	No	1.38066320000007	0	312944	251
612.2578125	2	taste	foodImageDisplay	1	41	41	foodImage.102	FOODEEG_Images\0910.jpg	YN	Right	No	1.38066320000007	0	313477	252
614.322265625	1.38066320000007	taste	choicePhaseStart	1	41	41	foodImage.102	FOODEEG_Images\0910.jpg	YN	Right	No	1.38066320000007	0	314534	253
615.693359375	0	taste	response	1	41	41	foodImage.102	FOODEEG_Images\0910.jpg	YN	Right	No	1.38066320000007	0	315236	235
616.736328125	1	decision	trialStart	1	42	42	foodImage.101	FOODEEG_Images\0909.jpg	NY	Left	No	0.863867099999879	0	315770	251
617.775390625	2	decision	foodImageDisplay	1	42	42	foodImage.101	FOODEEG_Images\0909.jpg	NY	Left	No	0.863867099999879	0	316302	252
619.83984375	0.863867099999879	decision	choicePhaseStart	1	42	42	foodImage.101	FOODEEG_Images\0909.jpg	NY	Left	No	0.863867099999879	0	317359	253
620.693359375	0	decision	response	1	42	42	foodImage.101	FOODEEG_Images\0909.jpg	NY	Left	No	0.863867099999879	0	317796	234
621.744140625	1	decision	trialStart	1	43	43	foodImage.107	FOODEEG_Images\0915.jpg	NY	Left	No	0.750528099999883	0	318334	251
622.783203125	2	decision	foodImageDisplay	1	43	43	foodImage.107	FOODEEG_Images\0915.jpg	NY	Left	No	0.750528099999883	0	318866	252
624.84765625	0.750528099999883	decision	choicePhaseStart	1	43	43	foodImage.107	FOODEEG_Images\0915.jpg	NY	Left	No	0.750528099999883	0	319923	253
625.58984375	0	decision	response	1	43	43	foodImage.107	FOODEEG_Images\0915.jpg	NY	Left	No	0.750528099999883	0	320303	234
626.630859375	1	taste	trialStart	1	44	44	foodImage.81	FOODEEG_Images\0797.jpg	NY	Left	No	1.95925649999981	0	320836	251
627.6875	2	taste	foodImageDisplay	1	44	44	foodImage.81	FOODEEG_Images\0797.jpg	NY	Left	No	1.95925649999981	0	321377	252
629.751953125	1.95925649999981	taste	choicePhaseStart	1	44	44	foodImage.81	FOODEEG_Images\0797.jpg	NY	Left	No	1.95925649999981	0	322434	253
631.701171875	0	taste	response	1	44	44	foodImage.81	FOODEEG_Images\0797.jpg	NY	Left	No	1.95925649999981	0	323432	234
632.744140625	1	health	trialStart	1	45	45	foodImage.5	FOODEEG_Images\0107.jpg	YN	Right	No	1.13347509999994	0	323966	251
633.80078125	2	health	foodImageDisplay	1	45	45	foodImage.5	FOODEEG_Images\0107.jpg	YN	Right	No	1.13347509999994	0	324507	252
635.865234375	1.13347509999994	health	choicePhaseStart	1	45	45	foodImage.5	FOODEEG_Images\0107.jpg	YN	Right	No	1.13347509999994	0	325564	253
636.990234375	0	health	response	1	45	45	foodImage.5	FOODEEG_Images\0107.jpg	YN	Right	No	1.13347509999994	0	326140	235
638.033203125	1	health	trialStart	1	46	46	foodImage.44	FOODEEG_Images\0459.jpg	NY	Right	Yes	0.902946600000178	0	326674	251
639.080078125	2	health	foodImageDisplay	1	46	46	foodImage.44	FOODEEG_Images\0459.jpg	NY	Right	Yes	0.902946600000178	0	327210	252
641.142578125	0.902946600000178	health	choicePhaseStart	1	46	46	foodImage.44	FOODEEG_Images\0459.jpg	NY	Right	Yes	0.902946600000178	0	328266	253
642.037109375	0	health	response	1	46	46	foodImage.44	FOODEEG_Images\0459.jpg	NY	Right	Yes	0.902946600000178	0	328724	235
643.083984375	1	decision	trialStart	1	47	47	foodImage.37	FOODEEG_Images\0359.jpg	YN	Left	Yes	0.821821999999884	0	329260	251
644.12890625	2	decision	foodImageDisplay	1	47	47	foodImage.37	FOODEEG_Images\0359.jpg	YN	Left	Yes	0.821821999999884	0	329795	252
646.19140625	0.821821999999884	decision	choicePhaseStart	1	47	47	foodImage.37	FOODEEG_Images\0359.jpg	YN	Left	Yes	0.821821999999884	0	330851	253
647.00390625	0	decision	response	1	47	47	foodImage.37	FOODEEG_Images\0359.jpg	YN	Left	Yes	0.821821999999884	0	331267	234
648.046875	1	decision	trialStart	1	48	48	foodImage.70	FOODEEG_Images\0705.jpg	YN	Left	Yes	1.03717719999986	0	331801	251
649.10546875	2	decision	foodImageDisplay	1	48	48	foodImage.70	FOODEEG_Images\0705.jpg	YN	Left	Yes	1.03717719999986	0	332343	252
651.16796875	1.03717719999986	decision	choicePhaseStart	1	48	48	foodImage.70	FOODEEG_Images\0705.jpg	YN	Left	Yes	1.03717719999986	0	333399	253
652.197265625	0	decision	response	1	48	48	foodImage.70	FOODEEG_Images\0705.jpg	YN	Left	Yes	1.03717719999986	0	333926	234
653.23828125	1	taste	trialStart	1	49	49	foodImage.52	FOODEEG_Images\0539.jpg	NY	Right	Yes	1.66131360000008	0	334459	251
654.296875	2	taste	foodImageDisplay	1	49	49	foodImage.52	FOODEEG_Images\0539.jpg	NY	Right	Yes	1.66131360000008	0	335001	252
656.3671875	1.66131360000008	taste	choicePhaseStart	1	49	49	foodImage.52	FOODEEG_Images\0539.jpg	NY	Right	Yes	1.66131360000008	0	336061	253
658.021484375	0	taste	response	1	49	49	foodImage.52	FOODEEG_Images\0539.jpg	NY	Right	Yes	1.66131360000008	0	336908	235
659.0625	1	health	trialStart	1	50	50	foodImage.10	FOODEEG_Images\0145.jpg	NY	Right	Yes	0.691719800000101	0	337441	251
660.12109375	2	health	foodImageDisplay	1	50	50	foodImage.10	FOODEEG_Images\0145.jpg	NY	Right	Yes	0.691719800000101	0	337983	252
662.185546875	0.691719800000101	health	choicePhaseStart	1	50	50	foodImage.10	FOODEEG_Images\0145.jpg	NY	Right	Yes	0.691719800000101	0	339040	253
662.8671875	0	health	response	1	50	50	foodImage.10	FOODEEG_Images\0145.jpg	NY	Right	Yes	0.691719800000101	0	339389	235
663.91796875	1	health	trialStart	1	51	51	foodImage.13	FOODEEG_Images\0183.jpg	NY	Right	Yes	1.12411830000019	0	339927	251
664.9609375	2	health	foodImageDisplay	1	51	51	foodImage.13	FOODEEG_Images\0183.jpg	NY	Right	Yes	1.12411830000019	0	340461	252
667.025390625	1.12411830000019	health	choicePhaseStart	1	51	51	foodImage.13	FOODEEG_Images\0183.jpg	NY	Right	Yes	1.12411830000019	0	341518	253
668.140625	0	health	response	1	51	51	foodImage.13	FOODEEG_Images\0183.jpg	NY	Right	Yes	1.12411830000019	0	342089	235
669.181640625	1	taste	trialStart	1	52	52	foodImage.48	FOODEEG_Images\0494.jpg	NY	Left	No	1.06085669999993	0	342622	251
670.224609375	2	taste	foodImageDisplay	1	52	52	foodImage.48	FOODEEG_Images\0494.jpg	NY	Left	No	1.06085669999993	0	343156	252
672.2890625	1.06085669999993	taste	choicePhaseStart	1	52	52	foodImage.48	FOODEEG_Images\0494.jpg	NY	Left	No	1.06085669999993	0	344213	253
673.33984375	0	taste	response	1	52	52	foodImage.48	FOODEEG_Images\0494.jpg	NY	Left	No	1.06085669999993	0	344751	234
674.3828125	1	decision	trialStart	1	53	53	foodImage.38	FOODEEG_Images\0365.jpg	NY	Right	Yes	1.31650470000022	0	345285	251
675.421875	2	decision	foodImageDisplay	1	53	53	foodImage.38	FOODEEG_Images\0365.jpg	NY	Right	Yes	1.31650470000022	0	345817	252
677.486328125	1.31650470000022	decision	choicePhaseStart	1	53	53	foodImage.38	FOODEEG_Images\0365.jpg	NY	Right	Yes	1.31650470000022	0	346874	253
678.794921875	0	decision	response	1	53	53	foodImage.38	FOODEEG_Images\0365.jpg	NY	Right	Yes	1.31650470000022	0	347544	235
679.837890625	1	taste	trialStart	1	54	54	foodImage.46	FOODEEG_Images\0479.jpg	NY	Right	Yes	0.985225299999911	0	348078	251
680.8984375	2	taste	foodImageDisplay	1	54	54	foodImage.46	FOODEEG_Images\0479.jpg	NY	Right	Yes	0.985225299999911	0	348621	252
682.962890625	0.985225299999911	taste	choicePhaseStart	1	54	54	foodImage.46	FOODEEG_Images\0479.jpg	NY	Right	Yes	0.985225299999911	0	349678	253
683.939453125	0	taste	response	1	54	54	foodImage.46	FOODEEG_Images\0479.jpg	NY	Right	Yes	0.985225299999911	0	350178	235
684.982421875	1	taste	trialStart	1	55	55	foodImage.84	FOODEEG_Images\0830.jpg	YN	Left	Yes	0.854347599999983	0	350712	251
686.0390625	2	taste	foodImageDisplay	1	55	55	foodImage.84	FOODEEG_Images\0830.jpg	YN	Left	Yes	0.854347599999983	0	351253	252
688.1015625	0.854347599999983	taste	choicePhaseStart	1	55	55	foodImage.84	FOODEEG_Images\0830.jpg	YN	Left	Yes	0.854347599999983	0	352309	253
688.947265625	0	taste	response	1	55	55	foodImage.84	FOODEEG_Images\0830.jpg	YN	Left	Yes	0.854347599999983	0	352742	234
689.98828125	1	decision	trialStart	1	56	56	foodImage.61	FOODEEG_Images\0640.jpg	YN	Left	Yes	0.531613000000107	0	353275	251
691.033203125	2	decision	foodImageDisplay	1	56	56	foodImage.61	FOODEEG_Images\0640.jpg	YN	Left	Yes	0.531613000000107	0	353810	252
693.09765625	0.531613000000107	decision	choicePhaseStart	1	56	56	foodImage.61	FOODEEG_Images\0640.jpg	YN	Left	Yes	0.531613000000107	0	354867	253
693.619140625	0	decision	response	1	56	56	foodImage.61	FOODEEG_Images\0640.jpg	YN	Left	Yes	0.531613000000107	0	355134	234
694.662109375	1	taste	trialStart	1	57	57	foodImage.115	FOODEEG_Images\0923.jpg	YN	Right	No	0.742731900000308	0	355668	251
695.701171875	2	taste	foodImageDisplay	1	57	57	foodImage.115	FOODEEG_Images\0923.jpg	YN	Right	No	0.742731900000308	0	356200	252
697.765625	0.742731900000308	taste	choicePhaseStart	1	57	57	foodImage.115	FOODEEG_Images\0923.jpg	YN	Right	No	0.742731900000308	0	357257	253
698.498046875	0	taste	response	1	57	57	foodImage.115	FOODEEG_Images\0923.jpg	YN	Right	No	0.742731900000308	0	357632	235
699.54296875	1	decision	trialStart	1	58	58	foodImage.110	FOODEEG_Images\0918.jpg	NY	Left	No	0.84067240000013	0	358167	251
700.587890625	2	decision	foodImageDisplay	1	58	58	foodImage.110	FOODEEG_Images\0918.jpg	NY	Left	No	0.84067240000013	0	358702	252
702.65234375	0.84067240000013	decision	choicePhaseStart	1	58	58	foodImage.110	FOODEEG_Images\0918.jpg	NY	Left	No	0.84067240000013	0	359759	253
703.482421875	0	decision	response	1	58	58	foodImage.110	FOODEEG_Images\0918.jpg	NY	Left	No	0.84067240000013	0	360184	234
704.52734375	1	taste	trialStart	1	59	59	foodImage.27	FOODEEG_Images\0263.jpg	YN	Left	Yes	0.594338700000208	0	360719	251
705.5703125	2	taste	foodImageDisplay	1	59	59	foodImage.27	FOODEEG_Images\0263.jpg	YN	Left	Yes	0.594338700000208	0	361253	252
707.6328125	0.594338700000208	taste	choicePhaseStart	1	59	59	foodImage.27	FOODEEG_Images\0263.jpg	YN	Left	Yes	0.594338700000208	0	362309	253
708.21875	0	taste	response	1	59	59	foodImage.27	FOODEEG_Images\0263.jpg	YN	Left	Yes	0.594338700000208	0	362609	234
709.259765625	1	taste	trialStart	1	60	60	foodImage.94	FOODEEG_Images\0902.jpg	YN	Right	No	1.08038439999973	0	363142	251
710.298828125	2	taste	foodImageDisplay	1	60	60	foodImage.94	FOODEEG_Images\0902.jpg	YN	Right	No	1.08038439999973	0	363674	252
712.36328125	1.08038439999973	taste	choicePhaseStart	1	60	60	foodImage.94	FOODEEG_Images\0902.jpg	YN	Right	No	1.08038439999973	0	364731	253
713.43359375	0	taste	response	1	60	60	foodImage.94	FOODEEG_Images\0902.jpg	YN	Right	No	1.08038439999973	0	365279	235
715.4765625	12.529296875	n/a	blockEnd	n/a	n/a	n/a	n/a	n/a	n/a	n/a	n/a	n/a	n/a	366325	254
728.005859375	2	n/a	blockStart	2	n/a	n/a	n/a	n/a	n/a	n/a	n/a	n/a	n/a	372740	250
730.041015625	1	health	trialStart	2	61	1	foodImage.2	FOODEEG_Images\0028.jpg	YN	Right	No	0.850729799999954	0	373782	251
731.087890625	2	health	foodImageDisplay	2	61	1	foodImage.2	FOODEEG_Images\0028.jpg	YN	Right	No	0.850729799999954	0	374318	252
733.15234375	0.850729799999954	health	choicePhaseStart	2	61	1	foodImage.2	FOODEEG_Images\0028.jpg	YN	Right	No	0.850729799999954	0	375375	253
733.994140625	0	health	response	2	61	1	foodImage.2	FOODEEG_Images\0028.jpg	YN	Right	No	0.850729799999954	0	375806	235
735.037109375	1	health	trialStart	2	62	2	foodImage.65	FOODEEG_Images\0658.jpg	YN	Right	No	0.925407600000199	0	376340	251
736.076171875	2	health	foodImageDisplay	2	62	2	foodImage.65	FOODEEG_Images\0658.jpg	YN	Right	No	0.925407600000199	0	376872	252
738.140625	0.925407600000199	health	choicePhaseStart	2	62	2	foodImage.65	FOODEEG_Images\0658.jpg	YN	Right	No	0.925407600000199	0	377929	253
739.056640625	0	health	response	2	62	2	foodImage.65	FOODEEG_Images\0658.jpg	YN	Right	No	0.925407600000199	0	378398	235
740.1015625	1	n/a	trialStart	2	63	3	n/a	n/a	n/a	n/a	n/a	1.6107033000003	0	378933	251
741.16015625	2	taste	foodImageDisplay	2	63	3	foodImage.76	FOODEEG_Images\0766.jpg	NY	Left	No	1.6107033000003	0	379475	252
743.220703125	1.6107033000003	taste	choicePhaseStart	2	63	3	foodImage.76	FOODEEG_Images\0766.jpg	NY	Left	No	1.6107033000003	0	380530	253
744.82421875	0	taste	response	2	63	3	foodImage.76	FOODEEG_Images\0766.jpg	NY	Left	No	1.6107033000003	0	381351	234
745.869140625	1	decision	trialStart	2	64	4	foodImage.112	FOODEEG_Images\0920.jpg	NY	Left	No	1.4745098999997	0	381886	251
746.908203125	2	decision	foodImageDisplay	2	64	4	foodImage.112	FOODEEG_Images\0920.jpg	NY	Left	No	1.4745098999997	0	382418	252
748.97265625	1.4745098999997	decision	choicePhaseStart	2	64	4	foodImage.112	FOODEEG_Images\0920.jpg	NY	Left	No	1.4745098999997	0	383475	253
750.44140625	0	decision	response	2	64	4	foodImage.112	FOODEEG_Images\0920.jpg	NY	Left	No	1.4745098999997	0	384227	234
751.484375	1	taste	trialStart	2	65	5	foodImage.41	FOODEEG_Images\0409.jpg	YN	Left	Yes	0.89992680000023	0	384761	251
752.546875	2	taste	foodImageDisplay	2	65	5	foodImage.41	FOODEEG_Images\0409.jpg	YN	Left	Yes	0.89992680000023	0	385305	252
754.611328125	0.89992680000023	taste	choicePhaseStart	2	65	5	foodImage.41	FOODEEG_Images\0409.jpg	YN	Left	Yes	0.89992680000023	0	386362	253
755.50390625	0	taste	response	2	65	5	foodImage.41	FOODEEG_Images\0409.jpg	YN	Left	Yes	0.89992680000023	0	386819	234
756.546875	1	health	trialStart	2	66	6	foodImage.22	FOODEEG_Images\0236.jpg	YN	Left	Yes	0.959644900000058	0	387353	251
757.58984375	2	health	foodImageDisplay	2	66	6	foodImage.22	FOODEEG_Images\0236.jpg	YN	Left	Yes	0.959644900000058	0	387887	252
759.658203125	0.959644900000058	health	choicePhaseStart	2	66	6	foodImage.22	FOODEEG_Images\0236.jpg	YN	Left	Yes	0.959644900000058	0	388946	253
760.607421875	0	health	response	2	66	6	foodImage.22	FOODEEG_Images\0236.jpg	YN	Left	Yes	0.959644900000058	0	389432	234
761.650390625	1	decision	trialStart	2	67	7	foodImage.3	FOODEEG_Images\0046.jpg	YN	Left	Yes	1.80372239999997	0	389966	251
762.693359375	2	decision	foodImageDisplay	2	67	7	foodImage.3	FOODEEG_Images\0046.jpg	YN	Left	Yes	1.80372239999997	0	390500	252
764.7578125	1.80372239999997	decision	choicePhaseStart	2	67	7	foodImage.3	FOODEEG_Images\0046.jpg	YN	Left	Yes	1.80372239999997	0	391557	253
766.552734375	0	decision	response	2	67	7	foodImage.3	FOODEEG_Images\0046.jpg	YN	Left	Yes	1.80372239999997	0	392476	234
767.595703125	1	decision	trialStart	2	68	8	foodImage.44	FOODEEG_Images\0459.jpg	YN	Left	Yes	0.655723800000032	0	393010	251
768.638671875	2	decision	foodImageDisplay	2	68	8	foodImage.44	FOODEEG_Images\0459.jpg	YN	Left	Yes	0.655723800000032	0	393544	252
770.703125	0.655723800000032	decision	choicePhaseStart	2	68	8	foodImage.44	FOODEEG_Images\0459.jpg	YN	Left	Yes	0.655723800000032	0	394601	253
771.353515625	0	decision	response	2	68	8	foodImage.44	FOODEEG_Images\0459.jpg	YN	Left	Yes	0.655723800000032	0	394934	234
772.39453125	1	health	trialStart	2	69	9	foodImage.36	FOODEEG_Images\0352.jpg	YN	Left	Yes	0.99531399999978	0	395467	251
773.453125	2	health	foodImageDisplay	2	69	9	foodImage.36	FOODEEG_Images\0352.jpg	YN	Left	Yes	0.99531399999978	0	396009	252
775.517578125	0.99531399999978	health	choicePhaseStart	2	69	9	foodImage.36	FOODEEG_Images\0352.jpg	YN	Left	Yes	0.99531399999978	0	397066	253
776.50390625	0	health	response	2	69	9	foodImage.36	FOODEEG_Images\0352.jpg	YN	Left	Yes	0.99531399999978	0	397571	234
777.546875	1	health	trialStart	2	70	10	foodImage.3	FOODEEG_Images\0046.jpg	NY	Left	No	1.07647570000017	0	398105	251
778.587890625	2	health	foodImageDisplay	2	70	10	foodImage.3	FOODEEG_Images\0046.jpg	NY	Left	No	1.07647570000017	0	398638	252
780.65234375	1.07647570000017	health	choicePhaseStart	2	70	10	foodImage.3	FOODEEG_Images\0046.jpg	NY	Left	No	1.07647570000017	0	399695	253
781.720703125	0	health	response	2	70	10	foodImage.3	FOODEEG_Images\0046.jpg	NY	Left	No	1.07647570000017	0	400242	234
782.763671875	1	health	trialStart	2	71	11	foodImage.79	FOODEEG_Images\0794.jpg	NY	Right	Yes	0.570966400000088	0	400776	251
783.806640625	2	health	foodImageDisplay	2	71	11	foodImage.79	FOODEEG_Images\0794.jpg	NY	Right	Yes	0.570966400000088	0	401310	252
785.869140625	0.570966400000088	health	choicePhaseStart	2	71	11	foodImage.79	FOODEEG_Images\0794.jpg	NY	Right	Yes	0.570966400000088	0	402366	253
786.431640625	0	health	response	2	71	11	foodImage.79	FOODEEG_Images\0794.jpg	NY	Right	Yes	0.570966400000088	0	402654	235
787.474609375	1	health	trialStart	2	72	12	foodImage.9	FOODEEG_Images\0138.jpg	NY	Left	No	1.07391959999995	0	403188	251
788.53515625	2	health	foodImageDisplay	2	72	12	foodImage.9	FOODEEG_Images\0138.jpg	NY	Left	No	1.07391959999995	0	403731	252
790.59765625	1.07391959999995	health	choicePhaseStart	2	72	12	foodImage.9	FOODEEG_Images\0138.jpg	NY	Left	No	1.07391959999995	0	404787	253
791.662109375	0	health	response	2	72	12	foodImage.9	FOODEEG_Images\0138.jpg	NY	Left	No	1.07391959999995	0	405332	234
792.705078125	1	taste	trialStart	2	73	13	foodImage.86	FOODEEG_Images\0844.jpg	NY	Right	Yes	1.21948870000006	0	405866	251
793.765625	2	taste	foodImageDisplay	2	73	13	foodImage.86	FOODEEG_Images\0844.jpg	NY	Right	Yes	1.21948870000006	0	406409	252
795.828125	1.21948870000006	taste	choicePhaseStart	2	73	13	foodImage.86	FOODEEG_Images\0844.jpg	NY	Right	Yes	1.21948870000006	0	407465	253
797.0390625	0	taste	response	2	73	13	foodImage.86	FOODEEG_Images\0844.jpg	NY	Right	Yes	1.21948870000006	0	408085	235
798.08203125	1	decision	trialStart	2	74	14	foodImage.79	FOODEEG_Images\0794.jpg	NY	Right	Yes	2.97160759999997	0	408619	251
799.125	2	decision	foodImageDisplay	2	74	14	foodImage.79	FOODEEG_Images\0794.jpg	NY	Right	Yes	2.97160759999997	0	409153	252
801.189453125	2.97160759999997	decision	choicePhaseStart	2	74	14	foodImage.79	FOODEEG_Images\0794.jpg	NY	Right	Yes	2.97160759999997	0	410210	253
804.150390625	0	decision	response	2	74	14	foodImage.79	FOODEEG_Images\0794.jpg	NY	Right	Yes	2.97160759999997	0	411726	235
805.19921875	1	decision	trialStart	2	75	15	foodImage.39	FOODEEG_Images\0367.jpg	YN	Left	Yes	1.3289135	0	412263	251
806.23828125	2	decision	foodImageDisplay	2	75	15	foodImage.39	FOODEEG_Images\0367.jpg	YN	Left	Yes	1.3289135	0	412795	252
808.302734375	1.3289135	decision	choicePhaseStart	2	75	15	foodImage.39	FOODEEG_Images\0367.jpg	YN	Left	Yes	1.3289135	0	413852	253
809.623046875	0	decision	response	2	75	15	foodImage.39	FOODEEG_Images\0367.jpg	YN	Left	Yes	1.3289135	0	414528	234
810.6640625	1	health	trialStart	2	76	16	foodImage.63	FOODEEG_Images\0645.jpg	NY	Left	No	1.10975680000001	0	415061	251
811.70703125	2	health	foodImageDisplay	2	76	16	foodImage.63	FOODEEG_Images\0645.jpg	NY	Left	No	1.10975680000001	0	415595	252
813.77734375	1.10975680000001	health	choicePhaseStart	2	76	16	foodImage.63	FOODEEG_Images\0645.jpg	NY	Left	No	1.10975680000001	0	416655	253
814.87890625	0	health	response	2	76	16	foodImage.63	FOODEEG_Images\0645.jpg	NY	Left	No	1.10975680000001	0	417219	234
815.921875	1	health	trialStart	2	77	17	foodImage.78	FOODEEG_Images\0787.jpg	NY	Right	Yes	2.98444089999975	0	417753	251
816.966796875	2	health	foodImageDisplay	2	77	17	foodImage.78	FOODEEG_Images\0787.jpg	NY	Right	Yes	2.98444089999975	0	418288	252
819.03125	2.98444089999975	health	choicePhaseStart	2	77	17	foodImage.78	FOODEEG_Images\0787.jpg	NY	Right	Yes	2.98444089999975	0	419345	253
822.005859375	0	health	response	2	77	17	foodImage.78	FOODEEG_Images\0787.jpg	NY	Right	Yes	2.98444089999975	0	420868	235
823.048828125	1	taste	trialStart	2	78	18	foodImage.5	FOODEEG_Images\0107.jpg	YN	Left	Yes	1.2889854	0	421402	251
824.107421875	2	taste	foodImageDisplay	2	78	18	foodImage.5	FOODEEG_Images\0107.jpg	YN	Left	Yes	1.2889854	0	421944	252
826.171875	1.2889854	taste	choicePhaseStart	2	78	18	foodImage.5	FOODEEG_Images\0107.jpg	YN	Left	Yes	1.2889854	0	423001	253
827.453125	0	taste	response	2	78	18	foodImage.5	FOODEEG_Images\0107.jpg	YN	Left	Yes	1.2889854	0	423657	234
828.49609375	1	taste	trialStart	2	79	19	foodImage.110	FOODEEG_Images\0918.jpg	NY	Left	No	0.775339700000131	0	424191	251
829.53515625	2	taste	foodImageDisplay	2	79	19	foodImage.110	FOODEEG_Images\0918.jpg	NY	Left	No	0.775339700000131	0	424723	252
831.599609375	0.775339700000131	taste	choicePhaseStart	2	79	19	foodImage.110	FOODEEG_Images\0918.jpg	NY	Left	No	0.775339700000131	0	425780	253
832.365234375	0	taste	response	2	79	19	foodImage.110	FOODEEG_Images\0918.jpg	NY	Left	No	0.775339700000131	0	426172	234
833.408203125	1	health	trialStart	2	80	20	foodImage.18	FOODEEG_Images\0202.jpg	YN	Left	Yes	0.538169400000243	0	426706	251
834.478515625	2	health	foodImageDisplay	2	80	20	foodImage.18	FOODEEG_Images\0202.jpg	YN	Left	Yes	0.538169400000243	0	427254	252
836.541015625	0.538169400000243	health	choicePhaseStart	2	80	20	foodImage.18	FOODEEG_Images\0202.jpg	YN	Left	Yes	0.538169400000243	0	428310	253
837.0703125	0	health	response	2	80	20	foodImage.18	FOODEEG_Images\0202.jpg	YN	Left	Yes	0.538169400000243	0	428581	234
838.111328125	1	health	trialStart	2	81	21	foodImage.43	FOODEEG_Images\0445.jpg	NY	Right	Yes	1.00486649999993	0	429114	251
839.177734375	2	health	foodImageDisplay	2	81	21	foodImage.43	FOODEEG_Images\0445.jpg	NY	Right	Yes	1.00486649999993	0	429660	252
841.2421875	1.00486649999993	health	choicePhaseStart	2	81	21	foodImage.43	FOODEEG_Images\0445.jpg	NY	Right	Yes	1.00486649999993	0	430717	253
842.23828125	0	health	response	2	81	21	foodImage.43	FOODEEG_Images\0445.jpg	NY	Right	Yes	1.00486649999993	0	431227	235
843.28125	1	health	trialStart	2	82	22	foodImage.8	FOODEEG_Images\0136.jpg	YN	Right	No	1.04331199999979	0	431761	251
844.32421875	2	health	foodImageDisplay	2	82	22	foodImage.8	FOODEEG_Images\0136.jpg	YN	Right	No	1.04331199999979	0	432295	252
846.38671875	1.04331199999979	health	choicePhaseStart	2	82	22	foodImage.8	FOODEEG_Images\0136.jpg	YN	Right	No	1.04331199999979	0	433351	253
847.421875	0	health	response	2	82	22	foodImage.8	FOODEEG_Images\0136.jpg	YN	Right	No	1.04331199999979	0	433881	235
848.46484375	1	decision	trialStart	2	83	23	foodImage.97	FOODEEG_Images\0905.jpg	NY	Left	No	0.959074199999577	0	434415	251
849.50390625	2	decision	foodImageDisplay	2	83	23	foodImage.97	FOODEEG_Images\0905.jpg	NY	Left	No	0.959074199999577	0	434947	252
851.56640625	0.959074199999577	decision	choicePhaseStart	2	83	23	foodImage.97	FOODEEG_Images\0905.jpg	NY	Left	No	0.959074199999577	0	436003	253
852.515625	0	decision	response	2	83	23	foodImage.97	FOODEEG_Images\0905.jpg	NY	Left	No	0.959074199999577	0	436489	234
853.560546875	1	decision	trialStart	2	84	24	foodImage.111	FOODEEG_Images\0919.jpg	NY	Left	No	0.918588900000032	0	437024	251
854.59765625	2	decision	foodImageDisplay	2	84	24	foodImage.111	FOODEEG_Images\0919.jpg	NY	Left	No	0.918588900000032	0	437555	252
856.662109375	0.918588900000032	decision	choicePhaseStart	2	84	24	foodImage.111	FOODEEG_Images\0919.jpg	NY	Left	No	0.918588900000032	0	438612	253
857.572265625	0	decision	response	2	84	24	foodImage.111	FOODEEG_Images\0919.jpg	NY	Left	No	0.918588900000032	0	439078	234
858.61328125	1	decision	trialStart	2	85	25	foodImage.24	FOODEEG_Images\0250.jpg	NY	Right	Yes	1.14067729999988	0	439611	251
859.65625	2	decision	foodImageDisplay	2	85	25	foodImage.24	FOODEEG_Images\0250.jpg	NY	Right	Yes	1.14067729999988	0	440145	252
861.720703125	1.14067729999988	decision	choicePhaseStart	2	85	25	foodImage.24	FOODEEG_Images\0250.jpg	NY	Right	Yes	1.14067729999988	0	441202	253
862.8515625	0	decision	response	2	85	25	foodImage.24	FOODEEG_Images\0250.jpg	NY	Right	Yes	1.14067729999988	0	441781	235
863.89453125	1	taste	trialStart	2	86	26	foodImage.83	FOODEEG_Images\0827.jpg	YN	Left	Yes	1.00371020000011	0	442315	251
864.955078125	2	taste	foodImageDisplay	2	86	26	foodImage.83	FOODEEG_Images\0827.jpg	YN	Left	Yes	1.00371020000011	0	442858	252
867.017578125	1.00371020000011	taste	choicePhaseStart	2	86	26	foodImage.83	FOODEEG_Images\0827.jpg	YN	Left	Yes	1.00371020000011	0	443914	253
868.01171875	0	taste	response	2	86	26	foodImage.83	FOODEEG_Images\0827.jpg	YN	Left	Yes	1.00371020000011	0	444423	234
869.0546875	1	taste	trialStart	2	87	27	foodImage.99	FOODEEG_Images\0907.jpg	NY	Left	No	1.57190480000008	0	444957	251
870.09375	2	taste	foodImageDisplay	2	87	27	foodImage.99	FOODEEG_Images\0907.jpg	NY	Left	No	1.57190480000008	0	445489	252
872.16015625	1.57190480000008	taste	choicePhaseStart	2	87	27	foodImage.99	FOODEEG_Images\0907.jpg	NY	Left	No	1.57190480000008	0	446547	253
873.724609375	0	taste	response	2	87	27	foodImage.99	FOODEEG_Images\0907.jpg	NY	Left	No	1.57190480000008	0	447348	234
874.765625	1	decision	trialStart	2	88	28	foodImage.102	FOODEEG_Images\0910.jpg	NY	Left	No	0.575366000000031	0	447881	251
875.8046875	2	decision	foodImageDisplay	2	88	28	foodImage.102	FOODEEG_Images\0910.jpg	NY	Left	No	0.575366000000031	0	448413	252
877.869140625	0.575366000000031	decision	choicePhaseStart	2	88	28	foodImage.102	FOODEEG_Images\0910.jpg	NY	Left	No	0.575366000000031	0	449470	253
878.435546875	0	decision	response	2	88	28	foodImage.102	FOODEEG_Images\0910.jpg	NY	Left	No	0.575366000000031	0	449760	234
879.48046875	1	health	trialStart	2	89	29	foodImage.69	FOODEEG_Images\0693.jpg	YN	Left	Yes	0.785046299999976	0	450295	251
880.5234375	2	health	foodImageDisplay	2	89	29	foodImage.69	FOODEEG_Images\0693.jpg	YN	Left	Yes	0.785046299999976	0	450829	252
882.5859375	0.785046299999976	health	choicePhaseStart	2	89	29	foodImage.69	FOODEEG_Images\0693.jpg	YN	Left	Yes	0.785046299999976	0	451885	253
883.36328125	0	health	response	2	89	29	foodImage.69	FOODEEG_Images\0693.jpg	YN	Left	Yes	0.785046299999976	0	452283	234
884.412109375	1	decision	trialStart	2	90	30	foodImage.87	FOODEEG_Images\0873.jpg	YN	Left	Yes	0.812626099999761	0	452820	251
885.47265625	2	decision	foodImageDisplay	2	90	30	foodImage.87	FOODEEG_Images\0873.jpg	YN	Left	Yes	0.812626099999761	0	453363	252
887.537109375	0.812626099999761	decision	choicePhaseStart	2	90	30	foodImage.87	FOODEEG_Images\0873.jpg	YN	Left	Yes	0.812626099999761	0	454420	253
888.33984375	0	decision	response	2	90	30	foodImage.87	FOODEEG_Images\0873.jpg	YN	Left	Yes	0.812626099999761	0	454831	234
889.3828125	1	health	trialStart	2	91	31	foodImage.45	FOODEEG_Images\0478.jpg	NY	Right	Yes	0.583939699999974	0	455365	251
890.427734375	2	health	foodImageDisplay	2	91	31	foodImage.45	FOODEEG_Images\0478.jpg	NY	Right	Yes	0.583939699999974	0	455900	252
892.4921875	0.583939699999974	health	choicePhaseStart	2	91	31	foodImage.45	FOODEEG_Images\0478.jpg	NY	Right	Yes	0.583939699999974	0	456957	253
893.06640625	0	health	response	2	91	31	foodImage.45	FOODEEG_Images\0478.jpg	NY	Right	Yes	0.583939699999974	0	457251	235
894.111328125	1	taste	trialStart	2	92	32	foodImage.71	FOODEEG_Images\0713.jpg	YN	Left	Yes	1.02902459999996	0	457786	251
895.15234375	2	taste	foodImageDisplay	2	92	32	foodImage.71	FOODEEG_Images\0713.jpg	YN	Left	Yes	1.02902459999996	0	458319	252
897.216796875	1.02902459999996	taste	choicePhaseStart	2	92	32	foodImage.71	FOODEEG_Images\0713.jpg	YN	Left	Yes	1.02902459999996	0	459376	253
898.234375	0	taste	response	2	92	32	foodImage.71	FOODEEG_Images\0713.jpg	YN	Left	Yes	1.02902459999996	0	459897	234
899.28125	1	decision	trialStart	2	93	33	foodImage.29	FOODEEG_Images\0278.jpg	YN	Left	Yes	0.511330400000134	0	460433	251
900.32421875	2	decision	foodImageDisplay	2	93	33	foodImage.29	FOODEEG_Images\0278.jpg	YN	Left	Yes	0.511330400000134	0	460967	252
902.388671875	0.511330400000134	decision	choicePhaseStart	2	93	33	foodImage.29	FOODEEG_Images\0278.jpg	YN	Left	Yes	0.511330400000134	0	462024	253
902.890625	0	decision	response	2	93	33	foodImage.29	FOODEEG_Images\0278.jpg	YN	Left	Yes	0.511330400000134	0	462281	234
903.93359375	1	health	trialStart	2	94	34	foodImage.86	FOODEEG_Images\0844.jpg	YN	Right	No	1.06136470000001	0	462815	251
904.990234375	2	health	foodImageDisplay	2	94	34	foodImage.86	FOODEEG_Images\0844.jpg	YN	Right	No	1.06136470000001	0	463356	252
907.0546875	1.06136470000001	health	choicePhaseStart	2	94	34	foodImage.86	FOODEEG_Images\0844.jpg	YN	Right	No	1.06136470000001	0	464413	253
908.107421875	0	health	response	2	94	34	foodImage.86	FOODEEG_Images\0844.jpg	YN	Right	No	1.06136470000001	0	464952	235
909.15625	1	decision	trialStart	2	95	35	foodImage.64	FOODEEG_Images\0647.jpg	YN	Left	Yes	0.749465300000338	0	465489	251
910.21484375	2	decision	foodImageDisplay	2	95	35	foodImage.64	FOODEEG_Images\0647.jpg	YN	Left	Yes	0.749465300000338	0	466031	252
912.279296875	0.749465300000338	decision	choicePhaseStart	2	95	35	foodImage.64	FOODEEG_Images\0647.jpg	YN	Left	Yes	0.749465300000338	0	467088	253
913.01953125	0	decision	response	2	95	35	foodImage.64	FOODEEG_Images\0647.jpg	YN	Left	Yes	0.749465300000338	0	467467	234
914.0625	1	health	trialStart	2	96	36	foodImage.103	FOODEEG_Images\0911.jpg	NY	Left	No	1.45421050000004	0	468001	251
915.1015625	2	health	foodImageDisplay	2	96	36	foodImage.103	FOODEEG_Images\0911.jpg	NY	Left	No	1.45421050000004	0	468533	252
917.166015625	1.45421050000004	health	choicePhaseStart	2	96	36	foodImage.103	FOODEEG_Images\0911.jpg	NY	Left	No	1.45421050000004	0	469590	253
918.611328125	0	health	response	2	96	36	foodImage.103	FOODEEG_Images\0911.jpg	NY	Left	No	1.45421050000004	0	470330	234
919.654296875	1	decision	trialStart	2	97	37	foodImage.95	FOODEEG_Images\0903.jpg	NY	Right	Yes	0.917928299999858	0	470864	251
920.693359375	2	decision	foodImageDisplay	2	97	37	foodImage.95	FOODEEG_Images\0903.jpg	NY	Right	Yes	0.917928299999858	0	471396	252
922.7578125	0.917928299999858	decision	choicePhaseStart	2	97	37	foodImage.95	FOODEEG_Images\0903.jpg	NY	Right	Yes	0.917928299999858	0	472453	253
923.666015625	0	decision	response	2	97	37	foodImage.95	FOODEEG_Images\0903.jpg	NY	Right	Yes	0.917928299999858	0	472918	235
924.708984375	1	taste	trialStart	2	98	38	foodImage.31	FOODEEG_Images\0294.jpg	NY	Right	Yes	0.924183199999788	0	473452	251
925.751953125	2	taste	foodImageDisplay	2	98	38	foodImage.31	FOODEEG_Images\0294.jpg	NY	Right	Yes	0.924183199999788	0	473986	252
927.814453125	0.924183199999788	taste	choicePhaseStart	2	98	38	foodImage.31	FOODEEG_Images\0294.jpg	NY	Right	Yes	0.924183199999788	0	475042	253
928.73046875	0	taste	response	2	98	38	foodImage.31	FOODEEG_Images\0294.jpg	NY	Right	Yes	0.924183199999788	0	475511	235
929.7734375	1	taste	trialStart	2	99	39	foodImage.58	FOODEEG_Images\0605.jpg	YN	Left	Yes	1.93862649999983	0	476045	251
930.83203125	2	taste	foodImageDisplay	2	99	39	foodImage.58	FOODEEG_Images\0605.jpg	YN	Left	Yes	1.93862649999983	0	476587	252
932.896484375	1.93862649999983	taste	choicePhaseStart	2	99	39	foodImage.58	FOODEEG_Images\0605.jpg	YN	Left	Yes	1.93862649999983	0	477644	253
934.826171875	0	taste	response	2	99	39	foodImage.58	FOODEEG_Images\0605.jpg	YN	Left	Yes	1.93862649999983	0	478632	234
935.869140625	1	health	trialStart	2	100	40	foodImage.100	FOODEEG_Images\0908.jpg	YN	Left	Yes	1.1739749000003	0	479166	251
936.908203125	2	health	foodImageDisplay	2	100	40	foodImage.100	FOODEEG_Images\0908.jpg	YN	Left	Yes	1.1739749000003	0	479698	252
938.97265625	1.1739749000003	health	choicePhaseStart	2	100	40	foodImage.100	FOODEEG_Images\0908.jpg	YN	Left	Yes	1.1739749000003	0	480755	253
940.13671875	0	health	response	2	100	40	foodImage.100	FOODEEG_Images\0908.jpg	YN	Left	Yes	1.1739749000003	0	481351	234
941.181640625	1	taste	trialStart	2	101	41	foodImage.68	FOODEEG_Images\0685.jpg	NY	Right	Yes	1.06813350000039	0	481886	251
942.263671875	2	taste	foodImageDisplay	2	101	41	foodImage.68	FOODEEG_Images\0685.jpg	NY	Right	Yes	1.06813350000039	0	482440	252
944.326171875	1.06813350000039	taste	choicePhaseStart	2	101	41	foodImage.68	FOODEEG_Images\0685.jpg	NY	Right	Yes	1.06813350000039	0	483496	253
945.384765625	0	taste	response	2	101	41	foodImage.68	FOODEEG_Images\0685.jpg	NY	Right	Yes	1.06813350000039	0	484038	235
946.427734375	1	taste	trialStart	2	102	42	foodImage.50	FOODEEG_Images\0529.jpg	NY	Right	Yes	0.91220659999999	0	484572	251
947.48828125	2	taste	foodImageDisplay	2	102	42	foodImage.50	FOODEEG_Images\0529.jpg	NY	Right	Yes	0.91220659999999	0	485115	252
949.5546875	0.91220659999999	taste	choicePhaseStart	2	102	42	foodImage.50	FOODEEG_Images\0529.jpg	NY	Right	Yes	0.91220659999999	0	486173	253
950.45703125	0	taste	response	2	102	42	foodImage.50	FOODEEG_Images\0529.jpg	NY	Right	Yes	0.91220659999999	0	486635	235
951.501953125	1	health	trialStart	2	103	43	foodImage.49	FOODEEG_Images\0515.jpg	NY	Left	No	1.05236940000032	0	487170	251
952.54296875	2	health	foodImageDisplay	2	103	43	foodImage.49	FOODEEG_Images\0515.jpg	NY	Left	No	1.05236940000032	0	487703	252
954.607421875	1.05236940000032	health	choicePhaseStart	2	103	43	foodImage.49	FOODEEG_Images\0515.jpg	NY	Left	No	1.05236940000032	0	488760	253
955.6484375	0	health	response	2	103	43	foodImage.49	FOODEEG_Images\0515.jpg	NY	Left	No	1.05236940000032	0	489293	234
956.69140625	1	decision	trialStart	2	104	44	foodImage.62	FOODEEG_Images\0644.jpg	YN	Left	Yes	1.04553940000005	0	489827	251
957.748046875	2	decision	foodImageDisplay	2	104	44	foodImage.62	FOODEEG_Images\0644.jpg	YN	Left	Yes	1.04553940000005	0	490368	252
959.8125	1.04553940000005	decision	choicePhaseStart	2	104	44	foodImage.62	FOODEEG_Images\0644.jpg	YN	Left	Yes	1.04553940000005	0	491425	253
960.84765625	0	decision	response	2	104	44	foodImage.62	FOODEEG_Images\0644.jpg	YN	Left	Yes	1.04553940000005	0	491955	234
961.890625	1	taste	trialStart	2	105	45	foodImage.9	FOODEEG_Images\0138.jpg	YN	Left	Yes	1.25554390000025	0	492489	251
962.9453125	2	taste	foodImageDisplay	2	105	45	foodImage.9	FOODEEG_Images\0138.jpg	YN	Left	Yes	1.25554390000025	0	493029	252
965.009765625	1.25554390000025	taste	choicePhaseStart	2	105	45	foodImage.9	FOODEEG_Images\0138.jpg	YN	Left	Yes	1.25554390000025	0	494086	253
966.255859375	0	taste	response	2	105	45	foodImage.9	FOODEEG_Images\0138.jpg	YN	Left	Yes	1.25554390000025	0	494724	234
967.298828125	1	decision	trialStart	2	106	46	foodImage.57	FOODEEG_Images\0587.jpg	YN	Right	No	0.691254400000162	0	495258	251
968.34375	2	decision	foodImageDisplay	2	106	46	foodImage.57	FOODEEG_Images\0587.jpg	YN	Right	No	0.691254400000162	0	495793	252
970.40625	0.691254400000162	decision	choicePhaseStart	2	106	46	foodImage.57	FOODEEG_Images\0587.jpg	YN	Right	No	0.691254400000162	0	496849	253
971.087890625	0	decision	response	2	106	46	foodImage.57	FOODEEG_Images\0587.jpg	YN	Right	No	0.691254400000162	0	497198	235
972.1328125	1	taste	trialStart	2	107	47	foodImage.104	FOODEEG_Images\0912.jpg	YN	Right	No	0.706794000000173	0	497733	251
973.173828125	2	taste	foodImageDisplay	2	107	47	foodImage.104	FOODEEG_Images\0912.jpg	YN	Right	No	0.706794000000173	0	498266	252
975.23828125	0.706794000000173	taste	choicePhaseStart	2	107	47	foodImage.104	FOODEEG_Images\0912.jpg	YN	Right	No	0.706794000000173	0	499323	253
975.935546875	0	taste	response	2	107	47	foodImage.104	FOODEEG_Images\0912.jpg	YN	Right	No	0.706794000000173	0	499680	235
976.978515625	1	decision	trialStart	2	108	48	foodImage.42	FOODEEG_Images\0438.jpg	YN	Right	No	1.14233790000026	0	500214	251
978.068359375	2	decision	foodImageDisplay	2	108	48	foodImage.42	FOODEEG_Images\0438.jpg	YN	Right	No	1.14233790000026	0	500772	252
980.130859375	1.14233790000026	decision	choicePhaseStart	2	108	48	foodImage.42	FOODEEG_Images\0438.jpg	YN	Right	No	1.14233790000026	0	501828	253
981.263671875	0	decision	response	2	108	48	foodImage.42	FOODEEG_Images\0438.jpg	YN	Right	No	1.14233790000026	0	502408	235
982.306640625	1	health	trialStart	2	109	49	foodImage.99	FOODEEG_Images\0907.jpg	YN	Right	No	1.00743229999989	0	502942	251
983.345703125	2	health	foodImageDisplay	2	109	49	foodImage.99	FOODEEG_Images\0907.jpg	YN	Right	No	1.00743229999989	0	503474	252
985.41015625	1.00743229999989	health	choicePhaseStart	2	109	49	foodImage.99	FOODEEG_Images\0907.jpg	YN	Right	No	1.00743229999989	0	504531	253
986.408203125	0	health	response	2	109	49	foodImage.99	FOODEEG_Images\0907.jpg	YN	Right	No	1.00743229999989	0	505042	235
987.451171875	1	taste	trialStart	2	110	50	foodImage.11	FOODEEG_Images\0180.jpg	NY	Right	Yes	0.969094499999755	0	505576	251
988.49609375	2	taste	foodImageDisplay	2	110	50	foodImage.11	FOODEEG_Images\0180.jpg	NY	Right	Yes	0.969094499999755	0	506111	252
990.560546875	0.969094499999755	taste	choicePhaseStart	2	110	50	foodImage.11	FOODEEG_Images\0180.jpg	NY	Right	Yes	0.969094499999755	0	507168	253
991.51953125	0	taste	response	2	110	50	foodImage.11	FOODEEG_Images\0180.jpg	NY	Right	Yes	0.969094499999755	0	507659	235
992.564453125	1	taste	trialStart	2	111	51	foodImage.106	FOODEEG_Images\0914.jpg	NY	Left	No	1.31654549999985	0	508194	251
993.603515625	2	taste	foodImageDisplay	2	111	51	foodImage.106	FOODEEG_Images\0914.jpg	NY	Left	No	1.31654549999985	0	508726	252
995.66796875	1.31654549999985	taste	choicePhaseStart	2	111	51	foodImage.106	FOODEEG_Images\0914.jpg	NY	Left	No	1.31654549999985	0	509783	253
996.974609375	0	taste	response	2	111	51	foodImage.106	FOODEEG_Images\0914.jpg	NY	Left	No	1.31654549999985	0	510452	234
998.017578125	1	taste	trialStart	2	112	52	foodImage.61	FOODEEG_Images\0640.jpg	NY	Right	Yes	1.0363596000002	0	510986	251
999.060546875	2	taste	foodImageDisplay	2	112	52	foodImage.61	FOODEEG_Images\0640.jpg	NY	Right	Yes	1.0363596000002	0	511520	252
1001.125	1.0363596000002	taste	choicePhaseStart	2	112	52	foodImage.61	FOODEEG_Images\0640.jpg	NY	Right	Yes	1.0363596000002	0	512577	253
1002.150390625	0	taste	response	2	112	52	foodImage.61	FOODEEG_Images\0640.jpg	NY	Right	Yes	1.0363596000002	0	513102	235
1003.193359375	1	taste	trialStart	2	113	53	foodImage.1	FOODEEG_Images\0004.jpg	NY	Right	Yes	1.64500719999978	0	513636	251
1004.234375	2	taste	foodImageDisplay	2	113	53	foodImage.1	FOODEEG_Images\0004.jpg	NY	Right	Yes	1.64500719999978	0	514169	252
1006.296875	1.64500719999978	taste	choicePhaseStart	2	113	53	foodImage.1	FOODEEG_Images\0004.jpg	NY	Right	Yes	1.64500719999978	0	515225	253
1007.935546875	0	taste	response	2	113	53	foodImage.1	FOODEEG_Images\0004.jpg	NY	Right	Yes	1.64500719999978	0	516064	235
1008.978515625	1	decision	trialStart	2	114	54	foodImage.58	FOODEEG_Images\0605.jpg	NY	Left	No	1.30475640000031	0	516598	251
1010.03515625	2	decision	foodImageDisplay	2	114	54	foodImage.58	FOODEEG_Images\0605.jpg	NY	Left	No	1.30475640000031	0	517139	252
1012.1015625	1.30475640000031	decision	choicePhaseStart	2	114	54	foodImage.58	FOODEEG_Images\0605.jpg	NY	Left	No	1.30475640000031	0	518197	253
1013.3984375	0	decision	response	2	114	54	foodImage.58	FOODEEG_Images\0605.jpg	NY	Left	No	1.30475640000031	0	518861	234
1014.443359375	1	health	trialStart	2	115	55	foodImage.68	FOODEEG_Images\0685.jpg	YN	Left	Yes	1.92133530000001	0	519396	251
1015.51953125	2	health	foodImageDisplay	2	115	55	foodImage.68	FOODEEG_Images\0685.jpg	YN	Left	Yes	1.92133530000001	0	519947	252
1017.58203125	1.92133530000001	health	choicePhaseStart	2	115	55	foodImage.68	FOODEEG_Images\0685.jpg	YN	Left	Yes	1.92133530000001	0	521003	253
1019.494140625	0	health	response	2	115	55	foodImage.68	FOODEEG_Images\0685.jpg	YN	Left	Yes	1.92133530000001	0	521982	234
1020.537109375	1	decision	trialStart	2	116	56	foodImage.114	FOODEEG_Images\0922.jpg	YN	Right	No	0.825382699999864	0	522516	251
1021.57421875	2	decision	foodImageDisplay	2	116	56	foodImage.114	FOODEEG_Images\0922.jpg	YN	Right	No	0.825382699999864	0	523047	252
1023.63671875	0.825382699999864	decision	choicePhaseStart	2	116	56	foodImage.114	FOODEEG_Images\0922.jpg	YN	Right	No	0.825382699999864	0	524103	253
1024.455078125	0	decision	response	2	116	56	foodImage.114	FOODEEG_Images\0922.jpg	YN	Right	No	0.825382699999864	0	524522	235
1025.498046875	1	decision	trialStart	2	117	57	foodImage.83	FOODEEG_Images\0827.jpg	NY	Right	Yes	0.533206200000222	0	525056	251
1026.552734375	2	decision	foodImageDisplay	2	117	57	foodImage.83	FOODEEG_Images\0827.jpg	NY	Right	Yes	0.533206200000222	0	525596	252
1028.615234375	0.533206200000222	decision	choicePhaseStart	2	117	57	foodImage.83	FOODEEG_Images\0827.jpg	NY	Right	Yes	0.533206200000222	0	526652	253
1029.142578125	0	decision	response	2	117	57	foodImage.83	FOODEEG_Images\0827.jpg	NY	Right	Yes	0.533206200000222	0	526922	235
1030.185546875	1	health	trialStart	2	118	58	foodImage.26	FOODEEG_Images\0262.jpg	YN	Left	Yes	0.773647699999856	0	527456	251
1031.234375	2	health	foodImageDisplay	2	118	58	foodImage.26	FOODEEG_Images\0262.jpg	YN	Left	Yes	0.773647699999856	0	527993	252
1033.296875	0.773647699999856	health	choicePhaseStart	2	118	58	foodImage.26	FOODEEG_Images\0262.jpg	YN	Left	Yes	0.773647699999856	0	529049	253
1034.0625	0	health	response	2	118	58	foodImage.26	FOODEEG_Images\0262.jpg	YN	Left	Yes	0.773647699999856	0	529441	234
1035.10546875	1	health	trialStart	2	119	59	foodImage.64	FOODEEG_Images\0647.jpg	NY	Right	Yes	1.0675769999998	0	529975	251
1036.162109375	2	health	foodImageDisplay	2	119	59	foodImage.64	FOODEEG_Images\0647.jpg	NY	Right	Yes	1.0675769999998	0	530516	252
1038.2265625	1.0675769999998	health	choicePhaseStart	2	119	59	foodImage.64	FOODEEG_Images\0647.jpg	NY	Right	Yes	1.0675769999998	0	531573	253
1039.28515625	0	health	response	2	119	59	foodImage.64	FOODEEG_Images\0647.jpg	NY	Right	Yes	1.0675769999998	0	532115	235
1040.330078125	1	decision	trialStart	2	120	60	foodImage.78	FOODEEG_Images\0787.jpg	NY	Right	Yes	0.826589900000272	0	532650	251
1041.373046875	2	decision	foodImageDisplay	2	120	60	foodImage.78	FOODEEG_Images\0787.jpg	NY	Right	Yes	0.826589900000272	0	533184	252
1043.435546875	0.826589900000272	decision	choicePhaseStart	2	120	60	foodImage.78	FOODEEG_Images\0787.jpg	NY	Right	Yes	0.826589900000272	0	534240	253
1044.25390625	0	decision	response	2	120	60	foodImage.78	FOODEEG_Images\0787.jpg	NY	Right	Yes	0.826589900000272	0	534659	235
1046.296875	11.017578125	n/a	blockEnd	n/a	n/a	n/a	n/a	n/a	n/a	n/a	n/a	n/a	n/a	535705	254
1057.314453125	2	n/a	blockStart	3	n/a	n/a	n/a	n/a	n/a	n/a	n/a	n/a	n/a	541346	250
1059.345703125	1	health	trialStart	3	121	1	foodImage.59	FOODEEG_Images\0607.jpg	YN	Right	No	0.859484200000225	0	542386	251
1060.41796875	2	health	foodImageDisplay	3	121	1	foodImage.59	FOODEEG_Images\0607.jpg	YN	Right	No	0.859484200000225	0	542935	252
1062.482421875	0.859484200000225	health	choicePhaseStart	3	121	1	foodImage.59	FOODEEG_Images\0607.jpg	YN	Right	No	0.859484200000225	0	543992	253
1063.33203125	0	health	response	3	121	1	foodImage.59	FOODEEG_Images\0607.jpg	YN	Right	No	0.859484200000225	0	544427	235
1064.375	1	health	trialStart	3	122	2	foodImage.112	FOODEEG_Images\0920.jpg	YN	Right	No	0.519166400000358	0	544961	251
1065.4140625	2	health	foodImageDisplay	3	122	2	foodImage.112	FOODEEG_Images\0920.jpg	YN	Right	No	0.519166400000358	0	545493	252
1067.478515625	0.519166400000358	health	choicePhaseStart	3	122	2	foodImage.112	FOODEEG_Images\0920.jpg	YN	Right	No	0.519166400000358	0	546550	253
1067.98828125	0	health	response	3	122	2	foodImage.112	FOODEEG_Images\0920.jpg	YN	Right	No	0.519166400000358	0	546811	235
1069.03125	1	taste	trialStart	3	123	3	foodImage.3	FOODEEG_Images\0046.jpg	NY	Right	Yes	1.32896450000044	0	547345	251
1070.07421875	2	taste	foodImageDisplay	3	123	3	foodImage.3	FOODEEG_Images\0046.jpg	NY	Right	Yes	1.32896450000044	0	547879	252
1072.138671875	1.32896450000044	taste	choicePhaseStart	3	123	3	foodImage.3	FOODEEG_Images\0046.jpg	NY	Right	Yes	1.32896450000044	0	548936	253
1073.4609375	0	taste	response	3	123	3	foodImage.3	FOODEEG_Images\0046.jpg	NY	Right	Yes	1.32896450000044	0	549613	235
1074.50390625	1	decision	trialStart	3	124	4	foodImage.4	FOODEEG_Images\0065.jpg	YN	Left	Yes	1.39001380000036	0	550147	251
1075.564453125	2	decision	foodImageDisplay	3	124	4	foodImage.4	FOODEEG_Images\0065.jpg	YN	Left	Yes	1.39001380000036	0	550690	252
1077.62890625	1.39001380000036	decision	choicePhaseStart	3	124	4	foodImage.4	FOODEEG_Images\0065.jpg	YN	Left	Yes	1.39001380000036	0	551747	253
1079.01171875	0	decision	response	3	124	4	foodImage.4	FOODEEG_Images\0065.jpg	YN	Left	Yes	1.39001380000036	0	552455	234
1080.0546875	1	health	trialStart	3	125	5	foodImage.30	FOODEEG_Images\0282.jpg	YN	Left	Yes	1.32235360000004	0	552989	251
1081.099609375	2	health	foodImageDisplay	3	125	5	foodImage.30	FOODEEG_Images\0282.jpg	YN	Left	Yes	1.32235360000004	0	553524	252
1083.162109375	1.32235360000004	health	choicePhaseStart	3	125	5	foodImage.30	FOODEEG_Images\0282.jpg	YN	Left	Yes	1.32235360000004	0	554580	253
1084.4765625	0	health	response	3	125	5	foodImage.30	FOODEEG_Images\0282.jpg	YN	Left	Yes	1.32235360000004	0	555253	234
1085.517578125	1	health	trialStart	3	126	6	foodImage.97	FOODEEG_Images\0905.jpg	NY	Left	No	0.522706400000061	0	555786	251
1086.556640625	2	health	foodImageDisplay	3	126	6	foodImage.97	FOODEEG_Images\0905.jpg	NY	Left	No	0.522706400000061	0	556318	252
1088.619140625	0.522706400000061	health	choicePhaseStart	3	126	6	foodImage.97	FOODEEG_Images\0905.jpg	NY	Left	No	0.522706400000061	0	557374	253
1089.130859375	0	health	response	3	126	6	foodImage.97	FOODEEG_Images\0905.jpg	NY	Left	No	0.522706400000061	0	557636	234
1090.17578125	1	taste	trialStart	3	127	7	foodImage.105	FOODEEG_Images\0913.jpg	NY	Left	No	0.742984999999862	0	558171	251
1091.212890625	2	taste	foodImageDisplay	3	127	7	foodImage.105	FOODEEG_Images\0913.jpg	NY	Left	No	0.742984999999862	0	558702	252
1093.27734375	0.742984999999862	taste	choicePhaseStart	3	127	7	foodImage.105	FOODEEG_Images\0913.jpg	NY	Left	No	0.742984999999862	0	559759	253
1094.01171875	0	taste	response	3	127	7	foodImage.105	FOODEEG_Images\0913.jpg	NY	Left	No	0.742984999999862	0	560135	234
1095.0546875	1	taste	trialStart	3	128	8	foodImage.6	FOODEEG_Images\0113.jpg	YN	Left	Yes	1.50785719999976	0	560669	251
1096.09765625	2	taste	foodImageDisplay	3	128	8	foodImage.6	FOODEEG_Images\0113.jpg	YN	Left	Yes	1.50785719999976	0	561203	252
1098.16015625	1.50785719999976	taste	choicePhaseStart	3	128	8	foodImage.6	FOODEEG_Images\0113.jpg	YN	Left	Yes	1.50785719999976	0	562259	253
1099.66015625	0	taste	response	3	128	8	foodImage.6	FOODEEG_Images\0113.jpg	YN	Left	Yes	1.50785719999976	0	563027	234
1100.705078125	1	health	trialStart	3	129	9	foodImage.34	FOODEEG_Images\0339.jpg	YN	Right	No	1.13559280000027	0	563562	251
1101.763671875	2	health	foodImageDisplay	3	129	9	foodImage.34	FOODEEG_Images\0339.jpg	YN	Right	No	1.13559280000027	0	564104	252
1103.828125	1.13559280000027	health	choicePhaseStart	3	129	9	foodImage.34	FOODEEG_Images\0339.jpg	YN	Right	No	1.13559280000027	0	565161	253
1104.955078125	0	health	response	3	129	9	foodImage.34	FOODEEG_Images\0339.jpg	YN	Right	No	1.13559280000027	0	565738	235
1105.998046875	1	decision	trialStart	3	130	10	foodImage.2	FOODEEG_Images\0028.jpg	YN	Left	Yes	2.76358880000043	0	566272	251
1107.041015625	2	decision	foodImageDisplay	3	130	10	foodImage.2	FOODEEG_Images\0028.jpg	YN	Left	Yes	2.76358880000043	0	566806	252
1109.10546875	2.76358880000043	decision	choicePhaseStart	3	130	10	foodImage.2	FOODEEG_Images\0028.jpg	YN	Left	Yes	2.76358880000043	0	567863	253
1111.859375	0	decision	response	3	130	10	foodImage.2	FOODEEG_Images\0028.jpg	YN	Left	Yes	2.76358880000043	0	569273	234
1112.90234375	1	health	trialStart	3	131	11	foodImage.7	FOODEEG_Images\0116.jpg	YN	Right	No	1.08129610000015	0	569807	251
1113.943359375	2	health	foodImageDisplay	3	131	11	foodImage.7	FOODEEG_Images\0116.jpg	YN	Right	No	1.08129610000015	0	570340	252
1116.0078125	1.08129610000015	health	choicePhaseStart	3	131	11	foodImage.7	FOODEEG_Images\0116.jpg	YN	Right	No	1.08129610000015	0	571397	253
1117.08203125	0	health	response	3	131	11	foodImage.7	FOODEEG_Images\0116.jpg	YN	Right	No	1.08129610000015	0	571947	235
1118.125	1	health	trialStart	3	132	12	foodImage.21	FOODEEG_Images\0234.jpg	NY	Right	Yes	0.618301599999995	0	572481	251
1119.185546875	2	health	foodImageDisplay	3	132	12	foodImage.21	FOODEEG_Images\0234.jpg	NY	Right	Yes	0.618301599999995	0	573024	252
1121.248046875	0.618301599999995	health	choicePhaseStart	3	132	12	foodImage.21	FOODEEG_Images\0234.jpg	NY	Right	Yes	0.618301599999995	0	574080	253
1121.857421875	0	health	response	3	132	12	foodImage.21	FOODEEG_Images\0234.jpg	NY	Right	Yes	0.618301599999995	0	574392	235
1122.900390625	1	decision	trialStart	3	133	13	foodImage.63	FOODEEG_Images\0645.jpg	YN	Right	No	1.04850399999987	0	574926	251
1123.943359375	2	decision	foodImageDisplay	3	133	13	foodImage.63	FOODEEG_Images\0645.jpg	YN	Right	No	1.04850399999987	0	575460	252
1126.009765625	1.04850399999987	decision	choicePhaseStart	3	133	13	foodImage.63	FOODEEG_Images\0645.jpg	YN	Right	No	1.04850399999987	0	576518	253
1127.05078125	0	decision	response	3	133	13	foodImage.63	FOODEEG_Images\0645.jpg	YN	Right	No	1.04850399999987	0	577051	235
1128.095703125	1	taste	trialStart	3	134	14	foodImage.10	FOODEEG_Images\0145.jpg	NY	Right	Yes	0.970002600000043	0	577586	251
1129.154296875	2	taste	foodImageDisplay	3	134	14	foodImage.10	FOODEEG_Images\0145.jpg	NY	Right	Yes	0.970002600000043	0	578128	252
1131.216796875	0.970002600000043	taste	choicePhaseStart	3	134	14	foodImage.10	FOODEEG_Images\0145.jpg	NY	Right	Yes	0.970002600000043	0	579184	253
1132.177734375	0	taste	response	3	134	14	foodImage.10	FOODEEG_Images\0145.jpg	NY	Right	Yes	0.970002600000043	0	579676	235
1133.2265625	1	taste	trialStart	3	135	15	foodImage.33	FOODEEG_Images\0329.jpg	NY	Right	Yes	1.09109810000018	0	580213	251
1134.26953125	2	taste	foodImageDisplay	3	135	15	foodImage.33	FOODEEG_Images\0329.jpg	NY	Right	Yes	1.09109810000018	0	580747	252
1136.333984375	1.09109810000018	taste	choicePhaseStart	3	135	15	foodImage.33	FOODEEG_Images\0329.jpg	NY	Right	Yes	1.09109810000018	0	581804	253
1137.41796875	0	taste	response	3	135	15	foodImage.33	FOODEEG_Images\0329.jpg	NY	Right	Yes	1.09109810000018	0	582359	235
1138.4609375	1	health	trialStart	3	136	16	foodImage.61	FOODEEG_Images\0640.jpg	YN	Left	Yes	1.49944809999988	0	582893	251
1139.50390625	2	health	foodImageDisplay	3	136	16	foodImage.61	FOODEEG_Images\0640.jpg	YN	Left	Yes	1.49944809999988	0	583427	252
1141.568359375	1.49944809999988	health	choicePhaseStart	3	136	16	foodImage.61	FOODEEG_Images\0640.jpg	YN	Left	Yes	1.49944809999988	0	584484	253
1143.05859375	0	health	response	3	136	16	foodImage.61	FOODEEG_Images\0640.jpg	YN	Left	Yes	1.49944809999988	0	585247	234
1144.099609375	1	decision	trialStart	3	137	17	foodImage.7	FOODEEG_Images\0116.jpg	YN	Left	Yes	1.06864940000014	0	585780	251
1145.140625	2	decision	foodImageDisplay	3	137	17	foodImage.7	FOODEEG_Images\0116.jpg	YN	Left	Yes	1.06864940000014	0	586313	252
1147.20703125	1.06864940000014	decision	choicePhaseStart	3	137	17	foodImage.7	FOODEEG_Images\0116.jpg	YN	Left	Yes	1.06864940000014	0	587371	253
1148.265625	0	decision	response	3	137	17	foodImage.7	FOODEEG_Images\0116.jpg	YN	Left	Yes	1.06864940000014	0	587913	234
1149.30859375	1	health	trialStart	3	138	18	foodImage.35	FOODEEG_Images\0350.jpg	NY	Right	Yes	1.82902349999995	0	588447	251
1150.349609375	2	health	foodImageDisplay	3	138	18	foodImage.35	FOODEEG_Images\0350.jpg	NY	Right	Yes	1.82902349999995	0	588980	252
1152.412109375	1.82902349999995	health	choicePhaseStart	3	138	18	foodImage.35	FOODEEG_Images\0350.jpg	NY	Right	Yes	1.82902349999995	0	590036	253
1154.232421875	0	health	response	3	138	18	foodImage.35	FOODEEG_Images\0350.jpg	NY	Right	Yes	1.82902349999995	0	590968	235
1155.275390625	1	decision	trialStart	3	139	19	foodImage.86	FOODEEG_Images\0844.jpg	NY	Right	Yes	1.44248930000003	0	591502	251
1156.333984375	2	decision	foodImageDisplay	3	139	19	foodImage.86	FOODEEG_Images\0844.jpg	NY	Right	Yes	1.44248930000003	0	592044	252
1158.3984375	1.44248930000003	decision	choicePhaseStart	3	139	19	foodImage.86	FOODEEG_Images\0844.jpg	NY	Right	Yes	1.44248930000003	0	593101	253
1159.833984375	0	decision	response	3	139	19	foodImage.86	FOODEEG_Images\0844.jpg	NY	Right	Yes	1.44248930000003	0	593836	235
1160.875	1	decision	trialStart	3	140	20	foodImage.50	FOODEEG_Images\0529.jpg	YN	Left	Yes	1.21972749999986	0	594369	251
1161.93359375	2	decision	foodImageDisplay	3	140	20	foodImage.50	FOODEEG_Images\0529.jpg	YN	Left	Yes	1.21972749999986	0	594911	252
1163.998046875	1.21972749999986	decision	choicePhaseStart	3	140	20	foodImage.50	FOODEEG_Images\0529.jpg	YN	Left	Yes	1.21972749999986	0	595968	253
1165.208984375	0	decision	response	3	140	20	foodImage.50	FOODEEG_Images\0529.jpg	YN	Left	Yes	1.21972749999986	0	596588	234
1166.251953125	1	health	trialStart	3	141	21	foodImage.82	FOODEEG_Images\0805.jpg	YN	Left	Yes	1.00215969999999	0	597122	251
1167.306640625	2	health	foodImageDisplay	3	141	21	foodImage.82	FOODEEG_Images\0805.jpg	YN	Left	Yes	1.00215969999999	0	597662	252
1169.375	1.00215969999999	health	choicePhaseStart	3	141	21	foodImage.82	FOODEEG_Images\0805.jpg	YN	Left	Yes	1.00215969999999	0	598721	253
1170.369140625	0	health	response	3	141	21	foodImage.82	FOODEEG_Images\0805.jpg	YN	Left	Yes	1.00215969999999	0	599230	234
1171.416015625	1	taste	trialStart	3	142	22	foodImage.21	FOODEEG_Images\0234.jpg	NY	Right	Yes	0.511543800000254	0	599766	251
1172.474609375	2	taste	foodImageDisplay	3	142	22	foodImage.21	FOODEEG_Images\0234.jpg	NY	Right	Yes	0.511543800000254	0	600308	252
1174.5390625	0.511543800000254	taste	choicePhaseStart	3	142	22	foodImage.21	FOODEEG_Images\0234.jpg	NY	Right	Yes	0.511543800000254	0	601365	253
1175.041015625	0	taste	response	3	142	22	foodImage.21	FOODEEG_Images\0234.jpg	NY	Right	Yes	0.511543800000254	0	601622	235
1176.083984375	1	decision	trialStart	3	143	23	foodImage.5	FOODEEG_Images\0107.jpg	NY	Right	Yes	0.962401899999804	0	602156	251
1177.142578125	2	decision	foodImageDisplay	3	143	23	foodImage.5	FOODEEG_Images\0107.jpg	NY	Right	Yes	0.962401899999804	0	602698	252
1179.205078125	0.962401899999804	decision	choicePhaseStart	3	143	23	foodImage.5	FOODEEG_Images\0107.jpg	NY	Right	Yes	0.962401899999804	0	603754	253
1180.16015625	0	decision	response	3	143	23	foodImage.5	FOODEEG_Images\0107.jpg	NY	Right	Yes	0.962401899999804	0	604243	235
1181.203125	1	taste	trialStart	3	144	24	foodImage.23	FOODEEG_Images\0244.jpg	YN	Right	No	1.00913969999965	0	604777	251
1182.24609375	2	taste	foodImageDisplay	3	144	24	foodImage.23	FOODEEG_Images\0244.jpg	YN	Right	No	1.00913969999965	0	605311	252
1184.310546875	1.00913969999965	taste	choicePhaseStart	3	144	24	foodImage.23	FOODEEG_Images\0244.jpg	YN	Right	No	1.00913969999965	0	606368	253
1185.3125	0	taste	response	3	144	24	foodImage.23	FOODEEG_Images\0244.jpg	YN	Right	No	1.00913969999965	0	606881	235
1186.35546875	1	taste	trialStart	3	145	25	foodImage.47	FOODEEG_Images\0488.jpg	NY	Left	No	2.2546983000002	0	607415	251
1187.40234375	2	taste	foodImageDisplay	3	145	25	foodImage.47	FOODEEG_Images\0488.jpg	NY	Left	No	2.2546983000002	0	607951	252
1189.46484375	2.2546983000002	taste	choicePhaseStart	3	145	25	foodImage.47	FOODEEG_Images\0488.jpg	NY	Left	No	2.2546983000002	0	609007	253
1191.7109375	0	taste	response	3	145	25	foodImage.47	FOODEEG_Images\0488.jpg	NY	Left	No	2.2546983000002	0	610157	234
1192.7578125	1	health	trialStart	3	146	26	foodImage.19	FOODEEG_Images\0225.jpg	NY	Right	Yes	2.9284647999998	0	610693	251
1193.80078125	2	health	foodImageDisplay	3	146	26	foodImage.19	FOODEEG_Images\0225.jpg	NY	Right	Yes	2.9284647999998	0	611227	252
1195.865234375	2.9284647999998	health	choicePhaseStart	3	146	26	foodImage.19	FOODEEG_Images\0225.jpg	NY	Right	Yes	2.9284647999998	0	612284	253
1198.783203125	0	health	response	3	146	26	foodImage.19	FOODEEG_Images\0225.jpg	NY	Right	Yes	2.9284647999998	0	613778	235
1199.822265625	1	taste	trialStart	3	147	27	foodImage.36	FOODEEG_Images\0352.jpg	YN	Left	Yes	0.559323599999971	0	614310	251
1200.880859375	2	taste	foodImageDisplay	3	147	27	foodImage.36	FOODEEG_Images\0352.jpg	YN	Left	Yes	0.559323599999971	0	614852	252
1202.9453125	0.559323599999971	taste	choicePhaseStart	3	147	27	foodImage.36	FOODEEG_Images\0352.jpg	YN	Left	Yes	0.559323599999971	0	615909	253
1203.49609375	0	taste	response	3	147	27	foodImage.36	FOODEEG_Images\0352.jpg	YN	Left	Yes	0.559323599999971	0	616191	234
1204.5390625	1	taste	trialStart	3	148	28	foodImage.32	FOODEEG_Images\0319.jpg	NY	Right	Yes	1.2154244000003	0	616725	251
1205.583984375	2	taste	foodImageDisplay	3	148	28	foodImage.32	FOODEEG_Images\0319.jpg	NY	Right	Yes	1.2154244000003	0	617260	252
1207.6484375	1.2154244000003	taste	choicePhaseStart	3	148	28	foodImage.32	FOODEEG_Images\0319.jpg	NY	Right	Yes	1.2154244000003	0	618317	253
1208.85546875	0	taste	response	3	148	28	foodImage.32	FOODEEG_Images\0319.jpg	NY	Right	Yes	1.2154244000003	0	618935	235
1209.896484375	1	health	trialStart	3	149	29	foodImage.28	FOODEEG_Images\0273.jpg	NY	Right	Yes	0.964000099999794	0	619468	251
1210.939453125	2	health	foodImageDisplay	3	149	29	foodImage.28	FOODEEG_Images\0273.jpg	NY	Right	Yes	0.964000099999794	0	620002	252
1213.00390625	0.964000099999794	health	choicePhaseStart	3	149	29	foodImage.28	FOODEEG_Images\0273.jpg	NY	Right	Yes	0.964000099999794	0	621059	253
1213.958984375	0	health	response	3	149	29	foodImage.28	FOODEEG_Images\0273.jpg	NY	Right	Yes	0.964000099999794	0	621548	235
1215.001953125	1	health	trialStart	3	150	30	foodImage.1	FOODEEG_Images\0004.jpg	YN	Right	No	1.46751270000004	0	622082	251
1216.044921875	2	health	foodImageDisplay	3	150	30	foodImage.1	FOODEEG_Images\0004.jpg	YN	Right	No	1.46751270000004	0	622616	252
1218.107421875	1.46751270000004	health	choicePhaseStart	3	150	30	foodImage.1	FOODEEG_Images\0004.jpg	YN	Right	No	1.46751270000004	0	623672	253
1219.56640625	0	health	response	3	150	30	foodImage.1	FOODEEG_Images\0004.jpg	YN	Right	No	1.46751270000004	0	624419	235
1220.611328125	1	health	trialStart	3	151	31	foodImage.24	FOODEEG_Images\0250.jpg	NY	Right	Yes	0.881717199999912	0	624954	251
1221.654296875	2	health	foodImageDisplay	3	151	31	foodImage.24	FOODEEG_Images\0250.jpg	NY	Right	Yes	0.881717199999912	0	625488	252
1223.71875	0.881717199999912	health	choicePhaseStart	3	151	31	foodImage.24	FOODEEG_Images\0250.jpg	NY	Right	Yes	0.881717199999912	0	626545	253
1224.58984375	0	health	response	3	151	31	foodImage.24	FOODEEG_Images\0250.jpg	NY	Right	Yes	0.881717199999912	0	626991	235
1225.6328125	1	decision	trialStart	3	152	32	foodImage.67	FOODEEG_Images\0679.jpg	YN	Right	No	1.82727620000014	0	627525	251
1226.69140625	2	decision	foodImageDisplay	3	152	32	foodImage.67	FOODEEG_Images\0679.jpg	YN	Right	No	1.82727620000014	0	628067	252
1228.755859375	1.82727620000014	decision	choicePhaseStart	3	152	32	foodImage.67	FOODEEG_Images\0679.jpg	YN	Right	No	1.82727620000014	0	629124	253
1230.57421875	0	decision	response	3	152	32	foodImage.67	FOODEEG_Images\0679.jpg	YN	Right	No	1.82727620000014	0	630055	235
1231.6171875	1	taste	trialStart	3	153	33	foodImage.34	FOODEEG_Images\0339.jpg	YN	Left	Yes	1.50753900000018	0	630589	251
1232.67578125	2	taste	foodImageDisplay	3	153	33	foodImage.34	FOODEEG_Images\0339.jpg	YN	Left	Yes	1.50753900000018	0	631131	252
1234.73828125	1.50753900000018	taste	choicePhaseStart	3	153	33	foodImage.34	FOODEEG_Images\0339.jpg	YN	Left	Yes	1.50753900000018	0	632187	253
1236.23828125	0	taste	response	3	153	33	foodImage.34	FOODEEG_Images\0339.jpg	YN	Left	Yes	1.50753900000018	0	632955	234
1237.283203125	1	taste	trialStart	3	154	34	foodImage.35	FOODEEG_Images\0350.jpg	YN	Left	Yes	1.43037869999989	0	633490	251
1238.322265625	2	taste	foodImageDisplay	3	154	34	foodImage.35	FOODEEG_Images\0350.jpg	YN	Left	Yes	1.43037869999989	0	634022	252
1240.384765625	1.43037869999989	taste	choicePhaseStart	3	154	34	foodImage.35	FOODEEG_Images\0350.jpg	YN	Left	Yes	1.43037869999989	0	635078	253
1241.806640625	0	taste	response	3	154	34	foodImage.35	FOODEEG_Images\0350.jpg	YN	Left	Yes	1.43037869999989	0	635806	234
1242.849609375	1	health	trialStart	3	155	35	foodImage.71	FOODEEG_Images\0713.jpg	YN	Right	No	1.09250930000007	0	636340	251
1243.892578125	2	health	foodImageDisplay	3	155	35	foodImage.71	FOODEEG_Images\0713.jpg	YN	Right	No	1.09250930000007	0	636874	252
1245.955078125	1.09250930000007	health	choicePhaseStart	3	155	35	foodImage.71	FOODEEG_Images\0713.jpg	YN	Right	No	1.09250930000007	0	637930	253
1247.037109375	0	health	response	3	155	35	foodImage.71	FOODEEG_Images\0713.jpg	YN	Right	No	1.09250930000007	0	638484	235
1248.080078125	1	decision	trialStart	3	156	36	foodImage.15	FOODEEG_Images\0189.jpg	NY	Right	Yes	1.69150209999998	0	639018	251
1249.138671875	2	decision	foodImageDisplay	3	156	36	foodImage.15	FOODEEG_Images\0189.jpg	NY	Right	Yes	1.69150209999998	0	639560	252
1251.201171875	1.69150209999998	decision	choicePhaseStart	3	156	36	foodImage.15	FOODEEG_Images\0189.jpg	NY	Right	Yes	1.69150209999998	0	640616	253
1252.884765625	0	decision	response	3	156	36	foodImage.15	FOODEEG_Images\0189.jpg	NY	Right	Yes	1.69150209999998	0	641478	235
1253.9296875	1	taste	trialStart	3	157	37	foodImage.19	FOODEEG_Images\0225.jpg	YN	Right	No	2.17030400000021	0	642013	251
1254.97265625	2	taste	foodImageDisplay	3	157	37	foodImage.19	FOODEEG_Images\0225.jpg	YN	Right	No	2.17030400000021	0	642547	252
1257.03515625	2.17030400000021	taste	choicePhaseStart	3	157	37	foodImage.19	FOODEEG_Images\0225.jpg	YN	Right	No	2.17030400000021	0	643603	253
1259.197265625	0	taste	response	3	157	37	foodImage.19	FOODEEG_Images\0225.jpg	YN	Right	No	2.17030400000021	0	644710	235
1260.240234375	1	decision	trialStart	3	158	38	foodImage.22	FOODEEG_Images\0236.jpg	YN	Left	Yes	2.88925930000005	0	645244	251
1261.28125	2	decision	foodImageDisplay	3	158	38	foodImage.22	FOODEEG_Images\0236.jpg	YN	Left	Yes	2.88925930000005	0	645777	252
1263.34765625	2.88925930000005	decision	choicePhaseStart	3	158	38	foodImage.22	FOODEEG_Images\0236.jpg	YN	Left	Yes	2.88925930000005	0	646835	253
1266.228515625	0	decision	response	3	158	38	foodImage.22	FOODEEG_Images\0236.jpg	YN	Left	Yes	2.88925930000005	0	648310	234
1267.271484375	1	health	trialStart	3	159	39	foodImage.52	FOODEEG_Images\0539.jpg	YN	Left	Yes	0.620076100000006	0	648844	251
1268.330078125	2	health	foodImageDisplay	3	159	39	foodImage.52	FOODEEG_Images\0539.jpg	YN	Left	Yes	0.620076100000006	0	649386	252
1270.39453125	0.620076100000006	health	choicePhaseStart	3	159	39	foodImage.52	FOODEEG_Images\0539.jpg	YN	Left	Yes	0.620076100000006	0	650443	253
1271.00390625	0	health	response	3	159	39	foodImage.52	FOODEEG_Images\0539.jpg	YN	Left	Yes	0.620076100000006	0	650755	234
1272.048828125	1	health	trialStart	3	160	40	foodImage.77	FOODEEG_Images\0771.jpg	YN	Left	Yes	0.496460500000012	0	651290	251
1273.091796875	2	health	foodImageDisplay	3	160	40	foodImage.77	FOODEEG_Images\0771.jpg	YN	Left	Yes	0.496460500000012	0	651824	252
1275.15625	0.496460500000012	health	choicePhaseStart	3	160	40	foodImage.77	FOODEEG_Images\0771.jpg	YN	Left	Yes	0.496460500000012	0	652881	253
1275.64453125	0	health	response	3	160	40	foodImage.77	FOODEEG_Images\0771.jpg	YN	Left	Yes	0.496460500000012	0	653131	234
1276.689453125	1	taste	trialStart	3	161	41	foodImage.87	FOODEEG_Images\0873.jpg	NY	Right	Yes	0.690726499999982	0	653666	251
1277.74609375	2	taste	foodImageDisplay	3	161	41	foodImage.87	FOODEEG_Images\0873.jpg	NY	Right	Yes	0.690726499999982	0	654207	252
1279.810546875	0.690726499999982	taste	choicePhaseStart	3	161	41	foodImage.87	FOODEEG_Images\0873.jpg	NY	Right	Yes	0.690726499999982	0	655264	253
1280.4921875	0	taste	response	3	161	41	foodImage.87	FOODEEG_Images\0873.jpg	NY	Right	Yes	0.690726499999982	0	655613	235
1281.53515625	1	health	trialStart	3	162	42	foodImage.14	FOODEEG_Images\0188.jpg	YN	Left	Yes	1.33147300000019	0	656147	251
1282.595703125	2	health	foodImageDisplay	3	162	42	foodImage.14	FOODEEG_Images\0188.jpg	YN	Left	Yes	1.33147300000019	0	656690	252
1284.658203125	1.33147300000019	health	choicePhaseStart	3	162	42	foodImage.14	FOODEEG_Images\0188.jpg	YN	Left	Yes	1.33147300000019	0	657746	253
1285.98046875	0	health	response	3	162	42	foodImage.14	FOODEEG_Images\0188.jpg	YN	Left	Yes	1.33147300000019	0	658423	234
1287.0234375	1	taste	trialStart	3	163	43	foodImage.109	FOODEEG_Images\0917.jpg	NY	Right	Yes	1.90478200000007	0	658957	251
1288.064453125	2	taste	foodImageDisplay	3	163	43	foodImage.109	FOODEEG_Images\0917.jpg	NY	Right	Yes	1.90478200000007	0	659490	252
1290.1328125	1.90478200000007	taste	choicePhaseStart	3	163	43	foodImage.109	FOODEEG_Images\0917.jpg	NY	Right	Yes	1.90478200000007	0	660549	253
1292.02734375	0	taste	response	3	163	43	foodImage.109	FOODEEG_Images\0917.jpg	NY	Right	Yes	1.90478200000007	0	661519	235
1293.0703125	1	taste	trialStart	3	164	44	foodImage.97	FOODEEG_Images\0905.jpg	NY	Left	No	0.720431400000052	0	662053	251
1294.109375	2	taste	foodImageDisplay	3	164	44	foodImage.97	FOODEEG_Images\0905.jpg	NY	Left	No	0.720431400000052	0	662585	252
1296.171875	0.720431400000052	taste	choicePhaseStart	3	164	44	foodImage.97	FOODEEG_Images\0905.jpg	NY	Left	No	0.720431400000052	0	663641	253
1296.8828125	0	taste	response	3	164	44	foodImage.97	FOODEEG_Images\0905.jpg	NY	Left	No	0.720431400000052	0	664005	234
1297.935546875	1	health	trialStart	3	165	45	foodImage.114	FOODEEG_Images\0922.jpg	YN	Right	No	1.16055600000027	0	664544	251
1298.97265625	2	health	foodImageDisplay	3	165	45	foodImage.114	FOODEEG_Images\0922.jpg	YN	Right	No	1.16055600000027	0	665075	252
1301.037109375	1.16055600000027	health	choicePhaseStart	3	165	45	foodImage.114	FOODEEG_Images\0922.jpg	YN	Right	No	1.16055600000027	0	666132	253
1302.1875	0	health	response	3	165	45	foodImage.114	FOODEEG_Images\0922.jpg	YN	Right	No	1.16055600000027	0	666721	235
1303.23046875	1	decision	trialStart	3	166	46	foodImage.45	FOODEEG_Images\0478.jpg	NY	Right	Yes	0.828744099999767	0	667255	251
1304.275390625	2	decision	foodImageDisplay	3	166	46	foodImage.45	FOODEEG_Images\0478.jpg	NY	Right	Yes	0.828744099999767	0	667790	252
1306.34375	0.828744099999767	decision	choicePhaseStart	3	166	46	foodImage.45	FOODEEG_Images\0478.jpg	NY	Right	Yes	0.828744099999767	0	668849	253
1307.162109375	0	decision	response	3	166	46	foodImage.45	FOODEEG_Images\0478.jpg	NY	Right	Yes	0.828744099999767	0	669268	235
1308.20703125	1	decision	trialStart	3	167	47	foodImage.36	FOODEEG_Images\0352.jpg	NY	Right	Yes	0.963614799999959	0	669803	251
1309.263671875	2	decision	foodImageDisplay	3	167	47	foodImage.36	FOODEEG_Images\0352.jpg	NY	Right	Yes	0.963614799999959	0	670344	252
1311.326171875	0.963614799999959	decision	choicePhaseStart	3	167	47	foodImage.36	FOODEEG_Images\0352.jpg	NY	Right	Yes	0.963614799999959	0	671400	253
1312.283203125	0	decision	response	3	167	47	foodImage.36	FOODEEG_Images\0352.jpg	NY	Right	Yes	0.963614799999959	0	671890	235
1313.326171875	1	health	trialStart	3	168	48	foodImage.89	FOODEEG_Images\0881.jpg	YN	Left	Yes	0.960950900000171	0	672424	251
1314.3828125	2	health	foodImageDisplay	3	168	48	foodImage.89	FOODEEG_Images\0881.jpg	YN	Left	Yes	0.960950900000171	0	672965	252
1316.451171875	0.960950900000171	health	choicePhaseStart	3	168	48	foodImage.89	FOODEEG_Images\0881.jpg	YN	Left	Yes	0.960950900000171	0	674024	253
1317.40234375	0	health	response	3	168	48	foodImage.89	FOODEEG_Images\0881.jpg	YN	Left	Yes	0.960950900000171	0	674511	234
1318.4453125	1	taste	trialStart	3	169	49	foodImage.53	FOODEEG_Images\0547.jpg	NY	Left	No	1.70856440000034	0	675045	251
1319.50390625	2	taste	foodImageDisplay	3	169	49	foodImage.53	FOODEEG_Images\0547.jpg	NY	Left	No	1.70856440000034	0	675587	252
1321.568359375	1.70856440000034	taste	choicePhaseStart	3	169	49	foodImage.53	FOODEEG_Images\0547.jpg	NY	Left	No	1.70856440000034	0	676644	253
1323.267578125	0	taste	response	3	169	49	foodImage.53	FOODEEG_Images\0547.jpg	NY	Left	No	1.70856440000034	0	677514	234
1324.30859375	1	decision	trialStart	3	170	50	foodImage.96	FOODEEG_Images\0904.jpg	NY	Left	No	1.93549499999972	0	678047	251
1325.34765625	2	decision	foodImageDisplay	3	170	50	foodImage.96	FOODEEG_Images\0904.jpg	NY	Left	No	1.93549499999972	0	678579	252
1327.412109375	1.93549499999972	decision	choicePhaseStart	3	170	50	foodImage.96	FOODEEG_Images\0904.jpg	NY	Left	No	1.93549499999972	0	679636	253
1329.337890625	0	decision	response	3	170	50	foodImage.96	FOODEEG_Images\0904.jpg	NY	Left	No	1.93549499999972	0	680622	234
1330.3828125	1	health	trialStart	3	171	51	foodImage.92	FOODEEG_Images\0900.jpg	NY	Left	No	0.878364899999724	0	681157	251
1331.421875	2	health	foodImageDisplay	3	171	51	foodImage.92	FOODEEG_Images\0900.jpg	NY	Left	No	0.878364899999724	0	681689	252
1333.484375	0.878364899999724	health	choicePhaseStart	3	171	51	foodImage.92	FOODEEG_Images\0900.jpg	NY	Left	No	0.878364899999724	0	682745	253
1334.353515625	0	health	response	3	171	51	foodImage.92	FOODEEG_Images\0900.jpg	NY	Left	No	0.878364899999724	0	683190	234
1335.396484375	1	decision	trialStart	3	172	52	foodImage.16	FOODEEG_Images\0196.jpg	YN	Left	Yes	0.874698099999932	0	683724	251
1336.45703125	2	decision	foodImageDisplay	3	172	52	foodImage.16	FOODEEG_Images\0196.jpg	YN	Left	Yes	0.874698099999932	0	684267	252
1338.51953125	0.874698099999932	decision	choicePhaseStart	3	172	52	foodImage.16	FOODEEG_Images\0196.jpg	YN	Left	Yes	0.874698099999932	0	685323	253
1339.38671875	0	decision	response	3	172	52	foodImage.16	FOODEEG_Images\0196.jpg	YN	Left	Yes	0.874698099999932	0	685767	234
1340.4296875	1	taste	trialStart	3	173	53	foodImage.12	FOODEEG_Images\0181.jpg	NY	Right	Yes	1.18916889999991	0	686301	251
1341.470703125	2	taste	foodImageDisplay	3	173	53	foodImage.12	FOODEEG_Images\0181.jpg	NY	Right	Yes	1.18916889999991	0	686834	252
1343.5390625	1.18916889999991	taste	choicePhaseStart	3	173	53	foodImage.12	FOODEEG_Images\0181.jpg	NY	Right	Yes	1.18916889999991	0	687893	253
1344.72265625	0	taste	response	3	173	53	foodImage.12	FOODEEG_Images\0181.jpg	NY	Right	Yes	1.18916889999991	0	688499	235
1345.765625	1	taste	trialStart	3	174	54	foodImage.118	FOODEEG_Images\0926.jpg	NY	Left	No	0.99133350000011	0	689033	251
1346.8046875	2	taste	foodImageDisplay	3	174	54	foodImage.118	FOODEEG_Images\0926.jpg	NY	Left	No	0.99133350000011	0	689565	252
1348.8671875	0.99133350000011	taste	choicePhaseStart	3	174	54	foodImage.118	FOODEEG_Images\0926.jpg	NY	Left	No	0.99133350000011	0	690621	253
1349.849609375	0	taste	response	3	174	54	foodImage.118	FOODEEG_Images\0926.jpg	NY	Left	No	0.99133350000011	0	691124	234
1350.892578125	1	health	trialStart	3	175	55	foodImage.84	FOODEEG_Images\0830.jpg	NY	Right	Yes	0.6464904999998	0	691658	251
1351.955078125	2	health	foodImageDisplay	3	175	55	foodImage.84	FOODEEG_Images\0830.jpg	NY	Right	Yes	0.6464904999998	0	692202	252
1354.017578125	0.6464904999998	health	choicePhaseStart	3	175	55	foodImage.84	FOODEEG_Images\0830.jpg	NY	Right	Yes	0.6464904999998	0	693258	253
1354.65625	0	health	response	3	175	55	foodImage.84	FOODEEG_Images\0830.jpg	NY	Right	Yes	0.6464904999998	0	693585	235
1355.701171875	1	decision	trialStart	3	176	56	foodImage.60	FOODEEG_Images\0614.jpg	YN	Left	Yes	0.635178600000017	0	694120	251
1356.759765625	2	decision	foodImageDisplay	3	176	56	foodImage.60	FOODEEG_Images\0614.jpg	YN	Left	Yes	0.635178600000017	0	694662	252
1358.822265625	0.635178600000017	decision	choicePhaseStart	3	176	56	foodImage.60	FOODEEG_Images\0614.jpg	YN	Left	Yes	0.635178600000017	0	695718	253
1359.44921875	0	decision	response	3	176	56	foodImage.60	FOODEEG_Images\0614.jpg	YN	Left	Yes	0.635178600000017	0	696039	234
1360.4921875	1	health	trialStart	3	177	57	foodImage.25	FOODEEG_Images\0261.jpg	NY	Right	Yes	0.812225099999978	0	696573	251
1361.533203125	2	health	foodImageDisplay	3	177	57	foodImage.25	FOODEEG_Images\0261.jpg	NY	Right	Yes	0.812225099999978	0	697106	252
1363.603515625	0.812225099999978	health	choicePhaseStart	3	177	57	foodImage.25	FOODEEG_Images\0261.jpg	NY	Right	Yes	0.812225099999978	0	698166	253
1364.408203125	0	health	response	3	177	57	foodImage.25	FOODEEG_Images\0261.jpg	NY	Right	Yes	0.812225099999978	0	698578	235
1365.453125	1	taste	trialStart	3	178	58	foodImage.103	FOODEEG_Images\0911.jpg	NY	Right	Yes	1.17414439999993	0	699113	251
1366.4921875	2	taste	foodImageDisplay	3	178	58	foodImage.103	FOODEEG_Images\0911.jpg	NY	Right	Yes	1.17414439999993	0	699645	252
1368.5546875	1.17414439999993	taste	choicePhaseStart	3	178	58	foodImage.103	FOODEEG_Images\0911.jpg	NY	Right	Yes	1.17414439999993	0	700701	253
1369.720703125	0	taste	response	3	178	58	foodImage.103	FOODEEG_Images\0911.jpg	NY	Right	Yes	1.17414439999993	0	701298	235
1370.763671875	1	taste	trialStart	3	179	59	foodImage.107	FOODEEG_Images\0915.jpg	YN	Right	No	1.03207810000004	0	701832	251
1371.802734375	2	taste	foodImageDisplay	3	179	59	foodImage.107	FOODEEG_Images\0915.jpg	YN	Right	No	1.03207810000004	0	702364	252
1373.865234375	1.03207810000004	taste	choicePhaseStart	3	179	59	foodImage.107	FOODEEG_Images\0915.jpg	YN	Right	No	1.03207810000004	0	703420	253
1374.888671875	0	taste	response	3	179	59	foodImage.107	FOODEEG_Images\0915.jpg	YN	Right	No	1.03207810000004	0	703944	235
1375.931640625	1	taste	trialStart	3	180	60	foodImage.72	FOODEEG_Images\0714.jpg	YN	Left	Yes	1.15503810000018	0	704478	251
1376.974609375	2	taste	foodImageDisplay	3	180	60	foodImage.72	FOODEEG_Images\0714.jpg	YN	Left	Yes	1.15503810000018	0	705012	252
1379.0390625	1.15503810000018	taste	choicePhaseStart	3	180	60	foodImage.72	FOODEEG_Images\0714.jpg	YN	Left	Yes	1.15503810000018	0	706069	253
1380.18359375	0	taste	response	3	180	60	foodImage.72	FOODEEG_Images\0714.jpg	YN	Left	Yes	1.15503810000018	0	706655	234
1382.228515625	22.7890625	n/a	blockEnd	n/a	n/a	n/a	n/a	n/a	n/a	n/a	n/a	n/a	n/a	707702	254
1405.017578125	2	n/a	blockStart	4	n/a	n/a	n/a	n/a	n/a	n/a	n/a	n/a	n/a	719370	250
1407.048828125	1	taste	trialStart	4	181	1	foodImage.113	FOODEEG_Images\0921.jpg	YN	Left	Yes	0.579831800000193	0	720410	251
1408.091796875	2	taste	foodImageDisplay	4	181	1	foodImage.113	FOODEEG_Images\0921.jpg	YN	Left	Yes	0.579831800000193	0	720944	252
1410.15625	0.579831800000193	taste	choicePhaseStart	4	181	1	foodImage.113	FOODEEG_Images\0921.jpg	YN	Left	Yes	0.579831800000193	0	722001	253
1410.7265625	0	taste	response	4	181	1	foodImage.113	FOODEEG_Images\0921.jpg	YN	Left	Yes	0.579831800000193	0	722293	234
1411.771484375	1	health	trialStart	4	182	2	foodImage.4	FOODEEG_Images\0065.jpg	YN	Right	No	0.779727499999808	0	722828	251
1412.830078125	2	health	foodImageDisplay	4	182	2	foodImage.4	FOODEEG_Images\0065.jpg	YN	Right	No	0.779727499999808	0	723370	252
1414.892578125	0.779727499999808	health	choicePhaseStart	4	182	2	foodImage.4	FOODEEG_Images\0065.jpg	YN	Right	No	0.779727499999808	0	724426	253
1415.662109375	0	health	response	4	182	2	foodImage.4	FOODEEG_Images\0065.jpg	YN	Right	No	0.779727499999808	0	724820	235
1416.70703125	1	health	trialStart	4	183	3	foodImage.81	FOODEEG_Images\0797.jpg	NY	Right	Yes	0.850296699999944	0	725355	251
1417.765625	2	health	foodImageDisplay	4	183	3	foodImage.81	FOODEEG_Images\0797.jpg	NY	Right	Yes	0.850296699999944	0	725897	252
1419.828125	0.850296699999944	health	choicePhaseStart	4	183	3	foodImage.81	FOODEEG_Images\0797.jpg	NY	Right	Yes	0.850296699999944	0	726953	253
1420.669921875	0	health	response	4	183	3	foodImage.81	FOODEEG_Images\0797.jpg	NY	Right	Yes	0.850296699999944	0	727384	235
1421.716796875	1	taste	trialStart	4	184	4	foodImage.49	FOODEEG_Images\0515.jpg	YN	Left	Yes	1.09261130000004	0	727920	251
1422.7578125	2	taste	foodImageDisplay	4	184	4	foodImage.49	FOODEEG_Images\0515.jpg	YN	Left	Yes	1.09261130000004	0	728453	252
1424.826171875	1.09261130000004	taste	choicePhaseStart	4	184	4	foodImage.49	FOODEEG_Images\0515.jpg	YN	Left	Yes	1.09261130000004	0	729512	253
1425.91015625	0	taste	response	4	184	4	foodImage.49	FOODEEG_Images\0515.jpg	YN	Left	Yes	1.09261130000004	0	730067	234
1426.953125	1	taste	trialStart	4	185	5	foodImage.29	FOODEEG_Images\0278.jpg	NY	Right	Yes	0.662315399999898	0	730601	251
1427.994140625	2	taste	foodImageDisplay	4	185	5	foodImage.29	FOODEEG_Images\0278.jpg	NY	Right	Yes	0.662315399999898	0	731134	252
1430.056640625	0.662315399999898	taste	choicePhaseStart	4	185	5	foodImage.29	FOODEEG_Images\0278.jpg	NY	Right	Yes	0.662315399999898	0	732190	253
1430.7109375	0	taste	response	4	185	5	foodImage.29	FOODEEG_Images\0278.jpg	NY	Right	Yes	0.662315399999898	0	732525	235
1431.75390625	1	health	trialStart	4	186	6	foodImage.74	FOODEEG_Images\0752.jpg	YN	Left	Yes	1.1872556999997	0	733059	251
1432.796875	2	health	foodImageDisplay	4	186	6	foodImage.74	FOODEEG_Images\0752.jpg	YN	Left	Yes	1.1872556999997	0	733593	252
1434.859375	1.1872556999997	health	choicePhaseStart	4	186	6	foodImage.74	FOODEEG_Images\0752.jpg	YN	Left	Yes	1.1872556999997	0	734649	253
1436.037109375	0	health	response	4	186	6	foodImage.74	FOODEEG_Images\0752.jpg	YN	Left	Yes	1.1872556999997	0	735252	234
1437.08984375	1	taste	trialStart	4	187	7	foodImage.108	FOODEEG_Images\0916.jpg	NY	Left	No	0.997548299999835	0	735791	251
1438.12890625	2	taste	foodImageDisplay	4	187	7	foodImage.108	FOODEEG_Images\0916.jpg	NY	Left	No	0.997548299999835	0	736323	252
1440.193359375	0.997548299999835	taste	choicePhaseStart	4	187	7	foodImage.108	FOODEEG_Images\0916.jpg	NY	Left	No	0.997548299999835	0	737380	253
1441.181640625	0	taste	response	4	187	7	foodImage.108	FOODEEG_Images\0916.jpg	NY	Left	No	0.997548299999835	0	737886	234
1442.224609375	1	taste	trialStart	4	188	8	foodImage.17	FOODEEG_Images\0199.jpg	YN	Left	Yes	1.1885599000002	0	738420	251
1443.267578125	2	taste	foodImageDisplay	4	188	8	foodImage.17	FOODEEG_Images\0199.jpg	YN	Left	Yes	1.1885599000002	0	738954	252
1445.3359375	1.1885599000002	taste	choicePhaseStart	4	188	8	foodImage.17	FOODEEG_Images\0199.jpg	YN	Left	Yes	1.1885599000002	0	740013	253
1446.517578125	0	taste	response	4	188	8	foodImage.17	FOODEEG_Images\0199.jpg	YN	Left	Yes	1.1885599000002	0	740618	234
1447.55859375	1	decision	trialStart	4	189	9	foodImage.120	FOODEEG_Images\0928.jpg	YN	Right	No	1.15356199999997	0	741151	251
1448.599609375	2	decision	foodImageDisplay	4	189	9	foodImage.120	FOODEEG_Images\0928.jpg	YN	Right	No	1.15356199999997	0	741684	252
1450.66796875	1.15356199999997	decision	choicePhaseStart	4	189	9	foodImage.120	FOODEEG_Images\0928.jpg	YN	Right	No	1.15356199999997	0	742743	253
1451.814453125	0	decision	response	4	189	9	foodImage.120	FOODEEG_Images\0928.jpg	YN	Right	No	1.15356199999997	0	743330	235
1452.85546875	1	decision	trialStart	4	190	10	foodImage.34	FOODEEG_Images\0339.jpg	NY	Right	Yes	0.869319599999926	0	743863	251
1453.9140625	2	decision	foodImageDisplay	4	190	10	foodImage.34	FOODEEG_Images\0339.jpg	NY	Right	Yes	0.869319599999926	0	744405	252
1455.9765625	0.869319599999926	decision	choicePhaseStart	4	190	10	foodImage.34	FOODEEG_Images\0339.jpg	NY	Right	Yes	0.869319599999926	0	745461	253
1456.837890625	0	decision	response	4	190	10	foodImage.34	FOODEEG_Images\0339.jpg	NY	Right	Yes	0.869319599999926	0	745902	235
1457.880859375	1	decision	trialStart	4	191	11	foodImage.14	FOODEEG_Images\0188.jpg	NY	Right	Yes	1.13120960000015	0	746436	251
1458.939453125	2	decision	foodImageDisplay	4	191	11	foodImage.14	FOODEEG_Images\0188.jpg	NY	Right	Yes	1.13120960000015	0	746978	252
1461.00390625	1.13120960000015	decision	choicePhaseStart	4	191	11	foodImage.14	FOODEEG_Images\0188.jpg	NY	Right	Yes	1.13120960000015	0	748035	253
1462.125	0	decision	response	4	191	11	foodImage.14	FOODEEG_Images\0188.jpg	NY	Right	Yes	1.13120960000015	0	748609	235
1463.16796875	1	taste	trialStart	4	192	12	foodImage.28	FOODEEG_Images\0273.jpg	NY	Right	Yes	0.887839900000017	0	749143	251
1464.220703125	2	taste	foodImageDisplay	4	192	12	foodImage.28	FOODEEG_Images\0273.jpg	NY	Right	Yes	0.887839900000017	0	749682	252
1466.283203125	0.887839900000017	taste	choicePhaseStart	4	192	12	foodImage.28	FOODEEG_Images\0273.jpg	NY	Right	Yes	0.887839900000017	0	750738	253
1467.1640625	0	taste	response	4	192	12	foodImage.28	FOODEEG_Images\0273.jpg	NY	Right	Yes	0.887839900000017	0	751189	235
1468.20703125	1	health	trialStart	4	193	13	foodImage.90	FOODEEG_Images\0890.jpg	YN	Left	Yes	1.15898979999974	0	751723	251
1469.265625	2	health	foodImageDisplay	4	193	13	foodImage.90	FOODEEG_Images\0890.jpg	YN	Left	Yes	1.15898979999974	0	752265	252
1471.328125	1.15898979999974	health	choicePhaseStart	4	193	13	foodImage.90	FOODEEG_Images\0890.jpg	YN	Left	Yes	1.15898979999974	0	753321	253
