onset	duration	trial_type	event_type	block	trial_total	trial_in_block	food_image_code	food_image_path	button_position	resp_position	resp_choice	choice_rt	resp_too_slow	sample	trigger
8.064453125	2	n/a	blockStart	1	n/a	n/a	n/a	n/a	n/a	n/a	n/a	n/a	n/a	4130	250
10.1015625	1	taste	trialStart	1	1	1	foodImage.110	FOODEEG_Images\0918.jpg	YN	Left	Yes	1.54732200014405	0	5173	251
11.14453125	2	taste	foodImageDisplay	1	1	1	foodImage.110	FOODEEG_Images\0918.jpg	YN	Left	Yes	1.54732200014405	0	5707	252
13.2109375	1.54732200014405	taste	choicePhaseStart	1	1	1	foodImage.110	FOODEEG_Images\0918.jpg	YN	Left	Yes	1.54732200014405	0	6765	253
14.75	0	taste	response	1	1	1	foodImage.110	FOODEEG_Images\0918.jpg	YN	Left	Yes	1.54732200014405	0	7553	234
15.84375	1	health	trialStart	1	2	2	foodImage.5	FOODEEG_Images\0107.jpg	YN	Right	No	1.11340219993144	0	8113	251
16.904296875	2	health	foodImageDisplay	1	2	2	foodImage.5	FOODEEG_Images\0107.jpg	YN	Right	No	1.11340219993144	0	8656	252
18.96875	1.11340219993144	health	choicePhaseStart	1	2	2	foodImage.5	FOODEEG_Images\0107.jpg	YN	Right	No	1.11340219993144	0	9713	253
20.078125	0	health	response	1	2	2	foodImage.5	FOODEEG_Images\0107.jpg	YN	Right	No	1.11340219993144	0	10281	235
21.134765625	1	taste	trialStart	1	3	3	foodImage.73	FOODEEG_Images\0717.jpg	YN	Left	Yes	0.967183099826798	0	10822	251
22.20703125	2	taste	foodImageDisplay	1	3	3	foodImage.73	FOODEEG_Images\0717.jpg	YN	Left	Yes	0.967183099826798	0	11371	252
24.271484375	0.967183099826798	taste	choicePhaseStart	1	3	3	foodImage.73	FOODEEG_Images\0717.jpg	YN	Left	Yes	0.967183099826798	0	12428	253
25.23046875	0	taste	response	1	3	3	foodImage.73	FOODEEG_Images\0717.jpg	YN	Left	Yes	0.967183099826798	0	12919	234
26.275390625	1	decision	trialStart	1	4	4	foodImage.14	FOODEEG_Images\0188.jpg	YN	Left	Yes	1.34855579980649	0	13454	251
27.3359375	2	decision	foodImageDisplay	1	4	4	foodImage.14	FOODEEG_Images\0188.jpg	YN	Left	Yes	1.34855579980649	0	13997	252
29.40234375	1.34855579980649	decision	choicePhaseStart	1	4	4	foodImage.14	FOODEEG_Images\0188.jpg	YN	Left	Yes	1.34855579980649	0	15055	253
30.7421875	0	decision	response	1	4	4	foodImage.14	FOODEEG_Images\0188.jpg	YN	Left	Yes	1.34855579980649	0	15741	234
31.78515625	1	taste	trialStart	1	5	5	foodImage.75	FOODEEG_Images\0763.jpg	NY	Left	No	1.77731960010715	0	16275	251
32.83203125	2	taste	foodImageDisplay	1	5	5	foodImage.75	FOODEEG_Images\0763.jpg	NY	Left	No	1.77731960010715	0	16811	252
34.8984375	1.77731960010715	taste	choicePhaseStart	1	5	5	foodImage.75	FOODEEG_Images\0763.jpg	NY	Left	No	1.77731960010715	0	17869	253
36.669921875	0	taste	response	1	5	5	foodImage.75	FOODEEG_Images\0763.jpg	NY	Left	No	1.77731960010715	0	18776	234
37.72265625	1	decision	trialStart	1	6	6	foodImage.107	FOODEEG_Images\0915.jpg	NY	Right	Yes	1.77479670010507	0	19315	251
38.759765625	2	decision	foodImageDisplay	1	6	6	foodImage.107	FOODEEG_Images\0915.jpg	NY	Right	Yes	1.77479670010507	0	19846	252
40.82421875	1.77479670010507	decision	choicePhaseStart	1	6	6	foodImage.107	FOODEEG_Images\0915.jpg	NY	Right	Yes	1.77479670010507	0	20903	253
42.58984375	0	decision	response	1	6	6	foodImage.107	FOODEEG_Images\0915.jpg	NY	Right	Yes	1.77479670010507	0	21807	235
43.6328125	1	taste	trialStart	1	7	7	foodImage.44	FOODEEG_Images\0459.jpg	NY	Right	Yes	1.26805060007609	0	22341	251
44.6796875	2	taste	foodImageDisplay	1	7	7	foodImage.44	FOODEEG_Images\0459.jpg	NY	Right	Yes	1.26805060007609	0	22877	252
46.744140625	1.26805060007609	taste	choicePhaseStart	1	7	7	foodImage.44	FOODEEG_Images\0459.jpg	NY	Right	Yes	1.26805060007609	0	23934	253
48.00390625	0	taste	response	1	7	7	foodImage.44	FOODEEG_Images\0459.jpg	NY	Right	Yes	1.26805060007609	0	24579	235
49.0546875	1	decision	trialStart	1	8	8	foodImage.31	FOODEEG_Images\0294.jpg	YN	Left	Yes	1.33995620021597	0	25117	251
50.095703125	2	decision	foodImageDisplay	1	8	8	foodImage.31	FOODEEG_Images\0294.jpg	YN	Left	Yes	1.33995620021597	0	25650	252
52.16015625	1.33995620021597	decision	choicePhaseStart	1	8	8	foodImage.31	FOODEEG_Images\0294.jpg	YN	Left	Yes	1.33995620021597	0	26707	253
53.494140625	0	decision	response	1	8	8	foodImage.31	FOODEEG_Images\0294.jpg	YN	Left	Yes	1.33995620021597	0	27390	234
54.537109375	1	health	trialStart	1	9	9	foodImage.93	FOODEEG_Images\0901.jpg	YN	Right	No	1.77434799983166	0	27924	251
55.576171875	2	health	foodImageDisplay	1	9	9	foodImage.93	FOODEEG_Images\0901.jpg	YN	Right	No	1.77434799983166	0	28456	252
57.638671875	1.77434799983166	health	choicePhaseStart	1	9	9	foodImage.93	FOODEEG_Images\0901.jpg	YN	Right	No	1.77434799983166	0	29512	253
59.404296875	0	health	response	1	9	9	foodImage.93	FOODEEG_Images\0901.jpg	YN	Right	No	1.77434799983166	0	30416	235
60.44921875	1	health	trialStart	1	10	10	foodImage.8	FOODEEG_Images\0136.jpg	NY	Left	No	1.89103089994751	0	30951	251
61.490234375	2	health	foodImageDisplay	1	10	10	foodImage.8	FOODEEG_Images\0136.jpg	NY	Left	No	1.89103089994751	0	31484	252
63.552734375	1.89103089994751	health	choicePhaseStart	1	10	10	foodImage.8	FOODEEG_Images\0136.jpg	NY	Left	No	1.89103089994751	0	32540	253
65.435546875	0	health	response	1	10	10	foodImage.8	FOODEEG_Images\0136.jpg	NY	Left	No	1.89103089994751	0	33504	234
66.484375	1	health	trialStart	1	11	11	foodImage.66	FOODEEG_Images\0676.jpg	YN	Right	No	1.96795049984939	0	34041	251
67.525390625	2	health	foodImageDisplay	1	11	11	foodImage.66	FOODEEG_Images\0676.jpg	YN	Right	No	1.96795049984939	0	34574	252
69.587890625	1.96795049984939	health	choicePhaseStart	1	11	11	foodImage.66	FOODEEG_Images\0676.jpg	YN	Right	No	1.96795049984939	0	35630	253
71.548828125	0	health	response	1	11	11	foodImage.66	FOODEEG_Images\0676.jpg	YN	Right	No	1.96795049984939	0	36634	235
72.59375	1	decision	trialStart	1	12	12	foodImage.4	FOODEEG_Images\0065.jpg	NY	Right	Yes	2.5434002999682	0	37169	251
73.650390625	2	decision	foodImageDisplay	1	12	12	foodImage.4	FOODEEG_Images\0065.jpg	NY	Right	Yes	2.5434002999682	0	37710	252
75.71484375	2.5434002999682	decision	choicePhaseStart	1	12	12	foodImage.4	FOODEEG_Images\0065.jpg	NY	Right	Yes	2.5434002999682	0	38767	253
78.251953125	0	decision	response	1	12	12	foodImage.4	FOODEEG_Images\0065.jpg	NY	Right	Yes	2.5434002999682	0	40066	235
79.294921875	1	health	trialStart	1	13	13	foodImage.57	FOODEEG_Images\0587.jpg	NY	Left	No	1.27261470002122	0	40600	251
80.337890625	2	health	foodImageDisplay	1	13	13	foodImage.57	FOODEEG_Images\0587.jpg	NY	Left	No	1.27261470002122	0	41134	252
82.40234375	1.27261470002122	health	choicePhaseStart	1	13	13	foodImage.57	FOODEEG_Images\0587.jpg	NY	Left	No	1.27261470002122	0	42191	253
83.66796875	0	health	response	1	13	13	foodImage.57	FOODEEG_Images\0587.jpg	NY	Left	No	1.27261470002122	0	42839	234
84.7109375	1	health	trialStart	1	14	14	foodImage.64	FOODEEG_Images\0647.jpg	YN	Right	No	1.72345940000378	0	43373	251
85.76953125	2	health	foodImageDisplay	1	14	14	foodImage.64	FOODEEG_Images\0647.jpg	YN	Right	No	1.72345940000378	0	43915	252
87.83203125	1.72345940000378	health	choicePhaseStart	1	14	14	foodImage.64	FOODEEG_Images\0647.jpg	YN	Right	No	1.72345940000378	0	44971	253
89.546875	0	health	response	1	14	14	foodImage.64	FOODEEG_Images\0647.jpg	YN	Right	No	1.72345940000378	0	45849	235
90.58984375	1	taste	trialStart	1	15	15	foodImage.40	FOODEEG_Images\0373.jpg	YN	Left	Yes	1.45873369998299	0	46383	251
91.630859375	2	taste	foodImageDisplay	1	15	15	foodImage.40	FOODEEG_Images\0373.jpg	YN	Left	Yes	1.45873369998299	0	46916	252
93.697265625	1.45873369998299	taste	choicePhaseStart	1	15	15	foodImage.40	FOODEEG_Images\0373.jpg	YN	Left	Yes	1.45873369998299	0	47974	253
95.146484375	0	taste	response	1	15	15	foodImage.40	FOODEEG_Images\0373.jpg	YN	Left	Yes	1.45873369998299	0	48716	234
96.1875	1	taste	trialStart	1	16	16	foodImage.58	FOODEEG_Images\0605.jpg	YN	Left	Yes	2.28571279998869	0	49249	251
97.24609375	2	taste	foodImageDisplay	1	16	16	foodImage.58	FOODEEG_Images\0605.jpg	YN	Left	Yes	2.28571279998869	0	49791	252
99.310546875	2.28571279998869	taste	choicePhaseStart	1	16	16	foodImage.58	FOODEEG_Images\0605.jpg	YN	Left	Yes	2.28571279998869	0	50848	253
101.5859375	0	taste	response	1	16	16	foodImage.58	FOODEEG_Images\0605.jpg	YN	Left	Yes	2.28571279998869	0	52013	234
102.62890625	1	taste	trialStart	1	17	17	foodImage.82	FOODEEG_Images\0805.jpg	YN	Left	Yes	2.84184179990552	0	52547	251
103.6875	2	taste	foodImageDisplay	1	17	17	foodImage.82	FOODEEG_Images\0805.jpg	YN	Left	Yes	2.84184179990552	0	53089	252
105.751953125	2.84184179990552	taste	choicePhaseStart	1	17	17	foodImage.82	FOODEEG_Images\0805.jpg	YN	Left	Yes	2.84184179990552	0	54146	253
108.5859375	0	taste	response	1	17	17	foodImage.82	FOODEEG_Images\0805.jpg	YN	Left	Yes	2.84184179990552	0	55597	234
109.62890625	1	health	trialStart	1	18	18	foodImage.9	FOODEEG_Images\0138.jpg	YN	Right	No	2.90736760012805	0	56131	251
110.6875	2	health	foodImageDisplay	1	18	18	foodImage.9	FOODEEG_Images\0138.jpg	YN	Right	No	2.90736760012805	0	56673	252
112.751953125	2.90736760012805	health	choicePhaseStart	1	18	18	foodImage.9	FOODEEG_Images\0138.jpg	YN	Right	No	2.90736760012805	0	57730	253
115.650390625	0	health	response	1	18	18	foodImage.9	FOODEEG_Images\0138.jpg	YN	Right	No	2.90736760012805	0	59214	235
116.69140625	1	taste	trialStart	1	19	19	foodImage.60	FOODEEG_Images\0614.jpg	NY	Right	Yes	1.30802469979972	0	59747	251
117.75	2	taste	foodImageDisplay	1	19	19	foodImage.60	FOODEEG_Images\0614.jpg	NY	Right	Yes	1.30802469979972	0	60289	252
119.814453125	1.30802469979972	taste	choicePhaseStart	1	19	19	foodImage.60	FOODEEG_Images\0614.jpg	NY	Right	Yes	1.30802469979972	0	61346	253
121.11328125	0	taste	response	1	19	19	foodImage.60	FOODEEG_Images\0614.jpg	NY	Right	Yes	1.30802469979972	0	62011	235
122.15625	1	taste	trialStart	1	20	20	foodImage.104	FOODEEG_Images\0912.jpg	YN	Right	No	2.60298650013283	0	62545	251
123.193359375	2	taste	foodImageDisplay	1	20	20	foodImage.104	FOODEEG_Images\0912.jpg	YN	Right	No	2.60298650013283	0	63076	252
125.255859375	2.60298650013283	taste	choicePhaseStart	1	20	20	foodImage.104	FOODEEG_Images\0912.jpg	YN	Right	No	2.60298650013283	0	64132	253
127.849609375	0	taste	response	1	20	20	foodImage.104	FOODEEG_Images\0912.jpg	YN	Right	No	2.60298650013283	0	65460	235
128.892578125	1	decision	trialStart	1	21	21	foodImage.85	FOODEEG_Images\0841.jpg	YN	Right	No	3.05720219993964	0	65994	251
129.94921875	2	decision	foodImageDisplay	1	21	21	foodImage.85	FOODEEG_Images\0841.jpg	YN	Right	No	3.05720219993964	0	66535	252
132.017578125	3.05720219993964	decision	choicePhaseStart	1	21	21	foodImage.85	FOODEEG_Images\0841.jpg	YN	Right	No	3.05720219993964	0	67594	253
135.064453125	0	decision	response	1	21	21	foodImage.85	FOODEEG_Images\0841.jpg	YN	Right	No	3.05720219993964	0	69154	235
136.107421875	1	decision	trialStart	1	22	22	foodImage.30	FOODEEG_Images\0282.jpg	YN	Left	Yes	1.40764329978265	0	69688	251
137.15234375	2	decision	foodImageDisplay	1	22	22	foodImage.30	FOODEEG_Images\0282.jpg	YN	Left	Yes	1.40764329978265	0	70223	252
139.21875	1.40764329978265	decision	choicePhaseStart	1	22	22	foodImage.30	FOODEEG_Images\0282.jpg	YN	Left	Yes	1.40764329978265	0	71281	253
140.6171875	0	decision	response	1	22	22	foodImage.30	FOODEEG_Images\0282.jpg	YN	Left	Yes	1.40764329978265	0	71997	234
141.66015625	1	decision	trialStart	1	23	23	foodImage.86	FOODEEG_Images\0844.jpg	NY	Right	Yes	2.02590630017221	0	72531	251
142.720703125	2	decision	foodImageDisplay	1	23	23	foodImage.86	FOODEEG_Images\0844.jpg	NY	Right	Yes	2.02590630017221	0	73074	252
144.783203125	2.02590630017221	decision	choicePhaseStart	1	23	23	foodImage.86	FOODEEG_Images\0844.jpg	NY	Right	Yes	2.02590630017221	0	74130	253
146.80078125	0	decision	response	1	23	23	foodImage.86	FOODEEG_Images\0844.jpg	NY	Right	Yes	2.02590630017221	0	75163	235
147.84375	1	taste	trialStart	1	24	24	foodImage.3	FOODEEG_Images\0046.jpg	YN	Right	No	1.16450820001774	0	75697	251
148.88671875	2	taste	foodImageDisplay	1	24	24	foodImage.3	FOODEEG_Images\0046.jpg	YN	Right	No	1.16450820001774	0	76231	252
150.94921875	1.16450820001774	taste	choicePhaseStart	1	24	24	foodImage.3	FOODEEG_Images\0046.jpg	YN	Right	No	1.16450820001774	0	77287	253
152.10546875	0	taste	response	1	24	24	foodImage.3	FOODEEG_Images\0046.jpg	YN	Right	No	1.16450820001774	0	77879	235
153.1484375	1	decision	trialStart	1	25	25	foodImage.88	FOODEEG_Images\0878.jpg	NY	Right	Yes	1.51113429991528	0	78413	251
154.203125	2	decision	foodImageDisplay	1	25	25	foodImage.88	FOODEEG_Images\0878.jpg	NY	Right	Yes	1.51113429991528	0	78953	252
156.267578125	1.51113429991528	decision	choicePhaseStart	1	25	25	foodImage.88	FOODEEG_Images\0878.jpg	NY	Right	Yes	1.51113429991528	0	80010	253
157.767578125	0	decision	response	1	25	25	foodImage.88	FOODEEG_Images\0878.jpg	NY	Right	Yes	1.51113429991528	0	80778	235
158.8125	1	health	trialStart	1	26	26	foodImage.33	FOODEEG_Images\0329.jpg	NY	Right	Yes	0.899719199864194	0	81313	251
159.85546875	2	health	foodImageDisplay	1	26	26	foodImage.33	FOODEEG_Images\0329.jpg	NY	Right	Yes	0.899719199864194	0	81847	252
161.91796875	0.899719199864194	health	choicePhaseStart	1	26	26	foodImage.33	FOODEEG_Images\0329.jpg	NY	Right	Yes	0.899719199864194	0	82903	253
162.80859375	0	health	response	1	26	26	foodImage.33	FOODEEG_Images\0329.jpg	NY	Right	Yes	0.899719199864194	0	83359	235
163.8515625	1	decision	trialStart	1	27	27	foodImage.45	FOODEEG_Images\0478.jpg	YN	Left	Yes	1.68126989994198	0	83893	251
164.89453125	2	decision	foodImageDisplay	1	27	27	foodImage.45	FOODEEG_Images\0478.jpg	YN	Left	Yes	1.68126989994198	0	84427	252
166.958984375	1.68126989994198	decision	choicePhaseStart	1	27	27	foodImage.45	FOODEEG_Images\0478.jpg	YN	Left	Yes	1.68126989994198	0	85484	253
168.6328125	0	decision	response	1	27	27	foodImage.45	FOODEEG_Images\0478.jpg	YN	Left	Yes	1.68126989994198	0	86341	234
169.67578125	1	decision	trialStart	1	28	28	foodImage.28	FOODEEG_Images\0273.jpg	YN	Right	No	1.35773549997248	0	86875	251
170.716796875	2	decision	foodImageDisplay	1	28	28	foodImage.28	FOODEEG_Images\0273.jpg	YN	Right	No	1.35773549997248	0	87408	252
172.779296875	1.35773549997248	decision	choicePhaseStart	1	28	28	foodImage.28	FOODEEG_Images\0273.jpg	YN	Right	No	1.35773549997248	0	88464	253
174.126953125	0	decision	response	1	28	28	foodImage.28	FOODEEG_Images\0273.jpg	YN	Right	No	1.35773549997248	0	89154	235
175.169921875	1	taste	trialStart	1	29	29	foodImage.64	FOODEEG_Images\0647.jpg	YN	Left	Yes	1.80110430018976	0	89688	251
176.228515625	2	taste	foodImageDisplay	1	29	29	foodImage.64	FOODEEG_Images\0647.jpg	YN	Left	Yes	1.80110430018976	0	90230	252
178.29296875	1.80110430018976	taste	choicePhaseStart	1	29	29	foodImage.64	FOODEEG_Images\0647.jpg	YN	Left	Yes	1.80110430018976	0	91287	253
180.087890625	0	taste	response	1	29	29	foodImage.64	FOODEEG_Images\0647.jpg	YN	Left	Yes	1.80110430018976	0	92206	234
181.130859375	1	health	trialStart	1	30	30	foodImage.10	FOODEEG_Images\0145.jpg	YN	Right	No	2.17304469994269	0	92740	251
182.1875	2	health	foodImageDisplay	1	30	30	foodImage.10	FOODEEG_Images\0145.jpg	YN	Right	No	2.17304469994269	0	93281	252
184.25	2.17304469994269	health	choicePhaseStart	1	30	30	foodImage.10	FOODEEG_Images\0145.jpg	YN	Right	No	2.17304469994269	0	94337	253
186.416015625	0	health	response	1	30	30	foodImage.10	FOODEEG_Images\0145.jpg	YN	Right	No	2.17304469994269	0	95446	235
187.45703125	1	taste	trialStart	1	31	31	foodImage.50	FOODEEG_Images\0529.jpg	NY	Left	No	3.1038895000238	0	95979	251
188.517578125	2	taste	foodImageDisplay	1	31	31	foodImage.50	FOODEEG_Images\0529.jpg	NY	Left	No	3.1038895000238	0	96522	252
190.583984375	3.1038895000238	taste	choicePhaseStart	1	31	31	foodImage.50	FOODEEG_Images\0529.jpg	NY	Left	No	3.1038895000238	0	97580	253
193.677734375	0	taste	response	1	31	31	foodImage.50	FOODEEG_Images\0529.jpg	NY	Left	No	3.1038895000238	0	99164	234
194.71875	1	decision	trialStart	1	32	32	foodImage.17	FOODEEG_Images\0199.jpg	NY	Left	No	3.00896049989387	0	99697	251
195.7578125	2	decision	foodImageDisplay	1	32	32	foodImage.17	FOODEEG_Images\0199.jpg	NY	Left	No	3.00896049989387	0	100229	252
197.822265625	3.00896049989387	decision	choicePhaseStart	1	32	32	foodImage.17	FOODEEG_Images\0199.jpg	NY	Left	No	3.00896049989387	0	101286	253
200.822265625	0	decision	response	1	32	32	foodImage.17	FOODEEG_Images\0199.jpg	NY	Left	No	3.00896049989387	0	102822	234
201.86328125	1	health	trialStart	1	33	33	foodImage.48	FOODEEG_Images\0494.jpg	NY	Left	No	2.18422739999369	0	103355	251
202.904296875	2	health	foodImageDisplay	1	33	33	foodImage.48	FOODEEG_Images\0494.jpg	NY	Left	No	2.18422739999369	0	103888	252
204.966796875	2.18422739999369	health	choicePhaseStart	1	33	33	foodImage.48	FOODEEG_Images\0494.jpg	NY	Left	No	2.18422739999369	0	104944	253
207.142578125	0	health	response	1	33	33	foodImage.48	FOODEEG_Images\0494.jpg	NY	Left	No	2.18422739999369	0	106058	234
208.185546875	1	decision	trialStart	1	34	34	foodImage.54	FOODEEG_Images\0560.jpg	YN	Left	Yes	2.01688459981233	0	106592	251
209.24609375	2	decision	foodImageDisplay	1	34	34	foodImage.54	FOODEEG_Images\0560.jpg	YN	Left	Yes	2.01688459981233	0	107135	252
211.310546875	2.01688459981233	decision	choicePhaseStart	1	34	34	foodImage.54	FOODEEG_Images\0560.jpg	YN	Left	Yes	2.01688459981233	0	108192	253
213.318359375	0	decision	response	1	34	34	foodImage.54	FOODEEG_Images\0560.jpg	YN	Left	Yes	2.01688459981233	0	109220	234
214.369140625	1	decision	trialStart	1	35	35	foodImage.18	FOODEEG_Images\0202.jpg	YN	Left	Yes	3.02093799994327	0	109758	251
215.42578125	2	decision	foodImageDisplay	1	35	35	foodImage.18	FOODEEG_Images\0202.jpg	YN	Left	Yes	3.02093799994327	0	110299	252
217.490234375	3.02093799994327	decision	choicePhaseStart	1	35	35	foodImage.18	FOODEEG_Images\0202.jpg	YN	Left	Yes	3.02093799994327	0	111356	253
220.501953125	0	decision	response	1	35	35	foodImage.18	FOODEEG_Images\0202.jpg	YN	Left	Yes	3.02093799994327	0	112898	234
221.548828125	1	health	trialStart	1	36	36	foodImage.3	FOODEEG_Images\0046.jpg	NY	Left	No	7.56824459997006	1	113434	251
222.591796875	2	health	foodImageDisplay	1	36	36	foodImage.3	FOODEEG_Images\0046.jpg	NY	Left	No	7.56824459997006	1	113968	252
224.654296875	7.56824459997006	health	choicePhaseStart	1	36	36	foodImage.3	FOODEEG_Images\0046.jpg	NY	Left	No	7.56824459997006	1	115024	253
232.212890625	0	health	response	1	36	36	foodImage.3	FOODEEG_Images\0046.jpg	NY	Left	No	7.56824459997006	1	118894	234
233.2578125	1	health	trialStart	1	37	37	foodImage.94	FOODEEG_Images\0902.jpg	YN	Right	No	3.4168617001269	0	119429	251
234.294921875	2	health	foodImageDisplay	1	37	37	foodImage.94	FOODEEG_Images\0902.jpg	YN	Right	No	3.4168617001269	0	119960	252
236.357421875	3.4168617001269	health	choicePhaseStart	1	37	37	foodImage.94	FOODEEG_Images\0902.jpg	YN	Right	No	3.4168617001269	0	121016	253
239.765625	0	health	response	1	37	37	foodImage.94	FOODEEG_Images\0902.jpg	YN	Right	No	3.4168617001269	0	122761	235
240.80859375	1	health	trialStart	1	38	38	foodImage.98	FOODEEG_Images\0906.jpg	NY	Left	No	1.41679389984347	0	123295	251
241.845703125	2	health	foodImageDisplay	1	38	38	foodImage.98	FOODEEG_Images\0906.jpg	NY	Left	No	1.41679389984347	0	123826	252
243.908203125	1.41679389984347	health	choicePhaseStart	1	38	38	foodImage.98	FOODEEG_Images\0906.jpg	NY	Left	No	1.41679389984347	0	124882	253
245.31640625	0	health	response	1	38	38	foodImage.98	FOODEEG_Images\0906.jpg	NY	Left	No	1.41679389984347	0	125603	234
246.361328125	1	taste	trialStart	1	39	39	foodImage.30	FOODEEG_Images\0282.jpg	YN	Left	Yes	2.29761669994332	0	126138	251
247.40234375	2	taste	foodImageDisplay	1	39	39	foodImage.30	FOODEEG_Images\0282.jpg	YN	Left	Yes	2.29761669994332	0	126671	252
249.46875	2.29761669994332	taste	choicePhaseStart	1	39	39	foodImage.30	FOODEEG_Images\0282.jpg	YN	Left	Yes	2.29761669994332	0	127729	253
251.755859375	0	taste	response	1	39	39	foodImage.30	FOODEEG_Images\0282.jpg	YN	Left	Yes	2.29761669994332	0	128900	234
252.80078125	1	taste	trialStart	1	40	40	foodImage.62	FOODEEG_Images\0644.jpg	NY	Right	Yes	1.44894160004333	0	129435	251
253.85546875	2	taste	foodImageDisplay	1	40	40	foodImage.62	FOODEEG_Images\0644.jpg	NY	Right	Yes	1.44894160004333	0	129975	252
255.91796875	1.44894160004333	taste	choicePhaseStart	1	40	40	foodImage.62	FOODEEG_Images\0644.jpg	NY	Right	Yes	1.44894160004333	0	131031	253
257.35546875	0	taste	response	1	40	40	foodImage.62	FOODEEG_Images\0644.jpg	NY	Right	Yes	1.44894160004333	0	131767	235
258.400390625	1	decision	trialStart	1	41	41	foodImage.1	FOODEEG_Images\0004.jpg	YN	Left	Yes	3.93012779997662	0	132302	251
259.443359375	2	decision	foodImageDisplay	1	41	41	foodImage.1	FOODEEG_Images\0004.jpg	YN	Left	Yes	3.93012779997662	0	132836	252
261.505859375	3.93012779997662	decision	choicePhaseStart	1	41	41	foodImage.1	FOODEEG_Images\0004.jpg	YN	Left	Yes	3.93012779997662	0	133892	253
265.427734375	0	decision	response	1	41	41	foodImage.1	FOODEEG_Images\0004.jpg	YN	Left	Yes	3.93012779997662	0	135900	234
266.470703125	1	health	trialStart	1	42	42	foodImage.34	FOODEEG_Images\0339.jpg	NY	Left	No	1.90164440008812	0	136434	251
267.52734375	2	health	foodImageDisplay	1	42	42	foodImage.34	FOODEEG_Images\0339.jpg	NY	Left	No	1.90164440008812	0	136975	252
269.591796875	1.90164440008812	health	choicePhaseStart	1	42	42	foodImage.34	FOODEEG_Images\0339.jpg	NY	Left	No	1.90164440008812	0	138032	253
271.484375	0	health	response	1	42	42	foodImage.34	FOODEEG_Images\0339.jpg	NY	Left	No	1.90164440008812	0	139001	234
272.52734375	1	decision	trialStart	1	43	43	foodImage.12	FOODEEG_Images\0181.jpg	NY	Right	Yes	2.22551249992102	0	139535	251
273.5703125	2	decision	foodImageDisplay	1	43	43	foodImage.12	FOODEEG_Images\0181.jpg	NY	Right	Yes	2.22551249992102	0	140069	252
275.634765625	2.22551249992102	decision	choicePhaseStart	1	43	43	foodImage.12	FOODEEG_Images\0181.jpg	NY	Right	Yes	2.22551249992102	0	141126	253
277.8515625	0	decision	response	1	43	43	foodImage.12	FOODEEG_Images\0181.jpg	NY	Right	Yes	2.22551249992102	0	142261	235
278.892578125	1	taste	trialStart	1	44	44	foodImage.4	FOODEEG_Images\0065.jpg	YN	Left	Yes	2.61194039997645	0	142794	251
279.953125	2	taste	foodImageDisplay	1	44	44	foodImage.4	FOODEEG_Images\0065.jpg	YN	Left	Yes	2.61194039997645	0	143337	252
282.017578125	2.61194039997645	taste	choicePhaseStart	1	44	44	foodImage.4	FOODEEG_Images\0065.jpg	YN	Left	Yes	2.61194039997645	0	144394	253
284.619140625	0	taste	response	1	44	44	foodImage.4	FOODEEG_Images\0065.jpg	YN	Left	Yes	2.61194039997645	0	145726	234
285.662109375	1	decision	trialStart	1	45	45	foodImage.71	FOODEEG_Images\0713.jpg	YN	Right	No	2.15810840018094	0	146260	251
286.705078125	2	decision	foodImageDisplay	1	45	45	foodImage.71	FOODEEG_Images\0713.jpg	YN	Right	No	2.15810840018094	0	146794	252
288.7734375	2.15810840018094	decision	choicePhaseStart	1	45	45	foodImage.71	FOODEEG_Images\0713.jpg	YN	Right	No	2.15810840018094	0	147853	253
290.923828125	0	decision	response	1	45	45	foodImage.71	FOODEEG_Images\0713.jpg	YN	Right	No	2.15810840018094	0	148954	235
291.966796875	1	health	trialStart	1	46	46	foodImage.92	FOODEEG_Images\0900.jpg	YN	Left	Yes	1.88388599990867	0	149488	251
293.005859375	2	health	foodImageDisplay	1	46	46	foodImage.92	FOODEEG_Images\0900.jpg	YN	Left	Yes	1.88388599990867	0	150020	252
295.0703125	1.88388599990867	health	choicePhaseStart	1	46	46	foodImage.92	FOODEEG_Images\0900.jpg	YN	Left	Yes	1.88388599990867	0	151077	253
296.947265625	0	health	response	1	46	46	foodImage.92	FOODEEG_Images\0900.jpg	YN	Left	Yes	1.88388599990867	0	152038	234
297.98828125	1	taste	trialStart	1	47	47	foodImage.57	FOODEEG_Images\0587.jpg	YN	Right	No	4.85193030000664	0	152571	251
299.03125	2	taste	foodImageDisplay	1	47	47	foodImage.57	FOODEEG_Images\0587.jpg	YN	Right	No	4.85193030000664	0	153105	252
301.095703125	4.85193030000664	taste	choicePhaseStart	1	47	47	foodImage.57	FOODEEG_Images\0587.jpg	YN	Right	No	4.85193030000664	0	154162	253
305.9375	0	taste	response	1	47	47	foodImage.57	FOODEEG_Images\0587.jpg	YN	Right	No	4.85193030000664	0	156641	235
306.98046875	1	decision	trialStart	1	48	48	foodImage.69	FOODEEG_Images\0693.jpg	YN	Left	Yes	1.99164430005476	0	157175	251
308.0234375	2	decision	foodImageDisplay	1	48	48	foodImage.69	FOODEEG_Images\0693.jpg	YN	Left	Yes	1.99164430005476	0	157709	252
310.091796875	1.99164430005476	decision	choicePhaseStart	1	48	48	foodImage.69	FOODEEG_Images\0693.jpg	YN	Left	Yes	1.99164430005476	0	158768	253
312.07421875	0	decision	response	1	48	48	foodImage.69	FOODEEG_Images\0693.jpg	YN	Left	Yes	1.99164430005476	0	159783	234
313.1171875	1	health	trialStart	1	49	49	foodImage.104	FOODEEG_Images\0912.jpg	NY	Right	Yes	1.39966759993695	0	160317	251
314.15625	2	health	foodImageDisplay	1	49	49	foodImage.104	FOODEEG_Images\0912.jpg	NY	Right	Yes	1.39966759993695	0	160849	252
316.220703125	1.39966759993695	health	choicePhaseStart	1	49	49	foodImage.104	FOODEEG_Images\0912.jpg	NY	Right	Yes	1.39966759993695	0	161906	253
317.609375	0	health	response	1	49	49	foodImage.104	FOODEEG_Images\0912.jpg	NY	Right	Yes	1.39966759993695	0	162617	235
318.65234375	1	taste	trialStart	1	50	50	foodImage.97	FOODEEG_Images\0905.jpg	NY	Right	Yes	1.58991039986722	0	163151	251
319.693359375	2	taste	foodImageDisplay	1	50	50	foodImage.97	FOODEEG_Images\0905.jpg	NY	Right	Yes	1.58991039986722	0	163684	252
321.7578125	1.58991039986722	taste	choicePhaseStart	1	50	50	foodImage.97	FOODEEG_Images\0905.jpg	NY	Right	Yes	1.58991039986722	0	164741	253
323.337890625	0	taste	response	1	50	50	foodImage.97	FOODEEG_Images\0905.jpg	NY	Right	Yes	1.58991039986722	0	165550	235
324.380859375	1	decision	trialStart	1	51	51	foodImage.21	FOODEEG_Images\0234.jpg	NY	Right	Yes	1.58003220008686	0	166084	251
325.439453125	2	decision	foodImageDisplay	1	51	51	foodImage.21	FOODEEG_Images\0234.jpg	NY	Right	Yes	1.58003220008686	0	166626	252
327.501953125	1.58003220008686	decision	choicePhaseStart	1	51	51	foodImage.21	FOODEEG_Images\0234.jpg	NY	Right	Yes	1.58003220008686	0	167682	253
329.07421875	0	decision	response	1	51	51	foodImage.21	FOODEEG_Images\0234.jpg	NY	Right	Yes	1.58003220008686	0	168487	235
330.115234375	1	health	trialStart	1	52	52	foodImage.82	FOODEEG_Images\0805.jpg	YN	Left	Yes	2.81469259993173	0	169020	251
331.16796875	2	health	foodImageDisplay	1	52	52	foodImage.82	FOODEEG_Images\0805.jpg	YN	Left	Yes	2.81469259993173	0	169559	252
333.234375	2.81469259993173	health	choicePhaseStart	1	52	52	foodImage.82	FOODEEG_Images\0805.jpg	YN	Left	Yes	2.81469259993173	0	170617	253
336.041015625	0	health	response	1	52	52	foodImage.82	FOODEEG_Images\0805.jpg	YN	Left	Yes	2.81469259993173	0	172054	234
337.0859375	1	decision	trialStart	1	53	53	foodImage.101	FOODEEG_Images\0909.jpg	NY	Right	Yes	1.39727069996297	0	172589	251
338.125	2	decision	foodImageDisplay	1	53	53	foodImage.101	FOODEEG_Images\0909.jpg	NY	Right	Yes	1.39727069996297	0	173121	252
340.189453125	1.39727069996297	decision	choicePhaseStart	1	53	53	foodImage.101	FOODEEG_Images\0909.jpg	NY	Right	Yes	1.39727069996297	0	174178	253
341.576171875	0	decision	response	1	53	53	foodImage.101	FOODEEG_Images\0909.jpg	NY	Right	Yes	1.39727069996297	0	174888	235
342.619140625	1	taste	trialStart	1	54	54	foodImage.41	FOODEEG_Images\0409.jpg	NY	Right	Yes	1.78664799989201	0	175422	251
343.666015625	2	taste	foodImageDisplay	1	54	54	foodImage.41	FOODEEG_Images\0409.jpg	NY	Right	Yes	1.78664799989201	0	175958	252
345.732421875	1.78664799989201	taste	choicePhaseStart	1	54	54	foodImage.41	FOODEEG_Images\0409.jpg	NY	Right	Yes	1.78664799989201	0	177016	253
347.51171875	0	taste	response	1	54	54	foodImage.41	FOODEEG_Images\0409.jpg	NY	Right	Yes	1.78664799989201	0	177927	235
348.5546875	1	decision	trialStart	1	55	55	foodImage.61	FOODEEG_Images\0640.jpg	NY	Left	No	2.29703299980611	0	178461	251
349.59765625	2	decision	foodImageDisplay	1	55	55	foodImage.61	FOODEEG_Images\0640.jpg	NY	Left	No	2.29703299980611	0	178995	252
351.662109375	2.29703299980611	decision	choicePhaseStart	1	55	55	foodImage.61	FOODEEG_Images\0640.jpg	NY	Left	No	2.29703299980611	0	180052	253
353.953125	0	decision	response	1	55	55	foodImage.61	FOODEEG_Images\0640.jpg	NY	Left	No	2.29703299980611	0	181225	234
355.001953125	1	health	trialStart	1	56	56	foodImage.11	FOODEEG_Images\0180.jpg	YN	Right	No	3.08474069996737	0	181762	251
356.044921875	2	health	foodImageDisplay	1	56	56	foodImage.11	FOODEEG_Images\0180.jpg	YN	Right	No	3.08474069996737	0	182296	252
358.109375	3.08474069996737	health	choicePhaseStart	1	56	56	foodImage.11	FOODEEG_Images\0180.jpg	YN	Right	No	3.08474069996737	0	183353	253
361.18359375	0	health	response	1	56	56	foodImage.11	FOODEEG_Images\0180.jpg	YN	Right	No	3.08474069996737	0	184927	235
362.2265625	1	decision	trialStart	1	57	57	foodImage.43	FOODEEG_Images\0445.jpg	NY	Right	Yes	1.58231119997799	0	185461	251
363.28515625	2	decision	foodImageDisplay	1	57	57	foodImage.43	FOODEEG_Images\0445.jpg	NY	Right	Yes	1.58231119997799	0	186003	252
365.34765625	1.58231119997799	decision	choicePhaseStart	1	57	57	foodImage.43	FOODEEG_Images\0445.jpg	NY	Right	Yes	1.58231119997799	0	187059	253
366.919921875	0	decision	response	1	57	57	foodImage.43	FOODEEG_Images\0445.jpg	NY	Right	Yes	1.58231119997799	0	187864	235
367.962890625	1	health	trialStart	1	58	58	foodImage.83	FOODEEG_Images\0827.jpg	NY	Right	Yes	1.24347710004076	0	188398	251
369.021484375	2	health	foodImageDisplay	1	58	58	foodImage.83	FOODEEG_Images\0827.jpg	NY	Right	Yes	1.24347710004076	0	188940	252
371.0859375	1.24347710004076	health	choicePhaseStart	1	58	58	foodImage.83	FOODEEG_Images\0827.jpg	NY	Right	Yes	1.24347710004076	0	189997	253
372.3203125	0	health	response	1	58	58	foodImage.83	FOODEEG_Images\0827.jpg	NY	Right	Yes	1.24347710004076	0	190629	235
373.36328125	1	health	trialStart	1	59	59	foodImage.63	FOODEEG_Images\0645.jpg	YN	Right	No	2.06818059994839	0	191163	251
374.40625	2	health	foodImageDisplay	1	59	59	foodImage.63	FOODEEG_Images\0645.jpg	YN	Right	No	2.06818059994839	0	191697	252
376.46875	2.06818059994839	health	choicePhaseStart	1	59	59	foodImage.63	FOODEEG_Images\0645.jpg	YN	Right	No	2.06818059994839	0	192753	253
378.52734375	0	health	response	1	59	59	foodImage.63	FOODEEG_Images\0645.jpg	YN	Right	No	2.06818059994839	0	193807	235
379.5703125	1	taste	trialStart	1	60	60	foodImage.72	FOODEEG_Images\0714.jpg	YN	Left	Yes	1.38060289993882	0	194341	251
380.61328125	2	taste	foodImageDisplay	1	60	60	foodImage.72	FOODEEG_Images\0714.jpg	YN	Left	Yes	1.38060289993882	0	194875	252
382.67578125	1.38060289993882	taste	choicePhaseStart	1	60	60	foodImage.72	FOODEEG_Images\0714.jpg	YN	Left	Yes	1.38060289993882	0	195931	253
384.046875	0	taste	response	1	60	60	foodImage.72	FOODEEG_Images\0714.jpg	YN	Left	Yes	1.38060289993882	0	196633	234
386.087890625	32.4453125	n/a	blockEnd	n/a	n/a	n/a	n/a	n/a	n/a	n/a	n/a	n/a	n/a	197678	254
418.533203125	2	n/a	blockStart	2	n/a	n/a	n/a	n/a	n/a	n/a	n/a	n/a	n/a	214290	250
420.564453125	1	health	trialStart	2	61	1	foodImage.101	FOODEEG_Images\0909.jpg	NY	Right	Yes	1.20179790002294	0	215330	251
421.603515625	2	health	foodImageDisplay	2	61	1	foodImage.101	FOODEEG_Images\0909.jpg	NY	Right	Yes	1.20179790002294	0	215862	252
423.66796875	1.20179790002294	health	choicePhaseStart	2	61	1	foodImage.101	FOODEEG_Images\0909.jpg	NY	Right	Yes	1.20179790002294	0	216919	253
424.861328125	0	health	response	2	61	1	foodImage.101	FOODEEG_Images\0909.jpg	NY	Right	Yes	1.20179790002294	0	217530	235
425.90234375	1	health	trialStart	2	62	2	foodImage.76	FOODEEG_Images\0766.jpg	NY	Right	Yes	1.31247740006074	0	218063	251
426.9453125	2	health	foodImageDisplay	2	62	2	foodImage.76	FOODEEG_Images\0766.jpg	NY	Right	Yes	1.31247740006074	0	218597	252
429.0078125	1.31247740006074	health	choicePhaseStart	2	62	2	foodImage.76	FOODEEG_Images\0766.jpg	NY	Right	Yes	1.31247740006074	0	219653	253
430.310546875	0	health	response	2	62	2	foodImage.76	FOODEEG_Images\0766.jpg	NY	Right	Yes	1.31247740006074	0	220320	235
431.3515625	1	decision	trialStart	2	63	3	foodImage.3	FOODEEG_Images\0046.jpg	NY	Right	Yes	1.88504289998673	0	220853	251
432.392578125	2	decision	foodImageDisplay	2	63	3	foodImage.3	FOODEEG_Images\0046.jpg	NY	Right	Yes	1.88504289998673	0	221386	252
434.45703125	1.88504289998673	decision	choicePhaseStart	2	63	3	foodImage.3	FOODEEG_Images\0046.jpg	NY	Right	Yes	1.88504289998673	0	222443	253
436.333984375	0	decision	response	2	63	3	foodImage.3	FOODEEG_Images\0046.jpg	NY	Right	Yes	1.88504289998673	0	223404	235
437.376953125	1	decision	trialStart	2	64	4	foodImage.55	FOODEEG_Images\0567.jpg	NY	Right	Yes	0.826626199996099	0	223938	251
438.4453125	2	decision	foodImageDisplay	2	64	4	foodImage.55	FOODEEG_Images\0567.jpg	NY	Right	Yes	0.826626199996099	0	224485	252
440.5078125	0.826626199996099	decision	choicePhaseStart	2	64	4	foodImage.55	FOODEEG_Images\0567.jpg	NY	Right	Yes	0.826626199996099	0	225541	253
441.326171875	0	decision	response	2	64	4	foodImage.55	FOODEEG_Images\0567.jpg	NY	Right	Yes	0.826626199996099	0	225960	235
442.369140625	1	taste	trialStart	2	65	5	foodImage.42	FOODEEG_Images\0438.jpg	NY	Left	No	1.38256089994684	0	226494	251
443.45703125	2	taste	foodImageDisplay	2	65	5	foodImage.42	FOODEEG_Images\0438.jpg	NY	Left	No	1.38256089994684	0	227051	252
445.51953125	1.38256089994684	taste	choicePhaseStart	2	65	5	foodImage.42	FOODEEG_Images\0438.jpg	NY	Left	No	1.38256089994684	0	228107	253
446.892578125	0	taste	response	2	65	5	foodImage.42	FOODEEG_Images\0438.jpg	NY	Left	No	1.38256089994684	0	228810	234
447.935546875	1	decision	trialStart	2	66	6	foodImage.26	FOODEEG_Images\0262.jpg	YN	Right	No	1.47367440001108	0	229344	251
448.982421875	2	decision	foodImageDisplay	2	66	6	foodImage.26	FOODEEG_Images\0262.jpg	YN	Right	No	1.47367440001108	0	229880	252
451.044921875	1.47367440001108	decision	choicePhaseStart	2	66	6	foodImage.26	FOODEEG_Images\0262.jpg	YN	Right	No	1.47367440001108	0	230936	253
452.509765625	0	decision	response	2	66	6	foodImage.26	FOODEEG_Images\0262.jpg	YN	Right	No	1.47367440001108	0	231686	235
453.55078125	1	health	trialStart	2	67	7	foodImage.87	FOODEEG_Images\0873.jpg	YN	Right	No	6.06033229990862	1	232219	251
454.609375	2	health	foodImageDisplay	2	67	7	foodImage.87	FOODEEG_Images\0873.jpg	YN	Right	No	6.06033229990862	1	232761	252
456.673828125	6.06033229990862	health	choicePhaseStart	2	67	7	foodImage.87	FOODEEG_Images\0873.jpg	YN	Right	No	6.06033229990862	1	233818	253
462.724609375	0	health	response	2	67	7	foodImage.87	FOODEEG_Images\0873.jpg	YN	Right	No	6.06033229990862	1	236916	235
463.767578125	1	health	trialStart	2	68	8	foodImage.29	FOODEEG_Images\0278.jpg	NY	Right	Yes	1.57409149990417	0	237450	251
464.810546875	2	health	foodImageDisplay	2	68	8	foodImage.29	FOODEEG_Images\0278.jpg	NY	Right	Yes	1.57409149990417	0	237984	252
466.876953125	1.57409149990417	health	choicePhaseStart	2	68	8	foodImage.29	FOODEEG_Images\0278.jpg	NY	Right	Yes	1.57409149990417	0	239042	253
468.4453125	0	health	response	2	68	8	foodImage.29	FOODEEG_Images\0278.jpg	NY	Right	Yes	1.57409149990417	0	239845	235
469.486328125	1	decision	trialStart	2	69	9	foodImage.111	FOODEEG_Images\0919.jpg	NY	Right	Yes	1.94432629994117	0	240378	251
470.525390625	2	decision	foodImageDisplay	2	69	9	foodImage.111	FOODEEG_Images\0919.jpg	NY	Right	Yes	1.94432629994117	0	240910	252
472.58984375	1.94432629994117	decision	choicePhaseStart	2	69	9	foodImage.111	FOODEEG_Images\0919.jpg	NY	Right	Yes	1.94432629994117	0	241967	253
474.5234375	0	decision	response	2	69	9	foodImage.111	FOODEEG_Images\0919.jpg	NY	Right	Yes	1.94432629994117	0	242957	235
475.56640625	1	taste	trialStart	2	70	10	foodImage.114	FOODEEG_Images\0922.jpg	YN	Right	No	1.87990509998053	0	243491	251
476.60546875	2	taste	foodImageDisplay	2	70	10	foodImage.114	FOODEEG_Images\0922.jpg	YN	Right	No	1.87990509998053	0	244023	252
478.669921875	1.87990509998053	taste	choicePhaseStart	2	70	10	foodImage.114	FOODEEG_Images\0922.jpg	YN	Right	No	1.87990509998053	0	245080	253
480.5390625	0	taste	response	2	70	10	foodImage.114	FOODEEG_Images\0922.jpg	YN	Right	No	1.87990509998053	0	246037	235
481.58203125	1	health	trialStart	2	71	11	foodImage.50	FOODEEG_Images\0529.jpg	NY	Right	Yes	1.18009819998406	0	246571	251
482.640625	2	health	foodImageDisplay	2	71	11	foodImage.50	FOODEEG_Images\0529.jpg	NY	Right	Yes	1.18009819998406	0	247113	252
484.705078125	1.18009819998406	health	choicePhaseStart	2	71	11	foodImage.50	FOODEEG_Images\0529.jpg	NY	Right	Yes	1.18009819998406	0	248170	253
485.875	0	health	response	2	71	11	foodImage.50	FOODEEG_Images\0529.jpg	NY	Right	Yes	1.18009819998406	0	248769	235
486.919921875	1	health	trialStart	2	72	12	foodImage.84	FOODEEG_Images\0830.jpg	YN	Left	Yes	6.24681669985875	1	249304	251
487.98046875	2	health	foodImageDisplay	2	72	12	foodImage.84	FOODEEG_Images\0830.jpg	YN	Left	Yes	6.24681669985875	1	249847	252
490.044921875	6.24681669985875	health	choicePhaseStart	2	72	12	foodImage.84	FOODEEG_Images\0830.jpg	YN	Left	Yes	6.24681669985875	1	250904	253
496.283203125	0	health	response	2	72	12	foodImage.84	FOODEEG_Images\0830.jpg	YN	Left	Yes	6.24681669985875	1	254098	234
497.326171875	1	health	trialStart	2	73	13	foodImage.32	FOODEEG_Images\0319.jpg	YN	Left	Yes	8.26846090005711	1	254632	251
498.369140625	2	health	foodImageDisplay	2	73	13	foodImage.32	FOODEEG_Images\0319.jpg	YN	Left	Yes	8.26846090005711	1	255166	252
500.431640625	8.26846090005711	health	choicePhaseStart	2	73	13	foodImage.32	FOODEEG_Images\0319.jpg	YN	Left	Yes	8.26846090005711	1	256222	253
508.69140625	0	health	response	2	73	13	foodImage.32	FOODEEG_Images\0319.jpg	YN	Left	Yes	8.26846090005711	1	260451	234
509.734375	1	decision	trialStart	2	74	14	foodImage.99	FOODEEG_Images\0907.jpg	NY	Right	Yes	2.50350139988586	0	260985	251
510.7734375	2	decision	foodImageDisplay	2	74	14	foodImage.99	FOODEEG_Images\0907.jpg	NY	Right	Yes	2.50350139988586	0	261517	252
512.8359375	2.50350139988586	decision	choicePhaseStart	2	74	14	foodImage.99	FOODEEG_Images\0907.jpg	NY	Right	Yes	2.50350139988586	0	262573	253
515.330078125	0	decision	response	2	74	14	foodImage.99	FOODEEG_Images\0907.jpg	NY	Right	Yes	2.50350139988586	0	263850	235
516.373046875	1	decision	trialStart	2	75	15	foodImage.35	FOODEEG_Images\0350.jpg	NY	Right	Yes	1.50213659997098	0	264384	251
517.416015625	2	decision	foodImageDisplay	2	75	15	foodImage.35	FOODEEG_Images\0350.jpg	NY	Right	Yes	1.50213659997098	0	264918	252
519.4765625	1.50213659997098	decision	choicePhaseStart	2	75	15	foodImage.35	FOODEEG_Images\0350.jpg	NY	Right	Yes	1.50213659997098	0	265973	253
520.970703125	0	decision	response	2	75	15	foodImage.35	FOODEEG_Images\0350.jpg	NY	Right	Yes	1.50213659997098	0	266738	235
522.017578125	1	decision	trialStart	2	76	16	foodImage.109	FOODEEG_Images\0917.jpg	YN	Right	No	2.23927080002613	0	267274	251
523.056640625	2	decision	foodImageDisplay	2	76	16	foodImage.109	FOODEEG_Images\0917.jpg	YN	Right	No	2.23927080002613	0	267806	252
525.123046875	2.23927080002613	decision	choicePhaseStart	2	76	16	foodImage.109	FOODEEG_Images\0917.jpg	YN	Right	No	2.23927080002613	0	268864	253
527.353515625	0	decision	response	2	76	16	foodImage.109	FOODEEG_Images\0917.jpg	YN	Right	No	2.23927080002613	0	270006	235
528.396484375	1	taste	trialStart	2	77	17	foodImage.51	FOODEEG_Images\0536.jpg	YN	Left	Yes	1.58739649993367	0	270540	251
529.44140625	2	taste	foodImageDisplay	2	77	17	foodImage.51	FOODEEG_Images\0536.jpg	YN	Left	Yes	1.58739649993367	0	271075	252
531.50390625	1.58739649993367	taste	choicePhaseStart	2	77	17	foodImage.51	FOODEEG_Images\0536.jpg	YN	Left	Yes	1.58739649993367	0	272131	253
533.08203125	0	taste	response	2	77	17	foodImage.51	FOODEEG_Images\0536.jpg	YN	Left	Yes	1.58739649993367	0	272939	234
534.125	1	decision	trialStart	2	78	18	foodImage.75	FOODEEG_Images\0763.jpg	YN	Left	Yes	2.16796420002356	0	273473	251
535.169921875	2	decision	foodImageDisplay	2	78	18	foodImage.75	FOODEEG_Images\0763.jpg	YN	Left	Yes	2.16796420002356	0	274008	252
537.234375	2.16796420002356	decision	choicePhaseStart	2	78	18	foodImage.75	FOODEEG_Images\0763.jpg	YN	Left	Yes	2.16796420002356	0	275065	253
539.392578125	0	decision	response	2	78	18	foodImage.75	FOODEEG_Images\0763.jpg	YN	Left	Yes	2.16796420002356	0	276170	234
540.435546875	1	decision	trialStart	2	79	19	foodImage.84	FOODEEG_Images\0830.jpg	YN	Left	Yes	1.37930379994214	0	276704	251
541.494140625	2	decision	foodImageDisplay	2	79	19	foodImage.84	FOODEEG_Images\0830.jpg	YN	Left	Yes	1.37930379994214	0	277246	252
543.560546875	1.37930379994214	decision	choicePhaseStart	2	79	19	foodImage.84	FOODEEG_Images\0830.jpg	YN	Left	Yes	1.37930379994214	0	278304	253
544.9296875	0	decision	response	2	79	19	foodImage.84	FOODEEG_Images\0830.jpg	YN	Left	Yes	1.37930379994214	0	279005	234
545.97265625	1	taste	trialStart	2	80	20	foodImage.79	FOODEEG_Images\0794.jpg	YN	Left	Yes	2.70359240006655	0	279539	251
547.01953125	2	taste	foodImageDisplay	2	80	20	foodImage.79	FOODEEG_Images\0794.jpg	YN	Left	Yes	2.70359240006655	0	280075	252
549.08203125	2.70359240006655	taste	choicePhaseStart	2	80	20	foodImage.79	FOODEEG_Images\0794.jpg	YN	Left	Yes	2.70359240006655	0	281131	253
551.77734375	0	taste	response	2	80	20	foodImage.79	FOODEEG_Images\0794.jpg	YN	Left	Yes	2.70359240006655	0	282511	234
552.826171875	1	health	trialStart	2	81	21	foodImage.37	FOODEEG_Images\0359.jpg	YN	Left	Yes	1.16257459996268	0	283048	251
553.873046875	2	health	foodImageDisplay	2	81	21	foodImage.37	FOODEEG_Images\0359.jpg	YN	Left	Yes	1.16257459996268	0	283584	252
555.935546875	1.16257459996268	health	choicePhaseStart	2	81	21	foodImage.37	FOODEEG_Images\0359.jpg	YN	Left	Yes	1.16257459996268	0	284640	253
557.087890625	0	health	response	2	81	21	foodImage.37	FOODEEG_Images\0359.jpg	YN	Left	Yes	1.16257459996268	0	285230	234
558.1328125	1	taste	trialStart	2	82	22	foodImage.11	FOODEEG_Images\0180.jpg	YN	Left	Yes	1.09131159982644	0	285765	251
559.171875	2	taste	foodImageDisplay	2	82	22	foodImage.11	FOODEEG_Images\0180.jpg	YN	Left	Yes	1.09131159982644	0	286297	252
561.236328125	1.09131159982644	taste	choicePhaseStart	2	82	22	foodImage.11	FOODEEG_Images\0180.jpg	YN	Left	Yes	1.09131159982644	0	287354	253
562.3203125	0	taste	response	2	82	22	foodImage.11	FOODEEG_Images\0180.jpg	YN	Left	Yes	1.09131159982644	0	287909	234
563.36328125	1	health	trialStart	2	83	23	foodImage.103	FOODEEG_Images\0911.jpg	YN	Left	Yes	0.760134799871594	0	288443	251
564.40234375	2	health	foodImageDisplay	2	83	23	foodImage.103	FOODEEG_Images\0911.jpg	YN	Left	Yes	0.760134799871594	0	288975	252
566.466796875	0.760134799871594	health	choicePhaseStart	2	83	23	foodImage.103	FOODEEG_Images\0911.jpg	YN	Left	Yes	0.760134799871594	0	290032	253
567.216796875	0	health	response	2	83	23	foodImage.103	FOODEEG_Images\0911.jpg	YN	Left	Yes	0.760134799871594	0	290416	234
568.259765625	1	decision	trialStart	2	84	24	foodImage.11	FOODEEG_Images\0180.jpg	YN	Left	Yes	0.986372799845412	0	290950	251
569.302734375	2	decision	foodImageDisplay	2	84	24	foodImage.11	FOODEEG_Images\0180.jpg	YN	Left	Yes	0.986372799845412	0	291484	252
571.3671875	0.986372799845412	decision	choicePhaseStart	2	84	24	foodImage.11	FOODEEG_Images\0180.jpg	YN	Left	Yes	0.986372799845412	0	292541	253
572.34375	0	decision	response	2	84	24	foodImage.11	FOODEEG_Images\0180.jpg	YN	Left	Yes	0.986372799845412	0	293041	234
573.38671875	1	taste	trialStart	2	85	25	foodImage.76	FOODEEG_Images\0766.jpg	NY	Right	Yes	1.13038440002128	0	293575	251
574.431640625	2	taste	foodImageDisplay	2	85	25	foodImage.76	FOODEEG_Images\0766.jpg	NY	Right	Yes	1.13038440002128	0	294110	252
576.49609375	1.13038440002128	taste	choicePhaseStart	2	85	25	foodImage.76	FOODEEG_Images\0766.jpg	NY	Right	Yes	1.13038440002128	0	295167	253
577.615234375	0	taste	response	2	85	25	foodImage.76	FOODEEG_Images\0766.jpg	NY	Right	Yes	1.13038440002128	0	295740	235
578.66015625	1	health	trialStart	2	86	26	foodImage.22	FOODEEG_Images\0236.jpg	NY	Right	Yes	1.14886889979243	0	296275	251
579.701171875	2	health	foodImageDisplay	2	86	26	foodImage.22	FOODEEG_Images\0236.jpg	NY	Right	Yes	1.14886889979243	0	296808	252
581.763671875	1.14886889979243	health	choicePhaseStart	2	86	26	foodImage.22	FOODEEG_Images\0236.jpg	NY	Right	Yes	1.14886889979243	0	297864	253
582.904296875	0	health	response	2	86	26	foodImage.22	FOODEEG_Images\0236.jpg	NY	Right	Yes	1.14886889979243	0	298448	235
583.947265625	1	decision	trialStart	2	87	27	foodImage.24	FOODEEG_Images\0250.jpg	YN	Left	Yes	1.02353240014054	0	298982	251
584.990234375	2	decision	foodImageDisplay	2	87	27	foodImage.24	FOODEEG_Images\0250.jpg	YN	Left	Yes	1.02353240014054	0	299516	252
587.05859375	1.02353240014054	decision	choicePhaseStart	2	87	27	foodImage.24	FOODEEG_Images\0250.jpg	YN	Left	Yes	1.02353240014054	0	300575	253
588.072265625	0	decision	response	2	87	27	foodImage.24	FOODEEG_Images\0250.jpg	YN	Left	Yes	1.02353240014054	0	301094	234
589.11328125	1	taste	trialStart	2	88	28	foodImage.31	FOODEEG_Images\0294.jpg	YN	Left	Yes	2.20525819994509	0	301627	251
590.15625	2	taste	foodImageDisplay	2	88	28	foodImage.31	FOODEEG_Images\0294.jpg	YN	Left	Yes	2.20525819994509	0	302161	252
592.21875	2.20525819994509	taste	choicePhaseStart	2	88	28	foodImage.31	FOODEEG_Images\0294.jpg	YN	Left	Yes	2.20525819994509	0	303217	253
594.416015625	0	taste	response	2	88	28	foodImage.31	FOODEEG_Images\0294.jpg	YN	Left	Yes	2.20525819994509	0	304342	234
595.45703125	1	health	trialStart	2	89	29	foodImage.114	FOODEEG_Images\0922.jpg	NY	Left	No	1.04764569993131	0	304875	251
596.49609375	2	health	foodImageDisplay	2	89	29	foodImage.114	FOODEEG_Images\0922.jpg	NY	Left	No	1.04764569993131	0	305407	252
598.560546875	1.04764569993131	health	choicePhaseStart	2	89	29	foodImage.114	FOODEEG_Images\0922.jpg	NY	Left	No	1.04764569993131	0	306464	253
599.599609375	0	health	response	2	89	29	foodImage.114	FOODEEG_Images\0922.jpg	NY	Left	No	1.04764569993131	0	306996	234
600.640625	1	taste	trialStart	2	90	30	foodImage.43	FOODEEG_Images\0445.jpg	NY	Right	Yes	3.04400920006447	0	307529	251
601.701171875	2	taste	foodImageDisplay	2	90	30	foodImage.43	FOODEEG_Images\0445.jpg	NY	Right	Yes	3.04400920006447	0	308072	252
603.763671875	3.04400920006447	taste	choicePhaseStart	2	90	30	foodImage.43	FOODEEG_Images\0445.jpg	NY	Right	Yes	3.04400920006447	0	309128	253
606.798828125	0	taste	response	2	90	30	foodImage.43	FOODEEG_Images\0445.jpg	NY	Right	Yes	3.04400920006447	0	310682	235
607.841796875	1	taste	trialStart	2	91	31	foodImage.70	FOODEEG_Images\0705.jpg	YN	Left	Yes	1.47576089994982	0	311216	251
608.90234375	2	taste	foodImageDisplay	2	91	31	foodImage.70	FOODEEG_Images\0705.jpg	YN	Left	Yes	1.47576089994982	0	311759	252
610.96484375	1.47576089994982	taste	choicePhaseStart	2	91	31	foodImage.70	FOODEEG_Images\0705.jpg	YN	Left	Yes	1.47576089994982	0	312815	253
612.431640625	0	taste	response	2	91	31	foodImage.70	FOODEEG_Images\0705.jpg	YN	Left	Yes	1.47576089994982	0	313566	234
613.474609375	1	health	trialStart	2	92	32	foodImage.1	FOODEEG_Images\0004.jpg	NY	Right	Yes	3.62613180000335	0	314100	251
614.517578125	2	health	foodImageDisplay	2	92	32	foodImage.1	FOODEEG_Images\0004.jpg	NY	Right	Yes	3.62613180000335	0	314634	252
616.58203125	3.62613180000335	health	choicePhaseStart	2	92	32	foodImage.1	FOODEEG_Images\0004.jpg	NY	Right	Yes	3.62613180000335	0	315691	253
620.19921875	0	health	response	2	92	32	foodImage.1	FOODEEG_Images\0004.jpg	NY	Right	Yes	3.62613180000335	0	317543	235
621.240234375	1	taste	trialStart	2	93	33	foodImage.37	FOODEEG_Images\0359.jpg	NY	Left	No	4.84382109995931	0	318076	251
622.283203125	2	taste	foodImageDisplay	2	93	33	foodImage.37	FOODEEG_Images\0359.jpg	NY	Left	No	4.84382109995931	0	318610	252
624.34765625	4.84382109995931	taste	choicePhaseStart	2	93	33	foodImage.37	FOODEEG_Images\0359.jpg	NY	Left	No	4.84382109995931	0	319667	253
629.181640625	0	taste	response	2	93	33	foodImage.37	FOODEEG_Images\0359.jpg	NY	Left	No	4.84382109995931	0	322142	234
630.224609375	1	taste	trialStart	2	94	34	foodImage.107	FOODEEG_Images\0915.jpg	YN	Left	Yes	4.97528720018454	0	322676	251
631.263671875	2	taste	foodImageDisplay	2	94	34	foodImage.107	FOODEEG_Images\0915.jpg	YN	Left	Yes	4.97528720018454	0	323208	252
633.328125	4.97528720018454	taste	choicePhaseStart	2	94	34	foodImage.107	FOODEEG_Images\0915.jpg	YN	Left	Yes	4.97528720018454	0	324265	253
638.29296875	0	taste	response	2	94	34	foodImage.107	FOODEEG_Images\0915.jpg	YN	Left	Yes	4.97528720018454	0	326807	234
639.3359375	1	health	trialStart	2	95	35	foodImage.15	FOODEEG_Images\0189.jpg	YN	Right	No	1.3586939999368	0	327341	251
640.39453125	2	health	foodImageDisplay	2	95	35	foodImage.15	FOODEEG_Images\0189.jpg	YN	Right	No	1.3586939999368	0	327883	252
642.455078125	1.3586939999368	health	choicePhaseStart	2	95	35	foodImage.15	FOODEEG_Images\0189.jpg	YN	Right	No	1.3586939999368	0	328938	253
643.8046875	0	health	response	2	95	35	foodImage.15	FOODEEG_Images\0189.jpg	YN	Right	No	1.3586939999368	0	329629	235
644.853515625	1	taste	trialStart	2	96	36	foodImage.94	FOODEEG_Images\0902.jpg	YN	Right	No	1.47610180010088	0	330166	251
645.890625	2	taste	foodImageDisplay	2	96	36	foodImage.94	FOODEEG_Images\0902.jpg	YN	Right	No	1.47610180010088	0	330697	252
647.955078125	1.47610180010088	taste	choicePhaseStart	2	96	36	foodImage.94	FOODEEG_Images\0902.jpg	YN	Right	No	1.47610180010088	0	331754	253
649.421875	0	taste	response	2	96	36	foodImage.94	FOODEEG_Images\0902.jpg	YN	Right	No	1.47610180010088	0	332505	235
650.46484375	1	decision	trialStart	2	97	37	foodImage.117	FOODEEG_Images\0925.jpg	NY	Left	No	1.23294709995389	0	333039	251
651.501953125	2	decision	foodImageDisplay	2	97	37	foodImage.117	FOODEEG_Images\0925.jpg	NY	Left	No	1.23294709995389	0	333570	252
653.564453125	1.23294709995389	decision	choicePhaseStart	2	97	37	foodImage.117	FOODEEG_Images\0925.jpg	NY	Left	No	1.23294709995389	0	334626	253
654.7890625	0	decision	response	2	97	37	foodImage.117	FOODEEG_Images\0925.jpg	NY	Left	No	1.23294709995389	0	335253	234
655.833984375	1	taste	trialStart	2	98	38	foodImage.111	FOODEEG_Images\0919.jpg	YN	Left	Yes	3.36771659995429	0	335788	251
656.87109375	2	taste	foodImageDisplay	2	98	38	foodImage.111	FOODEEG_Images\0919.jpg	YN	Left	Yes	3.36771659995429	0	336319	252
658.93359375	3.36771659995429	taste	choicePhaseStart	2	98	38	foodImage.111	FOODEEG_Images\0919.jpg	YN	Left	Yes	3.36771659995429	0	337375	253
662.29296875	0	taste	response	2	98	38	foodImage.111	FOODEEG_Images\0919.jpg	YN	Left	Yes	3.36771659995429	0	339095	234
663.3359375	1	health	trialStart	2	99	39	foodImage.116	FOODEEG_Images\0924.jpg	YN	Right	No	3.18703930010088	0	339629	251
664.373046875	2	health	foodImageDisplay	2	99	39	foodImage.116	FOODEEG_Images\0924.jpg	YN	Right	No	3.18703930010088	0	340160	252
666.435546875	3.18703930010088	health	choicePhaseStart	2	99	39	foodImage.116	FOODEEG_Images\0924.jpg	YN	Right	No	3.18703930010088	0	341216	253
669.61328125	0	health	response	2	99	39	foodImage.116	FOODEEG_Images\0924.jpg	YN	Right	No	3.18703930010088	0	342843	235
670.65625	1	decision	trialStart	2	100	40	foodImage.32	FOODEEG_Images\0319.jpg	NY	Left	No	2.05120390001684	0	343377	251
671.69921875	2	decision	foodImageDisplay	2	100	40	foodImage.32	FOODEEG_Images\0319.jpg	NY	Left	No	2.05120390001684	0	343911	252
673.76171875	2.05120390001684	decision	choicePhaseStart	2	100	40	foodImage.32	FOODEEG_Images\0319.jpg	NY	Left	No	2.05120390001684	0	344967	253
675.8046875	0	decision	response	2	100	40	foodImage.32	FOODEEG_Images\0319.jpg	NY	Left	No	2.05120390001684	0	346013	234
676.84765625	1	taste	trialStart	2	101	41	foodImage.55	FOODEEG_Images\0567.jpg	YN	Left	Yes	2.33887189999223	0	346547	251
677.90625	2	taste	foodImageDisplay	2	101	41	foodImage.55	FOODEEG_Images\0567.jpg	YN	Left	Yes	2.33887189999223	0	347089	252
679.970703125	2.33887189999223	taste	choicePhaseStart	2	101	41	foodImage.55	FOODEEG_Images\0567.jpg	YN	Left	Yes	2.33887189999223	0	348146	253
682.30078125	0	taste	response	2	101	41	foodImage.55	FOODEEG_Images\0567.jpg	YN	Left	Yes	2.33887189999223	0	349339	234
683.34375	1	decision	trialStart	2	102	42	foodImage.73	FOODEEG_Images\0717.jpg	YN	Left	Yes	1.06872220011428	0	349873	251
684.400390625	2	decision	foodImageDisplay	2	102	42	foodImage.73	FOODEEG_Images\0717.jpg	YN	Left	Yes	1.06872220011428	0	350414	252
686.46484375	1.06872220011428	decision	choicePhaseStart	2	102	42	foodImage.73	FOODEEG_Images\0717.jpg	YN	Left	Yes	1.06872220011428	0	351471	253
687.5234375	0	decision	response	2	102	42	foodImage.73	FOODEEG_Images\0717.jpg	YN	Left	Yes	1.06872220011428	0	352013	234
688.56640625	1	decision	trialStart	2	103	43	foodImage.80	FOODEEG_Images\0796.jpg	NY	Right	Yes	2.4701883001253	0	352547	251
689.623046875	2	decision	foodImageDisplay	2	103	43	foodImage.80	FOODEEG_Images\0796.jpg	NY	Right	Yes	2.4701883001253	0	353088	252
691.6875	2.4701883001253	decision	choicePhaseStart	2	103	43	foodImage.80	FOODEEG_Images\0796.jpg	NY	Right	Yes	2.4701883001253	0	354145	253
694.1484375	0	decision	response	2	103	43	foodImage.80	FOODEEG_Images\0796.jpg	NY	Right	Yes	2.4701883001253	0	355405	235
695.19140625	1	health	trialStart	2	104	44	foodImage.65	FOODEEG_Images\0658.jpg	YN	Right	No	3.53701750002801	0	355939	251
696.234375	2	health	foodImageDisplay	2	104	44	foodImage.65	FOODEEG_Images\0658.jpg	YN	Right	No	3.53701750002801	0	356473	252
698.298828125	3.53701750002801	health	choicePhaseStart	2	104	44	foodImage.65	FOODEEG_Images\0658.jpg	YN	Right	No	3.53701750002801	0	357530	253
701.826171875	0	health	response	2	104	44	foodImage.65	FOODEEG_Images\0658.jpg	YN	Right	No	3.53701750002801	0	359336	235
702.873046875	1	decision	trialStart	2	105	45	foodImage.116	FOODEEG_Images\0924.jpg	NY	Left	No	1.18514019995928	0	359872	251
703.912109375	2	decision	foodImageDisplay	2	105	45	foodImage.116	FOODEEG_Images\0924.jpg	NY	Left	No	1.18514019995928	0	360404	252
705.9765625	1.18514019995928	decision	choicePhaseStart	2	105	45	foodImage.116	FOODEEG_Images\0924.jpg	NY	Left	No	1.18514019995928	0	361461	253
707.154296875	0	decision	response	2	105	45	foodImage.116	FOODEEG_Images\0924.jpg	NY	Left	No	1.18514019995928	0	362064	234
708.201171875	1	health	trialStart	2	106	46	foodImage.95	FOODEEG_Images\0903.jpg	YN	Right	No	1.65271149994805	0	362600	251
709.240234375	2	health	foodImageDisplay	2	106	46	foodImage.95	FOODEEG_Images\0903.jpg	YN	Right	No	1.65271149994805	0	363132	252
711.302734375	1.65271149994805	health	choicePhaseStart	2	106	46	foodImage.95	FOODEEG_Images\0903.jpg	YN	Right	No	1.65271149994805	0	364188	253
712.947265625	0	health	response	2	106	46	foodImage.95	FOODEEG_Images\0903.jpg	YN	Right	No	1.65271149994805	0	365030	235
713.990234375	1	decision	trialStart	2	107	47	foodImage.113	FOODEEG_Images\0921.jpg	NY	Left	No	2.92814889992587	0	365564	251
715.029296875	2	decision	foodImageDisplay	2	107	47	foodImage.113	FOODEEG_Images\0921.jpg	NY	Left	No	2.92814889992587	0	366096	252
717.091796875	2.92814889992587	decision	choicePhaseStart	2	107	47	foodImage.113	FOODEEG_Images\0921.jpg	NY	Left	No	2.92814889992587	0	367152	253
720.009765625	0	decision	response	2	107	47	foodImage.113	FOODEEG_Images\0921.jpg	NY	Left	No	2.92814889992587	0	368646	234
721.0546875	1	health	trialStart	2	108	48	foodImage.27	FOODEEG_Images\0263.jpg	YN	Left	Yes	1.66710130008869	0	369181	251
722.09765625	2	health	foodImageDisplay	2	108	48	foodImage.27	FOODEEG_Images\0263.jpg	YN	Left	Yes	1.66710130008869	0	369715	252
724.16015625	1.66710130008869	health	choicePhaseStart	2	108	48	foodImage.27	FOODEEG_Images\0263.jpg	YN	Left	Yes	1.66710130008869	0	370771	253
725.818359375	0	health	response	2	108	48	foodImage.27	FOODEEG_Images\0263.jpg	YN	Left	Yes	1.66710130008869	0	371620	234
726.861328125	1	health	trialStart	2	109	49	foodImage.102	FOODEEG_Images\0910.jpg	YN	Right	No	1.92692849994637	0	372154	251
727.900390625	2	health	foodImageDisplay	2	109	49	foodImage.102	FOODEEG_Images\0910.jpg	YN	Right	No	1.92692849994637	0	372686	252
729.96484375	1.92692849994637	health	choicePhaseStart	2	109	49	foodImage.102	FOODEEG_Images\0910.jpg	YN	Right	No	1.92692849994637	0	373743	253
731.8828125	0	health	response	2	109	49	foodImage.102	FOODEEG_Images\0910.jpg	YN	Right	No	1.92692849994637	0	374725	235
732.92578125	1	taste	trialStart	2	110	50	foodImage.98	FOODEEG_Images\0906.jpg	NY	Left	No	1.0155950000044	0	375259	251
733.96484375	2	taste	foodImageDisplay	2	110	50	foodImage.98	FOODEEG_Images\0906.jpg	NY	Left	No	1.0155950000044	0	375791	252
736.02734375	1.0155950000044	taste	choicePhaseStart	2	110	50	foodImage.98	FOODEEG_Images\0906.jpg	NY	Left	No	1.0155950000044	0	376847	253
737.033203125	0	taste	response	2	110	50	foodImage.98	FOODEEG_Images\0906.jpg	NY	Left	No	1.0155950000044	0	377362	234
738.076171875	1	taste	trialStart	2	111	51	foodImage.84	FOODEEG_Images\0830.jpg	NY	Right	Yes	2.14042650000192	0	377896	251
739.134765625	2	taste	foodImageDisplay	2	111	51	foodImage.84	FOODEEG_Images\0830.jpg	NY	Right	Yes	2.14042650000192	0	378438	252
741.19921875	2.14042650000192	taste	choicePhaseStart	2	111	51	foodImage.84	FOODEEG_Images\0830.jpg	NY	Right	Yes	2.14042650000192	0	379495	253
743.330078125	0	taste	response	2	111	51	foodImage.84	FOODEEG_Images\0830.jpg	NY	Right	Yes	2.14042650000192	0	380586	235
744.373046875	1	decision	trialStart	2	112	52	foodImage.82	FOODEEG_Images\0805.jpg	NY	Right	Yes	5.39198899990879	1	381120	251
745.44921875	2	decision	foodImageDisplay	2	112	52	foodImage.82	FOODEEG_Images\0805.jpg	NY	Right	Yes	5.39198899990879	1	381671	252
747.513671875	5.39198899990879	decision	choicePhaseStart	2	112	52	foodImage.82	FOODEEG_Images\0805.jpg	NY	Right	Yes	5.39198899990879	1	382728	253
752.896484375	0	decision	response	2	112	52	foodImage.82	FOODEEG_Images\0805.jpg	NY	Right	Yes	5.39198899990879	1	385484	235
753.939453125	1	health	trialStart	2	113	53	foodImage.81	FOODEEG_Images\0797.jpg	YN	Left	Yes	3.39406390022486	0	386018	251
754.994140625	2	health	foodImageDisplay	2	113	53	foodImage.81	FOODEEG_Images\0797.jpg	YN	Left	Yes	3.39406390022486	0	386558	252
757.056640625	3.39406390022486	health	choicePhaseStart	2	113	53	foodImage.81	FOODEEG_Images\0797.jpg	YN	Left	Yes	3.39406390022486	0	387614	253
760.44140625	0	health	response	2	113	53	foodImage.81	FOODEEG_Images\0797.jpg	YN	Left	Yes	3.39406390022486	0	389347	234
761.486328125	1	taste	trialStart	2	114	54	foodImage.100	FOODEEG_Images\0908.jpg	YN	Right	No	2.65044809994288	0	389882	251
762.525390625	2	taste	foodImageDisplay	2	114	54	foodImage.100	FOODEEG_Images\0908.jpg	YN	Right	No	2.65044809994288	0	390414	252
764.587890625	2.65044809994288	taste	choicePhaseStart	2	114	54	foodImage.100	FOODEEG_Images\0908.jpg	YN	Right	No	2.65044809994288	0	391470	253
767.232421875	0	taste	response	2	114	54	foodImage.100	FOODEEG_Images\0908.jpg	YN	Right	No	2.65044809994288	0	392824	235
768.275390625	1	health	trialStart	2	115	55	foodImage.25	FOODEEG_Images\0261.jpg	YN	Right	No	1.80041170003824	0	393358	251
769.328125	2	health	foodImageDisplay	2	115	55	foodImage.25	FOODEEG_Images\0261.jpg	YN	Right	No	1.80041170003824	0	393897	252
771.392578125	1.80041170003824	health	choicePhaseStart	2	115	55	foodImage.25	FOODEEG_Images\0261.jpg	YN	Right	No	1.80041170003824	0	394954	253
773.18359375	0	health	response	2	115	55	foodImage.25	FOODEEG_Images\0261.jpg	YN	Right	No	1.80041170003824	0	395871	235
774.2265625	1	decision	trialStart	2	116	56	foodImage.15	FOODEEG_Images\0189.jpg	YN	Left	Yes	4.18988200020976	0	396405	251
775.283203125	2	decision	foodImageDisplay	2	116	56	foodImage.15	FOODEEG_Images\0189.jpg	YN	Left	Yes	4.18988200020976	0	396946	252
777.34765625	4.18988200020976	decision	choicePhaseStart	2	116	56	foodImage.15	FOODEEG_Images\0189.jpg	YN	Left	Yes	4.18988200020976	0	398003	253
781.52734375	0	decision	response	2	116	56	foodImage.15	FOODEEG_Images\0189.jpg	YN	Left	Yes	4.18988200020976	0	400143	234
782.572265625	1	decision	trialStart	2	117	57	foodImage.8	FOODEEG_Images\0136.jpg	YN	Left	Yes	18.1499379999004	1	400678	251
783.61328125	2	decision	foodImageDisplay	2	117	57	foodImage.8	FOODEEG_Images\0136.jpg	YN	Left	Yes	18.1499379999004	1	401211	252
785.67578125	18.1499379999004	decision	choicePhaseStart	2	117	57	foodImage.8	FOODEEG_Images\0136.jpg	YN	Left	Yes	18.1499379999004	1	402267	253
803.814453125	0	decision	response	2	117	57	foodImage.8	FOODEEG_Images\0136.jpg	YN	Left	Yes	18.1499379999004	1	411554	234
804.857421875	1	decision	trialStart	2	118	58	foodImage.81	FOODEEG_Images\0797.jpg	NY	Right	Yes	1.64536969992332	0	412088	251
805.916015625	2	decision	foodImageDisplay	2	118	58	foodImage.81	FOODEEG_Images\0797.jpg	NY	Right	Yes	1.64536969992332	0	412630	252
807.978515625	1.64536969992332	decision	choicePhaseStart	2	118	58	foodImage.81	FOODEEG_Images\0797.jpg	NY	Right	Yes	1.64536969992332	0	413686	253
809.615234375	0	decision	response	2	118	58	foodImage.81	FOODEEG_Images\0797.jpg	NY	Right	Yes	1.64536969992332	0	414524	235
810.658203125	1	taste	trialStart	2	119	59	foodImage.9	FOODEEG_Images\0138.jpg	YN	Left	Yes	1.83507849997841	0	415058	251
811.716796875	2	taste	foodImageDisplay	2	119	59	foodImage.9	FOODEEG_Images\0138.jpg	YN	Left	Yes	1.83507849997841	0	415600	252
813.78125	1.83507849997841	taste	choicePhaseStart	2	119	59	foodImage.9	FOODEEG_Images\0138.jpg	YN	Left	Yes	1.83507849997841	0	416657	253
815.607421875	0	taste	response	2	119	59	foodImage.9	FOODEEG_Images\0138.jpg	YN	Left	Yes	1.83507849997841	0	417592	234
816.6484375	1	taste	trialStart	2	120	60	foodImage.81	FOODEEG_Images\0797.jpg	YN	Left	Yes	1.30270050000399	0	418125	251
817.705078125	2	taste	foodImageDisplay	2	120	60	foodImage.81	FOODEEG_Images\0797.jpg	YN	Left	Yes	1.30270050000399	0	418666	252
819.76953125	1.30270050000399	taste	choicePhaseStart	2	120	60	foodImage.81	FOODEEG_Images\0797.jpg	YN	Left	Yes	1.30270050000399	0	419723	253
821.0625	0	taste	response	2	120	60	foodImage.81	FOODEEG_Images\0797.jpg	YN	Left	Yes	1.30270050000399	0	420385	234
823.103515625	31.263671875	n/a	blockEnd	n/a	n/a	n/a	n/a	n/a	n/a	n/a	n/a	n/a	n/a	421430	254
854.3671875	2	n/a	blockStart	3	n/a	n/a	n/a	n/a	n/a	n/a	n/a	n/a	n/a	437437	250
856.400390625	1	decision	trialStart	3	121	1	foodImage.114	FOODEEG_Images\0922.jpg	YN	Right	No	2.01449550013058	0	438478	251
857.44140625	2	decision	foodImageDisplay	3	121	1	foodImage.114	FOODEEG_Images\0922.jpg	YN	Right	No	2.01449550013058	0	439011	252
859.50390625	2.01449550013058	decision	choicePhaseStart	3	121	1	foodImage.114	FOODEEG_Images\0922.jpg	YN	Right	No	2.01449550013058	0	440067	253
861.509765625	0	decision	response	3	121	1	foodImage.114	FOODEEG_Images\0922.jpg	YN	Right	No	2.01449550013058	0	441094	235
862.55078125	1	health	trialStart	3	122	2	foodImage.79	FOODEEG_Images\0794.jpg	NY	Right	Yes	1.20577900018543	0	441627	251
863.59375	2	health	foodImageDisplay	3	122	2	foodImage.79	FOODEEG_Images\0794.jpg	NY	Right	Yes	1.20577900018543	0	442161	252
865.65625	1.20577900018543	health	choicePhaseStart	3	122	2	foodImage.79	FOODEEG_Images\0794.jpg	NY	Right	Yes	1.20577900018543	0	443217	253
866.8515625	0	health	response	3	122	2	foodImage.79	FOODEEG_Images\0794.jpg	NY	Right	Yes	1.20577900018543	0	443829	235
867.89453125	1	taste	trialStart	3	123	3	foodImage.78	FOODEEG_Images\0787.jpg	YN	Right	No	2.16326669999398	0	444363	251
868.939453125	2	taste	foodImageDisplay	3	123	3	foodImage.78	FOODEEG_Images\0787.jpg	YN	Right	No	2.16326669999398	0	444898	252
871.0078125	2.16326669999398	taste	choicePhaseStart	3	123	3	foodImage.78	FOODEEG_Images\0787.jpg	YN	Right	No	2.16326669999398	0	445957	253
873.1640625	0	taste	response	3	123	3	foodImage.78	FOODEEG_Images\0787.jpg	YN	Right	No	2.16326669999398	0	447061	235
874.20703125	1	health	trialStart	3	124	4	foodImage.39	FOODEEG_Images\0367.jpg	NY	Left	No	1.40544740017503	0	447595	251
875.24609375	2	health	foodImageDisplay	3	124	4	foodImage.39	FOODEEG_Images\0367.jpg	NY	Left	No	1.40544740017503	0	448127	252
877.310546875	1.40544740017503	health	choicePhaseStart	3	124	4	foodImage.39	FOODEEG_Images\0367.jpg	NY	Left	No	1.40544740017503	0	449184	253
878.708984375	0	health	response	3	124	4	foodImage.39	FOODEEG_Images\0367.jpg	NY	Left	No	1.40544740017503	0	449900	234
879.75	1	health	trialStart	3	125	5	foodImage.18	FOODEEG_Images\0202.jpg	YN	Left	Yes	3.02318430016749	0	450433	251
880.8046875	2	health	foodImageDisplay	3	125	5	foodImage.18	FOODEEG_Images\0202.jpg	YN	Left	Yes	3.02318430016749	0	450973	252
882.869140625	3.02318430016749	health	choicePhaseStart	3	125	5	foodImage.18	FOODEEG_Images\0202.jpg	YN	Left	Yes	3.02318430016749	0	452030	253
885.884765625	0	health	response	3	125	5	foodImage.18	FOODEEG_Images\0202.jpg	YN	Left	Yes	3.02318430016749	0	453574	234
886.927734375	1	taste	trialStart	3	126	6	foodImage.39	FOODEEG_Images\0367.jpg	NY	Right	Yes	1.56297640013508	0	454108	251
887.96484375	2	taste	foodImageDisplay	3	126	6	foodImage.39	FOODEEG_Images\0367.jpg	NY	Right	Yes	1.56297640013508	0	454639	252
890.033203125	1.56297640013508	taste	choicePhaseStart	3	126	6	foodImage.39	FOODEEG_Images\0367.jpg	NY	Right	Yes	1.56297640013508	0	455698	253
891.58984375	0	taste	response	3	126	6	foodImage.39	FOODEEG_Images\0367.jpg	NY	Right	Yes	1.56297640013508	0	456495	235
892.638671875	1	taste	trialStart	3	127	7	foodImage.66	FOODEEG_Images\0676.jpg	YN	Right	No	1.76500759995542	0	457032	251
893.6796875	2	taste	foodImageDisplay	3	127	7	foodImage.66	FOODEEG_Images\0676.jpg	YN	Right	No	1.76500759995542	0	457565	252
895.744140625	1.76500759995542	taste	choicePhaseStart	3	127	7	foodImage.66	FOODEEG_Images\0676.jpg	YN	Right	No	1.76500759995542	0	458622	253
897.5	0	taste	response	3	127	7	foodImage.66	FOODEEG_Images\0676.jpg	YN	Right	No	1.76500759995542	0	459521	235
898.54296875	1	taste	trialStart	3	128	8	foodImage.83	FOODEEG_Images\0827.jpg	NY	Left	No	1.26688999985345	0	460055	251
899.599609375	2	taste	foodImageDisplay	3	128	8	foodImage.83	FOODEEG_Images\0827.jpg	NY	Left	No	1.26688999985345	0	460596	252
901.6640625	1.26688999985345	taste	choicePhaseStart	3	128	8	foodImage.83	FOODEEG_Images\0827.jpg	NY	Left	No	1.26688999985345	0	461653	253
902.923828125	0	taste	response	3	128	8	foodImage.83	FOODEEG_Images\0827.jpg	NY	Left	No	1.26688999985345	0	462298	234
903.96484375	1	health	trialStart	3	129	9	foodImage.42	FOODEEG_Images\0438.jpg	NY	Right	Yes	3.12523279991001	0	462831	251
905.056640625	2	health	foodImageDisplay	3	129	9	foodImage.42	FOODEEG_Images\0438.jpg	NY	Right	Yes	3.12523279991001	0	463390	252
907.119140625	3.12523279991001	health	choicePhaseStart	3	129	9	foodImage.42	FOODEEG_Images\0438.jpg	NY	Right	Yes	3.12523279991001	0	464446	253
910.234375	0	health	response	3	129	9	foodImage.42	FOODEEG_Images\0438.jpg	NY	Right	Yes	3.12523279991001	0	466041	235
911.27734375	1	taste	trialStart	3	130	10	foodImage.115	FOODEEG_Images\0923.jpg	YN	Right	No	1.22301590000279	0	466575	251
912.31640625	2	taste	foodImageDisplay	3	130	10	foodImage.115	FOODEEG_Images\0923.jpg	YN	Right	No	1.22301590000279	0	467107	252
914.380859375	1.22301590000279	taste	choicePhaseStart	3	130	10	foodImage.115	FOODEEG_Images\0923.jpg	YN	Right	No	1.22301590000279	0	468164	253
915.595703125	0	taste	response	3	130	10	foodImage.115	FOODEEG_Images\0923.jpg	YN	Right	No	1.22301590000279	0	468786	235
916.638671875	1	decision	trialStart	3	131	11	foodImage.42	FOODEEG_Images\0438.jpg	NY	Right	Yes	2.39709879993461	0	469320	251
917.7265625	2	decision	foodImageDisplay	3	131	11	foodImage.42	FOODEEG_Images\0438.jpg	NY	Right	Yes	2.39709879993461	0	469877	252
919.791015625	2.39709879993461	decision	choicePhaseStart	3	131	11	foodImage.42	FOODEEG_Images\0438.jpg	NY	Right	Yes	2.39709879993461	0	470934	253
922.177734375	0	decision	response	3	131	11	foodImage.42	FOODEEG_Images\0438.jpg	NY	Right	Yes	2.39709879993461	0	472156	235
923.22265625	1	taste	trialStart	3	132	12	foodImage.47	FOODEEG_Images\0488.jpg	YN	Left	Yes	2.16266950010322	0	472691	251
924.265625	2	taste	foodImageDisplay	3	132	12	foodImage.47	FOODEEG_Images\0488.jpg	YN	Left	Yes	2.16266950010322	0	473225	252
926.328125	2.16266950010322	taste	choicePhaseStart	3	132	12	foodImage.47	FOODEEG_Images\0488.jpg	YN	Left	Yes	2.16266950010322	0	474281	253
928.482421875	0	taste	response	3	132	12	foodImage.47	FOODEEG_Images\0488.jpg	YN	Left	Yes	2.16266950010322	0	475384	234
929.525390625	1	taste	trialStart	3	133	13	foodImage.67	FOODEEG_Images\0679.jpg	YN	Left	Yes	2.01372020016424	0	475918	251
930.58203125	2	taste	foodImageDisplay	3	133	13	foodImage.67	FOODEEG_Images\0679.jpg	YN	Left	Yes	2.01372020016424	0	476459	252
932.64453125	2.01372020016424	taste	choicePhaseStart	3	133	13	foodImage.67	FOODEEG_Images\0679.jpg	YN	Left	Yes	2.01372020016424	0	477515	253
934.650390625	0	taste	response	3	133	13	foodImage.67	FOODEEG_Images\0679.jpg	YN	Left	Yes	2.01372020016424	0	478542	234
935.693359375	1	health	trialStart	3	134	14	foodImage.60	FOODEEG_Images\0614.jpg	NY	Right	Yes	3.61118390015326	0	479076	251
936.751953125	2	health	foodImageDisplay	3	134	14	foodImage.60	FOODEEG_Images\0614.jpg	NY	Right	Yes	3.61118390015326	0	479618	252
938.81640625	3.61118390015326	health	choicePhaseStart	3	134	14	foodImage.60	FOODEEG_Images\0614.jpg	NY	Right	Yes	3.61118390015326	0	480675	253
942.41796875	0	health	response	3	134	14	foodImage.60	FOODEEG_Images\0614.jpg	NY	Right	Yes	3.61118390015326	0	482519	235
943.466796875	1	decision	trialStart	3	135	15	foodImage.72	FOODEEG_Images\0714.jpg	NY	Right	Yes	1.45994449988939	0	483056	251
944.509765625	2	decision	foodImageDisplay	3	135	15	foodImage.72	FOODEEG_Images\0714.jpg	NY	Right	Yes	1.45994449988939	0	483590	252
946.57421875	1.45994449988939	decision	choicePhaseStart	3	135	15	foodImage.72	FOODEEG_Images\0714.jpg	NY	Right	Yes	1.45994449988939	0	484647	253
948.025390625	0	decision	response	3	135	15	foodImage.72	FOODEEG_Images\0714.jpg	NY	Right	Yes	1.45994449988939	0	485390	235
949.068359375	1	health	trialStart	3	136	16	foodImage.47	FOODEEG_Images\0488.jpg	NY	Right	Yes	1.23033430008218	0	485924	251
950.109375	2	health	foodImageDisplay	3	136	16	foodImage.47	FOODEEG_Images\0488.jpg	NY	Right	Yes	1.23033430008218	0	486457	252
952.171875	1.23033430008218	health	choicePhaseStart	3	136	16	foodImage.47	FOODEEG_Images\0488.jpg	NY	Right	Yes	1.23033430008218	0	487513	253
953.392578125	0	health	response	3	136	16	foodImage.47	FOODEEG_Images\0488.jpg	NY	Right	Yes	1.23033430008218	0	488138	235
954.4375	1	health	trialStart	3	137	17	foodImage.46	FOODEEG_Images\0479.jpg	NY	Right	Yes	1.16259850002825	0	488673	251
955.498046875	2	health	foodImageDisplay	3	137	17	foodImage.46	FOODEEG_Images\0479.jpg	NY	Right	Yes	1.16259850002825	0	489216	252
957.560546875	1.16259850002825	health	choicePhaseStart	3	137	17	foodImage.46	FOODEEG_Images\0479.jpg	NY	Right	Yes	1.16259850002825	0	490272	253
958.712890625	0	health	response	3	137	17	foodImage.46	FOODEEG_Images\0479.jpg	NY	Right	Yes	1.16259850002825	0	490862	235
959.759765625	1	taste	trialStart	3	138	18	foodImage.120	FOODEEG_Images\0928.jpg	NY	Left	No	1.69935909984633	0	491398	251
960.798828125	2	taste	foodImageDisplay	3	138	18	foodImage.120	FOODEEG_Images\0928.jpg	NY	Left	No	1.69935909984633	0	491930	252
962.86328125	1.69935909984633	taste	choicePhaseStart	3	138	18	foodImage.120	FOODEEG_Images\0928.jpg	NY	Left	No	1.69935909984633	0	492987	253
964.552734375	0	taste	response	3	138	18	foodImage.120	FOODEEG_Images\0928.jpg	NY	Left	No	1.69935909984633	0	493852	234
965.595703125	1	taste	trialStart	3	139	19	foodImage.15	FOODEEG_Images\0189.jpg	YN	Left	Yes	2.96446920000017	0	494386	251
966.654296875	2	taste	foodImageDisplay	3	139	19	foodImage.15	FOODEEG_Images\0189.jpg	YN	Left	Yes	2.96446920000017	0	494928	252
968.716796875	2.96446920000017	taste	choicePhaseStart	3	139	19	foodImage.15	FOODEEG_Images\0189.jpg	YN	Left	Yes	2.96446920000017	0	495984	253
971.671875	0	taste	response	3	139	19	foodImage.15	FOODEEG_Images\0189.jpg	YN	Left	Yes	2.96446920000017	0	497497	234
972.716796875	1	health	trialStart	3	140	20	foodImage.119	FOODEEG_Images\0927.jpg	NY	Right	Yes	2.83331450005062	0	498032	251
973.7578125	2	health	foodImageDisplay	3	140	20	foodImage.119	FOODEEG_Images\0927.jpg	NY	Right	Yes	2.83331450005062	0	498565	252
975.82421875	2.83331450005062	health	choicePhaseStart	3	140	20	foodImage.119	FOODEEG_Images\0927.jpg	NY	Right	Yes	2.83331450005062	0	499623	253
978.6484375	0	health	response	3	140	20	foodImage.119	FOODEEG_Images\0927.jpg	NY	Right	Yes	2.83331450005062	0	501069	235
979.69140625	1	health	trialStart	3	141	21	foodImage.35	FOODEEG_Images\0350.jpg	NY	Right	Yes	1.70305739995092	0	501603	251
980.73046875	2	health	foodImageDisplay	3	141	21	foodImage.35	FOODEEG_Images\0350.jpg	NY	Right	Yes	1.70305739995092	0	502135	252
982.794921875	1.70305739995092	health	choicePhaseStart	3	141	21	foodImage.35	FOODEEG_Images\0350.jpg	NY	Right	Yes	1.70305739995092	0	503192	253
984.48828125	0	health	response	3	141	21	foodImage.35	FOODEEG_Images\0350.jpg	NY	Right	Yes	1.70305739995092	0	504059	235
985.53125	1	health	trialStart	3	142	22	foodImage.30	FOODEEG_Images\0282.jpg	NY	Right	Yes	1.00481420010328	0	504593	251
986.572265625	2	health	foodImageDisplay	3	142	22	foodImage.30	FOODEEG_Images\0282.jpg	NY	Right	Yes	1.00481420010328	0	505126	252
988.63671875	1.00481420010328	health	choicePhaseStart	3	142	22	foodImage.30	FOODEEG_Images\0282.jpg	NY	Right	Yes	1.00481420010328	0	506183	253
989.6328125	0	health	response	3	142	22	foodImage.30	FOODEEG_Images\0282.jpg	NY	Right	Yes	1.00481420010328	0	506693	235
990.67578125	1	health	trialStart	3	143	23	foodImage.99	FOODEEG_Images\0907.jpg	YN	Left	Yes	1.26512290001847	0	507227	251
991.71875	2	health	foodImageDisplay	3	143	23	foodImage.99	FOODEEG_Images\0907.jpg	YN	Left	Yes	1.26512290001847	0	507761	252
993.78125	1.26512290001847	health	choicePhaseStart	3	143	23	foodImage.99	FOODEEG_Images\0907.jpg	YN	Left	Yes	1.26512290001847	0	508817	253
995.0390625	0	health	response	3	143	23	foodImage.99	FOODEEG_Images\0907.jpg	YN	Left	Yes	1.26512290001847	0	509461	234
996.08203125	1	decision	trialStart	3	144	24	foodImage.48	FOODEEG_Images\0494.jpg	NY	Left	No	1.6047451000195	0	509995	251
997.125	2	decision	foodImageDisplay	3	144	24	foodImage.48	FOODEEG_Images\0494.jpg	NY	Left	No	1.6047451000195	0	510529	252
999.1875	1.6047451000195	decision	choicePhaseStart	3	144	24	foodImage.48	FOODEEG_Images\0494.jpg	NY	Left	No	1.6047451000195	0	511585	253
1000.783203125	0	decision	response	3	144	24	foodImage.48	FOODEEG_Images\0494.jpg	NY	Left	No	1.6047451000195	0	512402	234
1001.828125	1	health	trialStart	3	145	25	foodImage.23	FOODEEG_Images\0244.jpg	NY	Left	No	1.28017219994217	0	512937	251
1002.869140625	2	health	foodImageDisplay	3	145	25	foodImage.23	FOODEEG_Images\0244.jpg	NY	Left	No	1.28017219994217	0	513470	252
1004.9375	1.28017219994217	health	choicePhaseStart	3	145	25	foodImage.23	FOODEEG_Images\0244.jpg	NY	Left	No	1.28017219994217	0	514529	253
1006.20703125	0	health	response	3	145	25	foodImage.23	FOODEEG_Images\0244.jpg	NY	Left	No	1.28017219994217	0	515179	234
1007.248046875	1	health	trialStart	3	146	26	foodImage.97	FOODEEG_Images\0905.jpg	YN	Left	Yes	1.47876380011439	0	515712	251
1008.28515625	2	health	foodImageDisplay	3	146	26	foodImage.97	FOODEEG_Images\0905.jpg	YN	Left	Yes	1.47876380011439	0	516243	252
1010.353515625	1.47876380011439	health	choicePhaseStart	3	146	26	foodImage.97	FOODEEG_Images\0905.jpg	YN	Left	Yes	1.47876380011439	0	517302	253
1011.822265625	0	health	response	3	146	26	foodImage.97	FOODEEG_Images\0905.jpg	YN	Left	Yes	1.47876380011439	0	518054	234
1012.8671875	1	taste	trialStart	3	147	27	foodImage.56	FOODEEG_Images\0586.jpg	NY	Left	No	7.10897569986992	1	518589	251
1013.908203125	2	taste	foodImageDisplay	3	147	27	foodImage.56	FOODEEG_Images\0586.jpg	NY	Left	No	7.10897569986992	1	519122	252
1015.970703125	7.10897569986992	taste	choicePhaseStart	3	147	27	foodImage.56	FOODEEG_Images\0586.jpg	NY	Left	No	7.10897569986992	1	520178	253
1023.0703125	0	taste	response	3	147	27	foodImage.56	FOODEEG_Images\0586.jpg	NY	Left	No	7.10897569986992	1	523813	234
1024.11328125	1	decision	trialStart	3	148	28	foodImage.87	FOODEEG_Images\0873.jpg	YN	Left	Yes	1.92731840000488	0	524347	251
1025.173828125	2	decision	foodImageDisplay	3	148	28	foodImage.87	FOODEEG_Images\0873.jpg	YN	Left	Yes	1.92731840000488	0	524890	252
1027.23828125	1.92731840000488	decision	choicePhaseStart	3	148	28	foodImage.87	FOODEEG_Images\0873.jpg	YN	Left	Yes	1.92731840000488	0	525947	253
1029.158203125	0	decision	response	3	148	28	foodImage.87	FOODEEG_Images\0873.jpg	YN	Left	Yes	1.92731840000488	0	526930	234
1030.20703125	1	health	trialStart	3	149	29	foodImage.40	FOODEEG_Images\0373.jpg	YN	Right	No	0.960365100065246	0	527467	251
1031.248046875	2	health	foodImageDisplay	3	149	29	foodImage.40	FOODEEG_Images\0373.jpg	YN	Right	No	0.960365100065246	0	528000	252
1033.310546875	0.960365100065246	health	choicePhaseStart	3	149	29	foodImage.40	FOODEEG_Images\0373.jpg	YN	Right	No	0.960365100065246	0	529056	253
1034.26171875	0	health	response	3	149	29	foodImage.40	FOODEEG_Images\0373.jpg	YN	Right	No	0.960365100065246	0	529543	235
1035.306640625	1	decision	trialStart	3	150	30	foodImage.39	FOODEEG_Images\0367.jpg	NY	Left	No	1.3191131001804	0	530078	251
1036.345703125	2	decision	foodImageDisplay	3	150	30	foodImage.39	FOODEEG_Images\0367.jpg	NY	Left	No	1.3191131001804	0	530610	252
1038.4140625	1.3191131001804	decision	choicePhaseStart	3	150	30	foodImage.39	FOODEEG_Images\0367.jpg	NY	Left	No	1.3191131001804	0	531669	253
1039.7265625	0	decision	response	3	150	30	foodImage.39	FOODEEG_Images\0367.jpg	NY	Left	No	1.3191131001804	0	532341	234
1040.76953125	1	decision	trialStart	3	151	31	foodImage.118	FOODEEG_Images\0926.jpg	YN	Right	No	1.23554310016334	0	532875	251
1041.80859375	2	decision	foodImageDisplay	3	151	31	foodImage.118	FOODEEG_Images\0926.jpg	YN	Right	No	1.23554310016334	0	533407	252
1043.873046875	1.23554310016334	decision	choicePhaseStart	3	151	31	foodImage.118	FOODEEG_Images\0926.jpg	YN	Right	No	1.23554310016334	0	534464	253
1045.1015625	0	decision	response	3	151	31	foodImage.118	FOODEEG_Images\0926.jpg	YN	Right	No	1.23554310016334	0	535093	235
1046.142578125	1	taste	trialStart	3	152	32	foodImage.23	FOODEEG_Images\0244.jpg	YN	Right	No	0.863632999826223	0	535626	251
1047.18359375	2	taste	foodImageDisplay	3	152	32	foodImage.23	FOODEEG_Images\0244.jpg	YN	Right	No	0.863632999826223	0	536159	252
1049.24609375	0.863632999826223	taste	choicePhaseStart	3	152	32	foodImage.23	FOODEEG_Images\0244.jpg	YN	Right	No	0.863632999826223	0	537215	253
1050.1015625	0	taste	response	3	152	32	foodImage.23	FOODEEG_Images\0244.jpg	YN	Right	No	0.863632999826223	0	537653	235
1051.14453125	1	health	trialStart	3	153	33	foodImage.68	FOODEEG_Images\0685.jpg	YN	Right	No	1.02562549989671	0	538187	251
1052.2265625	2	health	foodImageDisplay	3	153	33	foodImage.68	FOODEEG_Images\0685.jpg	YN	Right	No	1.02562549989671	0	538741	252
1054.294921875	1.02562549989671	health	choicePhaseStart	3	153	33	foodImage.68	FOODEEG_Images\0685.jpg	YN	Right	No	1.02562549989671	0	539800	253
1055.310546875	0	health	response	3	153	33	foodImage.68	FOODEEG_Images\0685.jpg	YN	Right	No	1.02562549989671	0	540320	235
1056.353515625	1	health	trialStart	3	154	34	foodImage.4	FOODEEG_Images\0065.jpg	NY	Left	No	1.32653830014169	0	540854	251
1057.412109375	2	health	foodImageDisplay	3	154	34	foodImage.4	FOODEEG_Images\0065.jpg	NY	Left	No	1.32653830014169	0	541396	252
1059.4765625	1.32653830014169	health	choicePhaseStart	3	154	34	foodImage.4	FOODEEG_Images\0065.jpg	NY	Left	No	1.32653830014169	0	542453	253
1060.796875	0	health	response	3	154	34	foodImage.4	FOODEEG_Images\0065.jpg	NY	Left	No	1.32653830014169	0	543129	234
1061.83984375	1	health	trialStart	3	155	35	foodImage.43	FOODEEG_Images\0445.jpg	NY	Right	Yes	1.667319299886	0	543663	251
1062.8984375	2	health	foodImageDisplay	3	155	35	foodImage.43	FOODEEG_Images\0445.jpg	NY	Right	Yes	1.667319299886	0	544205	252
1064.962890625	1.667319299886	health	choicePhaseStart	3	155	35	foodImage.43	FOODEEG_Images\0445.jpg	NY	Right	Yes	1.667319299886	0	545262	253
1066.62109375	0	health	response	3	155	35	foodImage.43	FOODEEG_Images\0445.jpg	NY	Right	Yes	1.667319299886	0	546111	235
1067.666015625	1	health	trialStart	3	156	36	foodImage.115	FOODEEG_Images\0923.jpg	YN	Right	No	3.79062870005146	0	546646	251
1068.7109375	2	health	foodImageDisplay	3	156	36	foodImage.115	FOODEEG_Images\0923.jpg	YN	Right	No	3.79062870005146	0	547181	252
1070.775390625	3.79062870005146	health	choicePhaseStart	3	156	36	foodImage.115	FOODEEG_Images\0923.jpg	YN	Right	No	3.79062870005146	0	548238	253
1074.556640625	0	health	response	3	156	36	foodImage.115	FOODEEG_Images\0923.jpg	YN	Right	No	3.79062870005146	0	550174	235
1075.599609375	1	decision	trialStart	3	157	37	foodImage.120	FOODEEG_Images\0928.jpg	YN	Right	No	1.12161010014825	0	550708	251
1076.638671875	2	decision	foodImageDisplay	3	157	37	foodImage.120	FOODEEG_Images\0928.jpg	YN	Right	No	1.12161010014825	0	551240	252
1078.701171875	1.12161010014825	decision	choicePhaseStart	3	157	37	foodImage.120	FOODEEG_Images\0928.jpg	YN	Right	No	1.12161010014825	0	552296	253
1079.8125	0	decision	response	3	157	37	foodImage.120	FOODEEG_Images\0928.jpg	YN	Right	No	1.12161010014825	0	552865	235
1080.85546875	1	decision	trialStart	3	158	38	foodImage.108	FOODEEG_Images\0916.jpg	YN	Right	No	2.64229550003074	0	553399	251
1081.89453125	2	decision	foodImageDisplay	3	158	38	foodImage.108	FOODEEG_Images\0916.jpg	YN	Right	No	2.64229550003074	0	553931	252
1083.955078125	2.64229550003074	decision	choicePhaseStart	3	158	38	foodImage.108	FOODEEG_Images\0916.jpg	YN	Right	No	2.64229550003074	0	554986	253
1086.587890625	0	decision	response	3	158	38	foodImage.108	FOODEEG_Images\0916.jpg	YN	Right	No	2.64229550003074	0	556334	235
1087.630859375	1	taste	trialStart	3	159	39	foodImage.22	FOODEEG_Images\0236.jpg	YN	Right	No	3.64291669987142	0	556868	251
1088.671875	2	taste	foodImageDisplay	3	159	39	foodImage.22	FOODEEG_Images\0236.jpg	YN	Right	No	3.64291669987142	0	557401	252
1090.73828125	3.64291669987142	taste	choicePhaseStart	3	159	39	foodImage.22	FOODEEG_Images\0236.jpg	YN	Right	No	3.64291669987142	0	558459	253
1094.37109375	0	taste	response	3	159	39	foodImage.22	FOODEEG_Images\0236.jpg	YN	Right	No	3.64291669987142	0	560319	235
1095.416015625	1	health	trialStart	3	160	40	foodImage.51	FOODEEG_Images\0536.jpg	YN	Left	Yes	2.96808309992775	0	560854	251
1096.4609375	2	health	foodImageDisplay	3	160	40	foodImage.51	FOODEEG_Images\0536.jpg	YN	Left	Yes	2.96808309992775	0	561389	252
1098.525390625	2.96808309992775	health	choicePhaseStart	3	160	40	foodImage.51	FOODEEG_Images\0536.jpg	YN	Left	Yes	2.96808309992775	0	562446	253
1101.484375	0	health	response	3	160	40	foodImage.51	FOODEEG_Images\0536.jpg	YN	Left	Yes	2.96808309992775	0	563961	234
1102.52734375	1	taste	trialStart	3	161	41	foodImage.65	FOODEEG_Images\0658.jpg	YN	Right	No	4.17308209999464	0	564495	251
1103.583984375	2	taste	foodImageDisplay	3	161	41	foodImage.65	FOODEEG_Images\0658.jpg	YN	Right	No	4.17308209999464	0	565036	252
1105.6484375	4.17308209999464	taste	choicePhaseStart	3	161	41	foodImage.65	FOODEEG_Images\0658.jpg	YN	Right	No	4.17308209999464	0	566093	253
1109.8125	0	taste	response	3	161	41	foodImage.65	FOODEEG_Images\0658.jpg	YN	Right	No	4.17308209999464	0	568225	235
1110.85546875	1	decision	trialStart	3	162	42	foodImage.19	FOODEEG_Images\0225.jpg	YN	Right	No	2.03924650000408	0	568759	251
1111.8984375	2	decision	foodImageDisplay	3	162	42	foodImage.19	FOODEEG_Images\0225.jpg	YN	Right	No	2.03924650000408	0	569293	252
1113.96484375	2.03924650000408	decision	choicePhaseStart	3	162	42	foodImage.19	FOODEEG_Images\0225.jpg	YN	Right	No	2.03924650000408	0	570351	253
1115.99609375	0	decision	response	3	162	42	foodImage.19	FOODEEG_Images\0225.jpg	YN	Right	No	2.03924650000408	0	571391	235
1117.037109375	1	health	trialStart	3	163	43	foodImage.7	FOODEEG_Images\0116.jpg	YN	Right	No	1.52793559990823	0	571924	251
1118.08203125	2	health	foodImageDisplay	3	163	43	foodImage.7	FOODEEG_Images\0116.jpg	YN	Right	No	1.52793559990823	0	572459	252
1120.1484375	1.52793559990823	health	choicePhaseStart	3	163	43	foodImage.7	FOODEEG_Images\0116.jpg	YN	Right	No	1.52793559990823	0	573517	253
1121.666015625	0	health	response	3	163	43	foodImage.7	FOODEEG_Images\0116.jpg	YN	Right	No	1.52793559990823	0	574294	235
1122.712890625	1	decision	trialStart	3	164	44	foodImage.50	FOODEEG_Images\0529.jpg	YN	Right	No	1.47776129981503	0	574830	251
1123.767578125	2	decision	foodImageDisplay	3	164	44	foodImage.50	FOODEEG_Images\0529.jpg	YN	Right	No	1.47776129981503	0	575370	252
1125.830078125	1.47776129981503	decision	choicePhaseStart	3	164	44	foodImage.50	FOODEEG_Images\0529.jpg	YN	Right	No	1.47776129981503	0	576426	253
1127.298828125	0	decision	response	3	164	44	foodImage.50	FOODEEG_Images\0529.jpg	YN	Right	No	1.47776129981503	0	577178	235
1128.34375	1	decision	trialStart	3	165	45	foodImage.65	FOODEEG_Images\0658.jpg	YN	Right	No	1.07941699982621	0	577713	251
1129.38671875	2	decision	foodImageDisplay	3	165	45	foodImage.65	FOODEEG_Images\0658.jpg	YN	Right	No	1.07941699982621	0	578247	252
1131.453125	1.07941699982621	decision	choicePhaseStart	3	165	45	foodImage.65	FOODEEG_Images\0658.jpg	YN	Right	No	1.07941699982621	0	579305	253
1132.521484375	0	decision	response	3	165	45	foodImage.65	FOODEEG_Images\0658.jpg	YN	Right	No	1.07941699982621	0	579852	235
1133.56640625	1	taste	trialStart	3	166	46	foodImage.49	FOODEEG_Images\0515.jpg	NY	Right	Yes	2.45730989985168	0	580387	251
1134.609375	2	taste	foodImageDisplay	3	166	46	foodImage.49	FOODEEG_Images\0515.jpg	NY	Right	Yes	2.45730989985168	0	580921	252
1136.673828125	2.45730989985168	taste	choicePhaseStart	3	166	46	foodImage.49	FOODEEG_Images\0515.jpg	NY	Right	Yes	2.45730989985168	0	581978	253
1139.12109375	0	taste	response	3	166	46	foodImage.49	FOODEEG_Images\0515.jpg	NY	Right	Yes	2.45730989985168	0	583231	235
1140.166015625	1	decision	trialStart	3	167	47	foodImage.67	FOODEEG_Images\0679.jpg	NY	Left	No	0.876971099991351	0	583766	251
1141.224609375	2	decision	foodImageDisplay	3	167	47	foodImage.67	FOODEEG_Images\0679.jpg	NY	Left	No	0.876971099991351	0	584308	252
1143.287109375	0.876971099991351	decision	choicePhaseStart	3	167	47	foodImage.67	FOODEEG_Images\0679.jpg	NY	Left	No	0.876971099991351	0	585364	253
1144.154296875	0	decision	response	3	167	47	foodImage.67	FOODEEG_Images\0679.jpg	NY	Left	No	0.876971099991351	0	585808	234
1145.19921875	1	health	trialStart	3	168	48	foodImage.61	FOODEEG_Images\0640.jpg	YN	Left	Yes	1.88358810008503	0	586343	251
1146.240234375	2	health	foodImageDisplay	3	168	48	foodImage.61	FOODEEG_Images\0640.jpg	YN	Left	Yes	1.88358810008503	0	586876	252
1148.3046875	1.88358810008503	health	choicePhaseStart	3	168	48	foodImage.61	FOODEEG_Images\0640.jpg	YN	Left	Yes	1.88358810008503	0	587933	253
1150.177734375	0	health	response	3	168	48	foodImage.61	FOODEEG_Images\0640.jpg	YN	Left	Yes	1.88358810008503	0	588892	234
1151.220703125	1	decision	trialStart	3	169	49	foodImage.25	FOODEEG_Images\0261.jpg	NY	Left	No	2.52549829985946	0	589426	251
1152.26171875	2	decision	foodImageDisplay	3	169	49	foodImage.25	FOODEEG_Images\0261.jpg	NY	Left	No	2.52549829985946	0	589959	252
1154.32421875	2.52549829985946	decision	choicePhaseStart	3	169	49	foodImage.25	FOODEEG_Images\0261.jpg	NY	Left	No	2.52549829985946	0	591015	253
1156.841796875	0	decision	response	3	169	49	foodImage.25	FOODEEG_Images\0261.jpg	NY	Left	No	2.52549829985946	0	592304	234
1157.884765625	1	health	trialStart	3	170	50	foodImage.96	FOODEEG_Images\0904.jpg	YN	Right	No	1.9930149000138	0	592838	251
1158.923828125	2	health	foodImageDisplay	3	170	50	foodImage.96	FOODEEG_Images\0904.jpg	YN	Right	No	1.9930149000138	0	593370	252
1160.984375	1.9930149000138	health	choicePhaseStart	3	170	50	foodImage.96	FOODEEG_Images\0904.jpg	YN	Right	No	1.9930149000138	0	594425	253
1162.96875	0	health	response	3	170	50	foodImage.96	FOODEEG_Images\0904.jpg	YN	Right	No	1.9930149000138	0	595441	235
1164.01171875	1	decision	trialStart	3	171	51	foodImage.95	FOODEEG_Images\0903.jpg	NY	Left	No	1.5922093000263	0	595975	251
1165.05078125	2	decision	foodImageDisplay	3	171	51	foodImage.95	FOODEEG_Images\0903.jpg	NY	Left	No	1.5922093000263	0	596507	252
1167.11328125	1.5922093000263	decision	choicePhaseStart	3	171	51	foodImage.95	FOODEEG_Images\0903.jpg	NY	Left	No	1.5922093000263	0	597563	253
1168.697265625	0	decision	response	3	171	51	foodImage.95	FOODEEG_Images\0903.jpg	NY	Left	No	1.5922093000263	0	598374	234
1169.73828125	1	taste	trialStart	3	172	52	foodImage.35	FOODEEG_Images\0350.jpg	NY	Right	Yes	1.12184619996697	0	598907	251
1170.77734375	2	taste	foodImageDisplay	3	172	52	foodImage.35	FOODEEG_Images\0350.jpg	NY	Right	Yes	1.12184619996697	0	599439	252
1172.845703125	1.12184619996697	taste	choicePhaseStart	3	172	52	foodImage.35	FOODEEG_Images\0350.jpg	NY	Right	Yes	1.12184619996697	0	600498	253
1173.9609375	0	taste	response	3	172	52	foodImage.35	FOODEEG_Images\0350.jpg	NY	Right	Yes	1.12184619996697	0	601069	235
1175.00390625	1	health	trialStart	3	173	53	foodImage.41	FOODEEG_Images\0409.jpg	NY	Right	Yes	4.18339459993877	0	601603	251
1176.05078125	2	health	foodImageDisplay	3	173	53	foodImage.41	FOODEEG_Images\0409.jpg	NY	Right	Yes	4.18339459993877	0	602139	252
1178.115234375	4.18339459993877	health	choicePhaseStart	3	173	53	foodImage.41	FOODEEG_Images\0409.jpg	NY	Right	Yes	4.18339459993877	0	603196	253
1182.2890625	0	health	response	3	173	53	foodImage.41	FOODEEG_Images\0409.jpg	NY	Right	Yes	4.18339459993877	0	605333	235
1183.330078125	1	taste	trialStart	3	174	54	foodImage.7	FOODEEG_Images\0116.jpg	NY	Right	Yes	2.4544814999681	0	605866	251
1184.373046875	2	taste	foodImageDisplay	3	174	54	foodImage.7	FOODEEG_Images\0116.jpg	NY	Right	Yes	2.4544814999681	0	606400	252
1186.435546875	2.4544814999681	taste	choicePhaseStart	3	174	54	foodImage.7	FOODEEG_Images\0116.jpg	NY	Right	Yes	2.4544814999681	0	607456	253
1188.880859375	0	taste	response	3	174	54	foodImage.7	FOODEEG_Images\0116.jpg	NY	Right	Yes	2.4544814999681	0	608708	235
1189.92578125	1	health	trialStart	3	175	55	foodImage.120	FOODEEG_Images\0928.jpg	YN	Right	No	2.66159150004387	0	609243	251
1190.96484375	2	health	foodImageDisplay	3	175	55	foodImage.120	FOODEEG_Images\0928.jpg	YN	Right	No	2.66159150004387	0	609775	252
1193.02734375	2.66159150004387	health	choicePhaseStart	3	175	55	foodImage.120	FOODEEG_Images\0928.jpg	YN	Right	No	2.66159150004387	0	610831	253
1195.6796875	0	health	response	3	175	55	foodImage.120	FOODEEG_Images\0928.jpg	YN	Right	No	2.66159150004387	0	612189	235
1196.72265625	1	decision	trialStart	3	176	56	foodImage.46	FOODEEG_Images\0479.jpg	NY	Left	No	1.65622399980202	0	612723	251
1197.779296875	2	decision	foodImageDisplay	3	176	56	foodImage.46	FOODEEG_Images\0479.jpg	NY	Left	No	1.65622399980202	0	613264	252
1199.841796875	1.65622399980202	decision	choicePhaseStart	3	176	56	foodImage.46	FOODEEG_Images\0479.jpg	NY	Left	No	1.65622399980202	0	614320	253
1201.48828125	0	decision	response	3	176	56	foodImage.46	FOODEEG_Images\0479.jpg	NY	Left	No	1.65622399980202	0	615163	234
1202.53125	1	decision	trialStart	3	177	57	foodImage.6	FOODEEG_Images\0113.jpg	NY	Left	No	1.90431410004385	0	615697	251
1203.57421875	2	decision	foodImageDisplay	3	177	57	foodImage.6	FOODEEG_Images\0113.jpg	NY	Left	No	1.90431410004385	0	616231	252
1205.640625	1.90431410004385	decision	choicePhaseStart	3	177	57	foodImage.6	FOODEEG_Images\0113.jpg	NY	Left	No	1.90431410004385	0	617289	253
1207.53515625	0	decision	response	3	177	57	foodImage.6	FOODEEG_Images\0113.jpg	NY	Left	No	1.90431410004385	0	618259	234
1208.580078125	1	health	trialStart	3	178	58	foodImage.52	FOODEEG_Images\0539.jpg	YN	Right	No	3.16767859994434	0	618794	251
1209.640625	2	health	foodImageDisplay	3	178	58	foodImage.52	FOODEEG_Images\0539.jpg	YN	Right	No	3.16767859994434	0	619337	252
1211.705078125	3.16767859994434	health	choicePhaseStart	3	178	58	foodImage.52	FOODEEG_Images\0539.jpg	YN	Right	No	3.16767859994434	0	620394	253
1214.86328125	0	health	response	3	178	58	foodImage.52	FOODEEG_Images\0539.jpg	YN	Right	No	3.16767859994434	0	622011	235
1215.908203125	1	decision	trialStart	3	179	59	foodImage.59	FOODEEG_Images\0607.jpg	NY	Left	No	1.92479349998757	0	622546	251
1216.955078125	2	decision	foodImageDisplay	3	179	59	foodImage.59	FOODEEG_Images\0607.jpg	NY	Left	No	1.92479349998757	0	623082	252
1219.01953125	1.92479349998757	decision	choicePhaseStart	3	179	59	foodImage.59	FOODEEG_Images\0607.jpg	NY	Left	No	1.92479349998757	0	624139	253
1220.935546875	0	decision	response	3	179	59	foodImage.59	FOODEEG_Images\0607.jpg	NY	Left	No	1.92479349998757	0	625120	234
1221.978515625	1	decision	trialStart	3	180	60	foodImage.76	FOODEEG_Images\0766.jpg	NY	Right	Yes	2.27214969997294	0	625654	251
1223.0234375	2	decision	foodImageDisplay	3	180	60	foodImage.76	FOODEEG_Images\0766.jpg	NY	Right	Yes	2.27214969997294	0	626189	252
1225.087890625	2.27214969997294	decision	choicePhaseStart	3	180	60	foodImage.76	FOODEEG_Images\0766.jpg	NY	Right	Yes	2.27214969997294	0	627246	253
1227.349609375	0	decision	response	3	180	60	foodImage.76	FOODEEG_Images\0766.jpg	NY	Right	Yes	2.27214969997294	0	628404	235
1229.392578125	41.71875	n/a	blockEnd	n/a	n/a	n/a	n/a	n/a	n/a	n/a	n/a	n/a	n/a	629450	254
1271.111328125	2	n/a	blockStart	4	n/a	n/a	n/a	n/a	n/a	n/a	n/a	n/a	n/a	650810	250
1273.14453125	1	decision	trialStart	4	181	1	foodImage.83	FOODEEG_Images\0827.jpg	NY	Right	Yes	2.73853890015744	0	651851	251
1274.20703125	2	decision	foodImageDisplay	4	181	1	foodImage.83	FOODEEG_Images\0827.jpg	NY	Right	Yes	2.73853890015744	0	652395	252
1276.275390625	2.73853890015744	decision	choicePhaseStart	4	181	1	foodImage.83	FOODEEG_Images\0827.jpg	NY	Right	Yes	2.73853890015744	0	653454	253
1279.00390625	0	decision	response	4	181	1	foodImage.83	FOODEEG_Images\0827.jpg	NY	Right	Yes	2.73853890015744	0	654851	235
1280.048828125	1	decision	trialStart	4	182	2	foodImage.27	FOODEEG_Images\0263.jpg	YN	Left	Yes	2.25572220003232	0	655386	251
1281.087890625	2	decision	foodImageDisplay	4	182	2	foodImage.27	FOODEEG_Images\0263.jpg	YN	Left	Yes	2.25572220003232	0	655918	252
1283.150390625	2.25572220003232	decision	choicePhaseStart	4	182	2	foodImage.27	FOODEEG_Images\0263.jpg	YN	Left	Yes	2.25572220003232	0	656974	253
1285.396484375	0	decision	response	4	182	2	foodImage.27	FOODEEG_Images\0263.jpg	YN	Left	Yes	2.25572220003232	0	658124	234
1286.439453125	1	health	trialStart	4	183	3	foodImage.2	FOODEEG_Images\0028.jpg	YN	Right	No	1.95046909991652	0	658658	251
1287.48046875	2	health	foodImageDisplay	4	183	3	foodImage.2	FOODEEG_Images\0028.jpg	YN	Right	No	1.95046909991652	0	659191	252
1289.54296875	1.95046909991652	health	choicePhaseStart	4	183	3	foodImage.2	FOODEEG_Images\0028.jpg	YN	Right	No	1.95046909991652	0	660247	253
1291.484375	0	health	response	4	183	3	foodImage.2	FOODEEG_Images\0028.jpg	YN	Right	No	1.95046909991652	0	661241	235
1292.5234375	1	decision	trialStart	4	184	4	foodImage.34	FOODEEG_Images\0339.jpg	NY	Left	No	1.20759449992329	0	661773	251
1293.58203125	2	decision	foodImageDisplay	4	184	4	foodImage.34	FOODEEG_Images\0339.jpg	NY	Left	No	1.20759449992329	0	662315	252
1295.64453125	1.20759449992329	decision	choicePhaseStart	4	184	4	foodImage.34	FOODEEG_Images\0339.jpg	NY	Left	No	1.20759449992329	0	663371	253
1296.84375	0	decision	response	4	184	4	foodImage.34	FOODEEG_Images\0339.jpg	NY	Left	No	1.20759449992329	0	663985	234
1297.888671875	1	taste	trialStart	4	185	5	foodImage.33	FOODEEG_Images\0329.jpg	NY	Right	Yes	1.54581149993464	0	664520	251
1298.9296875	2	taste	foodImageDisplay	4	185	5	foodImage.33	FOODEEG_Images\0329.jpg	NY	Right	Yes	1.54581149993464	0	665053	252
1300.994140625	1.54581149993464	taste	choicePhaseStart	4	185	5	foodImage.33	FOODEEG_Images\0329.jpg	NY	Right	Yes	1.54581149993464	0	666110	253
1302.53125	0	taste	response	4	185	5	foodImage.33	FOODEEG_Images\0329.jpg	NY	Right	Yes	1.54581149993464	0	666897	235
1303.576171875	1	health	trialStart	4	186	6	foodImage.86	FOODEEG_Images\0844.jpg	YN	Right	No	1.39588580001146	0	667432	251
1304.630859375	2	health	foodImageDisplay	4	186	6	foodImage.86	FOODEEG_Images\0844.jpg	YN	Right	No	1.39588580001146	0	667972	252
1306.6953125	1.39588580001146	health	choicePhaseStart	4	186	6	foodImage.86	FOODEEG_Images\0844.jpg	YN	Right	No	1.39588580001146	0	669029	253
1308.083984375	0	health	response	4	186	6	foodImage.86	FOODEEG_Images\0844.jpg	YN	Right	No	1.39588580001146	0	669740	235
1309.126953125	1	health	trialStart	4	187	7	foodImage.73	FOODEEG_Images\0717.jpg	YN	Left	Yes	3.6587004000321	0	670274	251
1310.1875	2	health	foodImageDisplay	4	187	7	foodImage.73	FOODEEG_Images\0717.jpg	YN	Left	Yes	3.6587004000321	0	670817	252
1312.25	3.6587004000321	health	choicePhaseStart	4	187	7	foodImage.73	FOODEEG_Images\0717.jpg	YN	Left	Yes	3.6587004000321	0	671873	253
1315.8984375	0	health	response	4	187	7	foodImage.73	FOODEEG_Images\0717.jpg	YN	Left	Yes	3.6587004000321	0	673741	234
1316.943359375	1	health	trialStart	4	188	8	foodImage.106	FOODEEG_Images\0914.jpg	NY	Right	Yes	2.15140450000763	0	674276	251
1317.982421875	2	health	foodImageDisplay	4	188	8	foodImage.106	FOODEEG_Images\0914.jpg	NY	Right	Yes	2.15140450000763	0	674808	252
1320.044921875	2.15140450000763	health	choicePhaseStart	4	188	8	foodImage.106	FOODEEG_Images\0914.jpg	NY	Right	Yes	2.15140450000763	0	675864	253
1322.1875	0	health	response	4	188	8	foodImage.106	FOODEEG_Images\0914.jpg	NY	Right	Yes	2.15140450000763	0	676961	235
1323.23046875	1	decision	trialStart	4	189	9	foodImage.74	FOODEEG_Images\0752.jpg	YN	Left	Yes	1.53726330003701	0	677495	251
1324.27734375	2	decision	foodImageDisplay	4	189	9	foodImage.74	FOODEEG_Images\0752.jpg	YN	Left	Yes	1.53726330003701	0	678031	252
1326.337890625	1.53726330003701	decision	choicePhaseStart	4	189	9	foodImage.74	FOODEEG_Images\0752.jpg	YN	Left	Yes	1.53726330003701	0	679086	253
1327.8671875	0	decision	response	4	189	9	foodImage.74	FOODEEG_Images\0752.jpg	YN	Left	Yes	1.53726330003701	0	679869	234
1328.91015625	1	health	trialStart	4	190	10	foodImage.54	FOODEEG_Images\0560.jpg	NY	Right	Yes	6.74269059998915	1	680403	251
1329.966796875	2	health	foodImageDisplay	4	190	10	foodImage.54	FOODEEG_Images\0560.jpg	NY	Right	Yes	6.74269059998915	1	680944	252
1332.029296875	6.74269059998915	health	choicePhaseStart	4	190	10	foodImage.54	FOODEEG_Images\0560.jpg	NY	Right	Yes	6.74269059998915	1	682000	253
1338.76171875	0	health	response	4	190	10	foodImage.54	FOODEEG_Images\0560.jpg	NY	Right	Yes	6.74269059998915	1	685447	235
1339.806640625	1	taste	trialStart	4	191	11	foodImage.24	FOODEEG_Images\0250.jpg	NY	Right	Yes	3.02690379996784	0	685982	251
1340.84765625	2	taste	foodImageDisplay	4	191	11	foodImage.24	FOODEEG_Images\0250.jpg	NY	Right	Yes	3.02690379996784	0	686515	252
1342.912109375	3.02690379996784	taste	choicePhaseStart	4	191	11	foodImage.24	FOODEEG_Images\0250.jpg	NY	Right	Yes	3.02690379996784	0	687572	253
1345.9296875	0	taste	response	4	191	11	foodImage.24	FOODEEG_Images\0250.jpg	NY	Right	Yes	3.02690379996784	0	689117	235
1346.97265625	1	health	trialStart	4	192	12	foodImage.110	FOODEEG_Images\0918.jpg	NY	Right	Yes	1.06420810008422	0	689651	251
1348.01953125	2	health	foodImageDisplay	4	192	12	foodImage.110	FOODEEG_Images\0918.jpg	NY	Right	Yes	1.06420810008422	0	690187	252
1350.083984375	1.06420810008422	health	choicePhaseStart	4	192	12	foodImage.110	FOODEEG_Images\0918.jpg	NY	Right	Yes	1.06420810008422	0	691244	253
1351.138671875	0	health	response	4	192	12	foodImage.110	FOODEEG_Images\0918.jpg	NY	Right	Yes	1.06420810008422	0	691784	235
1352.181640625	1	taste	trialStart	4	193	13	foodImage.5	FOODEEG_Images\0107.jpg	YN	Right	No	3.11643920000643	0	692318	251
1353.240234375	2	taste	foodImageDisplay	4	193	13	foodImage.5	FOODEEG_Images\0107.jpg	YN	Right	No	3.11643920000643	0	692860	252
1355.302734375	3.11643920000643	taste	choicePhaseStart	4	193	13	foodImage.5	FOODEEG_Images\0107.jpg	YN	Right	No	3.11643920000643	0	693916	253
1358.41015625	0	taste	response	4	193	13	foodImage.5	FOODEEG_Images\0107.jpg	YN	Right	No	3.11643920000643	0	695507	235
1359.451171875	1	taste	trialStart	4	194	14	foodImage.6	FOODEEG_Images\0113.jpg	NY	Right	Yes	1.32051690015942	0	696040	251
1360.4921875	2	taste	foodImageDisplay	4	194	14	foodImage.6	FOODEEG_Images\0113.jpg	NY	Right	Yes	1.32051690015942	0	696573	252
