onset	duration	trial_type	event_type	block	trial_total	trial_in_block	food_image_code	food_image_path	button_position	resp_position	resp_choice	choice_rt	resp_too_slow	sample	trigger
361.94921875	2	n/a	blockStart	1	n/a	n/a	n/a	n/a	n/a	n/a	n/a	n/a	n/a	185319	250
363.990234375	1	health	trialStart	1	1	1	foodImage.22	FOODEEG_Images\0236.jpg	NY	Right	Yes	0.819572500011418	0	186364	251
365.0390625	2	health	foodImageDisplay	1	1	1	foodImage.22	FOODEEG_Images\0236.jpg	NY	Right	Yes	0.819572500011418	0	186901	252
367.103515625	0.819572500011418	health	choicePhaseStart	1	1	1	foodImage.22	FOODEEG_Images\0236.jpg	NY	Right	Yes	0.819572500011418	0	187958	253
367.916015625	0	health	response	1	1	1	foodImage.22	FOODEEG_Images\0236.jpg	NY	Right	Yes	0.819572500011418	0	188374	235
369.0234375	1	taste	trialStart	1	2	2	foodImage.64	FOODEEG_Images\0647.jpg	YN	Right	No	1.76050790003501	0	188941	251
370.107421875	2	taste	foodImageDisplay	1	2	2	foodImage.64	FOODEEG_Images\0647.jpg	YN	Right	No	1.76050790003501	0	189496	252
372.171875	1.76050790003501	taste	choicePhaseStart	1	2	2	foodImage.64	FOODEEG_Images\0647.jpg	YN	Right	No	1.76050790003501	0	190553	253
373.923828125	0	taste	response	1	2	2	foodImage.64	FOODEEG_Images\0647.jpg	YN	Right	No	1.76050790003501	0	191450	235
374.984375	1	taste	trialStart	1	3	3	foodImage.107	FOODEEG_Images\0915.jpg	NY	Left	No	1.2757649999694	0	191993	251
376.03515625	2	taste	foodImageDisplay	1	3	3	foodImage.107	FOODEEG_Images\0915.jpg	NY	Left	No	1.2757649999694	0	192531	252
378.103515625	1.2757649999694	taste	choicePhaseStart	1	3	3	foodImage.107	FOODEEG_Images\0915.jpg	NY	Left	No	1.2757649999694	0	193590	253
379.37109375	0	taste	response	1	3	3	foodImage.107	FOODEEG_Images\0915.jpg	NY	Left	No	1.2757649999694	0	194239	234
380.416015625	1	taste	trialStart	1	4	4	foodImage.67	FOODEEG_Images\0679.jpg	NY	Right	Yes	1.04478490003385	0	194774	251
381.47265625	2	taste	foodImageDisplay	1	4	4	foodImage.67	FOODEEG_Images\0679.jpg	NY	Right	Yes	1.04478490003385	0	195315	252
383.53515625	1.04478490003385	taste	choicePhaseStart	1	4	4	foodImage.67	FOODEEG_Images\0679.jpg	NY	Right	Yes	1.04478490003385	0	196371	253
384.572265625	0	taste	response	1	4	4	foodImage.67	FOODEEG_Images\0679.jpg	NY	Right	Yes	1.04478490003385	0	196902	235
385.6171875	1	health	trialStart	1	5	5	foodImage.75	FOODEEG_Images\0763.jpg	NY	Right	Yes	0.650945200002752	0	197437	251
386.6640625	2	health	foodImageDisplay	1	5	5	foodImage.75	FOODEEG_Images\0763.jpg	NY	Right	Yes	0.650945200002752	0	197973	252
388.728515625	0.650945200002752	health	choicePhaseStart	1	5	5	foodImage.75	FOODEEG_Images\0763.jpg	NY	Right	Yes	0.650945200002752	0	199030	253
389.37109375	0	health	response	1	5	5	foodImage.75	FOODEEG_Images\0763.jpg	NY	Right	Yes	0.650945200002752	0	199359	235
390.423828125	1	taste	trialStart	1	6	6	foodImage.19	FOODEEG_Images\0225.jpg	NY	Right	Yes	0.782131799962372	0	199898	251
391.466796875	2	taste	foodImageDisplay	1	6	6	foodImage.19	FOODEEG_Images\0225.jpg	NY	Right	Yes	0.782131799962372	0	200432	252
393.53125	0.782131799962372	taste	choicePhaseStart	1	6	6	foodImage.19	FOODEEG_Images\0225.jpg	NY	Right	Yes	0.782131799962372	0	201489	253
394.306640625	0	taste	response	1	6	6	foodImage.19	FOODEEG_Images\0225.jpg	NY	Right	Yes	0.782131799962372	0	201886	235
395.3515625	1	taste	trialStart	1	7	7	foodImage.5	FOODEEG_Images\0107.jpg	NY	Left	No	0.612191900028847	0	202421	251
396.419921875	2	taste	foodImageDisplay	1	7	7	foodImage.5	FOODEEG_Images\0107.jpg	NY	Left	No	0.612191900028847	0	202968	252
398.486328125	0.612191900028847	taste	choicePhaseStart	1	7	7	foodImage.5	FOODEEG_Images\0107.jpg	NY	Left	No	0.612191900028847	0	204026	253
399.08984375	0	taste	response	1	7	7	foodImage.5	FOODEEG_Images\0107.jpg	NY	Left	No	0.612191900028847	0	204335	234
400.134765625	1	health	trialStart	1	8	8	foodImage.81	FOODEEG_Images\0797.jpg	YN	Left	Yes	0.923835299967322	0	204870	251
401.1953125	2	health	foodImageDisplay	1	8	8	foodImage.81	FOODEEG_Images\0797.jpg	YN	Left	Yes	0.923835299967322	0	205413	252
403.259765625	0.923835299967322	health	choicePhaseStart	1	8	8	foodImage.81	FOODEEG_Images\0797.jpg	YN	Left	Yes	0.923835299967322	0	206470	253
404.177734375	0	health	response	1	8	8	foodImage.81	FOODEEG_Images\0797.jpg	YN	Left	Yes	0.923835299967322	0	206940	234
405.22265625	1	decision	trialStart	1	9	9	foodImage.63	FOODEEG_Images\0645.jpg	YN	Left	Yes	0.809049800038338	0	207475	251
406.267578125	2	decision	foodImageDisplay	1	9	9	foodImage.63	FOODEEG_Images\0645.jpg	YN	Left	Yes	0.809049800038338	0	208010	252
408.330078125	0.809049800038338	decision	choicePhaseStart	1	9	9	foodImage.63	FOODEEG_Images\0645.jpg	YN	Left	Yes	0.809049800038338	0	209066	253
409.130859375	0	decision	response	1	9	9	foodImage.63	FOODEEG_Images\0645.jpg	YN	Left	Yes	0.809049800038338	0	209476	234
410.173828125	1	health	trialStart	1	10	10	foodImage.54	FOODEEG_Images\0560.jpg	YN	Left	Yes	0.744346100022085	0	210010	251
411.232421875	2	health	foodImageDisplay	1	10	10	foodImage.54	FOODEEG_Images\0560.jpg	YN	Left	Yes	0.744346100022085	0	210552	252
413.296875	0.744346100022085	health	choicePhaseStart	1	10	10	foodImage.54	FOODEEG_Images\0560.jpg	YN	Left	Yes	0.744346100022085	0	211609	253
414.03515625	0	health	response	1	10	10	foodImage.54	FOODEEG_Images\0560.jpg	YN	Left	Yes	0.744346100022085	0	211987	234
415.078125	1	decision	trialStart	1	11	11	foodImage.98	FOODEEG_Images\0906.jpg	NY	Left	No	1.30608690000372	0	212521	251
416.119140625	2	decision	foodImageDisplay	1	11	11	foodImage.98	FOODEEG_Images\0906.jpg	NY	Left	No	1.30608690000372	0	213054	252
418.18359375	1.30608690000372	decision	choicePhaseStart	1	11	11	foodImage.98	FOODEEG_Images\0906.jpg	NY	Left	No	1.30608690000372	0	214111	253
419.482421875	0	decision	response	1	11	11	foodImage.98	FOODEEG_Images\0906.jpg	NY	Left	No	1.30608690000372	0	214776	234
420.525390625	1	health	trialStart	1	12	12	foodImage.95	FOODEEG_Images\0903.jpg	NY	Left	No	1.1335459999973	0	215310	251
421.564453125	2	health	foodImageDisplay	1	12	12	foodImage.95	FOODEEG_Images\0903.jpg	NY	Left	No	1.1335459999973	0	215842	252
423.62890625	1.1335459999973	health	choicePhaseStart	1	12	12	foodImage.95	FOODEEG_Images\0903.jpg	NY	Left	No	1.1335459999973	0	216899	253
424.75390625	0	health	response	1	12	12	foodImage.95	FOODEEG_Images\0903.jpg	NY	Left	No	1.1335459999973	0	217475	234
425.798828125	1	taste	trialStart	1	13	13	foodImage.66	FOODEEG_Images\0676.jpg	YN	Right	No	1.40650679997634	0	218010	251
426.841796875	2	taste	foodImageDisplay	1	13	13	foodImage.66	FOODEEG_Images\0676.jpg	YN	Right	No	1.40650679997634	0	218544	252
428.90625	1.40650679997634	taste	choicePhaseStart	1	13	13	foodImage.66	FOODEEG_Images\0676.jpg	YN	Right	No	1.40650679997634	0	219601	253
430.3046875	0	taste	response	1	13	13	foodImage.66	FOODEEG_Images\0676.jpg	YN	Right	No	1.40650679997634	0	220317	235
431.361328125	1	decision	trialStart	1	14	14	foodImage.9	FOODEEG_Images\0138.jpg	YN	Right	No	0.761003399966285	0	220858	251
432.41796875	2	decision	foodImageDisplay	1	14	14	foodImage.9	FOODEEG_Images\0138.jpg	YN	Right	No	0.761003399966285	0	221399	252
434.482421875	0.761003399966285	decision	choicePhaseStart	1	14	14	foodImage.9	FOODEEG_Images\0138.jpg	YN	Right	No	0.761003399966285	0	222456	253
435.232421875	0	decision	response	1	14	14	foodImage.9	FOODEEG_Images\0138.jpg	YN	Right	No	0.761003399966285	0	222840	235
436.275390625	1	health	trialStart	1	15	15	foodImage.102	FOODEEG_Images\0910.jpg	YN	Left	Yes	1.30479170003673	0	223374	251
437.314453125	2	health	foodImageDisplay	1	15	15	foodImage.102	FOODEEG_Images\0910.jpg	YN	Left	Yes	1.30479170003673	0	223906	252
439.384765625	1.30479170003673	health	choicePhaseStart	1	15	15	foodImage.102	FOODEEG_Images\0910.jpg	YN	Left	Yes	1.30479170003673	0	224966	253
440.681640625	0	health	response	1	15	15	foodImage.102	FOODEEG_Images\0910.jpg	YN	Left	Yes	1.30479170003673	0	225630	234
441.724609375	1	decision	trialStart	1	16	16	foodImage.6	FOODEEG_Images\0113.jpg	YN	Left	Yes	0.879055699973833	0	226164	251
442.771484375	2	decision	foodImageDisplay	1	16	16	foodImage.6	FOODEEG_Images\0113.jpg	YN	Left	Yes	0.879055699973833	0	226700	252
444.833984375	0.879055699973833	decision	choicePhaseStart	1	16	16	foodImage.6	FOODEEG_Images\0113.jpg	YN	Left	Yes	0.879055699973833	0	227756	253
445.705078125	0	decision	response	1	16	16	foodImage.6	FOODEEG_Images\0113.jpg	YN	Left	Yes	0.879055699973833	0	228202	234
446.748046875	1	health	trialStart	1	17	17	foodImage.61	FOODEEG_Images\0640.jpg	NY	Right	Yes	0.994962700002361	0	228736	251
447.791015625	2	health	foodImageDisplay	1	17	17	foodImage.61	FOODEEG_Images\0640.jpg	NY	Right	Yes	0.994962700002361	0	229270	252
449.85546875	0.994962700002361	health	choicePhaseStart	1	17	17	foodImage.61	FOODEEG_Images\0640.jpg	NY	Right	Yes	0.994962700002361	0	230327	253
450.83984375	0	health	response	1	17	17	foodImage.61	FOODEEG_Images\0640.jpg	NY	Right	Yes	0.994962700002361	0	230831	235
451.884765625	1	health	trialStart	1	18	18	foodImage.5	FOODEEG_Images\0107.jpg	YN	Right	No	1.63772409997182	0	231366	251
452.94140625	2	health	foodImageDisplay	1	18	18	foodImage.5	FOODEEG_Images\0107.jpg	YN	Right	No	1.63772409997182	0	231907	252
455.00390625	1.63772409997182	health	choicePhaseStart	1	18	18	foodImage.5	FOODEEG_Images\0107.jpg	YN	Right	No	1.63772409997182	0	232963	253
456.6328125	0	health	response	1	18	18	foodImage.5	FOODEEG_Images\0107.jpg	YN	Right	No	1.63772409997182	0	233797	235
457.6796875	1	taste	trialStart	1	19	19	foodImage.93	FOODEEG_Images\0901.jpg	YN	Right	No	1.10806260001846	0	234333	251
458.7265625	2	taste	foodImageDisplay	1	19	19	foodImage.93	FOODEEG_Images\0901.jpg	YN	Right	No	1.10806260001846	0	234869	252
460.7890625	1.10806260001846	taste	choicePhaseStart	1	19	19	foodImage.93	FOODEEG_Images\0901.jpg	YN	Right	No	1.10806260001846	0	235925	253
461.888671875	0	taste	response	1	19	19	foodImage.93	FOODEEG_Images\0901.jpg	YN	Right	No	1.10806260001846	0	236488	235
462.931640625	1	decision	trialStart	1	20	20	foodImage.79	FOODEEG_Images\0794.jpg	YN	Left	Yes	0.767549599986523	0	237022	251
463.9765625	2	decision	foodImageDisplay	1	20	20	foodImage.79	FOODEEG_Images\0794.jpg	YN	Left	Yes	0.767549599986523	0	237557	252
466.041015625	0.767549599986523	decision	choicePhaseStart	1	20	20	foodImage.79	FOODEEG_Images\0794.jpg	YN	Left	Yes	0.767549599986523	0	238614	253
466.80078125	0	decision	response	1	20	20	foodImage.79	FOODEEG_Images\0794.jpg	YN	Left	Yes	0.767549599986523	0	239003	234
467.84375	1	decision	trialStart	1	21	21	foodImage.10	FOODEEG_Images\0145.jpg	NY	Right	Yes	0.930837000021711	0	239537	251
468.91796875	2	decision	foodImageDisplay	1	21	21	foodImage.10	FOODEEG_Images\0145.jpg	NY	Right	Yes	0.930837000021711	0	240087	252
470.982421875	0.930837000021711	decision	choicePhaseStart	1	21	21	foodImage.10	FOODEEG_Images\0145.jpg	NY	Right	Yes	0.930837000021711	0	241144	253
471.904296875	0	decision	response	1	21	21	foodImage.10	FOODEEG_Images\0145.jpg	NY	Right	Yes	0.930837000021711	0	241616	235
472.9453125	1	taste	trialStart	1	22	22	foodImage.97	FOODEEG_Images\0905.jpg	YN	Left	Yes	1.74341920000734	0	242149	251
473.984375	2	taste	foodImageDisplay	1	22	22	foodImage.97	FOODEEG_Images\0905.jpg	YN	Left	Yes	1.74341920000734	0	242681	252
476.048828125	1.74341920000734	taste	choicePhaseStart	1	22	22	foodImage.97	FOODEEG_Images\0905.jpg	YN	Left	Yes	1.74341920000734	0	243738	253
477.783203125	0	taste	response	1	22	22	foodImage.97	FOODEEG_Images\0905.jpg	YN	Left	Yes	1.74341920000734	0	244626	234
478.826171875	1	decision	trialStart	1	23	23	foodImage.74	FOODEEG_Images\0752.jpg	YN	Left	Yes	1.37578209995991	0	245160	251
479.869140625	2	decision	foodImageDisplay	1	23	23	foodImage.74	FOODEEG_Images\0752.jpg	YN	Left	Yes	1.37578209995991	0	245694	252
481.935546875	1.37578209995991	decision	choicePhaseStart	1	23	23	foodImage.74	FOODEEG_Images\0752.jpg	YN	Left	Yes	1.37578209995991	0	246752	253
483.302734375	0	decision	response	1	23	23	foodImage.74	FOODEEG_Images\0752.jpg	YN	Left	Yes	1.37578209995991	0	247452	234
484.345703125	1	taste	trialStart	1	24	24	foodImage.95	FOODEEG_Images\0903.jpg	YN	Right	No	0.882663600030355	0	247986	251
485.384765625	2	taste	foodImageDisplay	1	24	24	foodImage.95	FOODEEG_Images\0903.jpg	YN	Right	No	0.882663600030355	0	248518	252
487.453125	0.882663600030355	taste	choicePhaseStart	1	24	24	foodImage.95	FOODEEG_Images\0903.jpg	YN	Right	No	0.882663600030355	0	249577	253
488.326171875	0	taste	response	1	24	24	foodImage.95	FOODEEG_Images\0903.jpg	YN	Right	No	0.882663600030355	0	250024	235
489.375	1	health	trialStart	1	25	25	foodImage.56	FOODEEG_Images\0586.jpg	YN	Left	Yes	0.792569799988996	0	250561	251
490.41796875	2	health	foodImageDisplay	1	25	25	foodImage.56	FOODEEG_Images\0586.jpg	YN	Left	Yes	0.792569799988996	0	251095	252
492.48828125	0.792569799988996	health	choicePhaseStart	1	25	25	foodImage.56	FOODEEG_Images\0586.jpg	YN	Left	Yes	0.792569799988996	0	252155	253
493.271484375	0	health	response	1	25	25	foodImage.56	FOODEEG_Images\0586.jpg	YN	Left	Yes	0.792569799988996	0	252556	234
494.314453125	1	health	trialStart	1	26	26	foodImage.78	FOODEEG_Images\0787.jpg	YN	Left	Yes	0.544702600047458	0	253090	251
495.361328125	2	health	foodImageDisplay	1	26	26	foodImage.78	FOODEEG_Images\0787.jpg	YN	Left	Yes	0.544702600047458	0	253626	252
497.423828125	0.544702600047458	health	choicePhaseStart	1	26	26	foodImage.78	FOODEEG_Images\0787.jpg	YN	Left	Yes	0.544702600047458	0	254682	253
497.958984375	0	health	response	1	26	26	foodImage.78	FOODEEG_Images\0787.jpg	YN	Left	Yes	0.544702600047458	0	254956	234
499.001953125	1	health	trialStart	1	27	27	foodImage.80	FOODEEG_Images\0796.jpg	YN	Left	Yes	0.82266060000984	0	255490	251
500.05859375	2	health	foodImageDisplay	1	27	27	foodImage.80	FOODEEG_Images\0796.jpg	YN	Left	Yes	0.82266060000984	0	256031	252
502.12109375	0.82266060000984	health	choicePhaseStart	1	27	27	foodImage.80	FOODEEG_Images\0796.jpg	YN	Left	Yes	0.82266060000984	0	257087	253
502.935546875	0	health	response	1	27	27	foodImage.80	FOODEEG_Images\0796.jpg	YN	Left	Yes	0.82266060000984	0	257504	234
503.9765625	1	taste	trialStart	1	28	28	foodImage.34	FOODEEG_Images\0339.jpg	YN	Left	Yes	1.0473375999718	0	258037	251
505.041015625	2	taste	foodImageDisplay	1	28	28	foodImage.34	FOODEEG_Images\0339.jpg	YN	Left	Yes	1.0473375999718	0	258582	252
507.103515625	1.0473375999718	taste	choicePhaseStart	1	28	28	foodImage.34	FOODEEG_Images\0339.jpg	YN	Left	Yes	1.0473375999718	0	259638	253
508.142578125	0	taste	response	1	28	28	foodImage.34	FOODEEG_Images\0339.jpg	YN	Left	Yes	1.0473375999718	0	260170	234
509.18359375	1	health	trialStart	1	29	29	foodImage.92	FOODEEG_Images\0900.jpg	NY	Left	No	1.76168409996899	0	260703	251
510.22265625	2	health	foodImageDisplay	1	29	29	foodImage.92	FOODEEG_Images\0900.jpg	NY	Left	No	1.76168409996899	0	261235	252
512.28515625	1.76168409996899	health	choicePhaseStart	1	29	29	foodImage.92	FOODEEG_Images\0900.jpg	NY	Left	No	1.76168409996899	0	262291	253
514.037109375	0	health	response	1	29	29	foodImage.92	FOODEEG_Images\0900.jpg	NY	Left	No	1.76168409996899	0	263188	234
515.076171875	1	decision	trialStart	1	30	30	foodImage.32	FOODEEG_Images\0319.jpg	NY	Right	Yes	1.02387749997433	0	263720	251
516.119140625	2	decision	foodImageDisplay	1	30	30	foodImage.32	FOODEEG_Images\0319.jpg	NY	Right	Yes	1.02387749997433	0	264254	252
518.18359375	1.02387749997433	decision	choicePhaseStart	1	30	30	foodImage.32	FOODEEG_Images\0319.jpg	NY	Right	Yes	1.02387749997433	0	265311	253
519.197265625	0	decision	response	1	30	30	foodImage.32	FOODEEG_Images\0319.jpg	NY	Right	Yes	1.02387749997433	0	265830	235
520.240234375	1	taste	trialStart	1	31	31	foodImage.50	FOODEEG_Images\0529.jpg	YN	Left	Yes	1.46485699998448	0	266364	251
521.310546875	2	taste	foodImageDisplay	1	31	31	foodImage.50	FOODEEG_Images\0529.jpg	YN	Left	Yes	1.46485699998448	0	266912	252
523.375	1.46485699998448	taste	choicePhaseStart	1	31	31	foodImage.50	FOODEEG_Images\0529.jpg	YN	Left	Yes	1.46485699998448	0	267969	253
524.830078125	0	taste	response	1	31	31	foodImage.50	FOODEEG_Images\0529.jpg	YN	Left	Yes	1.46485699998448	0	268714	234
525.873046875	1	decision	trialStart	1	32	32	foodImage.21	FOODEEG_Images\0234.jpg	NY	Right	Yes	0.921709899965208	0	269248	251
526.93359375	2	decision	foodImageDisplay	1	32	32	foodImage.21	FOODEEG_Images\0234.jpg	NY	Right	Yes	0.921709899965208	0	269791	252
528.99609375	0.921709899965208	decision	choicePhaseStart	1	32	32	foodImage.21	FOODEEG_Images\0234.jpg	NY	Right	Yes	0.921709899965208	0	270847	253
529.91015625	0	decision	response	1	32	32	foodImage.21	FOODEEG_Images\0234.jpg	NY	Right	Yes	0.921709899965208	0	271315	235
530.953125	1	health	trialStart	1	33	33	foodImage.51	FOODEEG_Images\0536.jpg	NY	Left	No	1.53882980003254	0	271849	251
532.00390625	2	health	foodImageDisplay	1	33	33	foodImage.51	FOODEEG_Images\0536.jpg	NY	Left	No	1.53882980003254	0	272387	252
534.068359375	1.53882980003254	health	choicePhaseStart	1	33	33	foodImage.51	FOODEEG_Images\0536.jpg	NY	Left	No	1.53882980003254	0	273444	253
535.59765625	0	health	response	1	33	33	foodImage.51	FOODEEG_Images\0536.jpg	NY	Left	No	1.53882980003254	0	274227	234
536.640625	1	decision	trialStart	1	34	34	foodImage.93	FOODEEG_Images\0901.jpg	YN	Right	No	1.08352899999591	0	274761	251
537.677734375	2	decision	foodImageDisplay	1	34	34	foodImage.93	FOODEEG_Images\0901.jpg	YN	Right	No	1.08352899999591	0	275292	252
539.740234375	1.08352899999591	decision	choicePhaseStart	1	34	34	foodImage.93	FOODEEG_Images\0901.jpg	YN	Right	No	1.08352899999591	0	276348	253
540.8125	0	decision	response	1	34	34	foodImage.93	FOODEEG_Images\0901.jpg	YN	Right	No	1.08352899999591	0	276897	235
541.85546875	1	taste	trialStart	1	35	35	foodImage.35	FOODEEG_Images\0350.jpg	NY	Right	Yes	0.879708100052085	0	277431	251
542.896484375	2	taste	foodImageDisplay	1	35	35	foodImage.35	FOODEEG_Images\0350.jpg	NY	Right	Yes	0.879708100052085	0	277964	252
544.958984375	0.879708100052085	taste	choicePhaseStart	1	35	35	foodImage.35	FOODEEG_Images\0350.jpg	NY	Right	Yes	0.879708100052085	0	279020	253
545.828125	0	taste	response	1	35	35	foodImage.35	FOODEEG_Images\0350.jpg	NY	Right	Yes	0.879708100052085	0	279465	235
546.87109375	1	decision	trialStart	1	36	36	foodImage.86	FOODEEG_Images\0844.jpg	NY	Right	Yes	0.846567900036462	0	279999	251
547.951171875	2	decision	foodImageDisplay	1	36	36	foodImage.86	FOODEEG_Images\0844.jpg	NY	Right	Yes	0.846567900036462	0	280552	252
550.015625	0.846567900036462	decision	choicePhaseStart	1	36	36	foodImage.86	FOODEEG_Images\0844.jpg	NY	Right	Yes	0.846567900036462	0	281609	253
550.853515625	0	decision	response	1	36	36	foodImage.86	FOODEEG_Images\0844.jpg	NY	Right	Yes	0.846567900036462	0	282038	235
551.89453125	1	health	trialStart	1	37	37	foodImage.107	FOODEEG_Images\0915.jpg	NY	Right	Yes	2.26744169997983	0	282571	251
552.93359375	2	health	foodImageDisplay	1	37	37	foodImage.107	FOODEEG_Images\0915.jpg	NY	Right	Yes	2.26744169997983	0	283103	252
555.001953125	2.26744169997983	health	choicePhaseStart	1	37	37	foodImage.107	FOODEEG_Images\0915.jpg	NY	Right	Yes	2.26744169997983	0	284162	253
557.259765625	0	health	response	1	37	37	foodImage.107	FOODEEG_Images\0915.jpg	NY	Right	Yes	2.26744169997983	0	285318	235
558.302734375	1	decision	trialStart	1	38	38	foodImage.57	FOODEEG_Images\0587.jpg	NY	Right	Yes	1.02737999998499	0	285852	251
559.345703125	2	decision	foodImageDisplay	1	38	38	foodImage.57	FOODEEG_Images\0587.jpg	NY	Right	Yes	1.02737999998499	0	286386	252
561.41015625	1.02737999998499	decision	choicePhaseStart	1	38	38	foodImage.57	FOODEEG_Images\0587.jpg	NY	Right	Yes	1.02737999998499	0	287443	253
562.427734375	0	decision	response	1	38	38	foodImage.57	FOODEEG_Images\0587.jpg	NY	Right	Yes	1.02737999998499	0	287964	235
563.47265625	1	decision	trialStart	1	39	39	foodImage.109	FOODEEG_Images\0917.jpg	YN	Right	No	1.65775690000737	0	288499	251
564.515625	2	decision	foodImageDisplay	1	39	39	foodImage.109	FOODEEG_Images\0917.jpg	YN	Right	No	1.65775690000737	0	289033	252
566.580078125	1.65775690000737	decision	choicePhaseStart	1	39	39	foodImage.109	FOODEEG_Images\0917.jpg	YN	Right	No	1.65775690000737	0	290090	253
568.228515625	0	decision	response	1	39	39	foodImage.109	FOODEEG_Images\0917.jpg	YN	Right	No	1.65775690000737	0	290934	235
569.271484375	1	health	trialStart	1	40	40	foodImage.67	FOODEEG_Images\0679.jpg	NY	Right	Yes	1.59368579997681	0	291468	251
570.330078125	2	health	foodImageDisplay	1	40	40	foodImage.67	FOODEEG_Images\0679.jpg	NY	Right	Yes	1.59368579997681	0	292010	252
572.392578125	1.59368579997681	health	choicePhaseStart	1	40	40	foodImage.67	FOODEEG_Images\0679.jpg	NY	Right	Yes	1.59368579997681	0	293066	253
573.98046875	0	health	response	1	40	40	foodImage.67	FOODEEG_Images\0679.jpg	NY	Right	Yes	1.59368579997681	0	293879	235
575.021484375	1	decision	trialStart	1	41	41	foodImage.39	FOODEEG_Images\0367.jpg	NY	Right	Yes	0.825002000026871	0	294412	251
576.060546875	2	decision	foodImageDisplay	1	41	41	foodImage.39	FOODEEG_Images\0367.jpg	NY	Right	Yes	0.825002000026871	0	294944	252
578.123046875	0.825002000026871	decision	choicePhaseStart	1	41	41	foodImage.39	FOODEEG_Images\0367.jpg	NY	Right	Yes	0.825002000026871	0	296000	253
578.939453125	0	decision	response	1	41	41	foodImage.39	FOODEEG_Images\0367.jpg	NY	Right	Yes	0.825002000026871	0	296418	235
579.982421875	1	health	trialStart	1	42	42	foodImage.10	FOODEEG_Images\0145.jpg	NY	Left	No	0.684834399959072	0	296952	251
581.041015625	2	health	foodImageDisplay	1	42	42	foodImage.10	FOODEEG_Images\0145.jpg	NY	Left	No	0.684834399959072	0	297494	252
583.103515625	0.684834399959072	health	choicePhaseStart	1	42	42	foodImage.10	FOODEEG_Images\0145.jpg	NY	Left	No	0.684834399959072	0	298550	253
583.779296875	0	health	response	1	42	42	foodImage.10	FOODEEG_Images\0145.jpg	NY	Left	No	0.684834399959072	0	298896	234
584.82421875	1	decision	trialStart	1	43	43	foodImage.112	FOODEEG_Images\0920.jpg	NY	Right	Yes	2.32675050001126	0	299431	251
585.86328125	2	decision	foodImageDisplay	1	43	43	foodImage.112	FOODEEG_Images\0920.jpg	NY	Right	Yes	2.32675050001126	0	299963	252
587.92578125	2.32675050001126	decision	choicePhaseStart	1	43	43	foodImage.112	FOODEEG_Images\0920.jpg	NY	Right	Yes	2.32675050001126	0	301019	253
590.244140625	0	decision	response	1	43	43	foodImage.112	FOODEEG_Images\0920.jpg	NY	Right	Yes	2.32675050001126	0	302206	235
591.287109375	1	decision	trialStart	1	44	44	foodImage.97	FOODEEG_Images\0905.jpg	YN	Right	No	0.969965900003444	0	302740	251
592.32421875	2	decision	foodImageDisplay	1	44	44	foodImage.97	FOODEEG_Images\0905.jpg	YN	Right	No	0.969965900003444	0	303271	252
594.38671875	0.969965900003444	decision	choicePhaseStart	1	44	44	foodImage.97	FOODEEG_Images\0905.jpg	YN	Right	No	0.969965900003444	0	304327	253
595.34765625	0	decision	response	1	44	44	foodImage.97	FOODEEG_Images\0905.jpg	YN	Right	No	0.969965900003444	0	304819	235
596.39453125	1	health	trialStart	1	45	45	foodImage.15	FOODEEG_Images\0189.jpg	YN	Right	No	1.09420729998965	0	305355	251
597.451171875	2	health	foodImageDisplay	1	45	45	foodImage.15	FOODEEG_Images\0189.jpg	YN	Right	No	1.09420729998965	0	305896	252
599.515625	1.09420729998965	health	choicePhaseStart	1	45	45	foodImage.15	FOODEEG_Images\0189.jpg	YN	Right	No	1.09420729998965	0	306953	253
600.603515625	0	health	response	1	45	45	foodImage.15	FOODEEG_Images\0189.jpg	YN	Right	No	1.09420729998965	0	307510	235
601.646484375	1	health	trialStart	1	46	46	foodImage.91	FOODEEG_Images\0896.jpg	YN	Right	No	1.46150320000015	0	308044	251
602.70703125	2	health	foodImageDisplay	1	46	46	foodImage.91	FOODEEG_Images\0896.jpg	YN	Right	No	1.46150320000015	0	308587	252
604.7734375	1.46150320000015	health	choicePhaseStart	1	46	46	foodImage.91	FOODEEG_Images\0896.jpg	YN	Right	No	1.46150320000015	0	309645	253
606.2265625	0	health	response	1	46	46	foodImage.91	FOODEEG_Images\0896.jpg	YN	Right	No	1.46150320000015	0	310389	235
607.2734375	1	decision	trialStart	1	47	47	foodImage.25	FOODEEG_Images\0261.jpg	NY	Right	Yes	0.858356599987019	0	310925	251
608.314453125	2	decision	foodImageDisplay	1	47	47	foodImage.25	FOODEEG_Images\0261.jpg	NY	Right	Yes	0.858356599987019	0	311458	252
610.376953125	0.858356599987019	decision	choicePhaseStart	1	47	47	foodImage.25	FOODEEG_Images\0261.jpg	NY	Right	Yes	0.858356599987019	0	312514	253
611.2265625	0	decision	response	1	47	47	foodImage.25	FOODEEG_Images\0261.jpg	NY	Right	Yes	0.858356599987019	0	312949	235
612.26953125	1	taste	trialStart	1	48	48	foodImage.87	FOODEEG_Images\0873.jpg	YN	Right	No	2.51669740001671	0	313483	251
613.328125	2	taste	foodImageDisplay	1	48	48	foodImage.87	FOODEEG_Images\0873.jpg	YN	Right	No	2.51669740001671	0	314025	252
615.390625	2.51669740001671	taste	choicePhaseStart	1	48	48	foodImage.87	FOODEEG_Images\0873.jpg	YN	Right	No	2.51669740001671	0	315081	253
617.8984375	0	taste	response	1	48	48	foodImage.87	FOODEEG_Images\0873.jpg	YN	Right	No	2.51669740001671	0	316365	235
618.94140625	1	decision	trialStart	1	49	49	foodImage.17	FOODEEG_Images\0199.jpg	NY	Right	Yes	1.12208099995041	0	316899	251
619.994140625	2	decision	foodImageDisplay	1	49	49	foodImage.17	FOODEEG_Images\0199.jpg	NY	Right	Yes	1.12208099995041	0	317438	252
622.056640625	1.12208099995041	decision	choicePhaseStart	1	49	49	foodImage.17	FOODEEG_Images\0199.jpg	NY	Right	Yes	1.12208099995041	0	318494	253
623.169921875	0	decision	response	1	49	49	foodImage.17	FOODEEG_Images\0199.jpg	NY	Right	Yes	1.12208099995041	0	319064	235
624.212890625	1	taste	trialStart	1	50	50	foodImage.11	FOODEEG_Images\0180.jpg	YN	Right	No	4.59529809997184	0	319598	251
625.255859375	2	taste	foodImageDisplay	1	50	50	foodImage.11	FOODEEG_Images\0180.jpg	YN	Right	No	4.59529809997184	0	320132	252
627.3203125	4.59529809997184	taste	choicePhaseStart	1	50	50	foodImage.11	FOODEEG_Images\0180.jpg	YN	Right	No	4.59529809997184	0	321189	253
631.90625	0	taste	response	1	50	50	foodImage.11	FOODEEG_Images\0180.jpg	YN	Right	No	4.59529809997184	0	323537	235
632.94921875	1	taste	trialStart	1	51	51	foodImage.109	FOODEEG_Images\0917.jpg	NY	Left	No	1.17462300002808	0	324071	251
633.98828125	2	taste	foodImageDisplay	1	51	51	foodImage.109	FOODEEG_Images\0917.jpg	NY	Left	No	1.17462300002808	0	324603	252
636.052734375	1.17462300002808	taste	choicePhaseStart	1	51	51	foodImage.109	FOODEEG_Images\0917.jpg	NY	Left	No	1.17462300002808	0	325660	253
637.216796875	0	taste	response	1	51	51	foodImage.109	FOODEEG_Images\0917.jpg	NY	Left	No	1.17462300002808	0	326256	234
638.259765625	1	decision	trialStart	1	52	52	foodImage.50	FOODEEG_Images\0529.jpg	YN	Right	No	3.28369419998489	0	326790	251
639.318359375	2	decision	foodImageDisplay	1	52	52	foodImage.50	FOODEEG_Images\0529.jpg	YN	Right	No	3.28369419998489	0	327332	252
641.3828125	3.28369419998489	decision	choicePhaseStart	1	52	52	foodImage.50	FOODEEG_Images\0529.jpg	YN	Right	No	3.28369419998489	0	328389	253
644.65625	0	decision	response	1	52	52	foodImage.50	FOODEEG_Images\0529.jpg	YN	Right	No	3.28369419998489	0	330065	235
645.697265625	1	decision	trialStart	1	53	53	foodImage.13	FOODEEG_Images\0183.jpg	YN	Right	No	0.964703299978282	0	330598	251
646.7421875	2	decision	foodImageDisplay	1	53	53	foodImage.13	FOODEEG_Images\0183.jpg	YN	Right	No	0.964703299978282	0	331133	252
648.8046875	0.964703299978282	decision	choicePhaseStart	1	53	53	foodImage.13	FOODEEG_Images\0183.jpg	YN	Right	No	0.964703299978282	0	332189	253
649.76171875	0	decision	response	1	53	53	foodImage.13	FOODEEG_Images\0183.jpg	YN	Right	No	0.964703299978282	0	332679	235
650.8046875	1	decision	trialStart	1	54	54	foodImage.60	FOODEEG_Images\0614.jpg	YN	Left	Yes	2.36823630001163	0	333213	251
651.865234375	2	decision	foodImageDisplay	1	54	54	foodImage.60	FOODEEG_Images\0614.jpg	YN	Left	Yes	2.36823630001163	0	333756	252
653.9296875	2.36823630001163	decision	choicePhaseStart	1	54	54	foodImage.60	FOODEEG_Images\0614.jpg	YN	Left	Yes	2.36823630001163	0	334813	253
656.2890625	0	decision	response	1	54	54	foodImage.60	FOODEEG_Images\0614.jpg	YN	Left	Yes	2.36823630001163	0	336021	234
657.333984375	1	decision	trialStart	1	55	55	foodImage.114	FOODEEG_Images\0922.jpg	NY	Right	Yes	1.1968601999688	0	336556	251
658.373046875	2	decision	foodImageDisplay	1	55	55	foodImage.114	FOODEEG_Images\0922.jpg	NY	Right	Yes	1.1968601999688	0	337088	252
660.435546875	1.1968601999688	decision	choicePhaseStart	1	55	55	foodImage.114	FOODEEG_Images\0922.jpg	NY	Right	Yes	1.1968601999688	0	338144	253
661.625	0	decision	response	1	55	55	foodImage.114	FOODEEG_Images\0922.jpg	NY	Right	Yes	1.1968601999688	0	338753	235
662.66796875	1	taste	trialStart	1	56	56	foodImage.1	FOODEEG_Images\0004.jpg	NY	Right	Yes	0.874590699968394	0	339287	251
663.7109375	2	taste	foodImageDisplay	1	56	56	foodImage.1	FOODEEG_Images\0004.jpg	NY	Right	Yes	0.874590699968394	0	339821	252
665.775390625	0.874590699968394	taste	choicePhaseStart	1	56	56	foodImage.1	FOODEEG_Images\0004.jpg	NY	Right	Yes	0.874590699968394	0	340878	253
666.640625	0	taste	response	1	56	56	foodImage.1	FOODEEG_Images\0004.jpg	NY	Right	Yes	0.874590699968394	0	341321	235
667.68359375	1	decision	trialStart	1	57	57	foodImage.101	FOODEEG_Images\0909.jpg	NY	Left	No	2.70186839997768	0	341855	251
668.724609375	2	decision	foodImageDisplay	1	57	57	foodImage.101	FOODEEG_Images\0909.jpg	NY	Left	No	2.70186839997768	0	342388	252
670.787109375	2.70186839997768	decision	choicePhaseStart	1	57	57	foodImage.101	FOODEEG_Images\0909.jpg	NY	Left	No	2.70186839997768	0	343444	253
673.48046875	0	decision	response	1	57	57	foodImage.101	FOODEEG_Images\0909.jpg	NY	Left	No	2.70186839997768	0	344823	234
674.5234375	1	taste	trialStart	1	58	58	foodImage.71	FOODEEG_Images\0713.jpg	NY	Right	Yes	0.969836100004613	0	345357	251
675.56640625	2	taste	foodImageDisplay	1	58	58	foodImage.71	FOODEEG_Images\0713.jpg	NY	Right	Yes	0.969836100004613	0	345891	252
677.630859375	0.969836100004613	taste	choicePhaseStart	1	58	58	foodImage.71	FOODEEG_Images\0713.jpg	NY	Right	Yes	0.969836100004613	0	346948	253
678.591796875	0	taste	response	1	58	58	foodImage.71	FOODEEG_Images\0713.jpg	NY	Right	Yes	0.969836100004613	0	347440	235
679.634765625	1	taste	trialStart	1	59	59	foodImage.14	FOODEEG_Images\0188.jpg	YN	Left	Yes	0.921254800050519	0	347974	251
680.703125	2	taste	foodImageDisplay	1	59	59	foodImage.14	FOODEEG_Images\0188.jpg	YN	Left	Yes	0.921254800050519	0	348521	252
682.767578125	0.921254800050519	taste	choicePhaseStart	1	59	59	foodImage.14	FOODEEG_Images\0188.jpg	YN	Left	Yes	0.921254800050519	0	349578	253
683.6796875	0	taste	response	1	59	59	foodImage.14	FOODEEG_Images\0188.jpg	YN	Left	Yes	0.921254800050519	0	350045	234
684.720703125	1	health	trialStart	1	60	60	foodImage.34	FOODEEG_Images\0339.jpg	YN	Right	No	1.10905690002255	0	350578	251
685.78125	2	health	foodImageDisplay	1	60	60	foodImage.34	FOODEEG_Images\0339.jpg	YN	Right	No	1.10905690002255	0	351121	252
687.84375	1.10905690002255	health	choicePhaseStart	1	60	60	foodImage.34	FOODEEG_Images\0339.jpg	YN	Right	No	1.10905690002255	0	352177	253
688.943359375	0	health	response	1	60	60	foodImage.34	FOODEEG_Images\0339.jpg	YN	Right	No	1.10905690002255	0	352740	235
690.986328125	17.458984375	n/a	blockEnd	n/a	n/a	n/a	n/a	n/a	n/a	n/a	n/a	n/a	n/a	353786	254
708.4453125	2	n/a	blockStart	2	n/a	n/a	n/a	n/a	n/a	n/a	n/a	n/a	n/a	362725	250
710.484375	1	taste	trialStart	2	61	1	foodImage.43	FOODEEG_Images\0445.jpg	YN	Left	Yes	1.36800859996583	0	363769	251
711.546875	2	taste	foodImageDisplay	2	61	1	foodImage.43	FOODEEG_Images\0445.jpg	YN	Left	Yes	1.36800859996583	0	364313	252
713.609375	1.36800859996583	taste	choicePhaseStart	2	61	1	foodImage.43	FOODEEG_Images\0445.jpg	YN	Left	Yes	1.36800859996583	0	365369	253
714.974609375	0	taste	response	2	61	1	foodImage.43	FOODEEG_Images\0445.jpg	YN	Left	Yes	1.36800859996583	0	366068	234
716.017578125	1	health	trialStart	2	62	2	foodImage.52	FOODEEG_Images\0539.jpg	YN	Left	Yes	0.986882199998945	0	366602	251
717.07421875	2	health	foodImageDisplay	2	62	2	foodImage.52	FOODEEG_Images\0539.jpg	YN	Left	Yes	0.986882199998945	0	367143	252
719.13671875	0.986882199998945	health	choicePhaseStart	2	62	2	foodImage.52	FOODEEG_Images\0539.jpg	YN	Left	Yes	0.986882199998945	0	368199	253
720.1171875	0	health	response	2	62	2	foodImage.52	FOODEEG_Images\0539.jpg	YN	Left	Yes	0.986882199998945	0	368701	234
721.16015625	1	decision	trialStart	2	63	3	foodImage.22	FOODEEG_Images\0236.jpg	YN	Left	Yes	0.849108199996408	0	369235	251
722.19921875	2	decision	foodImageDisplay	2	63	3	foodImage.22	FOODEEG_Images\0236.jpg	YN	Left	Yes	0.849108199996408	0	369767	252
724.26171875	0.849108199996408	decision	choicePhaseStart	2	63	3	foodImage.22	FOODEEG_Images\0236.jpg	YN	Left	Yes	0.849108199996408	0	370823	253
725.1015625	0	decision	response	2	63	3	foodImage.22	FOODEEG_Images\0236.jpg	YN	Left	Yes	0.849108199996408	0	371253	234
726.14453125	1	health	trialStart	2	64	4	foodImage.58	FOODEEG_Images\0605.jpg	NY	Right	Yes	1.42789670004277	0	371787	251
727.201171875	2	health	foodImageDisplay	2	64	4	foodImage.58	FOODEEG_Images\0605.jpg	NY	Right	Yes	1.42789670004277	0	372328	252
729.271484375	1.42789670004277	health	choicePhaseStart	2	64	4	foodImage.58	FOODEEG_Images\0605.jpg	NY	Right	Yes	1.42789670004277	0	373388	253
730.693359375	0	health	response	2	64	4	foodImage.58	FOODEEG_Images\0605.jpg	NY	Right	Yes	1.42789670004277	0	374116	235
731.736328125	1	health	trialStart	2	65	5	foodImage.1	FOODEEG_Images\0004.jpg	NY	Left	No	1.08507980004651	0	374650	251
732.77734375	2	health	foodImageDisplay	2	65	5	foodImage.1	FOODEEG_Images\0004.jpg	NY	Left	No	1.08507980004651	0	375183	252
734.841796875	1.08507980004651	health	choicePhaseStart	2	65	5	foodImage.1	FOODEEG_Images\0004.jpg	NY	Left	No	1.08507980004651	0	376240	253
735.91796875	0	health	response	2	65	5	foodImage.1	FOODEEG_Images\0004.jpg	NY	Left	No	1.08507980004651	0	376791	234
736.962890625	1	decision	trialStart	2	66	6	foodImage.40	FOODEEG_Images\0373.jpg	YN	Left	Yes	0.989237000001594	0	377326	251
738.00390625	2	decision	foodImageDisplay	2	66	6	foodImage.40	FOODEEG_Images\0373.jpg	YN	Left	Yes	0.989237000001594	0	377859	252
740.06640625	0.989237000001594	decision	choicePhaseStart	2	66	6	foodImage.40	FOODEEG_Images\0373.jpg	YN	Left	Yes	0.989237000001594	0	378915	253
741.044921875	0	decision	response	2	66	6	foodImage.40	FOODEEG_Images\0373.jpg	YN	Left	Yes	0.989237000001594	0	379416	234
742.08984375	1	health	trialStart	2	67	7	foodImage.90	FOODEEG_Images\0890.jpg	NY	Left	No	1.91627760004485	0	379951	251
743.162109375	2	health	foodImageDisplay	2	67	7	foodImage.90	FOODEEG_Images\0890.jpg	NY	Left	No	1.91627760004485	0	380500	252
745.2265625	1.91627760004485	health	choicePhaseStart	2	67	7	foodImage.90	FOODEEG_Images\0890.jpg	NY	Left	No	1.91627760004485	0	381557	253
747.1328125	0	health	response	2	67	7	foodImage.90	FOODEEG_Images\0890.jpg	NY	Left	No	1.91627760004485	0	382533	234
748.17578125	1	taste	trialStart	2	68	8	foodImage.118	FOODEEG_Images\0926.jpg	NY	Left	No	1.50500629999442	0	383067	251
749.21875	2	taste	foodImageDisplay	2	68	8	foodImage.118	FOODEEG_Images\0926.jpg	NY	Left	No	1.50500629999442	0	383601	252
751.283203125	1.50500629999442	taste	choicePhaseStart	2	68	8	foodImage.118	FOODEEG_Images\0926.jpg	NY	Left	No	1.50500629999442	0	384658	253
752.78125	0	taste	response	2	68	8	foodImage.118	FOODEEG_Images\0926.jpg	NY	Left	No	1.50500629999442	0	385425	234
753.822265625	1	taste	trialStart	2	69	9	foodImage.114	FOODEEG_Images\0922.jpg	NY	Left	No	0.912009000021499	0	385958	251
754.861328125	2	taste	foodImageDisplay	2	69	9	foodImage.114	FOODEEG_Images\0922.jpg	NY	Left	No	0.912009000021499	0	386490	252
756.92578125	0.912009000021499	taste	choicePhaseStart	2	69	9	foodImage.114	FOODEEG_Images\0922.jpg	NY	Left	No	0.912009000021499	0	387547	253
757.828125	0	taste	response	2	69	9	foodImage.114	FOODEEG_Images\0922.jpg	NY	Left	No	0.912009000021499	0	388009	234
758.87109375	1	taste	trialStart	2	70	10	foodImage.47	FOODEEG_Images\0488.jpg	YN	Left	Yes	2.27631960000144	0	388543	251
759.9140625	2	taste	foodImageDisplay	2	70	10	foodImage.47	FOODEEG_Images\0488.jpg	YN	Left	Yes	2.27631960000144	0	389077	252
761.9765625	2.27631960000144	taste	choicePhaseStart	2	70	10	foodImage.47	FOODEEG_Images\0488.jpg	YN	Left	Yes	2.27631960000144	0	390133	253
764.244140625	0	taste	response	2	70	10	foodImage.47	FOODEEG_Images\0488.jpg	YN	Left	Yes	2.27631960000144	0	391294	234
765.287109375	1	taste	trialStart	2	71	11	foodImage.7	FOODEEG_Images\0116.jpg	NY	Right	Yes	1.08920449996367	0	391828	251
766.33203125	2	taste	foodImageDisplay	2	71	11	foodImage.7	FOODEEG_Images\0116.jpg	NY	Right	Yes	1.08920449996367	0	392363	252
768.40234375	1.08920449996367	taste	choicePhaseStart	2	71	11	foodImage.7	FOODEEG_Images\0116.jpg	NY	Right	Yes	1.08920449996367	0	393423	253
769.484375	0	taste	response	2	71	11	foodImage.7	FOODEEG_Images\0116.jpg	NY	Right	Yes	1.08920449996367	0	393977	235
770.52734375	1	taste	trialStart	2	72	12	foodImage.48	FOODEEG_Images\0494.jpg	YN	Left	Yes	0.904519999981858	0	394511	251
771.5703125	2	taste	foodImageDisplay	2	72	12	foodImage.48	FOODEEG_Images\0494.jpg	YN	Left	Yes	0.904519999981858	0	395045	252
773.63671875	0.904519999981858	taste	choicePhaseStart	2	72	12	foodImage.48	FOODEEG_Images\0494.jpg	YN	Left	Yes	0.904519999981858	0	396103	253
774.53125	0	taste	response	2	72	12	foodImage.48	FOODEEG_Images\0494.jpg	YN	Left	Yes	0.904519999981858	0	396561	234
775.57421875	1	decision	trialStart	2	73	13	foodImage.81	FOODEEG_Images\0797.jpg	NY	Right	Yes	0.834021200018469	0	397095	251
776.62890625	2	decision	foodImageDisplay	2	73	13	foodImage.81	FOODEEG_Images\0797.jpg	NY	Right	Yes	0.834021200018469	0	397635	252
778.69140625	0.834021200018469	decision	choicePhaseStart	2	73	13	foodImage.81	FOODEEG_Images\0797.jpg	NY	Right	Yes	0.834021200018469	0	398691	253
779.515625	0	decision	response	2	73	13	foodImage.81	FOODEEG_Images\0797.jpg	NY	Right	Yes	0.834021200018469	0	399113	235
780.55859375	1	taste	trialStart	2	74	14	foodImage.26	FOODEEG_Images\0262.jpg	YN	Right	No	1.15879590000259	0	399647	251
781.599609375	2	taste	foodImageDisplay	2	74	14	foodImage.26	FOODEEG_Images\0262.jpg	YN	Right	No	1.15879590000259	0	400180	252
783.662109375	1.15879590000259	taste	choicePhaseStart	2	74	14	foodImage.26	FOODEEG_Images\0262.jpg	YN	Right	No	1.15879590000259	0	401236	253
784.8125	0	taste	response	2	74	14	foodImage.26	FOODEEG_Images\0262.jpg	YN	Right	No	1.15879590000259	0	401825	235
785.85546875	1	health	trialStart	2	75	15	foodImage.99	FOODEEG_Images\0907.jpg	YN	Right	No	3.64065709995339	0	402359	251
786.892578125	2	health	foodImageDisplay	2	75	15	foodImage.99	FOODEEG_Images\0907.jpg	YN	Right	No	3.64065709995339	0	402890	252
788.955078125	3.64065709995339	health	choicePhaseStart	2	75	15	foodImage.99	FOODEEG_Images\0907.jpg	YN	Right	No	3.64065709995339	0	403946	253
792.587890625	0	health	response	2	75	15	foodImage.99	FOODEEG_Images\0907.jpg	YN	Right	No	3.64065709995339	0	405806	235
793.62890625	1	health	trialStart	2	76	16	foodImage.12	FOODEEG_Images\0181.jpg	NY	Left	No	3.86800620000577	0	406339	251
794.671875	2	health	foodImageDisplay	2	76	16	foodImage.12	FOODEEG_Images\0181.jpg	NY	Left	No	3.86800620000577	0	406873	252
796.736328125	3.86800620000577	health	choicePhaseStart	2	76	16	foodImage.12	FOODEEG_Images\0181.jpg	NY	Left	No	3.86800620000577	0	407930	253
800.595703125	0	health	response	2	76	16	foodImage.12	FOODEEG_Images\0181.jpg	NY	Left	No	3.86800620000577	0	409906	234
801.63671875	1	decision	trialStart	2	77	17	foodImage.58	FOODEEG_Images\0605.jpg	YN	Left	Yes	0.89697659999365	0	410439	251
802.69140625	2	decision	foodImageDisplay	2	77	17	foodImage.58	FOODEEG_Images\0605.jpg	YN	Left	Yes	0.89697659999365	0	410979	252
804.75390625	0.89697659999365	decision	choicePhaseStart	2	77	17	foodImage.58	FOODEEG_Images\0605.jpg	YN	Left	Yes	0.89697659999365	0	412035	253
805.642578125	0	decision	response	2	77	17	foodImage.58	FOODEEG_Images\0605.jpg	YN	Left	Yes	0.89697659999365	0	412490	234
806.685546875	1	health	trialStart	2	78	18	foodImage.73	FOODEEG_Images\0717.jpg	YN	Left	Yes	1.45193160005147	0	413024	251
807.744140625	2	health	foodImageDisplay	2	78	18	foodImage.73	FOODEEG_Images\0717.jpg	YN	Left	Yes	1.45193160005147	0	413566	252
809.80859375	1.45193160005147	health	choicePhaseStart	2	78	18	foodImage.73	FOODEEG_Images\0717.jpg	YN	Left	Yes	1.45193160005147	0	414623	253
811.25	0	health	response	2	78	18	foodImage.73	FOODEEG_Images\0717.jpg	YN	Left	Yes	1.45193160005147	0	415361	234
812.29296875	1	taste	trialStart	2	79	19	foodImage.51	FOODEEG_Images\0536.jpg	NY	Left	No	1.03847420000238	0	415895	251
813.341796875	2	taste	foodImageDisplay	2	79	19	foodImage.51	FOODEEG_Images\0536.jpg	NY	Left	No	1.03847420000238	0	416432	252
815.404296875	1.03847420000238	taste	choicePhaseStart	2	79	19	foodImage.51	FOODEEG_Images\0536.jpg	NY	Left	No	1.03847420000238	0	417488	253
816.43359375	0	taste	response	2	79	19	foodImage.51	FOODEEG_Images\0536.jpg	NY	Left	No	1.03847420000238	0	418015	234
817.478515625	1	decision	trialStart	2	80	20	foodImage.91	FOODEEG_Images\0896.jpg	YN	Right	No	4.57350580004277	0	418550	251
818.54296875	2	decision	foodImageDisplay	2	80	20	foodImage.91	FOODEEG_Images\0896.jpg	YN	Right	No	4.57350580004277	0	419095	252
820.60546875	4.57350580004277	decision	choicePhaseStart	2	80	20	foodImage.91	FOODEEG_Images\0896.jpg	YN	Right	No	4.57350580004277	0	420151	253
825.169921875	0	decision	response	2	80	20	foodImage.91	FOODEEG_Images\0896.jpg	YN	Right	No	4.57350580004277	0	422488	235
826.21484375	1	health	trialStart	2	81	21	foodImage.41	FOODEEG_Images\0409.jpg	YN	Left	Yes	3.06301669997629	0	423023	251
827.26171875	2	health	foodImageDisplay	2	81	21	foodImage.41	FOODEEG_Images\0409.jpg	YN	Left	Yes	3.06301669997629	0	423559	252
829.32421875	3.06301669997629	health	choicePhaseStart	2	81	21	foodImage.41	FOODEEG_Images\0409.jpg	YN	Left	Yes	3.06301669997629	0	424615	253
832.376953125	0	health	response	2	81	21	foodImage.41	FOODEEG_Images\0409.jpg	YN	Left	Yes	3.06301669997629	0	426178	234
833.421875	1	health	trialStart	2	82	22	foodImage.23	FOODEEG_Images\0244.jpg	YN	Left	Yes	0.908809100044891	0	426713	251
834.462890625	2	health	foodImageDisplay	2	82	22	foodImage.23	FOODEEG_Images\0244.jpg	YN	Left	Yes	0.908809100044891	0	427246	252
836.525390625	0.908809100044891	health	choicePhaseStart	2	82	22	foodImage.23	FOODEEG_Images\0244.jpg	YN	Left	Yes	0.908809100044891	0	428302	253
837.42578125	0	health	response	2	82	22	foodImage.23	FOODEEG_Images\0244.jpg	YN	Left	Yes	0.908809100044891	0	428763	234
838.466796875	1	taste	trialStart	2	83	23	foodImage.39	FOODEEG_Images\0367.jpg	NY	Left	No	4.21180879999883	0	429296	251
839.50390625	2	taste	foodImageDisplay	2	83	23	foodImage.39	FOODEEG_Images\0367.jpg	NY	Left	No	4.21180879999883	0	429827	252
841.56640625	4.21180879999883	taste	choicePhaseStart	2	83	23	foodImage.39	FOODEEG_Images\0367.jpg	NY	Left	No	4.21180879999883	0	430883	253
845.76953125	0	taste	response	2	83	23	foodImage.39	FOODEEG_Images\0367.jpg	NY	Left	No	4.21180879999883	0	433035	234
846.8125	1	taste	trialStart	2	84	24	foodImage.83	FOODEEG_Images\0827.jpg	NY	Right	Yes	2.70018740004161	0	433569	251
847.87109375	2	taste	foodImageDisplay	2	84	24	foodImage.83	FOODEEG_Images\0827.jpg	NY	Right	Yes	2.70018740004161	0	434111	252
849.935546875	2.70018740004161	taste	choicePhaseStart	2	84	24	foodImage.83	FOODEEG_Images\0827.jpg	NY	Right	Yes	2.70018740004161	0	435168	253
852.625	0	taste	response	2	84	24	foodImage.83	FOODEEG_Images\0827.jpg	NY	Right	Yes	2.70018740004161	0	436545	235
853.66796875	1	taste	trialStart	2	85	25	foodImage.3	FOODEEG_Images\0046.jpg	NY	Left	No	2.33488159999251	0	437079	251
854.712890625	2	taste	foodImageDisplay	2	85	25	foodImage.3	FOODEEG_Images\0046.jpg	NY	Left	No	2.33488159999251	0	437614	252
856.77734375	2.33488159999251	taste	choicePhaseStart	2	85	25	foodImage.3	FOODEEG_Images\0046.jpg	NY	Left	No	2.33488159999251	0	438671	253
859.10546875	0	taste	response	2	85	25	foodImage.3	FOODEEG_Images\0046.jpg	NY	Left	No	2.33488159999251	0	439863	234
860.1484375	1	decision	trialStart	2	86	26	foodImage.29	FOODEEG_Images\0278.jpg	NY	Right	Yes	2.60788730002241	0	440397	251
861.19921875	2	decision	foodImageDisplay	2	86	26	foodImage.29	FOODEEG_Images\0278.jpg	NY	Right	Yes	2.60788730002241	0	440935	252
863.263671875	2.60788730002241	decision	choicePhaseStart	2	86	26	foodImage.29	FOODEEG_Images\0278.jpg	NY	Right	Yes	2.60788730002241	0	441992	253
865.865234375	0	decision	response	2	86	26	foodImage.29	FOODEEG_Images\0278.jpg	NY	Right	Yes	2.60788730002241	0	443324	235
866.90625	1	decision	trialStart	2	87	27	foodImage.92	FOODEEG_Images\0900.jpg	YN	Right	No	0.897854899987578	0	443857	251
867.943359375	2	decision	foodImageDisplay	2	87	27	foodImage.92	FOODEEG_Images\0900.jpg	YN	Right	No	0.897854899987578	0	444388	252
870.0078125	0.897854899987578	decision	choicePhaseStart	2	87	27	foodImage.92	FOODEEG_Images\0900.jpg	YN	Right	No	0.897854899987578	0	445445	253
870.896484375	0	decision	response	2	87	27	foodImage.92	FOODEEG_Images\0900.jpg	YN	Right	No	0.897854899987578	0	445900	235
871.9375	1	health	trialStart	2	88	28	foodImage.32	FOODEEG_Images\0319.jpg	YN	Right	No	4.16081740002846	0	446433	251
872.984375	2	health	foodImageDisplay	2	88	28	foodImage.32	FOODEEG_Images\0319.jpg	YN	Right	No	4.16081740002846	0	446969	252
875.048828125	4.16081740002846	health	choicePhaseStart	2	88	28	foodImage.32	FOODEEG_Images\0319.jpg	YN	Right	No	4.16081740002846	0	448026	253
879.19921875	0	health	response	2	88	28	foodImage.32	FOODEEG_Images\0319.jpg	YN	Right	No	4.16081740002846	0	450151	235
880.2421875	1	health	trialStart	2	89	29	foodImage.64	FOODEEG_Images\0647.jpg	NY	Right	Yes	1.00547730003018	0	450685	251
881.30078125	2	health	foodImageDisplay	2	89	29	foodImage.64	FOODEEG_Images\0647.jpg	NY	Right	Yes	1.00547730003018	0	451227	252
883.36328125	1.00547730003018	health	choicePhaseStart	2	89	29	foodImage.64	FOODEEG_Images\0647.jpg	NY	Right	Yes	1.00547730003018	0	452283	253
884.359375	0	health	response	2	89	29	foodImage.64	FOODEEG_Images\0647.jpg	NY	Right	Yes	1.00547730003018	0	452793	235
885.40234375	1	health	trialStart	2	90	30	foodImage.93	FOODEEG_Images\0901.jpg	YN	Right	No	2.23985089996131	0	453327	251
886.44140625	2	health	foodImageDisplay	2	90	30	foodImage.93	FOODEEG_Images\0901.jpg	YN	Right	No	2.23985089996131	0	453859	252
888.50390625	2.23985089996131	health	choicePhaseStart	2	90	30	foodImage.93	FOODEEG_Images\0901.jpg	YN	Right	No	2.23985089996131	0	454915	253
890.734375	0	health	response	2	90	30	foodImage.93	FOODEEG_Images\0901.jpg	YN	Right	No	2.23985089996131	0	456057	235
891.77734375	1	health	trialStart	2	91	31	foodImage.82	FOODEEG_Images\0805.jpg	NY	Right	Yes	0.868823199998587	0	456591	251
892.837890625	2	health	foodImageDisplay	2	91	31	foodImage.82	FOODEEG_Images\0805.jpg	NY	Right	Yes	0.868823199998587	0	457134	252
894.900390625	0.868823199998587	health	choicePhaseStart	2	91	31	foodImage.82	FOODEEG_Images\0805.jpg	NY	Right	Yes	0.868823199998587	0	458190	253
895.759765625	0	health	response	2	91	31	foodImage.82	FOODEEG_Images\0805.jpg	NY	Right	Yes	0.868823199998587	0	458630	235
896.802734375	1	taste	trialStart	2	92	32	foodImage.85	FOODEEG_Images\0841.jpg	NY	Right	Yes	1.03654359997017	0	459164	251
897.865234375	2	taste	foodImageDisplay	2	92	32	foodImage.85	FOODEEG_Images\0841.jpg	NY	Right	Yes	1.03654359997017	0	459708	252
899.931640625	1.03654359997017	taste	choicePhaseStart	2	92	32	foodImage.85	FOODEEG_Images\0841.jpg	NY	Right	Yes	1.03654359997017	0	460766	253
900.958984375	0	taste	response	2	92	32	foodImage.85	FOODEEG_Images\0841.jpg	NY	Right	Yes	1.03654359997017	0	461292	235
902.001953125	1	decision	trialStart	2	93	33	foodImage.19	FOODEEG_Images\0225.jpg	YN	Left	Yes	1.50767790002283	0	461826	251
903.046875	2	decision	foodImageDisplay	2	93	33	foodImage.19	FOODEEG_Images\0225.jpg	YN	Left	Yes	1.50767790002283	0	462361	252
905.109375	1.50767790002283	decision	choicePhaseStart	2	93	33	foodImage.19	FOODEEG_Images\0225.jpg	YN	Left	Yes	1.50767790002283	0	463417	253
906.607421875	0	decision	response	2	93	33	foodImage.19	FOODEEG_Images\0225.jpg	YN	Left	Yes	1.50767790002283	0	464184	234
907.650390625	1	taste	trialStart	2	94	34	foodImage.56	FOODEEG_Images\0586.jpg	YN	Left	Yes	0.975010900001507	0	464718	251
908.697265625	2	taste	foodImageDisplay	2	94	34	foodImage.56	FOODEEG_Images\0586.jpg	YN	Left	Yes	0.975010900001507	0	465254	252
910.759765625	0.975010900001507	taste	choicePhaseStart	2	94	34	foodImage.56	FOODEEG_Images\0586.jpg	YN	Left	Yes	0.975010900001507	0	466310	253
911.7265625	0	taste	response	2	94	34	foodImage.56	FOODEEG_Images\0586.jpg	YN	Left	Yes	0.975010900001507	0	466805	234
912.76953125	1	taste	trialStart	2	95	35	foodImage.38	FOODEEG_Images\0365.jpg	YN	Left	Yes	1.40001939999638	0	467339	251
913.80859375	2	taste	foodImageDisplay	2	95	35	foodImage.38	FOODEEG_Images\0365.jpg	YN	Left	Yes	1.40001939999638	0	467871	252
915.873046875	1.40001939999638	taste	choicePhaseStart	2	95	35	foodImage.38	FOODEEG_Images\0365.jpg	YN	Left	Yes	1.40001939999638	0	468928	253
917.26171875	0	taste	response	2	95	35	foodImage.38	FOODEEG_Images\0365.jpg	YN	Left	Yes	1.40001939999638	0	469639	234
918.3046875	1	taste	trialStart	2	96	36	foodImage.36	FOODEEG_Images\0352.jpg	NY	Right	Yes	2.66334119997919	0	470173	251
919.361328125	2	taste	foodImageDisplay	2	96	36	foodImage.36	FOODEEG_Images\0352.jpg	NY	Right	Yes	2.66334119997919	0	470714	252
921.423828125	2.66334119997919	taste	choicePhaseStart	2	96	36	foodImage.36	FOODEEG_Images\0352.jpg	NY	Right	Yes	2.66334119997919	0	471770	253
924.078125	0	taste	response	2	96	36	foodImage.36	FOODEEG_Images\0352.jpg	NY	Right	Yes	2.66334119997919	0	473129	235
925.12109375	1	taste	trialStart	2	97	37	foodImage.102	FOODEEG_Images\0910.jpg	YN	Right	No	5.15721949998988	1	473663	251
926.16015625	2	taste	foodImageDisplay	2	97	37	foodImage.102	FOODEEG_Images\0910.jpg	YN	Right	No	5.15721949998988	1	474195	252
928.2265625	5.15721949998988	taste	choicePhaseStart	2	97	37	foodImage.102	FOODEEG_Images\0910.jpg	YN	Right	No	5.15721949998988	1	475253	253
933.373046875	0	taste	response	2	97	37	foodImage.102	FOODEEG_Images\0910.jpg	YN	Right	No	5.15721949998988	1	477888	235
934.41796875	1	decision	trialStart	2	98	38	foodImage.34	FOODEEG_Images\0339.jpg	YN	Right	No	4.65259060001699	0	478423	251
935.48828125	2	decision	foodImageDisplay	2	98	38	foodImage.34	FOODEEG_Images\0339.jpg	YN	Right	No	4.65259060001699	0	478971	252
937.5546875	4.65259060001699	decision	choicePhaseStart	2	98	38	foodImage.34	FOODEEG_Images\0339.jpg	YN	Right	No	4.65259060001699	0	480029	253
942.19921875	0	decision	response	2	98	38	foodImage.34	FOODEEG_Images\0339.jpg	YN	Right	No	4.65259060001699	0	482407	235
943.240234375	1	taste	trialStart	2	99	39	foodImage.52	FOODEEG_Images\0539.jpg	NY	Left	No	2.15411840000888	0	482940	251
944.30078125	2	taste	foodImageDisplay	2	99	39	foodImage.52	FOODEEG_Images\0539.jpg	NY	Left	No	2.15411840000888	0	483483	252
946.36328125	2.15411840000888	taste	choicePhaseStart	2	99	39	foodImage.52	FOODEEG_Images\0539.jpg	NY	Left	No	2.15411840000888	0	484539	253
948.509765625	0	taste	response	2	99	39	foodImage.52	FOODEEG_Images\0539.jpg	NY	Left	No	2.15411840000888	0	485638	234
949.552734375	1	taste	trialStart	2	100	40	foodImage.27	FOODEEG_Images\0263.jpg	YN	Right	No	1.14880970004015	0	486172	251
950.595703125	2	taste	foodImageDisplay	2	100	40	foodImage.27	FOODEEG_Images\0263.jpg	YN	Right	No	1.14880970004015	0	486706	252
952.658203125	1.14880970004015	taste	choicePhaseStart	2	100	40	foodImage.27	FOODEEG_Images\0263.jpg	YN	Right	No	1.14880970004015	0	487762	253
953.796875	0	taste	response	2	100	40	foodImage.27	FOODEEG_Images\0263.jpg	YN	Right	No	1.14880970004015	0	488345	235
954.83984375	1	health	trialStart	2	101	41	foodImage.24	FOODEEG_Images\0250.jpg	NY	Right	Yes	1.73097209999105	0	488879	251
955.8828125	2	health	foodImageDisplay	2	101	41	foodImage.24	FOODEEG_Images\0250.jpg	NY	Right	Yes	1.73097209999105	0	489413	252
957.947265625	1.73097209999105	health	choicePhaseStart	2	101	41	foodImage.24	FOODEEG_Images\0250.jpg	NY	Right	Yes	1.73097209999105	0	490470	253
959.66796875	0	health	response	2	101	41	foodImage.24	FOODEEG_Images\0250.jpg	NY	Right	Yes	1.73097209999105	0	491351	235
960.72265625	1	decision	trialStart	2	102	42	foodImage.48	FOODEEG_Images\0494.jpg	YN	Left	Yes	1.42683730000863	0	491891	251
961.763671875	2	decision	foodImageDisplay	2	102	42	foodImage.48	FOODEEG_Images\0494.jpg	YN	Left	Yes	1.42683730000863	0	492424	252
963.828125	1.42683730000863	decision	choicePhaseStart	2	102	42	foodImage.48	FOODEEG_Images\0494.jpg	YN	Left	Yes	1.42683730000863	0	493481	253
965.244140625	0	decision	response	2	102	42	foodImage.48	FOODEEG_Images\0494.jpg	YN	Left	Yes	1.42683730000863	0	494206	234
966.287109375	1	decision	trialStart	2	103	43	foodImage.43	FOODEEG_Images\0445.jpg	NY	Right	Yes	1.55144419998396	0	494740	251
967.3671875	2	decision	foodImageDisplay	2	103	43	foodImage.43	FOODEEG_Images\0445.jpg	NY	Right	Yes	1.55144419998396	0	495293	252
969.4296875	1.55144419998396	decision	choicePhaseStart	2	103	43	foodImage.43	FOODEEG_Images\0445.jpg	NY	Right	Yes	1.55144419998396	0	496349	253
970.97265625	0	decision	response	2	103	43	foodImage.43	FOODEEG_Images\0445.jpg	NY	Right	Yes	1.55144419998396	0	497139	235
972.015625	1	health	trialStart	2	104	44	foodImage.103	FOODEEG_Images\0911.jpg	NY	Left	No	3.4008521999931	0	497673	251
973.05859375	2	health	foodImageDisplay	2	104	44	foodImage.103	FOODEEG_Images\0911.jpg	NY	Left	No	3.4008521999931	0	498207	252
975.130859375	3.4008521999931	health	choicePhaseStart	2	104	44	foodImage.103	FOODEEG_Images\0911.jpg	NY	Left	No	3.4008521999931	0	499268	253
978.5234375	0	health	response	2	104	44	foodImage.103	FOODEEG_Images\0911.jpg	NY	Left	No	3.4008521999931	0	501005	234
979.56640625	1	taste	trialStart	2	105	45	foodImage.88	FOODEEG_Images\0878.jpg	YN	Right	No	4.34459480002988	0	501539	251
980.62109375	2	taste	foodImageDisplay	2	105	45	foodImage.88	FOODEEG_Images\0878.jpg	YN	Right	No	4.34459480002988	0	502079	252
982.685546875	4.34459480002988	taste	choicePhaseStart	2	105	45	foodImage.88	FOODEEG_Images\0878.jpg	YN	Right	No	4.34459480002988	0	503136	253
987.01953125	0	taste	response	2	105	45	foodImage.88	FOODEEG_Images\0878.jpg	YN	Right	No	4.34459480002988	0	505355	235
988.0625	1	taste	trialStart	2	106	46	foodImage.108	FOODEEG_Images\0916.jpg	NY	Left	No	1.00154560001101	0	505889	251
989.107421875	2	taste	foodImageDisplay	2	106	46	foodImage.108	FOODEEG_Images\0916.jpg	NY	Left	No	1.00154560001101	0	506424	252
991.171875	1.00154560001101	taste	choicePhaseStart	2	106	46	foodImage.108	FOODEEG_Images\0916.jpg	NY	Left	No	1.00154560001101	0	507481	253
992.1640625	0	taste	response	2	106	46	foodImage.108	FOODEEG_Images\0916.jpg	NY	Left	No	1.00154560001101	0	507989	234
993.20703125	1	taste	trialStart	2	107	47	foodImage.63	FOODEEG_Images\0645.jpg	NY	Right	Yes	1.09699990000809	0	508523	251
994.248046875	2	taste	foodImageDisplay	2	107	47	foodImage.63	FOODEEG_Images\0645.jpg	NY	Right	Yes	1.09699990000809	0	509056	252
996.314453125	1.09699990000809	taste	choicePhaseStart	2	107	47	foodImage.63	FOODEEG_Images\0645.jpg	NY	Right	Yes	1.09699990000809	0	510114	253
997.404296875	0	taste	response	2	107	47	foodImage.63	FOODEEG_Images\0645.jpg	NY	Right	Yes	1.09699990000809	0	510672	235
998.4453125	1	health	trialStart	2	108	48	foodImage.42	FOODEEG_Images\0438.jpg	NY	Right	Yes	2.05109620001167	0	511205	251
999.537109375	2	health	foodImageDisplay	2	108	48	foodImage.42	FOODEEG_Images\0438.jpg	NY	Right	Yes	2.05109620001167	0	511764	252
1001.6015625	2.05109620001167	health	choicePhaseStart	2	108	48	foodImage.42	FOODEEG_Images\0438.jpg	NY	Right	Yes	2.05109620001167	0	512821	253
1003.642578125	0	health	response	2	108	48	foodImage.42	FOODEEG_Images\0438.jpg	NY	Right	Yes	2.05109620001167	0	513866	235
1004.685546875	1	taste	trialStart	2	109	49	foodImage.74	FOODEEG_Images\0752.jpg	NY	Right	Yes	1.20937609998509	0	514400	251
1005.73046875	2	taste	foodImageDisplay	2	109	49	foodImage.74	FOODEEG_Images\0752.jpg	NY	Right	Yes	1.20937609998509	0	514935	252
1007.794921875	1.20937609998509	taste	choicePhaseStart	2	109	49	foodImage.74	FOODEEG_Images\0752.jpg	NY	Right	Yes	1.20937609998509	0	515992	253
1008.994140625	0	taste	response	2	109	49	foodImage.74	FOODEEG_Images\0752.jpg	NY	Right	Yes	1.20937609998509	0	516606	235
1010.037109375	1	health	trialStart	2	110	50	foodImage.38	FOODEEG_Images\0365.jpg	NY	Right	Yes	1.15952979994472	0	517140	251
1011.072265625	2	health	foodImageDisplay	2	110	50	foodImage.38	FOODEEG_Images\0365.jpg	NY	Right	Yes	1.15952979994472	0	517670	252
1013.138671875	1.15952979994472	health	choicePhaseStart	2	110	50	foodImage.38	FOODEEG_Images\0365.jpg	NY	Right	Yes	1.15952979994472	0	518728	253
1014.291015625	0	health	response	2	110	50	foodImage.38	FOODEEG_Images\0365.jpg	NY	Right	Yes	1.15952979994472	0	519318	235
1015.333984375	1	health	trialStart	2	111	51	foodImage.70	FOODEEG_Images\0705.jpg	NY	Right	Yes	0.745681900007185	0	519852	251
1016.404296875	2	health	foodImageDisplay	2	111	51	foodImage.70	FOODEEG_Images\0705.jpg	NY	Right	Yes	0.745681900007185	0	520400	252
1018.466796875	0.745681900007185	health	choicePhaseStart	2	111	51	foodImage.70	FOODEEG_Images\0705.jpg	NY	Right	Yes	0.745681900007185	0	521456	253
1019.203125	0	health	response	2	111	51	foodImage.70	FOODEEG_Images\0705.jpg	NY	Right	Yes	0.745681900007185	0	521833	235
1020.244140625	1	decision	trialStart	2	112	52	foodImage.49	FOODEEG_Images\0515.jpg	NY	Right	Yes	0.935927399958018	0	522366	251
1021.287109375	2	decision	foodImageDisplay	2	112	52	foodImage.49	FOODEEG_Images\0515.jpg	NY	Right	Yes	0.935927399958018	0	522900	252
1023.35546875	0.935927399958018	decision	choicePhaseStart	2	112	52	foodImage.49	FOODEEG_Images\0515.jpg	NY	Right	Yes	0.935927399958018	0	523959	253
1024.283203125	0	decision	response	2	112	52	foodImage.49	FOODEEG_Images\0515.jpg	NY	Right	Yes	0.935927399958018	0	524434	235
1025.33203125	1	taste	trialStart	2	113	53	foodImage.113	FOODEEG_Images\0921.jpg	NY	Left	No	0.977335200004745	0	524971	251
1026.37109375	2	taste	foodImageDisplay	2	113	53	foodImage.113	FOODEEG_Images\0921.jpg	NY	Left	No	0.977335200004745	0	525503	252
1028.43359375	0.977335200004745	taste	choicePhaseStart	2	113	53	foodImage.113	FOODEEG_Images\0921.jpg	NY	Left	No	0.977335200004745	0	526559	253
1029.40234375	0	taste	response	2	113	53	foodImage.113	FOODEEG_Images\0921.jpg	NY	Left	No	0.977335200004745	0	527055	234
1030.4453125	1	decision	trialStart	2	114	54	foodImage.85	FOODEEG_Images\0841.jpg	NY	Right	Yes	1.66651309997542	0	527589	251
1031.50390625	2	decision	foodImageDisplay	2	114	54	foodImage.85	FOODEEG_Images\0841.jpg	NY	Right	Yes	1.66651309997542	0	528131	252
1033.568359375	1.66651309997542	decision	choicePhaseStart	2	114	54	foodImage.85	FOODEEG_Images\0841.jpg	NY	Right	Yes	1.66651309997542	0	529188	253
1035.2265625	0	decision	response	2	114	54	foodImage.85	FOODEEG_Images\0841.jpg	NY	Right	Yes	1.66651309997542	0	530037	235
1036.26953125	1	health	trialStart	2	115	55	foodImage.59	FOODEEG_Images\0607.jpg	NY	Left	No	1.74289930000668	0	530571	251
1037.31640625	2	health	foodImageDisplay	2	115	55	foodImage.59	FOODEEG_Images\0607.jpg	NY	Left	No	1.74289930000668	0	531107	252
1039.380859375	1.74289930000668	health	choicePhaseStart	2	115	55	foodImage.59	FOODEEG_Images\0607.jpg	NY	Left	No	1.74289930000668	0	532164	253
1041.11328125	0	health	response	2	115	55	foodImage.59	FOODEEG_Images\0607.jpg	NY	Left	No	1.74289930000668	0	533051	234
1042.15625	1	decision	trialStart	2	116	56	foodImage.16	FOODEEG_Images\0196.jpg	NY	Right	Yes	1.6700765999849	0	533585	251
1043.21484375	2	decision	foodImageDisplay	2	116	56	foodImage.16	FOODEEG_Images\0196.jpg	NY	Right	Yes	1.6700765999849	0	534127	252
1045.27734375	1.6700765999849	decision	choicePhaseStart	2	116	56	foodImage.16	FOODEEG_Images\0196.jpg	NY	Right	Yes	1.6700765999849	0	535183	253
1046.9375	0	decision	response	2	116	56	foodImage.16	FOODEEG_Images\0196.jpg	NY	Right	Yes	1.6700765999849	0	536033	235
1047.98046875	1	decision	trialStart	2	117	57	foodImage.94	FOODEEG_Images\0902.jpg	NY	Left	No	2.6876352999825	0	536567	251
1049.025390625	2	decision	foodImageDisplay	2	117	57	foodImage.94	FOODEEG_Images\0902.jpg	NY	Left	No	2.6876352999825	0	537102	252
1051.087890625	2.6876352999825	decision	choicePhaseStart	2	117	57	foodImage.94	FOODEEG_Images\0902.jpg	NY	Left	No	2.6876352999825	0	538158	253
1053.76953125	0	decision	response	2	117	57	foodImage.94	FOODEEG_Images\0902.jpg	NY	Left	No	2.6876352999825	0	539531	234
1054.8125	1	decision	trialStart	2	118	58	foodImage.110	FOODEEG_Images\0918.jpg	NY	Left	No	0.761713299958501	0	540065	251
1055.8515625	2	decision	foodImageDisplay	2	118	58	foodImage.110	FOODEEG_Images\0918.jpg	NY	Left	No	0.761713299958501	0	540597	252
1057.9140625	0.761713299958501	decision	choicePhaseStart	2	118	58	foodImage.110	FOODEEG_Images\0918.jpg	NY	Left	No	0.761713299958501	0	541653	253
1058.6640625	0	decision	response	2	118	58	foodImage.110	FOODEEG_Images\0918.jpg	NY	Left	No	0.761713299958501	0	542037	234
1059.708984375	1	decision	trialStart	2	119	59	foodImage.46	FOODEEG_Images\0479.jpg	NY	Left	No	4.39769189996878	0	542572	251
1060.7734375	2	decision	foodImageDisplay	2	119	59	foodImage.46	FOODEEG_Images\0479.jpg	NY	Left	No	4.39769189996878	0	543117	252
1062.8359375	4.39769189996878	decision	choicePhaseStart	2	119	59	foodImage.46	FOODEEG_Images\0479.jpg	NY	Left	No	4.39769189996878	0	544173	253
1067.224609375	0	decision	response	2	119	59	foodImage.46	FOODEEG_Images\0479.jpg	NY	Left	No	4.39769189996878	0	546420	234
1068.265625	1	decision	trialStart	2	120	60	foodImage.111	FOODEEG_Images\0919.jpg	YN	Left	Yes	0.777719900012016	0	546953	251
1069.3046875	2	decision	foodImageDisplay	2	120	60	foodImage.111	FOODEEG_Images\0919.jpg	YN	Left	Yes	0.777719900012016	0	547485	252
1071.369140625	0.777719900012016	decision	choicePhaseStart	2	120	60	foodImage.111	FOODEEG_Images\0919.jpg	YN	Left	Yes	0.777719900012016	0	548542	253
1072.13671875	0	decision	response	2	120	60	foodImage.111	FOODEEG_Images\0919.jpg	YN	Left	Yes	0.777719900012016	0	548935	234
1074.1796875	35.58984375	n/a	blockEnd	n/a	n/a	n/a	n/a	n/a	n/a	n/a	n/a	n/a	n/a	549981	254
1109.76953125	2	n/a	blockStart	3	n/a	n/a	n/a	n/a	n/a	n/a	n/a	n/a	n/a	568203	250
1111.802734375	1	decision	trialStart	3	121	1	foodImage.11	FOODEEG_Images\0180.jpg	NY	Right	Yes	0.809404900006484	0	569244	251
1112.845703125	2	decision	foodImageDisplay	3	121	1	foodImage.11	FOODEEG_Images\0180.jpg	NY	Right	Yes	0.809404900006484	0	569778	252
1114.91015625	0.809404900006484	decision	choicePhaseStart	3	121	1	foodImage.11	FOODEEG_Images\0180.jpg	NY	Right	Yes	0.809404900006484	0	570835	253
1115.7109375	0	decision	response	3	121	1	foodImage.11	FOODEEG_Images\0180.jpg	NY	Right	Yes	0.809404900006484	0	571245	235
1116.75390625	1	taste	trialStart	3	122	2	foodImage.111	FOODEEG_Images\0919.jpg	YN	Right	No	0.822024799999781	0	571779	251
1117.798828125	2	taste	foodImageDisplay	3	122	2	foodImage.111	FOODEEG_Images\0919.jpg	YN	Right	No	0.822024799999781	0	572314	252
1119.865234375	0.822024799999781	taste	choicePhaseStart	3	122	2	foodImage.111	FOODEEG_Images\0919.jpg	YN	Right	No	0.822024799999781	0	573372	253
1120.677734375	0	taste	response	3	122	2	foodImage.111	FOODEEG_Images\0919.jpg	YN	Right	No	0.822024799999781	0	573788	235
1121.720703125	1	health	trialStart	3	123	3	foodImage.46	FOODEEG_Images\0479.jpg	YN	Left	Yes	1.12445370003115	0	574322	251
1122.77734375	2	health	foodImageDisplay	3	123	3	foodImage.46	FOODEEG_Images\0479.jpg	YN	Left	Yes	1.12445370003115	0	574863	252
1124.84375	1.12445370003115	health	choicePhaseStart	3	123	3	foodImage.46	FOODEEG_Images\0479.jpg	YN	Left	Yes	1.12445370003115	0	575921	253
1125.958984375	0	health	response	3	123	3	foodImage.46	FOODEEG_Images\0479.jpg	YN	Left	Yes	1.12445370003115	0	576492	234
1127.001953125	1	decision	trialStart	3	124	4	foodImage.41	FOODEEG_Images\0409.jpg	YN	Right	No	2.11215669999365	0	577026	251
1128.048828125	2	decision	foodImageDisplay	3	124	4	foodImage.41	FOODEEG_Images\0409.jpg	YN	Right	No	2.11215669999365	0	577562	252
1130.111328125	2.11215669999365	decision	choicePhaseStart	3	124	4	foodImage.41	FOODEEG_Images\0409.jpg	YN	Right	No	2.11215669999365	0	578618	253
1132.21484375	0	decision	response	3	124	4	foodImage.41	FOODEEG_Images\0409.jpg	YN	Right	No	2.11215669999365	0	579695	235
1133.2578125	1	taste	trialStart	3	125	5	foodImage.18	FOODEEG_Images\0202.jpg	YN	Left	Yes	2.00208840001142	0	580229	251
1134.31640625	2	taste	foodImageDisplay	3	125	5	foodImage.18	FOODEEG_Images\0202.jpg	YN	Left	Yes	2.00208840001142	0	580771	252
1136.380859375	2.00208840001142	taste	choicePhaseStart	3	125	5	foodImage.18	FOODEEG_Images\0202.jpg	YN	Left	Yes	2.00208840001142	0	581828	253
1138.373046875	0	taste	response	3	125	5	foodImage.18	FOODEEG_Images\0202.jpg	YN	Left	Yes	2.00208840001142	0	582848	234
1139.419921875	1	health	trialStart	3	126	6	foodImage.117	FOODEEG_Images\0925.jpg	YN	Left	Yes	0.893370500009041	0	583384	251
1140.458984375	2	health	foodImageDisplay	3	126	6	foodImage.117	FOODEEG_Images\0925.jpg	YN	Left	Yes	0.893370500009041	0	583916	252
1142.521484375	0.893370500009041	health	choicePhaseStart	3	126	6	foodImage.117	FOODEEG_Images\0925.jpg	YN	Left	Yes	0.893370500009041	0	584972	253
1143.40625	0	health	response	3	126	6	foodImage.117	FOODEEG_Images\0925.jpg	YN	Left	Yes	0.893370500009041	0	585425	234
1144.451171875	1	taste	trialStart	3	127	7	foodImage.25	FOODEEG_Images\0261.jpg	YN	Left	Yes	1.12933520000661	0	585960	251
1145.4921875	2	taste	foodImageDisplay	3	127	7	foodImage.25	FOODEEG_Images\0261.jpg	YN	Left	Yes	1.12933520000661	0	586493	252
1147.5546875	1.12933520000661	taste	choicePhaseStart	3	127	7	foodImage.25	FOODEEG_Images\0261.jpg	YN	Left	Yes	1.12933520000661	0	587549	253
1148.677734375	0	taste	response	3	127	7	foodImage.25	FOODEEG_Images\0261.jpg	YN	Left	Yes	1.12933520000661	0	588124	234
1149.720703125	1	decision	trialStart	3	128	8	foodImage.36	FOODEEG_Images\0352.jpg	NY	Right	Yes	1.59612180001568	0	588658	251
1150.779296875	2	decision	foodImageDisplay	3	128	8	foodImage.36	FOODEEG_Images\0352.jpg	NY	Right	Yes	1.59612180001568	0	589200	252
1152.841796875	1.59612180001568	decision	choicePhaseStart	3	128	8	foodImage.36	FOODEEG_Images\0352.jpg	NY	Right	Yes	1.59612180001568	0	590256	253
1154.4296875	0	decision	response	3	128	8	foodImage.36	FOODEEG_Images\0352.jpg	NY	Right	Yes	1.59612180001568	0	591069	235
1155.47265625	1	health	trialStart	3	129	9	foodImage.71	FOODEEG_Images\0713.jpg	YN	Right	No	1.07089010003256	0	591603	251
1156.52734375	2	health	foodImageDisplay	3	129	9	foodImage.71	FOODEEG_Images\0713.jpg	YN	Right	No	1.07089010003256	0	592143	252
1158.591796875	1.07089010003256	health	choicePhaseStart	3	129	9	foodImage.71	FOODEEG_Images\0713.jpg	YN	Right	No	1.07089010003256	0	593200	253
1159.65234375	0	health	response	3	129	9	foodImage.71	FOODEEG_Images\0713.jpg	YN	Right	No	1.07089010003256	0	593743	235
1160.6953125	1	taste	trialStart	3	130	10	foodImage.103	FOODEEG_Images\0911.jpg	NY	Left	No	1.21758840000257	0	594277	251
1161.734375	2	taste	foodImageDisplay	3	130	10	foodImage.103	FOODEEG_Images\0911.jpg	NY	Left	No	1.21758840000257	0	594809	252
1163.796875	1.21758840000257	taste	choicePhaseStart	3	130	10	foodImage.103	FOODEEG_Images\0911.jpg	NY	Left	No	1.21758840000257	0	595865	253
1165.005859375	0	taste	response	3	130	10	foodImage.103	FOODEEG_Images\0911.jpg	NY	Left	No	1.21758840000257	0	596484	234
1166.048828125	1	health	trialStart	3	131	11	foodImage.16	FOODEEG_Images\0196.jpg	YN	Left	Yes	1.12465710000833	0	597018	251
1167.12109375	2	health	foodImageDisplay	3	131	11	foodImage.16	FOODEEG_Images\0196.jpg	YN	Left	Yes	1.12465710000833	0	597567	252
1169.185546875	1.12465710000833	health	choicePhaseStart	3	131	11	foodImage.16	FOODEEG_Images\0196.jpg	YN	Left	Yes	1.12465710000833	0	598624	253
1170.30078125	0	health	response	3	131	11	foodImage.16	FOODEEG_Images\0196.jpg	YN	Left	Yes	1.12465710000833	0	599195	234
1171.34375	1	health	trialStart	3	132	12	foodImage.62	FOODEEG_Images\0644.jpg	YN	Left	Yes	1.09567099995911	0	599729	251
1172.400390625	2	health	foodImageDisplay	3	132	12	foodImage.62	FOODEEG_Images\0644.jpg	YN	Left	Yes	1.09567099995911	0	600270	252
1174.4609375	1.09567099995911	health	choicePhaseStart	3	132	12	foodImage.62	FOODEEG_Images\0644.jpg	YN	Left	Yes	1.09567099995911	0	601325	253
1175.548828125	0	health	response	3	132	12	foodImage.62	FOODEEG_Images\0644.jpg	YN	Left	Yes	1.09567099995911	0	601882	234
1176.591796875	1	decision	trialStart	3	133	13	foodImage.103	FOODEEG_Images\0911.jpg	NY	Left	No	3.77501479996135	0	602416	251
1177.630859375	2	decision	foodImageDisplay	3	133	13	foodImage.103	FOODEEG_Images\0911.jpg	NY	Left	No	3.77501479996135	0	602948	252
1179.693359375	3.77501479996135	decision	choicePhaseStart	3	133	13	foodImage.103	FOODEEG_Images\0911.jpg	NY	Left	No	3.77501479996135	0	604004	253
1183.4609375	0	decision	response	3	133	13	foodImage.103	FOODEEG_Images\0911.jpg	NY	Left	No	3.77501479996135	0	605933	234
1184.50390625	1	taste	trialStart	3	134	14	foodImage.49	FOODEEG_Images\0515.jpg	YN	Right	No	1.76254490000429	0	606467	251
1185.548828125	2	taste	foodImageDisplay	3	134	14	foodImage.49	FOODEEG_Images\0515.jpg	YN	Right	No	1.76254490000429	0	607002	252
1187.611328125	1.76254490000429	taste	choicePhaseStart	3	134	14	foodImage.49	FOODEEG_Images\0515.jpg	YN	Right	No	1.76254490000429	0	608058	253
1189.36328125	0	taste	response	3	134	14	foodImage.49	FOODEEG_Images\0515.jpg	YN	Right	No	1.76254490000429	0	608955	235
1190.408203125	1	health	trialStart	3	135	15	foodImage.55	FOODEEG_Images\0567.jpg	NY	Right	Yes	1.30364090000512	0	609490	251
1191.478515625	2	health	foodImageDisplay	3	135	15	foodImage.55	FOODEEG_Images\0567.jpg	NY	Right	Yes	1.30364090000512	0	610038	252
1193.541015625	1.30364090000512	health	choicePhaseStart	3	135	15	foodImage.55	FOODEEG_Images\0567.jpg	NY	Right	Yes	1.30364090000512	0	611094	253
1194.8359375	0	health	response	3	135	15	foodImage.55	FOODEEG_Images\0567.jpg	NY	Right	Yes	1.30364090000512	0	611757	235
1195.87890625	1	decision	trialStart	3	136	16	foodImage.107	FOODEEG_Images\0915.jpg	NY	Left	No	3.92828890000237	0	612291	251
1196.91796875	2	decision	foodImageDisplay	3	136	16	foodImage.107	FOODEEG_Images\0915.jpg	NY	Left	No	3.92828890000237	0	612823	252
1198.98046875	3.92828890000237	decision	choicePhaseStart	3	136	16	foodImage.107	FOODEEG_Images\0915.jpg	NY	Left	No	3.92828890000237	0	613879	253
1202.8984375	0	decision	response	3	136	16	foodImage.107	FOODEEG_Images\0915.jpg	NY	Left	No	3.92828890000237	0	615885	234
1203.943359375	1	decision	trialStart	3	137	17	foodImage.65	FOODEEG_Images\0658.jpg	NY	Left	No	1.38419440004509	0	616420	251
1204.986328125	2	decision	foodImageDisplay	3	137	17	foodImage.65	FOODEEG_Images\0658.jpg	NY	Left	No	1.38419440004509	0	616954	252
1207.05078125	1.38419440004509	decision	choicePhaseStart	3	137	17	foodImage.65	FOODEEG_Images\0658.jpg	NY	Left	No	1.38419440004509	0	618011	253
1208.427734375	0	decision	response	3	137	17	foodImage.65	FOODEEG_Images\0658.jpg	NY	Left	No	1.38419440004509	0	618716	234
1209.470703125	1	decision	trialStart	3	138	18	foodImage.47	FOODEEG_Images\0488.jpg	YN	Left	Yes	1.05360719998134	0	619250	251
1210.509765625	2	decision	foodImageDisplay	3	138	18	foodImage.47	FOODEEG_Images\0488.jpg	YN	Left	Yes	1.05360719998134	0	619782	252
1212.57421875	1.05360719998134	decision	choicePhaseStart	3	138	18	foodImage.47	FOODEEG_Images\0488.jpg	YN	Left	Yes	1.05360719998134	0	620839	253
1213.619140625	0	decision	response	3	138	18	foodImage.47	FOODEEG_Images\0488.jpg	YN	Left	Yes	1.05360719998134	0	621374	234
1214.662109375	1	health	trialStart	3	139	19	foodImage.17	FOODEEG_Images\0199.jpg	NY	Right	Yes	1.34049740002956	0	621908	251
1215.703125	2	health	foodImageDisplay	3	139	19	foodImage.17	FOODEEG_Images\0199.jpg	NY	Right	Yes	1.34049740002956	0	622441	252
1217.767578125	1.34049740002956	health	choicePhaseStart	3	139	19	foodImage.17	FOODEEG_Images\0199.jpg	NY	Right	Yes	1.34049740002956	0	623498	253
1219.099609375	0	health	response	3	139	19	foodImage.17	FOODEEG_Images\0199.jpg	NY	Right	Yes	1.34049740002956	0	624180	235
1220.142578125	1	decision	trialStart	3	140	20	foodImage.84	FOODEEG_Images\0830.jpg	NY	Right	Yes	0.627177999995183	0	624714	251
1221.205078125	2	decision	foodImageDisplay	3	140	20	foodImage.84	FOODEEG_Images\0830.jpg	NY	Right	Yes	0.627177999995183	0	625258	252
1223.26953125	0.627177999995183	decision	choicePhaseStart	3	140	20	foodImage.84	FOODEEG_Images\0830.jpg	NY	Right	Yes	0.627177999995183	0	626315	253
1223.890625	0	decision	response	3	140	20	foodImage.84	FOODEEG_Images\0830.jpg	NY	Right	Yes	0.627177999995183	0	626633	235
1224.93359375	1	decision	trialStart	3	141	21	foodImage.76	FOODEEG_Images\0766.jpg	NY	Left	No	7.94210899999598	1	627167	251
1225.974609375	2	decision	foodImageDisplay	3	141	21	foodImage.76	FOODEEG_Images\0766.jpg	NY	Left	No	7.94210899999598	1	627700	252
1228.037109375	7.94210899999598	decision	choicePhaseStart	3	141	21	foodImage.76	FOODEEG_Images\0766.jpg	NY	Left	No	7.94210899999598	1	628756	253
1235.970703125	0	decision	response	3	141	21	foodImage.76	FOODEEG_Images\0766.jpg	NY	Left	No	7.94210899999598	1	632818	234
1237.013671875	1	decision	trialStart	3	142	22	foodImage.26	FOODEEG_Images\0262.jpg	NY	Left	No	1.49195029999828	0	633352	251
1238.0546875	2	decision	foodImageDisplay	3	142	22	foodImage.26	FOODEEG_Images\0262.jpg	NY	Left	No	1.49195029999828	0	633885	252
1240.126953125	1.49195029999828	decision	choicePhaseStart	3	142	22	foodImage.26	FOODEEG_Images\0262.jpg	NY	Left	No	1.49195029999828	0	634946	253
1241.609375	0	decision	response	3	142	22	foodImage.26	FOODEEG_Images\0262.jpg	NY	Left	No	1.49195029999828	0	635705	234
1242.654296875	1	decision	trialStart	3	143	23	foodImage.120	FOODEEG_Images\0928.jpg	NY	Left	No	2.40416490001371	0	636240	251
1243.693359375	2	decision	foodImageDisplay	3	143	23	foodImage.120	FOODEEG_Images\0928.jpg	NY	Left	No	2.40416490001371	0	636772	252
1245.765625	2.40416490001371	decision	choicePhaseStart	3	143	23	foodImage.120	FOODEEG_Images\0928.jpg	NY	Left	No	2.40416490001371	0	637833	253
1248.162109375	0	decision	response	3	143	23	foodImage.120	FOODEEG_Images\0928.jpg	NY	Left	No	2.40416490001371	0	639060	234
1249.205078125	1	decision	trialStart	3	144	24	foodImage.89	FOODEEG_Images\0881.jpg	NY	Left	No	2.45438100001775	0	639594	251
1250.26171875	2	decision	foodImageDisplay	3	144	24	foodImage.89	FOODEEG_Images\0881.jpg	NY	Left	No	2.45438100001775	0	640135	252
1252.32421875	2.45438100001775	decision	choicePhaseStart	3	144	24	foodImage.89	FOODEEG_Images\0881.jpg	NY	Left	No	2.45438100001775	0	641191	253
1254.76953125	0	decision	response	3	144	24	foodImage.89	FOODEEG_Images\0881.jpg	NY	Left	No	2.45438100001775	0	642443	234
1255.8125	1	health	trialStart	3	145	25	foodImage.25	FOODEEG_Images\0261.jpg	YN	Right	No	3.46892140002456	0	642977	251
1256.853515625	2	health	foodImageDisplay	3	145	25	foodImage.25	FOODEEG_Images\0261.jpg	YN	Right	No	3.46892140002456	0	643510	252
1258.916015625	3.46892140002456	health	choicePhaseStart	3	145	25	foodImage.25	FOODEEG_Images\0261.jpg	YN	Right	No	3.46892140002456	0	644566	253
1262.376953125	0	health	response	3	145	25	foodImage.25	FOODEEG_Images\0261.jpg	YN	Right	No	3.46892140002456	0	646338	235
1263.419921875	1	decision	trialStart	3	146	26	foodImage.83	FOODEEG_Images\0827.jpg	YN	Left	Yes	1.33491559996037	0	646872	251
1264.474609375	2	decision	foodImageDisplay	3	146	26	foodImage.83	FOODEEG_Images\0827.jpg	YN	Left	Yes	1.33491559996037	0	647412	252
1266.5390625	1.33491559996037	decision	choicePhaseStart	3	146	26	foodImage.83	FOODEEG_Images\0827.jpg	YN	Left	Yes	1.33491559996037	0	648469	253
1267.865234375	0	decision	response	3	146	26	foodImage.83	FOODEEG_Images\0827.jpg	YN	Left	Yes	1.33491559996037	0	649148	234
1268.912109375	1	health	trialStart	3	147	27	foodImage.40	FOODEEG_Images\0373.jpg	NY	Left	No	1.08959759998834	0	649684	251
1269.955078125	2	health	foodImageDisplay	3	147	27	foodImage.40	FOODEEG_Images\0373.jpg	NY	Left	No	1.08959759998834	0	650218	252
1272.017578125	1.08959759998834	health	choicePhaseStart	3	147	27	foodImage.40	FOODEEG_Images\0373.jpg	NY	Left	No	1.08959759998834	0	651274	253
1273.09765625	0	health	response	3	147	27	foodImage.40	FOODEEG_Images\0373.jpg	NY	Left	No	1.08959759998834	0	651827	234
1274.140625	1	health	trialStart	3	148	28	foodImage.33	FOODEEG_Images\0329.jpg	YN	Left	Yes	1.56175599998096	0	652361	251
1275.181640625	2	health	foodImageDisplay	3	148	28	foodImage.33	FOODEEG_Images\0329.jpg	YN	Left	Yes	1.56175599998096	0	652894	252
1277.24609375	1.56175599998096	health	choicePhaseStart	3	148	28	foodImage.33	FOODEEG_Images\0329.jpg	YN	Left	Yes	1.56175599998096	0	653951	253
1278.80078125	0	health	response	3	148	28	foodImage.33	FOODEEG_Images\0329.jpg	YN	Left	Yes	1.56175599998096	0	654747	234
1279.84375	1	decision	trialStart	3	149	29	foodImage.23	FOODEEG_Images\0244.jpg	NY	Left	No	3.37267199996859	0	655281	251
1280.8828125	2	decision	foodImageDisplay	3	149	29	foodImage.23	FOODEEG_Images\0244.jpg	NY	Left	No	3.37267199996859	0	655813	252
1282.94921875	3.37267199996859	decision	choicePhaseStart	3	149	29	foodImage.23	FOODEEG_Images\0244.jpg	NY	Left	No	3.37267199996859	0	656871	253
1286.3125	0	decision	response	3	149	29	foodImage.23	FOODEEG_Images\0244.jpg	NY	Left	No	3.37267199996859	0	658593	234
1287.35546875	1	decision	trialStart	3	150	30	foodImage.80	FOODEEG_Images\0796.jpg	YN	Left	Yes	2.58229910000227	0	659127	251
1288.419921875	2	decision	foodImageDisplay	3	150	30	foodImage.80	FOODEEG_Images\0796.jpg	YN	Left	Yes	2.58229910000227	0	659672	252
1290.482421875	2.58229910000227	decision	choicePhaseStart	3	150	30	foodImage.80	FOODEEG_Images\0796.jpg	YN	Left	Yes	2.58229910000227	0	660728	253
1293.056640625	0	decision	response	3	150	30	foodImage.80	FOODEEG_Images\0796.jpg	YN	Left	Yes	2.58229910000227	0	662046	234
1294.099609375	1	health	trialStart	3	151	31	foodImage.94	FOODEEG_Images\0902.jpg	YN	Right	No	11.4726413000026	1	662580	251
1295.13671875	2	health	foodImageDisplay	3	151	31	foodImage.94	FOODEEG_Images\0902.jpg	YN	Right	No	11.4726413000026	1	663111	252
1297.19921875	11.4726413000026	health	choicePhaseStart	3	151	31	foodImage.94	FOODEEG_Images\0902.jpg	YN	Right	No	11.4726413000026	1	664167	253
1308.6640625	0	health	response	3	151	31	foodImage.94	FOODEEG_Images\0902.jpg	YN	Right	No	11.4726413000026	1	670037	235
1309.70703125	1	health	trialStart	3	152	32	foodImage.3	FOODEEG_Images\0046.jpg	NY	Left	No	2.27543169999262	0	670571	251
1310.755859375	2	health	foodImageDisplay	3	152	32	foodImage.3	FOODEEG_Images\0046.jpg	NY	Left	No	2.27543169999262	0	671108	252
1312.8203125	2.27543169999262	health	choicePhaseStart	3	152	32	foodImage.3	FOODEEG_Images\0046.jpg	NY	Left	No	2.27543169999262	0	672165	253
1315.087890625	0	health	response	3	152	32	foodImage.3	FOODEEG_Images\0046.jpg	NY	Left	No	2.27543169999262	0	673326	234
1316.130859375	1	health	trialStart	3	153	33	foodImage.28	FOODEEG_Images\0273.jpg	NY	Right	Yes	1.76245199999539	0	673860	251
1317.173828125	2	health	foodImageDisplay	3	153	33	foodImage.28	FOODEEG_Images\0273.jpg	NY	Right	Yes	1.76245199999539	0	674394	252
1319.23828125	1.76245199999539	health	choicePhaseStart	3	153	33	foodImage.28	FOODEEG_Images\0273.jpg	NY	Right	Yes	1.76245199999539	0	675451	253
1320.990234375	0	health	response	3	153	33	foodImage.28	FOODEEG_Images\0273.jpg	NY	Right	Yes	1.76245199999539	0	676348	235
1322.03515625	1	health	trialStart	3	154	34	foodImage.18	FOODEEG_Images\0202.jpg	YN	Left	Yes	0.923098400002345	0	676883	251
1323.09375	2	health	foodImageDisplay	3	154	34	foodImage.18	FOODEEG_Images\0202.jpg	YN	Left	Yes	0.923098400002345	0	677425	252
1325.15625	0.923098400002345	health	choicePhaseStart	3	154	34	foodImage.18	FOODEEG_Images\0202.jpg	YN	Left	Yes	0.923098400002345	0	678481	253
1326.0703125	0	health	response	3	154	34	foodImage.18	FOODEEG_Images\0202.jpg	YN	Left	Yes	0.923098400002345	0	678949	234
1327.11328125	1	health	trialStart	3	155	35	foodImage.45	FOODEEG_Images\0478.jpg	NY	Right	Yes	1.52740059996722	0	679483	251
1328.16015625	2	health	foodImageDisplay	3	155	35	foodImage.45	FOODEEG_Images\0478.jpg	NY	Right	Yes	1.52740059996722	0	680019	252
1330.224609375	1.52740059996722	health	choicePhaseStart	3	155	35	foodImage.45	FOODEEG_Images\0478.jpg	NY	Right	Yes	1.52740059996722	0	681076	253
1331.7421875	0	health	response	3	155	35	foodImage.45	FOODEEG_Images\0478.jpg	NY	Right	Yes	1.52740059996722	0	681853	235
1332.787109375	1	decision	trialStart	3	156	36	foodImage.35	FOODEEG_Images\0350.jpg	NY	Left	No	4.59734169999138	0	682388	251
1333.826171875	2	decision	foodImageDisplay	3	156	36	foodImage.35	FOODEEG_Images\0350.jpg	NY	Left	No	4.59734169999138	0	682920	252
1335.890625	4.59734169999138	decision	choicePhaseStart	3	156	36	foodImage.35	FOODEEG_Images\0350.jpg	NY	Left	No	4.59734169999138	0	683977	253
1340.478515625	0	decision	response	3	156	36	foodImage.35	FOODEEG_Images\0350.jpg	NY	Left	No	4.59734169999138	0	686326	234
1341.51953125	1	taste	trialStart	3	157	37	foodImage.42	FOODEEG_Images\0438.jpg	YN	Left	Yes	2.39375240000663	0	686859	251
1342.603515625	2	taste	foodImageDisplay	3	157	37	foodImage.42	FOODEEG_Images\0438.jpg	YN	Left	Yes	2.39375240000663	0	687414	252
1344.666015625	2.39375240000663	taste	choicePhaseStart	3	157	37	foodImage.42	FOODEEG_Images\0438.jpg	YN	Left	Yes	2.39375240000663	0	688470	253
1347.0546875	0	taste	response	3	157	37	foodImage.42	FOODEEG_Images\0438.jpg	YN	Left	Yes	2.39375240000663	0	689693	234
1348.09765625	1	health	trialStart	3	158	38	foodImage.104	FOODEEG_Images\0912.jpg	NY	Left	No	9.33432009996613	1	690227	251
1349.138671875	2	health	foodImageDisplay	3	158	38	foodImage.104	FOODEEG_Images\0912.jpg	NY	Left	No	9.33432009996613	1	690760	252
1351.201171875	9.33432009996613	health	choicePhaseStart	3	158	38	foodImage.104	FOODEEG_Images\0912.jpg	NY	Left	No	9.33432009996613	1	691816	253
1360.525390625	0	health	response	3	158	38	foodImage.104	FOODEEG_Images\0912.jpg	NY	Left	No	9.33432009996613	1	696590	234
1361.568359375	1	decision	trialStart	3	159	39	foodImage.44	FOODEEG_Images\0459.jpg	NY	Left	No	6.92329839995364	1	697124	251
1362.61328125	2	decision	foodImageDisplay	3	159	39	foodImage.44	FOODEEG_Images\0459.jpg	NY	Left	No	6.92329839995364	1	697659	252
1364.67578125	6.92329839995364	decision	choicePhaseStart	3	159	39	foodImage.44	FOODEEG_Images\0459.jpg	NY	Left	No	6.92329839995364	1	698715	253
1371.58984375	0	decision	response	3	159	39	foodImage.44	FOODEEG_Images\0459.jpg	NY	Left	No	6.92329839995364	1	702255	234
1372.630859375	1	decision	trialStart	3	160	40	foodImage.75	FOODEEG_Images\0763.jpg	NY	Right	Yes	1.14029000001028	0	702788	251
1373.67578125	2	decision	foodImageDisplay	3	160	40	foodImage.75	FOODEEG_Images\0763.jpg	NY	Right	Yes	1.14029000001028	0	703323	252
1375.73828125	1.14029000001028	decision	choicePhaseStart	3	160	40	foodImage.75	FOODEEG_Images\0763.jpg	NY	Right	Yes	1.14029000001028	0	704379	253
1376.869140625	0	decision	response	3	160	40	foodImage.75	FOODEEG_Images\0763.jpg	NY	Right	Yes	1.14029000001028	0	704958	235
1377.912109375	1	decision	trialStart	3	161	41	foodImage.30	FOODEEG_Images\0282.jpg	NY	Left	No	3.67384860001039	0	705492	251
1378.96484375	2	decision	foodImageDisplay	3	161	41	foodImage.30	FOODEEG_Images\0282.jpg	NY	Left	No	3.67384860001039	0	706031	252
1381.029296875	3.67384860001039	decision	choicePhaseStart	3	161	41	foodImage.30	FOODEEG_Images\0282.jpg	NY	Left	No	3.67384860001039	0	707088	253
1384.693359375	0	decision	response	3	161	41	foodImage.30	FOODEEG_Images\0282.jpg	NY	Left	No	3.67384860001039	0	708964	234
1385.734375	1	health	trialStart	3	162	42	foodImage.118	FOODEEG_Images\0926.jpg	NY	Left	No	1.27931050001644	0	709497	251
1386.78125	2	health	foodImageDisplay	3	162	42	foodImage.118	FOODEEG_Images\0926.jpg	NY	Left	No	1.27931050001644	0	710033	252
1388.845703125	1.27931050001644	health	choicePhaseStart	3	162	42	foodImage.118	FOODEEG_Images\0926.jpg	NY	Left	No	1.27931050001644	0	711090	253
1390.115234375	0	health	response	3	162	42	foodImage.118	FOODEEG_Images\0926.jpg	NY	Left	No	1.27931050001644	0	711740	234
1391.158203125	1	taste	trialStart	3	163	43	foodImage.96	FOODEEG_Images\0904.jpg	NY	Left	No	1.54433449998032	0	712274	251
1392.197265625	2	taste	foodImageDisplay	3	163	43	foodImage.96	FOODEEG_Images\0904.jpg	NY	Left	No	1.54433449998032	0	712806	252
1394.26171875	1.54433449998032	taste	choicePhaseStart	3	163	43	foodImage.96	FOODEEG_Images\0904.jpg	NY	Left	No	1.54433449998032	0	713863	253
1395.796875	0	taste	response	3	163	43	foodImage.96	FOODEEG_Images\0904.jpg	NY	Left	No	1.54433449998032	0	714649	234
1396.83984375	1	health	trialStart	3	164	44	foodImage.4	FOODEEG_Images\0065.jpg	NY	Left	No	0.983910600014497	0	715183	251
1397.8984375	2	health	foodImageDisplay	3	164	44	foodImage.4	FOODEEG_Images\0065.jpg	NY	Left	No	0.983910600014497	0	715725	252
1399.96484375	0.983910600014497	health	choicePhaseStart	3	164	44	foodImage.4	FOODEEG_Images\0065.jpg	NY	Left	No	0.983910600014497	0	716783	253
1400.939453125	0	health	response	3	164	44	foodImage.4	FOODEEG_Images\0065.jpg	NY	Left	No	0.983910600014497	0	717282	234
1401.982421875	1	health	trialStart	3	165	45	foodImage.47	FOODEEG_Images\0488.jpg	YN	Right	No	1.06623149994994	0	717816	251
1403.025390625	2	health	foodImageDisplay	3	165	45	foodImage.47	FOODEEG_Images\0488.jpg	YN	Right	No	1.06623149994994	0	718350	252
1405.08984375	1.06623149994994	health	choicePhaseStart	3	165	45	foodImage.47	FOODEEG_Images\0488.jpg	YN	Right	No	1.06623149994994	0	719407	253
1406.1484375	0	health	response	3	165	45	foodImage.47	FOODEEG_Images\0488.jpg	YN	Right	No	1.06623149994994	0	719949	235
1407.19140625	1	health	trialStart	3	166	46	foodImage.113	FOODEEG_Images\0921.jpg	YN	Right	No	7.40881569997873	1	720483	251
1408.228515625	2	health	foodImageDisplay	3	166	46	foodImage.113	FOODEEG_Images\0921.jpg	YN	Right	No	7.40881569997873	1	721014	252
1410.29296875	7.40881569997873	health	choicePhaseStart	3	166	46	foodImage.113	FOODEEG_Images\0921.jpg	YN	Right	No	7.40881569997873	1	722071	253
1417.69140625	0	health	response	3	166	46	foodImage.113	FOODEEG_Images\0921.jpg	YN	Right	No	7.40881569997873	1	725859	235
1418.73828125	1	health	trialStart	3	167	47	foodImage.35	FOODEEG_Images\0350.jpg	NY	Left	No	1.20418549998431	0	726395	251
1419.775390625	2	health	foodImageDisplay	3	167	47	foodImage.35	FOODEEG_Images\0350.jpg	NY	Left	No	1.20418549998431	0	726926	252
1421.83984375	1.20418549998431	health	choicePhaseStart	3	167	47	foodImage.35	FOODEEG_Images\0350.jpg	NY	Left	No	1.20418549998431	0	727983	253
1423.03515625	0	health	response	3	167	47	foodImage.35	FOODEEG_Images\0350.jpg	NY	Left	No	1.20418549998431	0	728595	234
1424.078125	1	taste	trialStart	3	168	48	foodImage.94	FOODEEG_Images\0902.jpg	YN	Right	No	1.02764200000092	0	729129	251
1425.12109375	2	taste	foodImageDisplay	3	168	48	foodImage.94	FOODEEG_Images\0902.jpg	YN	Right	No	1.02764200000092	0	729663	252
1427.185546875	1.02764200000092	taste	choicePhaseStart	3	168	48	foodImage.94	FOODEEG_Images\0902.jpg	YN	Right	No	1.02764200000092	0	730720	253
1428.203125	0	taste	response	3	168	48	foodImage.94	FOODEEG_Images\0902.jpg	YN	Right	No	1.02764200000092	0	731241	235
1429.24609375	1	health	trialStart	3	169	49	foodImage.2	FOODEEG_Images\0028.jpg	NY	Left	No	1.03819870000007	0	731775	251
1430.287109375	2	health	foodImageDisplay	3	169	49	foodImage.2	FOODEEG_Images\0028.jpg	NY	Left	No	1.03819870000007	0	732308	252
1432.349609375	1.03819870000007	health	choicePhaseStart	3	169	49	foodImage.2	FOODEEG_Images\0028.jpg	NY	Left	No	1.03819870000007	0	733364	253
1433.37890625	0	health	response	3	169	49	foodImage.2	FOODEEG_Images\0028.jpg	NY	Left	No	1.03819870000007	0	733891	234
1434.421875	1	health	trialStart	3	170	50	foodImage.63	FOODEEG_Images\0645.jpg	YN	Right	No	7.79007690004073	1	734425	251
1435.466796875	2	health	foodImageDisplay	3	170	50	foodImage.63	FOODEEG_Images\0645.jpg	YN	Right	No	7.79007690004073	1	734960	252
1437.53125	7.79007690004073	health	choicePhaseStart	3	170	50	foodImage.63	FOODEEG_Images\0645.jpg	YN	Right	No	7.79007690004073	1	736017	253
1445.314453125	0	health	response	3	170	50	foodImage.63	FOODEEG_Images\0645.jpg	YN	Right	No	7.79007690004073	1	740002	235
1446.357421875	1	taste	trialStart	3	171	51	foodImage.44	FOODEEG_Images\0459.jpg	YN	Right	No	7.48791949998122	1	740536	251
1447.408203125	2	taste	foodImageDisplay	3	171	51	foodImage.44	FOODEEG_Images\0459.jpg	YN	Right	No	7.48791949998122	1	741074	252
1449.47265625	7.48791949998122	taste	choicePhaseStart	3	171	51	foodImage.44	FOODEEG_Images\0459.jpg	YN	Right	No	7.48791949998122	1	742131	253
1456.953125	0	taste	response	3	171	51	foodImage.44	FOODEEG_Images\0459.jpg	YN	Right	No	7.48791949998122	1	745961	235
1458	1	health	trialStart	3	172	52	foodImage.105	FOODEEG_Images\0913.jpg	NY	Left	No	1.60722020000685	0	746497	251
1459.037109375	2	health	foodImageDisplay	3	172	52	foodImage.105	FOODEEG_Images\0913.jpg	NY	Left	No	1.60722020000685	0	747028	252
1461.099609375	1.60722020000685	health	choicePhaseStart	3	172	52	foodImage.105	FOODEEG_Images\0913.jpg	NY	Left	No	1.60722020000685	0	748084	253
1462.697265625	0	health	response	3	172	52	foodImage.105	FOODEEG_Images\0913.jpg	NY	Left	No	1.60722020000685	0	748902	234
1463.740234375	1	decision	trialStart	3	173	53	foodImage.72	FOODEEG_Images\0714.jpg	NY	Left	No	0.859092900005635	0	749436	251
1464.78515625	2	decision	foodImageDisplay	3	173	53	foodImage.72	FOODEEG_Images\0714.jpg	NY	Left	No	0.859092900005635	0	749971	252
1466.84765625	0.859092900005635	decision	choicePhaseStart	3	173	53	foodImage.72	FOODEEG_Images\0714.jpg	NY	Left	No	0.859092900005635	0	751027	253
1467.697265625	0	decision	response	3	173	53	foodImage.72	FOODEEG_Images\0714.jpg	NY	Left	No	0.859092900005635	0	751462	234
1468.740234375	1	health	trialStart	3	174	54	foodImage.96	FOODEEG_Images\0904.jpg	NY	Left	No	1.3517863000161	0	751996	251
1469.78515625	2	health	foodImageDisplay	3	174	54	foodImage.96	FOODEEG_Images\0904.jpg	NY	Left	No	1.3517863000161	0	752531	252
1471.849609375	1.3517863000161	health	choicePhaseStart	3	174	54	foodImage.96	FOODEEG_Images\0904.jpg	NY	Left	No	1.3517863000161	0	753588	253
1473.193359375	0	health	response	3	174	54	foodImage.96	FOODEEG_Images\0904.jpg	NY	Left	No	1.3517863000161	0	754276	234
1474.2421875	1	decision	trialStart	3	175	55	foodImage.20	FOODEEG_Images\0226.jpg	YN	Left	Yes	1.02069869998377	0	754813	251
1475.283203125	2	decision	foodImageDisplay	3	175	55	foodImage.20	FOODEEG_Images\0226.jpg	YN	Left	Yes	1.02069869998377	0	755346	252
1477.345703125	1.02069869998377	decision	choicePhaseStart	3	175	55	foodImage.20	FOODEEG_Images\0226.jpg	YN	Left	Yes	1.02069869998377	0	756402	253
1478.361328125	0	decision	response	3	175	55	foodImage.20	FOODEEG_Images\0226.jpg	YN	Left	Yes	1.02069869998377	0	756922	234
1479.404296875	1	taste	trialStart	3	176	56	foodImage.16	FOODEEG_Images\0196.jpg	NY	Left	No	2.03328219999094	0	757456	251
1480.462890625	2	taste	foodImageDisplay	3	176	56	foodImage.16	FOODEEG_Images\0196.jpg	NY	Left	No	2.03328219999094	0	757998	252
1482.52734375	2.03328219999094	taste	choicePhaseStart	3	176	56	foodImage.16	FOODEEG_Images\0196.jpg	NY	Left	No	2.03328219999094	0	759055	253
1484.552734375	0	taste	response	3	176	56	foodImage.16	FOODEEG_Images\0196.jpg	NY	Left	No	2.03328219999094	0	760092	234
1485.595703125	1	health	trialStart	3	177	57	foodImage.114	FOODEEG_Images\0922.jpg	NY	Left	No	0.767321499995887	0	760626	251
1486.634765625	2	health	foodImageDisplay	3	177	57	foodImage.114	FOODEEG_Images\0922.jpg	NY	Left	No	0.767321499995887	0	761158	252
1488.697265625	0.767321499995887	health	choicePhaseStart	3	177	57	foodImage.114	FOODEEG_Images\0922.jpg	NY	Left	No	0.767321499995887	0	762214	253
1489.45703125	0	health	response	3	177	57	foodImage.114	FOODEEG_Images\0922.jpg	NY	Left	No	0.767321499995887	0	762603	234
1490.5	1	taste	trialStart	3	178	58	foodImage.10	FOODEEG_Images\0145.jpg	YN	Right	No	1.97543140000198	0	763137	251
1491.5546875	2	taste	foodImageDisplay	3	178	58	foodImage.10	FOODEEG_Images\0145.jpg	YN	Right	No	1.97543140000198	0	763677	252
1493.6171875	1.97543140000198	taste	choicePhaseStart	3	178	58	foodImage.10	FOODEEG_Images\0145.jpg	YN	Right	No	1.97543140000198	0	764733	253
1495.583984375	0	taste	response	3	178	58	foodImage.10	FOODEEG_Images\0145.jpg	YN	Right	No	1.97543140000198	0	765740	235
1496.630859375	1	taste	trialStart	3	179	59	foodImage.21	FOODEEG_Images\0234.jpg	YN	Left	Yes	0.840907599951606	0	766276	251
1497.6875	2	taste	foodImageDisplay	3	179	59	foodImage.21	FOODEEG_Images\0234.jpg	YN	Left	Yes	0.840907599951606	0	766817	252
1499.751953125	0.840907599951606	taste	choicePhaseStart	3	179	59	foodImage.21	FOODEEG_Images\0234.jpg	YN	Left	Yes	0.840907599951606	0	767874	253
1500.583984375	0	taste	response	3	179	59	foodImage.21	FOODEEG_Images\0234.jpg	YN	Left	Yes	0.840907599951606	0	768300	234
1501.626953125	1	decision	trialStart	3	180	60	foodImage.64	FOODEEG_Images\0647.jpg	YN	Right	No	0.938282499962952	0	768834	251
1502.6875	2	decision	foodImageDisplay	3	180	60	foodImage.64	FOODEEG_Images\0647.jpg	YN	Right	No	0.938282499962952	0	769377	252
1504.75	0.938282499962952	decision	choicePhaseStart	3	180	60	foodImage.64	FOODEEG_Images\0647.jpg	YN	Right	No	0.938282499962952	0	770433	253
1505.6796875	0	decision	response	3	180	60	foodImage.64	FOODEEG_Images\0647.jpg	YN	Right	No	0.938282499962952	0	770909	235
1507.724609375	114.9296875	n/a	blockEnd	n/a	n/a	n/a	n/a	n/a	n/a	n/a	n/a	n/a	n/a	771956	254
1622.654296875	2	n/a	blockStart	4	n/a	n/a	n/a	n/a	n/a	n/a	n/a	n/a	n/a	830800	250
1624.6875	1	taste	trialStart	4	181	1	foodImage.9	FOODEEG_Images\0138.jpg	NY	Right	Yes	1.33113090001279	0	831841	251
1625.74609375	2	taste	foodImageDisplay	4	181	1	foodImage.9	FOODEEG_Images\0138.jpg	NY	Right	Yes	1.33113090001279	0	832383	252
1627.80859375	1.33113090001279	taste	choicePhaseStart	4	181	1	foodImage.9	FOODEEG_Images\0138.jpg	NY	Right	Yes	1.33113090001279	0	833439	253
1629.130859375	0	taste	response	4	181	1	foodImage.9	FOODEEG_Images\0138.jpg	NY	Right	Yes	1.33113090001279	0	834116	235
1630.173828125	1	decision	trialStart	4	182	2	foodImage.28	FOODEEG_Images\0273.jpg	YN	Right	No	1.285459500039	0	834650	251
1631.21484375	2	decision	foodImageDisplay	4	182	2	foodImage.28	FOODEEG_Images\0273.jpg	YN	Right	No	1.285459500039	0	835183	252
1633.279296875	1.285459500039	decision	choicePhaseStart	4	182	2	foodImage.28	FOODEEG_Images\0273.jpg	YN	Right	No	1.285459500039	0	836240	253
1634.5546875	0	decision	response	4	182	2	foodImage.28	FOODEEG_Images\0273.jpg	YN	Right	No	1.285459500039	0	836893	235
1635.59765625	1	health	trialStart	4	183	3	foodImage.98	FOODEEG_Images\0906.jpg	NY	Right	Yes	1.08185849996516	0	837427	251
1636.63671875	2	health	foodImageDisplay	4	183	3	foodImage.98	FOODEEG_Images\0906.jpg	NY	Right	Yes	1.08185849996516	0	837959	252
1638.69921875	1.08185849996516	health	choicePhaseStart	4	183	3	foodImage.98	FOODEEG_Images\0906.jpg	NY	Right	Yes	1.08185849996516	0	839015	253
1639.76953125	0	health	response	4	183	3	foodImage.98	FOODEEG_Images\0906.jpg	NY	Right	Yes	1.08185849996516	0	839563	235
1640.8203125	1	taste	trialStart	4	184	4	foodImage.4	FOODEEG_Images\0065.jpg	YN	Left	Yes	1.14587110001594	0	840101	251
1641.888671875	2	taste	foodImageDisplay	4	184	4	foodImage.4	FOODEEG_Images\0065.jpg	YN	Left	Yes	1.14587110001594	0	840648	252
1643.95703125	1.14587110001594	taste	choicePhaseStart	4	184	4	foodImage.4	FOODEEG_Images\0065.jpg	YN	Left	Yes	1.14587110001594	0	841707	253
1645.09765625	0	taste	response	4	184	4	foodImage.4	FOODEEG_Images\0065.jpg	YN	Left	Yes	1.14587110001594	0	842291	234
1646.142578125	1	taste	trialStart	4	185	5	foodImage.86	FOODEEG_Images\0844.jpg	NY	Right	Yes	0.998310900002252	0	842826	251
1647.205078125	2	taste	foodImageDisplay	4	185	5	foodImage.86	FOODEEG_Images\0844.jpg	NY	Right	Yes	0.998310900002252	0	843370	252
1649.267578125	0.998310900002252	taste	choicePhaseStart	4	185	5	foodImage.86	FOODEEG_Images\0844.jpg	NY	Right	Yes	0.998310900002252	0	844426	253
1650.2578125	0	taste	response	4	185	5	foodImage.86	FOODEEG_Images\0844.jpg	NY	Right	Yes	0.998310900002252	0	844933	235
1651.30078125	1	taste	trialStart	4	186	6	foodImage.8	FOODEEG_Images\0136.jpg	YN	Left	Yes	1.241949999996	0	845467	251
1652.34375	2	taste	foodImageDisplay	4	186	6	foodImage.8	FOODEEG_Images\0136.jpg	YN	Left	Yes	1.241949999996	0	846001	252
1654.41015625	1.241949999996	taste	choicePhaseStart	4	186	6	foodImage.8	FOODEEG_Images\0136.jpg	YN	Left	Yes	1.241949999996	0	847059	253
1655.642578125	0	taste	response	4	186	6	foodImage.8	FOODEEG_Images\0136.jpg	YN	Left	Yes	1.241949999996	0	847690	234
1656.685546875	1	taste	trialStart	4	187	7	foodImage.58	FOODEEG_Images\0605.jpg	NY	Right	Yes	0.9589347000001	0	848224	251
1657.744140625	2	taste	foodImageDisplay	4	187	7	foodImage.58	FOODEEG_Images\0605.jpg	NY	Right	Yes	0.9589347000001	0	848766	252
1659.8125	0.9589347000001	taste	choicePhaseStart	4	187	7	foodImage.58	FOODEEG_Images\0605.jpg	NY	Right	Yes	0.9589347000001	0	849825	253
1660.76171875	0	taste	response	4	187	7	foodImage.58	FOODEEG_Images\0605.jpg	NY	Right	Yes	0.9589347000001	0	850311	235
1661.8046875	1	health	trialStart	4	188	8	foodImage.27	FOODEEG_Images\0263.jpg	YN	Left	Yes	1.18676409998443	0	850845	251
1662.84765625	2	health	foodImageDisplay	4	188	8	foodImage.27	FOODEEG_Images\0263.jpg	YN	Left	Yes	1.18676409998443	0	851379	252
1664.912109375	1.18676409998443	health	choicePhaseStart	4	188	8	foodImage.27	FOODEEG_Images\0263.jpg	YN	Left	Yes	1.18676409998443	0	852436	253
1666.08984375	0	health	response	4	188	8	foodImage.27	FOODEEG_Images\0263.jpg	YN	Left	Yes	1.18676409998443	0	853039	234
1667.1328125	1	health	trialStart	4	189	9	foodImage.100	FOODEEG_Images\0908.jpg	YN	Left	Yes	1.90160230000038	0	853573	251
1668.173828125	2	health	foodImageDisplay	4	189	9	foodImage.100	FOODEEG_Images\0908.jpg	YN	Left	Yes	1.90160230000038	0	854106	252
1670.236328125	1.90160230000038	health	choicePhaseStart	4	189	9	foodImage.100	FOODEEG_Images\0908.jpg	YN	Left	Yes	1.90160230000038	0	855162	253
1672.12890625	0	health	response	4	189	9	foodImage.100	FOODEEG_Images\0908.jpg	YN	Left	Yes	1.90160230000038	0	856131	234
1673.171875	1	decision	trialStart	4	190	10	foodImage.15	FOODEEG_Images\0189.jpg	YN	Left	Yes	1.41528320003999	0	856665	251
1674.228515625	2	decision	foodImageDisplay	4	190	10	foodImage.15	FOODEEG_Images\0189.jpg	YN	Left	Yes	1.41528320003999	0	857206	252
1676.291015625	1.41528320003999	decision	choicePhaseStart	4	190	10	foodImage.15	FOODEEG_Images\0189.jpg	YN	Left	Yes	1.41528320003999	0	858262	253
1677.697265625	0	decision	response	4	190	10	foodImage.15	FOODEEG_Images\0189.jpg	YN	Left	Yes	1.41528320003999	0	858982	234
1678.73828125	1	health	trialStart	4	191	11	foodImage.20	FOODEEG_Images\0226.jpg	YN	Left	Yes	2.04130290000467	0	859515	251
1679.78515625	2	health	foodImageDisplay	4	191	11	foodImage.20	FOODEEG_Images\0226.jpg	YN	Left	Yes	2.04130290000467	0	860051	252
1681.849609375	2.04130290000467	health	choicePhaseStart	4	191	11	foodImage.20	FOODEEG_Images\0226.jpg	YN	Left	Yes	2.04130290000467	0	861108	253
1683.880859375	0	health	response	4	191	11	foodImage.20	FOODEEG_Images\0226.jpg	YN	Left	Yes	2.04130290000467	0	862148	234
1684.92578125	1	decision	trialStart	4	192	12	foodImage.52	FOODEEG_Images\0539.jpg	YN	Right	No	3.49470670003211	0	862683	251
1685.98046875	2	decision	foodImageDisplay	4	192	12	foodImage.52	FOODEEG_Images\0539.jpg	YN	Right	No	3.49470670003211	0	863223	252
1688.04296875	3.49470670003211	decision	choicePhaseStart	4	192	12	foodImage.52	FOODEEG_Images\0539.jpg	YN	Right	No	3.49470670003211	0	864279	253
1691.529296875	0	decision	response	4	192	12	foodImage.52	FOODEEG_Images\0539.jpg	YN	Right	No	3.49470670003211	0	866064	235
1692.580078125	1	taste	trialStart	4	193	13	foodImage.79	FOODEEG_Images\0794.jpg	YN	Left	Yes	1.84412809996866	0	866602	251
1693.625	2	taste	foodImageDisplay	4	193	13	foodImage.79	FOODEEG_Images\0794.jpg	YN	Left	Yes	1.84412809996866	0	867137	252
1695.685546875	1.84412809996866	taste	choicePhaseStart	4	193	13	foodImage.79	FOODEEG_Images\0794.jpg	YN	Left	Yes	1.84412809996866	0	868192	253
1697.51953125	0	taste	response	4	193	13	foodImage.79	FOODEEG_Images\0794.jpg	YN	Left	Yes	1.84412809996866	0	869131	234
1698.5625	1	taste	trialStart	4	194	14	foodImage.72	FOODEEG_Images\0714.jpg	YN	Right	No	2.24962789996061	0	869665	251
1699.609375	2	taste	foodImageDisplay	4	194	14	foodImage.72	FOODEEG_Images\0714.jpg	YN	Right	No	2.24962789996061	0	870201	252
1701.671875	2.24962789996061	taste	choicePhaseStart	4	194	14	foodImage.72	FOODEEG_Images\0714.jpg	YN	Right	No	2.24962789996061	0	871257	253
1703.912109375	0	taste	response	4	194	14	foodImage.72	FOODEEG_Images\0714.jpg	YN	Right	No	2.24962789996061	0	872404	235
1704.95703125	1	health	trialStart	4	195	15	foodImage.108	FOODEEG_Images\0916.jpg	NY	Left	No	0.861210300005041	0	872939	251
