onset	duration	trial_type	event_type	block	trial_total	trial_in_block	food_image_code	food_image_path	button_position	resp_position	resp_choice	choice_rt	resp_too_slow	sample	trigger
261.23828125	2	n/a	blockStart	1	n/a	n/a	n/a	n/a	n/a	n/a	n/a	n/a	n/a	133755	250
263.275390625	1	health	trialStart	1	1	1	foodImage.53	FOODEEG_Images\0547.jpg	NY	Left	No	0.881908400042448	0	134798	251
264.33984375	2	health	foodImageDisplay	1	1	1	foodImage.53	FOODEEG_Images\0547.jpg	NY	Left	No	0.881908400042448	0	135343	252
266.404296875	0.881908400042448	health	choicePhaseStart	1	1	1	foodImage.53	FOODEEG_Images\0547.jpg	NY	Left	No	0.881908400042448	0	136400	253
267.279296875	0	health	response	1	1	1	foodImage.53	FOODEEG_Images\0547.jpg	NY	Left	No	0.881908400042448	0	136848	234
268.392578125	1	taste	trialStart	1	2	2	foodImage.3	FOODEEG_Images\0046.jpg	NY	Right	Yes	3.43344769999385	0	137418	251
269.453125	2	taste	foodImageDisplay	1	2	2	foodImage.3	FOODEEG_Images\0046.jpg	NY	Right	Yes	3.43344769999385	0	137961	252
271.517578125	3.43344769999385	taste	choicePhaseStart	1	2	2	foodImage.3	FOODEEG_Images\0046.jpg	NY	Right	Yes	3.43344769999385	0	139018	253
274.943359375	0	taste	response	1	2	2	foodImage.3	FOODEEG_Images\0046.jpg	NY	Right	Yes	3.43344769999385	0	140772	235
275.994140625	1	health	trialStart	1	3	3	foodImage.24	FOODEEG_Images\0250.jpg	NY	Right	Yes	0.898165200022049	0	141310	251
277.037109375	2	health	foodImageDisplay	1	3	3	foodImage.24	FOODEEG_Images\0250.jpg	NY	Right	Yes	0.898165200022049	0	141844	252
279.1015625	0.898165200022049	health	choicePhaseStart	1	3	3	foodImage.24	FOODEEG_Images\0250.jpg	NY	Right	Yes	0.898165200022049	0	142901	253
279.990234375	0	health	response	1	3	3	foodImage.24	FOODEEG_Images\0250.jpg	NY	Right	Yes	0.898165200022049	0	143356	235
281.03125	1	decision	trialStart	1	4	4	foodImage.49	FOODEEG_Images\0515.jpg	NY	Right	Yes	1.17509070003871	0	143889	251
282.07421875	2	decision	foodImageDisplay	1	4	4	foodImage.49	FOODEEG_Images\0515.jpg	NY	Right	Yes	1.17509070003871	0	144423	252
284.14453125	1.17509070003871	decision	choicePhaseStart	1	4	4	foodImage.49	FOODEEG_Images\0515.jpg	NY	Right	Yes	1.17509070003871	0	145483	253
285.310546875	0	decision	response	1	4	4	foodImage.49	FOODEEG_Images\0515.jpg	NY	Right	Yes	1.17509070003871	0	146080	235
286.35546875	1	health	trialStart	1	5	5	foodImage.6	FOODEEG_Images\0113.jpg	YN	Right	No	0.864722300029825	0	146615	251
287.404296875	2	health	foodImageDisplay	1	5	5	foodImage.6	FOODEEG_Images\0113.jpg	YN	Right	No	0.864722300029825	0	147152	252
289.46875	0.864722300029825	health	choicePhaseStart	1	5	5	foodImage.6	FOODEEG_Images\0113.jpg	YN	Right	No	0.864722300029825	0	148209	253
290.326171875	0	health	response	1	5	5	foodImage.6	FOODEEG_Images\0113.jpg	YN	Right	No	0.864722300029825	0	148648	235
291.37890625	1	health	trialStart	1	6	6	foodImage.37	FOODEEG_Images\0359.jpg	NY	Right	Yes	0.823401800007559	0	149187	251
292.419921875	2	health	foodImageDisplay	1	6	6	foodImage.37	FOODEEG_Images\0359.jpg	NY	Right	Yes	0.823401800007559	0	149720	252
294.484375	0.823401800007559	health	choicePhaseStart	1	6	6	foodImage.37	FOODEEG_Images\0359.jpg	NY	Right	Yes	0.823401800007559	0	150777	253
295.302734375	0	health	response	1	6	6	foodImage.37	FOODEEG_Images\0359.jpg	NY	Right	Yes	0.823401800007559	0	151196	235
296.34375	1	health	trialStart	1	7	7	foodImage.1	FOODEEG_Images\0004.jpg	YN	Right	No	0.78541759995278	0	151729	251
297.38671875	2	health	foodImageDisplay	1	7	7	foodImage.1	FOODEEG_Images\0004.jpg	YN	Right	No	0.78541759995278	0	152263	252
299.451171875	0.78541759995278	health	choicePhaseStart	1	7	7	foodImage.1	FOODEEG_Images\0004.jpg	YN	Right	No	0.78541759995278	0	153320	253
300.228515625	0	health	response	1	7	7	foodImage.1	FOODEEG_Images\0004.jpg	YN	Right	No	0.78541759995278	0	153718	235
301.2734375	1	taste	trialStart	1	8	8	foodImage.5	FOODEEG_Images\0107.jpg	YN	Left	Yes	0.570431699976325	0	154253	251
302.33203125	2	taste	foodImageDisplay	1	8	8	foodImage.5	FOODEEG_Images\0107.jpg	YN	Left	Yes	0.570431699976325	0	154795	252
304.39453125	0.570431699976325	taste	choicePhaseStart	1	8	8	foodImage.5	FOODEEG_Images\0107.jpg	YN	Left	Yes	0.570431699976325	0	155851	253
304.95703125	0	taste	response	1	8	8	foodImage.5	FOODEEG_Images\0107.jpg	YN	Left	Yes	0.570431699976325	0	156139	234
306	1	health	trialStart	1	9	9	foodImage.103	FOODEEG_Images\0911.jpg	NY	Left	No	0.898905500012916	0	156673	251
307.041015625	2	health	foodImageDisplay	1	9	9	foodImage.103	FOODEEG_Images\0911.jpg	NY	Left	No	0.898905500012916	0	157206	252
309.107421875	0.898905500012916	health	choicePhaseStart	1	9	9	foodImage.103	FOODEEG_Images\0911.jpg	NY	Left	No	0.898905500012916	0	158264	253
309.99609375	0	health	response	1	9	9	foodImage.103	FOODEEG_Images\0911.jpg	NY	Left	No	0.898905500012916	0	158719	234
311.037109375	1	taste	trialStart	1	10	10	foodImage.57	FOODEEG_Images\0587.jpg	NY	Right	Yes	0.606315899989568	0	159252	251
312.080078125	2	taste	foodImageDisplay	1	10	10	foodImage.57	FOODEEG_Images\0587.jpg	NY	Right	Yes	0.606315899989568	0	159786	252
314.142578125	0.606315899989568	taste	choicePhaseStart	1	10	10	foodImage.57	FOODEEG_Images\0587.jpg	NY	Right	Yes	0.606315899989568	0	160842	253
314.740234375	0	taste	response	1	10	10	foodImage.57	FOODEEG_Images\0587.jpg	NY	Right	Yes	0.606315899989568	0	161148	235
315.783203125	1	decision	trialStart	1	11	11	foodImage.102	FOODEEG_Images\0910.jpg	YN	Right	No	1.04206969996449	0	161682	251
316.828125	2	decision	foodImageDisplay	1	11	11	foodImage.102	FOODEEG_Images\0910.jpg	YN	Right	No	1.04206969996449	0	162217	252
318.890625	1.04206969996449	decision	choicePhaseStart	1	11	11	foodImage.102	FOODEEG_Images\0910.jpg	YN	Right	No	1.04206969996449	0	163273	253
319.923828125	0	decision	response	1	11	11	foodImage.102	FOODEEG_Images\0910.jpg	YN	Right	No	1.04206969996449	0	163802	235
320.96875	1	taste	trialStart	1	12	12	foodImage.45	FOODEEG_Images\0478.jpg	YN	Left	Yes	2.4064720000024	0	164337	251
322.015625	2	taste	foodImageDisplay	1	12	12	foodImage.45	FOODEEG_Images\0478.jpg	YN	Left	Yes	2.4064720000024	0	164873	252
324.078125	2.4064720000024	taste	choicePhaseStart	1	12	12	foodImage.45	FOODEEG_Images\0478.jpg	YN	Left	Yes	2.4064720000024	0	165929	253
326.4765625	0	taste	response	1	12	12	foodImage.45	FOODEEG_Images\0478.jpg	YN	Left	Yes	2.4064720000024	0	167157	234
327.517578125	1	taste	trialStart	1	13	13	foodImage.105	FOODEEG_Images\0913.jpg	YN	Right	No	1.14483910001582	0	167690	251
328.556640625	2	taste	foodImageDisplay	1	13	13	foodImage.105	FOODEEG_Images\0913.jpg	YN	Right	No	1.14483910001582	0	168222	252
330.62109375	1.14483910001582	taste	choicePhaseStart	1	13	13	foodImage.105	FOODEEG_Images\0913.jpg	YN	Right	No	1.14483910001582	0	169279	253
331.755859375	0	taste	response	1	13	13	foodImage.105	FOODEEG_Images\0913.jpg	YN	Right	No	1.14483910001582	0	169860	235
332.798828125	1	decision	trialStart	1	14	14	foodImage.79	FOODEEG_Images\0794.jpg	YN	Right	No	1.79326020000735	0	170394	251
333.84375	2	decision	foodImageDisplay	1	14	14	foodImage.79	FOODEEG_Images\0794.jpg	YN	Right	No	1.79326020000735	0	170929	252
335.908203125	1.79326020000735	decision	choicePhaseStart	1	14	14	foodImage.79	FOODEEG_Images\0794.jpg	YN	Right	No	1.79326020000735	0	171986	253
337.69140625	0	decision	response	1	14	14	foodImage.79	FOODEEG_Images\0794.jpg	YN	Right	No	1.79326020000735	0	172899	235
338.732421875	1	taste	trialStart	1	15	15	foodImage.10	FOODEEG_Images\0145.jpg	NY	Right	Yes	2.80545300000813	0	173432	251
339.791015625	2	taste	foodImageDisplay	1	15	15	foodImage.10	FOODEEG_Images\0145.jpg	NY	Right	Yes	2.80545300000813	0	173974	252
341.853515625	2.80545300000813	taste	choicePhaseStart	1	15	15	foodImage.10	FOODEEG_Images\0145.jpg	NY	Right	Yes	2.80545300000813	0	175030	253
344.650390625	0	taste	response	1	15	15	foodImage.10	FOODEEG_Images\0145.jpg	NY	Right	Yes	2.80545300000813	0	176462	235
345.6953125	1	decision	trialStart	1	16	16	foodImage.75	FOODEEG_Images\0763.jpg	NY	Left	No	0.915969099965878	0	176997	251
346.73828125	2	decision	foodImageDisplay	1	16	16	foodImage.75	FOODEEG_Images\0763.jpg	NY	Left	No	0.915969099965878	0	177531	252
348.80078125	0.915969099965878	decision	choicePhaseStart	1	16	16	foodImage.75	FOODEEG_Images\0763.jpg	NY	Left	No	0.915969099965878	0	178587	253
349.708984375	0	decision	response	1	16	16	foodImage.75	FOODEEG_Images\0763.jpg	NY	Left	No	0.915969099965878	0	179052	234
350.7578125	1	taste	trialStart	1	17	17	foodImage.44	FOODEEG_Images\0459.jpg	YN	Right	No	1.68774399999529	0	179589	251
351.8046875	2	taste	foodImageDisplay	1	17	17	foodImage.44	FOODEEG_Images\0459.jpg	YN	Right	No	1.68774399999529	0	180125	252
353.8671875	1.68774399999529	taste	choicePhaseStart	1	17	17	foodImage.44	FOODEEG_Images\0459.jpg	YN	Right	No	1.68774399999529	0	181181	253
355.546875	0	taste	response	1	17	17	foodImage.44	FOODEEG_Images\0459.jpg	YN	Right	No	1.68774399999529	0	182041	235
356.595703125	1	health	trialStart	1	18	18	foodImage.94	FOODEEG_Images\0902.jpg	NY	Left	No	1.74625019996893	0	182578	251
357.634765625	2	health	foodImageDisplay	1	18	18	foodImage.94	FOODEEG_Images\0902.jpg	NY	Left	No	1.74625019996893	0	183110	252
359.69921875	1.74625019996893	health	choicePhaseStart	1	18	18	foodImage.94	FOODEEG_Images\0902.jpg	NY	Left	No	1.74625019996893	0	184167	253
361.435546875	0	health	response	1	18	18	foodImage.94	FOODEEG_Images\0902.jpg	NY	Left	No	1.74625019996893	0	185056	234
362.486328125	1	health	trialStart	1	19	19	foodImage.104	FOODEEG_Images\0912.jpg	NY	Left	No	2.10453249997227	0	185594	251
363.525390625	2	health	foodImageDisplay	1	19	19	foodImage.104	FOODEEG_Images\0912.jpg	NY	Left	No	2.10453249997227	0	186126	252
365.587890625	2.10453249997227	health	choicePhaseStart	1	19	19	foodImage.104	FOODEEG_Images\0912.jpg	NY	Left	No	2.10453249997227	0	187182	253
367.68359375	0	health	response	1	19	19	foodImage.104	FOODEEG_Images\0912.jpg	NY	Left	No	2.10453249997227	0	188255	234
368.7265625	1	taste	trialStart	1	20	20	foodImage.74	FOODEEG_Images\0752.jpg	YN	Left	Yes	1.01515630003996	0	188789	251
369.7734375	2	taste	foodImageDisplay	1	20	20	foodImage.74	FOODEEG_Images\0752.jpg	YN	Left	Yes	1.01515630003996	0	189325	252
371.8359375	1.01515630003996	taste	choicePhaseStart	1	20	20	foodImage.74	FOODEEG_Images\0752.jpg	YN	Left	Yes	1.01515630003996	0	190381	253
372.841796875	0	taste	response	1	20	20	foodImage.74	FOODEEG_Images\0752.jpg	YN	Left	Yes	1.01515630003996	0	190896	234
373.8828125	1	decision	trialStart	1	21	21	foodImage.80	FOODEEG_Images\0796.jpg	YN	Right	No	2.70883980003418	0	191429	251
374.94140625	2	decision	foodImageDisplay	1	21	21	foodImage.80	FOODEEG_Images\0796.jpg	YN	Right	No	2.70883980003418	0	191971	252
377.005859375	2.70883980003418	decision	choicePhaseStart	1	21	21	foodImage.80	FOODEEG_Images\0796.jpg	YN	Right	No	2.70883980003418	0	193028	253
379.705078125	0	decision	response	1	21	21	foodImage.80	FOODEEG_Images\0796.jpg	YN	Right	No	2.70883980003418	0	194410	235
380.748046875	1	decision	trialStart	1	22	22	foodImage.72	FOODEEG_Images\0714.jpg	YN	Right	No	1.32519719999982	0	194944	251
381.791015625	2	decision	foodImageDisplay	1	22	22	foodImage.72	FOODEEG_Images\0714.jpg	YN	Right	No	1.32519719999982	0	195478	252
383.853515625	1.32519719999982	decision	choicePhaseStart	1	22	22	foodImage.72	FOODEEG_Images\0714.jpg	YN	Right	No	1.32519719999982	0	196534	253
385.169921875	0	decision	response	1	22	22	foodImage.72	FOODEEG_Images\0714.jpg	YN	Right	No	1.32519719999982	0	197208	235
386.2109375	1	health	trialStart	1	23	23	foodImage.86	FOODEEG_Images\0844.jpg	NY	Left	No	1.46215350000421	0	197741	251
387.26953125	2	health	foodImageDisplay	1	23	23	foodImage.86	FOODEEG_Images\0844.jpg	NY	Left	No	1.46215350000421	0	198283	252
389.33203125	1.46215350000421	health	choicePhaseStart	1	23	23	foodImage.86	FOODEEG_Images\0844.jpg	NY	Left	No	1.46215350000421	0	199339	253
390.78515625	0	health	response	1	23	23	foodImage.86	FOODEEG_Images\0844.jpg	NY	Left	No	1.46215350000421	0	200083	234
391.830078125	1	taste	trialStart	1	24	24	foodImage.106	FOODEEG_Images\0914.jpg	NY	Left	No	1.30766649998259	0	200618	251
392.869140625	2	taste	foodImageDisplay	1	24	24	foodImage.106	FOODEEG_Images\0914.jpg	NY	Left	No	1.30766649998259	0	201150	252
394.931640625	1.30766649998259	taste	choicePhaseStart	1	24	24	foodImage.106	FOODEEG_Images\0914.jpg	NY	Left	No	1.30766649998259	0	202206	253
396.232421875	0	taste	response	1	24	24	foodImage.106	FOODEEG_Images\0914.jpg	NY	Left	No	1.30766649998259	0	202872	234
397.275390625	1	taste	trialStart	1	25	25	foodImage.65	FOODEEG_Images\0658.jpg	NY	Left	No	0.878719999978784	0	203406	251
398.31640625	2	taste	foodImageDisplay	1	25	25	foodImage.65	FOODEEG_Images\0658.jpg	NY	Left	No	0.878719999978784	0	203939	252
400.37890625	0.878719999978784	taste	choicePhaseStart	1	25	25	foodImage.65	FOODEEG_Images\0658.jpg	NY	Left	No	0.878719999978784	0	204995	253
401.25	0	taste	response	1	25	25	foodImage.65	FOODEEG_Images\0658.jpg	NY	Left	No	0.878719999978784	0	205441	234
402.29296875	1	health	trialStart	1	26	26	foodImage.107	FOODEEG_Images\0915.jpg	NY	Left	No	1.27081369998632	0	205975	251
403.33984375	2	health	foodImageDisplay	1	26	26	foodImage.107	FOODEEG_Images\0915.jpg	NY	Left	No	1.27081369998632	0	206511	252
405.40234375	1.27081369998632	health	choicePhaseStart	1	26	26	foodImage.107	FOODEEG_Images\0915.jpg	NY	Left	No	1.27081369998632	0	207567	253
406.666015625	0	health	response	1	26	26	foodImage.107	FOODEEG_Images\0915.jpg	NY	Left	No	1.27081369998632	0	208214	234
407.7109375	1	health	trialStart	1	27	27	foodImage.34	FOODEEG_Images\0339.jpg	NY	Left	No	0.729913299961481	0	208749	251
408.76953125	2	health	foodImageDisplay	1	27	27	foodImage.34	FOODEEG_Images\0339.jpg	NY	Left	No	0.729913299961481	0	209291	252
410.83203125	0.729913299961481	health	choicePhaseStart	1	27	27	foodImage.34	FOODEEG_Images\0339.jpg	NY	Left	No	0.729913299961481	0	210347	253
411.552734375	0	health	response	1	27	27	foodImage.34	FOODEEG_Images\0339.jpg	NY	Left	No	0.729913299961481	0	210716	234
412.595703125	1	decision	trialStart	1	28	28	foodImage.44	FOODEEG_Images\0459.jpg	NY	Left	No	1.15457350003999	0	211250	251
413.640625	2	decision	foodImageDisplay	1	28	28	foodImage.44	FOODEEG_Images\0459.jpg	NY	Left	No	1.15457350003999	0	211785	252
415.705078125	1.15457350003999	decision	choicePhaseStart	1	28	28	foodImage.44	FOODEEG_Images\0459.jpg	NY	Left	No	1.15457350003999	0	212842	253
416.849609375	0	decision	response	1	28	28	foodImage.44	FOODEEG_Images\0459.jpg	NY	Left	No	1.15457350003999	0	213428	234
417.890625	1	health	trialStart	1	29	29	foodImage.21	FOODEEG_Images\0234.jpg	YN	Left	Yes	1.15905159997055	0	213961	251
418.947265625	2	health	foodImageDisplay	1	29	29	foodImage.21	FOODEEG_Images\0234.jpg	YN	Left	Yes	1.15905159997055	0	214502	252
421.009765625	1.15905159997055	health	choicePhaseStart	1	29	29	foodImage.21	FOODEEG_Images\0234.jpg	YN	Left	Yes	1.15905159997055	0	215558	253
422.16015625	0	health	response	1	29	29	foodImage.21	FOODEEG_Images\0234.jpg	YN	Left	Yes	1.15905159997055	0	216147	234
423.201171875	1	taste	trialStart	1	30	30	foodImage.7	FOODEEG_Images\0116.jpg	NY	Right	Yes	0.741884399962146	0	216680	251
424.244140625	2	taste	foodImageDisplay	1	30	30	foodImage.7	FOODEEG_Images\0116.jpg	NY	Right	Yes	0.741884399962146	0	217214	252
426.306640625	0.741884399962146	taste	choicePhaseStart	1	30	30	foodImage.7	FOODEEG_Images\0116.jpg	NY	Right	Yes	0.741884399962146	0	218270	253
427.041015625	0	taste	response	1	30	30	foodImage.7	FOODEEG_Images\0116.jpg	NY	Right	Yes	0.741884399962146	0	218646	235
428.083984375	1	taste	trialStart	1	31	31	foodImage.25	FOODEEG_Images\0261.jpg	NY	Right	Yes	1.17808929999592	0	219180	251
429.126953125	2	taste	foodImageDisplay	1	31	31	foodImage.25	FOODEEG_Images\0261.jpg	NY	Right	Yes	1.17808929999592	0	219714	252
431.189453125	1.17808929999592	taste	choicePhaseStart	1	31	31	foodImage.25	FOODEEG_Images\0261.jpg	NY	Right	Yes	1.17808929999592	0	220770	253
432.359375	0	taste	response	1	31	31	foodImage.25	FOODEEG_Images\0261.jpg	NY	Right	Yes	1.17808929999592	0	221369	235
433.40234375	1	health	trialStart	1	32	32	foodImage.35	FOODEEG_Images\0350.jpg	YN	Left	Yes	0.937340100004803	0	221903	251
434.44140625	2	health	foodImageDisplay	1	32	32	foodImage.35	FOODEEG_Images\0350.jpg	YN	Left	Yes	0.937340100004803	0	222435	252
436.50390625	0.937340100004803	health	choicePhaseStart	1	32	32	foodImage.35	FOODEEG_Images\0350.jpg	YN	Left	Yes	0.937340100004803	0	223491	253
437.431640625	0	health	response	1	32	32	foodImage.35	FOODEEG_Images\0350.jpg	YN	Left	Yes	0.937340100004803	0	223966	234
438.474609375	1	health	trialStart	1	33	33	foodImage.119	FOODEEG_Images\0927.jpg	YN	Right	No	0.529218700015917	0	224500	251
439.513671875	2	health	foodImageDisplay	1	33	33	foodImage.119	FOODEEG_Images\0927.jpg	YN	Right	No	0.529218700015917	0	225032	252
441.576171875	0.529218700015917	health	choicePhaseStart	1	33	33	foodImage.119	FOODEEG_Images\0927.jpg	YN	Right	No	0.529218700015917	0	226088	253
442.095703125	0	health	response	1	33	33	foodImage.119	FOODEEG_Images\0927.jpg	YN	Right	No	0.529218700015917	0	226354	235
443.138671875	1	taste	trialStart	1	34	34	foodImage.98	FOODEEG_Images\0906.jpg	YN	Right	No	1.08199570002034	0	226888	251
444.17578125	2	taste	foodImageDisplay	1	34	34	foodImage.98	FOODEEG_Images\0906.jpg	YN	Right	No	1.08199570002034	0	227419	252
446.23828125	1.08199570002034	taste	choicePhaseStart	1	34	34	foodImage.98	FOODEEG_Images\0906.jpg	YN	Right	No	1.08199570002034	0	228475	253
447.310546875	0	taste	response	1	34	34	foodImage.98	FOODEEG_Images\0906.jpg	YN	Right	No	1.08199570002034	0	229024	235
448.353515625	1	taste	trialStart	1	35	35	foodImage.23	FOODEEG_Images\0244.jpg	YN	Right	No	0.912978100008331	0	229558	251
449.396484375	2	taste	foodImageDisplay	1	35	35	foodImage.23	FOODEEG_Images\0244.jpg	YN	Right	No	0.912978100008331	0	230092	252
451.462890625	0.912978100008331	taste	choicePhaseStart	1	35	35	foodImage.23	FOODEEG_Images\0244.jpg	YN	Right	No	0.912978100008331	0	231150	253
452.3671875	0	taste	response	1	35	35	foodImage.23	FOODEEG_Images\0244.jpg	YN	Right	No	0.912978100008331	0	231613	235
453.41015625	1	health	trialStart	1	36	36	foodImage.114	FOODEEG_Images\0922.jpg	YN	Right	No	0.503654300002381	0	232147	251
454.44921875	2	health	foodImageDisplay	1	36	36	foodImage.114	FOODEEG_Images\0922.jpg	YN	Right	No	0.503654300002381	0	232679	252
456.51171875	0.503654300002381	health	choicePhaseStart	1	36	36	foodImage.114	FOODEEG_Images\0922.jpg	YN	Right	No	0.503654300002381	0	233735	253
457.0078125	0	health	response	1	36	36	foodImage.114	FOODEEG_Images\0922.jpg	YN	Right	No	0.503654300002381	0	233989	235
458.048828125	1	decision	trialStart	1	37	37	foodImage.33	FOODEEG_Images\0329.jpg	NY	Right	Yes	0.972322600020561	0	234522	251
459.091796875	2	decision	foodImageDisplay	1	37	37	foodImage.33	FOODEEG_Images\0329.jpg	NY	Right	Yes	0.972322600020561	0	235056	252
461.154296875	0.972322600020561	decision	choicePhaseStart	1	37	37	foodImage.33	FOODEEG_Images\0329.jpg	NY	Right	Yes	0.972322600020561	0	236112	253
462.119140625	0	decision	response	1	37	37	foodImage.33	FOODEEG_Images\0329.jpg	NY	Right	Yes	0.972322600020561	0	236606	235
463.162109375	1	taste	trialStart	1	38	38	foodImage.115	FOODEEG_Images\0923.jpg	YN	Left	Yes	0.758181100012735	0	237140	251
464.203125	2	taste	foodImageDisplay	1	38	38	foodImage.115	FOODEEG_Images\0923.jpg	YN	Left	Yes	0.758181100012735	0	237673	252
466.265625	0.758181100012735	taste	choicePhaseStart	1	38	38	foodImage.115	FOODEEG_Images\0923.jpg	YN	Left	Yes	0.758181100012735	0	238729	253
467.013671875	0	taste	response	1	38	38	foodImage.115	FOODEEG_Images\0923.jpg	YN	Left	Yes	0.758181100012735	0	239112	234
468.060546875	1	decision	trialStart	1	39	39	foodImage.27	FOODEEG_Images\0263.jpg	YN	Left	Yes	1.66645180003252	0	239648	251
469.103515625	2	decision	foodImageDisplay	1	39	39	foodImage.27	FOODEEG_Images\0263.jpg	YN	Left	Yes	1.66645180003252	0	240182	252
471.166015625	1.66645180003252	decision	choicePhaseStart	1	39	39	foodImage.27	FOODEEG_Images\0263.jpg	YN	Left	Yes	1.66645180003252	0	241238	253
472.822265625	0	decision	response	1	39	39	foodImage.27	FOODEEG_Images\0263.jpg	YN	Left	Yes	1.66645180003252	0	242086	234
473.865234375	1	decision	trialStart	1	40	40	foodImage.74	FOODEEG_Images\0752.jpg	NY	Right	Yes	0.70637309999438	0	242620	251
474.91015625	2	decision	foodImageDisplay	1	40	40	foodImage.74	FOODEEG_Images\0752.jpg	NY	Right	Yes	0.70637309999438	0	243155	252
476.97265625	0.70637309999438	decision	choicePhaseStart	1	40	40	foodImage.74	FOODEEG_Images\0752.jpg	NY	Right	Yes	0.70637309999438	0	244211	253
477.669921875	0	decision	response	1	40	40	foodImage.74	FOODEEG_Images\0752.jpg	NY	Right	Yes	0.70637309999438	0	244568	235
478.71484375	1	decision	trialStart	1	41	41	foodImage.47	FOODEEG_Images\0488.jpg	NY	Right	Yes	0.636724900046829	0	245103	251
479.755859375	2	decision	foodImageDisplay	1	41	41	foodImage.47	FOODEEG_Images\0488.jpg	NY	Right	Yes	0.636724900046829	0	245636	252
481.826171875	0.636724900046829	decision	choicePhaseStart	1	41	41	foodImage.47	FOODEEG_Images\0488.jpg	NY	Right	Yes	0.636724900046829	0	246696	253
482.453125	0	decision	response	1	41	41	foodImage.47	FOODEEG_Images\0488.jpg	NY	Right	Yes	0.636724900046829	0	247017	235
483.49609375	1	health	trialStart	1	42	42	foodImage.83	FOODEEG_Images\0827.jpg	NY	Right	Yes	1.05312430002959	0	247551	251
484.556640625	2	health	foodImageDisplay	1	42	42	foodImage.83	FOODEEG_Images\0827.jpg	NY	Right	Yes	1.05312430002959	0	248094	252
486.6171875	1.05312430002959	health	choicePhaseStart	1	42	42	foodImage.83	FOODEEG_Images\0827.jpg	NY	Right	Yes	1.05312430002959	0	249149	253
487.662109375	0	health	response	1	42	42	foodImage.83	FOODEEG_Images\0827.jpg	NY	Right	Yes	1.05312430002959	0	249684	235
488.705078125	1	health	trialStart	1	43	43	foodImage.69	FOODEEG_Images\0693.jpg	NY	Right	Yes	1.44741279998561	0	250218	251
489.75	2	health	foodImageDisplay	1	43	43	foodImage.69	FOODEEG_Images\0693.jpg	NY	Right	Yes	1.44741279998561	0	250753	252
491.81640625	1.44741279998561	health	choicePhaseStart	1	43	43	foodImage.69	FOODEEG_Images\0693.jpg	NY	Right	Yes	1.44741279998561	0	251811	253
493.25390625	0	health	response	1	43	43	foodImage.69	FOODEEG_Images\0693.jpg	NY	Right	Yes	1.44741279998561	0	252547	235
494.302734375	1	taste	trialStart	1	44	44	foodImage.62	FOODEEG_Images\0644.jpg	NY	Right	Yes	1.60784730000887	0	253084	251
495.359375	2	taste	foodImageDisplay	1	44	44	foodImage.62	FOODEEG_Images\0644.jpg	NY	Right	Yes	1.60784730000887	0	253625	252
497.421875	1.60784730000887	taste	choicePhaseStart	1	44	44	foodImage.62	FOODEEG_Images\0644.jpg	NY	Right	Yes	1.60784730000887	0	254681	253
499.021484375	0	taste	response	1	44	44	foodImage.62	FOODEEG_Images\0644.jpg	NY	Right	Yes	1.60784730000887	0	255500	235
500.068359375	1	taste	trialStart	1	45	45	foodImage.117	FOODEEG_Images\0925.jpg	YN	Right	No	1.06743789999746	0	256036	251
501.107421875	2	taste	foodImageDisplay	1	45	45	foodImage.117	FOODEEG_Images\0925.jpg	YN	Right	No	1.06743789999746	0	256568	252
503.169921875	1.06743789999746	taste	choicePhaseStart	1	45	45	foodImage.117	FOODEEG_Images\0925.jpg	YN	Right	No	1.06743789999746	0	257624	253
504.228515625	0	taste	response	1	45	45	foodImage.117	FOODEEG_Images\0925.jpg	YN	Right	No	1.06743789999746	0	258166	235
505.271484375	1	decision	trialStart	1	46	46	foodImage.107	FOODEEG_Images\0915.jpg	NY	Left	No	1.20814659999451	0	258700	251
506.310546875	2	decision	foodImageDisplay	1	46	46	foodImage.107	FOODEEG_Images\0915.jpg	NY	Left	No	1.20814659999451	0	259232	252
508.373046875	1.20814659999451	decision	choicePhaseStart	1	46	46	foodImage.107	FOODEEG_Images\0915.jpg	NY	Left	No	1.20814659999451	0	260288	253
509.572265625	0	decision	response	1	46	46	foodImage.107	FOODEEG_Images\0915.jpg	NY	Left	No	1.20814659999451	0	260902	234
510.619140625	1	decision	trialStart	1	47	47	foodImage.108	FOODEEG_Images\0916.jpg	NY	Left	No	0.895995999977458	0	261438	251
511.658203125	2	decision	foodImageDisplay	1	47	47	foodImage.108	FOODEEG_Images\0916.jpg	NY	Left	No	0.895995999977458	0	261970	252
513.7265625	0.895995999977458	decision	choicePhaseStart	1	47	47	foodImage.108	FOODEEG_Images\0916.jpg	NY	Left	No	0.895995999977458	0	263029	253
514.61328125	0	decision	response	1	47	47	foodImage.108	FOODEEG_Images\0916.jpg	NY	Left	No	0.895995999977458	0	263483	234
515.65625	1	health	trialStart	1	48	48	foodImage.92	FOODEEG_Images\0900.jpg	NY	Left	No	1.19561659998726	0	264017	251
516.693359375	2	health	foodImageDisplay	1	48	48	foodImage.92	FOODEEG_Images\0900.jpg	NY	Left	No	1.19561659998726	0	264548	252
518.76171875	1.19561659998726	health	choicePhaseStart	1	48	48	foodImage.92	FOODEEG_Images\0900.jpg	NY	Left	No	1.19561659998726	0	265607	253
519.94921875	0	health	response	1	48	48	foodImage.92	FOODEEG_Images\0900.jpg	NY	Left	No	1.19561659998726	0	266215	234
520.9921875	1	health	trialStart	1	49	49	foodImage.26	FOODEEG_Images\0262.jpg	YN	Left	Yes	1.00597350002499	0	266749	251
522.033203125	2	health	foodImageDisplay	1	49	49	foodImage.26	FOODEEG_Images\0262.jpg	YN	Left	Yes	1.00597350002499	0	267282	252
524.095703125	1.00597350002499	health	choicePhaseStart	1	49	49	foodImage.26	FOODEEG_Images\0262.jpg	YN	Left	Yes	1.00597350002499	0	268338	253
525.091796875	0	health	response	1	49	49	foodImage.26	FOODEEG_Images\0262.jpg	YN	Left	Yes	1.00597350002499	0	268848	234
526.134765625	1	health	trialStart	1	50	50	foodImage.95	FOODEEG_Images\0903.jpg	YN	Right	No	1.2330537000089	0	269382	251
527.173828125	2	health	foodImageDisplay	1	50	50	foodImage.95	FOODEEG_Images\0903.jpg	YN	Right	No	1.2330537000089	0	269914	252
529.236328125	1.2330537000089	health	choicePhaseStart	1	50	50	foodImage.95	FOODEEG_Images\0903.jpg	YN	Right	No	1.2330537000089	0	270970	253
530.4609375	0	health	response	1	50	50	foodImage.95	FOODEEG_Images\0903.jpg	YN	Right	No	1.2330537000089	0	271597	235
531.50390625	1	decision	trialStart	1	51	51	foodImage.115	FOODEEG_Images\0923.jpg	NY	Right	Yes	0.991689899994526	0	272131	251
532.54296875	2	decision	foodImageDisplay	1	51	51	foodImage.115	FOODEEG_Images\0923.jpg	NY	Right	Yes	0.991689899994526	0	272663	252
534.60546875	0.991689899994526	decision	choicePhaseStart	1	51	51	foodImage.115	FOODEEG_Images\0923.jpg	NY	Right	Yes	0.991689899994526	0	273719	253
535.587890625	0	decision	response	1	51	51	foodImage.115	FOODEEG_Images\0923.jpg	NY	Right	Yes	0.991689899994526	0	274222	235
536.62890625	1	taste	trialStart	1	52	52	foodImage.50	FOODEEG_Images\0529.jpg	NY	Left	No	0.821646099968348	0	274755	251
537.689453125	2	taste	foodImageDisplay	1	52	52	foodImage.50	FOODEEG_Images\0529.jpg	NY	Left	No	0.821646099968348	0	275298	252
539.751953125	0.821646099968348	taste	choicePhaseStart	1	52	52	foodImage.50	FOODEEG_Images\0529.jpg	NY	Left	No	0.821646099968348	0	276354	253
540.564453125	0	taste	response	1	52	52	foodImage.50	FOODEEG_Images\0529.jpg	NY	Left	No	0.821646099968348	0	276770	234
541.607421875	1	decision	trialStart	1	53	53	foodImage.83	FOODEEG_Images\0827.jpg	NY	Left	No	1.46406209998531	0	277304	251
542.662109375	2	decision	foodImageDisplay	1	53	53	foodImage.83	FOODEEG_Images\0827.jpg	NY	Left	No	1.46406209998531	0	277844	252
544.724609375	1.46406209998531	decision	choicePhaseStart	1	53	53	foodImage.83	FOODEEG_Images\0827.jpg	NY	Left	No	1.46406209998531	0	278900	253
546.1796875	0	decision	response	1	53	53	foodImage.83	FOODEEG_Images\0827.jpg	NY	Left	No	1.46406209998531	0	279645	234
547.224609375	1	health	trialStart	1	54	54	foodImage.106	FOODEEG_Images\0914.jpg	YN	Right	No	1.54894850001438	0	280180	251
548.263671875	2	health	foodImageDisplay	1	54	54	foodImage.106	FOODEEG_Images\0914.jpg	YN	Right	No	1.54894850001438	0	280712	252
550.326171875	1.54894850001438	health	choicePhaseStart	1	54	54	foodImage.106	FOODEEG_Images\0914.jpg	YN	Right	No	1.54894850001438	0	281768	253
551.8671875	0	health	response	1	54	54	foodImage.106	FOODEEG_Images\0914.jpg	YN	Right	No	1.54894850001438	0	282557	235
552.91015625	1	health	trialStart	1	55	55	foodImage.43	FOODEEG_Images\0445.jpg	YN	Left	Yes	0.646775500033982	0	283091	251
553.966796875	2	health	foodImageDisplay	1	55	55	foodImage.43	FOODEEG_Images\0445.jpg	YN	Left	Yes	0.646775500033982	0	283632	252
556.029296875	0.646775500033982	health	choicePhaseStart	1	55	55	foodImage.43	FOODEEG_Images\0445.jpg	YN	Left	Yes	0.646775500033982	0	284688	253
556.66796875	0	health	response	1	55	55	foodImage.43	FOODEEG_Images\0445.jpg	YN	Left	Yes	0.646775500033982	0	285015	234
557.708984375	1	taste	trialStart	1	56	56	foodImage.63	FOODEEG_Images\0645.jpg	NY	Right	Yes	3.09319010004401	0	285548	251
558.751953125	2	taste	foodImageDisplay	1	56	56	foodImage.63	FOODEEG_Images\0645.jpg	NY	Right	Yes	3.09319010004401	0	286082	252
560.814453125	3.09319010004401	taste	choicePhaseStart	1	56	56	foodImage.63	FOODEEG_Images\0645.jpg	NY	Right	Yes	3.09319010004401	0	287138	253
563.8984375	0	taste	response	1	56	56	foodImage.63	FOODEEG_Images\0645.jpg	NY	Right	Yes	3.09319010004401	0	288717	235
564.94140625	1	decision	trialStart	1	57	57	foodImage.48	FOODEEG_Images\0494.jpg	YN	Left	Yes	1.11669160000747	0	289251	251
565.984375	2	decision	foodImageDisplay	1	57	57	foodImage.48	FOODEEG_Images\0494.jpg	YN	Left	Yes	1.11669160000747	0	289785	252
568.046875	1.11669160000747	decision	choicePhaseStart	1	57	57	foodImage.48	FOODEEG_Images\0494.jpg	YN	Left	Yes	1.11669160000747	0	290841	253
569.154296875	0	decision	response	1	57	57	foodImage.48	FOODEEG_Images\0494.jpg	YN	Left	Yes	1.11669160000747	0	291408	234
570.1953125	1	health	trialStart	1	58	58	foodImage.57	FOODEEG_Images\0587.jpg	YN	Right	No	1.22383179998724	0	291941	251
571.236328125	2	health	foodImageDisplay	1	58	58	foodImage.57	FOODEEG_Images\0587.jpg	YN	Right	No	1.22383179998724	0	292474	252
573.298828125	1.22383179998724	health	choicePhaseStart	1	58	58	foodImage.57	FOODEEG_Images\0587.jpg	YN	Right	No	1.22383179998724	0	293530	253
574.513671875	0	health	response	1	58	58	foodImage.57	FOODEEG_Images\0587.jpg	YN	Right	No	1.22383179998724	0	294152	235
575.556640625	1	decision	trialStart	1	59	59	foodImage.23	FOODEEG_Images\0244.jpg	YN	Right	No	0.878770899958909	0	294686	251
576.59765625	2	decision	foodImageDisplay	1	59	59	foodImage.23	FOODEEG_Images\0244.jpg	YN	Right	No	0.878770899958909	0	295219	252
578.66015625	0.878770899958909	decision	choicePhaseStart	1	59	59	foodImage.23	FOODEEG_Images\0244.jpg	YN	Right	No	0.878770899958909	0	296275	253
579.529296875	0	decision	response	1	59	59	foodImage.23	FOODEEG_Images\0244.jpg	YN	Right	No	0.878770899958909	0	296720	235
580.572265625	1	decision	trialStart	1	60	60	foodImage.99	FOODEEG_Images\0907.jpg	YN	Right	No	0.757467100047506	0	297254	251
581.611328125	2	decision	foodImageDisplay	1	60	60	foodImage.99	FOODEEG_Images\0907.jpg	YN	Right	No	0.757467100047506	0	297786	252
583.677734375	0.757467100047506	decision	choicePhaseStart	1	60	60	foodImage.99	FOODEEG_Images\0907.jpg	YN	Right	No	0.757467100047506	0	298844	253
584.42578125	0	decision	response	1	60	60	foodImage.99	FOODEEG_Images\0907.jpg	YN	Right	No	0.757467100047506	0	299227	235
586.466796875	38.880859375	n/a	blockEnd	n/a	n/a	n/a	n/a	n/a	n/a	n/a	n/a	n/a	n/a	300272	254
625.34765625	2	n/a	blockStart	2	n/a	n/a	n/a	n/a	n/a	n/a	n/a	n/a	n/a	320179	250
627.380859375	1	decision	trialStart	2	61	1	foodImage.5	FOODEEG_Images\0107.jpg	NY	Right	Yes	0.808456099999603	0	321220	251
628.44140625	2	decision	foodImageDisplay	2	61	1	foodImage.5	FOODEEG_Images\0107.jpg	NY	Right	Yes	0.808456099999603	0	321763	252
630.50390625	0.808456099999603	decision	choicePhaseStart	2	61	1	foodImage.5	FOODEEG_Images\0107.jpg	NY	Right	Yes	0.808456099999603	0	322819	253
631.3046875	0	decision	response	2	61	1	foodImage.5	FOODEEG_Images\0107.jpg	NY	Right	Yes	0.808456099999603	0	323229	235
632.34765625	1	taste	trialStart	2	62	2	foodImage.67	FOODEEG_Images\0679.jpg	NY	Right	Yes	1.3271491000196	0	323763	251
633.40234375	2	taste	foodImageDisplay	2	62	2	foodImage.67	FOODEEG_Images\0679.jpg	NY	Right	Yes	1.3271491000196	0	324303	252
635.46484375	1.3271491000196	taste	choicePhaseStart	2	62	2	foodImage.67	FOODEEG_Images\0679.jpg	NY	Right	Yes	1.3271491000196	0	325359	253
636.783203125	0	taste	response	2	62	2	foodImage.67	FOODEEG_Images\0679.jpg	NY	Right	Yes	1.3271491000196	0	326034	235
637.826171875	1	taste	trialStart	2	63	3	foodImage.94	FOODEEG_Images\0902.jpg	NY	Left	No	2.12242969998624	0	326568	251
638.86328125	2	taste	foodImageDisplay	2	63	3	foodImage.94	FOODEEG_Images\0902.jpg	NY	Left	No	2.12242969998624	0	327099	252
640.927734375	2.12242969998624	taste	choicePhaseStart	2	63	3	foodImage.94	FOODEEG_Images\0902.jpg	NY	Left	No	2.12242969998624	0	328156	253
643.0390625	0	taste	response	2	63	3	foodImage.94	FOODEEG_Images\0902.jpg	NY	Left	No	2.12242969998624	0	329237	234
644.08203125	1	taste	trialStart	2	64	4	foodImage.73	FOODEEG_Images\0717.jpg	YN	Left	Yes	0.698442199965939	0	329771	251
645.13671875	2	taste	foodImageDisplay	2	64	4	foodImage.73	FOODEEG_Images\0717.jpg	YN	Left	Yes	0.698442199965939	0	330311	252
647.19921875	0.698442199965939	taste	choicePhaseStart	2	64	4	foodImage.73	FOODEEG_Images\0717.jpg	YN	Left	Yes	0.698442199965939	0	331367	253
647.88671875	0	taste	response	2	64	4	foodImage.73	FOODEEG_Images\0717.jpg	YN	Left	Yes	0.698442199965939	0	331719	234
648.9296875	1	health	trialStart	2	65	5	foodImage.98	FOODEEG_Images\0906.jpg	NY	Left	No	1.56268650002312	0	332253	251
649.966796875	2	health	foodImageDisplay	2	65	5	foodImage.98	FOODEEG_Images\0906.jpg	NY	Left	No	1.56268650002312	0	332784	252
652.029296875	1.56268650002312	health	choicePhaseStart	2	65	5	foodImage.98	FOODEEG_Images\0906.jpg	NY	Left	No	1.56268650002312	0	333840	253
653.583984375	0	health	response	2	65	5	foodImage.98	FOODEEG_Images\0906.jpg	NY	Left	No	1.56268650002312	0	334636	234
654.625	1	decision	trialStart	2	66	6	foodImage.18	FOODEEG_Images\0202.jpg	NY	Right	Yes	0.556042500014883	0	335169	251
655.6875	2	decision	foodImageDisplay	2	66	6	foodImage.18	FOODEEG_Images\0202.jpg	NY	Right	Yes	0.556042500014883	0	335713	252
657.748046875	0.556042500014883	decision	choicePhaseStart	2	66	6	foodImage.18	FOODEEG_Images\0202.jpg	NY	Right	Yes	0.556042500014883	0	336768	253
658.294921875	0	decision	response	2	66	6	foodImage.18	FOODEEG_Images\0202.jpg	NY	Right	Yes	0.556042500014883	0	337048	235
659.337890625	1	decision	trialStart	2	67	7	foodImage.43	FOODEEG_Images\0445.jpg	YN	Left	Yes	2.01406580000184	0	337582	251
660.39453125	2	decision	foodImageDisplay	2	67	7	foodImage.43	FOODEEG_Images\0445.jpg	YN	Left	Yes	2.01406580000184	0	338123	252
662.45703125	2.01406580000184	decision	choicePhaseStart	2	67	7	foodImage.43	FOODEEG_Images\0445.jpg	YN	Left	Yes	2.01406580000184	0	339179	253
664.462890625	0	decision	response	2	67	7	foodImage.43	FOODEEG_Images\0445.jpg	YN	Left	Yes	2.01406580000184	0	340206	234
665.505859375	1	health	trialStart	2	68	8	foodImage.17	FOODEEG_Images\0199.jpg	YN	Left	Yes	1.02723770000739	0	340740	251
666.548828125	2	health	foodImageDisplay	2	68	8	foodImage.17	FOODEEG_Images\0199.jpg	YN	Left	Yes	1.02723770000739	0	341274	252
668.611328125	1.02723770000739	health	choicePhaseStart	2	68	8	foodImage.17	FOODEEG_Images\0199.jpg	YN	Left	Yes	1.02723770000739	0	342330	253
669.630859375	0	health	response	2	68	8	foodImage.17	FOODEEG_Images\0199.jpg	YN	Left	Yes	1.02723770000739	0	342852	234
670.671875	1	taste	trialStart	2	69	9	foodImage.12	FOODEEG_Images\0181.jpg	NY	Left	No	0.782384099962655	0	343385	251
671.71484375	2	taste	foodImageDisplay	2	69	9	foodImage.12	FOODEEG_Images\0181.jpg	NY	Left	No	0.782384099962655	0	343919	252
673.77734375	0.782384099962655	taste	choicePhaseStart	2	69	9	foodImage.12	FOODEEG_Images\0181.jpg	NY	Left	No	0.782384099962655	0	344975	253
674.55078125	0	taste	response	2	69	9	foodImage.12	FOODEEG_Images\0181.jpg	NY	Left	No	0.782384099962655	0	345371	234
675.591796875	1	health	trialStart	2	70	10	foodImage.9	FOODEEG_Images\0138.jpg	YN	Right	No	0.973293299961369	0	345904	251
676.650390625	2	health	foodImageDisplay	2	70	10	foodImage.9	FOODEEG_Images\0138.jpg	YN	Right	No	0.973293299961369	0	346446	252
678.712890625	0.973293299961369	health	choicePhaseStart	2	70	10	foodImage.9	FOODEEG_Images\0138.jpg	YN	Right	No	0.973293299961369	0	347502	253
679.677734375	0	health	response	2	70	10	foodImage.9	FOODEEG_Images\0138.jpg	YN	Right	No	0.973293299961369	0	347996	235
680.720703125	1	health	trialStart	2	71	11	foodImage.32	FOODEEG_Images\0319.jpg	NY	Left	No	2.28873049997492	0	348530	251
681.765625	2	health	foodImageDisplay	2	71	11	foodImage.32	FOODEEG_Images\0319.jpg	NY	Left	No	2.28873049997492	0	349065	252
683.828125	2.28873049997492	health	choicePhaseStart	2	71	11	foodImage.32	FOODEEG_Images\0319.jpg	NY	Left	No	2.28873049997492	0	350121	253
686.109375	0	health	response	2	71	11	foodImage.32	FOODEEG_Images\0319.jpg	NY	Left	No	2.28873049997492	0	351289	234
687.150390625	1	decision	trialStart	2	72	12	foodImage.15	FOODEEG_Images\0189.jpg	YN	Left	Yes	0.696356999978889	0	351822	251
688.20703125	2	decision	foodImageDisplay	2	72	12	foodImage.15	FOODEEG_Images\0189.jpg	YN	Left	Yes	0.696356999978889	0	352363	252
690.26953125	0.696356999978889	decision	choicePhaseStart	2	72	12	foodImage.15	FOODEEG_Images\0189.jpg	YN	Left	Yes	0.696356999978889	0	353419	253
690.95703125	0	decision	response	2	72	12	foodImage.15	FOODEEG_Images\0189.jpg	YN	Left	Yes	0.696356999978889	0	353771	234
692	1	health	trialStart	2	73	13	foodImage.116	FOODEEG_Images\0924.jpg	YN	Right	No	2.04678839998087	0	354305	251
693.041015625	2	health	foodImageDisplay	2	73	13	foodImage.116	FOODEEG_Images\0924.jpg	YN	Right	No	2.04678839998087	0	354838	252
695.10546875	2.04678839998087	health	choicePhaseStart	2	73	13	foodImage.116	FOODEEG_Images\0924.jpg	YN	Right	No	2.04678839998087	0	355895	253
697.140625	0	health	response	2	73	13	foodImage.116	FOODEEG_Images\0924.jpg	YN	Right	No	2.04678839998087	0	356937	235
698.185546875	1	health	trialStart	2	74	14	foodImage.70	FOODEEG_Images\0705.jpg	NY	Right	Yes	2.37552349996986	0	357472	251
699.248046875	2	health	foodImageDisplay	2	74	14	foodImage.70	FOODEEG_Images\0705.jpg	NY	Right	Yes	2.37552349996986	0	358016	252
701.310546875	2.37552349996986	health	choicePhaseStart	2	74	14	foodImage.70	FOODEEG_Images\0705.jpg	NY	Right	Yes	2.37552349996986	0	359072	253
703.677734375	0	health	response	2	74	14	foodImage.70	FOODEEG_Images\0705.jpg	NY	Right	Yes	2.37552349996986	0	360284	235
704.72265625	1	taste	trialStart	2	75	15	foodImage.120	FOODEEG_Images\0928.jpg	YN	Right	No	1.07609069999307	0	360819	251
705.76171875	2	taste	foodImageDisplay	2	75	15	foodImage.120	FOODEEG_Images\0928.jpg	YN	Right	No	1.07609069999307	0	361351	252
707.826171875	1.07609069999307	taste	choicePhaseStart	2	75	15	foodImage.120	FOODEEG_Images\0928.jpg	YN	Right	No	1.07609069999307	0	362408	253
708.892578125	0	taste	response	2	75	15	foodImage.120	FOODEEG_Images\0928.jpg	YN	Right	No	1.07609069999307	0	362954	235
709.935546875	1	taste	trialStart	2	76	16	foodImage.102	FOODEEG_Images\0910.jpg	NY	Left	No	0.98591019999003	0	363488	251
710.97265625	2	taste	foodImageDisplay	2	76	16	foodImage.102	FOODEEG_Images\0910.jpg	NY	Left	No	0.98591019999003	0	364019	252
713.037109375	0.98591019999003	taste	choicePhaseStart	2	76	16	foodImage.102	FOODEEG_Images\0910.jpg	NY	Left	No	0.98591019999003	0	365076	253
714.013671875	0	taste	response	2	76	16	foodImage.102	FOODEEG_Images\0910.jpg	NY	Left	No	0.98591019999003	0	365576	234
715.0546875	1	health	trialStart	2	77	17	foodImage.52	FOODEEG_Images\0539.jpg	NY	Right	Yes	1.12580500001786	0	366109	251
716.11328125	2	health	foodImageDisplay	2	77	17	foodImage.52	FOODEEG_Images\0539.jpg	NY	Right	Yes	1.12580500001786	0	366651	252
718.17578125	1.12580500001786	health	choicePhaseStart	2	77	17	foodImage.52	FOODEEG_Images\0539.jpg	NY	Right	Yes	1.12580500001786	0	367707	253
719.29296875	0	health	response	2	77	17	foodImage.52	FOODEEG_Images\0539.jpg	NY	Right	Yes	1.12580500001786	0	368279	235
720.3359375	1	taste	trialStart	2	78	18	foodImage.78	FOODEEG_Images\0787.jpg	YN	Right	No	1.1701197999646	0	368813	251
721.37890625	2	taste	foodImageDisplay	2	78	18	foodImage.78	FOODEEG_Images\0787.jpg	YN	Right	No	1.1701197999646	0	369347	252
723.44140625	1.1701197999646	taste	choicePhaseStart	2	78	18	foodImage.78	FOODEEG_Images\0787.jpg	YN	Right	No	1.1701197999646	0	370403	253
724.60546875	0	taste	response	2	78	18	foodImage.78	FOODEEG_Images\0787.jpg	YN	Right	No	1.1701197999646	0	370999	235
725.6484375	1	health	trialStart	2	79	19	foodImage.50	FOODEEG_Images\0529.jpg	NY	Right	Yes	1.16303549997974	0	371533	251
726.70703125	2	health	foodImageDisplay	2	79	19	foodImage.50	FOODEEG_Images\0529.jpg	NY	Right	Yes	1.16303549997974	0	372075	252
728.76953125	1.16303549997974	health	choicePhaseStart	2	79	19	foodImage.50	FOODEEG_Images\0529.jpg	NY	Right	Yes	1.16303549997974	0	373131	253
729.923828125	0	health	response	2	79	19	foodImage.50	FOODEEG_Images\0529.jpg	NY	Right	Yes	1.16303549997974	0	373722	235
730.966796875	1	taste	trialStart	2	80	20	foodImage.37	FOODEEG_Images\0359.jpg	YN	Right	No	1.13548190001165	0	374256	251
732.0078125	2	taste	foodImageDisplay	2	80	20	foodImage.37	FOODEEG_Images\0359.jpg	YN	Right	No	1.13548190001165	0	374789	252
734.0703125	1.13548190001165	taste	choicePhaseStart	2	80	20	foodImage.37	FOODEEG_Images\0359.jpg	YN	Right	No	1.13548190001165	0	375845	253
735.1953125	0	taste	response	2	80	20	foodImage.37	FOODEEG_Images\0359.jpg	YN	Right	No	1.13548190001165	0	376421	235
736.23828125	1	health	trialStart	2	81	21	foodImage.41	FOODEEG_Images\0409.jpg	YN	Left	Yes	1.16619319998426	0	376955	251
737.287109375	2	health	foodImageDisplay	2	81	21	foodImage.41	FOODEEG_Images\0409.jpg	YN	Left	Yes	1.16619319998426	0	377492	252
739.349609375	1.16619319998426	health	choicePhaseStart	2	81	21	foodImage.41	FOODEEG_Images\0409.jpg	YN	Left	Yes	1.16619319998426	0	378548	253
740.5078125	0	health	response	2	81	21	foodImage.41	FOODEEG_Images\0409.jpg	YN	Left	Yes	1.16619319998426	0	379141	234
741.55078125	1	decision	trialStart	2	82	22	foodImage.105	FOODEEG_Images\0913.jpg	YN	Left	Yes	1.60185400000773	0	379675	251
742.587890625	2	decision	foodImageDisplay	2	82	22	foodImage.105	FOODEEG_Images\0913.jpg	YN	Left	Yes	1.60185400000773	0	380206	252
744.650390625	1.60185400000773	decision	choicePhaseStart	2	82	22	foodImage.105	FOODEEG_Images\0913.jpg	YN	Left	Yes	1.60185400000773	0	381262	253
746.244140625	0	decision	response	2	82	22	foodImage.105	FOODEEG_Images\0913.jpg	YN	Left	Yes	1.60185400000773	0	382078	234
747.287109375	1	decision	trialStart	2	83	23	foodImage.30	FOODEEG_Images\0282.jpg	YN	Left	Yes	0.657258000050206	0	382612	251
748.330078125	2	decision	foodImageDisplay	2	83	23	foodImage.30	FOODEEG_Images\0282.jpg	YN	Left	Yes	0.657258000050206	0	383146	252
750.392578125	0.657258000050206	decision	choicePhaseStart	2	83	23	foodImage.30	FOODEEG_Images\0282.jpg	YN	Left	Yes	0.657258000050206	0	384202	253
751.04296875	0	decision	response	2	83	23	foodImage.30	FOODEEG_Images\0282.jpg	YN	Left	Yes	0.657258000050206	0	384535	234
752.0859375	1	health	trialStart	2	84	24	foodImage.54	FOODEEG_Images\0560.jpg	NY	Right	Yes	1.33410989999538	0	385069	251
753.14453125	2	health	foodImageDisplay	2	84	24	foodImage.54	FOODEEG_Images\0560.jpg	NY	Right	Yes	1.33410989999538	0	385611	252
755.20703125	1.33410989999538	health	choicePhaseStart	2	84	24	foodImage.54	FOODEEG_Images\0560.jpg	NY	Right	Yes	1.33410989999538	0	386667	253
756.53125	0	health	response	2	84	24	foodImage.54	FOODEEG_Images\0560.jpg	NY	Right	Yes	1.33410989999538	0	387345	235
757.57421875	1	taste	trialStart	2	85	25	foodImage.112	FOODEEG_Images\0920.jpg	NY	Left	No	0.66928969998844	0	387879	251
758.615234375	2	taste	foodImageDisplay	2	85	25	foodImage.112	FOODEEG_Images\0920.jpg	NY	Left	No	0.66928969998844	0	388412	252
760.67578125	0.66928969998844	taste	choicePhaseStart	2	85	25	foodImage.112	FOODEEG_Images\0920.jpg	NY	Left	No	0.66928969998844	0	389467	253
761.33984375	0	taste	response	2	85	25	foodImage.112	FOODEEG_Images\0920.jpg	NY	Left	No	0.66928969998844	0	389807	234
762.38671875	1	taste	trialStart	2	86	26	foodImage.42	FOODEEG_Images\0438.jpg	NY	Left	No	1.04610929999035	0	390343	251
763.4765625	2	taste	foodImageDisplay	2	86	26	foodImage.42	FOODEEG_Images\0438.jpg	NY	Left	No	1.04610929999035	0	390901	252
765.5390625	1.04610929999035	taste	choicePhaseStart	2	86	26	foodImage.42	FOODEEG_Images\0438.jpg	NY	Left	No	1.04610929999035	0	391957	253
766.578125	0	taste	response	2	86	26	foodImage.42	FOODEEG_Images\0438.jpg	NY	Left	No	1.04610929999035	0	392489	234
767.623046875	1	taste	trialStart	2	87	27	foodImage.36	FOODEEG_Images\0352.jpg	NY	Right	Yes	0.767473900050391	0	393024	251
768.685546875	2	taste	foodImageDisplay	2	87	27	foodImage.36	FOODEEG_Images\0352.jpg	NY	Right	Yes	0.767473900050391	0	393568	252
770.748046875	0.767473900050391	taste	choicePhaseStart	2	87	27	foodImage.36	FOODEEG_Images\0352.jpg	NY	Right	Yes	0.767473900050391	0	394624	253
771.505859375	0	taste	response	2	87	27	foodImage.36	FOODEEG_Images\0352.jpg	NY	Right	Yes	0.767473900050391	0	395012	235
772.552734375	1	taste	trialStart	2	88	28	foodImage.46	FOODEEG_Images\0479.jpg	YN	Left	Yes	0.726973399985582	0	395548	251
773.611328125	2	taste	foodImageDisplay	2	88	28	foodImage.46	FOODEEG_Images\0479.jpg	YN	Left	Yes	0.726973399985582	0	396090	252
775.673828125	0.726973399985582	taste	choicePhaseStart	2	88	28	foodImage.46	FOODEEG_Images\0479.jpg	YN	Left	Yes	0.726973399985582	0	397146	253
776.39453125	0	taste	response	2	88	28	foodImage.46	FOODEEG_Images\0479.jpg	YN	Left	Yes	0.726973399985582	0	397515	234
777.435546875	1	taste	trialStart	2	89	29	foodImage.14	FOODEEG_Images\0188.jpg	NY	Right	Yes	0.862783799995668	0	398048	251
778.4921875	2	taste	foodImageDisplay	2	89	29	foodImage.14	FOODEEG_Images\0188.jpg	NY	Right	Yes	0.862783799995668	0	398589	252
780.5546875	0.862783799995668	taste	choicePhaseStart	2	89	29	foodImage.14	FOODEEG_Images\0188.jpg	NY	Right	Yes	0.862783799995668	0	399645	253
781.41015625	0	taste	response	2	89	29	foodImage.14	FOODEEG_Images\0188.jpg	NY	Right	Yes	0.862783799995668	0	400083	235
782.453125	1	health	trialStart	2	90	30	foodImage.12	FOODEEG_Images\0181.jpg	NY	Right	Yes	0.853453000017907	0	400617	251
783.494140625	2	health	foodImageDisplay	2	90	30	foodImage.12	FOODEEG_Images\0181.jpg	NY	Right	Yes	0.853453000017907	0	401150	252
785.556640625	0.853453000017907	health	choicePhaseStart	2	90	30	foodImage.12	FOODEEG_Images\0181.jpg	NY	Right	Yes	0.853453000017907	0	402206	253
786.40234375	0	health	response	2	90	30	foodImage.12	FOODEEG_Images\0181.jpg	NY	Right	Yes	0.853453000017907	0	402639	235
787.4453125	1	health	trialStart	2	91	31	foodImage.72	FOODEEG_Images\0714.jpg	NY	Right	Yes	0.964115799986757	0	403173	251
788.48828125	2	health	foodImageDisplay	2	91	31	foodImage.72	FOODEEG_Images\0714.jpg	NY	Right	Yes	0.964115799986757	0	403707	252
790.55078125	0.964115799986757	health	choicePhaseStart	2	91	31	foodImage.72	FOODEEG_Images\0714.jpg	NY	Right	Yes	0.964115799986757	0	404763	253
791.505859375	0	health	response	2	91	31	foodImage.72	FOODEEG_Images\0714.jpg	NY	Right	Yes	0.964115799986757	0	405252	235
792.548828125	1	health	trialStart	2	92	32	foodImage.59	FOODEEG_Images\0607.jpg	NY	Left	No	1.33512979996158	0	405786	251
793.59765625	2	health	foodImageDisplay	2	92	32	foodImage.59	FOODEEG_Images\0607.jpg	NY	Left	No	1.33512979996158	0	406323	252
795.66015625	1.33512979996158	health	choicePhaseStart	2	92	32	foodImage.59	FOODEEG_Images\0607.jpg	NY	Left	No	1.33512979996158	0	407379	253
796.986328125	0	health	response	2	92	32	foodImage.59	FOODEEG_Images\0607.jpg	NY	Left	No	1.33512979996158	0	408058	234
798.029296875	1	decision	trialStart	2	93	33	foodImage.81	FOODEEG_Images\0797.jpg	NY	Left	No	0.965598399983719	0	408592	251
799.0859375	2	decision	foodImageDisplay	2	93	33	foodImage.81	FOODEEG_Images\0797.jpg	NY	Left	No	0.965598399983719	0	409133	252
801.1484375	0.965598399983719	decision	choicePhaseStart	2	93	33	foodImage.81	FOODEEG_Images\0797.jpg	NY	Left	No	0.965598399983719	0	410189	253
802.10546875	0	decision	response	2	93	33	foodImage.81	FOODEEG_Images\0797.jpg	NY	Left	No	0.965598399983719	0	410679	234
803.1484375	1	taste	trialStart	2	94	34	foodImage.64	FOODEEG_Images\0647.jpg	NY	Right	Yes	1.07855360000394	0	411213	251
804.205078125	2	taste	foodImageDisplay	2	94	34	foodImage.64	FOODEEG_Images\0647.jpg	NY	Right	Yes	1.07855360000394	0	411754	252
806.267578125	1.07855360000394	taste	choicePhaseStart	2	94	34	foodImage.64	FOODEEG_Images\0647.jpg	NY	Right	Yes	1.07855360000394	0	412810	253
807.337890625	0	taste	response	2	94	34	foodImage.64	FOODEEG_Images\0647.jpg	NY	Right	Yes	1.07855360000394	0	413358	235
808.37890625	1	decision	trialStart	2	95	35	foodImage.68	FOODEEG_Images\0685.jpg	NY	Right	Yes	0.732207299966831	0	413891	251
809.4609375	2	decision	foodImageDisplay	2	95	35	foodImage.68	FOODEEG_Images\0685.jpg	NY	Right	Yes	0.732207299966831	0	414445	252
811.5234375	0.732207299966831	decision	choicePhaseStart	2	95	35	foodImage.68	FOODEEG_Images\0685.jpg	NY	Right	Yes	0.732207299966831	0	415501	253
812.248046875	0	decision	response	2	95	35	foodImage.68	FOODEEG_Images\0685.jpg	NY	Right	Yes	0.732207299966831	0	415872	235
813.291015625	1	health	trialStart	2	96	36	foodImage.113	FOODEEG_Images\0921.jpg	YN	Left	Yes	2.71518060000381	0	416406	251
814.328125	2	health	foodImageDisplay	2	96	36	foodImage.113	FOODEEG_Images\0921.jpg	YN	Left	Yes	2.71518060000381	0	416937	252
816.390625	2.71518060000381	health	choicePhaseStart	2	96	36	foodImage.113	FOODEEG_Images\0921.jpg	YN	Left	Yes	2.71518060000381	0	417993	253
819.09765625	0	health	response	2	96	36	foodImage.113	FOODEEG_Images\0921.jpg	YN	Left	Yes	2.71518060000381	0	419379	234
820.140625	1	decision	trialStart	2	97	37	foodImage.100	FOODEEG_Images\0908.jpg	NY	Left	No	0.823813599999994	0	419913	251
821.1796875	2	decision	foodImageDisplay	2	97	37	foodImage.100	FOODEEG_Images\0908.jpg	NY	Left	No	0.823813599999994	0	420445	252
823.2421875	0.823813599999994	decision	choicePhaseStart	2	97	37	foodImage.100	FOODEEG_Images\0908.jpg	NY	Left	No	0.823813599999994	0	421501	253
824.056640625	0	decision	response	2	97	37	foodImage.100	FOODEEG_Images\0908.jpg	NY	Left	No	0.823813599999994	0	421918	234
825.099609375	1	health	trialStart	2	98	38	foodImage.73	FOODEEG_Images\0717.jpg	NY	Right	Yes	1.84717369999271	0	422452	251
826.15625	2	health	foodImageDisplay	2	98	38	foodImage.73	FOODEEG_Images\0717.jpg	NY	Right	Yes	1.84717369999271	0	422993	252
828.21875	1.84717369999271	health	choicePhaseStart	2	98	38	foodImage.73	FOODEEG_Images\0717.jpg	NY	Right	Yes	1.84717369999271	0	424049	253
830.056640625	0	health	response	2	98	38	foodImage.73	FOODEEG_Images\0717.jpg	NY	Right	Yes	1.84717369999271	0	424990	235
831.09765625	1	decision	trialStart	2	99	39	foodImage.96	FOODEEG_Images\0904.jpg	YN	Right	No	1.41265469999053	0	425523	251
832.13671875	2	decision	foodImageDisplay	2	99	39	foodImage.96	FOODEEG_Images\0904.jpg	YN	Right	No	1.41265469999053	0	426055	252
834.203125	1.41265469999053	decision	choicePhaseStart	2	99	39	foodImage.96	FOODEEG_Images\0904.jpg	YN	Right	No	1.41265469999053	0	427113	253
835.607421875	0	decision	response	2	99	39	foodImage.96	FOODEEG_Images\0904.jpg	YN	Right	No	1.41265469999053	0	427832	235
836.650390625	1	health	trialStart	2	100	40	foodImage.78	FOODEEG_Images\0787.jpg	NY	Right	Yes	1.30846400000155	0	428366	251
837.6953125	2	health	foodImageDisplay	2	100	40	foodImage.78	FOODEEG_Images\0787.jpg	NY	Right	Yes	1.30846400000155	0	428901	252
839.7578125	1.30846400000155	health	choicePhaseStart	2	100	40	foodImage.78	FOODEEG_Images\0787.jpg	NY	Right	Yes	1.30846400000155	0	429957	253
841.056640625	0	health	response	2	100	40	foodImage.78	FOODEEG_Images\0787.jpg	NY	Right	Yes	1.30846400000155	0	430622	235
842.103515625	1	health	trialStart	2	101	41	foodImage.75	FOODEEG_Images\0763.jpg	NY	Right	Yes	0.950856400013436	0	431158	251
843.1484375	2	health	foodImageDisplay	2	101	41	foodImage.75	FOODEEG_Images\0763.jpg	NY	Right	Yes	0.950856400013436	0	431693	252
845.2109375	0.950856400013436	health	choicePhaseStart	2	101	41	foodImage.75	FOODEEG_Images\0763.jpg	NY	Right	Yes	0.950856400013436	0	432749	253
846.15234375	0	health	response	2	101	41	foodImage.75	FOODEEG_Images\0763.jpg	NY	Right	Yes	0.950856400013436	0	433231	235
847.193359375	1	health	trialStart	2	102	42	foodImage.68	FOODEEG_Images\0685.jpg	NY	Left	No	0.702740700042341	0	433764	251
848.267578125	2	health	foodImageDisplay	2	102	42	foodImage.68	FOODEEG_Images\0685.jpg	NY	Left	No	0.702740700042341	0	434314	252
850.330078125	0.702740700042341	health	choicePhaseStart	2	102	42	foodImage.68	FOODEEG_Images\0685.jpg	NY	Left	No	0.702740700042341	0	435370	253
851.0234375	0	health	response	2	102	42	foodImage.68	FOODEEG_Images\0685.jpg	NY	Left	No	0.702740700042341	0	435725	234
852.072265625	1	health	trialStart	2	103	43	foodImage.76	FOODEEG_Images\0766.jpg	YN	Left	Yes	1.50392609997652	0	436262	251
853.115234375	2	health	foodImageDisplay	2	103	43	foodImage.76	FOODEEG_Images\0766.jpg	YN	Left	Yes	1.50392609997652	0	436796	252
855.18359375	1.50392609997652	health	choicePhaseStart	2	103	43	foodImage.76	FOODEEG_Images\0766.jpg	YN	Left	Yes	1.50392609997652	0	437855	253
856.6796875	0	health	response	2	103	43	foodImage.76	FOODEEG_Images\0766.jpg	YN	Left	Yes	1.50392609997652	0	438621	234
857.72265625	1	taste	trialStart	2	104	44	foodImage.114	FOODEEG_Images\0922.jpg	YN	Right	No	1.7353587000398	0	439155	251
858.76171875	2	taste	foodImageDisplay	2	104	44	foodImage.114	FOODEEG_Images\0922.jpg	YN	Right	No	1.7353587000398	0	439687	252
860.826171875	1.7353587000398	taste	choicePhaseStart	2	104	44	foodImage.114	FOODEEG_Images\0922.jpg	YN	Right	No	1.7353587000398	0	440744	253
862.55078125	0	taste	response	2	104	44	foodImage.114	FOODEEG_Images\0922.jpg	YN	Right	No	1.7353587000398	0	441627	235
863.59375	1	taste	trialStart	2	105	45	foodImage.66	FOODEEG_Images\0676.jpg	NY	Right	Yes	0.787169899966102	0	442161	251
864.634765625	2	taste	foodImageDisplay	2	105	45	foodImage.66	FOODEEG_Images\0676.jpg	NY	Right	Yes	0.787169899966102	0	442694	252
866.69921875	0.787169899966102	taste	choicePhaseStart	2	105	45	foodImage.66	FOODEEG_Images\0676.jpg	NY	Right	Yes	0.787169899966102	0	443751	253
867.478515625	0	taste	response	2	105	45	foodImage.66	FOODEEG_Images\0676.jpg	NY	Right	Yes	0.787169899966102	0	444150	235
868.521484375	1	health	trialStart	2	106	46	foodImage.8	FOODEEG_Images\0136.jpg	NY	Left	No	1.64613529999042	0	444684	251
869.5625	2	health	foodImageDisplay	2	106	46	foodImage.8	FOODEEG_Images\0136.jpg	NY	Left	No	1.64613529999042	0	445217	252
871.625	1.64613529999042	health	choicePhaseStart	2	106	46	foodImage.8	FOODEEG_Images\0136.jpg	NY	Left	No	1.64613529999042	0	446273	253
873.26171875	0	health	response	2	106	46	foodImage.8	FOODEEG_Images\0136.jpg	NY	Left	No	1.64613529999042	0	447111	234
874.306640625	1	decision	trialStart	2	107	47	foodImage.54	FOODEEG_Images\0560.jpg	YN	Left	Yes	1.30743950000033	0	447646	251
875.365234375	2	decision	foodImageDisplay	2	107	47	foodImage.54	FOODEEG_Images\0560.jpg	YN	Left	Yes	1.30743950000033	0	448188	252
877.427734375	1.30743950000033	decision	choicePhaseStart	2	107	47	foodImage.54	FOODEEG_Images\0560.jpg	YN	Left	Yes	1.30743950000033	0	449244	253
878.7265625	0	decision	response	2	107	47	foodImage.54	FOODEEG_Images\0560.jpg	YN	Left	Yes	1.30743950000033	0	449909	234
879.76953125	1	health	trialStart	2	108	48	foodImage.102	FOODEEG_Images\0910.jpg	YN	Right	No	2.11205950001022	0	450443	251
880.80859375	2	health	foodImageDisplay	2	108	48	foodImage.102	FOODEEG_Images\0910.jpg	YN	Right	No	2.11205950001022	0	450975	252
882.87109375	2.11205950001022	health	choicePhaseStart	2	108	48	foodImage.102	FOODEEG_Images\0910.jpg	YN	Right	No	2.11205950001022	0	452031	253
884.974609375	0	health	response	2	108	48	foodImage.102	FOODEEG_Images\0910.jpg	YN	Right	No	2.11205950001022	0	453108	235
886.015625	1	decision	trialStart	2	109	49	foodImage.40	FOODEEG_Images\0373.jpg	YN	Left	Yes	0.901976199995261	0	453641	251
887.060546875	2	decision	foodImageDisplay	2	109	49	foodImage.40	FOODEEG_Images\0373.jpg	YN	Left	Yes	0.901976199995261	0	454176	252
889.12890625	0.901976199995261	decision	choicePhaseStart	2	109	49	foodImage.40	FOODEEG_Images\0373.jpg	YN	Left	Yes	0.901976199995261	0	455235	253
890.021484375	0	decision	response	2	109	49	foodImage.40	FOODEEG_Images\0373.jpg	YN	Left	Yes	0.901976199995261	0	455692	234
891.0625	1	decision	trialStart	2	110	50	foodImage.59	FOODEEG_Images\0607.jpg	NY	Right	Yes	0.796251299965661	0	456225	251
892.107421875	2	decision	foodImageDisplay	2	110	50	foodImage.59	FOODEEG_Images\0607.jpg	NY	Right	Yes	0.796251299965661	0	456760	252
894.169921875	0.796251299965661	decision	choicePhaseStart	2	110	50	foodImage.59	FOODEEG_Images\0607.jpg	NY	Right	Yes	0.796251299965661	0	457816	253
894.95703125	0	decision	response	2	110	50	foodImage.59	FOODEEG_Images\0607.jpg	NY	Right	Yes	0.796251299965661	0	458219	235
896.01171875	1	taste	trialStart	2	111	51	foodImage.43	FOODEEG_Images\0445.jpg	NY	Right	Yes	1.32251639995957	0	458759	251
897.0703125	2	taste	foodImageDisplay	2	111	51	foodImage.43	FOODEEG_Images\0445.jpg	NY	Right	Yes	1.32251639995957	0	459301	252
899.1328125	1.32251639995957	taste	choicePhaseStart	2	111	51	foodImage.43	FOODEEG_Images\0445.jpg	NY	Right	Yes	1.32251639995957	0	460357	253
900.4453125	0	taste	response	2	111	51	foodImage.43	FOODEEG_Images\0445.jpg	NY	Right	Yes	1.32251639995957	0	461029	235
901.48828125	1	decision	trialStart	2	112	52	foodImage.95	FOODEEG_Images\0903.jpg	YN	Right	No	0.779356400016695	0	461563	251
902.525390625	2	decision	foodImageDisplay	2	112	52	foodImage.95	FOODEEG_Images\0903.jpg	YN	Right	No	0.779356400016695	0	462094	252
904.587890625	0.779356400016695	decision	choicePhaseStart	2	112	52	foodImage.95	FOODEEG_Images\0903.jpg	YN	Right	No	0.779356400016695	0	463150	253
905.357421875	0	decision	response	2	112	52	foodImage.95	FOODEEG_Images\0903.jpg	YN	Right	No	0.779356400016695	0	463544	235
906.400390625	1	decision	trialStart	2	113	53	foodImage.16	FOODEEG_Images\0196.jpg	YN	Right	No	1.62729189998936	0	464078	251
907.4609375	2	decision	foodImageDisplay	2	113	53	foodImage.16	FOODEEG_Images\0196.jpg	YN	Right	No	1.62729189998936	0	464621	252
909.5234375	1.62729189998936	decision	choicePhaseStart	2	113	53	foodImage.16	FOODEEG_Images\0196.jpg	YN	Right	No	1.62729189998936	0	465677	253
911.140625	0	decision	response	2	113	53	foodImage.16	FOODEEG_Images\0196.jpg	YN	Right	No	1.62729189998936	0	466505	235
912.18359375	1	taste	trialStart	2	114	54	foodImage.107	FOODEEG_Images\0915.jpg	YN	Right	No	2.26443609996932	0	467039	251
913.22265625	2	taste	foodImageDisplay	2	114	54	foodImage.107	FOODEEG_Images\0915.jpg	YN	Right	No	2.26443609996932	0	467571	252
915.28515625	2.26443609996932	taste	choicePhaseStart	2	114	54	foodImage.107	FOODEEG_Images\0915.jpg	YN	Right	No	2.26443609996932	0	468627	253
917.541015625	0	taste	response	2	114	54	foodImage.107	FOODEEG_Images\0915.jpg	YN	Right	No	2.26443609996932	0	469782	235
918.58203125	1	decision	trialStart	2	115	55	foodImage.20	FOODEEG_Images\0226.jpg	NY	Left	No	0.912909200007562	0	470315	251
919.625	2	decision	foodImageDisplay	2	115	55	foodImage.20	FOODEEG_Images\0226.jpg	NY	Left	No	0.912909200007562	0	470849	252
921.689453125	0.912909200007562	decision	choicePhaseStart	2	115	55	foodImage.20	FOODEEG_Images\0226.jpg	NY	Left	No	0.912909200007562	0	471906	253
922.595703125	0	decision	response	2	115	55	foodImage.20	FOODEEG_Images\0226.jpg	NY	Left	No	0.912909200007562	0	472370	234
923.638671875	1	decision	trialStart	2	116	56	foodImage.87	FOODEEG_Images\0873.jpg	NY	Right	Yes	1.16386329999659	0	472904	251
924.697265625	2	decision	foodImageDisplay	2	116	56	foodImage.87	FOODEEG_Images\0873.jpg	NY	Right	Yes	1.16386329999659	0	473446	252
926.759765625	1.16386329999659	decision	choicePhaseStart	2	116	56	foodImage.87	FOODEEG_Images\0873.jpg	NY	Right	Yes	1.16386329999659	0	474502	253
927.916015625	0	decision	response	2	116	56	foodImage.87	FOODEEG_Images\0873.jpg	NY	Right	Yes	1.16386329999659	0	475094	235
928.958984375	1	health	trialStart	2	117	57	foodImage.19	FOODEEG_Images\0225.jpg	YN	Left	Yes	0.617078300041612	0	475628	251
930.00390625	2	health	foodImageDisplay	2	117	57	foodImage.19	FOODEEG_Images\0225.jpg	YN	Left	Yes	0.617078300041612	0	476163	252
932.06640625	0.617078300041612	health	choicePhaseStart	2	117	57	foodImage.19	FOODEEG_Images\0225.jpg	YN	Left	Yes	0.617078300041612	0	477219	253
932.67578125	0	health	response	2	117	57	foodImage.19	FOODEEG_Images\0225.jpg	YN	Left	Yes	0.617078300041612	0	477531	234
933.71875	1	taste	trialStart	2	118	58	foodImage.91	FOODEEG_Images\0896.jpg	NY	Right	Yes	0.956560500024352	0	478065	251
934.77734375	2	taste	foodImageDisplay	2	118	58	foodImage.91	FOODEEG_Images\0896.jpg	NY	Right	Yes	0.956560500024352	0	478607	252
936.83984375	0.956560500024352	taste	choicePhaseStart	2	118	58	foodImage.91	FOODEEG_Images\0896.jpg	NY	Right	Yes	0.956560500024352	0	479663	253
937.787109375	0	taste	response	2	118	58	foodImage.91	FOODEEG_Images\0896.jpg	NY	Right	Yes	0.956560500024352	0	480148	235
938.830078125	1	health	trialStart	2	119	59	foodImage.46	FOODEEG_Images\0479.jpg	YN	Left	Yes	1.05742540000938	0	480682	251
939.884765625	2	health	foodImageDisplay	2	119	59	foodImage.46	FOODEEG_Images\0479.jpg	YN	Left	Yes	1.05742540000938	0	481222	252
941.947265625	1.05742540000938	health	choicePhaseStart	2	119	59	foodImage.46	FOODEEG_Images\0479.jpg	YN	Left	Yes	1.05742540000938	0	482278	253
942.99609375	0	health	response	2	119	59	foodImage.46	FOODEEG_Images\0479.jpg	YN	Left	Yes	1.05742540000938	0	482815	234
944.041015625	1	health	trialStart	2	120	60	foodImage.58	FOODEEG_Images\0605.jpg	YN	Left	Yes	0.912398400017992	0	483350	251
945.1015625	2	health	foodImageDisplay	2	120	60	foodImage.58	FOODEEG_Images\0605.jpg	YN	Left	Yes	0.912398400017992	0	483893	252
947.1640625	0.912398400017992	health	choicePhaseStart	2	120	60	foodImage.58	FOODEEG_Images\0605.jpg	YN	Left	Yes	0.912398400017992	0	484949	253
948.068359375	0	health	response	2	120	60	foodImage.58	FOODEEG_Images\0605.jpg	YN	Left	Yes	0.912398400017992	0	485412	234
950.109375	38.828125	n/a	blockEnd	n/a	n/a	n/a	n/a	n/a	n/a	n/a	n/a	n/a	n/a	486457	254
988.9375	2	n/a	blockStart	3	n/a	n/a	n/a	n/a	n/a	n/a	n/a	n/a	n/a	506337	250
990.96875	1	taste	trialStart	3	121	1	foodImage.101	FOODEEG_Images\0909.jpg	YN	Right	No	0.805169500003103	0	507377	251
992.021484375	2	taste	foodImageDisplay	3	121	1	foodImage.101	FOODEEG_Images\0909.jpg	YN	Right	No	0.805169500003103	0	507916	252
994.083984375	0.805169500003103	taste	choicePhaseStart	3	121	1	foodImage.101	FOODEEG_Images\0909.jpg	YN	Right	No	0.805169500003103	0	508972	253
994.880859375	0	taste	response	3	121	1	foodImage.101	FOODEEG_Images\0909.jpg	YN	Right	No	0.805169500003103	0	509380	235
995.9296875	1	health	trialStart	3	122	2	foodImage.29	FOODEEG_Images\0278.jpg	YN	Left	Yes	1.08207049994962	0	509917	251
996.970703125	2	health	foodImageDisplay	3	122	2	foodImage.29	FOODEEG_Images\0278.jpg	YN	Left	Yes	1.08207049994962	0	510450	252
999.03125	1.08207049994962	health	choicePhaseStart	3	122	2	foodImage.29	FOODEEG_Images\0278.jpg	YN	Left	Yes	1.08207049994962	0	511505	253
1000.10546875	0	health	response	3	122	2	foodImage.29	FOODEEG_Images\0278.jpg	YN	Left	Yes	1.08207049994962	0	512055	234
1001.1484375	1	decision	trialStart	3	123	3	foodImage.56	FOODEEG_Images\0586.jpg	YN	Right	No	2.77035789994989	0	512589	251
1002.193359375	2	decision	foodImageDisplay	3	123	3	foodImage.56	FOODEEG_Images\0586.jpg	YN	Right	No	2.77035789994989	0	513124	252
1004.255859375	2.77035789994989	decision	choicePhaseStart	3	123	3	foodImage.56	FOODEEG_Images\0586.jpg	YN	Right	No	2.77035789994989	0	514180	253
1007.017578125	0	decision	response	3	123	3	foodImage.56	FOODEEG_Images\0586.jpg	YN	Right	No	2.77035789994989	0	515594	235
1008.05859375	1	decision	trialStart	3	124	4	foodImage.116	FOODEEG_Images\0924.jpg	YN	Right	No	0.793517599988263	0	516127	251
1009.09765625	2	decision	foodImageDisplay	3	124	4	foodImage.116	FOODEEG_Images\0924.jpg	YN	Right	No	0.793517599988263	0	516659	252
1011.16015625	0.793517599988263	decision	choicePhaseStart	3	124	4	foodImage.116	FOODEEG_Images\0924.jpg	YN	Right	No	0.793517599988263	0	517715	253
1011.9453125	0	decision	response	3	124	4	foodImage.116	FOODEEG_Images\0924.jpg	YN	Right	No	0.793517599988263	0	518117	235
1012.98828125	1	taste	trialStart	3	125	5	foodImage.96	FOODEEG_Images\0904.jpg	NY	Left	No	2.13714460004121	0	518651	251
1014.025390625	2	taste	foodImageDisplay	3	125	5	foodImage.96	FOODEEG_Images\0904.jpg	NY	Left	No	2.13714460004121	0	519182	252
1016.087890625	2.13714460004121	taste	choicePhaseStart	3	125	5	foodImage.96	FOODEEG_Images\0904.jpg	NY	Left	No	2.13714460004121	0	520238	253
1018.216796875	0	taste	response	3	125	5	foodImage.96	FOODEEG_Images\0904.jpg	NY	Left	No	2.13714460004121	0	521328	234
1019.259765625	1	decision	trialStart	3	126	6	foodImage.63	FOODEEG_Images\0645.jpg	YN	Left	Yes	1.06160329998238	0	521862	251
1020.30078125	2	decision	foodImageDisplay	3	126	6	foodImage.63	FOODEEG_Images\0645.jpg	YN	Left	Yes	1.06160329998238	0	522395	252
1022.36328125	1.06160329998238	decision	choicePhaseStart	3	126	6	foodImage.63	FOODEEG_Images\0645.jpg	YN	Left	Yes	1.06160329998238	0	523451	253
1023.416015625	0	decision	response	3	126	6	foodImage.63	FOODEEG_Images\0645.jpg	YN	Left	Yes	1.06160329998238	0	523990	234
1024.4609375	1	health	trialStart	3	127	7	foodImage.20	FOODEEG_Images\0226.jpg	NY	Right	Yes	0.824199999973644	0	524525	251
1025.5	2	health	foodImageDisplay	3	127	7	foodImage.20	FOODEEG_Images\0226.jpg	NY	Right	Yes	0.824199999973644	0	525057	252
1027.5625	0.824199999973644	health	choicePhaseStart	3	127	7	foodImage.20	FOODEEG_Images\0226.jpg	NY	Right	Yes	0.824199999973644	0	526113	253
1028.376953125	0	health	response	3	127	7	foodImage.20	FOODEEG_Images\0226.jpg	NY	Right	Yes	0.824199999973644	0	526530	235
1029.419921875	1	decision	trialStart	3	128	8	foodImage.70	FOODEEG_Images\0705.jpg	NY	Right	Yes	0.76328640000429	0	527064	251
1030.478515625	2	decision	foodImageDisplay	3	128	8	foodImage.70	FOODEEG_Images\0705.jpg	NY	Right	Yes	0.76328640000429	0	527606	252
1032.541015625	0.76328640000429	decision	choicePhaseStart	3	128	8	foodImage.70	FOODEEG_Images\0705.jpg	NY	Right	Yes	0.76328640000429	0	528662	253
1033.296875	0	decision	response	3	128	8	foodImage.70	FOODEEG_Images\0705.jpg	NY	Right	Yes	0.76328640000429	0	529049	235
1034.33984375	1	health	trialStart	3	129	9	foodImage.65	FOODEEG_Images\0658.jpg	YN	Right	No	0.837133299966808	0	529583	251
1035.380859375	2	health	foodImageDisplay	3	129	9	foodImage.65	FOODEEG_Images\0658.jpg	YN	Right	No	0.837133299966808	0	530116	252
1037.443359375	0.837133299966808	health	choicePhaseStart	3	129	9	foodImage.65	FOODEEG_Images\0658.jpg	YN	Right	No	0.837133299966808	0	531172	253
1038.271484375	0	health	response	3	129	9	foodImage.65	FOODEEG_Images\0658.jpg	YN	Right	No	0.837133299966808	0	531596	235
1039.314453125	1	health	trialStart	3	130	10	foodImage.108	FOODEEG_Images\0916.jpg	NY	Left	No	1.06589170004008	0	532130	251
1040.3515625	2	health	foodImageDisplay	3	130	10	foodImage.108	FOODEEG_Images\0916.jpg	NY	Left	No	1.06589170004008	0	532661	252
1042.416015625	1.06589170004008	health	choicePhaseStart	3	130	10	foodImage.108	FOODEEG_Images\0916.jpg	NY	Left	No	1.06589170004008	0	533718	253
1043.47265625	0	health	response	3	130	10	foodImage.108	FOODEEG_Images\0916.jpg	NY	Left	No	1.06589170004008	0	534259	234
1044.515625	1	health	trialStart	3	131	11	foodImage.120	FOODEEG_Images\0928.jpg	YN	Right	No	0.792326299997512	0	534793	251
1045.552734375	2	health	foodImageDisplay	3	131	11	foodImage.120	FOODEEG_Images\0928.jpg	YN	Right	No	0.792326299997512	0	535324	252
1047.615234375	0.792326299997512	health	choicePhaseStart	3	131	11	foodImage.120	FOODEEG_Images\0928.jpg	YN	Right	No	0.792326299997512	0	536380	253
1048.400390625	0	health	response	3	131	11	foodImage.120	FOODEEG_Images\0928.jpg	YN	Right	No	0.792326299997512	0	536782	235
1049.44921875	1	decision	trialStart	3	132	12	foodImage.110	FOODEEG_Images\0918.jpg	YN	Right	No	1.8183260000078	0	537319	251
1050.486328125	2	decision	foodImageDisplay	3	132	12	foodImage.110	FOODEEG_Images\0918.jpg	YN	Right	No	1.8183260000078	0	537850	252
1052.548828125	1.8183260000078	decision	choicePhaseStart	3	132	12	foodImage.110	FOODEEG_Images\0918.jpg	YN	Right	No	1.8183260000078	0	538906	253
1054.359375	0	decision	response	3	132	12	foodImage.110	FOODEEG_Images\0918.jpg	YN	Right	No	1.8183260000078	0	539833	235
1055.40234375	1	health	trialStart	3	133	13	foodImage.18	FOODEEG_Images\0202.jpg	YN	Left	Yes	0.920070499996655	0	540367	251
1056.45703125	2	health	foodImageDisplay	3	133	13	foodImage.18	FOODEEG_Images\0202.jpg	YN	Left	Yes	0.920070499996655	0	540907	252
1058.521484375	0.920070499996655	health	choicePhaseStart	3	133	13	foodImage.18	FOODEEG_Images\0202.jpg	YN	Left	Yes	0.920070499996655	0	541964	253
1059.431640625	0	health	response	3	133	13	foodImage.18	FOODEEG_Images\0202.jpg	YN	Left	Yes	0.920070499996655	0	542430	234
1060.47265625	1	decision	trialStart	3	134	14	foodImage.46	FOODEEG_Images\0479.jpg	NY	Right	Yes	0.888451999984682	0	542963	251
1061.529296875	2	decision	foodImageDisplay	3	134	14	foodImage.46	FOODEEG_Images\0479.jpg	NY	Right	Yes	0.888451999984682	0	543504	252
1063.591796875	0.888451999984682	decision	choicePhaseStart	3	134	14	foodImage.46	FOODEEG_Images\0479.jpg	NY	Right	Yes	0.888451999984682	0	544560	253
1064.470703125	0	decision	response	3	134	14	foodImage.46	FOODEEG_Images\0479.jpg	NY	Right	Yes	0.888451999984682	0	545010	235
1065.513671875	1	health	trialStart	3	135	15	foodImage.100	FOODEEG_Images\0908.jpg	YN	Right	No	0.97231230000034	0	545544	251
1066.55078125	2	health	foodImageDisplay	3	135	15	foodImage.100	FOODEEG_Images\0908.jpg	YN	Right	No	0.97231230000034	0	546075	252
1068.619140625	0.97231230000034	health	choicePhaseStart	3	135	15	foodImage.100	FOODEEG_Images\0908.jpg	YN	Right	No	0.97231230000034	0	547134	253
1069.58203125	0	health	response	3	135	15	foodImage.100	FOODEEG_Images\0908.jpg	YN	Right	No	0.97231230000034	0	547627	235
1070.6328125	1	taste	trialStart	3	136	16	foodImage.22	FOODEEG_Images\0236.jpg	YN	Left	Yes	1.44509240001207	0	548165	251
1071.67578125	2	taste	foodImageDisplay	3	136	16	foodImage.22	FOODEEG_Images\0236.jpg	YN	Left	Yes	1.44509240001207	0	548699	252
1073.73828125	1.44509240001207	taste	choicePhaseStart	3	136	16	foodImage.22	FOODEEG_Images\0236.jpg	YN	Left	Yes	1.44509240001207	0	549755	253
1075.173828125	0	taste	response	3	136	16	foodImage.22	FOODEEG_Images\0236.jpg	YN	Left	Yes	1.44509240001207	0	550490	234
1076.216796875	1	taste	trialStart	3	137	17	foodImage.79	FOODEEG_Images\0794.jpg	NY	Right	Yes	0.850438599998597	0	551024	251
1077.26171875	2	taste	foodImageDisplay	3	137	17	foodImage.79	FOODEEG_Images\0794.jpg	NY	Right	Yes	0.850438599998597	0	551559	252
1079.32421875	0.850438599998597	taste	choicePhaseStart	3	137	17	foodImage.79	FOODEEG_Images\0794.jpg	NY	Right	Yes	0.850438599998597	0	552615	253
1080.166015625	0	taste	response	3	137	17	foodImage.79	FOODEEG_Images\0794.jpg	NY	Right	Yes	0.850438599998597	0	553046	235
1081.208984375	1	taste	trialStart	3	138	18	foodImage.89	FOODEEG_Images\0881.jpg	NY	Right	Yes	1.27214290003758	0	553580	251
1082.265625	2	taste	foodImageDisplay	3	138	18	foodImage.89	FOODEEG_Images\0881.jpg	NY	Right	Yes	1.27214290003758	0	554121	252
1084.326171875	1.27214290003758	taste	choicePhaseStart	3	138	18	foodImage.89	FOODEEG_Images\0881.jpg	NY	Right	Yes	1.27214290003758	0	555176	253
1085.58984375	0	taste	response	3	138	18	foodImage.89	FOODEEG_Images\0881.jpg	NY	Right	Yes	1.27214290003758	0	555823	235
1086.6328125	1	health	trialStart	3	139	19	foodImage.79	FOODEEG_Images\0794.jpg	NY	Right	Yes	1.08553490001941	0	556357	251
1087.67578125	2	health	foodImageDisplay	3	139	19	foodImage.79	FOODEEG_Images\0794.jpg	NY	Right	Yes	1.08553490001941	0	556891	252
1089.736328125	1.08553490001941	health	choicePhaseStart	3	139	19	foodImage.79	FOODEEG_Images\0794.jpg	NY	Right	Yes	1.08553490001941	0	557946	253
1090.814453125	0	health	response	3	139	19	foodImage.79	FOODEEG_Images\0794.jpg	NY	Right	Yes	1.08553490001941	0	558498	235
1091.861328125	1	taste	trialStart	3	140	20	foodImage.100	FOODEEG_Images\0908.jpg	YN	Right	No	1.03686870000092	0	559034	251
1092.900390625	2	taste	foodImageDisplay	3	140	20	foodImage.100	FOODEEG_Images\0908.jpg	YN	Right	No	1.03686870000092	0	559566	252
1094.962890625	1.03686870000092	taste	choicePhaseStart	3	140	20	foodImage.100	FOODEEG_Images\0908.jpg	YN	Right	No	1.03686870000092	0	560622	253
1095.990234375	0	taste	response	3	140	20	foodImage.100	FOODEEG_Images\0908.jpg	YN	Right	No	1.03686870000092	0	561148	235
1097.033203125	1	decision	trialStart	3	141	21	foodImage.37	FOODEEG_Images\0359.jpg	YN	Right	No	2.90885310003068	0	561682	251
1098.07421875	2	decision	foodImageDisplay	3	141	21	foodImage.37	FOODEEG_Images\0359.jpg	YN	Right	No	2.90885310003068	0	562215	252
1100.13671875	2.90885310003068	decision	choicePhaseStart	3	141	21	foodImage.37	FOODEEG_Images\0359.jpg	YN	Right	No	2.90885310003068	0	563271	253
1103.037109375	0	decision	response	3	141	21	foodImage.37	FOODEEG_Images\0359.jpg	YN	Right	No	2.90885310003068	0	564756	235
1104.080078125	1	decision	trialStart	3	142	22	foodImage.14	FOODEEG_Images\0188.jpg	NY	Right	Yes	0.804222100006882	0	565290	251
1105.140625	2	decision	foodImageDisplay	3	142	22	foodImage.14	FOODEEG_Images\0188.jpg	NY	Right	Yes	0.804222100006882	0	565833	252
1107.203125	0.804222100006882	decision	choicePhaseStart	3	142	22	foodImage.14	FOODEEG_Images\0188.jpg	NY	Right	Yes	0.804222100006882	0	566889	253
1107.998046875	0	decision	response	3	142	22	foodImage.14	FOODEEG_Images\0188.jpg	NY	Right	Yes	0.804222100006882	0	567296	235
1109.0390625	1	decision	trialStart	3	143	23	foodImage.101	FOODEEG_Images\0909.jpg	YN	Right	No	0.945677299983799	0	567829	251
1110.078125	2	decision	foodImageDisplay	3	143	23	foodImage.101	FOODEEG_Images\0909.jpg	YN	Right	No	0.945677299983799	0	568361	252
1112.138671875	0.945677299983799	decision	choicePhaseStart	3	143	23	foodImage.101	FOODEEG_Images\0909.jpg	YN	Right	No	0.945677299983799	0	569416	253
1113.076171875	0	decision	response	3	143	23	foodImage.101	FOODEEG_Images\0909.jpg	YN	Right	No	0.945677299983799	0	569896	235
1114.12109375	1	health	trialStart	3	144	24	foodImage.71	FOODEEG_Images\0713.jpg	NY	Left	No	0.889422900043428	0	570431	251
1115.1640625	2	health	foodImageDisplay	3	144	24	foodImage.71	FOODEEG_Images\0713.jpg	NY	Left	No	0.889422900043428	0	570965	252
1117.2265625	0.889422900043428	health	choicePhaseStart	3	144	24	foodImage.71	FOODEEG_Images\0713.jpg	NY	Left	No	0.889422900043428	0	572021	253
1118.109375	0	health	response	3	144	24	foodImage.71	FOODEEG_Images\0713.jpg	NY	Left	No	0.889422900043428	0	572473	234
1119.15234375	1	taste	trialStart	3	145	25	foodImage.104	FOODEEG_Images\0912.jpg	YN	Right	No	1.58446279994678	0	573007	251
1120.19140625	2	taste	foodImageDisplay	3	145	25	foodImage.104	FOODEEG_Images\0912.jpg	YN	Right	No	1.58446279994678	0	573539	252
1122.25390625	1.58446279994678	taste	choicePhaseStart	3	145	25	foodImage.104	FOODEEG_Images\0912.jpg	YN	Right	No	1.58446279994678	0	574595	253
1123.828125	0	taste	response	3	145	25	foodImage.104	FOODEEG_Images\0912.jpg	YN	Right	No	1.58446279994678	0	575401	235
1124.87109375	1	decision	trialStart	3	146	26	foodImage.106	FOODEEG_Images\0914.jpg	YN	Left	Yes	1.44814960000804	0	575935	251
1125.91015625	2	decision	foodImageDisplay	3	146	26	foodImage.106	FOODEEG_Images\0914.jpg	YN	Left	Yes	1.44814960000804	0	576467	252
1127.97265625	1.44814960000804	decision	choicePhaseStart	3	146	26	foodImage.106	FOODEEG_Images\0914.jpg	YN	Left	Yes	1.44814960000804	0	577523	253
1129.412109375	0	decision	response	3	146	26	foodImage.106	FOODEEG_Images\0914.jpg	YN	Left	Yes	1.44814960000804	0	578260	234
1130.45703125	1	health	trialStart	3	147	27	foodImage.80	FOODEEG_Images\0796.jpg	NY	Right	Yes	1.20203200000105	0	578795	251
1131.515625	2	health	foodImageDisplay	3	147	27	foodImage.80	FOODEEG_Images\0796.jpg	NY	Right	Yes	1.20203200000105	0	579337	252
1133.578125	1.20203200000105	health	choicePhaseStart	3	147	27	foodImage.80	FOODEEG_Images\0796.jpg	NY	Right	Yes	1.20203200000105	0	580393	253
1134.771484375	0	health	response	3	147	27	foodImage.80	FOODEEG_Images\0796.jpg	NY	Right	Yes	1.20203200000105	0	581004	235
1135.81640625	1	taste	trialStart	3	148	28	foodImage.119	FOODEEG_Images\0927.jpg	NY	Left	No	1.18558689998463	0	581539	251
1136.85546875	2	taste	foodImageDisplay	3	148	28	foodImage.119	FOODEEG_Images\0927.jpg	NY	Left	No	1.18558689998463	0	582071	252
1138.921875	1.18558689998463	taste	choicePhaseStart	3	148	28	foodImage.119	FOODEEG_Images\0927.jpg	NY	Left	No	1.18558689998463	0	583129	253
1140.099609375	0	taste	response	3	148	28	foodImage.119	FOODEEG_Images\0927.jpg	NY	Left	No	1.18558689998463	0	583732	234
1141.142578125	1	health	trialStart	3	149	29	foodImage.87	FOODEEG_Images\0873.jpg	NY	Right	Yes	0.837312699994072	0	584266	251
1142.201171875	2	health	foodImageDisplay	3	149	29	foodImage.87	FOODEEG_Images\0873.jpg	NY	Right	Yes	0.837312699994072	0	584808	252
1144.263671875	0.837312699994072	health	choicePhaseStart	3	149	29	foodImage.87	FOODEEG_Images\0873.jpg	NY	Right	Yes	0.837312699994072	0	585864	253
1145.091796875	0	health	response	3	149	29	foodImage.87	FOODEEG_Images\0873.jpg	NY	Right	Yes	0.837312699994072	0	586288	235
1146.134765625	1	health	trialStart	3	150	30	foodImage.31	FOODEEG_Images\0294.jpg	NY	Left	No	1.97215350001352	0	586822	251
1147.177734375	2	health	foodImageDisplay	3	150	30	foodImage.31	FOODEEG_Images\0294.jpg	NY	Left	No	1.97215350001352	0	587356	252
1149.240234375	1.97215350001352	health	choicePhaseStart	3	150	30	foodImage.31	FOODEEG_Images\0294.jpg	NY	Left	No	1.97215350001352	0	588412	253
1151.203125	0	health	response	3	150	30	foodImage.31	FOODEEG_Images\0294.jpg	NY	Left	No	1.97215350001352	0	589417	234
1152.24609375	1	taste	trialStart	3	151	31	foodImage.70	FOODEEG_Images\0705.jpg	NY	Right	Yes	0.653351799992379	0	589951	251
1153.306640625	2	taste	foodImageDisplay	3	151	31	foodImage.70	FOODEEG_Images\0705.jpg	NY	Right	Yes	0.653351799992379	0	590494	252
1155.369140625	0.653351799992379	taste	choicePhaseStart	3	151	31	foodImage.70	FOODEEG_Images\0705.jpg	NY	Right	Yes	0.653351799992379	0	591550	253
1156.01171875	0	taste	response	3	151	31	foodImage.70	FOODEEG_Images\0705.jpg	NY	Right	Yes	0.653351799992379	0	591879	235
1157.0546875	1	health	trialStart	3	152	32	foodImage.84	FOODEEG_Images\0830.jpg	YN	Left	Yes	0.557746400008909	0	592413	251
1158.11328125	2	health	foodImageDisplay	3	152	32	foodImage.84	FOODEEG_Images\0830.jpg	YN	Left	Yes	0.557746400008909	0	592955	252
1160.173828125	0.557746400008909	health	choicePhaseStart	3	152	32	foodImage.84	FOODEEG_Images\0830.jpg	YN	Left	Yes	0.557746400008909	0	594010	253
1160.72265625	0	health	response	3	152	32	foodImage.84	FOODEEG_Images\0830.jpg	YN	Left	Yes	0.557746400008909	0	594291	234
1161.765625	1	health	trialStart	3	153	33	foodImage.62	FOODEEG_Images\0644.jpg	YN	Left	Yes	0.533727000001818	0	594825	251
1162.82421875	2	health	foodImageDisplay	3	153	33	foodImage.62	FOODEEG_Images\0644.jpg	YN	Left	Yes	0.533727000001818	0	595367	252
1164.88671875	0.533727000001818	health	choicePhaseStart	3	153	33	foodImage.62	FOODEEG_Images\0644.jpg	YN	Left	Yes	0.533727000001818	0	596423	253
1165.41015625	0	health	response	3	153	33	foodImage.62	FOODEEG_Images\0644.jpg	YN	Left	Yes	0.533727000001818	0	596691	234
1166.455078125	1	decision	trialStart	3	154	34	foodImage.29	FOODEEG_Images\0278.jpg	NY	Right	Yes	0.916419999965001	0	597226	251
1167.49609375	2	decision	foodImageDisplay	3	154	34	foodImage.29	FOODEEG_Images\0278.jpg	NY	Right	Yes	0.916419999965001	0	597759	252
1169.55859375	0.916419999965001	decision	choicePhaseStart	3	154	34	foodImage.29	FOODEEG_Images\0278.jpg	NY	Right	Yes	0.916419999965001	0	598815	253
1170.466796875	0	decision	response	3	154	34	foodImage.29	FOODEEG_Images\0278.jpg	NY	Right	Yes	0.916419999965001	0	599280	235
1171.51171875	1	decision	trialStart	3	155	35	foodImage.97	FOODEEG_Images\0905.jpg	YN	Right	No	0.932475899986457	0	599815	251
1172.55078125	2	decision	foodImageDisplay	3	155	35	foodImage.97	FOODEEG_Images\0905.jpg	YN	Right	No	0.932475899986457	0	600347	252
1174.61328125	0.932475899986457	decision	choicePhaseStart	3	155	35	foodImage.97	FOODEEG_Images\0905.jpg	YN	Right	No	0.932475899986457	0	601403	253
1175.5390625	0	decision	response	3	155	35	foodImage.97	FOODEEG_Images\0905.jpg	YN	Right	No	0.932475899986457	0	601877	235
1176.5859375	1	taste	trialStart	3	156	36	foodImage.113	FOODEEG_Images\0921.jpg	YN	Left	Yes	1.42817030003062	0	602413	251
1177.623046875	2	taste	foodImageDisplay	3	156	36	foodImage.113	FOODEEG_Images\0921.jpg	YN	Left	Yes	1.42817030003062	0	602944	252
1179.685546875	1.42817030003062	taste	choicePhaseStart	3	156	36	foodImage.113	FOODEEG_Images\0921.jpg	YN	Left	Yes	1.42817030003062	0	604000	253
1181.10546875	0	taste	response	3	156	36	foodImage.113	FOODEEG_Images\0921.jpg	YN	Left	Yes	1.42817030003062	0	604727	234
1182.1484375	1	health	trialStart	3	157	37	foodImage.5	FOODEEG_Images\0107.jpg	YN	Right	No	0.73365070001455	0	605261	251
1183.205078125	2	health	foodImageDisplay	3	157	37	foodImage.5	FOODEEG_Images\0107.jpg	YN	Right	No	0.73365070001455	0	605802	252
1185.267578125	0.73365070001455	health	choicePhaseStart	3	157	37	foodImage.5	FOODEEG_Images\0107.jpg	YN	Right	No	0.73365070001455	0	606858	253
1185.994140625	0	health	response	3	157	37	foodImage.5	FOODEEG_Images\0107.jpg	YN	Right	No	0.73365070001455	0	607230	235
1187.037109375	1	taste	trialStart	3	158	38	foodImage.40	FOODEEG_Images\0373.jpg	YN	Left	Yes	0.912122800014913	0	607764	251
1188.078125	2	taste	foodImageDisplay	3	158	38	foodImage.40	FOODEEG_Images\0373.jpg	YN	Left	Yes	0.912122800014913	0	608297	252
1190.138671875	0.912122800014913	taste	choicePhaseStart	3	158	38	foodImage.40	FOODEEG_Images\0373.jpg	YN	Left	Yes	0.912122800014913	0	609352	253
1191.04296875	0	taste	response	3	158	38	foodImage.40	FOODEEG_Images\0373.jpg	YN	Left	Yes	0.912122800014913	0	609815	234
1192.083984375	1	health	trialStart	3	159	39	foodImage.88	FOODEEG_Images\0878.jpg	YN	Right	No	0.814492999983486	0	610348	251
1193.142578125	2	health	foodImageDisplay	3	159	39	foodImage.88	FOODEEG_Images\0878.jpg	YN	Right	No	0.814492999983486	0	610890	252
1195.205078125	0.814492999983486	health	choicePhaseStart	3	159	39	foodImage.88	FOODEEG_Images\0878.jpg	YN	Right	No	0.814492999983486	0	611946	253
1196.009765625	0	health	response	3	159	39	foodImage.88	FOODEEG_Images\0878.jpg	YN	Right	No	0.814492999983486	0	612358	235
1197.052734375	1	health	trialStart	3	160	40	foodImage.105	FOODEEG_Images\0913.jpg	YN	Right	No	0.714481899980456	0	612892	251
1198.08984375	2	health	foodImageDisplay	3	160	40	foodImage.105	FOODEEG_Images\0913.jpg	YN	Right	No	0.714481899980456	0	613423	252
1200.15234375	0.714481899980456	health	choicePhaseStart	3	160	40	foodImage.105	FOODEEG_Images\0913.jpg	YN	Right	No	0.714481899980456	0	614479	253
1200.857421875	0	health	response	3	160	40	foodImage.105	FOODEEG_Images\0913.jpg	YN	Right	No	0.714481899980456	0	614840	235
1201.900390625	1	taste	trialStart	3	161	41	foodImage.19	FOODEEG_Images\0225.jpg	YN	Left	Yes	2.69715190003626	0	615374	251
1202.9609375	2	taste	foodImageDisplay	3	161	41	foodImage.19	FOODEEG_Images\0225.jpg	YN	Left	Yes	2.69715190003626	0	615917	252
1205.025390625	2.69715190003626	taste	choicePhaseStart	3	161	41	foodImage.19	FOODEEG_Images\0225.jpg	YN	Left	Yes	2.69715190003626	0	616974	253
1207.712890625	0	taste	response	3	161	41	foodImage.19	FOODEEG_Images\0225.jpg	YN	Left	Yes	2.69715190003626	0	618350	234
1208.755859375	1	decision	trialStart	3	162	42	foodImage.109	FOODEEG_Images\0917.jpg	NY	Left	No	0.679554700036533	0	618884	251
1209.794921875	2	decision	foodImageDisplay	3	162	42	foodImage.109	FOODEEG_Images\0917.jpg	NY	Left	No	0.679554700036533	0	619416	252
1211.857421875	0.679554700036533	decision	choicePhaseStart	3	162	42	foodImage.109	FOODEEG_Images\0917.jpg	NY	Left	No	0.679554700036533	0	620472	253
1212.529296875	0	decision	response	3	162	42	foodImage.109	FOODEEG_Images\0917.jpg	NY	Left	No	0.679554700036533	0	620816	234
1213.57421875	1	taste	trialStart	3	163	43	foodImage.87	FOODEEG_Images\0873.jpg	NY	Left	No	1.6271287999698	0	621351	251
1214.6328125	2	taste	foodImageDisplay	3	163	43	foodImage.87	FOODEEG_Images\0873.jpg	NY	Left	No	1.6271287999698	0	621893	252
1216.6953125	1.6271287999698	taste	choicePhaseStart	3	163	43	foodImage.87	FOODEEG_Images\0873.jpg	NY	Left	No	1.6271287999698	0	622949	253
1218.3125	0	taste	response	3	163	43	foodImage.87	FOODEEG_Images\0873.jpg	NY	Left	No	1.6271287999698	0	623777	234
1219.35546875	1	taste	trialStart	3	164	44	foodImage.75	FOODEEG_Images\0763.jpg	NY	Right	Yes	0.695644500025082	0	624311	251
1220.400390625	2	taste	foodImageDisplay	3	164	44	foodImage.75	FOODEEG_Images\0763.jpg	NY	Right	Yes	0.695644500025082	0	624846	252
1222.46484375	0.695644500025082	taste	choicePhaseStart	3	164	44	foodImage.75	FOODEEG_Images\0763.jpg	NY	Right	Yes	0.695644500025082	0	625903	253
1223.15234375	0	taste	response	3	164	44	foodImage.75	FOODEEG_Images\0763.jpg	NY	Right	Yes	0.695644500025082	0	626255	235
1224.197265625	1	taste	trialStart	3	165	45	foodImage.80	FOODEEG_Images\0796.jpg	NY	Right	Yes	0.773229499987792	0	626790	251
1225.25390625	2	taste	foodImageDisplay	3	165	45	foodImage.80	FOODEEG_Images\0796.jpg	NY	Right	Yes	0.773229499987792	0	627331	252
1227.31640625	0.773229499987792	taste	choicePhaseStart	3	165	45	foodImage.80	FOODEEG_Images\0796.jpg	NY	Right	Yes	0.773229499987792	0	628387	253
1228.080078125	0	taste	response	3	165	45	foodImage.80	FOODEEG_Images\0796.jpg	NY	Right	Yes	0.773229499987792	0	628778	235
1229.123046875	1	taste	trialStart	3	166	46	foodImage.90	FOODEEG_Images\0890.jpg	NY	Right	Yes	0.549179499968886	0	629312	251
1230.181640625	2	taste	foodImageDisplay	3	166	46	foodImage.90	FOODEEG_Images\0890.jpg	NY	Right	Yes	0.549179499968886	0	629854	252
1232.244140625	0.549179499968886	taste	choicePhaseStart	3	166	46	foodImage.90	FOODEEG_Images\0890.jpg	NY	Right	Yes	0.549179499968886	0	630910	253
1232.783203125	0	taste	response	3	166	46	foodImage.90	FOODEEG_Images\0890.jpg	NY	Right	Yes	0.549179499968886	0	631186	235
1233.830078125	1	decision	trialStart	3	167	47	foodImage.17	FOODEEG_Images\0199.jpg	NY	Right	Yes	0.891220100049395	0	631722	251
1234.87109375	2	decision	foodImageDisplay	3	167	47	foodImage.17	FOODEEG_Images\0199.jpg	NY	Right	Yes	0.891220100049395	0	632255	252
1236.93359375	0.891220100049395	decision	choicePhaseStart	3	167	47	foodImage.17	FOODEEG_Images\0199.jpg	NY	Right	Yes	0.891220100049395	0	633311	253
1237.81640625	0	decision	response	3	167	47	foodImage.17	FOODEEG_Images\0199.jpg	NY	Right	Yes	0.891220100049395	0	633763	235
1238.859375	1	taste	trialStart	3	168	48	foodImage.72	FOODEEG_Images\0714.jpg	YN	Right	No	1.99626079999143	0	634297	251
1239.90234375	2	taste	foodImageDisplay	3	168	48	foodImage.72	FOODEEG_Images\0714.jpg	YN	Right	No	1.99626079999143	0	634831	252
1241.96484375	1.99626079999143	taste	choicePhaseStart	3	168	48	foodImage.72	FOODEEG_Images\0714.jpg	YN	Right	No	1.99626079999143	0	635887	253
1243.951171875	0	taste	response	3	168	48	foodImage.72	FOODEEG_Images\0714.jpg	YN	Right	No	1.99626079999143	0	636904	235
1244.994140625	1	taste	trialStart	3	169	49	foodImage.77	FOODEEG_Images\0771.jpg	NY	Right	Yes	0.715675500046927	0	637438	251
1246.0390625	2	taste	foodImageDisplay	3	169	49	foodImage.77	FOODEEG_Images\0771.jpg	NY	Right	Yes	0.715675500046927	0	637973	252
1248.109375	0.715675500046927	taste	choicePhaseStart	3	169	49	foodImage.77	FOODEEG_Images\0771.jpg	NY	Right	Yes	0.715675500046927	0	639033	253
1248.81640625	0	taste	response	3	169	49	foodImage.77	FOODEEG_Images\0771.jpg	NY	Right	Yes	0.715675500046927	0	639395	235
1249.865234375	1	health	trialStart	3	170	50	foodImage.44	FOODEEG_Images\0459.jpg	YN	Right	No	0.896064300031867	0	639932	251
1250.912109375	2	health	foodImageDisplay	3	170	50	foodImage.44	FOODEEG_Images\0459.jpg	YN	Right	No	0.896064300031867	0	640468	252
1252.974609375	0.896064300031867	health	choicePhaseStart	3	170	50	foodImage.44	FOODEEG_Images\0459.jpg	YN	Right	No	0.896064300031867	0	641524	253
1253.86328125	0	health	response	3	170	50	foodImage.44	FOODEEG_Images\0459.jpg	YN	Right	No	0.896064300031867	0	641979	235
1254.90625	1	health	trialStart	3	171	51	foodImage.40	FOODEEG_Images\0373.jpg	YN	Right	No	0.926431600004435	0	642513	251
1255.947265625	2	health	foodImageDisplay	3	171	51	foodImage.40	FOODEEG_Images\0373.jpg	YN	Right	No	0.926431600004435	0	643046	252
1258.009765625	0.926431600004435	health	choicePhaseStart	3	171	51	foodImage.40	FOODEEG_Images\0373.jpg	YN	Right	No	0.926431600004435	0	644102	253
1258.927734375	0	health	response	3	171	51	foodImage.40	FOODEEG_Images\0373.jpg	YN	Right	No	0.926431600004435	0	644572	235
1259.970703125	1	health	trialStart	3	172	52	foodImage.63	FOODEEG_Images\0645.jpg	YN	Left	Yes	1.221978400019	0	645106	251
1261.01171875	2	health	foodImageDisplay	3	172	52	foodImage.63	FOODEEG_Images\0645.jpg	YN	Left	Yes	1.221978400019	0	645639	252
1263.07421875	1.221978400019	health	choicePhaseStart	3	172	52	foodImage.63	FOODEEG_Images\0645.jpg	YN	Left	Yes	1.221978400019	0	646695	253
1264.287109375	0	health	response	3	172	52	foodImage.63	FOODEEG_Images\0645.jpg	YN	Left	Yes	1.221978400019	0	647316	234
1265.330078125	1	decision	trialStart	3	173	53	foodImage.67	FOODEEG_Images\0679.jpg	NY	Right	Yes	1.1971593000344	0	647850	251
1266.388671875	2	decision	foodImageDisplay	3	173	53	foodImage.67	FOODEEG_Images\0679.jpg	NY	Right	Yes	1.1971593000344	0	648392	252
1268.451171875	1.1971593000344	decision	choicePhaseStart	3	173	53	foodImage.67	FOODEEG_Images\0679.jpg	NY	Right	Yes	1.1971593000344	0	649448	253
1269.638671875	0	decision	response	3	173	53	foodImage.67	FOODEEG_Images\0679.jpg	NY	Right	Yes	1.1971593000344	0	650056	235
1270.681640625	1	taste	trialStart	3	174	54	foodImage.20	FOODEEG_Images\0226.jpg	YN	Right	No	1.63908679998713	0	650590	251
1271.72265625	2	taste	foodImageDisplay	3	174	54	foodImage.20	FOODEEG_Images\0226.jpg	YN	Right	No	1.63908679998713	0	651123	252
1273.78515625	1.63908679998713	taste	choicePhaseStart	3	174	54	foodImage.20	FOODEEG_Images\0226.jpg	YN	Right	No	1.63908679998713	0	652179	253
1275.4140625	0	taste	response	3	174	54	foodImage.20	FOODEEG_Images\0226.jpg	YN	Right	No	1.63908679998713	0	653013	235
1276.45703125	1	health	trialStart	3	175	55	foodImage.96	FOODEEG_Images\0904.jpg	YN	Right	No	1.39215520001017	0	653547	251
1277.494140625	2	health	foodImageDisplay	3	175	55	foodImage.96	FOODEEG_Images\0904.jpg	YN	Right	No	1.39215520001017	0	654078	252
1279.55859375	1.39215520001017	health	choicePhaseStart	3	175	55	foodImage.96	FOODEEG_Images\0904.jpg	YN	Right	No	1.39215520001017	0	655135	253
1280.943359375	0	health	response	3	175	55	foodImage.96	FOODEEG_Images\0904.jpg	YN	Right	No	1.39215520001017	0	655844	235
1281.984375	1	health	trialStart	3	176	56	foodImage.14	FOODEEG_Images\0188.jpg	YN	Right	No	1.63889090000885	0	656377	251
1283.041015625	2	health	foodImageDisplay	3	176	56	foodImage.14	FOODEEG_Images\0188.jpg	YN	Right	No	1.63889090000885	0	656918	252
1285.103515625	1.63889090000885	health	choicePhaseStart	3	176	56	foodImage.14	FOODEEG_Images\0188.jpg	YN	Right	No	1.63889090000885	0	657974	253
1286.734375	0	health	response	3	176	56	foodImage.14	FOODEEG_Images\0188.jpg	YN	Right	No	1.63889090000885	0	658809	235
1287.775390625	1	taste	trialStart	3	177	57	foodImage.55	FOODEEG_Images\0567.jpg	NY	Right	Yes	0.670118100009859	0	659342	251
1288.833984375	2	taste	foodImageDisplay	3	177	57	foodImage.55	FOODEEG_Images\0567.jpg	NY	Right	Yes	0.670118100009859	0	659884	252
1290.896484375	0.670118100009859	taste	choicePhaseStart	3	177	57	foodImage.55	FOODEEG_Images\0567.jpg	NY	Right	Yes	0.670118100009859	0	660940	253
1291.55859375	0	taste	response	3	177	57	foodImage.55	FOODEEG_Images\0567.jpg	NY	Right	Yes	0.670118100009859	0	661279	235
1292.6015625	1	decision	trialStart	3	178	58	foodImage.24	FOODEEG_Images\0250.jpg	YN	Right	No	1.10246560000814	0	661813	251
1293.650390625	2	decision	foodImageDisplay	3	178	58	foodImage.24	FOODEEG_Images\0250.jpg	YN	Right	No	1.10246560000814	0	662350	252
1295.712890625	1.10246560000814	decision	choicePhaseStart	3	178	58	foodImage.24	FOODEEG_Images\0250.jpg	YN	Right	No	1.10246560000814	0	663406	253
1296.806640625	0	decision	response	3	178	58	foodImage.24	FOODEEG_Images\0250.jpg	YN	Right	No	1.10246560000814	0	663966	235
1297.84765625	1	decision	trialStart	3	179	59	foodImage.118	FOODEEG_Images\0926.jpg	YN	Right	No	1.1659467999707	0	664499	251
1298.88671875	2	decision	foodImageDisplay	3	179	59	foodImage.118	FOODEEG_Images\0926.jpg	YN	Right	No	1.1659467999707	0	665031	252
1300.953125	1.1659467999707	decision	choicePhaseStart	3	179	59	foodImage.118	FOODEEG_Images\0926.jpg	YN	Right	No	1.1659467999707	0	666089	253
1302.109375	0	decision	response	3	179	59	foodImage.118	FOODEEG_Images\0926.jpg	YN	Right	No	1.1659467999707	0	666681	235
1303.15234375	1	taste	trialStart	3	180	60	foodImage.95	FOODEEG_Images\0903.jpg	YN	Right	No	0.713183800049592	0	667215	251
1304.19140625	2	taste	foodImageDisplay	3	180	60	foodImage.95	FOODEEG_Images\0903.jpg	YN	Right	No	0.713183800049592	0	667747	252
1306.25390625	0.713183800049592	taste	choicePhaseStart	3	180	60	foodImage.95	FOODEEG_Images\0903.jpg	YN	Right	No	0.713183800049592	0	668803	253
1306.95703125	0	taste	response	3	180	60	foodImage.95	FOODEEG_Images\0903.jpg	YN	Right	No	0.713183800049592	0	669163	235
1309.001953125	38.26953125	n/a	blockEnd	n/a	n/a	n/a	n/a	n/a	n/a	n/a	n/a	n/a	n/a	670210	254
1347.271484375	2	n/a	blockStart	4	n/a	n/a	n/a	n/a	n/a	n/a	n/a	n/a	n/a	689804	250
1349.3046875	1	taste	trialStart	4	181	1	foodImage.39	FOODEEG_Images\0367.jpg	NY	Right	Yes	0.563180400000419	0	690845	251
1350.34765625	2	taste	foodImageDisplay	4	181	1	foodImage.39	FOODEEG_Images\0367.jpg	NY	Right	Yes	0.563180400000419	0	691379	252
1352.41015625	0.563180400000419	taste	choicePhaseStart	4	181	1	foodImage.39	FOODEEG_Images\0367.jpg	NY	Right	Yes	0.563180400000419	0	692435	253
1352.962890625	0	taste	response	4	181	1	foodImage.39	FOODEEG_Images\0367.jpg	NY	Right	Yes	0.563180400000419	0	692718	235
1354.005859375	1	health	trialStart	4	182	2	foodImage.4	FOODEEG_Images\0065.jpg	YN	Right	No	0.979620099999011	0	693252	251
1355.06640625	2	health	foodImageDisplay	4	182	2	foodImage.4	FOODEEG_Images\0065.jpg	YN	Right	No	0.979620099999011	0	693795	252
1357.12890625	0.979620099999011	health	choicePhaseStart	4	182	2	foodImage.4	FOODEEG_Images\0065.jpg	YN	Right	No	0.979620099999011	0	694851	253
1358.099609375	0	health	response	4	182	2	foodImage.4	FOODEEG_Images\0065.jpg	YN	Right	No	0.979620099999011	0	695348	235
1359.142578125	1	taste	trialStart	4	183	3	foodImage.71	FOODEEG_Images\0713.jpg	YN	Left	Yes	0.717884699988645	0	695882	251
1360.18359375	2	taste	foodImageDisplay	4	183	3	foodImage.71	FOODEEG_Images\0713.jpg	YN	Left	Yes	0.717884699988645	0	696415	252
1362.24609375	0.717884699988645	taste	choicePhaseStart	4	183	3	foodImage.71	FOODEEG_Images\0713.jpg	YN	Left	Yes	0.717884699988645	0	697471	253
1362.955078125	0	taste	response	4	183	3	foodImage.71	FOODEEG_Images\0713.jpg	YN	Left	Yes	0.717884699988645	0	697834	234
1363.998046875	1	decision	trialStart	4	184	4	foodImage.52	FOODEEG_Images\0539.jpg	NY	Right	Yes	0.764086000039242	0	698368	251
1365.056640625	2	decision	foodImageDisplay	4	184	4	foodImage.52	FOODEEG_Images\0539.jpg	NY	Right	Yes	0.764086000039242	0	698910	252
1367.119140625	0.764086000039242	decision	choicePhaseStart	4	184	4	foodImage.52	FOODEEG_Images\0539.jpg	NY	Right	Yes	0.764086000039242	0	699966	253
1367.875	0	decision	response	4	184	4	foodImage.52	FOODEEG_Images\0539.jpg	NY	Right	Yes	0.764086000039242	0	700353	235
1368.91796875	1	decision	trialStart	4	185	5	foodImage.98	FOODEEG_Images\0906.jpg	YN	Left	Yes	0.984984000038821	0	700887	251
1369.95703125	2	decision	foodImageDisplay	4	185	5	foodImage.98	FOODEEG_Images\0906.jpg	YN	Left	Yes	0.984984000038821	0	701419	252
1372.017578125	0.984984000038821	decision	choicePhaseStart	4	185	5	foodImage.98	FOODEEG_Images\0906.jpg	YN	Left	Yes	0.984984000038821	0	702474	253
1372.994140625	0	decision	response	4	185	5	foodImage.98	FOODEEG_Images\0906.jpg	YN	Left	Yes	0.984984000038821	0	702974	234
1374.0390625	1	taste	trialStart	4	186	6	foodImage.61	FOODEEG_Images\0640.jpg	YN	Right	No	1.20950220001396	0	703509	251
1375.08203125	2	taste	foodImageDisplay	4	186	6	foodImage.61	FOODEEG_Images\0640.jpg	YN	Right	No	1.20950220001396	0	704043	252
1377.14453125	1.20950220001396	taste	choicePhaseStart	4	186	6	foodImage.61	FOODEEG_Images\0640.jpg	YN	Right	No	1.20950220001396	0	705099	253
1378.345703125	0	taste	response	4	186	6	foodImage.61	FOODEEG_Images\0640.jpg	YN	Right	No	1.20950220001396	0	705714	235
1379.392578125	1	decision	trialStart	4	187	7	foodImage.57	FOODEEG_Images\0587.jpg	NY	Right	Yes	0.86712810001336	0	706250	251
1380.43359375	2	decision	foodImageDisplay	4	187	7	foodImage.57	FOODEEG_Images\0587.jpg	NY	Right	Yes	0.86712810001336	0	706783	252
1382.49609375	0.86712810001336	decision	choicePhaseStart	4	187	7	foodImage.57	FOODEEG_Images\0587.jpg	NY	Right	Yes	0.86712810001336	0	707839	253
1383.353515625	0	decision	response	4	187	7	foodImage.57	FOODEEG_Images\0587.jpg	NY	Right	Yes	0.86712810001336	0	708278	235
1384.3984375	1	health	trialStart	4	188	8	foodImage.10	FOODEEG_Images\0145.jpg	NY	Left	No	1.29936479998287	0	708813	251
1385.455078125	2	health	foodImageDisplay	4	188	8	foodImage.10	FOODEEG_Images\0145.jpg	NY	Left	No	1.29936479998287	0	709354	252
1387.517578125	1.29936479998287	health	choicePhaseStart	4	188	8	foodImage.10	FOODEEG_Images\0145.jpg	NY	Left	No	1.29936479998287	0	710410	253
1388.810546875	0	health	response	4	188	8	foodImage.10	FOODEEG_Images\0145.jpg	NY	Left	No	1.29936479998287	0	711072	234
1389.853515625	1	taste	trialStart	4	189	9	foodImage.33	FOODEEG_Images\0329.jpg	NY	Right	Yes	0.790490399987902	0	711606	251
1390.89453125	2	taste	foodImageDisplay	4	189	9	foodImage.33	FOODEEG_Images\0329.jpg	NY	Right	Yes	0.790490399987902	0	712139	252
1392.95703125	0.790490399987902	taste	choicePhaseStart	4	189	9	foodImage.33	FOODEEG_Images\0329.jpg	NY	Right	Yes	0.790490399987902	0	713195	253
1393.73828125	0	taste	response	4	189	9	foodImage.33	FOODEEG_Images\0329.jpg	NY	Right	Yes	0.790490399987902	0	713595	235
1394.783203125	1	health	trialStart	4	190	10	foodImage.109	FOODEEG_Images\0917.jpg	NY	Right	Yes	0.582547300029546	0	714130	251
1395.822265625	2	health	foodImageDisplay	4	190	10	foodImage.109	FOODEEG_Images\0917.jpg	NY	Right	Yes	0.582547300029546	0	714662	252
1397.884765625	0.582547300029546	health	choicePhaseStart	4	190	10	foodImage.109	FOODEEG_Images\0917.jpg	NY	Right	Yes	0.582547300029546	0	715718	253
1398.45703125	0	health	response	4	190	10	foodImage.109	FOODEEG_Images\0917.jpg	NY	Right	Yes	0.582547300029546	0	716011	235
1399.501953125	1	taste	trialStart	4	191	11	foodImage.17	FOODEEG_Images\0199.jpg	NY	Right	Yes	0.771506500022952	0	716546	251
1400.54296875	2	taste	foodImageDisplay	4	191	11	foodImage.17	FOODEEG_Images\0199.jpg	NY	Right	Yes	0.771506500022952	0	717079	252
1402.60546875	0.771506500022952	taste	choicePhaseStart	4	191	11	foodImage.17	FOODEEG_Images\0199.jpg	NY	Right	Yes	0.771506500022952	0	718135	253
1403.369140625	0	taste	response	4	191	11	foodImage.17	FOODEEG_Images\0199.jpg	NY	Right	Yes	0.771506500022952	0	718526	235
1404.4140625	1	decision	trialStart	4	192	12	foodImage.55	FOODEEG_Images\0567.jpg	NY	Right	Yes	0.687192799989134	0	719061	251
1405.46875	2	decision	foodImageDisplay	4	192	12	foodImage.55	FOODEEG_Images\0567.jpg	NY	Right	Yes	0.687192799989134	0	719601	252
1407.53125	0.687192799989134	decision	choicePhaseStart	4	192	12	foodImage.55	FOODEEG_Images\0567.jpg	NY	Right	Yes	0.687192799989134	0	720657	253
1408.208984375	0	decision	response	4	192	12	foodImage.55	FOODEEG_Images\0567.jpg	NY	Right	Yes	0.687192799989134	0	721004	235
1409.25390625	1	health	trialStart	4	193	13	foodImage.99	FOODEEG_Images\0907.jpg	NY	Left	No	0.952006999985315	0	721539	251
1410.291015625	2	health	foodImageDisplay	4	193	13	foodImage.99	FOODEEG_Images\0907.jpg	NY	Left	No	0.952006999985315	0	722070	252
1412.353515625	0.952006999985315	health	choicePhaseStart	4	193	13	foodImage.99	FOODEEG_Images\0907.jpg	NY	Left	No	0.952006999985315	0	723126	253
1413.296875	0	health	response	4	193	13	foodImage.99	FOODEEG_Images\0907.jpg	NY	Left	No	0.952006999985315	0	723609	234
1414.341796875	1	health	trialStart	4	194	14	foodImage.55	FOODEEG_Images\0567.jpg	NY	Right	Yes	0.738331500033382	0	724144	251
1415.400390625	2	health	foodImageDisplay	4	194	14	foodImage.55	FOODEEG_Images\0567.jpg	NY	Right	Yes	0.738331500033382	0	724686	252
1417.462890625	0.738331500033382	health	choicePhaseStart	4	194	14	foodImage.55	FOODEEG_Images\0567.jpg	NY	Right	Yes	0.738331500033382	0	725742	253
