onset	duration	trial_type	event_type	block	trial_total	trial_in_block	food_image_code	food_image_path	button_position	resp_position	resp_choice	choice_rt	resp_too_slow	sample	trigger
385.939453125	2	n/a	blockStart	1	n/a	n/a	n/a	n/a	n/a	n/a	n/a	n/a	n/a	197602	250
387.978515625	1	taste	trialStart	1	1	1	foodImage.8	FOODEEG_Images\0136.jpg	NY	Left	No	1.65739820001181	0	198646	251
389.025390625	2	taste	foodImageDisplay	1	1	1	foodImage.8	FOODEEG_Images\0136.jpg	NY	Left	No	1.65739820001181	0	199182	252
391.091796875	1.65739820001181	taste	choicePhaseStart	1	1	1	foodImage.8	FOODEEG_Images\0136.jpg	NY	Left	No	1.65739820001181	0	200240	253
392.7421875	0	taste	response	1	1	1	foodImage.8	FOODEEG_Images\0136.jpg	NY	Left	No	1.65739820001181	0	201085	234
393.830078125	1	health	trialStart	1	2	2	foodImage.48	FOODEEG_Images\0494.jpg	NY	Left	No	1.59837270004209	0	201642	251
394.873046875	2	health	foodImageDisplay	1	2	2	foodImage.48	FOODEEG_Images\0494.jpg	NY	Left	No	1.59837270004209	0	202176	252
396.935546875	1.59837270004209	health	choicePhaseStart	1	2	2	foodImage.48	FOODEEG_Images\0494.jpg	NY	Left	No	1.59837270004209	0	203232	253
398.525390625	0	health	response	1	2	2	foodImage.48	FOODEEG_Images\0494.jpg	NY	Left	No	1.59837270004209	0	204046	234
399.576171875	1	decision	trialStart	1	3	3	foodImage.28	FOODEEG_Images\0273.jpg	NY	Right	Yes	1.0651222000015	0	204584	251
400.63671875	2	decision	foodImageDisplay	1	3	3	foodImage.28	FOODEEG_Images\0273.jpg	NY	Right	Yes	1.0651222000015	0	205127	252
402.701171875	1.0651222000015	decision	choicePhaseStart	1	3	3	foodImage.28	FOODEEG_Images\0273.jpg	NY	Right	Yes	1.0651222000015	0	206184	253
403.755859375	0	decision	response	1	3	3	foodImage.28	FOODEEG_Images\0273.jpg	NY	Right	Yes	1.0651222000015	0	206724	235
404.80078125	1	decision	trialStart	1	4	4	foodImage.90	FOODEEG_Images\0890.jpg	YN	Right	No	1.19647870003246	0	207259	251
405.880859375	2	decision	foodImageDisplay	1	4	4	foodImage.90	FOODEEG_Images\0890.jpg	YN	Right	No	1.19647870003246	0	207812	252
407.943359375	1.19647870003246	decision	choicePhaseStart	1	4	4	foodImage.90	FOODEEG_Images\0890.jpg	YN	Right	No	1.19647870003246	0	208868	253
409.1328125	0	decision	response	1	4	4	foodImage.90	FOODEEG_Images\0890.jpg	YN	Right	No	1.19647870003246	0	209477	235
410.17578125	1	decision	trialStart	1	5	5	foodImage.88	FOODEEG_Images\0878.jpg	YN	Right	No	1.12854010000592	0	210011	251
411.244140625	2	decision	foodImageDisplay	1	5	5	foodImage.88	FOODEEG_Images\0878.jpg	YN	Right	No	1.12854010000592	0	210558	252
413.30859375	1.12854010000592	decision	choicePhaseStart	1	5	5	foodImage.88	FOODEEG_Images\0878.jpg	YN	Right	No	1.12854010000592	0	211615	253
414.427734375	0	decision	response	1	5	5	foodImage.88	FOODEEG_Images\0878.jpg	YN	Right	No	1.12854010000592	0	212188	235
415.478515625	1	taste	trialStart	1	6	6	foodImage.112	FOODEEG_Images\0920.jpg	NY	Right	Yes	2.18146170000546	0	212726	251
416.51953125	2	taste	foodImageDisplay	1	6	6	foodImage.112	FOODEEG_Images\0920.jpg	NY	Right	Yes	2.18146170000546	0	213259	252
418.58203125	2.18146170000546	taste	choicePhaseStart	1	6	6	foodImage.112	FOODEEG_Images\0920.jpg	NY	Right	Yes	2.18146170000546	0	214315	253
420.755859375	0	taste	response	1	6	6	foodImage.112	FOODEEG_Images\0920.jpg	NY	Right	Yes	2.18146170000546	0	215428	235
421.798828125	1	health	trialStart	1	7	7	foodImage.97	FOODEEG_Images\0905.jpg	YN	Right	No	2.66870819998439	0	215962	251
422.83984375	2	health	foodImageDisplay	1	7	7	foodImage.97	FOODEEG_Images\0905.jpg	YN	Right	No	2.66870819998439	0	216495	252
424.90234375	2.66870819998439	health	choicePhaseStart	1	7	7	foodImage.97	FOODEEG_Images\0905.jpg	YN	Right	No	2.66870819998439	0	217551	253
427.564453125	0	health	response	1	7	7	foodImage.97	FOODEEG_Images\0905.jpg	YN	Right	No	2.66870819998439	0	218914	235
428.609375	1	health	trialStart	1	8	8	foodImage.4	FOODEEG_Images\0065.jpg	NY	Left	No	1.06028299999889	0	219449	251
429.66796875	2	health	foodImageDisplay	1	8	8	foodImage.4	FOODEEG_Images\0065.jpg	NY	Left	No	1.06028299999889	0	219991	252
431.732421875	1.06028299999889	health	choicePhaseStart	1	8	8	foodImage.4	FOODEEG_Images\0065.jpg	NY	Left	No	1.06028299999889	0	221048	253
432.787109375	0	health	response	1	8	8	foodImage.4	FOODEEG_Images\0065.jpg	NY	Left	No	1.06028299999889	0	221588	234
433.830078125	1	decision	trialStart	1	9	9	foodImage.94	FOODEEG_Images\0902.jpg	NY	Right	Yes	1.20893359999172	0	222122	251
434.8671875	2	decision	foodImageDisplay	1	9	9	foodImage.94	FOODEEG_Images\0902.jpg	NY	Right	Yes	1.20893359999172	0	222653	252
436.9296875	1.20893359999172	decision	choicePhaseStart	1	9	9	foodImage.94	FOODEEG_Images\0902.jpg	NY	Right	Yes	1.20893359999172	0	223709	253
438.130859375	0	decision	response	1	9	9	foodImage.94	FOODEEG_Images\0902.jpg	NY	Right	Yes	1.20893359999172	0	224324	235
439.17578125	1	taste	trialStart	1	10	10	foodImage.60	FOODEEG_Images\0614.jpg	YN	Left	Yes	1.24481890001334	0	224859	251
440.23046875	2	taste	foodImageDisplay	1	10	10	foodImage.60	FOODEEG_Images\0614.jpg	YN	Left	Yes	1.24481890001334	0	225399	252
442.294921875	1.24481890001334	taste	choicePhaseStart	1	10	10	foodImage.60	FOODEEG_Images\0614.jpg	YN	Left	Yes	1.24481890001334	0	226456	253
443.53125	0	taste	response	1	10	10	foodImage.60	FOODEEG_Images\0614.jpg	YN	Left	Yes	1.24481890001334	0	227089	234
444.572265625	1	decision	trialStart	1	11	11	foodImage.39	FOODEEG_Images\0367.jpg	YN	Right	No	1.21614239999326	0	227622	251
445.609375	2	decision	foodImageDisplay	1	11	11	foodImage.39	FOODEEG_Images\0367.jpg	YN	Right	No	1.21614239999326	0	228153	252
447.673828125	1.21614239999326	decision	choicePhaseStart	1	11	11	foodImage.39	FOODEEG_Images\0367.jpg	YN	Right	No	1.21614239999326	0	229210	253
448.8828125	0	decision	response	1	11	11	foodImage.39	FOODEEG_Images\0367.jpg	YN	Right	No	1.21614239999326	0	229829	235
449.92578125	1	taste	trialStart	1	12	12	foodImage.57	FOODEEG_Images\0587.jpg	YN	Left	Yes	1.55873039999278	0	230363	251
450.97265625	2	taste	foodImageDisplay	1	12	12	foodImage.57	FOODEEG_Images\0587.jpg	YN	Left	Yes	1.55873039999278	0	230899	252
453.03515625	1.55873039999278	taste	choicePhaseStart	1	12	12	foodImage.57	FOODEEG_Images\0587.jpg	YN	Left	Yes	1.55873039999278	0	231955	253
454.587890625	0	taste	response	1	12	12	foodImage.57	FOODEEG_Images\0587.jpg	YN	Left	Yes	1.55873039999278	0	232750	234
455.630859375	1	decision	trialStart	1	13	13	foodImage.55	FOODEEG_Images\0567.jpg	NY	Right	Yes	3.19885049998993	0	233284	251
456.6875	2	decision	foodImageDisplay	1	13	13	foodImage.55	FOODEEG_Images\0567.jpg	NY	Right	Yes	3.19885049998993	0	233825	252
458.75	3.19885049998993	decision	choicePhaseStart	1	13	13	foodImage.55	FOODEEG_Images\0567.jpg	NY	Right	Yes	3.19885049998993	0	234881	253
461.9375	0	decision	response	1	13	13	foodImage.55	FOODEEG_Images\0567.jpg	NY	Right	Yes	3.19885049998993	0	236513	235
462.98046875	1	decision	trialStart	1	14	14	foodImage.5	FOODEEG_Images\0107.jpg	NY	Left	No	1.39464100002078	0	237047	251
464.04296875	2	decision	foodImageDisplay	1	14	14	foodImage.5	FOODEEG_Images\0107.jpg	NY	Left	No	1.39464100002078	0	237591	252
466.10546875	1.39464100002078	decision	choicePhaseStart	1	14	14	foodImage.5	FOODEEG_Images\0107.jpg	NY	Left	No	1.39464100002078	0	238647	253
467.490234375	0	decision	response	1	14	14	foodImage.5	FOODEEG_Images\0107.jpg	NY	Left	No	1.39464100002078	0	239356	234
468.533203125	1	decision	trialStart	1	15	15	foodImage.1	FOODEEG_Images\0004.jpg	YN	Right	No	1.25405529997079	0	239890	251
469.57421875	2	decision	foodImageDisplay	1	15	15	foodImage.1	FOODEEG_Images\0004.jpg	YN	Right	No	1.25405529997079	0	240423	252
471.63671875	1.25405529997079	decision	choicePhaseStart	1	15	15	foodImage.1	FOODEEG_Images\0004.jpg	YN	Right	No	1.25405529997079	0	241479	253
472.880859375	0	decision	response	1	15	15	foodImage.1	FOODEEG_Images\0004.jpg	YN	Right	No	1.25405529997079	0	242116	235
473.92578125	1	decision	trialStart	1	16	16	foodImage.113	FOODEEG_Images\0921.jpg	YN	Left	Yes	1.29264850000618	0	242651	251
474.966796875	2	decision	foodImageDisplay	1	16	16	foodImage.113	FOODEEG_Images\0921.jpg	YN	Left	Yes	1.29264850000618	0	243184	252
477.029296875	1.29264850000618	decision	choicePhaseStart	1	16	16	foodImage.113	FOODEEG_Images\0921.jpg	YN	Left	Yes	1.29264850000618	0	244240	253
478.314453125	0	decision	response	1	16	16	foodImage.113	FOODEEG_Images\0921.jpg	YN	Left	Yes	1.29264850000618	0	244898	234
479.357421875	1	taste	trialStart	1	17	17	foodImage.12	FOODEEG_Images\0181.jpg	YN	Left	Yes	1.27249070000835	0	245432	251
480.400390625	2	taste	foodImageDisplay	1	17	17	foodImage.12	FOODEEG_Images\0181.jpg	YN	Left	Yes	1.27249070000835	0	245966	252
482.46484375	1.27249070000835	taste	choicePhaseStart	1	17	17	foodImage.12	FOODEEG_Images\0181.jpg	YN	Left	Yes	1.27249070000835	0	247023	253
483.728515625	0	taste	response	1	17	17	foodImage.12	FOODEEG_Images\0181.jpg	YN	Left	Yes	1.27249070000835	0	247670	234
484.771484375	1	decision	trialStart	1	18	18	foodImage.97	FOODEEG_Images\0905.jpg	YN	Left	Yes	1.52273010002682	0	248204	251
485.810546875	2	decision	foodImageDisplay	1	18	18	foodImage.97	FOODEEG_Images\0905.jpg	YN	Left	Yes	1.52273010002682	0	248736	252
487.87109375	1.52273010002682	decision	choicePhaseStart	1	18	18	foodImage.97	FOODEEG_Images\0905.jpg	YN	Left	Yes	1.52273010002682	0	249791	253
489.384765625	0	decision	response	1	18	18	foodImage.97	FOODEEG_Images\0905.jpg	YN	Left	Yes	1.52273010002682	0	250566	234
490.42578125	1	health	trialStart	1	19	19	foodImage.64	FOODEEG_Images\0647.jpg	YN	Left	Yes	1.09604429994943	0	251099	251
491.482421875	2	health	foodImageDisplay	1	19	19	foodImage.64	FOODEEG_Images\0647.jpg	YN	Left	Yes	1.09604429994943	0	251640	252
493.544921875	1.09604429994943	health	choicePhaseStart	1	19	19	foodImage.64	FOODEEG_Images\0647.jpg	YN	Left	Yes	1.09604429994943	0	252696	253
494.6328125	0	health	response	1	19	19	foodImage.64	FOODEEG_Images\0647.jpg	YN	Left	Yes	1.09604429994943	0	253253	234
495.67578125	1	health	trialStart	1	20	20	foodImage.25	FOODEEG_Images\0261.jpg	NY	Right	Yes	1.15476689999923	0	253787	251
496.736328125	2	health	foodImageDisplay	1	20	20	foodImage.25	FOODEEG_Images\0261.jpg	NY	Right	Yes	1.15476689999923	0	254330	252
498.798828125	1.15476689999923	health	choicePhaseStart	1	20	20	foodImage.25	FOODEEG_Images\0261.jpg	NY	Right	Yes	1.15476689999923	0	255386	253
499.9453125	0	health	response	1	20	20	foodImage.25	FOODEEG_Images\0261.jpg	NY	Right	Yes	1.15476689999923	0	255973	235
500.98828125	1	health	trialStart	1	21	21	foodImage.101	FOODEEG_Images\0909.jpg	NY	Left	No	2.01902459998382	0	256507	251
502.03125	2	health	foodImageDisplay	1	21	21	foodImage.101	FOODEEG_Images\0909.jpg	NY	Left	No	2.01902459998382	0	257041	252
504.09375	2.01902459998382	health	choicePhaseStart	1	21	21	foodImage.101	FOODEEG_Images\0909.jpg	NY	Left	No	2.01902459998382	0	258097	253
506.103515625	0	health	response	1	21	21	foodImage.101	FOODEEG_Images\0909.jpg	NY	Left	No	2.01902459998382	0	259126	234
507.1484375	1	health	trialStart	1	22	22	foodImage.78	FOODEEG_Images\0787.jpg	NY	Right	Yes	1.37000950000947	0	259661	251
508.193359375	2	health	foodImageDisplay	1	22	22	foodImage.78	FOODEEG_Images\0787.jpg	NY	Right	Yes	1.37000950000947	0	260196	252
510.25390625	1.37000950000947	health	choicePhaseStart	1	22	22	foodImage.78	FOODEEG_Images\0787.jpg	NY	Right	Yes	1.37000950000947	0	261251	253
511.615234375	0	health	response	1	22	22	foodImage.78	FOODEEG_Images\0787.jpg	NY	Right	Yes	1.37000950000947	0	261948	235
512.658203125	1	decision	trialStart	1	23	23	foodImage.36	FOODEEG_Images\0352.jpg	NY	Right	Yes	2.5459039999987	0	262482	251
513.712890625	2	decision	foodImageDisplay	1	23	23	foodImage.36	FOODEEG_Images\0352.jpg	NY	Right	Yes	2.5459039999987	0	263022	252
515.775390625	2.5459039999987	decision	choicePhaseStart	1	23	23	foodImage.36	FOODEEG_Images\0352.jpg	NY	Right	Yes	2.5459039999987	0	264078	253
518.3125	0	decision	response	1	23	23	foodImage.36	FOODEEG_Images\0352.jpg	NY	Right	Yes	2.5459039999987	0	265377	235
519.353515625	1	health	trialStart	1	24	24	foodImage.88	FOODEEG_Images\0878.jpg	NY	Left	No	1.08439650002401	0	265910	251
520.40625	2	health	foodImageDisplay	1	24	24	foodImage.88	FOODEEG_Images\0878.jpg	NY	Left	No	1.08439650002401	0	266449	252
522.46875	1.08439650002401	health	choicePhaseStart	1	24	24	foodImage.88	FOODEEG_Images\0878.jpg	NY	Left	No	1.08439650002401	0	267505	253
523.54296875	0	health	response	1	24	24	foodImage.88	FOODEEG_Images\0878.jpg	NY	Left	No	1.08439650002401	0	268055	234
524.5859375	1	decision	trialStart	1	25	25	foodImage.41	FOODEEG_Images\0409.jpg	NY	Right	Yes	0.902993900002912	0	268589	251
525.634765625	2	decision	foodImageDisplay	1	25	25	foodImage.41	FOODEEG_Images\0409.jpg	NY	Right	Yes	0.902993900002912	0	269126	252
527.697265625	0.902993900002912	decision	choicePhaseStart	1	25	25	foodImage.41	FOODEEG_Images\0409.jpg	NY	Right	Yes	0.902993900002912	0	270182	253
528.591796875	0	decision	response	1	25	25	foodImage.41	FOODEEG_Images\0409.jpg	NY	Right	Yes	0.902993900002912	0	270640	235
529.6328125	1	decision	trialStart	1	26	26	foodImage.119	FOODEEG_Images\0927.jpg	YN	Left	Yes	2.5601562000229	0	271173	251
530.673828125	2	decision	foodImageDisplay	1	26	26	foodImage.119	FOODEEG_Images\0927.jpg	YN	Left	Yes	2.5601562000229	0	271706	252
532.736328125	2.5601562000229	decision	choicePhaseStart	1	26	26	foodImage.119	FOODEEG_Images\0927.jpg	YN	Left	Yes	2.5601562000229	0	272762	253
535.287109375	0	decision	response	1	26	26	foodImage.119	FOODEEG_Images\0927.jpg	YN	Left	Yes	2.5601562000229	0	274068	234
536.328125	1	taste	trialStart	1	27	27	foodImage.52	FOODEEG_Images\0539.jpg	YN	Left	Yes	1.26681589998771	0	274601	251
537.3984375	2	taste	foodImageDisplay	1	27	27	foodImage.52	FOODEEG_Images\0539.jpg	YN	Left	Yes	1.26681589998771	0	275149	252
539.4609375	1.26681589998771	taste	choicePhaseStart	1	27	27	foodImage.52	FOODEEG_Images\0539.jpg	YN	Left	Yes	1.26681589998771	0	276205	253
540.71875	0	taste	response	1	27	27	foodImage.52	FOODEEG_Images\0539.jpg	YN	Left	Yes	1.26681589998771	0	276849	234
541.759765625	1	taste	trialStart	1	28	28	foodImage.104	FOODEEG_Images\0912.jpg	NY	Left	No	1.2432669000118	0	277382	251
542.8046875	2	taste	foodImageDisplay	1	28	28	foodImage.104	FOODEEG_Images\0912.jpg	NY	Left	No	1.2432669000118	0	277917	252
544.8671875	1.2432669000118	taste	choicePhaseStart	1	28	28	foodImage.104	FOODEEG_Images\0912.jpg	NY	Left	No	1.2432669000118	0	278973	253
546.103515625	0	taste	response	1	28	28	foodImage.104	FOODEEG_Images\0912.jpg	NY	Left	No	1.2432669000118	0	279606	234
547.14453125	1	decision	trialStart	1	29	29	foodImage.56	FOODEEG_Images\0586.jpg	NY	Right	Yes	1.16895640001167	0	280139	251
548.19140625	2	decision	foodImageDisplay	1	29	29	foodImage.56	FOODEEG_Images\0586.jpg	NY	Right	Yes	1.16895640001167	0	280675	252
550.25390625	1.16895640001167	decision	choicePhaseStart	1	29	29	foodImage.56	FOODEEG_Images\0586.jpg	NY	Right	Yes	1.16895640001167	0	281731	253
551.4140625	0	decision	response	1	29	29	foodImage.56	FOODEEG_Images\0586.jpg	NY	Right	Yes	1.16895640001167	0	282325	235
552.45703125	1	health	trialStart	1	30	30	foodImage.47	FOODEEG_Images\0488.jpg	YN	Right	No	1.46083019999787	0	282859	251
553.517578125	2	health	foodImageDisplay	1	30	30	foodImage.47	FOODEEG_Images\0488.jpg	YN	Right	No	1.46083019999787	0	283402	252
555.580078125	1.46083019999787	health	choicePhaseStart	1	30	30	foodImage.47	FOODEEG_Images\0488.jpg	YN	Right	No	1.46083019999787	0	284458	253
557.03125	0	health	response	1	30	30	foodImage.47	FOODEEG_Images\0488.jpg	YN	Right	No	1.46083019999787	0	285201	235
558.072265625	1	taste	trialStart	1	31	31	foodImage.21	FOODEEG_Images\0234.jpg	YN	Left	Yes	1.39114750002045	0	285734	251
559.130859375	2	taste	foodImageDisplay	1	31	31	foodImage.21	FOODEEG_Images\0234.jpg	YN	Left	Yes	1.39114750002045	0	286276	252
561.19140625	1.39114750002045	taste	choicePhaseStart	1	31	31	foodImage.21	FOODEEG_Images\0234.jpg	YN	Left	Yes	1.39114750002045	0	287331	253
562.57421875	0	taste	response	1	31	31	foodImage.21	FOODEEG_Images\0234.jpg	YN	Left	Yes	1.39114750002045	0	288039	234
563.615234375	1	health	trialStart	1	32	32	foodImage.52	FOODEEG_Images\0539.jpg	NY	Right	Yes	1.16890650003916	0	288572	251
564.671875	2	health	foodImageDisplay	1	32	32	foodImage.52	FOODEEG_Images\0539.jpg	NY	Right	Yes	1.16890650003916	0	289113	252
566.734375	1.16890650003916	health	choicePhaseStart	1	32	32	foodImage.52	FOODEEG_Images\0539.jpg	NY	Right	Yes	1.16890650003916	0	290169	253
567.89453125	0	health	response	1	32	32	foodImage.52	FOODEEG_Images\0539.jpg	NY	Right	Yes	1.16890650003916	0	290763	235
568.9375	1	health	trialStart	1	33	33	foodImage.89	FOODEEG_Images\0881.jpg	YN	Left	Yes	1.91510109999217	0	291297	251
569.990234375	2	health	foodImageDisplay	1	33	33	foodImage.89	FOODEEG_Images\0881.jpg	YN	Left	Yes	1.91510109999217	0	291836	252
572.052734375	1.91510109999217	health	choicePhaseStart	1	33	33	foodImage.89	FOODEEG_Images\0881.jpg	YN	Left	Yes	1.91510109999217	0	292892	253
573.95703125	0	health	response	1	33	33	foodImage.89	FOODEEG_Images\0881.jpg	YN	Left	Yes	1.91510109999217	0	293867	234
575	1	health	trialStart	1	34	34	foodImage.20	FOODEEG_Images\0226.jpg	YN	Right	No	3.28463499998907	0	294401	251
576.04296875	2	health	foodImageDisplay	1	34	34	foodImage.20	FOODEEG_Images\0226.jpg	YN	Right	No	3.28463499998907	0	294935	252
578.10546875	3.28463499998907	health	choicePhaseStart	1	34	34	foodImage.20	FOODEEG_Images\0226.jpg	YN	Right	No	3.28463499998907	0	295991	253
581.380859375	0	health	response	1	34	34	foodImage.20	FOODEEG_Images\0226.jpg	YN	Right	No	3.28463499998907	0	297668	235
582.423828125	1	decision	trialStart	1	35	35	foodImage.32	FOODEEG_Images\0319.jpg	YN	Left	Yes	2.55470519996015	0	298202	251
583.466796875	2	decision	foodImageDisplay	1	35	35	foodImage.32	FOODEEG_Images\0319.jpg	YN	Left	Yes	2.55470519996015	0	298736	252
585.529296875	2.55470519996015	decision	choicePhaseStart	1	35	35	foodImage.32	FOODEEG_Images\0319.jpg	YN	Left	Yes	2.55470519996015	0	299792	253
588.078125	0	decision	response	1	35	35	foodImage.32	FOODEEG_Images\0319.jpg	YN	Left	Yes	2.55470519996015	0	301097	234
589.1171875	1	taste	trialStart	1	36	36	foodImage.19	FOODEEG_Images\0225.jpg	NY	Right	Yes	1.02119600004517	0	301629	251
590.177734375	2	taste	foodImageDisplay	1	36	36	foodImage.19	FOODEEG_Images\0225.jpg	NY	Right	Yes	1.02119600004517	0	302172	252
592.240234375	1.02119600004517	taste	choicePhaseStart	1	36	36	foodImage.19	FOODEEG_Images\0225.jpg	NY	Right	Yes	1.02119600004517	0	303228	253
593.25390625	0	taste	response	1	36	36	foodImage.19	FOODEEG_Images\0225.jpg	NY	Right	Yes	1.02119600004517	0	303747	235
594.296875	1	taste	trialStart	1	37	37	foodImage.42	FOODEEG_Images\0438.jpg	NY	Right	Yes	1.19661980000092	0	304281	251
595.38671875	2	taste	foodImageDisplay	1	37	37	foodImage.42	FOODEEG_Images\0438.jpg	NY	Right	Yes	1.19661980000092	0	304839	252
597.44921875	1.19661980000092	taste	choicePhaseStart	1	37	37	foodImage.42	FOODEEG_Images\0438.jpg	NY	Right	Yes	1.19661980000092	0	305895	253
598.63671875	0	taste	response	1	37	37	foodImage.42	FOODEEG_Images\0438.jpg	NY	Right	Yes	1.19661980000092	0	306503	235
599.67578125	1	taste	trialStart	1	38	38	foodImage.40	FOODEEG_Images\0373.jpg	YN	Right	No	1.57684069999959	0	307035	251
600.71875	2	taste	foodImageDisplay	1	38	38	foodImage.40	FOODEEG_Images\0373.jpg	YN	Right	No	1.57684069999959	0	307569	252
602.78125	1.57684069999959	taste	choicePhaseStart	1	38	38	foodImage.40	FOODEEG_Images\0373.jpg	YN	Right	No	1.57684069999959	0	308625	253
604.34765625	0	taste	response	1	38	38	foodImage.40	FOODEEG_Images\0373.jpg	YN	Right	No	1.57684069999959	0	309427	235
605.388671875	1	health	trialStart	1	39	39	foodImage.110	FOODEEG_Images\0918.jpg	NY	Left	No	1.59041780000553	0	309960	251
606.431640625	2	health	foodImageDisplay	1	39	39	foodImage.110	FOODEEG_Images\0918.jpg	NY	Left	No	1.59041780000553	0	310494	252
608.494140625	1.59041780000553	health	choicePhaseStart	1	39	39	foodImage.110	FOODEEG_Images\0918.jpg	NY	Left	No	1.59041780000553	0	311550	253
610.076171875	0	health	response	1	39	39	foodImage.110	FOODEEG_Images\0918.jpg	NY	Left	No	1.59041780000553	0	312360	234
611.119140625	1	taste	trialStart	1	40	40	foodImage.63	FOODEEG_Images\0645.jpg	YN	Left	Yes	2.10607879998861	0	312894	251
612.166015625	2	taste	foodImageDisplay	1	40	40	foodImage.63	FOODEEG_Images\0645.jpg	YN	Left	Yes	2.10607879998861	0	313430	252
614.228515625	2.10607879998861	taste	choicePhaseStart	1	40	40	foodImage.63	FOODEEG_Images\0645.jpg	YN	Left	Yes	2.10607879998861	0	314486	253
616.32421875	0	taste	response	1	40	40	foodImage.63	FOODEEG_Images\0645.jpg	YN	Left	Yes	2.10607879998861	0	315559	234
617.365234375	1	health	trialStart	1	41	41	foodImage.10	FOODEEG_Images\0145.jpg	NY	Left	No	2.15212450001854	0	316092	251
618.421875	2	health	foodImageDisplay	1	41	41	foodImage.10	FOODEEG_Images\0145.jpg	NY	Left	No	2.15212450001854	0	316633	252
620.484375	2.15212450001854	health	choicePhaseStart	1	41	41	foodImage.10	FOODEEG_Images\0145.jpg	NY	Left	No	2.15212450001854	0	317689	253
622.626953125	0	health	response	1	41	41	foodImage.10	FOODEEG_Images\0145.jpg	NY	Left	No	2.15212450001854	0	318786	234
623.66796875	1	taste	trialStart	1	42	42	foodImage.83	FOODEEG_Images\0827.jpg	YN	Left	Yes	1.37910760001978	0	319319	251
624.740234375	2	taste	foodImageDisplay	1	42	42	foodImage.83	FOODEEG_Images\0827.jpg	YN	Left	Yes	1.37910760001978	0	319868	252
626.802734375	1.37910760001978	taste	choicePhaseStart	1	42	42	foodImage.83	FOODEEG_Images\0827.jpg	YN	Left	Yes	1.37910760001978	0	320924	253
628.171875	0	taste	response	1	42	42	foodImage.83	FOODEEG_Images\0827.jpg	YN	Left	Yes	1.37910760001978	0	321625	234
629.21484375	1	health	trialStart	1	43	43	foodImage.22	FOODEEG_Images\0236.jpg	YN	Left	Yes	1.44546469999477	0	322159	251
630.255859375	2	health	foodImageDisplay	1	43	43	foodImage.22	FOODEEG_Images\0236.jpg	YN	Left	Yes	1.44546469999477	0	322692	252
632.318359375	1.44546469999477	health	choicePhaseStart	1	43	43	foodImage.22	FOODEEG_Images\0236.jpg	YN	Left	Yes	1.44546469999477	0	323748	253
633.755859375	0	health	response	1	43	43	foodImage.22	FOODEEG_Images\0236.jpg	YN	Left	Yes	1.44546469999477	0	324484	234
634.798828125	1	taste	trialStart	1	44	44	foodImage.14	FOODEEG_Images\0188.jpg	NY	Right	Yes	1.32723689998966	0	325018	251
635.853515625	2	taste	foodImageDisplay	1	44	44	foodImage.14	FOODEEG_Images\0188.jpg	NY	Right	Yes	1.32723689998966	0	325558	252
637.916015625	1.32723689998966	taste	choicePhaseStart	1	44	44	foodImage.14	FOODEEG_Images\0188.jpg	NY	Right	Yes	1.32723689998966	0	326614	253
639.234375	0	taste	response	1	44	44	foodImage.14	FOODEEG_Images\0188.jpg	NY	Right	Yes	1.32723689998966	0	327289	235
640.27734375	1	decision	trialStart	1	45	45	foodImage.86	FOODEEG_Images\0844.jpg	YN	Right	No	1.62186559999827	0	327823	251
641.33203125	2	decision	foodImageDisplay	1	45	45	foodImage.86	FOODEEG_Images\0844.jpg	YN	Right	No	1.62186559999827	0	328363	252
643.39453125	1.62186559999827	decision	choicePhaseStart	1	45	45	foodImage.86	FOODEEG_Images\0844.jpg	YN	Right	No	1.62186559999827	0	329419	253
645.01171875	0	decision	response	1	45	45	foodImage.86	FOODEEG_Images\0844.jpg	YN	Right	No	1.62186559999827	0	330247	235
646.052734375	1	decision	trialStart	1	46	46	foodImage.80	FOODEEG_Images\0796.jpg	YN	Left	Yes	1.40569609997328	0	330780	251
647.11328125	2	decision	foodImageDisplay	1	46	46	foodImage.80	FOODEEG_Images\0796.jpg	YN	Left	Yes	1.40569609997328	0	331323	252
649.17578125	1.40569609997328	decision	choicePhaseStart	1	46	46	foodImage.80	FOODEEG_Images\0796.jpg	YN	Left	Yes	1.40569609997328	0	332379	253
650.5703125	0	decision	response	1	46	46	foodImage.80	FOODEEG_Images\0796.jpg	YN	Left	Yes	1.40569609997328	0	333093	234
651.611328125	1	health	trialStart	1	47	47	foodImage.60	FOODEEG_Images\0614.jpg	NY	Right	Yes	1.63933030003682	0	333626	251
652.669921875	2	health	foodImageDisplay	1	47	47	foodImage.60	FOODEEG_Images\0614.jpg	NY	Right	Yes	1.63933030003682	0	334168	252
654.73046875	1.63933030003682	health	choicePhaseStart	1	47	47	foodImage.60	FOODEEG_Images\0614.jpg	NY	Right	Yes	1.63933030003682	0	335223	253
656.36328125	0	health	response	1	47	47	foodImage.60	FOODEEG_Images\0614.jpg	NY	Right	Yes	1.63933030003682	0	336059	235
657.40625	1	decision	trialStart	1	48	48	foodImage.73	FOODEEG_Images\0717.jpg	YN	Left	Yes	1.22648379998282	0	336593	251
658.46484375	2	decision	foodImageDisplay	1	48	48	foodImage.73	FOODEEG_Images\0717.jpg	YN	Left	Yes	1.22648379998282	0	337135	252
660.52734375	1.22648379998282	decision	choicePhaseStart	1	48	48	foodImage.73	FOODEEG_Images\0717.jpg	YN	Left	Yes	1.22648379998282	0	338191	253
661.74609375	0	decision	response	1	48	48	foodImage.73	FOODEEG_Images\0717.jpg	YN	Left	Yes	1.22648379998282	0	338815	234
662.787109375	1	taste	trialStart	1	49	49	foodImage.87	FOODEEG_Images\0873.jpg	NY	Right	Yes	1.15154329995858	0	339348	251
663.86328125	2	taste	foodImageDisplay	1	49	49	foodImage.87	FOODEEG_Images\0873.jpg	NY	Right	Yes	1.15154329995858	0	339899	252
665.923828125	1.15154329995858	taste	choicePhaseStart	1	49	49	foodImage.87	FOODEEG_Images\0873.jpg	NY	Right	Yes	1.15154329995858	0	340954	253
667.06640625	0	taste	response	1	49	49	foodImage.87	FOODEEG_Images\0873.jpg	NY	Right	Yes	1.15154329995858	0	341539	235
668.107421875	1	health	trialStart	1	50	50	foodImage.76	FOODEEG_Images\0766.jpg	YN	Left	Yes	1.25683059997391	0	342072	251
669.15234375	2	health	foodImageDisplay	1	50	50	foodImage.76	FOODEEG_Images\0766.jpg	YN	Left	Yes	1.25683059997391	0	342607	252
671.216796875	1.25683059997391	health	choicePhaseStart	1	50	50	foodImage.76	FOODEEG_Images\0766.jpg	YN	Left	Yes	1.25683059997391	0	343664	253
672.466796875	0	health	response	1	50	50	foodImage.76	FOODEEG_Images\0766.jpg	YN	Left	Yes	1.25683059997391	0	344304	234
673.5078125	1	taste	trialStart	1	51	51	foodImage.101	FOODEEG_Images\0909.jpg	NY	Left	No	1.15884450002341	0	344837	251
674.544921875	2	taste	foodImageDisplay	1	51	51	foodImage.101	FOODEEG_Images\0909.jpg	NY	Left	No	1.15884450002341	0	345368	252
676.611328125	1.15884450002341	taste	choicePhaseStart	1	51	51	foodImage.101	FOODEEG_Images\0909.jpg	NY	Left	No	1.15884450002341	0	346426	253
677.76171875	0	taste	response	1	51	51	foodImage.101	FOODEEG_Images\0909.jpg	NY	Left	No	1.15884450002341	0	347015	234
678.8046875	1	decision	trialStart	1	52	52	foodImage.25	FOODEEG_Images\0261.jpg	NY	Right	Yes	1.00602530001197	0	347549	251
679.845703125	2	decision	foodImageDisplay	1	52	52	foodImage.25	FOODEEG_Images\0261.jpg	NY	Right	Yes	1.00602530001197	0	348082	252
681.908203125	1.00602530001197	decision	choicePhaseStart	1	52	52	foodImage.25	FOODEEG_Images\0261.jpg	NY	Right	Yes	1.00602530001197	0	349138	253
682.90625	0	decision	response	1	52	52	foodImage.25	FOODEEG_Images\0261.jpg	NY	Right	Yes	1.00602530001197	0	349649	235
683.947265625	1	taste	trialStart	1	53	53	foodImage.81	FOODEEG_Images\0797.jpg	NY	Right	Yes	1.15814499999397	0	350182	251
685.00390625	2	taste	foodImageDisplay	1	53	53	foodImage.81	FOODEEG_Images\0797.jpg	NY	Right	Yes	1.15814499999397	0	350723	252
687.06640625	1.15814499999397	taste	choicePhaseStart	1	53	53	foodImage.81	FOODEEG_Images\0797.jpg	NY	Right	Yes	1.15814499999397	0	351779	253
688.216796875	0	taste	response	1	53	53	foodImage.81	FOODEEG_Images\0797.jpg	NY	Right	Yes	1.15814499999397	0	352368	235
689.26171875	1	taste	trialStart	1	54	54	foodImage.95	FOODEEG_Images\0903.jpg	NY	Left	No	1.46914889995242	0	352903	251
690.302734375	2	taste	foodImageDisplay	1	54	54	foodImage.95	FOODEEG_Images\0903.jpg	NY	Left	No	1.46914889995242	0	353436	252
692.365234375	1.46914889995242	taste	choicePhaseStart	1	54	54	foodImage.95	FOODEEG_Images\0903.jpg	NY	Left	No	1.46914889995242	0	354492	253
693.82421875	0	taste	response	1	54	54	foodImage.95	FOODEEG_Images\0903.jpg	NY	Left	No	1.46914889995242	0	355239	234
694.869140625	1	taste	trialStart	1	55	55	foodImage.18	FOODEEG_Images\0202.jpg	NY	Right	Yes	1.21204929996748	0	355774	251
695.927734375	2	taste	foodImageDisplay	1	55	55	foodImage.18	FOODEEG_Images\0202.jpg	NY	Right	Yes	1.21204929996748	0	356316	252
697.98828125	1.21204929996748	taste	choicePhaseStart	1	55	55	foodImage.18	FOODEEG_Images\0202.jpg	NY	Right	Yes	1.21204929996748	0	357371	253
699.193359375	0	taste	response	1	55	55	foodImage.18	FOODEEG_Images\0202.jpg	NY	Right	Yes	1.21204929996748	0	357988	235
700.234375	1	decision	trialStart	1	56	56	foodImage.87	FOODEEG_Images\0873.jpg	NY	Right	Yes	0.932148599997163	0	358521	251
701.294921875	2	decision	foodImageDisplay	1	56	56	foodImage.87	FOODEEG_Images\0873.jpg	NY	Right	Yes	0.932148599997163	0	359064	252
703.357421875	0.932148599997163	decision	choicePhaseStart	1	56	56	foodImage.87	FOODEEG_Images\0873.jpg	NY	Right	Yes	0.932148599997163	0	360120	253
704.28125	0	decision	response	1	56	56	foodImage.87	FOODEEG_Images\0873.jpg	NY	Right	Yes	0.932148599997163	0	360593	235
705.328125	1	decision	trialStart	1	57	57	foodImage.74	FOODEEG_Images\0752.jpg	NY	Right	Yes	0.967823099985253	0	361129	251
706.37890625	2	decision	foodImageDisplay	1	57	57	foodImage.74	FOODEEG_Images\0752.jpg	NY	Right	Yes	0.967823099985253	0	361667	252
708.44140625	0.967823099985253	decision	choicePhaseStart	1	57	57	foodImage.74	FOODEEG_Images\0752.jpg	NY	Right	Yes	0.967823099985253	0	362723	253
709.400390625	0	decision	response	1	57	57	foodImage.74	FOODEEG_Images\0752.jpg	NY	Right	Yes	0.967823099985253	0	363214	235
710.443359375	1	health	trialStart	1	58	58	foodImage.62	FOODEEG_Images\0644.jpg	YN	Left	Yes	1.24725149996812	0	363748	251
711.498046875	2	health	foodImageDisplay	1	58	58	foodImage.62	FOODEEG_Images\0644.jpg	YN	Left	Yes	1.24725149996812	0	364288	252
713.560546875	1.24725149996812	health	choicePhaseStart	1	58	58	foodImage.62	FOODEEG_Images\0644.jpg	YN	Left	Yes	1.24725149996812	0	365344	253
714.80078125	0	health	response	1	58	58	foodImage.62	FOODEEG_Images\0644.jpg	YN	Left	Yes	1.24725149996812	0	365979	234
715.841796875	1	taste	trialStart	1	59	59	foodImage.2	FOODEEG_Images\0028.jpg	YN	Right	No	1.87331689998973	0	366512	251
716.904296875	2	taste	foodImageDisplay	1	59	59	foodImage.2	FOODEEG_Images\0028.jpg	YN	Right	No	1.87331689998973	0	367056	252
718.96875	1.87331689998973	taste	choicePhaseStart	1	59	59	foodImage.2	FOODEEG_Images\0028.jpg	YN	Right	No	1.87331689998973	0	368113	253
720.83203125	0	taste	response	1	59	59	foodImage.2	FOODEEG_Images\0028.jpg	YN	Right	No	1.87331689998973	0	369067	235
721.873046875	1	health	trialStart	1	60	60	foodImage.31	FOODEEG_Images\0294.jpg	YN	Left	Yes	1.96245049999561	0	369600	251
722.93359375	2	health	foodImageDisplay	1	60	60	foodImage.31	FOODEEG_Images\0294.jpg	YN	Left	Yes	1.96245049999561	0	370143	252
724.998046875	1.96245049999561	health	choicePhaseStart	1	60	60	foodImage.31	FOODEEG_Images\0294.jpg	YN	Left	Yes	1.96245049999561	0	371200	253
726.951171875	0	health	response	1	60	60	foodImage.31	FOODEEG_Images\0294.jpg	YN	Left	Yes	1.96245049999561	0	372200	234
728.994140625	13.865234375	n/a	blockEnd	n/a	n/a	n/a	n/a	n/a	n/a	n/a	n/a	n/a	n/a	373246	254
742.859375	2	n/a	blockStart	2	n/a	n/a	n/a	n/a	n/a	n/a	n/a	n/a	n/a	380345	250
744.89453125	1	taste	trialStart	2	61	1	foodImage.37	FOODEEG_Images\0359.jpg	NY	Right	Yes	1.01340479997452	0	381387	251
745.9375	2	taste	foodImageDisplay	2	61	1	foodImage.37	FOODEEG_Images\0359.jpg	NY	Right	Yes	1.01340479997452	0	381921	252
748	1.01340479997452	taste	choicePhaseStart	2	61	1	foodImage.37	FOODEEG_Images\0359.jpg	NY	Right	Yes	1.01340479997452	0	382977	253
749.005859375	0	taste	response	2	61	1	foodImage.37	FOODEEG_Images\0359.jpg	NY	Right	Yes	1.01340479997452	0	383492	235
750.048828125	1	decision	trialStart	2	62	2	foodImage.31	FOODEEG_Images\0294.jpg	YN	Left	Yes	1.37139009998646	0	384026	251
751.091796875	2	decision	foodImageDisplay	2	62	2	foodImage.31	FOODEEG_Images\0294.jpg	YN	Left	Yes	1.37139009998646	0	384560	252
753.154296875	1.37139009998646	decision	choicePhaseStart	2	62	2	foodImage.31	FOODEEG_Images\0294.jpg	YN	Left	Yes	1.37139009998646	0	385616	253
754.517578125	0	decision	response	2	62	2	foodImage.31	FOODEEG_Images\0294.jpg	YN	Left	Yes	1.37139009998646	0	386314	234
755.560546875	1	taste	trialStart	2	63	3	foodImage.20	FOODEEG_Images\0226.jpg	NY	Right	Yes	1.0875605000183	0	386848	251
756.599609375	2	taste	foodImageDisplay	2	63	3	foodImage.20	FOODEEG_Images\0226.jpg	NY	Right	Yes	1.0875605000183	0	387380	252
758.662109375	1.0875605000183	taste	choicePhaseStart	2	63	3	foodImage.20	FOODEEG_Images\0226.jpg	NY	Right	Yes	1.0875605000183	0	388436	253
759.7421875	0	taste	response	2	63	3	foodImage.20	FOODEEG_Images\0226.jpg	NY	Right	Yes	1.0875605000183	0	388989	235
760.78515625	1	health	trialStart	2	64	4	foodImage.61	FOODEEG_Images\0640.jpg	YN	Left	Yes	1.17043589998502	0	389523	251
761.837890625	2	health	foodImageDisplay	2	64	4	foodImage.61	FOODEEG_Images\0640.jpg	YN	Left	Yes	1.17043589998502	0	390062	252
763.8984375	1.17043589998502	health	choicePhaseStart	2	64	4	foodImage.61	FOODEEG_Images\0640.jpg	YN	Left	Yes	1.17043589998502	0	391117	253
765.0625	0	health	response	2	64	4	foodImage.61	FOODEEG_Images\0640.jpg	YN	Left	Yes	1.17043589998502	0	391713	234
766.103515625	1	decision	trialStart	2	65	5	foodImage.16	FOODEEG_Images\0196.jpg	YN	Left	Yes	1.15265820000786	0	392246	251
767.162109375	2	decision	foodImageDisplay	2	65	5	foodImage.16	FOODEEG_Images\0196.jpg	YN	Left	Yes	1.15265820000786	0	392788	252
769.22265625	1.15265820000786	decision	choicePhaseStart	2	65	5	foodImage.16	FOODEEG_Images\0196.jpg	YN	Left	Yes	1.15265820000786	0	393843	253
770.365234375	0	decision	response	2	65	5	foodImage.16	FOODEEG_Images\0196.jpg	YN	Left	Yes	1.15265820000786	0	394428	234
771.408203125	1	decision	trialStart	2	66	6	foodImage.82	FOODEEG_Images\0805.jpg	NY	Right	Yes	0.941756600048393	0	394962	251
772.46484375	2	decision	foodImageDisplay	2	66	6	foodImage.82	FOODEEG_Images\0805.jpg	NY	Right	Yes	0.941756600048393	0	395503	252
774.52734375	0.941756600048393	decision	choicePhaseStart	2	66	6	foodImage.82	FOODEEG_Images\0805.jpg	NY	Right	Yes	0.941756600048393	0	396559	253
775.4609375	0	decision	response	2	66	6	foodImage.82	FOODEEG_Images\0805.jpg	NY	Right	Yes	0.941756600048393	0	397037	235
776.50390625	1	taste	trialStart	2	67	7	foodImage.91	FOODEEG_Images\0896.jpg	NY	Left	No	1.18774780002423	0	397571	251
777.5625	2	taste	foodImageDisplay	2	67	7	foodImage.91	FOODEEG_Images\0896.jpg	NY	Left	No	1.18774780002423	0	398113	252
779.625	1.18774780002423	taste	choicePhaseStart	2	67	7	foodImage.91	FOODEEG_Images\0896.jpg	NY	Left	No	1.18774780002423	0	399169	253
780.806640625	0	taste	response	2	67	7	foodImage.91	FOODEEG_Images\0896.jpg	NY	Left	No	1.18774780002423	0	399774	234
781.849609375	1	taste	trialStart	2	68	8	foodImage.117	FOODEEG_Images\0925.jpg	YN	Left	Yes	2.7218603999936	0	400308	251
782.88671875	2	taste	foodImageDisplay	2	68	8	foodImage.117	FOODEEG_Images\0925.jpg	YN	Left	Yes	2.7218603999936	0	400839	252
784.94921875	2.7218603999936	taste	choicePhaseStart	2	68	8	foodImage.117	FOODEEG_Images\0925.jpg	YN	Left	Yes	2.7218603999936	0	401895	253
787.66015625	0	taste	response	2	68	8	foodImage.117	FOODEEG_Images\0925.jpg	YN	Left	Yes	2.7218603999936	0	403283	234
788.703125	1	taste	trialStart	2	69	9	foodImage.13	FOODEEG_Images\0183.jpg	NY	Right	Yes	2.0458062000107	0	403817	251
789.744140625	2	taste	foodImageDisplay	2	69	9	foodImage.13	FOODEEG_Images\0183.jpg	NY	Right	Yes	2.0458062000107	0	404350	252
791.806640625	2.0458062000107	taste	choicePhaseStart	2	69	9	foodImage.13	FOODEEG_Images\0183.jpg	NY	Right	Yes	2.0458062000107	0	405406	253
793.845703125	0	taste	response	2	69	9	foodImage.13	FOODEEG_Images\0183.jpg	NY	Right	Yes	2.0458062000107	0	406450	235
794.88671875	1	health	trialStart	2	70	10	foodImage.103	FOODEEG_Images\0911.jpg	NY	Left	No	1.76006970001617	0	406983	251
795.92578125	2	health	foodImageDisplay	2	70	10	foodImage.103	FOODEEG_Images\0911.jpg	NY	Left	No	1.76006970001617	0	407515	252
797.98828125	1.76006970001617	health	choicePhaseStart	2	70	10	foodImage.103	FOODEEG_Images\0911.jpg	NY	Left	No	1.76006970001617	0	408571	253
799.740234375	0	health	response	2	70	10	foodImage.103	FOODEEG_Images\0911.jpg	NY	Left	No	1.76006970001617	0	409468	234
800.78515625	1	taste	trialStart	2	71	11	foodImage.107	FOODEEG_Images\0915.jpg	NY	Right	Yes	1.2235279000015	0	410003	251
801.822265625	2	taste	foodImageDisplay	2	71	11	foodImage.107	FOODEEG_Images\0915.jpg	NY	Right	Yes	1.2235279000015	0	410534	252
803.884765625	1.2235279000015	taste	choicePhaseStart	2	71	11	foodImage.107	FOODEEG_Images\0915.jpg	NY	Right	Yes	1.2235279000015	0	411590	253
805.1015625	0	taste	response	2	71	11	foodImage.107	FOODEEG_Images\0915.jpg	NY	Right	Yes	1.2235279000015	0	412213	235
806.142578125	1	health	trialStart	2	72	12	foodImage.100	FOODEEG_Images\0908.jpg	YN	Left	Yes	1.55266079999274	0	412746	251
807.1796875	2	health	foodImageDisplay	2	72	12	foodImage.100	FOODEEG_Images\0908.jpg	YN	Left	Yes	1.55266079999274	0	413277	252
809.244140625	1.55266079999274	health	choicePhaseStart	2	72	12	foodImage.100	FOODEEG_Images\0908.jpg	YN	Left	Yes	1.55266079999274	0	414334	253
810.7890625	0	health	response	2	72	12	foodImage.100	FOODEEG_Images\0908.jpg	YN	Left	Yes	1.55266079999274	0	415125	234
811.830078125	1	taste	trialStart	2	73	13	foodImage.48	FOODEEG_Images\0494.jpg	NY	Right	Yes	1.43138550000731	0	415658	251
812.87109375	2	taste	foodImageDisplay	2	73	13	foodImage.48	FOODEEG_Images\0494.jpg	NY	Right	Yes	1.43138550000731	0	416191	252
814.93359375	1.43138550000731	taste	choicePhaseStart	2	73	13	foodImage.48	FOODEEG_Images\0494.jpg	NY	Right	Yes	1.43138550000731	0	417247	253
816.35546875	0	taste	response	2	73	13	foodImage.48	FOODEEG_Images\0494.jpg	NY	Right	Yes	1.43138550000731	0	417975	235
817.3984375	1	decision	trialStart	2	74	14	foodImage.107	FOODEEG_Images\0915.jpg	NY	Right	Yes	1.89620610000566	0	418509	251
818.4375	2	decision	foodImageDisplay	2	74	14	foodImage.107	FOODEEG_Images\0915.jpg	NY	Right	Yes	1.89620610000566	0	419041	252
820.5	1.89620610000566	decision	choicePhaseStart	2	74	14	foodImage.107	FOODEEG_Images\0915.jpg	NY	Right	Yes	1.89620610000566	0	420097	253
822.388671875	0	decision	response	2	74	14	foodImage.107	FOODEEG_Images\0915.jpg	NY	Right	Yes	1.89620610000566	0	421064	235
823.427734375	1	health	trialStart	2	75	15	foodImage.112	FOODEEG_Images\0920.jpg	YN	Right	No	4.14181749999989	0	421596	251
824.466796875	2	health	foodImageDisplay	2	75	15	foodImage.112	FOODEEG_Images\0920.jpg	YN	Right	No	4.14181749999989	0	422128	252
826.533203125	4.14181749999989	health	choicePhaseStart	2	75	15	foodImage.112	FOODEEG_Images\0920.jpg	YN	Right	No	4.14181749999989	0	423186	253
830.66796875	0	health	response	2	75	15	foodImage.112	FOODEEG_Images\0920.jpg	YN	Right	No	4.14181749999989	0	425303	235
831.7109375	1	health	trialStart	2	76	16	foodImage.96	FOODEEG_Images\0904.jpg	NY	Left	No	1.66439460002584	0	425837	251
832.75	2	health	foodImageDisplay	2	76	16	foodImage.96	FOODEEG_Images\0904.jpg	NY	Left	No	1.66439460002584	0	426369	252
834.8125	1.66439460002584	health	choicePhaseStart	2	76	16	foodImage.96	FOODEEG_Images\0904.jpg	NY	Left	No	1.66439460002584	0	427425	253
836.466796875	0	health	response	2	76	16	foodImage.96	FOODEEG_Images\0904.jpg	NY	Left	No	1.66439460002584	0	428272	234
837.51171875	1	taste	trialStart	2	77	17	foodImage.105	FOODEEG_Images\0913.jpg	NY	Right	Yes	1.93800460000057	0	428807	251
838.548828125	2	taste	foodImageDisplay	2	77	17	foodImage.105	FOODEEG_Images\0913.jpg	NY	Right	Yes	1.93800460000057	0	429338	252
840.6171875	1.93800460000057	taste	choicePhaseStart	2	77	17	foodImage.105	FOODEEG_Images\0913.jpg	NY	Right	Yes	1.93800460000057	0	430397	253
842.546875	0	taste	response	2	77	17	foodImage.105	FOODEEG_Images\0913.jpg	NY	Right	Yes	1.93800460000057	0	431385	235
843.587890625	1	taste	trialStart	2	78	18	foodImage.59	FOODEEG_Images\0607.jpg	YN	Left	Yes	1.32290410000132	0	431918	251
844.634765625	2	taste	foodImageDisplay	2	78	18	foodImage.59	FOODEEG_Images\0607.jpg	YN	Left	Yes	1.32290410000132	0	432454	252
846.697265625	1.32290410000132	taste	choicePhaseStart	2	78	18	foodImage.59	FOODEEG_Images\0607.jpg	YN	Left	Yes	1.32290410000132	0	433510	253
848.009765625	0	taste	response	2	78	18	foodImage.59	FOODEEG_Images\0607.jpg	YN	Left	Yes	1.32290410000132	0	434182	234
849.052734375	1	health	trialStart	2	79	19	foodImage.34	FOODEEG_Images\0339.jpg	NY	Left	No	1.34481900004903	0	434716	251
850.107421875	2	health	foodImageDisplay	2	79	19	foodImage.34	FOODEEG_Images\0339.jpg	NY	Left	No	1.34481900004903	0	435256	252
852.169921875	1.34481900004903	health	choicePhaseStart	2	79	19	foodImage.34	FOODEEG_Images\0339.jpg	NY	Left	No	1.34481900004903	0	436312	253
853.505859375	0	health	response	2	79	19	foodImage.34	FOODEEG_Images\0339.jpg	NY	Left	No	1.34481900004903	0	436996	234
854.548828125	1	health	trialStart	2	80	20	foodImage.81	FOODEEG_Images\0797.jpg	NY	Right	Yes	0.981000000028871	0	437530	251
855.607421875	2	health	foodImageDisplay	2	80	20	foodImage.81	FOODEEG_Images\0797.jpg	NY	Right	Yes	0.981000000028871	0	438072	252
857.669921875	0.981000000028871	health	choicePhaseStart	2	80	20	foodImage.81	FOODEEG_Images\0797.jpg	NY	Right	Yes	0.981000000028871	0	439128	253
858.642578125	0	health	response	2	80	20	foodImage.81	FOODEEG_Images\0797.jpg	NY	Right	Yes	0.981000000028871	0	439626	235
859.685546875	1	taste	trialStart	2	81	21	foodImage.88	FOODEEG_Images\0878.jpg	YN	Right	No	2.20266559999436	0	440160	251
860.7421875	2	taste	foodImageDisplay	2	81	21	foodImage.88	FOODEEG_Images\0878.jpg	YN	Right	No	2.20266559999436	0	440701	252
862.80859375	2.20266559999436	taste	choicePhaseStart	2	81	21	foodImage.88	FOODEEG_Images\0878.jpg	YN	Right	No	2.20266559999436	0	441759	253
865.001953125	0	taste	response	2	81	21	foodImage.88	FOODEEG_Images\0878.jpg	YN	Right	No	2.20266559999436	0	442882	235
866.044921875	1	taste	trialStart	2	82	22	foodImage.110	FOODEEG_Images\0918.jpg	NY	Right	Yes	1.72980189998634	0	443416	251
867.09765625	2	taste	foodImageDisplay	2	82	22	foodImage.110	FOODEEG_Images\0918.jpg	NY	Right	Yes	1.72980189998634	0	443955	252
869.16015625	1.72980189998634	taste	choicePhaseStart	2	82	22	foodImage.110	FOODEEG_Images\0918.jpg	NY	Right	Yes	1.72980189998634	0	445011	253
870.880859375	0	taste	response	2	82	22	foodImage.110	FOODEEG_Images\0918.jpg	NY	Right	Yes	1.72980189998634	0	445892	235
871.923828125	1	decision	trialStart	2	83	23	foodImage.79	FOODEEG_Images\0794.jpg	NY	Right	Yes	1.08948389999568	0	446426	251
872.96875	2	decision	foodImageDisplay	2	83	23	foodImage.79	FOODEEG_Images\0794.jpg	NY	Right	Yes	1.08948389999568	0	446961	252
875.03125	1.08948389999568	decision	choicePhaseStart	2	83	23	foodImage.79	FOODEEG_Images\0794.jpg	NY	Right	Yes	1.08948389999568	0	448017	253
876.11328125	0	decision	response	2	83	23	foodImage.79	FOODEEG_Images\0794.jpg	NY	Right	Yes	1.08948389999568	0	448571	235
877.15625	1	health	trialStart	2	84	24	foodImage.2	FOODEEG_Images\0028.jpg	YN	Right	No	1.46744330000365	0	449105	251
878.201171875	2	health	foodImageDisplay	2	84	24	foodImage.2	FOODEEG_Images\0028.jpg	YN	Right	No	1.46744330000365	0	449640	252
880.263671875	1.46744330000365	health	choicePhaseStart	2	84	24	foodImage.2	FOODEEG_Images\0028.jpg	YN	Right	No	1.46744330000365	0	450696	253
881.72265625	0	health	response	2	84	24	foodImage.2	FOODEEG_Images\0028.jpg	YN	Right	No	1.46744330000365	0	451443	235
882.763671875	1	decision	trialStart	2	85	25	foodImage.66	FOODEEG_Images\0676.jpg	YN	Right	No	1.81032889999915	0	451976	251
883.80859375	2	decision	foodImageDisplay	2	85	25	foodImage.66	FOODEEG_Images\0676.jpg	YN	Right	No	1.81032889999915	0	452511	252
885.87109375	1.81032889999915	decision	choicePhaseStart	2	85	25	foodImage.66	FOODEEG_Images\0676.jpg	YN	Right	No	1.81032889999915	0	453567	253
887.673828125	0	decision	response	2	85	25	foodImage.66	FOODEEG_Images\0676.jpg	YN	Right	No	1.81032889999915	0	454490	235
888.71484375	1	decision	trialStart	2	86	26	foodImage.24	FOODEEG_Images\0250.jpg	NY	Right	Yes	1.18816269998206	0	455023	251
889.7578125	2	decision	foodImageDisplay	2	86	26	foodImage.24	FOODEEG_Images\0250.jpg	NY	Right	Yes	1.18816269998206	0	455557	252
891.8203125	1.18816269998206	decision	choicePhaseStart	2	86	26	foodImage.24	FOODEEG_Images\0250.jpg	NY	Right	Yes	1.18816269998206	0	456613	253
893.001953125	0	decision	response	2	86	26	foodImage.24	FOODEEG_Images\0250.jpg	NY	Right	Yes	1.18816269998206	0	457218	235
894.04296875	1	health	trialStart	2	87	27	foodImage.98	FOODEEG_Images\0906.jpg	YN	Right	No	2.17731569998432	0	457751	251
895.08203125	2	health	foodImageDisplay	2	87	27	foodImage.98	FOODEEG_Images\0906.jpg	YN	Right	No	2.17731569998432	0	458283	252
897.14453125	2.17731569998432	health	choicePhaseStart	2	87	27	foodImage.98	FOODEEG_Images\0906.jpg	YN	Right	No	2.17731569998432	0	459339	253
899.3125	0	health	response	2	87	27	foodImage.98	FOODEEG_Images\0906.jpg	YN	Right	No	2.17731569998432	0	460449	235
900.35546875	1	health	trialStart	2	88	28	foodImage.108	FOODEEG_Images\0916.jpg	YN	Left	Yes	2.58607590000611	0	460983	251
901.392578125	2	health	foodImageDisplay	2	88	28	foodImage.108	FOODEEG_Images\0916.jpg	YN	Left	Yes	2.58607590000611	0	461514	252
903.455078125	2.58607590000611	health	choicePhaseStart	2	88	28	foodImage.108	FOODEEG_Images\0916.jpg	YN	Left	Yes	2.58607590000611	0	462570	253
906.033203125	0	health	response	2	88	28	foodImage.108	FOODEEG_Images\0916.jpg	YN	Left	Yes	2.58607590000611	0	463890	234
907.07421875	1	taste	trialStart	2	89	29	foodImage.96	FOODEEG_Images\0904.jpg	NY	Right	Yes	2.3999147999566	0	464423	251
908.1171875	2	taste	foodImageDisplay	2	89	29	foodImage.96	FOODEEG_Images\0904.jpg	NY	Right	Yes	2.3999147999566	0	464957	252
910.185546875	2.3999147999566	taste	choicePhaseStart	2	89	29	foodImage.96	FOODEEG_Images\0904.jpg	NY	Right	Yes	2.3999147999566	0	466016	253
912.576171875	0	taste	response	2	89	29	foodImage.96	FOODEEG_Images\0904.jpg	NY	Right	Yes	2.3999147999566	0	467240	235
913.619140625	1	taste	trialStart	2	90	30	foodImage.86	FOODEEG_Images\0844.jpg	NY	Right	Yes	1.97929320001276	0	467774	251
914.6796875	2	taste	foodImageDisplay	2	90	30	foodImage.86	FOODEEG_Images\0844.jpg	NY	Right	Yes	1.97929320001276	0	468317	252
916.740234375	1.97929320001276	taste	choicePhaseStart	2	90	30	foodImage.86	FOODEEG_Images\0844.jpg	NY	Right	Yes	1.97929320001276	0	469372	253
918.712890625	0	taste	response	2	90	30	foodImage.86	FOODEEG_Images\0844.jpg	NY	Right	Yes	1.97929320001276	0	470382	235
919.76171875	1	taste	trialStart	2	91	31	foodImage.113	FOODEEG_Images\0921.jpg	YN	Left	Yes	1.69529279996641	0	470919	251
920.798828125	2	taste	foodImageDisplay	2	91	31	foodImage.113	FOODEEG_Images\0921.jpg	YN	Left	Yes	1.69529279996641	0	471450	252
922.865234375	1.69529279996641	taste	choicePhaseStart	2	91	31	foodImage.113	FOODEEG_Images\0921.jpg	YN	Left	Yes	1.69529279996641	0	472508	253
924.552734375	0	taste	response	2	91	31	foodImage.113	FOODEEG_Images\0921.jpg	YN	Left	Yes	1.69529279996641	0	473372	234
925.59375	1	health	trialStart	2	92	32	foodImage.59	FOODEEG_Images\0607.jpg	NY	Left	No	1.88948190002702	0	473905	251
926.640625	2	health	foodImageDisplay	2	92	32	foodImage.59	FOODEEG_Images\0607.jpg	NY	Left	No	1.88948190002702	0	474441	252
928.703125	1.88948190002702	health	choicePhaseStart	2	92	32	foodImage.59	FOODEEG_Images\0607.jpg	NY	Left	No	1.88948190002702	0	475497	253
930.583984375	0	health	response	2	92	32	foodImage.59	FOODEEG_Images\0607.jpg	NY	Left	No	1.88948190002702	0	476460	234
931.626953125	1	decision	trialStart	2	93	33	foodImage.51	FOODEEG_Images\0536.jpg	YN	Left	Yes	1.63529359997483	0	476994	251
932.669921875	2	decision	foodImageDisplay	2	93	33	foodImage.51	FOODEEG_Images\0536.jpg	YN	Left	Yes	1.63529359997483	0	477528	252
934.732421875	1.63529359997483	decision	choicePhaseStart	2	93	33	foodImage.51	FOODEEG_Images\0536.jpg	YN	Left	Yes	1.63529359997483	0	478584	253
936.359375	0	decision	response	2	93	33	foodImage.51	FOODEEG_Images\0536.jpg	YN	Left	Yes	1.63529359997483	0	479417	234
937.40234375	1	taste	trialStart	2	94	34	foodImage.28	FOODEEG_Images\0273.jpg	NY	Right	Yes	1.4531721000094	0	479951	251
938.4453125	2	taste	foodImageDisplay	2	94	34	foodImage.28	FOODEEG_Images\0273.jpg	NY	Right	Yes	1.4531721000094	0	480485	252
940.5078125	1.4531721000094	taste	choicePhaseStart	2	94	34	foodImage.28	FOODEEG_Images\0273.jpg	NY	Right	Yes	1.4531721000094	0	481541	253
941.951171875	0	taste	response	2	94	34	foodImage.28	FOODEEG_Images\0273.jpg	NY	Right	Yes	1.4531721000094	0	482280	235
942.994140625	1	health	trialStart	2	95	35	foodImage.117	FOODEEG_Images\0925.jpg	YN	Right	No	1.93203429999994	0	482814	251
944.03515625	2	health	foodImageDisplay	2	95	35	foodImage.117	FOODEEG_Images\0925.jpg	YN	Right	No	1.93203429999994	0	483347	252
946.09765625	1.93203429999994	health	choicePhaseStart	2	95	35	foodImage.117	FOODEEG_Images\0925.jpg	YN	Right	No	1.93203429999994	0	484403	253
948.0234375	0	health	response	2	95	35	foodImage.117	FOODEEG_Images\0925.jpg	YN	Right	No	1.93203429999994	0	485389	235
949.06640625	1	decision	trialStart	2	96	36	foodImage.78	FOODEEG_Images\0787.jpg	NY	Right	Yes	2.38072010001633	0	485923	251
950.1171875	2	decision	foodImageDisplay	2	96	36	foodImage.78	FOODEEG_Images\0787.jpg	NY	Right	Yes	2.38072010001633	0	486461	252
952.1796875	2.38072010001633	decision	choicePhaseStart	2	96	36	foodImage.78	FOODEEG_Images\0787.jpg	NY	Right	Yes	2.38072010001633	0	487517	253
954.55078125	0	decision	response	2	96	36	foodImage.78	FOODEEG_Images\0787.jpg	NY	Right	Yes	2.38072010001633	0	488731	235
955.59375	1	health	trialStart	2	97	37	foodImage.50	FOODEEG_Images\0529.jpg	NY	Right	Yes	0.948576900002081	0	489265	251
956.650390625	2	health	foodImageDisplay	2	97	37	foodImage.50	FOODEEG_Images\0529.jpg	NY	Right	Yes	0.948576900002081	0	489806	252
958.712890625	0.948576900002081	health	choicePhaseStart	2	97	37	foodImage.50	FOODEEG_Images\0529.jpg	NY	Right	Yes	0.948576900002081	0	490862	253
959.654296875	0	health	response	2	97	37	foodImage.50	FOODEEG_Images\0529.jpg	NY	Right	Yes	0.948576900002081	0	491344	235
960.697265625	1	health	trialStart	2	98	38	foodImage.91	FOODEEG_Images\0896.jpg	YN	Right	No	1.42138820001855	0	491878	251
961.755859375	2	health	foodImageDisplay	2	98	38	foodImage.91	FOODEEG_Images\0896.jpg	YN	Right	No	1.42138820001855	0	492420	252
963.818359375	1.42138820001855	health	choicePhaseStart	2	98	38	foodImage.91	FOODEEG_Images\0896.jpg	YN	Right	No	1.42138820001855	0	493476	253
965.23046875	0	health	response	2	98	38	foodImage.91	FOODEEG_Images\0896.jpg	YN	Right	No	1.42138820001855	0	494199	235
966.2734375	1	taste	trialStart	2	99	39	foodImage.24	FOODEEG_Images\0250.jpg	NY	Right	Yes	1.53071159997489	0	494733	251
967.31640625	2	taste	foodImageDisplay	2	99	39	foodImage.24	FOODEEG_Images\0250.jpg	NY	Right	Yes	1.53071159997489	0	495267	252
969.37890625	1.53071159997489	taste	choicePhaseStart	2	99	39	foodImage.24	FOODEEG_Images\0250.jpg	NY	Right	Yes	1.53071159997489	0	496323	253
970.90234375	0	taste	response	2	99	39	foodImage.24	FOODEEG_Images\0250.jpg	NY	Right	Yes	1.53071159997489	0	497103	235
971.943359375	1	taste	trialStart	2	100	40	foodImage.32	FOODEEG_Images\0319.jpg	NY	Right	Yes	1.01429859997006	0	497636	251
972.986328125	2	taste	foodImageDisplay	2	100	40	foodImage.32	FOODEEG_Images\0319.jpg	NY	Right	Yes	1.01429859997006	0	498170	252
975.048828125	1.01429859997006	taste	choicePhaseStart	2	100	40	foodImage.32	FOODEEG_Images\0319.jpg	NY	Right	Yes	1.01429859997006	0	499226	253
976.052734375	0	taste	response	2	100	40	foodImage.32	FOODEEG_Images\0319.jpg	NY	Right	Yes	1.01429859997006	0	499740	235
977.09765625	1	decision	trialStart	2	101	41	foodImage.18	FOODEEG_Images\0202.jpg	NY	Right	Yes	1.51814160001231	0	500275	251
978.154296875	2	decision	foodImageDisplay	2	101	41	foodImage.18	FOODEEG_Images\0202.jpg	NY	Right	Yes	1.51814160001231	0	500816	252
980.216796875	1.51814160001231	decision	choicePhaseStart	2	101	41	foodImage.18	FOODEEG_Images\0202.jpg	NY	Right	Yes	1.51814160001231	0	501872	253
981.7265625	0	decision	response	2	101	41	foodImage.18	FOODEEG_Images\0202.jpg	NY	Right	Yes	1.51814160001231	0	502645	235
982.767578125	1	decision	trialStart	2	102	42	foodImage.72	FOODEEG_Images\0714.jpg	NY	Right	Yes	1.08769429998938	0	503178	251
983.810546875	2	decision	foodImageDisplay	2	102	42	foodImage.72	FOODEEG_Images\0714.jpg	NY	Right	Yes	1.08769429998938	0	503712	252
985.876953125	1.08769429998938	decision	choicePhaseStart	2	102	42	foodImage.72	FOODEEG_Images\0714.jpg	NY	Right	Yes	1.08769429998938	0	504770	253
986.95703125	0	decision	response	2	102	42	foodImage.72	FOODEEG_Images\0714.jpg	NY	Right	Yes	1.08769429998938	0	505323	235
988	1	health	trialStart	2	103	43	foodImage.5	FOODEEG_Images\0107.jpg	NY	Left	No	1.76246529998025	0	505857	251
989.0546875	2	health	foodImageDisplay	2	103	43	foodImage.5	FOODEEG_Images\0107.jpg	NY	Left	No	1.76246529998025	0	506397	252
991.1171875	1.76246529998025	health	choicePhaseStart	2	103	43	foodImage.5	FOODEEG_Images\0107.jpg	NY	Left	No	1.76246529998025	0	507453	253
992.869140625	0	health	response	2	103	43	foodImage.5	FOODEEG_Images\0107.jpg	NY	Left	No	1.76246529998025	0	508350	234
993.908203125	1	taste	trialStart	2	104	44	foodImage.26	FOODEEG_Images\0262.jpg	NY	Right	Yes	1.07522060000338	0	508882	251
994.94921875	2	taste	foodImageDisplay	2	104	44	foodImage.26	FOODEEG_Images\0262.jpg	NY	Right	Yes	1.07522060000338	0	509415	252
997.009765625	1.07522060000338	taste	choicePhaseStart	2	104	44	foodImage.26	FOODEEG_Images\0262.jpg	NY	Right	Yes	1.07522060000338	0	510470	253
998.076171875	0	taste	response	2	104	44	foodImage.26	FOODEEG_Images\0262.jpg	NY	Right	Yes	1.07522060000338	0	511016	235
999.115234375	1	health	trialStart	2	105	45	foodImage.72	FOODEEG_Images\0714.jpg	YN	Left	Yes	1.88350489997538	0	511548	251
1000.15625	2	health	foodImageDisplay	2	105	45	foodImage.72	FOODEEG_Images\0714.jpg	YN	Left	Yes	1.88350489997538	0	512081	252
1002.216796875	1.88350489997538	health	choicePhaseStart	2	105	45	foodImage.72	FOODEEG_Images\0714.jpg	YN	Left	Yes	1.88350489997538	0	513136	253
1004.091796875	0	health	response	2	105	45	foodImage.72	FOODEEG_Images\0714.jpg	YN	Left	Yes	1.88350489997538	0	514096	234
1005.134765625	1	health	trialStart	2	106	46	foodImage.65	FOODEEG_Images\0658.jpg	YN	Right	No	2.14176880003652	0	514630	251
1006.193359375	2	health	foodImageDisplay	2	106	46	foodImage.65	FOODEEG_Images\0658.jpg	YN	Right	No	2.14176880003652	0	515172	252
1008.255859375	2.14176880003652	health	choicePhaseStart	2	106	46	foodImage.65	FOODEEG_Images\0658.jpg	YN	Right	No	2.14176880003652	0	516228	253
1010.388671875	0	health	response	2	106	46	foodImage.65	FOODEEG_Images\0658.jpg	YN	Right	No	2.14176880003652	0	517320	235
1011.431640625	1	taste	trialStart	2	107	47	foodImage.92	FOODEEG_Images\0900.jpg	NY	Left	No	1.80684119998477	0	517854	251
1012.47265625	2	taste	foodImageDisplay	2	107	47	foodImage.92	FOODEEG_Images\0900.jpg	NY	Left	No	1.80684119998477	0	518387	252
1014.53515625	1.80684119998477	taste	choicePhaseStart	2	107	47	foodImage.92	FOODEEG_Images\0900.jpg	NY	Left	No	1.80684119998477	0	519443	253
1016.33203125	0	taste	response	2	107	47	foodImage.92	FOODEEG_Images\0900.jpg	NY	Left	No	1.80684119998477	0	520363	234
1017.375	1	health	trialStart	2	108	48	foodImage.3	FOODEEG_Images\0046.jpg	NY	Left	No	1.82062339998083	0	520897	251
1018.41796875	2	health	foodImageDisplay	2	108	48	foodImage.3	FOODEEG_Images\0046.jpg	NY	Left	No	1.82062339998083	0	521431	252
1020.48046875	1.82062339998083	health	choicePhaseStart	2	108	48	foodImage.3	FOODEEG_Images\0046.jpg	NY	Left	No	1.82062339998083	0	522487	253
1022.291015625	0	health	response	2	108	48	foodImage.3	FOODEEG_Images\0046.jpg	NY	Left	No	1.82062339998083	0	523414	234
1023.333984375	1	decision	trialStart	2	109	49	foodImage.104	FOODEEG_Images\0912.jpg	YN	Right	No	1.22318440000527	0	523948	251
1024.375	2	decision	foodImageDisplay	2	109	49	foodImage.104	FOODEEG_Images\0912.jpg	YN	Right	No	1.22318440000527	0	524481	252
1026.4375	1.22318440000527	decision	choicePhaseStart	2	109	49	foodImage.104	FOODEEG_Images\0912.jpg	YN	Right	No	1.22318440000527	0	525537	253
1027.65234375	0	decision	response	2	109	49	foodImage.104	FOODEEG_Images\0912.jpg	YN	Right	No	1.22318440000527	0	526159	235
1028.693359375	1	decision	trialStart	2	110	50	foodImage.105	FOODEEG_Images\0913.jpg	NY	Right	Yes	1.79746519995388	0	526692	251
1029.744140625	2	decision	foodImageDisplay	2	110	50	foodImage.105	FOODEEG_Images\0913.jpg	NY	Right	Yes	1.79746519995388	0	527230	252
1031.806640625	1.79746519995388	decision	choicePhaseStart	2	110	50	foodImage.105	FOODEEG_Images\0913.jpg	NY	Right	Yes	1.79746519995388	0	528286	253
1033.595703125	0	decision	response	2	110	50	foodImage.105	FOODEEG_Images\0913.jpg	NY	Right	Yes	1.79746519995388	0	529202	235
1034.638671875	1	taste	trialStart	2	111	51	foodImage.118	FOODEEG_Images\0926.jpg	YN	Left	Yes	2.7444867999875	0	529736	251
1035.677734375	2	taste	foodImageDisplay	2	111	51	foodImage.118	FOODEEG_Images\0926.jpg	YN	Left	Yes	2.7444867999875	0	530268	252
1037.73828125	2.7444867999875	taste	choicePhaseStart	2	111	51	foodImage.118	FOODEEG_Images\0926.jpg	YN	Left	Yes	2.7444867999875	0	531323	253
1040.474609375	0	taste	response	2	111	51	foodImage.118	FOODEEG_Images\0926.jpg	YN	Left	Yes	2.7444867999875	0	532724	234
1041.517578125	1	health	trialStart	2	112	52	foodImage.40	FOODEEG_Images\0373.jpg	NY	Left	No	1.51240199996391	0	533258	251
1042.55859375	2	health	foodImageDisplay	2	112	52	foodImage.40	FOODEEG_Images\0373.jpg	NY	Left	No	1.51240199996391	0	533791	252
1044.619140625	1.51240199996391	health	choicePhaseStart	2	112	52	foodImage.40	FOODEEG_Images\0373.jpg	NY	Left	No	1.51240199996391	0	534846	253
1046.123046875	0	health	response	2	112	52	foodImage.40	FOODEEG_Images\0373.jpg	NY	Left	No	1.51240199996391	0	535616	234
1047.166015625	1	health	trialStart	2	113	53	foodImage.77	FOODEEG_Images\0771.jpg	NY	Right	Yes	1.69004850002239	0	536150	251
1048.2109375	2	health	foodImageDisplay	2	113	53	foodImage.77	FOODEEG_Images\0771.jpg	NY	Right	Yes	1.69004850002239	0	536685	252
1050.2734375	1.69004850002239	health	choicePhaseStart	2	113	53	foodImage.77	FOODEEG_Images\0771.jpg	NY	Right	Yes	1.69004850002239	0	537741	253
1051.955078125	0	health	response	2	113	53	foodImage.77	FOODEEG_Images\0771.jpg	NY	Right	Yes	1.69004850002239	0	538602	235
1052.998046875	1	health	trialStart	2	114	54	foodImage.1	FOODEEG_Images\0004.jpg	YN	Right	No	2.22458280000137	0	539136	251
1054.05859375	2	health	foodImageDisplay	2	114	54	foodImage.1	FOODEEG_Images\0004.jpg	YN	Right	No	2.22458280000137	0	539679	252
1056.123046875	2.22458280000137	health	choicePhaseStart	2	114	54	foodImage.1	FOODEEG_Images\0004.jpg	YN	Right	No	2.22458280000137	0	540736	253
1058.337890625	0	health	response	2	114	54	foodImage.1	FOODEEG_Images\0004.jpg	YN	Right	No	2.22458280000137	0	541870	235
1059.38671875	1	decision	trialStart	2	115	55	foodImage.81	FOODEEG_Images\0797.jpg	NY	Right	Yes	1.32953420002013	0	542407	251
1060.443359375	2	decision	foodImageDisplay	2	115	55	foodImage.81	FOODEEG_Images\0797.jpg	NY	Right	Yes	1.32953420002013	0	542948	252
1062.505859375	1.32953420002013	decision	choicePhaseStart	2	115	55	foodImage.81	FOODEEG_Images\0797.jpg	NY	Right	Yes	1.32953420002013	0	544004	253
1063.826171875	0	decision	response	2	115	55	foodImage.81	FOODEEG_Images\0797.jpg	NY	Right	Yes	1.32953420002013	0	544680	235
1064.869140625	1	health	trialStart	2	116	56	foodImage.7	FOODEEG_Images\0116.jpg	NY	Left	No	2.89155669999309	0	545214	251
1065.912109375	2	health	foodImageDisplay	2	116	56	foodImage.7	FOODEEG_Images\0116.jpg	NY	Left	No	2.89155669999309	0	545748	252
1067.974609375	2.89155669999309	health	choicePhaseStart	2	116	56	foodImage.7	FOODEEG_Images\0116.jpg	NY	Left	No	2.89155669999309	0	546804	253
1070.857421875	0	health	response	2	116	56	foodImage.7	FOODEEG_Images\0116.jpg	NY	Left	No	2.89155669999309	0	548280	234
1071.900390625	1	health	trialStart	2	117	57	foodImage.45	FOODEEG_Images\0478.jpg	NY	Right	Yes	1.46668000001227	0	548814	251
1072.9453125	2	health	foodImageDisplay	2	117	57	foodImage.45	FOODEEG_Images\0478.jpg	NY	Right	Yes	1.46668000001227	0	549349	252
1075.0078125	1.46668000001227	health	choicePhaseStart	2	117	57	foodImage.45	FOODEEG_Images\0478.jpg	NY	Right	Yes	1.46668000001227	0	550405	253
1076.46484375	0	health	response	2	117	57	foodImage.45	FOODEEG_Images\0478.jpg	NY	Right	Yes	1.46668000001227	0	551151	235
1077.5078125	1	decision	trialStart	2	118	58	foodImage.118	FOODEEG_Images\0926.jpg	NY	Right	Yes	1.15421890001744	0	551685	251
1078.546875	2	decision	foodImageDisplay	2	118	58	foodImage.118	FOODEEG_Images\0926.jpg	NY	Right	Yes	1.15421890001744	0	552217	252
1080.609375	1.15421890001744	decision	choicePhaseStart	2	118	58	foodImage.118	FOODEEG_Images\0926.jpg	NY	Right	Yes	1.15421890001744	0	553273	253
1081.75390625	0	decision	response	2	118	58	foodImage.118	FOODEEG_Images\0926.jpg	NY	Right	Yes	1.15421890001744	0	553859	235
1082.796875	1	decision	trialStart	2	119	59	foodImage.10	FOODEEG_Images\0145.jpg	YN	Left	Yes	1.43891869997606	0	554393	251
1083.853515625	2	decision	foodImageDisplay	2	119	59	foodImage.10	FOODEEG_Images\0145.jpg	YN	Left	Yes	1.43891869997606	0	554934	252
1085.916015625	1.43891869997606	decision	choicePhaseStart	2	119	59	foodImage.10	FOODEEG_Images\0145.jpg	YN	Left	Yes	1.43891869997606	0	555990	253
1087.345703125	0	decision	response	2	119	59	foodImage.10	FOODEEG_Images\0145.jpg	YN	Left	Yes	1.43891869997606	0	556722	234
1088.388671875	1	taste	trialStart	2	120	60	foodImage.29	FOODEEG_Images\0278.jpg	NY	Right	Yes	1.21388840000145	0	557256	251
1089.4296875	2	taste	foodImageDisplay	2	120	60	foodImage.29	FOODEEG_Images\0278.jpg	NY	Right	Yes	1.21388840000145	0	557789	252
1091.4921875	1.21388840000145	taste	choicePhaseStart	2	120	60	foodImage.29	FOODEEG_Images\0278.jpg	NY	Right	Yes	1.21388840000145	0	558845	253
1092.697265625	0	taste	response	2	120	60	foodImage.29	FOODEEG_Images\0278.jpg	NY	Right	Yes	1.21388840000145	0	559462	235
1094.73828125	20.546875	n/a	blockEnd	n/a	n/a	n/a	n/a	n/a	n/a	n/a	n/a	n/a	n/a	560507	254
1115.28515625	2	n/a	blockStart	3	n/a	n/a	n/a	n/a	n/a	n/a	n/a	n/a	n/a	571027	250
1117.31640625	1	decision	trialStart	3	121	1	foodImage.17	FOODEEG_Images\0199.jpg	NY	Right	Yes	1.00971940002637	0	572067	251
1118.359375	2	decision	foodImageDisplay	3	121	1	foodImage.17	FOODEEG_Images\0199.jpg	NY	Right	Yes	1.00971940002637	0	572601	252
1120.423828125	1.00971940002637	decision	choicePhaseStart	3	121	1	foodImage.17	FOODEEG_Images\0199.jpg	NY	Right	Yes	1.00971940002637	0	573658	253
1121.423828125	0	decision	response	3	121	1	foodImage.17	FOODEEG_Images\0199.jpg	NY	Right	Yes	1.00971940002637	0	574170	235
1122.466796875	1	taste	trialStart	3	122	2	foodImage.1	FOODEEG_Images\0004.jpg	YN	Left	Yes	1.72621360002086	0	574704	251
1123.509765625	2	taste	foodImageDisplay	3	122	2	foodImage.1	FOODEEG_Images\0004.jpg	YN	Left	Yes	1.72621360002086	0	575238	252
1125.572265625	1.72621360002086	taste	choicePhaseStart	3	122	2	foodImage.1	FOODEEG_Images\0004.jpg	YN	Left	Yes	1.72621360002086	0	576294	253
1127.287109375	0	taste	response	3	122	2	foodImage.1	FOODEEG_Images\0004.jpg	YN	Left	Yes	1.72621360002086	0	577172	234
1128.33203125	1	decision	trialStart	3	123	3	foodImage.84	FOODEEG_Images\0830.jpg	YN	Left	Yes	1.6677579000243	0	577707	251
1129.412109375	2	decision	foodImageDisplay	3	123	3	foodImage.84	FOODEEG_Images\0830.jpg	YN	Left	Yes	1.6677579000243	0	578260	252
1131.4765625	1.6677579000243	decision	choicePhaseStart	3	123	3	foodImage.84	FOODEEG_Images\0830.jpg	YN	Left	Yes	1.6677579000243	0	579317	253
1133.13671875	0	decision	response	3	123	3	foodImage.84	FOODEEG_Images\0830.jpg	YN	Left	Yes	1.6677579000243	0	580167	234
1134.1796875	1	decision	trialStart	3	124	4	foodImage.117	FOODEEG_Images\0925.jpg	NY	Left	No	3.78479049995076	0	580701	251
1135.216796875	2	decision	foodImageDisplay	3	124	4	foodImage.117	FOODEEG_Images\0925.jpg	NY	Left	No	3.78479049995076	0	581232	252
1137.279296875	3.78479049995076	decision	choicePhaseStart	3	124	4	foodImage.117	FOODEEG_Images\0925.jpg	NY	Left	No	3.78479049995076	0	582288	253
1141.0546875	0	decision	response	3	124	4	foodImage.117	FOODEEG_Images\0925.jpg	NY	Left	No	3.78479049995076	0	584221	234
1142.103515625	1	decision	trialStart	3	125	5	foodImage.91	FOODEEG_Images\0896.jpg	NY	Left	No	0.995176899945363	0	584758	251
1143.18359375	2	decision	foodImageDisplay	3	125	5	foodImage.91	FOODEEG_Images\0896.jpg	NY	Left	No	0.995176899945363	0	585311	252
1145.24609375	0.995176899945363	decision	choicePhaseStart	3	125	5	foodImage.91	FOODEEG_Images\0896.jpg	NY	Left	No	0.995176899945363	0	586367	253
1146.23046875	0	decision	response	3	125	5	foodImage.91	FOODEEG_Images\0896.jpg	NY	Left	No	0.995176899945363	0	586871	234
1147.2734375	1	decision	trialStart	3	126	6	foodImage.20	FOODEEG_Images\0226.jpg	YN	Left	Yes	1.44730080000591	0	587405	251
1148.314453125	2	decision	foodImageDisplay	3	126	6	foodImage.20	FOODEEG_Images\0226.jpg	YN	Left	Yes	1.44730080000591	0	587938	252
1150.376953125	1.44730080000591	decision	choicePhaseStart	3	126	6	foodImage.20	FOODEEG_Images\0226.jpg	YN	Left	Yes	1.44730080000591	0	588994	253
1151.814453125	0	decision	response	3	126	6	foodImage.20	FOODEEG_Images\0226.jpg	YN	Left	Yes	1.44730080000591	0	589730	234
1152.857421875	1	taste	trialStart	3	127	7	foodImage.22	FOODEEG_Images\0236.jpg	YN	Left	Yes	1.96588609996252	0	590264	251
1153.8984375	2	taste	foodImageDisplay	3	127	7	foodImage.22	FOODEEG_Images\0236.jpg	YN	Left	Yes	1.96588609996252	0	590797	252
1155.9609375	1.96588609996252	taste	choicePhaseStart	3	127	7	foodImage.22	FOODEEG_Images\0236.jpg	YN	Left	Yes	1.96588609996252	0	591853	253
1157.91796875	0	taste	response	3	127	7	foodImage.22	FOODEEG_Images\0236.jpg	YN	Left	Yes	1.96588609996252	0	592855	234
1158.9609375	1	health	trialStart	3	128	8	foodImage.63	FOODEEG_Images\0645.jpg	YN	Right	No	3.02110370004084	0	593389	251
1160.00390625	2	health	foodImageDisplay	3	128	8	foodImage.63	FOODEEG_Images\0645.jpg	YN	Right	No	3.02110370004084	0	593923	252
1162.06640625	3.02110370004084	health	choicePhaseStart	3	128	8	foodImage.63	FOODEEG_Images\0645.jpg	YN	Right	No	3.02110370004084	0	594979	253
1165.078125	0	health	response	3	128	8	foodImage.63	FOODEEG_Images\0645.jpg	YN	Right	No	3.02110370004084	0	596521	235
1166.12109375	1	health	trialStart	3	129	9	foodImage.12	FOODEEG_Images\0181.jpg	YN	Left	Yes	1.41433110000798	0	597055	251
1167.162109375	2	health	foodImageDisplay	3	129	9	foodImage.12	FOODEEG_Images\0181.jpg	YN	Left	Yes	1.41433110000798	0	597588	252
1169.224609375	1.41433110000798	health	choicePhaseStart	3	129	9	foodImage.12	FOODEEG_Images\0181.jpg	YN	Left	Yes	1.41433110000798	0	598644	253
1170.630859375	0	health	response	3	129	9	foodImage.12	FOODEEG_Images\0181.jpg	YN	Left	Yes	1.41433110000798	0	599364	234
1171.673828125	1	health	trialStart	3	130	10	foodImage.8	FOODEEG_Images\0136.jpg	YN	Right	No	1.57961420004722	0	599898	251
1172.716796875	2	health	foodImageDisplay	3	130	10	foodImage.8	FOODEEG_Images\0136.jpg	YN	Right	No	1.57961420004722	0	600432	252
1174.779296875	1.57961420004722	health	choicePhaseStart	3	130	10	foodImage.8	FOODEEG_Images\0136.jpg	YN	Right	No	1.57961420004722	0	601488	253
1176.349609375	0	health	response	3	130	10	foodImage.8	FOODEEG_Images\0136.jpg	YN	Right	No	1.57961420004722	0	602292	235
1177.39453125	1	taste	trialStart	3	131	11	foodImage.49	FOODEEG_Images\0515.jpg	NY	Right	Yes	1.66366069996729	0	602827	251
1178.4375	2	taste	foodImageDisplay	3	131	11	foodImage.49	FOODEEG_Images\0515.jpg	NY	Right	Yes	1.66366069996729	0	603361	252
1180.50390625	1.66366069996729	taste	choicePhaseStart	3	131	11	foodImage.49	FOODEEG_Images\0515.jpg	NY	Right	Yes	1.66366069996729	0	604419	253
1182.158203125	0	taste	response	3	131	11	foodImage.49	FOODEEG_Images\0515.jpg	NY	Right	Yes	1.66366069996729	0	605266	235
1183.201171875	1	taste	trialStart	3	132	12	foodImage.98	FOODEEG_Images\0906.jpg	NY	Right	Yes	2.70679819997167	0	605800	251
1184.23828125	2	taste	foodImageDisplay	3	132	12	foodImage.98	FOODEEG_Images\0906.jpg	NY	Right	Yes	2.70679819997167	0	606331	252
1186.30078125	2.70679819997167	taste	choicePhaseStart	3	132	12	foodImage.98	FOODEEG_Images\0906.jpg	NY	Right	Yes	2.70679819997167	0	607387	253
1188.998046875	0	taste	response	3	132	12	foodImage.98	FOODEEG_Images\0906.jpg	NY	Right	Yes	2.70679819997167	0	608768	235
1190.041015625	1	decision	trialStart	3	133	13	foodImage.120	FOODEEG_Images\0928.jpg	NY	Right	Yes	1.75416830001632	0	609302	251
1191.078125	2	decision	foodImageDisplay	3	133	13	foodImage.120	FOODEEG_Images\0928.jpg	NY	Right	Yes	1.75416830001632	0	609833	252
1193.140625	1.75416830001632	decision	choicePhaseStart	3	133	13	foodImage.120	FOODEEG_Images\0928.jpg	NY	Right	Yes	1.75416830001632	0	610889	253
1194.884765625	0	decision	response	3	133	13	foodImage.120	FOODEEG_Images\0928.jpg	NY	Right	Yes	1.75416830001632	0	611782	235
1195.927734375	1	health	trialStart	3	134	14	foodImage.38	FOODEEG_Images\0365.jpg	YN	Left	Yes	1.86386040004436	0	612316	251
1196.966796875	2	health	foodImageDisplay	3	134	14	foodImage.38	FOODEEG_Images\0365.jpg	YN	Left	Yes	1.86386040004436	0	612848	252
1199.029296875	1.86386040004436	health	choicePhaseStart	3	134	14	foodImage.38	FOODEEG_Images\0365.jpg	YN	Left	Yes	1.86386040004436	0	613904	253
1200.884765625	0	health	response	3	134	14	foodImage.38	FOODEEG_Images\0365.jpg	YN	Left	Yes	1.86386040004436	0	614854	234
1201.927734375	1	health	trialStart	3	135	15	foodImage.92	FOODEEG_Images\0900.jpg	YN	Right	No	1.49060319998534	0	615388	251
1202.96484375	2	health	foodImageDisplay	3	135	15	foodImage.92	FOODEEG_Images\0900.jpg	YN	Right	No	1.49060319998534	0	615919	252
1205.02734375	1.49060319998534	health	choicePhaseStart	3	135	15	foodImage.92	FOODEEG_Images\0900.jpg	YN	Right	No	1.49060319998534	0	616975	253
1206.509765625	0	health	response	3	135	15	foodImage.92	FOODEEG_Images\0900.jpg	YN	Right	No	1.49060319998534	0	617734	235
1207.556640625	1	health	trialStart	3	136	16	foodImage.120	FOODEEG_Images\0928.jpg	NY	Left	No	3.25095919996966	0	618270	251
1208.595703125	2	health	foodImageDisplay	3	136	16	foodImage.120	FOODEEG_Images\0928.jpg	NY	Left	No	3.25095919996966	0	618802	252
1210.658203125	3.25095919996966	health	choicePhaseStart	3	136	16	foodImage.120	FOODEEG_Images\0928.jpg	NY	Left	No	3.25095919996966	0	619858	253
1213.900390625	0	health	response	3	136	16	foodImage.120	FOODEEG_Images\0928.jpg	NY	Left	No	3.25095919996966	0	621518	234
1214.943359375	1	taste	trialStart	3	137	17	foodImage.100	FOODEEG_Images\0908.jpg	YN	Left	Yes	1.25668520003092	0	622052	251
1215.982421875	2	taste	foodImageDisplay	3	137	17	foodImage.100	FOODEEG_Images\0908.jpg	YN	Left	Yes	1.25668520003092	0	622584	252
1218.044921875	1.25668520003092	taste	choicePhaseStart	3	137	17	foodImage.100	FOODEEG_Images\0908.jpg	YN	Left	Yes	1.25668520003092	0	623640	253
1219.29296875	0	taste	response	3	137	17	foodImage.100	FOODEEG_Images\0908.jpg	YN	Left	Yes	1.25668520003092	0	624279	234
1220.3359375	1	decision	trialStart	3	138	18	foodImage.114	FOODEEG_Images\0922.jpg	NY	Right	Yes	2.34608390001813	0	624813	251
1221.373046875	2	decision	foodImageDisplay	3	138	18	foodImage.114	FOODEEG_Images\0922.jpg	NY	Right	Yes	2.34608390001813	0	625344	252
1223.435546875	2.34608390001813	decision	choicePhaseStart	3	138	18	foodImage.114	FOODEEG_Images\0922.jpg	NY	Right	Yes	2.34608390001813	0	626400	253
1225.771484375	0	decision	response	3	138	18	foodImage.114	FOODEEG_Images\0922.jpg	NY	Right	Yes	2.34608390001813	0	627596	235
1226.814453125	1	taste	trialStart	3	139	19	foodImage.80	FOODEEG_Images\0796.jpg	NY	Right	Yes	1.47607279999647	0	628130	251
1227.873046875	2	taste	foodImageDisplay	3	139	19	foodImage.80	FOODEEG_Images\0796.jpg	NY	Right	Yes	1.47607279999647	0	628672	252
1229.935546875	1.47607279999647	taste	choicePhaseStart	3	139	19	foodImage.80	FOODEEG_Images\0796.jpg	NY	Right	Yes	1.47607279999647	0	629728	253
1231.404296875	0	taste	response	3	139	19	foodImage.80	FOODEEG_Images\0796.jpg	NY	Right	Yes	1.47607279999647	0	630480	235
1232.4453125	1	health	trialStart	3	140	20	foodImage.26	FOODEEG_Images\0262.jpg	NY	Right	Yes	2.0403004999971	0	631013	251
1233.486328125	2	health	foodImageDisplay	3	140	20	foodImage.26	FOODEEG_Images\0262.jpg	NY	Right	Yes	2.0403004999971	0	631546	252
1235.546875	2.0403004999971	health	choicePhaseStart	3	140	20	foodImage.26	FOODEEG_Images\0262.jpg	NY	Right	Yes	2.0403004999971	0	632601	253
1237.580078125	0	health	response	3	140	20	foodImage.26	FOODEEG_Images\0262.jpg	NY	Right	Yes	2.0403004999971	0	633642	235
1238.625	1	taste	trialStart	3	141	21	foodImage.85	FOODEEG_Images\0841.jpg	YN	Left	Yes	1.30554580001626	0	634177	251
1239.68359375	2	taste	foodImageDisplay	3	141	21	foodImage.85	FOODEEG_Images\0841.jpg	YN	Left	Yes	1.30554580001626	0	634719	252
1241.74609375	1.30554580001626	taste	choicePhaseStart	3	141	21	foodImage.85	FOODEEG_Images\0841.jpg	YN	Left	Yes	1.30554580001626	0	635775	253
1243.04296875	0	taste	response	3	141	21	foodImage.85	FOODEEG_Images\0841.jpg	YN	Left	Yes	1.30554580001626	0	636439	234
1244.087890625	1	health	trialStart	3	142	22	foodImage.79	FOODEEG_Images\0794.jpg	NY	Right	Yes	2.11510300001828	0	636974	251
1245.130859375	2	health	foodImageDisplay	3	142	22	foodImage.79	FOODEEG_Images\0794.jpg	NY	Right	Yes	2.11510300001828	0	637508	252
1247.193359375	2.11510300001828	health	choicePhaseStart	3	142	22	foodImage.79	FOODEEG_Images\0794.jpg	NY	Right	Yes	2.11510300001828	0	638564	253
1249.298828125	0	health	response	3	142	22	foodImage.79	FOODEEG_Images\0794.jpg	NY	Right	Yes	2.11510300001828	0	639642	235
1250.34375	1	health	trialStart	3	143	23	foodImage.107	FOODEEG_Images\0915.jpg	NY	Left	No	2.1119276000536	0	640177	251
1251.380859375	2	health	foodImageDisplay	3	143	23	foodImage.107	FOODEEG_Images\0915.jpg	NY	Left	No	2.1119276000536	0	640708	252
1253.443359375	2.1119276000536	health	choicePhaseStart	3	143	23	foodImage.107	FOODEEG_Images\0915.jpg	NY	Left	No	2.1119276000536	0	641764	253
1255.546875	0	health	response	3	143	23	foodImage.107	FOODEEG_Images\0915.jpg	NY	Left	No	2.1119276000536	0	642841	234
1256.58984375	1	decision	trialStart	3	144	24	foodImage.54	FOODEEG_Images\0560.jpg	YN	Left	Yes	1.97208129998762	0	643375	251
1257.6484375	2	decision	foodImageDisplay	3	144	24	foodImage.54	FOODEEG_Images\0560.jpg	YN	Left	Yes	1.97208129998762	0	643917	252
1259.7109375	1.97208129998762	decision	choicePhaseStart	3	144	24	foodImage.54	FOODEEG_Images\0560.jpg	YN	Left	Yes	1.97208129998762	0	644973	253
1261.673828125	0	decision	response	3	144	24	foodImage.54	FOODEEG_Images\0560.jpg	YN	Left	Yes	1.97208129998762	0	645978	234
1262.71484375	1	health	trialStart	3	145	25	foodImage.32	FOODEEG_Images\0319.jpg	YN	Right	No	1.52535489998991	0	646511	251
1263.759765625	2	health	foodImageDisplay	3	145	25	foodImage.32	FOODEEG_Images\0319.jpg	YN	Right	No	1.52535489998991	0	647046	252
1265.822265625	1.52535489998991	health	choicePhaseStart	3	145	25	foodImage.32	FOODEEG_Images\0319.jpg	YN	Right	No	1.52535489998991	0	648102	253
1267.337890625	0	health	response	3	145	25	foodImage.32	FOODEEG_Images\0319.jpg	YN	Right	No	1.52535489998991	0	648878	235
1268.380859375	1	decision	trialStart	3	146	26	foodImage.33	FOODEEG_Images\0329.jpg	YN	Left	Yes	1.64365709997946	0	649412	251
1269.423828125	2	decision	foodImageDisplay	3	146	26	foodImage.33	FOODEEG_Images\0329.jpg	YN	Left	Yes	1.64365709997946	0	649946	252
1271.486328125	1.64365709997946	decision	choicePhaseStart	3	146	26	foodImage.33	FOODEEG_Images\0329.jpg	YN	Left	Yes	1.64365709997946	0	651002	253
1273.123046875	0	decision	response	3	146	26	foodImage.33	FOODEEG_Images\0329.jpg	YN	Left	Yes	1.64365709997946	0	651840	234
1274.173828125	1	health	trialStart	3	147	27	foodImage.66	FOODEEG_Images\0676.jpg	YN	Right	No	1.35660570004256	0	652378	251
1275.21484375	2	health	foodImageDisplay	3	147	27	foodImage.66	FOODEEG_Images\0676.jpg	YN	Right	No	1.35660570004256	0	652911	252
1277.27734375	1.35660570004256	health	choicePhaseStart	3	147	27	foodImage.66	FOODEEG_Images\0676.jpg	YN	Right	No	1.35660570004256	0	653967	253
1278.625	0	health	response	3	147	27	foodImage.66	FOODEEG_Images\0676.jpg	YN	Right	No	1.35660570004256	0	654657	235
1279.66796875	1	decision	trialStart	3	148	28	foodImage.92	FOODEEG_Images\0900.jpg	NY	Left	No	1.30536870000651	0	655191	251
1280.70703125	2	decision	foodImageDisplay	3	148	28	foodImage.92	FOODEEG_Images\0900.jpg	NY	Left	No	1.30536870000651	0	655723	252
1282.76953125	1.30536870000651	decision	choicePhaseStart	3	148	28	foodImage.92	FOODEEG_Images\0900.jpg	NY	Left	No	1.30536870000651	0	656779	253
1284.06640625	0	decision	response	3	148	28	foodImage.92	FOODEEG_Images\0900.jpg	NY	Left	No	1.30536870000651	0	657443	234
1285.109375	1	taste	trialStart	3	149	29	foodImage.89	FOODEEG_Images\0881.jpg	YN	Left	Yes	1.72482449997915	0	657977	251
1286.166015625	2	taste	foodImageDisplay	3	149	29	foodImage.89	FOODEEG_Images\0881.jpg	YN	Left	Yes	1.72482449997915	0	658518	252
1288.228515625	1.72482449997915	taste	choicePhaseStart	3	149	29	foodImage.89	FOODEEG_Images\0881.jpg	YN	Left	Yes	1.72482449997915	0	659574	253
1289.9453125	0	taste	response	3	149	29	foodImage.89	FOODEEG_Images\0881.jpg	YN	Left	Yes	1.72482449997915	0	660453	234
1290.994140625	1	decision	trialStart	3	150	30	foodImage.12	FOODEEG_Images\0181.jpg	NY	Right	Yes	1.26503909996245	0	660990	251
1292.03515625	2	decision	foodImageDisplay	3	150	30	foodImage.12	FOODEEG_Images\0181.jpg	NY	Right	Yes	1.26503909996245	0	661523	252
1294.09765625	1.26503909996245	decision	choicePhaseStart	3	150	30	foodImage.12	FOODEEG_Images\0181.jpg	NY	Right	Yes	1.26503909996245	0	662579	253
1295.353515625	0	decision	response	3	150	30	foodImage.12	FOODEEG_Images\0181.jpg	NY	Right	Yes	1.26503909996245	0	663222	235
1296.396484375	1	health	trialStart	3	151	31	foodImage.36	FOODEEG_Images\0352.jpg	NY	Right	Yes	2.26702339999611	0	663756	251
1297.453125	2	health	foodImageDisplay	3	151	31	foodImage.36	FOODEEG_Images\0352.jpg	NY	Right	Yes	2.26702339999611	0	664297	252
1299.515625	2.26702339999611	health	choicePhaseStart	3	151	31	foodImage.36	FOODEEG_Images\0352.jpg	NY	Right	Yes	2.26702339999611	0	665353	253
1301.77734375	0	health	response	3	151	31	foodImage.36	FOODEEG_Images\0352.jpg	NY	Right	Yes	2.26702339999611	0	666511	235
1302.818359375	1	taste	trialStart	3	152	32	foodImage.61	FOODEEG_Images\0640.jpg	YN	Left	Yes	1.34711790003348	0	667044	251
1303.859375	2	taste	foodImageDisplay	3	152	32	foodImage.61	FOODEEG_Images\0640.jpg	YN	Left	Yes	1.34711790003348	0	667577	252
1305.927734375	1.34711790003348	taste	choicePhaseStart	3	152	32	foodImage.61	FOODEEG_Images\0640.jpg	YN	Left	Yes	1.34711790003348	0	668636	253
1307.263671875	0	taste	response	3	152	32	foodImage.61	FOODEEG_Images\0640.jpg	YN	Left	Yes	1.34711790003348	0	669320	234
1308.30859375	1	health	trialStart	3	153	33	foodImage.67	FOODEEG_Images\0679.jpg	NY	Left	No	1.77122190000955	0	669855	251
1309.3671875	2	health	foodImageDisplay	3	153	33	foodImage.67	FOODEEG_Images\0679.jpg	NY	Left	No	1.77122190000955	0	670397	252
1311.4296875	1.77122190000955	health	choicePhaseStart	3	153	33	foodImage.67	FOODEEG_Images\0679.jpg	NY	Left	No	1.77122190000955	0	671453	253
1313.193359375	0	health	response	3	153	33	foodImage.67	FOODEEG_Images\0679.jpg	NY	Left	No	1.77122190000955	0	672356	234
1314.236328125	1	decision	trialStart	3	154	34	foodImage.50	FOODEEG_Images\0529.jpg	YN	Left	Yes	1.83981940004742	0	672890	251
1315.294921875	2	decision	foodImageDisplay	3	154	34	foodImage.50	FOODEEG_Images\0529.jpg	YN	Left	Yes	1.83981940004742	0	673432	252
1317.361328125	1.83981940004742	decision	choicePhaseStart	3	154	34	foodImage.50	FOODEEG_Images\0529.jpg	YN	Left	Yes	1.83981940004742	0	674490	253
1319.19140625	0	decision	response	3	154	34	foodImage.50	FOODEEG_Images\0529.jpg	YN	Left	Yes	1.83981940004742	0	675427	234
1320.234375	1	taste	trialStart	3	155	35	foodImage.25	FOODEEG_Images\0261.jpg	NY	Right	Yes	1.4711202000035	0	675961	251
1321.275390625	2	taste	foodImageDisplay	3	155	35	foodImage.25	FOODEEG_Images\0261.jpg	NY	Right	Yes	1.4711202000035	0	676494	252
1323.337890625	1.4711202000035	taste	choicePhaseStart	3	155	35	foodImage.25	FOODEEG_Images\0261.jpg	NY	Right	Yes	1.4711202000035	0	677550	253
1324.80078125	0	taste	response	3	155	35	foodImage.25	FOODEEG_Images\0261.jpg	NY	Right	Yes	1.4711202000035	0	678299	235
1325.84375	1	health	trialStart	3	156	36	foodImage.37	FOODEEG_Images\0359.jpg	NY	Right	Yes	1.17374509997899	0	678833	251
1326.884765625	2	health	foodImageDisplay	3	156	36	foodImage.37	FOODEEG_Images\0359.jpg	NY	Right	Yes	1.17374509997899	0	679366	252
1328.947265625	1.17374509997899	health	choicePhaseStart	3	156	36	foodImage.37	FOODEEG_Images\0359.jpg	NY	Right	Yes	1.17374509997899	0	680422	253
1330.111328125	0	health	response	3	156	36	foodImage.37	FOODEEG_Images\0359.jpg	NY	Right	Yes	1.17374509997899	0	681018	235
1331.16015625	1	decision	trialStart	3	157	37	foodImage.109	FOODEEG_Images\0917.jpg	NY	Left	No	1.46105189999798	0	681555	251
1332.197265625	2	decision	foodImageDisplay	3	157	37	foodImage.109	FOODEEG_Images\0917.jpg	NY	Left	No	1.46105189999798	0	682086	252
1334.259765625	1.46105189999798	decision	choicePhaseStart	3	157	37	foodImage.109	FOODEEG_Images\0917.jpg	NY	Left	No	1.46105189999798	0	683142	253
1335.7109375	0	decision	response	3	157	37	foodImage.109	FOODEEG_Images\0917.jpg	NY	Left	No	1.46105189999798	0	683885	234
1336.75390625	1	health	trialStart	3	158	38	foodImage.73	FOODEEG_Images\0717.jpg	NY	Right	Yes	2.75209969998104	0	684419	251
1337.826171875	2	health	foodImageDisplay	3	158	38	foodImage.73	FOODEEG_Images\0717.jpg	NY	Right	Yes	2.75209969998104	0	684968	252
1339.888671875	2.75209969998104	health	choicePhaseStart	3	158	38	foodImage.73	FOODEEG_Images\0717.jpg	NY	Right	Yes	2.75209969998104	0	686024	253
1342.630859375	0	health	response	3	158	38	foodImage.73	FOODEEG_Images\0717.jpg	NY	Right	Yes	2.75209969998104	0	687428	235
1343.67578125	1	taste	trialStart	3	159	39	foodImage.5	FOODEEG_Images\0107.jpg	NY	Left	No	3.05957119999221	0	687963	251
1344.732421875	2	taste	foodImageDisplay	3	159	39	foodImage.5	FOODEEG_Images\0107.jpg	NY	Left	No	3.05957119999221	0	688504	252
1346.794921875	3.05957119999221	taste	choicePhaseStart	3	159	39	foodImage.5	FOODEEG_Images\0107.jpg	NY	Left	No	3.05957119999221	0	689560	253
1349.84765625	0	taste	response	3	159	39	foodImage.5	FOODEEG_Images\0107.jpg	NY	Left	No	3.05957119999221	0	691123	234
1350.890625	1	health	trialStart	3	160	40	foodImage.39	FOODEEG_Images\0367.jpg	YN	Right	No	1.22014300001319	0	691657	251
1351.9296875	2	health	foodImageDisplay	3	160	40	foodImage.39	FOODEEG_Images\0367.jpg	YN	Right	No	1.22014300001319	0	692189	252
1353.99609375	1.22014300001319	health	choicePhaseStart	3	160	40	foodImage.39	FOODEEG_Images\0367.jpg	YN	Right	No	1.22014300001319	0	693247	253
1355.20703125	0	health	response	3	160	40	foodImage.39	FOODEEG_Images\0367.jpg	YN	Right	No	1.22014300001319	0	693867	235
1356.25	1	taste	trialStart	3	161	41	foodImage.64	FOODEEG_Images\0647.jpg	NY	Right	Yes	1.55730369995581	0	694401	251
1357.30859375	2	taste	foodImageDisplay	3	161	41	foodImage.64	FOODEEG_Images\0647.jpg	NY	Right	Yes	1.55730369995581	0	694943	252
1359.37109375	1.55730369995581	taste	choicePhaseStart	3	161	41	foodImage.64	FOODEEG_Images\0647.jpg	NY	Right	Yes	1.55730369995581	0	695999	253
1360.91796875	0	taste	response	3	161	41	foodImage.64	FOODEEG_Images\0647.jpg	NY	Right	Yes	1.55730369995581	0	696791	235
1361.966796875	1	health	trialStart	3	162	42	foodImage.35	FOODEEG_Images\0350.jpg	YN	Right	No	2.13913750002393	0	697328	251
1363.005859375	2	health	foodImageDisplay	3	162	42	foodImage.35	FOODEEG_Images\0350.jpg	YN	Right	No	2.13913750002393	0	697860	252
1365.068359375	2.13913750002393	health	choicePhaseStart	3	162	42	foodImage.35	FOODEEG_Images\0350.jpg	YN	Right	No	2.13913750002393	0	698916	253
1367.19921875	0	health	response	3	162	42	foodImage.35	FOODEEG_Images\0350.jpg	YN	Right	No	2.13913750002393	0	700007	235
1368.2421875	1	decision	trialStart	3	163	43	foodImage.48	FOODEEG_Images\0494.jpg	YN	Right	No	2.16599320003297	0	700541	251
1369.283203125	2	decision	foodImageDisplay	3	163	43	foodImage.48	FOODEEG_Images\0494.jpg	YN	Right	No	2.16599320003297	0	701074	252
1371.345703125	2.16599320003297	decision	choicePhaseStart	3	163	43	foodImage.48	FOODEEG_Images\0494.jpg	YN	Right	No	2.16599320003297	0	702130	253
1373.501953125	0	decision	response	3	163	43	foodImage.48	FOODEEG_Images\0494.jpg	YN	Right	No	2.16599320003297	0	703234	235
1374.544921875	1	decision	trialStart	3	164	44	foodImage.102	FOODEEG_Images\0910.jpg	NY	Right	Yes	1.56895430001896	0	703768	251
1375.583984375	2	decision	foodImageDisplay	3	164	44	foodImage.102	FOODEEG_Images\0910.jpg	NY	Right	Yes	1.56895430001896	0	704300	252
1377.646484375	1.56895430001896	decision	choicePhaseStart	3	164	44	foodImage.102	FOODEEG_Images\0910.jpg	NY	Right	Yes	1.56895430001896	0	705356	253
1379.205078125	0	decision	response	3	164	44	foodImage.102	FOODEEG_Images\0910.jpg	NY	Right	Yes	1.56895430001896	0	706154	235
1380.25	1	decision	trialStart	3	165	45	foodImage.68	FOODEEG_Images\0685.jpg	NY	Right	Yes	1.15909979998833	0	706689	251
1381.330078125	2	decision	foodImageDisplay	3	165	45	foodImage.68	FOODEEG_Images\0685.jpg	NY	Right	Yes	1.15909979998833	0	707242	252
1383.392578125	1.15909979998833	decision	choicePhaseStart	3	165	45	foodImage.68	FOODEEG_Images\0685.jpg	NY	Right	Yes	1.15909979998833	0	708298	253
1384.541015625	0	decision	response	3	165	45	foodImage.68	FOODEEG_Images\0685.jpg	NY	Right	Yes	1.15909979998833	0	708886	235
1385.583984375	1	health	trialStart	3	166	46	foodImage.41	FOODEEG_Images\0409.jpg	NY	Right	Yes	1.39165579999099	0	709420	251
1386.630859375	2	health	foodImageDisplay	3	166	46	foodImage.41	FOODEEG_Images\0409.jpg	NY	Right	Yes	1.39165579999099	0	709956	252
1388.693359375	1.39165579999099	health	choicePhaseStart	3	166	46	foodImage.41	FOODEEG_Images\0409.jpg	NY	Right	Yes	1.39165579999099	0	711012	253
1390.078125	0	health	response	3	166	46	foodImage.41	FOODEEG_Images\0409.jpg	NY	Right	Yes	1.39165579999099	0	711721	235
1391.119140625	1	taste	trialStart	3	167	47	foodImage.27	FOODEEG_Images\0263.jpg	YN	Left	Yes	1.252561900008	0	712254	251
1392.1796875	2	taste	foodImageDisplay	3	167	47	foodImage.27	FOODEEG_Images\0263.jpg	YN	Left	Yes	1.252561900008	0	712797	252
1394.2421875	1.252561900008	taste	choicePhaseStart	3	167	47	foodImage.27	FOODEEG_Images\0263.jpg	YN	Left	Yes	1.252561900008	0	713853	253
1395.484375	0	taste	response	3	167	47	foodImage.27	FOODEEG_Images\0263.jpg	YN	Left	Yes	1.252561900008	0	714489	234
1396.533203125	1	health	trialStart	3	168	48	foodImage.19	FOODEEG_Images\0225.jpg	NY	Right	Yes	1.13430420000805	0	715026	251
1397.578125	2	health	foodImageDisplay	3	168	48	foodImage.19	FOODEEG_Images\0225.jpg	NY	Right	Yes	1.13430420000805	0	715561	252
1399.640625	1.13430420000805	health	choicePhaseStart	3	168	48	foodImage.19	FOODEEG_Images\0225.jpg	NY	Right	Yes	1.13430420000805	0	716617	253
1400.765625	0	health	response	3	168	48	foodImage.19	FOODEEG_Images\0225.jpg	NY	Right	Yes	1.13430420000805	0	717193	235
1401.80859375	1	taste	trialStart	3	169	49	foodImage.115	FOODEEG_Images\0923.jpg	NY	Left	No	1.66396999999415	0	717727	251
1402.84765625	2	taste	foodImageDisplay	3	169	49	foodImage.115	FOODEEG_Images\0923.jpg	NY	Left	No	1.66396999999415	0	718259	252
1404.91015625	1.66396999999415	taste	choicePhaseStart	3	169	49	foodImage.115	FOODEEG_Images\0923.jpg	NY	Left	No	1.66396999999415	0	719315	253
1406.564453125	0	taste	response	3	169	49	foodImage.115	FOODEEG_Images\0923.jpg	NY	Left	No	1.66396999999415	0	720162	234
1407.607421875	1	taste	trialStart	3	170	50	foodImage.97	FOODEEG_Images\0905.jpg	NY	Left	No	1.49599219998345	0	720696	251
1408.646484375	2	taste	foodImageDisplay	3	170	50	foodImage.97	FOODEEG_Images\0905.jpg	NY	Left	No	1.49599219998345	0	721228	252
1410.708984375	1.49599219998345	taste	choicePhaseStart	3	170	50	foodImage.97	FOODEEG_Images\0905.jpg	NY	Left	No	1.49599219998345	0	722284	253
1412.197265625	0	taste	response	3	170	50	foodImage.97	FOODEEG_Images\0905.jpg	NY	Left	No	1.49599219998345	0	723046	234
1413.240234375	1	taste	trialStart	3	171	51	foodImage.84	FOODEEG_Images\0830.jpg	YN	Left	Yes	2.51227609999478	0	723580	251
1414.3203125	2	taste	foodImageDisplay	3	171	51	foodImage.84	FOODEEG_Images\0830.jpg	YN	Left	Yes	2.51227609999478	0	724133	252
1416.3828125	2.51227609999478	taste	choicePhaseStart	3	171	51	foodImage.84	FOODEEG_Images\0830.jpg	YN	Left	Yes	2.51227609999478	0	725189	253
1418.884765625	0	taste	response	3	171	51	foodImage.84	FOODEEG_Images\0830.jpg	YN	Left	Yes	2.51227609999478	0	726470	234
1419.927734375	1	taste	trialStart	3	172	52	foodImage.17	FOODEEG_Images\0199.jpg	YN	Left	Yes	1.20380359998671	0	727004	251
1420.970703125	2	taste	foodImageDisplay	3	172	52	foodImage.17	FOODEEG_Images\0199.jpg	YN	Left	Yes	1.20380359998671	0	727538	252
1423.033203125	1.20380359998671	taste	choicePhaseStart	3	172	52	foodImage.17	FOODEEG_Images\0199.jpg	YN	Left	Yes	1.20380359998671	0	728594	253
1424.228515625	0	taste	response	3	172	52	foodImage.17	FOODEEG_Images\0199.jpg	YN	Left	Yes	1.20380359998671	0	729206	234
1425.271484375	1	taste	trialStart	3	173	53	foodImage.77	FOODEEG_Images\0771.jpg	YN	Left	Yes	1.86873380001634	0	729740	251
1426.314453125	2	taste	foodImageDisplay	3	173	53	foodImage.77	FOODEEG_Images\0771.jpg	YN	Left	Yes	1.86873380001634	0	730274	252
1428.376953125	1.86873380001634	taste	choicePhaseStart	3	173	53	foodImage.77	FOODEEG_Images\0771.jpg	YN	Left	Yes	1.86873380001634	0	731330	253
1430.236328125	0	taste	response	3	173	53	foodImage.77	FOODEEG_Images\0771.jpg	YN	Left	Yes	1.86873380001634	0	732282	234
1431.279296875	1	taste	trialStart	3	174	54	foodImage.90	FOODEEG_Images\0890.jpg	NY	Right	Yes	1.41766150004696	0	732816	251
1432.337890625	2	taste	foodImageDisplay	3	174	54	foodImage.90	FOODEEG_Images\0890.jpg	NY	Right	Yes	1.41766150004696	0	733358	252
1434.400390625	1.41766150004696	taste	choicePhaseStart	3	174	54	foodImage.90	FOODEEG_Images\0890.jpg	NY	Right	Yes	1.41766150004696	0	734414	253
1435.8125	0	taste	response	3	174	54	foodImage.90	FOODEEG_Images\0890.jpg	NY	Right	Yes	1.41766150004696	0	735137	235
1436.85546875	1	taste	trialStart	3	175	55	foodImage.54	FOODEEG_Images\0560.jpg	NY	Right	Yes	1.19727230002172	0	735671	251
1437.912109375	2	taste	foodImageDisplay	3	175	55	foodImage.54	FOODEEG_Images\0560.jpg	NY	Right	Yes	1.19727230002172	0	736212	252
1439.974609375	1.19727230002172	taste	choicePhaseStart	3	175	55	foodImage.54	FOODEEG_Images\0560.jpg	NY	Right	Yes	1.19727230002172	0	737268	253
1441.1640625	0	taste	response	3	175	55	foodImage.54	FOODEEG_Images\0560.jpg	NY	Right	Yes	1.19727230002172	0	737877	235
1442.20703125	1	taste	trialStart	3	176	56	foodImage.106	FOODEEG_Images\0914.jpg	NY	Right	Yes	1.86471130000427	0	738411	251
1443.24609375	2	taste	foodImageDisplay	3	176	56	foodImage.106	FOODEEG_Images\0914.jpg	NY	Right	Yes	1.86471130000427	0	738943	252
1445.306640625	1.86471130000427	taste	choicePhaseStart	3	176	56	foodImage.106	FOODEEG_Images\0914.jpg	NY	Right	Yes	1.86471130000427	0	739998	253
1447.1640625	0	taste	response	3	176	56	foodImage.106	FOODEEG_Images\0914.jpg	NY	Right	Yes	1.86471130000427	0	740949	235
1448.20703125	1	health	trialStart	3	177	57	foodImage.49	FOODEEG_Images\0515.jpg	NY	Left	No	3.40889560000505	0	741483	251
1449.248046875	2	health	foodImageDisplay	3	177	57	foodImage.49	FOODEEG_Images\0515.jpg	NY	Left	No	3.40889560000505	0	742016	252
1451.314453125	3.40889560000505	health	choicePhaseStart	3	177	57	foodImage.49	FOODEEG_Images\0515.jpg	NY	Left	No	3.40889560000505	0	743074	253
1454.71484375	0	health	response	3	177	57	foodImage.49	FOODEEG_Images\0515.jpg	NY	Left	No	3.40889560000505	0	744815	234
1455.7578125	1	taste	trialStart	3	178	58	foodImage.4	FOODEEG_Images\0065.jpg	YN	Left	Yes	1.99619780003559	0	745349	251
1456.81640625	2	taste	foodImageDisplay	3	178	58	foodImage.4	FOODEEG_Images\0065.jpg	YN	Left	Yes	1.99619780003559	0	745891	252
1458.87890625	1.99619780003559	taste	choicePhaseStart	3	178	58	foodImage.4	FOODEEG_Images\0065.jpg	YN	Left	Yes	1.99619780003559	0	746947	253
1460.8671875	0	taste	response	3	178	58	foodImage.4	FOODEEG_Images\0065.jpg	YN	Left	Yes	1.99619780003559	0	747965	234
1461.91015625	1	health	trialStart	3	179	59	foodImage.93	FOODEEG_Images\0901.jpg	NY	Left	No	3.3924295999459	0	748499	251
1462.94921875	2	health	foodImageDisplay	3	179	59	foodImage.93	FOODEEG_Images\0901.jpg	NY	Left	No	3.3924295999459	0	749031	252
1465.01171875	3.3924295999459	health	choicePhaseStart	3	179	59	foodImage.93	FOODEEG_Images\0901.jpg	NY	Left	No	3.3924295999459	0	750087	253
1468.39453125	0	health	response	3	179	59	foodImage.93	FOODEEG_Images\0901.jpg	NY	Left	No	3.3924295999459	0	751819	234
1469.4375	1	taste	trialStart	3	180	60	foodImage.76	FOODEEG_Images\0766.jpg	YN	Left	Yes	1.66522169997916	0	752353	251
1470.48046875	2	taste	foodImageDisplay	3	180	60	foodImage.76	FOODEEG_Images\0766.jpg	YN	Left	Yes	1.66522169997916	0	752887	252
1472.546875	1.66522169997916	taste	choicePhaseStart	3	180	60	foodImage.76	FOODEEG_Images\0766.jpg	YN	Left	Yes	1.66522169997916	0	753945	253
1474.203125	0	taste	response	3	180	60	foodImage.76	FOODEEG_Images\0766.jpg	YN	Left	Yes	1.66522169997916	0	754793	234
1476.244140625	14.734375	n/a	blockEnd	n/a	n/a	n/a	n/a	n/a	n/a	n/a	n/a	n/a	n/a	755838	254
1490.978515625	2	n/a	blockStart	4	n/a	n/a	n/a	n/a	n/a	n/a	n/a	n/a	n/a	763382	250
1493.009765625	1	taste	trialStart	4	181	1	foodImage.65	FOODEEG_Images\0658.jpg	YN	Left	Yes	1.38111539999954	0	764422	251
1494.052734375	2	taste	foodImageDisplay	4	181	1	foodImage.65	FOODEEG_Images\0658.jpg	YN	Left	Yes	1.38111539999954	0	764956	252
1496.1171875	1.38111539999954	taste	choicePhaseStart	4	181	1	foodImage.65	FOODEEG_Images\0658.jpg	YN	Left	Yes	1.38111539999954	0	766013	253
1497.490234375	0	taste	response	4	181	1	foodImage.65	FOODEEG_Images\0658.jpg	YN	Left	Yes	1.38111539999954	0	766716	234
1498.533203125	1	taste	trialStart	4	182	2	foodImage.10	FOODEEG_Images\0145.jpg	NY	Right	Yes	1.49183849996189	0	767250	251
1499.591796875	2	taste	foodImageDisplay	4	182	2	foodImage.10	FOODEEG_Images\0145.jpg	NY	Right	Yes	1.49183849996189	0	767792	252
1501.65234375	1.49183849996189	taste	choicePhaseStart	4	182	2	foodImage.10	FOODEEG_Images\0145.jpg	NY	Right	Yes	1.49183849996189	0	768847	253
1503.13671875	0	taste	response	4	182	2	foodImage.10	FOODEEG_Images\0145.jpg	NY	Right	Yes	1.49183849996189	0	769607	235
1504.1796875	1	health	trialStart	4	183	3	foodImage.90	FOODEEG_Images\0890.jpg	YN	Right	No	2.02320610004244	0	770141	251
1505.236328125	2	health	foodImageDisplay	4	183	3	foodImage.90	FOODEEG_Images\0890.jpg	YN	Right	No	2.02320610004244	0	770682	252
1507.298828125	2.02320610004244	health	choicePhaseStart	4	183	3	foodImage.90	FOODEEG_Images\0890.jpg	YN	Right	No	2.02320610004244	0	771738	253
1509.3125	0	health	response	4	183	3	foodImage.90	FOODEEG_Images\0890.jpg	YN	Right	No	2.02320610004244	0	772769	235
1510.357421875	1	decision	trialStart	4	184	4	foodImage.93	FOODEEG_Images\0901.jpg	YN	Left	Yes	1.48634020000463	0	773304	251
1511.396484375	2	decision	foodImageDisplay	4	184	4	foodImage.93	FOODEEG_Images\0901.jpg	YN	Left	Yes	1.48634020000463	0	773836	252
1513.458984375	1.48634020000463	decision	choicePhaseStart	4	184	4	foodImage.93	FOODEEG_Images\0901.jpg	YN	Left	Yes	1.48634020000463	0	774892	253
1514.9375	0	decision	response	4	184	4	foodImage.93	FOODEEG_Images\0901.jpg	YN	Left	Yes	1.48634020000463	0	775649	234
1515.978515625	1	decision	trialStart	4	185	5	foodImage.52	FOODEEG_Images\0539.jpg	NY	Right	Yes	1.49839049996808	0	776182	251
1517.033203125	2	decision	foodImageDisplay	4	185	5	foodImage.52	FOODEEG_Images\0539.jpg	NY	Right	Yes	1.49839049996808	0	776722	252
1519.095703125	1.49839049996808	decision	choicePhaseStart	4	185	5	foodImage.52	FOODEEG_Images\0539.jpg	NY	Right	Yes	1.49839049996808	0	777778	253
1520.583984375	0	decision	response	4	185	5	foodImage.52	FOODEEG_Images\0539.jpg	NY	Right	Yes	1.49839049996808	0	778540	235
1521.626953125	1	health	trialStart	4	186	6	foodImage.95	FOODEEG_Images\0903.jpg	YN	Right	No	1.97747189999791	0	779074	251
1522.666015625	2	health	foodImageDisplay	4	186	6	foodImage.95	FOODEEG_Images\0903.jpg	YN	Right	No	1.97747189999791	0	779606	252
1524.728515625	1.97747189999791	health	choicePhaseStart	4	186	6	foodImage.95	FOODEEG_Images\0903.jpg	YN	Right	No	1.97747189999791	0	780662	253
1526.6953125	0	health	response	4	186	6	foodImage.95	FOODEEG_Images\0903.jpg	YN	Right	No	1.97747189999791	0	781669	235
1527.748046875	1	decision	trialStart	4	187	7	foodImage.8	FOODEEG_Images\0136.jpg	YN	Right	No	1.90211600001203	0	782208	251
1528.7890625	2	decision	foodImageDisplay	4	187	7	foodImage.8	FOODEEG_Images\0136.jpg	YN	Right	No	1.90211600001203	0	782741	252
1530.8515625	1.90211600001203	decision	choicePhaseStart	4	187	7	foodImage.8	FOODEEG_Images\0136.jpg	YN	Right	No	1.90211600001203	0	783797	253
1532.744140625	0	decision	response	4	187	7	foodImage.8	FOODEEG_Images\0136.jpg	YN	Right	No	1.90211600001203	0	784766	235
1533.787109375	1	health	trialStart	4	188	8	foodImage.57	FOODEEG_Images\0587.jpg	YN	Right	No	1.30905099998927	0	785300	251
1534.830078125	2	health	foodImageDisplay	4	188	8	foodImage.57	FOODEEG_Images\0587.jpg	YN	Right	No	1.30905099998927	0	785834	252
1536.892578125	1.30905099998927	health	choicePhaseStart	4	188	8	foodImage.57	FOODEEG_Images\0587.jpg	YN	Right	No	1.30905099998927	0	786890	253
1538.19140625	0	health	response	4	188	8	foodImage.57	FOODEEG_Images\0587.jpg	YN	Right	No	1.30905099998927	0	787555	235
1539.234375	1	decision	trialStart	4	189	9	foodImage.4	FOODEEG_Images\0065.jpg	NY	Left	No	1.43740960001014	0	788089	251
1540.29296875	2	decision	foodImageDisplay	4	189	9	foodImage.4	FOODEEG_Images\0065.jpg	NY	Left	No	1.43740960001014	0	788631	252
1542.35546875	1.43740960001014	decision	choicePhaseStart	4	189	9	foodImage.4	FOODEEG_Images\0065.jpg	NY	Left	No	1.43740960001014	0	789687	253
1543.783203125	0	decision	response	4	189	9	foodImage.4	FOODEEG_Images\0065.jpg	NY	Left	No	1.43740960001014	0	790418	234
1544.826171875	1	health	trialStart	4	190	10	foodImage.113	FOODEEG_Images\0921.jpg	YN	Left	Yes	1.65690219996031	0	790952	251
1545.865234375	2	health	foodImageDisplay	4	190	10	foodImage.113	FOODEEG_Images\0921.jpg	YN	Left	Yes	1.65690219996031	0	791484	252
1547.92578125	1.65690219996031	health	choicePhaseStart	4	190	10	foodImage.113	FOODEEG_Images\0921.jpg	YN	Left	Yes	1.65690219996031	0	792539	253
1549.576171875	0	health	response	4	190	10	foodImage.113	FOODEEG_Images\0921.jpg	YN	Left	Yes	1.65690219996031	0	793384	234
1550.62109375	1	health	trialStart	4	191	11	foodImage.116	FOODEEG_Images\0924.jpg	YN	Right	No	2.7740512000164	0	793919	251
1551.658203125	2	health	foodImageDisplay	4	191	11	foodImage.116	FOODEEG_Images\0924.jpg	YN	Right	No	2.7740512000164	0	794450	252
1553.720703125	2.7740512000164	health	choicePhaseStart	4	191	11	foodImage.116	FOODEEG_Images\0924.jpg	YN	Right	No	2.7740512000164	0	795506	253
1556.486328125	0	health	response	4	191	11	foodImage.116	FOODEEG_Images\0924.jpg	YN	Right	No	2.7740512000164	0	796922	235
1557.529296875	1	decision	trialStart	4	192	12	foodImage.49	FOODEEG_Images\0515.jpg	NY	Right	Yes	1.42172559996834	0	797456	251
1558.572265625	2	decision	foodImageDisplay	4	192	12	foodImage.49	FOODEEG_Images\0515.jpg	NY	Right	Yes	1.42172559996834	0	797990	252
1560.634765625	1.42172559996834	decision	choicePhaseStart	4	192	12	foodImage.49	FOODEEG_Images\0515.jpg	NY	Right	Yes	1.42172559996834	0	799046	253
1562.046875	0	decision	response	4	192	12	foodImage.49	FOODEEG_Images\0515.jpg	NY	Right	Yes	1.42172559996834	0	799769	235
1563.08984375	1	taste	trialStart	4	193	13	foodImage.47	FOODEEG_Images\0488.jpg	YN	Left	Yes	1.92526180000277	0	800303	251
1564.1328125	2	taste	foodImageDisplay	4	193	13	foodImage.47	FOODEEG_Images\0488.jpg	YN	Left	Yes	1.92526180000277	0	800837	252
1566.1953125	1.92526180000277	taste	choicePhaseStart	4	193	13	foodImage.47	FOODEEG_Images\0488.jpg	YN	Left	Yes	1.92526180000277	0	801893	253
1568.111328125	0	taste	response	4	193	13	foodImage.47	FOODEEG_Images\0488.jpg	YN	Left	Yes	1.92526180000277	0	802874	234
