onset	duration	trial_type	event_type	block	trial_total	trial_in_block	food_image_code	food_image_path	button_position	resp_position	resp_choice	choice_rt	resp_too_slow	sample	trigger
278.716796875	2	n/a	blockStart	1	n/a	n/a	n/a	n/a	n/a	n/a	n/a	n/a	n/a	142704	250
280.75390625	1	decision	trialStart	1	1	1	foodImage.105	FOODEEG_Images\0913.jpg	NY	Left	No	0.744528000010177	0	143747	251
281.796875	2	decision	foodImageDisplay	1	1	1	foodImage.105	FOODEEG_Images\0913.jpg	NY	Left	No	0.744528000010177	0	144281	252
283.861328125	0.744528000010177	decision	choicePhaseStart	1	1	1	foodImage.105	FOODEEG_Images\0913.jpg	NY	Left	No	0.744528000010177	0	145338	253
284.59765625	0	decision	response	1	1	1	foodImage.105	FOODEEG_Images\0913.jpg	NY	Left	No	0.744528000010177	0	145715	234
285.70703125	1	taste	trialStart	1	2	2	foodImage.111	FOODEEG_Images\0919.jpg	YN	Right	No	0.782022200000938	0	146283	251
286.75	2	taste	foodImageDisplay	1	2	2	foodImage.111	FOODEEG_Images\0919.jpg	YN	Right	No	0.782022200000938	0	146817	252
288.814453125	0.782022200000938	taste	choicePhaseStart	1	2	2	foodImage.111	FOODEEG_Images\0919.jpg	YN	Right	No	0.782022200000938	0	147874	253
289.587890625	0	taste	response	1	2	2	foodImage.111	FOODEEG_Images\0919.jpg	YN	Right	No	0.782022200000938	0	148270	235
290.640625	1	health	trialStart	1	3	3	foodImage.115	FOODEEG_Images\0923.jpg	YN	Left	Yes	0.796745500003453	0	148809	251
291.6796875	2	health	foodImageDisplay	1	3	3	foodImage.115	FOODEEG_Images\0923.jpg	YN	Left	Yes	0.796745500003453	0	149341	252
293.7421875	0.796745500003453	health	choicePhaseStart	1	3	3	foodImage.115	FOODEEG_Images\0923.jpg	YN	Left	Yes	0.796745500003453	0	150397	253
294.53125	0	health	response	1	3	3	foodImage.115	FOODEEG_Images\0923.jpg	YN	Left	Yes	0.796745500003453	0	150801	234
295.57421875	1	decision	trialStart	1	4	4	foodImage.100	FOODEEG_Images\0908.jpg	NY	Right	Yes	0.927532200003043	0	151335	251
296.61328125	2	decision	foodImageDisplay	1	4	4	foodImage.100	FOODEEG_Images\0908.jpg	NY	Right	Yes	0.927532200003043	0	151867	252
298.677734375	0.927532200003043	decision	choicePhaseStart	1	4	4	foodImage.100	FOODEEG_Images\0908.jpg	NY	Right	Yes	0.927532200003043	0	152924	253
299.595703125	0	decision	response	1	4	4	foodImage.100	FOODEEG_Images\0908.jpg	NY	Right	Yes	0.927532200003043	0	153394	235
300.63671875	1	taste	trialStart	1	5	5	foodImage.24	FOODEEG_Images\0250.jpg	YN	Right	No	0.809474400011823	0	153927	251
301.68359375	2	taste	foodImageDisplay	1	5	5	foodImage.24	FOODEEG_Images\0250.jpg	YN	Right	No	0.809474400011823	0	154463	252
303.74609375	0.809474400011823	taste	choicePhaseStart	1	5	5	foodImage.24	FOODEEG_Images\0250.jpg	YN	Right	No	0.809474400011823	0	155519	253
304.546875	0	taste	response	1	5	5	foodImage.24	FOODEEG_Images\0250.jpg	YN	Right	No	0.809474400011823	0	155929	235
305.595703125	1	health	trialStart	1	6	6	foodImage.55	FOODEEG_Images\0567.jpg	YN	Left	Yes	0.920060900039971	0	156466	251
306.66015625	2	health	foodImageDisplay	1	6	6	foodImage.55	FOODEEG_Images\0567.jpg	YN	Left	Yes	0.920060900039971	0	157011	252
308.724609375	0.920060900039971	health	choicePhaseStart	1	6	6	foodImage.55	FOODEEG_Images\0567.jpg	YN	Left	Yes	0.920060900039971	0	158068	253
309.634765625	0	health	response	1	6	6	foodImage.55	FOODEEG_Images\0567.jpg	YN	Left	Yes	0.920060900039971	0	158534	234
310.67578125	1	taste	trialStart	1	7	7	foodImage.58	FOODEEG_Images\0605.jpg	NY	Right	Yes	0.673350600001868	0	159067	251
311.732421875	2	taste	foodImageDisplay	1	7	7	foodImage.58	FOODEEG_Images\0605.jpg	NY	Right	Yes	0.673350600001868	0	159608	252
313.794921875	0.673350600001868	taste	choicePhaseStart	1	7	7	foodImage.58	FOODEEG_Images\0605.jpg	NY	Right	Yes	0.673350600001868	0	160664	253
314.458984375	0	taste	response	1	7	7	foodImage.58	FOODEEG_Images\0605.jpg	NY	Right	Yes	0.673350600001868	0	161004	235
315.5	1	health	trialStart	1	8	8	foodImage.116	FOODEEG_Images\0924.jpg	YN	Right	No	0.996694400033448	0	161537	251
316.541015625	2	health	foodImageDisplay	1	8	8	foodImage.116	FOODEEG_Images\0924.jpg	YN	Right	No	0.996694400033448	0	162070	252
318.603515625	0.996694400033448	health	choicePhaseStart	1	8	8	foodImage.116	FOODEEG_Images\0924.jpg	YN	Right	No	0.996694400033448	0	163126	253
319.595703125	0	health	response	1	8	8	foodImage.116	FOODEEG_Images\0924.jpg	YN	Right	No	0.996694400033448	0	163634	235
320.63671875	1	health	trialStart	1	9	9	foodImage.17	FOODEEG_Images\0199.jpg	NY	Right	Yes	0.775118499994278	0	164167	251
321.6796875	2	health	foodImageDisplay	1	9	9	foodImage.17	FOODEEG_Images\0199.jpg	NY	Right	Yes	0.775118499994278	0	164701	252
323.748046875	0.775118499994278	health	choicePhaseStart	1	9	9	foodImage.17	FOODEEG_Images\0199.jpg	NY	Right	Yes	0.775118499994278	0	165760	253
324.515625	0	health	response	1	9	9	foodImage.17	FOODEEG_Images\0199.jpg	NY	Right	Yes	0.775118499994278	0	166153	235
325.556640625	1	taste	trialStart	1	10	10	foodImage.114	FOODEEG_Images\0922.jpg	NY	Right	Yes	0.766896300017834	0	166686	251
326.595703125	2	taste	foodImageDisplay	1	10	10	foodImage.114	FOODEEG_Images\0922.jpg	NY	Right	Yes	0.766896300017834	0	167218	252
328.658203125	0.766896300017834	taste	choicePhaseStart	1	10	10	foodImage.114	FOODEEG_Images\0922.jpg	NY	Right	Yes	0.766896300017834	0	168274	253
329.41796875	0	taste	response	1	10	10	foodImage.114	FOODEEG_Images\0922.jpg	NY	Right	Yes	0.766896300017834	0	168663	235
330.458984375	1	decision	trialStart	1	11	11	foodImage.15	FOODEEG_Images\0189.jpg	YN	Right	No	0.710500099987257	0	169196	251
331.515625	2	decision	foodImageDisplay	1	11	11	foodImage.15	FOODEEG_Images\0189.jpg	YN	Right	No	0.710500099987257	0	169737	252
333.580078125	0.710500099987257	decision	choicePhaseStart	1	11	11	foodImage.15	FOODEEG_Images\0189.jpg	YN	Right	No	0.710500099987257	0	170794	253
334.283203125	0	decision	response	1	11	11	foodImage.15	FOODEEG_Images\0189.jpg	YN	Right	No	0.710500099987257	0	171154	235
335.32421875	1	decision	trialStart	1	12	12	foodImage.20	FOODEEG_Images\0226.jpg	YN	Left	Yes	0.864751800021622	0	171687	251
336.365234375	2	decision	foodImageDisplay	1	12	12	foodImage.20	FOODEEG_Images\0226.jpg	YN	Left	Yes	0.864751800021622	0	172220	252
338.43359375	0.864751800021622	decision	choicePhaseStart	1	12	12	foodImage.20	FOODEEG_Images\0226.jpg	YN	Left	Yes	0.864751800021622	0	173279	253
339.291015625	0	decision	response	1	12	12	foodImage.20	FOODEEG_Images\0226.jpg	YN	Left	Yes	0.864751800021622	0	173718	234
340.330078125	1	decision	trialStart	1	13	13	foodImage.119	FOODEEG_Images\0927.jpg	YN	Right	No	0.914026900019962	0	174250	251
341.369140625	2	decision	foodImageDisplay	1	13	13	foodImage.119	FOODEEG_Images\0927.jpg	YN	Right	No	0.914026900019962	0	174782	252
343.431640625	0.914026900019962	decision	choicePhaseStart	1	13	13	foodImage.119	FOODEEG_Images\0927.jpg	YN	Right	No	0.914026900019962	0	175838	253
344.337890625	0	decision	response	1	13	13	foodImage.119	FOODEEG_Images\0927.jpg	YN	Right	No	0.914026900019962	0	176302	235
345.376953125	1	decision	trialStart	1	14	14	foodImage.106	FOODEEG_Images\0914.jpg	NY	Right	Yes	2.15416650002589	0	176834	251
346.416015625	2	decision	foodImageDisplay	1	14	14	foodImage.106	FOODEEG_Images\0914.jpg	NY	Right	Yes	2.15416650002589	0	177366	252
348.478515625	2.15416650002589	decision	choicePhaseStart	1	14	14	foodImage.106	FOODEEG_Images\0914.jpg	NY	Right	Yes	2.15416650002589	0	178422	253
350.625	0	decision	response	1	14	14	foodImage.106	FOODEEG_Images\0914.jpg	NY	Right	Yes	2.15416650002589	0	179521	235
351.66796875	1	taste	trialStart	1	15	15	foodImage.30	FOODEEG_Images\0282.jpg	YN	Left	Yes	0.849883500020951	0	180055	251
352.728515625	2	taste	foodImageDisplay	1	15	15	foodImage.30	FOODEEG_Images\0282.jpg	YN	Left	Yes	0.849883500020951	0	180598	252
354.79296875	0.849883500020951	taste	choicePhaseStart	1	15	15	foodImage.30	FOODEEG_Images\0282.jpg	YN	Left	Yes	0.849883500020951	0	181655	253
355.634765625	0	taste	response	1	15	15	foodImage.30	FOODEEG_Images\0282.jpg	YN	Left	Yes	0.849883500020951	0	182086	234
356.67578125	1	health	trialStart	1	16	16	foodImage.33	FOODEEG_Images\0329.jpg	YN	Left	Yes	1.05314480001107	0	182619	251
357.716796875	2	health	foodImageDisplay	1	16	16	foodImage.33	FOODEEG_Images\0329.jpg	YN	Left	Yes	1.05314480001107	0	183152	252
359.779296875	1.05314480001107	health	choicePhaseStart	1	16	16	foodImage.33	FOODEEG_Images\0329.jpg	YN	Left	Yes	1.05314480001107	0	184208	253
360.826171875	0	health	response	1	16	16	foodImage.33	FOODEEG_Images\0329.jpg	YN	Left	Yes	1.05314480001107	0	184744	234
361.865234375	1	taste	trialStart	1	17	17	foodImage.93	FOODEEG_Images\0901.jpg	YN	Right	No	0.651566199958324	0	185276	251
362.904296875	2	taste	foodImageDisplay	1	17	17	foodImage.93	FOODEEG_Images\0901.jpg	YN	Right	No	0.651566199958324	0	185808	252
364.974609375	0.651566199958324	taste	choicePhaseStart	1	17	17	foodImage.93	FOODEEG_Images\0901.jpg	YN	Right	No	0.651566199958324	0	186868	253
365.6171875	0	taste	response	1	17	17	foodImage.93	FOODEEG_Images\0901.jpg	YN	Right	No	0.651566199958324	0	187197	235
366.658203125	1	taste	trialStart	1	18	18	foodImage.31	FOODEEG_Images\0294.jpg	NY	Right	Yes	0.617069700034335	0	187730	251
367.701171875	2	taste	foodImageDisplay	1	18	18	foodImage.31	FOODEEG_Images\0294.jpg	NY	Right	Yes	0.617069700034335	0	188264	252
369.767578125	0.617069700034335	taste	choicePhaseStart	1	18	18	foodImage.31	FOODEEG_Images\0294.jpg	NY	Right	Yes	0.617069700034335	0	189322	253
370.376953125	0	taste	response	1	18	18	foodImage.31	FOODEEG_Images\0294.jpg	NY	Right	Yes	0.617069700034335	0	189634	235
371.41796875	1	decision	trialStart	1	19	19	foodImage.82	FOODEEG_Images\0805.jpg	NY	Left	No	0.665926700050477	0	190167	251
372.474609375	2	decision	foodImageDisplay	1	19	19	foodImage.82	FOODEEG_Images\0805.jpg	NY	Left	No	0.665926700050477	0	190708	252
374.537109375	0.665926700050477	decision	choicePhaseStart	1	19	19	foodImage.82	FOODEEG_Images\0805.jpg	NY	Left	No	0.665926700050477	0	191764	253
375.193359375	0	decision	response	1	19	19	foodImage.82	FOODEEG_Images\0805.jpg	NY	Left	No	0.665926700050477	0	192100	234
376.232421875	1	decision	trialStart	1	20	20	foodImage.64	FOODEEG_Images\0647.jpg	NY	Left	No	0.691768200020306	0	192632	251
377.294921875	2	decision	foodImageDisplay	1	20	20	foodImage.64	FOODEEG_Images\0647.jpg	NY	Left	No	0.691768200020306	0	193176	252
379.357421875	0.691768200020306	decision	choicePhaseStart	1	20	20	foodImage.64	FOODEEG_Images\0647.jpg	NY	Left	No	0.691768200020306	0	194232	253
380.041015625	0	decision	response	1	20	20	foodImage.64	FOODEEG_Images\0647.jpg	NY	Left	No	0.691768200020306	0	194582	234
381.08203125	1	decision	trialStart	1	21	21	foodImage.109	FOODEEG_Images\0917.jpg	YN	Right	No	0.672953600005712	0	195115	251
382.130859375	2	decision	foodImageDisplay	1	21	21	foodImage.109	FOODEEG_Images\0917.jpg	YN	Right	No	0.672953600005712	0	195652	252
384.193359375	0.672953600005712	decision	choicePhaseStart	1	21	21	foodImage.109	FOODEEG_Images\0917.jpg	YN	Right	No	0.672953600005712	0	196708	253
384.85546875	0	decision	response	1	21	21	foodImage.109	FOODEEG_Images\0917.jpg	YN	Right	No	0.672953600005712	0	197047	235
385.896484375	1	taste	trialStart	1	22	22	foodImage.50	FOODEEG_Images\0529.jpg	NY	Left	No	0.809465500002261	0	197580	251
386.955078125	2	taste	foodImageDisplay	1	22	22	foodImage.50	FOODEEG_Images\0529.jpg	NY	Left	No	0.809465500002261	0	198122	252
389.015625	0.809465500002261	taste	choicePhaseStart	1	22	22	foodImage.50	FOODEEG_Images\0529.jpg	NY	Left	No	0.809465500002261	0	199177	253
389.81640625	0	taste	response	1	22	22	foodImage.50	FOODEEG_Images\0529.jpg	NY	Left	No	0.809465500002261	0	199587	234
390.859375	1	taste	trialStart	1	23	23	foodImage.4	FOODEEG_Images\0065.jpg	YN	Left	Yes	0.607433800003491	0	200121	251
391.916015625	2	taste	foodImageDisplay	1	23	23	foodImage.4	FOODEEG_Images\0065.jpg	YN	Left	Yes	0.607433800003491	0	200662	252
393.978515625	0.607433800003491	taste	choicePhaseStart	1	23	23	foodImage.4	FOODEEG_Images\0065.jpg	YN	Left	Yes	0.607433800003491	0	201718	253
394.576171875	0	taste	response	1	23	23	foodImage.4	FOODEEG_Images\0065.jpg	YN	Left	Yes	0.607433800003491	0	202024	234
395.6171875	1	decision	trialStart	1	24	24	foodImage.116	FOODEEG_Images\0924.jpg	NY	Left	No	1.05060590000357	0	202557	251
396.65625	2	decision	foodImageDisplay	1	24	24	foodImage.116	FOODEEG_Images\0924.jpg	NY	Left	No	1.05060590000357	0	203089	252
398.71875	1.05060590000357	decision	choicePhaseStart	1	24	24	foodImage.116	FOODEEG_Images\0924.jpg	NY	Left	No	1.05060590000357	0	204145	253
399.759765625	0	decision	response	1	24	24	foodImage.116	FOODEEG_Images\0924.jpg	NY	Left	No	1.05060590000357	0	204678	234
400.80078125	1	decision	trialStart	1	25	25	foodImage.28	FOODEEG_Images\0273.jpg	YN	Right	No	0.792794200009666	0	205211	251
401.841796875	2	decision	foodImageDisplay	1	25	25	foodImage.28	FOODEEG_Images\0273.jpg	YN	Right	No	0.792794200009666	0	205744	252
403.904296875	0.792794200009666	decision	choicePhaseStart	1	25	25	foodImage.28	FOODEEG_Images\0273.jpg	YN	Right	No	0.792794200009666	0	206800	253
404.6875	0	decision	response	1	25	25	foodImage.28	FOODEEG_Images\0273.jpg	YN	Right	No	0.792794200009666	0	207201	235
405.728515625	1	decision	trialStart	1	26	26	foodImage.68	FOODEEG_Images\0685.jpg	NY	Right	Yes	0.958336199983023	0	207734	251
406.8046875	2	decision	foodImageDisplay	1	26	26	foodImage.68	FOODEEG_Images\0685.jpg	NY	Right	Yes	0.958336199983023	0	208285	252
408.8671875	0.958336199983023	decision	choicePhaseStart	1	26	26	foodImage.68	FOODEEG_Images\0685.jpg	NY	Right	Yes	0.958336199983023	0	209341	253
409.814453125	0	decision	response	1	26	26	foodImage.68	FOODEEG_Images\0685.jpg	NY	Right	Yes	0.958336199983023	0	209826	235
410.861328125	1	health	trialStart	1	27	27	foodImage.90	FOODEEG_Images\0890.jpg	NY	Left	No	0.6357347999583	0	210362	251
411.91796875	2	health	foodImageDisplay	1	27	27	foodImage.90	FOODEEG_Images\0890.jpg	NY	Left	No	0.6357347999583	0	210903	252
413.98046875	0.6357347999583	health	choicePhaseStart	1	27	27	foodImage.90	FOODEEG_Images\0890.jpg	NY	Left	No	0.6357347999583	0	211959	253
414.607421875	0	health	response	1	27	27	foodImage.90	FOODEEG_Images\0890.jpg	NY	Left	No	0.6357347999583	0	212280	234
415.646484375	1	decision	trialStart	1	28	28	foodImage.89	FOODEEG_Images\0881.jpg	NY	Right	Yes	0.681124599999748	0	212812	251
416.705078125	2	decision	foodImageDisplay	1	28	28	foodImage.89	FOODEEG_Images\0881.jpg	NY	Right	Yes	0.681124599999748	0	213354	252
418.767578125	0.681124599999748	decision	choicePhaseStart	1	28	28	foodImage.89	FOODEEG_Images\0881.jpg	NY	Right	Yes	0.681124599999748	0	214410	253
419.439453125	0	decision	response	1	28	28	foodImage.89	FOODEEG_Images\0881.jpg	NY	Right	Yes	0.681124599999748	0	214754	235
420.48046875	1	taste	trialStart	1	29	29	foodImage.42	FOODEEG_Images\0438.jpg	YN	Right	No	0.832790199958254	0	215287	251
421.568359375	2	taste	foodImageDisplay	1	29	29	foodImage.42	FOODEEG_Images\0438.jpg	YN	Right	No	0.832790199958254	0	215844	252
423.630859375	0.832790199958254	taste	choicePhaseStart	1	29	29	foodImage.42	FOODEEG_Images\0438.jpg	YN	Right	No	0.832790199958254	0	216900	253
424.455078125	0	taste	response	1	29	29	foodImage.42	FOODEEG_Images\0438.jpg	YN	Right	No	0.832790199958254	0	217322	235
425.501953125	1	health	trialStart	1	30	30	foodImage.2	FOODEEG_Images\0028.jpg	YN	Right	No	0.54426210001111	0	217858	251
426.544921875	2	health	foodImageDisplay	1	30	30	foodImage.2	FOODEEG_Images\0028.jpg	YN	Right	No	0.54426210001111	0	218392	252
428.607421875	0.54426210001111	health	choicePhaseStart	1	30	30	foodImage.2	FOODEEG_Images\0028.jpg	YN	Right	No	0.54426210001111	0	219448	253
429.142578125	0	health	response	1	30	30	foodImage.2	FOODEEG_Images\0028.jpg	YN	Right	No	0.54426210001111	0	219722	235
430.18359375	1	taste	trialStart	1	31	31	foodImage.20	FOODEEG_Images\0226.jpg	NY	Left	No	1.23112890002085	0	220255	251
431.224609375	2	taste	foodImageDisplay	1	31	31	foodImage.20	FOODEEG_Images\0226.jpg	NY	Left	No	1.23112890002085	0	220788	252
433.287109375	1.23112890002085	taste	choicePhaseStart	1	31	31	foodImage.20	FOODEEG_Images\0226.jpg	NY	Left	No	1.23112890002085	0	221844	253
434.509765625	0	taste	response	1	31	31	foodImage.20	FOODEEG_Images\0226.jpg	NY	Left	No	1.23112890002085	0	222470	234
435.5546875	1	taste	trialStart	1	32	32	foodImage.34	FOODEEG_Images\0339.jpg	YN	Left	Yes	0.67886800004635	0	223005	251
436.609375	2	taste	foodImageDisplay	1	32	32	foodImage.34	FOODEEG_Images\0339.jpg	YN	Left	Yes	0.67886800004635	0	223545	252
438.671875	0.67886800004635	taste	choicePhaseStart	1	32	32	foodImage.34	FOODEEG_Images\0339.jpg	YN	Left	Yes	0.67886800004635	0	224601	253
439.341796875	0	taste	response	1	32	32	foodImage.34	FOODEEG_Images\0339.jpg	YN	Left	Yes	0.67886800004635	0	224944	234
440.380859375	1	taste	trialStart	1	33	33	foodImage.32	FOODEEG_Images\0319.jpg	YN	Left	Yes	0.903996300010476	0	225476	251
441.423828125	2	taste	foodImageDisplay	1	33	33	foodImage.32	FOODEEG_Images\0319.jpg	YN	Left	Yes	0.903996300010476	0	226010	252
443.486328125	0.903996300010476	taste	choicePhaseStart	1	33	33	foodImage.32	FOODEEG_Images\0319.jpg	YN	Left	Yes	0.903996300010476	0	227066	253
444.3828125	0	taste	response	1	33	33	foodImage.32	FOODEEG_Images\0319.jpg	YN	Left	Yes	0.903996300010476	0	227525	234
445.421875	1	decision	trialStart	1	34	34	foodImage.93	FOODEEG_Images\0901.jpg	NY	Left	No	0.604231100005563	0	228057	251
446.4609375	2	decision	foodImageDisplay	1	34	34	foodImage.93	FOODEEG_Images\0901.jpg	NY	Left	No	0.604231100005563	0	228589	252
448.5234375	0.604231100005563	decision	choicePhaseStart	1	34	34	foodImage.93	FOODEEG_Images\0901.jpg	NY	Left	No	0.604231100005563	0	229645	253
449.1171875	0	decision	response	1	34	34	foodImage.93	FOODEEG_Images\0901.jpg	NY	Left	No	0.604231100005563	0	229949	234
450.158203125	1	decision	trialStart	1	35	35	foodImage.33	FOODEEG_Images\0329.jpg	NY	Right	Yes	0.6398703000159	0	230482	251
451.201171875	2	decision	foodImageDisplay	1	35	35	foodImage.33	FOODEEG_Images\0329.jpg	NY	Right	Yes	0.6398703000159	0	231016	252
453.263671875	0.6398703000159	decision	choicePhaseStart	1	35	35	foodImage.33	FOODEEG_Images\0329.jpg	NY	Right	Yes	0.6398703000159	0	232072	253
453.892578125	0	decision	response	1	35	35	foodImage.33	FOODEEG_Images\0329.jpg	NY	Right	Yes	0.6398703000159	0	232394	235
454.93359375	1	decision	trialStart	1	36	36	foodImage.104	FOODEEG_Images\0912.jpg	NY	Right	Yes	0.522445400012657	0	232927	251
455.97265625	2	decision	foodImageDisplay	1	36	36	foodImage.104	FOODEEG_Images\0912.jpg	NY	Right	Yes	0.522445400012657	0	233459	252
458.03515625	0.522445400012657	decision	choicePhaseStart	1	36	36	foodImage.104	FOODEEG_Images\0912.jpg	NY	Right	Yes	0.522445400012657	0	234515	253
458.548828125	0	decision	response	1	36	36	foodImage.104	FOODEEG_Images\0912.jpg	NY	Right	Yes	0.522445400012657	0	234778	235
459.58984375	1	health	trialStart	1	37	37	foodImage.61	FOODEEG_Images\0640.jpg	NY	Right	Yes	0.707941500004381	0	235311	251
460.6328125	2	health	foodImageDisplay	1	37	37	foodImage.61	FOODEEG_Images\0640.jpg	NY	Right	Yes	0.707941500004381	0	235845	252
462.6953125	0.707941500004381	health	choicePhaseStart	1	37	37	foodImage.61	FOODEEG_Images\0640.jpg	NY	Right	Yes	0.707941500004381	0	236901	253
463.396484375	0	health	response	1	37	37	foodImage.61	FOODEEG_Images\0640.jpg	NY	Right	Yes	0.707941500004381	0	237260	235
464.4375	1	health	trialStart	1	38	38	foodImage.109	FOODEEG_Images\0917.jpg	YN	Left	Yes	1.04612480005017	0	237793	251
465.474609375	2	health	foodImageDisplay	1	38	38	foodImage.109	FOODEEG_Images\0917.jpg	YN	Left	Yes	1.04612480005017	0	238324	252
467.54296875	1.04612480005017	health	choicePhaseStart	1	38	38	foodImage.109	FOODEEG_Images\0917.jpg	YN	Left	Yes	1.04612480005017	0	239383	253
468.580078125	0	health	response	1	38	38	foodImage.109	FOODEEG_Images\0917.jpg	YN	Left	Yes	1.04612480005017	0	239914	234
469.62109375	1	taste	trialStart	1	39	39	foodImage.52	FOODEEG_Images\0539.jpg	YN	Left	Yes	1.10651670000516	0	240447	251
470.677734375	2	taste	foodImageDisplay	1	39	39	foodImage.52	FOODEEG_Images\0539.jpg	YN	Left	Yes	1.10651670000516	0	240988	252
472.740234375	1.10651670000516	taste	choicePhaseStart	1	39	39	foodImage.52	FOODEEG_Images\0539.jpg	YN	Left	Yes	1.10651670000516	0	242044	253
473.8359375	0	taste	response	1	39	39	foodImage.52	FOODEEG_Images\0539.jpg	YN	Left	Yes	1.10651670000516	0	242605	234
474.87890625	1	taste	trialStart	1	40	40	foodImage.86	FOODEEG_Images\0844.jpg	YN	Left	Yes	1.79929350002203	0	243139	251
475.935546875	2	taste	foodImageDisplay	1	40	40	foodImage.86	FOODEEG_Images\0844.jpg	YN	Left	Yes	1.79929350002203	0	243680	252
477.998046875	1.79929350002203	taste	choicePhaseStart	1	40	40	foodImage.86	FOODEEG_Images\0844.jpg	YN	Left	Yes	1.79929350002203	0	244736	253
479.7890625	0	taste	response	1	40	40	foodImage.86	FOODEEG_Images\0844.jpg	YN	Left	Yes	1.79929350002203	0	245653	234
480.828125	1	health	trialStart	1	41	41	foodImage.40	FOODEEG_Images\0373.jpg	YN	Left	Yes	0.488967199984472	0	246185	251
481.869140625	2	health	foodImageDisplay	1	41	41	foodImage.40	FOODEEG_Images\0373.jpg	YN	Left	Yes	0.488967199984472	0	246718	252
483.931640625	0.488967199984472	health	choicePhaseStart	1	41	41	foodImage.40	FOODEEG_Images\0373.jpg	YN	Left	Yes	0.488967199984472	0	247774	253
484.412109375	0	health	response	1	41	41	foodImage.40	FOODEEG_Images\0373.jpg	YN	Left	Yes	0.488967199984472	0	248020	234
485.453125	1	decision	trialStart	1	42	42	foodImage.111	FOODEEG_Images\0919.jpg	NY	Left	No	1.38737770001171	0	248553	251
486.490234375	2	decision	foodImageDisplay	1	42	42	foodImage.111	FOODEEG_Images\0919.jpg	NY	Left	No	1.38737770001171	0	249084	252
488.552734375	1.38737770001171	decision	choicePhaseStart	1	42	42	foodImage.111	FOODEEG_Images\0919.jpg	NY	Left	No	1.38737770001171	0	250140	253
489.931640625	0	decision	response	1	42	42	foodImage.111	FOODEEG_Images\0919.jpg	NY	Left	No	1.38737770001171	0	250846	234
490.974609375	1	health	trialStart	1	43	43	foodImage.5	FOODEEG_Images\0107.jpg	YN	Right	No	0.807489000027999	0	251380	251
492.03125	2	health	foodImageDisplay	1	43	43	foodImage.5	FOODEEG_Images\0107.jpg	YN	Right	No	0.807489000027999	0	251921	252
494.09375	0.807489000027999	health	choicePhaseStart	1	43	43	foodImage.5	FOODEEG_Images\0107.jpg	YN	Right	No	0.807489000027999	0	252977	253
494.892578125	0	health	response	1	43	43	foodImage.5	FOODEEG_Images\0107.jpg	YN	Right	No	0.807489000027999	0	253386	235
495.93359375	1	taste	trialStart	1	44	44	foodImage.38	FOODEEG_Images\0365.jpg	YN	Left	Yes	1.26576039998326	0	253919	251
496.970703125	2	taste	foodImageDisplay	1	44	44	foodImage.38	FOODEEG_Images\0365.jpg	YN	Left	Yes	1.26576039998326	0	254450	252
499.03515625	1.26576039998326	taste	choicePhaseStart	1	44	44	foodImage.38	FOODEEG_Images\0365.jpg	YN	Left	Yes	1.26576039998326	0	255507	253
500.291015625	0	taste	response	1	44	44	foodImage.38	FOODEEG_Images\0365.jpg	YN	Left	Yes	1.26576039998326	0	256150	234
501.337890625	1	taste	trialStart	1	45	45	foodImage.37	FOODEEG_Images\0359.jpg	NY	Left	No	0.674734000000171	0	256686	251
502.37890625	2	taste	foodImageDisplay	1	45	45	foodImage.37	FOODEEG_Images\0359.jpg	NY	Left	No	0.674734000000171	0	257219	252
504.44140625	0.674734000000171	taste	choicePhaseStart	1	45	45	foodImage.37	FOODEEG_Images\0359.jpg	NY	Left	No	0.674734000000171	0	258275	253
505.107421875	0	taste	response	1	45	45	foodImage.37	FOODEEG_Images\0359.jpg	NY	Left	No	0.674734000000171	0	258616	234
506.1640625	1	taste	trialStart	1	46	46	foodImage.77	FOODEEG_Images\0771.jpg	NY	Right	Yes	0.877940899983514	0	259157	251
507.208984375	2	taste	foodImageDisplay	1	46	46	foodImage.77	FOODEEG_Images\0771.jpg	NY	Right	Yes	0.877940899983514	0	259692	252
509.271484375	0.877940899983514	taste	choicePhaseStart	1	46	46	foodImage.77	FOODEEG_Images\0771.jpg	NY	Right	Yes	0.877940899983514	0	260748	253
510.138671875	0	taste	response	1	46	46	foodImage.77	FOODEEG_Images\0771.jpg	NY	Right	Yes	0.877940899983514	0	261192	235
511.1796875	1	health	trialStart	1	47	47	foodImage.96	FOODEEG_Images\0904.jpg	NY	Left	No	0.931069799989928	0	261725	251
512.21875	2	health	foodImageDisplay	1	47	47	foodImage.96	FOODEEG_Images\0904.jpg	NY	Left	No	0.931069799989928	0	262257	252
514.28125	0.931069799989928	health	choicePhaseStart	1	47	47	foodImage.96	FOODEEG_Images\0904.jpg	NY	Left	No	0.931069799989928	0	263313	253
515.203125	0	health	response	1	47	47	foodImage.96	FOODEEG_Images\0904.jpg	NY	Left	No	0.931069799989928	0	263785	234
516.24609375	1	health	trialStart	1	48	48	foodImage.16	FOODEEG_Images\0196.jpg	NY	Right	Yes	0.748731300001964	0	264319	251
517.3046875	2	health	foodImageDisplay	1	48	48	foodImage.16	FOODEEG_Images\0196.jpg	NY	Right	Yes	0.748731300001964	0	264861	252
519.3671875	0.748731300001964	health	choicePhaseStart	1	48	48	foodImage.16	FOODEEG_Images\0196.jpg	NY	Right	Yes	0.748731300001964	0	265917	253
520.107421875	0	health	response	1	48	48	foodImage.16	FOODEEG_Images\0196.jpg	NY	Right	Yes	0.748731300001964	0	266296	235
521.1484375	1	decision	trialStart	1	49	49	foodImage.35	FOODEEG_Images\0350.jpg	YN	Left	Yes	0.663980499957688	0	266829	251
522.189453125	2	decision	foodImageDisplay	1	49	49	foodImage.35	FOODEEG_Images\0350.jpg	YN	Left	Yes	0.663980499957688	0	267362	252
524.251953125	0.663980499957688	decision	choicePhaseStart	1	49	49	foodImage.35	FOODEEG_Images\0350.jpg	YN	Left	Yes	0.663980499957688	0	268418	253
524.90625	0	decision	response	1	49	49	foodImage.35	FOODEEG_Images\0350.jpg	YN	Left	Yes	0.663980499957688	0	268753	234
525.947265625	1	health	trialStart	1	50	50	foodImage.36	FOODEEG_Images\0352.jpg	NY	Left	No	1.15343649999704	0	269286	251
527.00390625	2	health	foodImageDisplay	1	50	50	foodImage.36	FOODEEG_Images\0352.jpg	NY	Left	No	1.15343649999704	0	269827	252
529.06640625	1.15343649999704	health	choicePhaseStart	1	50	50	foodImage.36	FOODEEG_Images\0352.jpg	NY	Left	No	1.15343649999704	0	270883	253
530.2109375	0	health	response	1	50	50	foodImage.36	FOODEEG_Images\0352.jpg	NY	Left	No	1.15343649999704	0	271469	234
531.25	1	health	trialStart	1	51	51	foodImage.11	FOODEEG_Images\0180.jpg	NY	Right	Yes	0.487575300037861	0	272001	251
532.29296875	2	health	foodImageDisplay	1	51	51	foodImage.11	FOODEEG_Images\0180.jpg	NY	Right	Yes	0.487575300037861	0	272535	252
534.35546875	0.487575300037861	health	choicePhaseStart	1	51	51	foodImage.11	FOODEEG_Images\0180.jpg	NY	Right	Yes	0.487575300037861	0	273591	253
534.833984375	0	health	response	1	51	51	foodImage.11	FOODEEG_Images\0180.jpg	NY	Right	Yes	0.487575300037861	0	273836	235
535.873046875	1	health	trialStart	1	52	52	foodImage.65	FOODEEG_Images\0658.jpg	YN	Left	Yes	0.570186799974181	0	274368	251
536.9140625	2	health	foodImageDisplay	1	52	52	foodImage.65	FOODEEG_Images\0658.jpg	YN	Left	Yes	0.570186799974181	0	274901	252
538.9765625	0.570186799974181	health	choicePhaseStart	1	52	52	foodImage.65	FOODEEG_Images\0658.jpg	YN	Left	Yes	0.570186799974181	0	275957	253
539.5390625	0	health	response	1	52	52	foodImage.65	FOODEEG_Images\0658.jpg	YN	Left	Yes	0.570186799974181	0	276245	234
540.578125	1	decision	trialStart	1	53	53	foodImage.74	FOODEEG_Images\0752.jpg	NY	Right	Yes	0.581985900003929	0	276777	251
541.623046875	2	decision	foodImageDisplay	1	53	53	foodImage.74	FOODEEG_Images\0752.jpg	NY	Right	Yes	0.581985900003929	0	277312	252
543.685546875	0.581985900003929	decision	choicePhaseStart	1	53	53	foodImage.74	FOODEEG_Images\0752.jpg	NY	Right	Yes	0.581985900003929	0	278368	253
544.2578125	0	decision	response	1	53	53	foodImage.74	FOODEEG_Images\0752.jpg	NY	Right	Yes	0.581985900003929	0	278661	235
545.30078125	1	taste	trialStart	1	54	54	foodImage.66	FOODEEG_Images\0676.jpg	NY	Right	Yes	0.579721799993422	0	279195	251
546.34375	2	taste	foodImageDisplay	1	54	54	foodImage.66	FOODEEG_Images\0676.jpg	NY	Right	Yes	0.579721799993422	0	279729	252
548.40625	0.579721799993422	taste	choicePhaseStart	1	54	54	foodImage.66	FOODEEG_Images\0676.jpg	NY	Right	Yes	0.579721799993422	0	280785	253
548.978515625	0	taste	response	1	54	54	foodImage.66	FOODEEG_Images\0676.jpg	NY	Right	Yes	0.579721799993422	0	281078	235
550.01953125	1	decision	trialStart	1	55	55	foodImage.95	FOODEEG_Images\0903.jpg	NY	Left	No	1.01893059996655	0	281611	251
551.056640625	2	decision	foodImageDisplay	1	55	55	foodImage.95	FOODEEG_Images\0903.jpg	NY	Left	No	1.01893059996655	0	282142	252
553.119140625	1.01893059996655	decision	choicePhaseStart	1	55	55	foodImage.95	FOODEEG_Images\0903.jpg	NY	Left	No	1.01893059996655	0	283198	253
554.12890625	0	decision	response	1	55	55	foodImage.95	FOODEEG_Images\0903.jpg	NY	Left	No	1.01893059996655	0	283715	234
555.171875	1	decision	trialStart	1	56	56	foodImage.55	FOODEEG_Images\0567.jpg	NY	Right	Yes	0.634002100036014	0	284249	251
556.2265625	2	decision	foodImageDisplay	1	56	56	foodImage.55	FOODEEG_Images\0567.jpg	NY	Right	Yes	0.634002100036014	0	284789	252
558.2890625	0.634002100036014	decision	choicePhaseStart	1	56	56	foodImage.55	FOODEEG_Images\0567.jpg	NY	Right	Yes	0.634002100036014	0	285845	253
558.9140625	0	decision	response	1	56	56	foodImage.55	FOODEEG_Images\0567.jpg	NY	Right	Yes	0.634002100036014	0	286165	235
559.955078125	1	decision	trialStart	1	57	57	foodImage.5	FOODEEG_Images\0107.jpg	YN	Left	Yes	0.633950799994636	0	286698	251
561.01171875	2	decision	foodImageDisplay	1	57	57	foodImage.5	FOODEEG_Images\0107.jpg	YN	Left	Yes	0.633950799994636	0	287239	252
563.07421875	0.633950799994636	decision	choicePhaseStart	1	57	57	foodImage.5	FOODEEG_Images\0107.jpg	YN	Left	Yes	0.633950799994636	0	288295	253
563.697265625	0	decision	response	1	57	57	foodImage.5	FOODEEG_Images\0107.jpg	YN	Left	Yes	0.633950799994636	0	288614	234
564.736328125	1	health	trialStart	1	58	58	foodImage.73	FOODEEG_Images\0717.jpg	YN	Right	No	0.72172450000653	0	289146	251
565.794921875	2	health	foodImageDisplay	1	58	58	foodImage.73	FOODEEG_Images\0717.jpg	YN	Right	No	0.72172450000653	0	289688	252
567.857421875	0.72172450000653	health	choicePhaseStart	1	58	58	foodImage.73	FOODEEG_Images\0717.jpg	YN	Right	No	0.72172450000653	0	290744	253
568.568359375	0	health	response	1	58	58	foodImage.73	FOODEEG_Images\0717.jpg	YN	Right	No	0.72172450000653	0	291108	235
569.611328125	1	taste	trialStart	1	59	59	foodImage.51	FOODEEG_Images\0536.jpg	NY	Right	Yes	0.75410560000455	0	291642	251
570.65625	2	taste	foodImageDisplay	1	59	59	foodImage.51	FOODEEG_Images\0536.jpg	NY	Right	Yes	0.75410560000455	0	292177	252
572.71875	0.75410560000455	taste	choicePhaseStart	1	59	59	foodImage.51	FOODEEG_Images\0536.jpg	NY	Right	Yes	0.75410560000455	0	293233	253
573.46484375	0	taste	response	1	59	59	foodImage.51	FOODEEG_Images\0536.jpg	NY	Right	Yes	0.75410560000455	0	293615	235
574.505859375	1	decision	trialStart	1	60	60	foodImage.78	FOODEEG_Images\0787.jpg	YN	Right	No	0.661201899987645	0	294148	251
575.548828125	2	decision	foodImageDisplay	1	60	60	foodImage.78	FOODEEG_Images\0787.jpg	YN	Right	No	0.661201899987645	0	294682	252
577.611328125	0.661201899987645	decision	choicePhaseStart	1	60	60	foodImage.78	FOODEEG_Images\0787.jpg	YN	Right	No	0.661201899987645	0	295738	253
578.263671875	0	decision	response	1	60	60	foodImage.78	FOODEEG_Images\0787.jpg	YN	Right	No	0.661201899987645	0	296072	235
580.302734375	38.4765625	n/a	blockEnd	n/a	n/a	n/a	n/a	n/a	n/a	n/a	n/a	n/a	n/a	297116	254
618.779296875	2	n/a	blockStart	2	n/a	n/a	n/a	n/a	n/a	n/a	n/a	n/a	n/a	316816	250
620.818359375	1	health	trialStart	2	61	1	foodImage.117	FOODEEG_Images\0925.jpg	NY	Right	Yes	0.908273899985943	0	317860	251
621.859375	2	health	foodImageDisplay	2	61	1	foodImage.117	FOODEEG_Images\0925.jpg	NY	Right	Yes	0.908273899985943	0	318393	252
623.921875	0.908273899985943	health	choicePhaseStart	2	61	1	foodImage.117	FOODEEG_Images\0925.jpg	NY	Right	Yes	0.908273899985943	0	319449	253
624.822265625	0	health	response	2	61	1	foodImage.117	FOODEEG_Images\0925.jpg	NY	Right	Yes	0.908273899985943	0	319910	235
625.86328125	1	health	trialStart	2	62	2	foodImage.44	FOODEEG_Images\0459.jpg	NY	Right	Yes	0.609578900039196	0	320443	251
626.91015625	2	health	foodImageDisplay	2	62	2	foodImage.44	FOODEEG_Images\0459.jpg	NY	Right	Yes	0.609578900039196	0	320979	252
628.97265625	0.609578900039196	health	choicePhaseStart	2	62	2	foodImage.44	FOODEEG_Images\0459.jpg	NY	Right	Yes	0.609578900039196	0	322035	253
629.57421875	0	health	response	2	62	2	foodImage.44	FOODEEG_Images\0459.jpg	NY	Right	Yes	0.609578900039196	0	322343	235
630.6171875	1	health	trialStart	2	63	3	foodImage.23	FOODEEG_Images\0244.jpg	YN	Left	Yes	0.622134800010826	0	322877	251
631.658203125	2	health	foodImageDisplay	2	63	3	foodImage.23	FOODEEG_Images\0244.jpg	YN	Left	Yes	0.622134800010826	0	323410	252
633.720703125	0.622134800010826	health	choicePhaseStart	2	63	3	foodImage.23	FOODEEG_Images\0244.jpg	YN	Left	Yes	0.622134800010826	0	324466	253
634.333984375	0	health	response	2	63	3	foodImage.23	FOODEEG_Images\0244.jpg	YN	Left	Yes	0.622134800010826	0	324780	234
635.376953125	1	taste	trialStart	2	64	4	foodImage.72	FOODEEG_Images\0714.jpg	NY	Right	Yes	0.774752599943895	0	325314	251
636.41796875	2	taste	foodImageDisplay	2	64	4	foodImage.72	FOODEEG_Images\0714.jpg	NY	Right	Yes	0.774752599943895	0	325847	252
638.48046875	0.774752599943895	taste	choicePhaseStart	2	64	4	foodImage.72	FOODEEG_Images\0714.jpg	NY	Right	Yes	0.774752599943895	0	326903	253
639.24609375	0	taste	response	2	64	4	foodImage.72	FOODEEG_Images\0714.jpg	NY	Right	Yes	0.774752599943895	0	327295	235
640.287109375	1	taste	trialStart	2	65	5	foodImage.104	FOODEEG_Images\0912.jpg	NY	Right	Yes	0.63659520004876	0	327828	251
641.32421875	2	taste	foodImageDisplay	2	65	5	foodImage.104	FOODEEG_Images\0912.jpg	NY	Right	Yes	0.63659520004876	0	328359	252
643.38671875	0.63659520004876	taste	choicePhaseStart	2	65	5	foodImage.104	FOODEEG_Images\0912.jpg	NY	Right	Yes	0.63659520004876	0	329415	253
644.013671875	0	taste	response	2	65	5	foodImage.104	FOODEEG_Images\0912.jpg	NY	Right	Yes	0.63659520004876	0	329736	235
645.0546875	1	decision	trialStart	2	66	6	foodImage.53	FOODEEG_Images\0547.jpg	NY	Right	Yes	0.597895000013523	0	330269	251
646.138671875	2	decision	foodImageDisplay	2	66	6	foodImage.53	FOODEEG_Images\0547.jpg	NY	Right	Yes	0.597895000013523	0	330824	252
648.201171875	0.597895000013523	decision	choicePhaseStart	2	66	6	foodImage.53	FOODEEG_Images\0547.jpg	NY	Right	Yes	0.597895000013523	0	331880	253
648.7890625	0	decision	response	2	66	6	foodImage.53	FOODEEG_Images\0547.jpg	NY	Right	Yes	0.597895000013523	0	332181	235
649.833984375	1	health	trialStart	2	67	7	foodImage.26	FOODEEG_Images\0262.jpg	YN	Left	Yes	0.730660200002603	0	332716	251
650.876953125	2	health	foodImageDisplay	2	67	7	foodImage.26	FOODEEG_Images\0262.jpg	YN	Left	Yes	0.730660200002603	0	333250	252
652.939453125	0.730660200002603	health	choicePhaseStart	2	67	7	foodImage.26	FOODEEG_Images\0262.jpg	YN	Left	Yes	0.730660200002603	0	334306	253
653.662109375	0	health	response	2	67	7	foodImage.26	FOODEEG_Images\0262.jpg	YN	Left	Yes	0.730660200002603	0	334676	234
654.701171875	1	health	trialStart	2	68	8	foodImage.19	FOODEEG_Images\0225.jpg	NY	Right	Yes	0.756649300048593	0	335208	251
655.744140625	2	health	foodImageDisplay	2	68	8	foodImage.19	FOODEEG_Images\0225.jpg	NY	Right	Yes	0.756649300048593	0	335742	252
657.806640625	0.756649300048593	health	choicePhaseStart	2	68	8	foodImage.19	FOODEEG_Images\0225.jpg	NY	Right	Yes	0.756649300048593	0	336798	253
658.556640625	0	health	response	2	68	8	foodImage.19	FOODEEG_Images\0225.jpg	NY	Right	Yes	0.756649300048593	0	337182	235
659.599609375	1	health	trialStart	2	69	9	foodImage.25	FOODEEG_Images\0261.jpg	NY	Right	Yes	0.639388100011274	0	337716	251
660.64453125	2	health	foodImageDisplay	2	69	9	foodImage.25	FOODEEG_Images\0261.jpg	NY	Right	Yes	0.639388100011274	0	338251	252
662.7109375	0.639388100011274	health	choicePhaseStart	2	69	9	foodImage.25	FOODEEG_Images\0261.jpg	NY	Right	Yes	0.639388100011274	0	339309	253
663.341796875	0	health	response	2	69	9	foodImage.25	FOODEEG_Images\0261.jpg	NY	Right	Yes	0.639388100011274	0	339632	235
664.380859375	1	decision	trialStart	2	70	10	foodImage.40	FOODEEG_Images\0373.jpg	YN	Left	Yes	0.553087099979166	0	340164	251
665.421875	2	decision	foodImageDisplay	2	70	10	foodImage.40	FOODEEG_Images\0373.jpg	YN	Left	Yes	0.553087099979166	0	340697	252
667.484375	0.553087099979166	decision	choicePhaseStart	2	70	10	foodImage.40	FOODEEG_Images\0373.jpg	YN	Left	Yes	0.553087099979166	0	341753	253
668.029296875	0	decision	response	2	70	10	foodImage.40	FOODEEG_Images\0373.jpg	YN	Left	Yes	0.553087099979166	0	342032	234
669.072265625	1	decision	trialStart	2	71	11	foodImage.21	FOODEEG_Images\0234.jpg	NY	Right	Yes	0.57805609999923	0	342566	251
670.130859375	2	decision	foodImageDisplay	2	71	11	foodImage.21	FOODEEG_Images\0234.jpg	NY	Right	Yes	0.57805609999923	0	343108	252
672.193359375	0.57805609999923	decision	choicePhaseStart	2	71	11	foodImage.21	FOODEEG_Images\0234.jpg	NY	Right	Yes	0.57805609999923	0	344164	253
672.765625	0	decision	response	2	71	11	foodImage.21	FOODEEG_Images\0234.jpg	NY	Right	Yes	0.57805609999923	0	344457	235
673.8046875	1	taste	trialStart	2	72	12	foodImage.82	FOODEEG_Images\0805.jpg	YN	Right	No	0.614734500006307	0	344989	251
674.857421875	2	taste	foodImageDisplay	2	72	12	foodImage.82	FOODEEG_Images\0805.jpg	YN	Right	No	0.614734500006307	0	345528	252
676.919921875	0.614734500006307	taste	choicePhaseStart	2	72	12	foodImage.82	FOODEEG_Images\0805.jpg	YN	Right	No	0.614734500006307	0	346584	253
677.525390625	0	taste	response	2	72	12	foodImage.82	FOODEEG_Images\0805.jpg	YN	Right	No	0.614734500006307	0	346894	235
678.564453125	1	health	trialStart	2	73	13	foodImage.76	FOODEEG_Images\0766.jpg	YN	Left	Yes	0.572330800001509	0	347426	251
679.609375	2	health	foodImageDisplay	2	73	13	foodImage.76	FOODEEG_Images\0766.jpg	YN	Left	Yes	0.572330800001509	0	347961	252
681.671875	0.572330800001509	health	choicePhaseStart	2	73	13	foodImage.76	FOODEEG_Images\0766.jpg	YN	Left	Yes	0.572330800001509	0	349017	253
682.236328125	0	health	response	2	73	13	foodImage.76	FOODEEG_Images\0766.jpg	YN	Left	Yes	0.572330800001509	0	349306	234
683.279296875	1	taste	trialStart	2	74	14	foodImage.62	FOODEEG_Images\0644.jpg	NY	Right	Yes	0.627682499994989	0	349840	251
684.337890625	2	taste	foodImageDisplay	2	74	14	foodImage.62	FOODEEG_Images\0644.jpg	NY	Right	Yes	0.627682499994989	0	350382	252
686.400390625	0.627682499994989	taste	choicePhaseStart	2	74	14	foodImage.62	FOODEEG_Images\0644.jpg	NY	Right	Yes	0.627682499994989	0	351438	253
687.01953125	0	taste	response	2	74	14	foodImage.62	FOODEEG_Images\0644.jpg	NY	Right	Yes	0.627682499994989	0	351755	235
688.0625	1	health	trialStart	2	75	15	foodImage.22	FOODEEG_Images\0236.jpg	YN	Left	Yes	0.924021599988919	0	352289	251
689.10546875	2	health	foodImageDisplay	2	75	15	foodImage.22	FOODEEG_Images\0236.jpg	YN	Left	Yes	0.924021599988919	0	352823	252
691.16796875	0.924021599988919	health	choicePhaseStart	2	75	15	foodImage.22	FOODEEG_Images\0236.jpg	YN	Left	Yes	0.924021599988919	0	353879	253
692.083984375	0	health	response	2	75	15	foodImage.22	FOODEEG_Images\0236.jpg	YN	Left	Yes	0.924021599988919	0	354348	234
693.126953125	1	decision	trialStart	2	76	16	foodImage.101	FOODEEG_Images\0909.jpg	NY	Left	No	0.664372199971694	0	354882	251
694.1640625	2	decision	foodImageDisplay	2	76	16	foodImage.101	FOODEEG_Images\0909.jpg	NY	Left	No	0.664372199971694	0	355413	252
696.2265625	0.664372199971694	decision	choicePhaseStart	2	76	16	foodImage.101	FOODEEG_Images\0909.jpg	NY	Left	No	0.664372199971694	0	356469	253
696.8828125	0	decision	response	2	76	16	foodImage.101	FOODEEG_Images\0909.jpg	NY	Left	No	0.664372199971694	0	356805	234
697.927734375	1	taste	trialStart	2	77	17	foodImage.44	FOODEEG_Images\0459.jpg	NY	Right	Yes	0.707268600002863	0	357340	251
698.970703125	2	taste	foodImageDisplay	2	77	17	foodImage.44	FOODEEG_Images\0459.jpg	NY	Right	Yes	0.707268600002863	0	357874	252
701.033203125	0.707268600002863	taste	choicePhaseStart	2	77	17	foodImage.44	FOODEEG_Images\0459.jpg	NY	Right	Yes	0.707268600002863	0	358930	253
701.73046875	0	taste	response	2	77	17	foodImage.44	FOODEEG_Images\0459.jpg	NY	Right	Yes	0.707268600002863	0	359287	235
702.771484375	1	health	trialStart	2	78	18	foodImage.63	FOODEEG_Images\0645.jpg	YN	Right	No	1.06500010000309	0	359820	251
703.8125	2	health	foodImageDisplay	2	78	18	foodImage.63	FOODEEG_Images\0645.jpg	YN	Right	No	1.06500010000309	0	360353	252
705.875	1.06500010000309	health	choicePhaseStart	2	78	18	foodImage.63	FOODEEG_Images\0645.jpg	YN	Right	No	1.06500010000309	0	361409	253
706.931640625	0	health	response	2	78	18	foodImage.63	FOODEEG_Images\0645.jpg	YN	Right	No	1.06500010000309	0	361950	235
707.974609375	1	decision	trialStart	2	79	19	foodImage.24	FOODEEG_Images\0250.jpg	NY	Left	No	1.31838719994994	0	362484	251
709.015625	2	decision	foodImageDisplay	2	79	19	foodImage.24	FOODEEG_Images\0250.jpg	NY	Left	No	1.31838719994994	0	363017	252
711.078125	1.31838719994994	decision	choicePhaseStart	2	79	19	foodImage.24	FOODEEG_Images\0250.jpg	NY	Left	No	1.31838719994994	0	364073	253
712.38671875	0	decision	response	2	79	19	foodImage.24	FOODEEG_Images\0250.jpg	NY	Left	No	1.31838719994994	0	364743	234
713.4296875	1	decision	trialStart	2	80	20	foodImage.114	FOODEEG_Images\0922.jpg	NY	Right	Yes	0.594205200031865	0	365277	251
714.466796875	2	decision	foodImageDisplay	2	80	20	foodImage.114	FOODEEG_Images\0922.jpg	NY	Right	Yes	0.594205200031865	0	365808	252
716.529296875	0.594205200031865	decision	choicePhaseStart	2	80	20	foodImage.114	FOODEEG_Images\0922.jpg	NY	Right	Yes	0.594205200031865	0	366864	253
717.115234375	0	decision	response	2	80	20	foodImage.114	FOODEEG_Images\0922.jpg	NY	Right	Yes	0.594205200031865	0	367164	235
718.158203125	1	taste	trialStart	2	81	21	foodImage.47	FOODEEG_Images\0488.jpg	NY	Right	Yes	0.628304800018668	0	367698	251
719.201171875	2	taste	foodImageDisplay	2	81	21	foodImage.47	FOODEEG_Images\0488.jpg	NY	Right	Yes	0.628304800018668	0	368232	252
721.263671875	0.628304800018668	taste	choicePhaseStart	2	81	21	foodImage.47	FOODEEG_Images\0488.jpg	NY	Right	Yes	0.628304800018668	0	369288	253
721.8828125	0	taste	response	2	81	21	foodImage.47	FOODEEG_Images\0488.jpg	NY	Right	Yes	0.628304800018668	0	369605	235
722.9296875	1	health	trialStart	2	82	22	foodImage.45	FOODEEG_Images\0478.jpg	YN	Left	Yes	1.69098549999762	0	370141	251
723.9765625	2	health	foodImageDisplay	2	82	22	foodImage.45	FOODEEG_Images\0478.jpg	YN	Left	Yes	1.69098549999762	0	370677	252
726.0390625	1.69098549999762	health	choicePhaseStart	2	82	22	foodImage.45	FOODEEG_Images\0478.jpg	YN	Left	Yes	1.69098549999762	0	371733	253
727.72265625	0	health	response	2	82	22	foodImage.45	FOODEEG_Images\0478.jpg	YN	Left	Yes	1.69098549999762	0	372595	234
728.765625	1	health	trialStart	2	83	23	foodImage.99	FOODEEG_Images\0907.jpg	YN	Right	No	0.9800138999708	0	373129	251
729.806640625	2	health	foodImageDisplay	2	83	23	foodImage.99	FOODEEG_Images\0907.jpg	YN	Right	No	0.9800138999708	0	373662	252
731.869140625	0.9800138999708	health	choicePhaseStart	2	83	23	foodImage.99	FOODEEG_Images\0907.jpg	YN	Right	No	0.9800138999708	0	374718	253
732.841796875	0	health	response	2	83	23	foodImage.99	FOODEEG_Images\0907.jpg	YN	Right	No	0.9800138999708	0	375216	235
733.88671875	1	taste	trialStart	2	84	24	foodImage.98	FOODEEG_Images\0906.jpg	NY	Left	No	0.734965300012846	0	375751	251
734.92578125	2	taste	foodImageDisplay	2	84	24	foodImage.98	FOODEEG_Images\0906.jpg	NY	Left	No	0.734965300012846	0	376283	252
736.98828125	0.734965300012846	taste	choicePhaseStart	2	84	24	foodImage.98	FOODEEG_Images\0906.jpg	NY	Left	No	0.734965300012846	0	377339	253
737.71484375	0	taste	response	2	84	24	foodImage.98	FOODEEG_Images\0906.jpg	NY	Left	No	0.734965300012846	0	377711	234
738.755859375	1	health	trialStart	2	85	25	foodImage.37	FOODEEG_Images\0359.jpg	YN	Left	Yes	0.849291999998968	0	378244	251
739.794921875	2	health	foodImageDisplay	2	85	25	foodImage.37	FOODEEG_Images\0359.jpg	YN	Left	Yes	0.849291999998968	0	378776	252
741.859375	0.849291999998968	health	choicePhaseStart	2	85	25	foodImage.37	FOODEEG_Images\0359.jpg	YN	Left	Yes	0.849291999998968	0	379833	253
742.697265625	0	health	response	2	85	25	foodImage.37	FOODEEG_Images\0359.jpg	YN	Left	Yes	0.849291999998968	0	380262	234
743.7421875	1	taste	trialStart	2	86	26	foodImage.73	FOODEEG_Images\0717.jpg	NY	Right	Yes	0.773504200042225	0	380797	251
744.80078125	2	taste	foodImageDisplay	2	86	26	foodImage.73	FOODEEG_Images\0717.jpg	NY	Right	Yes	0.773504200042225	0	381339	252
746.86328125	0.773504200042225	taste	choicePhaseStart	2	86	26	foodImage.73	FOODEEG_Images\0717.jpg	NY	Right	Yes	0.773504200042225	0	382395	253
747.625	0	taste	response	2	86	26	foodImage.73	FOODEEG_Images\0717.jpg	NY	Right	Yes	0.773504200042225	0	382785	235
748.669921875	1	decision	trialStart	2	87	27	foodImage.79	FOODEEG_Images\0794.jpg	YN	Left	Yes	0.800489399989601	0	383320	251
749.71484375	2	decision	foodImageDisplay	2	87	27	foodImage.79	FOODEEG_Images\0794.jpg	YN	Left	Yes	0.800489399989601	0	383855	252
751.77734375	0.800489399989601	decision	choicePhaseStart	2	87	27	foodImage.79	FOODEEG_Images\0794.jpg	YN	Left	Yes	0.800489399989601	0	384911	253
752.5703125	0	decision	response	2	87	27	foodImage.79	FOODEEG_Images\0794.jpg	YN	Left	Yes	0.800489399989601	0	385317	234
753.611328125	1	decision	trialStart	2	88	28	foodImage.14	FOODEEG_Images\0188.jpg	YN	Left	Yes	0.71101260004798	0	385850	251
754.66796875	2	decision	foodImageDisplay	2	88	28	foodImage.14	FOODEEG_Images\0188.jpg	YN	Left	Yes	0.71101260004798	0	386391	252
756.73046875	0.71101260004798	decision	choicePhaseStart	2	88	28	foodImage.14	FOODEEG_Images\0188.jpg	YN	Left	Yes	0.71101260004798	0	387447	253
757.43359375	0	decision	response	2	88	28	foodImage.14	FOODEEG_Images\0188.jpg	YN	Left	Yes	0.71101260004798	0	387807	234
758.478515625	1	health	trialStart	2	89	29	foodImage.35	FOODEEG_Images\0350.jpg	YN	Right	No	0.621839200030081	0	388342	251
759.517578125	2	health	foodImageDisplay	2	89	29	foodImage.35	FOODEEG_Images\0350.jpg	YN	Right	No	0.621839200030081	0	388874	252
761.580078125	0.621839200030081	health	choicePhaseStart	2	89	29	foodImage.35	FOODEEG_Images\0350.jpg	YN	Right	No	0.621839200030081	0	389930	253
762.193359375	0	health	response	2	89	29	foodImage.35	FOODEEG_Images\0350.jpg	YN	Right	No	0.621839200030081	0	390244	235
763.234375	1	decision	trialStart	2	90	30	foodImage.112	FOODEEG_Images\0920.jpg	YN	Right	No	0.547144100011792	0	390777	251
764.271484375	2	decision	foodImageDisplay	2	90	30	foodImage.112	FOODEEG_Images\0920.jpg	YN	Right	No	0.547144100011792	0	391308	252
766.333984375	0.547144100011792	decision	choicePhaseStart	2	90	30	foodImage.112	FOODEEG_Images\0920.jpg	YN	Right	No	0.547144100011792	0	392364	253
766.873046875	0	decision	response	2	90	30	foodImage.112	FOODEEG_Images\0920.jpg	YN	Right	No	0.547144100011792	0	392640	235
767.916015625	1	health	trialStart	2	91	31	foodImage.57	FOODEEG_Images\0587.jpg	NY	Left	No	0.778433900035452	0	393174	251
768.9609375	2	health	foodImageDisplay	2	91	31	foodImage.57	FOODEEG_Images\0587.jpg	NY	Left	No	0.778433900035452	0	393709	252
771.0234375	0.778433900035452	health	choicePhaseStart	2	91	31	foodImage.57	FOODEEG_Images\0587.jpg	NY	Left	No	0.778433900035452	0	394765	253
771.79296875	0	health	response	2	91	31	foodImage.57	FOODEEG_Images\0587.jpg	NY	Left	No	0.778433900035452	0	395159	234
772.8359375	1	decision	trialStart	2	92	32	foodImage.32	FOODEEG_Images\0319.jpg	YN	Left	Yes	0.613740500004496	0	395693	251
773.876953125	2	decision	foodImageDisplay	2	92	32	foodImage.32	FOODEEG_Images\0319.jpg	YN	Left	Yes	0.613740500004496	0	396226	252
775.939453125	0.613740500004496	decision	choicePhaseStart	2	92	32	foodImage.32	FOODEEG_Images\0319.jpg	YN	Left	Yes	0.613740500004496	0	397282	253
776.544921875	0	decision	response	2	92	32	foodImage.32	FOODEEG_Images\0319.jpg	YN	Left	Yes	0.613740500004496	0	397592	234
777.587890625	1	health	trialStart	2	93	33	foodImage.46	FOODEEG_Images\0479.jpg	NY	Right	Yes	0.565886099997442	0	398126	251
778.64453125	2	health	foodImageDisplay	2	93	33	foodImage.46	FOODEEG_Images\0479.jpg	NY	Right	Yes	0.565886099997442	0	398667	252
780.70703125	0.565886099997442	health	choicePhaseStart	2	93	33	foodImage.46	FOODEEG_Images\0479.jpg	NY	Right	Yes	0.565886099997442	0	399723	253
781.263671875	0	health	response	2	93	33	foodImage.46	FOODEEG_Images\0479.jpg	NY	Right	Yes	0.565886099997442	0	400008	235
782.30859375	1	health	trialStart	2	94	34	foodImage.38	FOODEEG_Images\0365.jpg	YN	Left	Yes	0.616214300040156	0	400543	251
783.345703125	2	health	foodImageDisplay	2	94	34	foodImage.38	FOODEEG_Images\0365.jpg	YN	Left	Yes	0.616214300040156	0	401074	252
785.408203125	0.616214300040156	health	choicePhaseStart	2	94	34	foodImage.38	FOODEEG_Images\0365.jpg	YN	Left	Yes	0.616214300040156	0	402130	253
786.015625	0	health	response	2	94	34	foodImage.38	FOODEEG_Images\0365.jpg	YN	Left	Yes	0.616214300040156	0	402441	234
787.056640625	1	health	trialStart	2	95	35	foodImage.95	FOODEEG_Images\0903.jpg	YN	Right	No	0.709607600001618	0	402974	251
788.09375	2	health	foodImageDisplay	2	95	35	foodImage.95	FOODEEG_Images\0903.jpg	YN	Right	No	0.709607600001618	0	403505	252
790.15625	0.709607600001618	health	choicePhaseStart	2	95	35	foodImage.95	FOODEEG_Images\0903.jpg	YN	Right	No	0.709607600001618	0	404561	253
790.85546875	0	health	response	2	95	35	foodImage.95	FOODEEG_Images\0903.jpg	YN	Right	No	0.709607600001618	0	404919	235
791.900390625	1	decision	trialStart	2	96	36	foodImage.13	FOODEEG_Images\0183.jpg	NY	Right	Yes	0.730750899994746	0	405454	251
792.94140625	2	decision	foodImageDisplay	2	96	36	foodImage.13	FOODEEG_Images\0183.jpg	NY	Right	Yes	0.730750899994746	0	405987	252
795.00390625	0.730750899994746	decision	choicePhaseStart	2	96	36	foodImage.13	FOODEEG_Images\0183.jpg	NY	Right	Yes	0.730750899994746	0	407043	253
795.728515625	0	decision	response	2	96	36	foodImage.13	FOODEEG_Images\0183.jpg	NY	Right	Yes	0.730750899994746	0	407414	235
796.771484375	1	health	trialStart	2	97	37	foodImage.120	FOODEEG_Images\0928.jpg	NY	Left	No	0.75036360003287	0	407948	251
797.810546875	2	health	foodImageDisplay	2	97	37	foodImage.120	FOODEEG_Images\0928.jpg	NY	Left	No	0.75036360003287	0	408480	252
799.873046875	0.75036360003287	health	choicePhaseStart	2	97	37	foodImage.120	FOODEEG_Images\0928.jpg	NY	Left	No	0.75036360003287	0	409536	253
800.615234375	0	health	response	2	97	37	foodImage.120	FOODEEG_Images\0928.jpg	NY	Left	No	0.75036360003287	0	409916	234
801.65625	1	decision	trialStart	2	98	38	foodImage.76	FOODEEG_Images\0766.jpg	NY	Right	Yes	0.925156800018158	0	410449	251
802.701171875	2	decision	foodImageDisplay	2	98	38	foodImage.76	FOODEEG_Images\0766.jpg	NY	Right	Yes	0.925156800018158	0	410984	252
804.763671875	0.925156800018158	decision	choicePhaseStart	2	98	38	foodImage.76	FOODEEG_Images\0766.jpg	NY	Right	Yes	0.925156800018158	0	412040	253
805.6796875	0	decision	response	2	98	38	foodImage.76	FOODEEG_Images\0766.jpg	NY	Right	Yes	0.925156800018158	0	412509	235
806.72265625	1	taste	trialStart	2	99	39	foodImage.78	FOODEEG_Images\0787.jpg	NY	Left	No	0.628745599999093	0	413043	251
807.763671875	2	taste	foodImageDisplay	2	99	39	foodImage.78	FOODEEG_Images\0787.jpg	NY	Left	No	0.628745599999093	0	413576	252
809.826171875	0.628745599999093	taste	choicePhaseStart	2	99	39	foodImage.78	FOODEEG_Images\0787.jpg	NY	Left	No	0.628745599999093	0	414632	253
810.447265625	0	taste	response	2	99	39	foodImage.78	FOODEEG_Images\0787.jpg	NY	Left	No	0.628745599999093	0	414950	234
811.490234375	1	taste	trialStart	2	100	40	foodImage.83	FOODEEG_Images\0827.jpg	NY	Right	Yes	1.01145380001981	0	415484	251
812.548828125	2	taste	foodImageDisplay	2	100	40	foodImage.83	FOODEEG_Images\0827.jpg	NY	Right	Yes	1.01145380001981	0	416026	252
814.611328125	1.01145380001981	taste	choicePhaseStart	2	100	40	foodImage.83	FOODEEG_Images\0827.jpg	NY	Right	Yes	1.01145380001981	0	417082	253
815.615234375	0	taste	response	2	100	40	foodImage.83	FOODEEG_Images\0827.jpg	NY	Right	Yes	1.01145380001981	0	417596	235
816.65625	1	taste	trialStart	2	101	41	foodImage.75	FOODEEG_Images\0763.jpg	YN	Right	No	0.587069900007918	0	418129	251
817.701171875	2	taste	foodImageDisplay	2	101	41	foodImage.75	FOODEEG_Images\0763.jpg	YN	Right	No	0.587069900007918	0	418664	252
819.763671875	0.587069900007918	taste	choicePhaseStart	2	101	41	foodImage.75	FOODEEG_Images\0763.jpg	YN	Right	No	0.587069900007918	0	419720	253
820.34375	0	taste	response	2	101	41	foodImage.75	FOODEEG_Images\0763.jpg	YN	Right	No	0.587069900007918	0	420017	235
821.384765625	1	decision	trialStart	2	102	42	foodImage.22	FOODEEG_Images\0236.jpg	YN	Right	No	0.837979300005827	0	420550	251
822.42578125	2	decision	foodImageDisplay	2	102	42	foodImage.22	FOODEEG_Images\0236.jpg	YN	Right	No	0.837979300005827	0	421083	252
824.48828125	0.837979300005827	decision	choicePhaseStart	2	102	42	foodImage.22	FOODEEG_Images\0236.jpg	YN	Right	No	0.837979300005827	0	422139	253
825.318359375	0	decision	response	2	102	42	foodImage.22	FOODEEG_Images\0236.jpg	YN	Right	No	0.837979300005827	0	422564	235
826.36328125	1	health	trialStart	2	103	43	foodImage.75	FOODEEG_Images\0763.jpg	NY	Right	Yes	1.172100100026	0	423099	251
827.404296875	2	health	foodImageDisplay	2	103	43	foodImage.75	FOODEEG_Images\0763.jpg	NY	Right	Yes	1.172100100026	0	423632	252
829.466796875	1.172100100026	health	choicePhaseStart	2	103	43	foodImage.75	FOODEEG_Images\0763.jpg	NY	Right	Yes	1.172100100026	0	424688	253
830.630859375	0	health	response	2	103	43	foodImage.75	FOODEEG_Images\0763.jpg	NY	Right	Yes	1.172100100026	0	425284	235
831.673828125	1	decision	trialStart	2	104	44	foodImage.120	FOODEEG_Images\0928.jpg	NY	Left	No	0.744340000033844	0	425818	251
832.7109375	2	decision	foodImageDisplay	2	104	44	foodImage.120	FOODEEG_Images\0928.jpg	NY	Left	No	0.744340000033844	0	426349	252
834.7734375	0.744340000033844	decision	choicePhaseStart	2	104	44	foodImage.120	FOODEEG_Images\0928.jpg	NY	Left	No	0.744340000033844	0	427405	253
835.509765625	0	decision	response	2	104	44	foodImage.120	FOODEEG_Images\0928.jpg	NY	Left	No	0.744340000033844	0	427782	234
836.552734375	1	decision	trialStart	2	105	45	foodImage.62	FOODEEG_Images\0644.jpg	YN	Right	No	0.621496900042985	0	428316	251
837.609375	2	decision	foodImageDisplay	2	105	45	foodImage.62	FOODEEG_Images\0644.jpg	YN	Right	No	0.621496900042985	0	428857	252
839.671875	0.621496900042985	decision	choicePhaseStart	2	105	45	foodImage.62	FOODEEG_Images\0644.jpg	YN	Right	No	0.621496900042985	0	429913	253
840.287109375	0	decision	response	2	105	45	foodImage.62	FOODEEG_Images\0644.jpg	YN	Right	No	0.621496900042985	0	430228	235
841.333984375	1	decision	trialStart	2	106	46	foodImage.90	FOODEEG_Images\0890.jpg	NY	Left	No	0.759469000040554	0	430764	251
842.392578125	2	decision	foodImageDisplay	2	106	46	foodImage.90	FOODEEG_Images\0890.jpg	NY	Left	No	0.759469000040554	0	431306	252
844.455078125	0.759469000040554	decision	choicePhaseStart	2	106	46	foodImage.90	FOODEEG_Images\0890.jpg	NY	Left	No	0.759469000040554	0	432362	253
845.205078125	0	decision	response	2	106	46	foodImage.90	FOODEEG_Images\0890.jpg	NY	Left	No	0.759469000040554	0	432746	234
846.248046875	1	decision	trialStart	2	107	47	foodImage.85	FOODEEG_Images\0841.jpg	YN	Left	Yes	0.583755900035612	0	433280	251
847.30859375	2	decision	foodImageDisplay	2	107	47	foodImage.85	FOODEEG_Images\0841.jpg	YN	Left	Yes	0.583755900035612	0	433823	252
849.375	0.583755900035612	decision	choicePhaseStart	2	107	47	foodImage.85	FOODEEG_Images\0841.jpg	YN	Left	Yes	0.583755900035612	0	434881	253
849.94921875	0	decision	response	2	107	47	foodImage.85	FOODEEG_Images\0841.jpg	YN	Left	Yes	0.583755900035612	0	435175	234
850.994140625	1	decision	trialStart	2	108	48	foodImage.67	FOODEEG_Images\0679.jpg	NY	Right	Yes	0.573320400028024	0	435710	251
852.05078125	2	decision	foodImageDisplay	2	108	48	foodImage.67	FOODEEG_Images\0679.jpg	NY	Right	Yes	0.573320400028024	0	436251	252
854.11328125	0.573320400028024	decision	choicePhaseStart	2	108	48	foodImage.67	FOODEEG_Images\0679.jpg	NY	Right	Yes	0.573320400028024	0	437307	253
854.677734375	0	decision	response	2	108	48	foodImage.67	FOODEEG_Images\0679.jpg	NY	Right	Yes	0.573320400028024	0	437596	235
855.720703125	1	health	trialStart	2	109	49	foodImage.41	FOODEEG_Images\0409.jpg	YN	Left	Yes	0.708947700040881	0	438130	251
856.767578125	2	health	foodImageDisplay	2	109	49	foodImage.41	FOODEEG_Images\0409.jpg	YN	Left	Yes	0.708947700040881	0	438666	252
858.833984375	0.708947700040881	health	choicePhaseStart	2	109	49	foodImage.41	FOODEEG_Images\0409.jpg	YN	Left	Yes	0.708947700040881	0	439724	253
859.533203125	0	health	response	2	109	49	foodImage.41	FOODEEG_Images\0409.jpg	YN	Left	Yes	0.708947700040881	0	440082	234
860.576171875	1	health	trialStart	2	110	50	foodImage.59	FOODEEG_Images\0607.jpg	NY	Left	No	0.911209599988069	0	440616	251
861.623046875	2	health	foodImageDisplay	2	110	50	foodImage.59	FOODEEG_Images\0607.jpg	NY	Left	No	0.911209599988069	0	441152	252
863.685546875	0.911209599988069	health	choicePhaseStart	2	110	50	foodImage.59	FOODEEG_Images\0607.jpg	NY	Left	No	0.911209599988069	0	442208	253
864.58984375	0	health	response	2	110	50	foodImage.59	FOODEEG_Images\0607.jpg	NY	Left	No	0.911209599988069	0	442671	234
865.630859375	1	decision	trialStart	2	111	51	foodImage.12	FOODEEG_Images\0181.jpg	YN	Right	No	0.964947400032543	0	443204	251
866.673828125	2	decision	foodImageDisplay	2	111	51	foodImage.12	FOODEEG_Images\0181.jpg	YN	Right	No	0.964947400032543	0	443738	252
868.736328125	0.964947400032543	decision	choicePhaseStart	2	111	51	foodImage.12	FOODEEG_Images\0181.jpg	YN	Right	No	0.964947400032543	0	444794	253
869.693359375	0	decision	response	2	111	51	foodImage.12	FOODEEG_Images\0181.jpg	YN	Right	No	0.964947400032543	0	445284	235
870.736328125	1	decision	trialStart	2	112	52	foodImage.19	FOODEEG_Images\0225.jpg	NY	Right	Yes	0.667347799986601	0	445818	251
871.779296875	2	decision	foodImageDisplay	2	112	52	foodImage.19	FOODEEG_Images\0225.jpg	NY	Right	Yes	0.667347799986601	0	446352	252
873.841796875	0.667347799986601	decision	choicePhaseStart	2	112	52	foodImage.19	FOODEEG_Images\0225.jpg	NY	Right	Yes	0.667347799986601	0	447408	253
874.5	0	decision	response	2	112	52	foodImage.19	FOODEEG_Images\0225.jpg	NY	Right	Yes	0.667347799986601	0	447745	235
875.544921875	1	decision	trialStart	2	113	53	foodImage.39	FOODEEG_Images\0367.jpg	NY	Right	Yes	0.663838999986183	0	448280	251
876.583984375	2	decision	foodImageDisplay	2	113	53	foodImage.39	FOODEEG_Images\0367.jpg	NY	Right	Yes	0.663838999986183	0	448812	252
878.646484375	0.663838999986183	decision	choicePhaseStart	2	113	53	foodImage.39	FOODEEG_Images\0367.jpg	NY	Right	Yes	0.663838999986183	0	449868	253
879.30078125	0	decision	response	2	113	53	foodImage.39	FOODEEG_Images\0367.jpg	NY	Right	Yes	0.663838999986183	0	450203	235
880.345703125	1	decision	trialStart	2	114	54	foodImage.44	FOODEEG_Images\0459.jpg	NY	Right	Yes	0.901443800015841	0	450738	251
881.392578125	2	decision	foodImageDisplay	2	114	54	foodImage.44	FOODEEG_Images\0459.jpg	NY	Right	Yes	0.901443800015841	0	451274	252
883.45703125	0.901443800015841	decision	choicePhaseStart	2	114	54	foodImage.44	FOODEEG_Images\0459.jpg	NY	Right	Yes	0.901443800015841	0	452331	253
884.34765625	0	decision	response	2	114	54	foodImage.44	FOODEEG_Images\0459.jpg	NY	Right	Yes	0.901443800015841	0	452787	235
885.390625	1	decision	trialStart	2	115	55	foodImage.91	FOODEEG_Images\0896.jpg	YN	Left	Yes	0.560378799971659	0	453321	251
886.447265625	2	decision	foodImageDisplay	2	115	55	foodImage.91	FOODEEG_Images\0896.jpg	YN	Left	Yes	0.560378799971659	0	453862	252
888.509765625	0.560378799971659	decision	choicePhaseStart	2	115	55	foodImage.91	FOODEEG_Images\0896.jpg	YN	Left	Yes	0.560378799971659	0	454918	253
889.060546875	0	decision	response	2	115	55	foodImage.91	FOODEEG_Images\0896.jpg	YN	Left	Yes	0.560378799971659	0	455200	234
890.103515625	1	health	trialStart	2	116	56	foodImage.47	FOODEEG_Images\0488.jpg	NY	Left	No	0.726545099983923	0	455734	251
891.14453125	2	health	foodImageDisplay	2	116	56	foodImage.47	FOODEEG_Images\0488.jpg	NY	Left	No	0.726545099983923	0	456267	252
893.20703125	0.726545099983923	health	choicePhaseStart	2	116	56	foodImage.47	FOODEEG_Images\0488.jpg	NY	Left	No	0.726545099983923	0	457323	253
893.923828125	0	health	response	2	116	56	foodImage.47	FOODEEG_Images\0488.jpg	NY	Left	No	0.726545099983923	0	457690	234
894.96484375	1	decision	trialStart	2	117	57	foodImage.3	FOODEEG_Images\0046.jpg	YN	Left	Yes	0.535864199977368	0	458223	251
896.005859375	2	decision	foodImageDisplay	2	117	57	foodImage.3	FOODEEG_Images\0046.jpg	YN	Left	Yes	0.535864199977368	0	458756	252
898.068359375	0.535864199977368	decision	choicePhaseStart	2	117	57	foodImage.3	FOODEEG_Images\0046.jpg	YN	Left	Yes	0.535864199977368	0	459812	253
898.595703125	0	decision	response	2	117	57	foodImage.3	FOODEEG_Images\0046.jpg	YN	Left	Yes	0.535864199977368	0	460082	234
899.638671875	1	decision	trialStart	2	118	58	foodImage.11	FOODEEG_Images\0180.jpg	NY	Left	No	0.62103829998523	0	460616	251
900.681640625	2	decision	foodImageDisplay	2	118	58	foodImage.11	FOODEEG_Images\0180.jpg	NY	Left	No	0.62103829998523	0	461150	252
902.744140625	0.62103829998523	decision	choicePhaseStart	2	118	58	foodImage.11	FOODEEG_Images\0180.jpg	NY	Left	No	0.62103829998523	0	462206	253
903.35546875	0	decision	response	2	118	58	foodImage.11	FOODEEG_Images\0180.jpg	NY	Left	No	0.62103829998523	0	462519	234
904.3984375	1	decision	trialStart	2	119	59	foodImage.52	FOODEEG_Images\0539.jpg	NY	Right	Yes	0.974951800017152	0	463053	251
905.455078125	2	decision	foodImageDisplay	2	119	59	foodImage.52	FOODEEG_Images\0539.jpg	NY	Right	Yes	0.974951800017152	0	463594	252
907.517578125	0.974951800017152	decision	choicePhaseStart	2	119	59	foodImage.52	FOODEEG_Images\0539.jpg	NY	Right	Yes	0.974951800017152	0	464650	253
908.484375	0	decision	response	2	119	59	foodImage.52	FOODEEG_Images\0539.jpg	NY	Right	Yes	0.974951800017152	0	465145	235
909.525390625	1	taste	trialStart	2	120	60	foodImage.108	FOODEEG_Images\0916.jpg	NY	Left	No	0.7150735000032	0	465678	251
910.564453125	2	taste	foodImageDisplay	2	120	60	foodImage.108	FOODEEG_Images\0916.jpg	NY	Left	No	0.7150735000032	0	466210	252
912.6328125	0.7150735000032	taste	choicePhaseStart	2	120	60	foodImage.108	FOODEEG_Images\0916.jpg	NY	Left	No	0.7150735000032	0	467269	253
913.33984375	0	taste	response	2	120	60	foodImage.108	FOODEEG_Images\0916.jpg	NY	Left	No	0.7150735000032	0	467631	234
915.37890625	16.615234375	n/a	blockEnd	n/a	n/a	n/a	n/a	n/a	n/a	n/a	n/a	n/a	n/a	468675	254
931.994140625	2	n/a	blockStart	3	n/a	n/a	n/a	n/a	n/a	n/a	n/a	n/a	n/a	477182	250
934.02734375	1	taste	trialStart	3	121	1	foodImage.5	FOODEEG_Images\0107.jpg	NY	Right	Yes	0.702848899993114	0	478223	251
935.0859375	2	taste	foodImageDisplay	3	121	1	foodImage.5	FOODEEG_Images\0107.jpg	NY	Right	Yes	0.702848899993114	0	478765	252
937.1484375	0.702848899993114	taste	choicePhaseStart	3	121	1	foodImage.5	FOODEEG_Images\0107.jpg	NY	Right	Yes	0.702848899993114	0	479821	253
937.841796875	0	taste	response	3	121	1	foodImage.5	FOODEEG_Images\0107.jpg	NY	Right	Yes	0.702848899993114	0	480176	235
938.884765625	1	decision	trialStart	3	122	2	foodImage.110	FOODEEG_Images\0918.jpg	NY	Right	Yes	0.569257900002412	0	480710	251
939.92578125	2	decision	foodImageDisplay	3	122	2	foodImage.110	FOODEEG_Images\0918.jpg	NY	Right	Yes	0.569257900002412	0	481243	252
941.994140625	0.569257900002412	decision	choicePhaseStart	3	122	2	foodImage.110	FOODEEG_Images\0918.jpg	NY	Right	Yes	0.569257900002412	0	482302	253
942.5546875	0	decision	response	3	122	2	foodImage.110	FOODEEG_Images\0918.jpg	NY	Right	Yes	0.569257900002412	0	482589	235
943.595703125	1	health	trialStart	3	123	3	foodImage.79	FOODEEG_Images\0794.jpg	YN	Left	Yes	0.686260999995284	0	483122	251
944.638671875	2	health	foodImageDisplay	3	123	3	foodImage.79	FOODEEG_Images\0794.jpg	YN	Left	Yes	0.686260999995284	0	483656	252
946.69921875	0.686260999995284	health	choicePhaseStart	3	123	3	foodImage.79	FOODEEG_Images\0794.jpg	YN	Left	Yes	0.686260999995284	0	484711	253
947.376953125	0	health	response	3	123	3	foodImage.79	FOODEEG_Images\0794.jpg	YN	Left	Yes	0.686260999995284	0	485058	234
948.421875	1	taste	trialStart	3	124	4	foodImage.35	FOODEEG_Images\0350.jpg	YN	Left	Yes	0.792305600014515	0	485593	251
949.4609375	2	taste	foodImageDisplay	3	124	4	foodImage.35	FOODEEG_Images\0350.jpg	YN	Left	Yes	0.792305600014515	0	486125	252
951.521484375	0.792305600014515	taste	choicePhaseStart	3	124	4	foodImage.35	FOODEEG_Images\0350.jpg	YN	Left	Yes	0.792305600014515	0	487180	253
952.306640625	0	taste	response	3	124	4	foodImage.35	FOODEEG_Images\0350.jpg	YN	Left	Yes	0.792305600014515	0	487582	234
953.349609375	1	health	trialStart	3	125	5	foodImage.81	FOODEEG_Images\0797.jpg	NY	Right	Yes	0.606373900023755	0	488116	251
954.404296875	2	health	foodImageDisplay	3	125	5	foodImage.81	FOODEEG_Images\0797.jpg	NY	Right	Yes	0.606373900023755	0	488656	252
956.466796875	0.606373900023755	health	choicePhaseStart	3	125	5	foodImage.81	FOODEEG_Images\0797.jpg	NY	Right	Yes	0.606373900023755	0	489712	253
957.06640625	0	health	response	3	125	5	foodImage.81	FOODEEG_Images\0797.jpg	NY	Right	Yes	0.606373900023755	0	490019	235
958.109375	1	health	trialStart	3	126	6	foodImage.87	FOODEEG_Images\0873.jpg	NY	Left	No	0.628724599955603	0	490553	251
959.166015625	2	health	foodImageDisplay	3	126	6	foodImage.87	FOODEEG_Images\0873.jpg	NY	Left	No	0.628724599955603	0	491094	252
961.228515625	0.628724599955603	health	choicePhaseStart	3	126	6	foodImage.87	FOODEEG_Images\0873.jpg	NY	Left	No	0.628724599955603	0	492150	253
961.849609375	0	health	response	3	126	6	foodImage.87	FOODEEG_Images\0873.jpg	NY	Left	No	0.628724599955603	0	492468	234
962.892578125	1	health	trialStart	3	127	7	foodImage.84	FOODEEG_Images\0830.jpg	NY	Right	Yes	0.792522200034	0	493002	251
963.947265625	2	health	foodImageDisplay	3	127	7	foodImage.84	FOODEEG_Images\0830.jpg	NY	Right	Yes	0.792522200034	0	493542	252
966.009765625	0.792522200034	health	choicePhaseStart	3	127	7	foodImage.84	FOODEEG_Images\0830.jpg	NY	Right	Yes	0.792522200034	0	494598	253
966.79296875	0	health	response	3	127	7	foodImage.84	FOODEEG_Images\0830.jpg	NY	Right	Yes	0.792522200034	0	494999	235
967.8359375	1	health	trialStart	3	128	8	foodImage.39	FOODEEG_Images\0367.jpg	NY	Left	No	2.23975010000868	0	495533	251
968.875	2	health	foodImageDisplay	3	128	8	foodImage.39	FOODEEG_Images\0367.jpg	NY	Left	No	2.23975010000868	0	496065	252
970.9375	2.23975010000868	health	choicePhaseStart	3	128	8	foodImage.39	FOODEEG_Images\0367.jpg	NY	Left	No	2.23975010000868	0	497121	253
973.16796875	0	health	response	3	128	8	foodImage.39	FOODEEG_Images\0367.jpg	NY	Left	No	2.23975010000868	0	498263	234
974.208984375	1	decision	trialStart	3	129	9	foodImage.96	FOODEEG_Images\0904.jpg	NY	Right	Yes	0.755478199978825	0	498796	251
975.248046875	2	decision	foodImageDisplay	3	129	9	foodImage.96	FOODEEG_Images\0904.jpg	NY	Right	Yes	0.755478199978825	0	499328	252
977.310546875	0.755478199978825	decision	choicePhaseStart	3	129	9	foodImage.96	FOODEEG_Images\0904.jpg	NY	Right	Yes	0.755478199978825	0	500384	253
978.056640625	0	decision	response	3	129	9	foodImage.96	FOODEEG_Images\0904.jpg	NY	Right	Yes	0.755478199978825	0	500766	235
979.099609375	1	health	trialStart	3	130	10	foodImage.1	FOODEEG_Images\0004.jpg	NY	Left	No	0.598271899973042	0	501300	251
980.140625	2	health	foodImageDisplay	3	130	10	foodImage.1	FOODEEG_Images\0004.jpg	NY	Left	No	0.598271899973042	0	501833	252
982.203125	0.598271899973042	health	choicePhaseStart	3	130	10	foodImage.1	FOODEEG_Images\0004.jpg	NY	Left	No	0.598271899973042	0	502889	253
982.79296875	0	health	response	3	130	10	foodImage.1	FOODEEG_Images\0004.jpg	NY	Left	No	0.598271899973042	0	503191	234
983.833984375	1	decision	trialStart	3	131	11	foodImage.108	FOODEEG_Images\0916.jpg	YN	Right	No	0.754735800030176	0	503724	251
984.873046875	2	decision	foodImageDisplay	3	131	11	foodImage.108	FOODEEG_Images\0916.jpg	YN	Right	No	0.754735800030176	0	504256	252
986.93359375	0.754735800030176	decision	choicePhaseStart	3	131	11	foodImage.108	FOODEEG_Images\0916.jpg	YN	Right	No	0.754735800030176	0	505311	253
987.6796875	0	decision	response	3	131	11	foodImage.108	FOODEEG_Images\0916.jpg	YN	Right	No	0.754735800030176	0	505693	235
988.72265625	1	health	trialStart	3	132	12	foodImage.94	FOODEEG_Images\0902.jpg	NY	Left	No	1.26755009999033	0	506227	251
989.759765625	2	health	foodImageDisplay	3	132	12	foodImage.94	FOODEEG_Images\0902.jpg	NY	Left	No	1.26755009999033	0	506758	252
991.822265625	1.26755009999033	health	choicePhaseStart	3	132	12	foodImage.94	FOODEEG_Images\0902.jpg	NY	Left	No	1.26755009999033	0	507814	253
993.080078125	0	health	response	3	132	12	foodImage.94	FOODEEG_Images\0902.jpg	NY	Left	No	1.26755009999033	0	508458	234
994.123046875	1	taste	trialStart	3	133	13	foodImage.21	FOODEEG_Images\0234.jpg	YN	Left	Yes	0.792176700022537	0	508992	251
995.177734375	2	taste	foodImageDisplay	3	133	13	foodImage.21	FOODEEG_Images\0234.jpg	YN	Left	Yes	0.792176700022537	0	509532	252
997.240234375	0.792176700022537	taste	choicePhaseStart	3	133	13	foodImage.21	FOODEEG_Images\0234.jpg	YN	Left	Yes	0.792176700022537	0	510588	253
998.0234375	0	taste	response	3	133	13	foodImage.21	FOODEEG_Images\0234.jpg	YN	Left	Yes	0.792176700022537	0	510989	234
999.068359375	1	decision	trialStart	3	134	14	foodImage.57	FOODEEG_Images\0587.jpg	YN	Left	Yes	0.619349199987482	0	511524	251
1000.111328125	2	decision	foodImageDisplay	3	134	14	foodImage.57	FOODEEG_Images\0587.jpg	YN	Left	Yes	0.619349199987482	0	512058	252
1002.173828125	0.619349199987482	decision	choicePhaseStart	3	134	14	foodImage.57	FOODEEG_Images\0587.jpg	YN	Left	Yes	0.619349199987482	0	513114	253
1002.783203125	0	decision	response	3	134	14	foodImage.57	FOODEEG_Images\0587.jpg	YN	Left	Yes	0.619349199987482	0	513426	234
1003.82421875	1	taste	trialStart	3	135	15	foodImage.103	FOODEEG_Images\0911.jpg	YN	Right	No	0.676447100006044	0	513959	251
1004.861328125	2	taste	foodImageDisplay	3	135	15	foodImage.103	FOODEEG_Images\0911.jpg	YN	Right	No	0.676447100006044	0	514490	252
1006.923828125	0.676447100006044	taste	choicePhaseStart	3	135	15	foodImage.103	FOODEEG_Images\0911.jpg	YN	Right	No	0.676447100006044	0	515546	253
1007.591796875	0	taste	response	3	135	15	foodImage.103	FOODEEG_Images\0911.jpg	YN	Right	No	0.676447100006044	0	515888	235
1008.634765625	1	decision	trialStart	3	136	16	foodImage.47	FOODEEG_Images\0488.jpg	YN	Left	Yes	0.577473299985286	0	516422	251
1009.67578125	2	decision	foodImageDisplay	3	136	16	foodImage.47	FOODEEG_Images\0488.jpg	YN	Left	Yes	0.577473299985286	0	516955	252
1011.7421875	0.577473299985286	decision	choicePhaseStart	3	136	16	foodImage.47	FOODEEG_Images\0488.jpg	YN	Left	Yes	0.577473299985286	0	518013	253
1012.310546875	0	decision	response	3	136	16	foodImage.47	FOODEEG_Images\0488.jpg	YN	Left	Yes	0.577473299985286	0	518304	234
1013.353515625	1	health	trialStart	3	137	17	foodImage.85	FOODEEG_Images\0841.jpg	NY	Right	Yes	0.825249999994412	0	518838	251
1014.408203125	2	health	foodImageDisplay	3	137	17	foodImage.85	FOODEEG_Images\0841.jpg	NY	Right	Yes	0.825249999994412	0	519378	252
1016.470703125	0.825249999994412	health	choicePhaseStart	3	137	17	foodImage.85	FOODEEG_Images\0841.jpg	NY	Right	Yes	0.825249999994412	0	520434	253
1017.287109375	0	health	response	3	137	17	foodImage.85	FOODEEG_Images\0841.jpg	NY	Right	Yes	0.825249999994412	0	520852	235
1018.328125	1	decision	trialStart	3	138	18	foodImage.30	FOODEEG_Images\0282.jpg	NY	Right	Yes	0.854846999980509	0	521385	251
1019.37109375	2	decision	foodImageDisplay	3	138	18	foodImage.30	FOODEEG_Images\0282.jpg	NY	Right	Yes	0.854846999980509	0	521919	252
1021.43359375	0.854846999980509	decision	choicePhaseStart	3	138	18	foodImage.30	FOODEEG_Images\0282.jpg	NY	Right	Yes	0.854846999980509	0	522975	253
1022.279296875	0	decision	response	3	138	18	foodImage.30	FOODEEG_Images\0282.jpg	NY	Right	Yes	0.854846999980509	0	523408	235
1023.3203125	1	taste	trialStart	3	139	19	foodImage.119	FOODEEG_Images\0927.jpg	NY	Left	No	1.07500909996452	0	523941	251
1024.357421875	2	taste	foodImageDisplay	3	139	19	foodImage.119	FOODEEG_Images\0927.jpg	NY	Left	No	1.07500909996452	0	524472	252
1026.419921875	1.07500909996452	taste	choicePhaseStart	3	139	19	foodImage.119	FOODEEG_Images\0927.jpg	NY	Left	No	1.07500909996452	0	525528	253
1027.486328125	0	taste	response	3	139	19	foodImage.119	FOODEEG_Images\0927.jpg	NY	Left	No	1.07500909996452	0	526074	234
1028.529296875	1	taste	trialStart	3	140	20	foodImage.11	FOODEEG_Images\0180.jpg	NY	Left	No	1.51596619997872	0	526608	251
1029.572265625	2	taste	foodImageDisplay	3	140	20	foodImage.11	FOODEEG_Images\0180.jpg	NY	Left	No	1.51596619997872	0	527142	252
1031.634765625	1.51596619997872	taste	choicePhaseStart	3	140	20	foodImage.11	FOODEEG_Images\0180.jpg	NY	Left	No	1.51596619997872	0	528198	253
1033.142578125	0	taste	response	3	140	20	foodImage.11	FOODEEG_Images\0180.jpg	NY	Left	No	1.51596619997872	0	528970	234
1034.18359375	1	health	trialStart	3	141	21	foodImage.42	FOODEEG_Images\0438.jpg	YN	Left	Yes	0.812589000037406	0	529503	251
1035.28515625	2	health	foodImageDisplay	3	141	21	foodImage.42	FOODEEG_Images\0438.jpg	YN	Left	Yes	0.812589000037406	0	530067	252
1037.34765625	0.812589000037406	health	choicePhaseStart	3	141	21	foodImage.42	FOODEEG_Images\0438.jpg	YN	Left	Yes	0.812589000037406	0	531123	253
1038.150390625	0	health	response	3	141	21	foodImage.42	FOODEEG_Images\0438.jpg	YN	Left	Yes	0.812589000037406	0	531534	234
1039.193359375	1	taste	trialStart	3	142	22	foodImage.14	FOODEEG_Images\0188.jpg	NY	Right	Yes	0.676297300029546	0	532068	251
1040.251953125	2	taste	foodImageDisplay	3	142	22	foodImage.14	FOODEEG_Images\0188.jpg	NY	Right	Yes	0.676297300029546	0	532610	252
1042.314453125	0.676297300029546	taste	choicePhaseStart	3	142	22	foodImage.14	FOODEEG_Images\0188.jpg	NY	Right	Yes	0.676297300029546	0	533666	253
1042.982421875	0	taste	response	3	142	22	foodImage.14	FOODEEG_Images\0188.jpg	NY	Right	Yes	0.676297300029546	0	534008	235
1044.025390625	1	health	trialStart	3	143	23	foodImage.118	FOODEEG_Images\0926.jpg	NY	Left	No	1.10468589997618	0	534542	251
1045.064453125	2	health	foodImageDisplay	3	143	23	foodImage.118	FOODEEG_Images\0926.jpg	NY	Left	No	1.10468589997618	0	535074	252
1047.126953125	1.10468589997618	health	choicePhaseStart	3	143	23	foodImage.118	FOODEEG_Images\0926.jpg	NY	Left	No	1.10468589997618	0	536130	253
1048.22265625	0	health	response	3	143	23	foodImage.118	FOODEEG_Images\0926.jpg	NY	Left	No	1.10468589997618	0	536691	234
1049.263671875	1	taste	trialStart	3	144	24	foodImage.16	FOODEEG_Images\0196.jpg	YN	Right	No	1.09664609999163	0	537224	251
1050.318359375	2	taste	foodImageDisplay	3	144	24	foodImage.16	FOODEEG_Images\0196.jpg	YN	Right	No	1.09664609999163	0	537764	252
1052.380859375	1.09664609999163	taste	choicePhaseStart	3	144	24	foodImage.16	FOODEEG_Images\0196.jpg	YN	Right	No	1.09664609999163	0	538820	253
1053.470703125	0	taste	response	3	144	24	foodImage.16	FOODEEG_Images\0196.jpg	YN	Right	No	1.09664609999163	0	539378	235
1054.509765625	1	taste	trialStart	3	145	25	foodImage.45	FOODEEG_Images\0478.jpg	YN	Left	Yes	0.551433400018141	0	539910	251
1055.552734375	2	taste	foodImageDisplay	3	145	25	foodImage.45	FOODEEG_Images\0478.jpg	YN	Left	Yes	0.551433400018141	0	540444	252
1057.615234375	0.551433400018141	taste	choicePhaseStart	3	145	25	foodImage.45	FOODEEG_Images\0478.jpg	YN	Left	Yes	0.551433400018141	0	541500	253
1058.158203125	0	taste	response	3	145	25	foodImage.45	FOODEEG_Images\0478.jpg	YN	Left	Yes	0.551433400018141	0	541778	234
1059.201171875	1	decision	trialStart	3	146	26	foodImage.38	FOODEEG_Images\0365.jpg	NY	Right	Yes	0.680775600019842	0	542312	251
1060.23828125	2	decision	foodImageDisplay	3	146	26	foodImage.38	FOODEEG_Images\0365.jpg	NY	Right	Yes	0.680775600019842	0	542843	252
1062.30078125	0.680775600019842	decision	choicePhaseStart	3	146	26	foodImage.38	FOODEEG_Images\0365.jpg	NY	Right	Yes	0.680775600019842	0	543899	253
1062.97265625	0	decision	response	3	146	26	foodImage.38	FOODEEG_Images\0365.jpg	NY	Right	Yes	0.680775600019842	0	544243	235
1064.015625	1	taste	trialStart	3	147	27	foodImage.94	FOODEEG_Images\0902.jpg	NY	Right	Yes	1.08134350000182	0	544777	251
1065.0546875	2	taste	foodImageDisplay	3	147	27	foodImage.94	FOODEEG_Images\0902.jpg	NY	Right	Yes	1.08134350000182	0	545309	252
1067.1171875	1.08134350000182	taste	choicePhaseStart	3	147	27	foodImage.94	FOODEEG_Images\0902.jpg	NY	Right	Yes	1.08134350000182	0	546365	253
1068.189453125	0	taste	response	3	147	27	foodImage.94	FOODEEG_Images\0902.jpg	NY	Right	Yes	1.08134350000182	0	546914	235
1069.232421875	1	health	trialStart	3	148	28	foodImage.9	FOODEEG_Images\0138.jpg	YN	Right	No	0.790981499943882	0	547448	251
1070.291015625	2	health	foodImageDisplay	3	148	28	foodImage.9	FOODEEG_Images\0138.jpg	YN	Right	No	0.790981499943882	0	547990	252
1072.357421875	0.790981499943882	health	choicePhaseStart	3	148	28	foodImage.9	FOODEEG_Images\0138.jpg	YN	Right	No	0.790981499943882	0	549048	253
1073.140625	0	health	response	3	148	28	foodImage.9	FOODEEG_Images\0138.jpg	YN	Right	No	0.790981499943882	0	549449	235
1074.185546875	1	health	trialStart	3	149	29	foodImage.14	FOODEEG_Images\0188.jpg	NY	Left	No	0.723892199981492	0	549984	251
1075.244140625	2	health	foodImageDisplay	3	149	29	foodImage.14	FOODEEG_Images\0188.jpg	NY	Left	No	0.723892199981492	0	550526	252
1077.306640625	0.723892199981492	health	choicePhaseStart	3	149	29	foodImage.14	FOODEEG_Images\0188.jpg	NY	Left	No	0.723892199981492	0	551582	253
1078.021484375	0	health	response	3	149	29	foodImage.14	FOODEEG_Images\0188.jpg	NY	Left	No	0.723892199981492	0	551948	234
1079.064453125	1	taste	trialStart	3	150	30	foodImage.10	FOODEEG_Images\0145.jpg	YN	Left	Yes	0.674782399961259	0	552482	251
1080.123046875	2	taste	foodImageDisplay	3	150	30	foodImage.10	FOODEEG_Images\0145.jpg	YN	Left	Yes	0.674782399961259	0	553024	252
1082.1875	0.674782399961259	taste	choicePhaseStart	3	150	30	foodImage.10	FOODEEG_Images\0145.jpg	YN	Left	Yes	0.674782399961259	0	554081	253
1082.853515625	0	taste	response	3	150	30	foodImage.10	FOODEEG_Images\0145.jpg	YN	Left	Yes	0.674782399961259	0	554422	234
1083.896484375	1	decision	trialStart	3	151	31	foodImage.37	FOODEEG_Images\0359.jpg	NY	Left	No	0.771515299973544	0	554956	251
1084.9375	2	decision	foodImageDisplay	3	151	31	foodImage.37	FOODEEG_Images\0359.jpg	NY	Left	No	0.771515299973544	0	555489	252
1087	0.771515299973544	decision	choicePhaseStart	3	151	31	foodImage.37	FOODEEG_Images\0359.jpg	NY	Left	No	0.771515299973544	0	556545	253
1087.763671875	0	decision	response	3	151	31	foodImage.37	FOODEEG_Images\0359.jpg	NY	Left	No	0.771515299973544	0	556936	234
1088.806640625	1	decision	trialStart	3	152	32	foodImage.26	FOODEEG_Images\0262.jpg	NY	Left	No	0.940974100027233	0	557470	251
1089.849609375	2	decision	foodImageDisplay	3	152	32	foodImage.26	FOODEEG_Images\0262.jpg	NY	Left	No	0.940974100027233	0	558004	252
1091.912109375	0.940974100027233	decision	choicePhaseStart	3	152	32	foodImage.26	FOODEEG_Images\0262.jpg	NY	Left	No	0.940974100027233	0	559060	253
1092.84375	0	decision	response	3	152	32	foodImage.26	FOODEEG_Images\0262.jpg	NY	Left	No	0.940974100027233	0	559537	234
1093.89453125	1	taste	trialStart	3	153	33	foodImage.2	FOODEEG_Images\0028.jpg	YN	Left	Yes	0.621738800022285	0	560075	251
1094.935546875	2	taste	foodImageDisplay	3	153	33	foodImage.2	FOODEEG_Images\0028.jpg	YN	Left	Yes	0.621738800022285	0	560608	252
1096.998046875	0.621738800022285	taste	choicePhaseStart	3	153	33	foodImage.2	FOODEEG_Images\0028.jpg	YN	Left	Yes	0.621738800022285	0	561664	253
1097.611328125	0	taste	response	3	153	33	foodImage.2	FOODEEG_Images\0028.jpg	YN	Left	Yes	0.621738800022285	0	561978	234
1098.654296875	1	decision	trialStart	3	154	34	foodImage.94	FOODEEG_Images\0902.jpg	NY	Right	Yes	0.699390799971297	0	562512	251
1099.69140625	2	decision	foodImageDisplay	3	154	34	foodImage.94	FOODEEG_Images\0902.jpg	NY	Right	Yes	0.699390799971297	0	563043	252
1101.75390625	0.699390799971297	decision	choicePhaseStart	3	154	34	foodImage.94	FOODEEG_Images\0902.jpg	NY	Right	Yes	0.699390799971297	0	564099	253
1102.443359375	0	decision	response	3	154	34	foodImage.94	FOODEEG_Images\0902.jpg	NY	Right	Yes	0.699390799971297	0	564452	235
1103.48828125	1	taste	trialStart	3	155	35	foodImage.6	FOODEEG_Images\0113.jpg	NY	Right	Yes	0.507057700015139	0	564987	251
1104.529296875	2	taste	foodImageDisplay	3	155	35	foodImage.6	FOODEEG_Images\0113.jpg	NY	Right	Yes	0.507057700015139	0	565520	252
1106.591796875	0.507057700015139	taste	choicePhaseStart	3	155	35	foodImage.6	FOODEEG_Images\0113.jpg	NY	Right	Yes	0.507057700015139	0	566576	253
1107.091796875	0	taste	response	3	155	35	foodImage.6	FOODEEG_Images\0113.jpg	NY	Right	Yes	0.507057700015139	0	566832	235
1108.134765625	1	taste	trialStart	3	156	36	foodImage.100	FOODEEG_Images\0908.jpg	YN	Right	No	1.08082490001107	0	567366	251
1109.171875	2	taste	foodImageDisplay	3	156	36	foodImage.100	FOODEEG_Images\0908.jpg	YN	Right	No	1.08082490001107	0	567897	252
1111.236328125	1.08082490001107	taste	choicePhaseStart	3	156	36	foodImage.100	FOODEEG_Images\0908.jpg	YN	Right	No	1.08082490001107	0	568954	253
1112.30859375	0	taste	response	3	156	36	foodImage.100	FOODEEG_Images\0908.jpg	YN	Right	No	1.08082490001107	0	569503	235
1113.3515625	1	health	trialStart	3	157	37	foodImage.56	FOODEEG_Images\0586.jpg	YN	Left	Yes	0.761074399983045	0	570037	251
1114.396484375	2	health	foodImageDisplay	3	157	37	foodImage.56	FOODEEG_Images\0586.jpg	YN	Left	Yes	0.761074399983045	0	570572	252
1116.458984375	0.761074399983045	health	choicePhaseStart	3	157	37	foodImage.56	FOODEEG_Images\0586.jpg	YN	Left	Yes	0.761074399983045	0	571628	253
1117.2109375	0	health	response	3	157	37	foodImage.56	FOODEEG_Images\0586.jpg	YN	Left	Yes	0.761074399983045	0	572013	234
1118.251953125	1	health	trialStart	3	158	38	foodImage.7	FOODEEG_Images\0116.jpg	YN	Right	No	0.514706199988723	0	572546	251
1119.29296875	2	health	foodImageDisplay	3	158	38	foodImage.7	FOODEEG_Images\0116.jpg	YN	Right	No	0.514706199988723	0	573079	252
1121.353515625	0.514706199988723	health	choicePhaseStart	3	158	38	foodImage.7	FOODEEG_Images\0116.jpg	YN	Right	No	0.514706199988723	0	574134	253
1121.859375	0	health	response	3	158	38	foodImage.7	FOODEEG_Images\0116.jpg	YN	Right	No	0.514706199988723	0	574393	235
1122.900390625	1	health	trialStart	3	159	39	foodImage.82	FOODEEG_Images\0805.jpg	NY	Right	Yes	0.727800599997863	0	574926	251
1123.955078125	2	health	foodImageDisplay	3	159	39	foodImage.82	FOODEEG_Images\0805.jpg	NY	Right	Yes	0.727800599997863	0	575466	252
1126.017578125	0.727800599997863	health	choicePhaseStart	3	159	39	foodImage.82	FOODEEG_Images\0805.jpg	NY	Right	Yes	0.727800599997863	0	576522	253
1126.73828125	0	health	response	3	159	39	foodImage.82	FOODEEG_Images\0805.jpg	NY	Right	Yes	0.727800599997863	0	576891	235
1127.783203125	1	health	trialStart	3	160	40	foodImage.12	FOODEEG_Images\0181.jpg	NY	Right	Yes	1.04506039997796	0	577426	251
1128.82421875	2	health	foodImageDisplay	3	160	40	foodImage.12	FOODEEG_Images\0181.jpg	NY	Right	Yes	1.04506039997796	0	577959	252
1130.88671875	1.04506039997796	health	choicePhaseStart	3	160	40	foodImage.12	FOODEEG_Images\0181.jpg	NY	Right	Yes	1.04506039997796	0	579015	253
1131.921875	0	health	response	3	160	40	foodImage.12	FOODEEG_Images\0181.jpg	NY	Right	Yes	1.04506039997796	0	579545	235
1132.96484375	1	taste	trialStart	3	161	41	foodImage.71	FOODEEG_Images\0713.jpg	YN	Left	Yes	0.700900299998466	0	580079	251
1134.0078125	2	taste	foodImageDisplay	3	161	41	foodImage.71	FOODEEG_Images\0713.jpg	YN	Left	Yes	0.700900299998466	0	580613	252
1136.0703125	0.700900299998466	taste	choicePhaseStart	3	161	41	foodImage.71	FOODEEG_Images\0713.jpg	YN	Left	Yes	0.700900299998466	0	581669	253
1136.76171875	0	taste	response	3	161	41	foodImage.71	FOODEEG_Images\0713.jpg	YN	Left	Yes	0.700900299998466	0	582023	234
1137.806640625	1	health	trialStart	3	162	42	foodImage.32	FOODEEG_Images\0319.jpg	NY	Left	No	0.77091369999107	0	582558	251
1138.849609375	2	health	foodImageDisplay	3	162	42	foodImage.32	FOODEEG_Images\0319.jpg	NY	Left	No	0.77091369999107	0	583092	252
1140.912109375	0.77091369999107	health	choicePhaseStart	3	162	42	foodImage.32	FOODEEG_Images\0319.jpg	NY	Left	No	0.77091369999107	0	584148	253
1141.673828125	0	health	response	3	162	42	foodImage.32	FOODEEG_Images\0319.jpg	NY	Left	No	0.77091369999107	0	584538	234
1142.71875	1	health	trialStart	3	163	43	foodImage.80	FOODEEG_Images\0796.jpg	NY	Right	Yes	0.636261000006925	0	585073	251
1143.775390625	2	health	foodImageDisplay	3	163	43	foodImage.80	FOODEEG_Images\0796.jpg	NY	Right	Yes	0.636261000006925	0	585614	252
1145.837890625	0.636261000006925	health	choicePhaseStart	3	163	43	foodImage.80	FOODEEG_Images\0796.jpg	NY	Right	Yes	0.636261000006925	0	586670	253
1146.466796875	0	health	response	3	163	43	foodImage.80	FOODEEG_Images\0796.jpg	NY	Right	Yes	0.636261000006925	0	586992	235
1147.51171875	1	taste	trialStart	3	164	44	foodImage.106	FOODEEG_Images\0914.jpg	YN	Left	Yes	0.628162200038787	0	587527	251
1148.552734375	2	taste	foodImageDisplay	3	164	44	foodImage.106	FOODEEG_Images\0914.jpg	YN	Left	Yes	0.628162200038787	0	588060	252
1150.615234375	0.628162200038787	taste	choicePhaseStart	3	164	44	foodImage.106	FOODEEG_Images\0914.jpg	YN	Left	Yes	0.628162200038787	0	589116	253
1151.234375	0	taste	response	3	164	44	foodImage.106	FOODEEG_Images\0914.jpg	YN	Left	Yes	0.628162200038787	0	589433	234
1152.275390625	1	decision	trialStart	3	165	45	foodImage.18	FOODEEG_Images\0202.jpg	NY	Right	Yes	0.604205199982971	0	589966	251
1153.3359375	2	decision	foodImageDisplay	3	165	45	foodImage.18	FOODEEG_Images\0202.jpg	NY	Right	Yes	0.604205199982971	0	590509	252
1155.3984375	0.604205199982971	decision	choicePhaseStart	3	165	45	foodImage.18	FOODEEG_Images\0202.jpg	NY	Right	Yes	0.604205199982971	0	591565	253
1155.994140625	0	decision	response	3	165	45	foodImage.18	FOODEEG_Images\0202.jpg	NY	Right	Yes	0.604205199982971	0	591870	235
1157.037109375	1	decision	trialStart	3	166	46	foodImage.66	FOODEEG_Images\0676.jpg	YN	Left	Yes	0.663316099962685	0	592404	251
1158.078125	2	decision	foodImageDisplay	3	166	46	foodImage.66	FOODEEG_Images\0676.jpg	YN	Left	Yes	0.663316099962685	0	592937	252
1160.140625	0.663316099962685	decision	choicePhaseStart	3	166	46	foodImage.66	FOODEEG_Images\0676.jpg	YN	Left	Yes	0.663316099962685	0	593993	253
1160.794921875	0	decision	response	3	166	46	foodImage.66	FOODEEG_Images\0676.jpg	YN	Left	Yes	0.663316099962685	0	594328	234
1161.837890625	1	decision	trialStart	3	167	47	foodImage.103	FOODEEG_Images\0911.jpg	YN	Right	No	0.552337200031616	0	594862	251
1162.876953125	2	decision	foodImageDisplay	3	167	47	foodImage.103	FOODEEG_Images\0911.jpg	YN	Right	No	0.552337200031616	0	595394	252
1164.9375	0.552337200031616	decision	choicePhaseStart	3	167	47	foodImage.103	FOODEEG_Images\0911.jpg	YN	Right	No	0.552337200031616	0	596449	253
1165.48046875	0	decision	response	3	167	47	foodImage.103	FOODEEG_Images\0911.jpg	YN	Right	No	0.552337200031616	0	596727	235
1166.5234375	1	health	trialStart	3	168	48	foodImage.31	FOODEEG_Images\0294.jpg	YN	Right	No	1.21394950000104	0	597261	251
1167.56640625	2	health	foodImageDisplay	3	168	48	foodImage.31	FOODEEG_Images\0294.jpg	YN	Right	No	1.21394950000104	0	597795	252
1169.62890625	1.21394950000104	health	choicePhaseStart	3	168	48	foodImage.31	FOODEEG_Images\0294.jpg	YN	Right	No	1.21394950000104	0	598851	253
1170.833984375	0	health	response	3	168	48	foodImage.31	FOODEEG_Images\0294.jpg	YN	Right	No	1.21394950000104	0	599468	235
1171.876953125	1	health	trialStart	3	169	49	foodImage.29	FOODEEG_Images\0278.jpg	YN	Left	Yes	0.546104999957606	0	600002	251
1172.91796875	2	health	foodImageDisplay	3	169	49	foodImage.29	FOODEEG_Images\0278.jpg	YN	Left	Yes	0.546104999957606	0	600535	252
1174.982421875	0.546104999957606	health	choicePhaseStart	3	169	49	foodImage.29	FOODEEG_Images\0278.jpg	YN	Left	Yes	0.546104999957606	0	601592	253
1175.521484375	0	health	response	3	169	49	foodImage.29	FOODEEG_Images\0278.jpg	YN	Left	Yes	0.546104999957606	0	601868	234
1176.572265625	1	taste	trialStart	3	170	50	foodImage.28	FOODEEG_Images\0273.jpg	YN	Right	No	0.995523700024933	0	602406	251
1177.61328125	2	taste	foodImageDisplay	3	170	50	foodImage.28	FOODEEG_Images\0273.jpg	YN	Right	No	0.995523700024933	0	602939	252
1179.67578125	0.995523700024933	taste	choicePhaseStart	3	170	50	foodImage.28	FOODEEG_Images\0273.jpg	YN	Right	No	0.995523700024933	0	603995	253
1180.6640625	0	taste	response	3	170	50	foodImage.28	FOODEEG_Images\0273.jpg	YN	Right	No	0.995523700024933	0	604501	235
1181.708984375	1	decision	trialStart	3	171	51	foodImage.1	FOODEEG_Images\0004.jpg	NY	Right	Yes	0.542090300004929	0	605036	251
1182.75	2	decision	foodImageDisplay	3	171	51	foodImage.1	FOODEEG_Images\0004.jpg	NY	Right	Yes	0.542090300004929	0	605569	252
1184.8125	0.542090300004929	decision	choicePhaseStart	3	171	51	foodImage.1	FOODEEG_Images\0004.jpg	NY	Right	Yes	0.542090300004929	0	606625	253
1185.34375	0	decision	response	3	171	51	foodImage.1	FOODEEG_Images\0004.jpg	NY	Right	Yes	0.542090300004929	0	606897	235
1186.388671875	1	taste	trialStart	3	172	52	foodImage.61	FOODEEG_Images\0640.jpg	NY	Right	Yes	0.700476600031834	0	607432	251
1187.4296875	2	taste	foodImageDisplay	3	172	52	foodImage.61	FOODEEG_Images\0640.jpg	NY	Right	Yes	0.700476600031834	0	607965	252
1189.4921875	0.700476600031834	taste	choicePhaseStart	3	172	52	foodImage.61	FOODEEG_Images\0640.jpg	NY	Right	Yes	0.700476600031834	0	609021	253
1190.18359375	0	taste	response	3	172	52	foodImage.61	FOODEEG_Images\0640.jpg	NY	Right	Yes	0.700476600031834	0	609375	235
1191.228515625	1	decision	trialStart	3	173	53	foodImage.9	FOODEEG_Images\0138.jpg	NY	Left	No	0.684240300033707	0	609910	251
1192.287109375	2	decision	foodImageDisplay	3	173	53	foodImage.9	FOODEEG_Images\0138.jpg	NY	Left	No	0.684240300033707	0	610452	252
1194.349609375	0.684240300033707	decision	choicePhaseStart	3	173	53	foodImage.9	FOODEEG_Images\0138.jpg	NY	Left	No	0.684240300033707	0	611508	253
1195.0234375	0	decision	response	3	173	53	foodImage.9	FOODEEG_Images\0138.jpg	NY	Left	No	0.684240300033707	0	611853	234
1196.068359375	1	taste	trialStart	3	174	54	foodImage.7	FOODEEG_Images\0116.jpg	YN	Left	Yes	0.628490600036457	0	612388	251
1197.109375	2	taste	foodImageDisplay	3	174	54	foodImage.7	FOODEEG_Images\0116.jpg	YN	Left	Yes	0.628490600036457	0	612921	252
1199.171875	0.628490600036457	taste	choicePhaseStart	3	174	54	foodImage.7	FOODEEG_Images\0116.jpg	YN	Left	Yes	0.628490600036457	0	613977	253
1199.791015625	0	taste	response	3	174	54	foodImage.7	FOODEEG_Images\0116.jpg	YN	Left	Yes	0.628490600036457	0	614294	234
1200.8359375	1	taste	trialStart	3	175	55	foodImage.27	FOODEEG_Images\0263.jpg	YN	Left	Yes	0.996175299980678	0	614829	251
1201.876953125	2	taste	foodImageDisplay	3	175	55	foodImage.27	FOODEEG_Images\0263.jpg	YN	Left	Yes	0.996175299980678	0	615362	252
1203.939453125	0.996175299980678	taste	choicePhaseStart	3	175	55	foodImage.27	FOODEEG_Images\0263.jpg	YN	Left	Yes	0.996175299980678	0	616418	253
1204.927734375	0	taste	response	3	175	55	foodImage.27	FOODEEG_Images\0263.jpg	YN	Left	Yes	0.996175299980678	0	616924	234
1205.970703125	1	taste	trialStart	3	176	56	foodImage.29	FOODEEG_Images\0278.jpg	NY	Left	No	0.588443899992853	0	617458	251
1207.013671875	2	taste	foodImageDisplay	3	176	56	foodImage.29	FOODEEG_Images\0278.jpg	NY	Left	No	0.588443899992853	0	617992	252
1209.076171875	0.588443899992853	taste	choicePhaseStart	3	176	56	foodImage.29	FOODEEG_Images\0278.jpg	NY	Left	No	0.588443899992853	0	619048	253
1209.65625	0	taste	response	3	176	56	foodImage.29	FOODEEG_Images\0278.jpg	NY	Left	No	0.588443899992853	0	619345	234
1210.703125	1	taste	trialStart	3	177	57	foodImage.110	FOODEEG_Images\0918.jpg	NY	Right	Yes	0.580693600000814	0	619881	251
1211.740234375	2	taste	foodImageDisplay	3	177	57	foodImage.110	FOODEEG_Images\0918.jpg	NY	Right	Yes	0.580693600000814	0	620412	252
1213.802734375	0.580693600000814	taste	choicePhaseStart	3	177	57	foodImage.110	FOODEEG_Images\0918.jpg	NY	Right	Yes	0.580693600000814	0	621468	253
1214.375	0	taste	response	3	177	57	foodImage.110	FOODEEG_Images\0918.jpg	NY	Right	Yes	0.580693600000814	0	621761	235
1215.41796875	1	taste	trialStart	3	178	58	foodImage.22	FOODEEG_Images\0236.jpg	YN	Right	No	0.776693500054535	0	622295	251
1216.45703125	2	taste	foodImageDisplay	3	178	58	foodImage.22	FOODEEG_Images\0236.jpg	YN	Right	No	0.776693500054535	0	622827	252
1218.51953125	0.776693500054535	taste	choicePhaseStart	3	178	58	foodImage.22	FOODEEG_Images\0236.jpg	YN	Right	No	0.776693500054535	0	623883	253
1219.287109375	0	taste	response	3	178	58	foodImage.22	FOODEEG_Images\0236.jpg	YN	Right	No	0.776693500054535	0	624276	235
1220.330078125	1	taste	trialStart	3	179	59	foodImage.107	FOODEEG_Images\0915.jpg	NY	Left	No	0.56750020000618	0	624810	251
1221.369140625	2	taste	foodImageDisplay	3	179	59	foodImage.107	FOODEEG_Images\0915.jpg	NY	Left	No	0.56750020000618	0	625342	252
1223.43359375	0.56750020000618	taste	choicePhaseStart	3	179	59	foodImage.107	FOODEEG_Images\0915.jpg	NY	Left	No	0.56750020000618	0	626399	253
1223.990234375	0	taste	response	3	179	59	foodImage.107	FOODEEG_Images\0915.jpg	NY	Left	No	0.56750020000618	0	626684	234
1225.033203125	1	taste	trialStart	3	180	60	foodImage.91	FOODEEG_Images\0896.jpg	YN	Left	Yes	0.617521199979819	0	627218	251
1226.08984375	2	taste	foodImageDisplay	3	180	60	foodImage.91	FOODEEG_Images\0896.jpg	YN	Left	Yes	0.617521199979819	0	627759	252
1228.150390625	0.617521199979819	taste	choicePhaseStart	3	180	60	foodImage.91	FOODEEG_Images\0896.jpg	YN	Left	Yes	0.617521199979819	0	628814	253
1228.7578125	0	taste	response	3	180	60	foodImage.91	FOODEEG_Images\0896.jpg	YN	Left	Yes	0.617521199979819	0	629125	234
1230.80078125	11.685546875	n/a	blockEnd	n/a	n/a	n/a	n/a	n/a	n/a	n/a	n/a	n/a	n/a	630171	254
1242.486328125	2	n/a	blockStart	4	n/a	n/a	n/a	n/a	n/a	n/a	n/a	n/a	n/a	636154	250
1244.525390625	1	taste	trialStart	4	181	1	foodImage.33	FOODEEG_Images\0329.jpg	YN	Left	Yes	0.48094429995399	0	637198	251
1245.56640625	2	taste	foodImageDisplay	4	181	1	foodImage.33	FOODEEG_Images\0329.jpg	YN	Left	Yes	0.48094429995399	0	637731	252
1247.630859375	0.48094429995399	taste	choicePhaseStart	4	181	1	foodImage.33	FOODEEG_Images\0329.jpg	YN	Left	Yes	0.48094429995399	0	638788	253
1248.1015625	0	taste	response	4	181	1	foodImage.33	FOODEEG_Images\0329.jpg	YN	Left	Yes	0.48094429995399	0	639029	234
1249.146484375	1	health	trialStart	4	182	2	foodImage.97	FOODEEG_Images\0905.jpg	NY	Left	No	0.775986100023147	0	639564	251
1250.18359375	2	health	foodImageDisplay	4	182	2	foodImage.97	FOODEEG_Images\0905.jpg	NY	Left	No	0.775986100023147	0	640095	252
1252.24609375	0.775986100023147	health	choicePhaseStart	4	182	2	foodImage.97	FOODEEG_Images\0905.jpg	NY	Left	No	0.775986100023147	0	641151	253
1253.013671875	0	health	response	4	182	2	foodImage.97	FOODEEG_Images\0905.jpg	NY	Left	No	0.775986100023147	0	641544	234
1254.056640625	1	health	trialStart	4	183	3	foodImage.100	FOODEEG_Images\0908.jpg	YN	Left	Yes	0.877660099999048	0	642078	251
1255.09375	2	health	foodImageDisplay	4	183	3	foodImage.100	FOODEEG_Images\0908.jpg	YN	Left	Yes	0.877660099999048	0	642609	252
1257.162109375	0.877660099999048	health	choicePhaseStart	4	183	3	foodImage.100	FOODEEG_Images\0908.jpg	YN	Left	Yes	0.877660099999048	0	643668	253
1258.029296875	0	health	response	4	183	3	foodImage.100	FOODEEG_Images\0908.jpg	YN	Left	Yes	0.877660099999048	0	644112	234
1259.072265625	1	decision	trialStart	4	184	4	foodImage.81	FOODEEG_Images\0797.jpg	NY	Left	No	0.840783699997701	0	644646	251
1260.158203125	2	decision	foodImageDisplay	4	184	4	foodImage.81	FOODEEG_Images\0797.jpg	NY	Left	No	0.840783699997701	0	645202	252
1262.22265625	0.840783699997701	decision	choicePhaseStart	4	184	4	foodImage.81	FOODEEG_Images\0797.jpg	NY	Left	No	0.840783699997701	0	646259	253
1263.052734375	0	decision	response	4	184	4	foodImage.81	FOODEEG_Images\0797.jpg	NY	Left	No	0.840783699997701	0	646684	234
1264.09375	1	health	trialStart	4	185	5	foodImage.3	FOODEEG_Images\0046.jpg	YN	Right	No	0.744493399979547	0	647217	251
1265.134765625	2	health	foodImageDisplay	4	185	5	foodImage.3	FOODEEG_Images\0046.jpg	YN	Right	No	0.744493399979547	0	647750	252
1267.197265625	0.744493399979547	health	choicePhaseStart	4	185	5	foodImage.3	FOODEEG_Images\0046.jpg	YN	Right	No	0.744493399979547	0	648806	253
1267.93359375	0	health	response	4	185	5	foodImage.3	FOODEEG_Images\0046.jpg	YN	Right	No	0.744493399979547	0	649183	235
1268.982421875	1	decision	trialStart	4	186	6	foodImage.87	FOODEEG_Images\0873.jpg	YN	Right	No	0.656996900041122	0	649720	251
1270.0390625	2	decision	foodImageDisplay	4	186	6	foodImage.87	FOODEEG_Images\0873.jpg	YN	Right	No	0.656996900041122	0	650261	252
1272.1015625	0.656996900041122	decision	choicePhaseStart	4	186	6	foodImage.87	FOODEEG_Images\0873.jpg	YN	Right	No	0.656996900041122	0	651317	253
1272.75	0	decision	response	4	186	6	foodImage.87	FOODEEG_Images\0873.jpg	YN	Right	No	0.656996900041122	0	651649	235
1273.791015625	1	decision	trialStart	4	187	7	foodImage.23	FOODEEG_Images\0244.jpg	YN	Left	Yes	1.17837789998157	0	652182	251
1274.83203125	2	decision	foodImageDisplay	4	187	7	foodImage.23	FOODEEG_Images\0244.jpg	YN	Left	Yes	1.17837789998157	0	652715	252
1276.900390625	1.17837789998157	decision	choicePhaseStart	4	187	7	foodImage.23	FOODEEG_Images\0244.jpg	YN	Left	Yes	1.17837789998157	0	653774	253
1278.068359375	0	decision	response	4	187	7	foodImage.23	FOODEEG_Images\0244.jpg	YN	Left	Yes	1.17837789998157	0	654372	234
1279.111328125	1	decision	trialStart	4	188	8	foodImage.56	FOODEEG_Images\0586.jpg	NY	Left	No	0.726585600001272	0	654906	251
1280.15234375	2	decision	foodImageDisplay	4	188	8	foodImage.56	FOODEEG_Images\0586.jpg	NY	Left	No	0.726585600001272	0	655439	252
1282.21484375	0.726585600001272	decision	choicePhaseStart	4	188	8	foodImage.56	FOODEEG_Images\0586.jpg	NY	Left	No	0.726585600001272	0	656495	253
1282.931640625	0	decision	response	4	188	8	foodImage.56	FOODEEG_Images\0586.jpg	NY	Left	No	0.726585600001272	0	656862	234
1283.974609375	1	decision	trialStart	4	189	9	foodImage.7	FOODEEG_Images\0116.jpg	YN	Left	Yes	0.878323199984152	0	657396	251
1285.015625	2	decision	foodImageDisplay	4	189	9	foodImage.7	FOODEEG_Images\0116.jpg	YN	Left	Yes	0.878323199984152	0	657929	252
1287.078125	0.878323199984152	decision	choicePhaseStart	4	189	9	foodImage.7	FOODEEG_Images\0116.jpg	YN	Left	Yes	0.878323199984152	0	658985	253
1287.94921875	0	decision	response	4	189	9	foodImage.7	FOODEEG_Images\0116.jpg	YN	Left	Yes	0.878323199984152	0	659431	234
1288.9921875	1	taste	trialStart	4	190	10	foodImage.40	FOODEEG_Images\0373.jpg	YN	Left	Yes	0.571889100014232	0	659965	251
1290.033203125	2	taste	foodImageDisplay	4	190	10	foodImage.40	FOODEEG_Images\0373.jpg	YN	Left	Yes	0.571889100014232	0	660498	252
1292.09765625	0.571889100014232	taste	choicePhaseStart	4	190	10	foodImage.40	FOODEEG_Images\0373.jpg	YN	Left	Yes	0.571889100014232	0	661555	253
1292.66015625	0	taste	response	4	190	10	foodImage.40	FOODEEG_Images\0373.jpg	YN	Left	Yes	0.571889100014232	0	661843	234
1293.703125	1	decision	trialStart	4	191	11	foodImage.113	FOODEEG_Images\0921.jpg	NY	Left	No	0.585935099981725	0	662377	251
1294.7421875	2	decision	foodImageDisplay	4	191	11	foodImage.113	FOODEEG_Images\0921.jpg	NY	Left	No	0.585935099981725	0	662909	252
1296.8046875	0.585935099981725	decision	choicePhaseStart	4	191	11	foodImage.113	FOODEEG_Images\0921.jpg	NY	Left	No	0.585935099981725	0	663965	253
1297.380859375	0	decision	response	4	191	11	foodImage.113	FOODEEG_Images\0921.jpg	NY	Left	No	0.585935099981725	0	664260	234
1298.42578125	1	taste	trialStart	4	192	12	foodImage.89	FOODEEG_Images\0881.jpg	NY	Left	No	0.760981899977196	0	664795	251
1299.4765625	2	taste	foodImageDisplay	4	192	12	foodImage.89	FOODEEG_Images\0881.jpg	NY	Left	No	0.760981899977196	0	665333	252
