onset	duration	trial_type	event_type	block	trial_total	trial_in_block	food_image_code	food_image_path	button_position	resp_position	resp_choice	choice_rt	resp_too_slow	sample	trigger
367.970703125	2	n/a	blockStart	1	n/a	n/a	n/a	n/a	n/a	n/a	n/a	n/a	n/a	188402	250
370.005859375	1	taste	trialStart	1	1	1	foodImage.4	FOODEEG_Images\0065.jpg	YN	Left	Yes	0.912889400031418	0	189444	251
371.06640625	2	taste	foodImageDisplay	1	1	1	foodImage.4	FOODEEG_Images\0065.jpg	YN	Left	Yes	0.912889400031418	0	189987	252
373.130859375	0.912889400031418	taste	choicePhaseStart	1	1	1	foodImage.4	FOODEEG_Images\0065.jpg	YN	Left	Yes	0.912889400031418	0	191044	253
374.037109375	0	taste	response	1	1	1	foodImage.4	FOODEEG_Images\0065.jpg	YN	Left	Yes	0.912889400031418	0	191508	234
375.12890625	1	health	trialStart	1	2	2	foodImage.1	FOODEEG_Images\0004.jpg	YN	Left	Yes	1.10333910002373	0	192067	251
376.171875	2	health	foodImageDisplay	1	2	2	foodImage.1	FOODEEG_Images\0004.jpg	YN	Left	Yes	1.10333910002373	0	192601	252
378.236328125	1.10333910002373	health	choicePhaseStart	1	2	2	foodImage.1	FOODEEG_Images\0004.jpg	YN	Left	Yes	1.10333910002373	0	193658	253
379.33203125	0	health	response	1	2	2	foodImage.1	FOODEEG_Images\0004.jpg	YN	Left	Yes	1.10333910002373	0	194219	234
380.38671875	1	health	trialStart	1	3	3	foodImage.99	FOODEEG_Images\0907.jpg	NY	Right	Yes	1.58026199997403	0	194759	251
381.427734375	2	health	foodImageDisplay	1	3	3	foodImage.99	FOODEEG_Images\0907.jpg	NY	Right	Yes	1.58026199997403	0	195292	252
383.49609375	1.58026199997403	health	choicePhaseStart	1	3	3	foodImage.99	FOODEEG_Images\0907.jpg	NY	Right	Yes	1.58026199997403	0	196351	253
385.068359375	0	health	response	1	3	3	foodImage.99	FOODEEG_Images\0907.jpg	NY	Right	Yes	1.58026199997403	0	197156	235
386.11328125	1	health	trialStart	1	4	4	foodImage.9	FOODEEG_Images\0138.jpg	YN	Right	No	1.68064919998869	0	197691	251
387.171875	2	health	foodImageDisplay	1	4	4	foodImage.9	FOODEEG_Images\0138.jpg	YN	Right	No	1.68064919998869	0	198233	252
389.236328125	1.68064919998869	health	choicePhaseStart	1	4	4	foodImage.9	FOODEEG_Images\0138.jpg	YN	Right	No	1.68064919998869	0	199290	253
390.908203125	0	health	response	1	4	4	foodImage.9	FOODEEG_Images\0138.jpg	YN	Right	No	1.68064919998869	0	200146	235
391.953125	1	decision	trialStart	1	5	5	foodImage.81	FOODEEG_Images\0797.jpg	NY	Right	Yes	1.39003910007887	0	200681	251
393.013671875	2	decision	foodImageDisplay	1	5	5	foodImage.81	FOODEEG_Images\0797.jpg	NY	Right	Yes	1.39003910007887	0	201224	252
395.078125	1.39003910007887	decision	choicePhaseStart	1	5	5	foodImage.81	FOODEEG_Images\0797.jpg	NY	Right	Yes	1.39003910007887	0	202281	253
396.4609375	0	decision	response	1	5	5	foodImage.81	FOODEEG_Images\0797.jpg	NY	Right	Yes	1.39003910007887	0	202989	235
397.509765625	1	decision	trialStart	1	6	6	foodImage.68	FOODEEG_Images\0685.jpg	NY	Right	Yes	0.931266699917614	0	203526	251
398.5859375	2	decision	foodImageDisplay	1	6	6	foodImage.68	FOODEEG_Images\0685.jpg	NY	Right	Yes	0.931266699917614	0	204077	252
400.650390625	0.931266699917614	decision	choicePhaseStart	1	6	6	foodImage.68	FOODEEG_Images\0685.jpg	NY	Right	Yes	0.931266699917614	0	205134	253
401.572265625	0	decision	response	1	6	6	foodImage.68	FOODEEG_Images\0685.jpg	NY	Right	Yes	0.931266699917614	0	205606	235
402.61328125	1	taste	trialStart	1	7	7	foodImage.81	FOODEEG_Images\0797.jpg	NY	Left	No	2.22500310000032	0	206139	251
403.66796875	2	taste	foodImageDisplay	1	7	7	foodImage.81	FOODEEG_Images\0797.jpg	NY	Left	No	2.22500310000032	0	206679	252
405.732421875	2.22500310000032	taste	choicePhaseStart	1	7	7	foodImage.81	FOODEEG_Images\0797.jpg	NY	Left	No	2.22500310000032	0	207736	253
407.947265625	0	taste	response	1	7	7	foodImage.81	FOODEEG_Images\0797.jpg	NY	Left	No	2.22500310000032	0	208870	234
408.990234375	1	taste	trialStart	1	8	8	foodImage.119	FOODEEG_Images\0927.jpg	NY	Right	Yes	1.15896060015075	0	209404	251
410.029296875	2	taste	foodImageDisplay	1	8	8	foodImage.119	FOODEEG_Images\0927.jpg	NY	Right	Yes	1.15896060015075	0	209936	252
412.091796875	1.15896060015075	taste	choicePhaseStart	1	8	8	foodImage.119	FOODEEG_Images\0927.jpg	NY	Right	Yes	1.15896060015075	0	210992	253
413.244140625	0	taste	response	1	8	8	foodImage.119	FOODEEG_Images\0927.jpg	NY	Right	Yes	1.15896060015075	0	211582	235
414.287109375	1	taste	trialStart	1	9	9	foodImage.40	FOODEEG_Images\0373.jpg	YN	Left	Yes	1.01002070005052	0	212116	251
415.330078125	2	taste	foodImageDisplay	1	9	9	foodImage.40	FOODEEG_Images\0373.jpg	YN	Left	Yes	1.01002070005052	0	212650	252
417.392578125	1.01002070005052	taste	choicePhaseStart	1	9	9	foodImage.40	FOODEEG_Images\0373.jpg	YN	Left	Yes	1.01002070005052	0	213706	253
418.39453125	0	taste	response	1	9	9	foodImage.40	FOODEEG_Images\0373.jpg	YN	Left	Yes	1.01002070005052	0	214219	234
419.439453125	1	health	trialStart	1	10	10	foodImage.44	FOODEEG_Images\0459.jpg	NY	Right	Yes	1.17492689983919	0	214754	251
420.484375	2	health	foodImageDisplay	1	10	10	foodImage.44	FOODEEG_Images\0459.jpg	NY	Right	Yes	1.17492689983919	0	215289	252
422.546875	1.17492689983919	health	choicePhaseStart	1	10	10	foodImage.44	FOODEEG_Images\0459.jpg	NY	Right	Yes	1.17492689983919	0	216345	253
423.71484375	0	health	response	1	10	10	foodImage.44	FOODEEG_Images\0459.jpg	NY	Right	Yes	1.17492689983919	0	216943	235
424.755859375	1	taste	trialStart	1	11	11	foodImage.75	FOODEEG_Images\0763.jpg	NY	Left	No	2.66867500008084	0	217476	251
425.798828125	2	taste	foodImageDisplay	1	11	11	foodImage.75	FOODEEG_Images\0763.jpg	NY	Left	No	2.66867500008084	0	218010	252
427.861328125	2.66867500008084	taste	choicePhaseStart	1	11	11	foodImage.75	FOODEEG_Images\0763.jpg	NY	Left	No	2.66867500008084	0	219066	253
430.5234375	0	taste	response	1	11	11	foodImage.75	FOODEEG_Images\0763.jpg	NY	Left	No	2.66867500008084	0	220429	234
431.56640625	1	health	trialStart	1	12	12	foodImage.49	FOODEEG_Images\0515.jpg	YN	Right	No	1.26581140002236	0	220963	251
432.607421875	2	health	foodImageDisplay	1	12	12	foodImage.49	FOODEEG_Images\0515.jpg	YN	Right	No	1.26581140002236	0	221496	252
434.671875	1.26581140002236	health	choicePhaseStart	1	12	12	foodImage.49	FOODEEG_Images\0515.jpg	YN	Right	No	1.26581140002236	0	222553	253
435.9296875	0	health	response	1	12	12	foodImage.49	FOODEEG_Images\0515.jpg	YN	Right	No	1.26581140002236	0	223197	235
436.97265625	1	decision	trialStart	1	13	13	foodImage.24	FOODEEG_Images\0250.jpg	YN	Right	No	1.2778290999122	0	223731	251
438.013671875	2	decision	foodImageDisplay	1	13	13	foodImage.24	FOODEEG_Images\0250.jpg	YN	Right	No	1.2778290999122	0	224264	252
440.076171875	1.2778290999122	decision	choicePhaseStart	1	13	13	foodImage.24	FOODEEG_Images\0250.jpg	YN	Right	No	1.2778290999122	0	225320	253
441.345703125	0	decision	response	1	13	13	foodImage.24	FOODEEG_Images\0250.jpg	YN	Right	No	1.2778290999122	0	225970	235
442.390625	1	taste	trialStart	1	14	14	foodImage.46	FOODEEG_Images\0479.jpg	NY	Right	Yes	1.13338740007021	0	226505	251
443.4453125	2	taste	foodImageDisplay	1	14	14	foodImage.46	FOODEEG_Images\0479.jpg	NY	Right	Yes	1.13338740007021	0	227045	252
445.509765625	1.13338740007021	taste	choicePhaseStart	1	14	14	foodImage.46	FOODEEG_Images\0479.jpg	NY	Right	Yes	1.13338740007021	0	228102	253
446.6328125	0	taste	response	1	14	14	foodImage.46	FOODEEG_Images\0479.jpg	NY	Right	Yes	1.13338740007021	0	228677	235
447.67578125	1	health	trialStart	1	15	15	foodImage.95	FOODEEG_Images\0903.jpg	NY	Left	No	1.2906599000562	0	229211	251
448.712890625	2	health	foodImageDisplay	1	15	15	foodImage.95	FOODEEG_Images\0903.jpg	NY	Left	No	1.2906599000562	0	229742	252
450.775390625	1.2906599000562	health	choicePhaseStart	1	15	15	foodImage.95	FOODEEG_Images\0903.jpg	NY	Left	No	1.2906599000562	0	230798	253
452.056640625	0	health	response	1	15	15	foodImage.95	FOODEEG_Images\0903.jpg	NY	Left	No	1.2906599000562	0	231454	234
453.099609375	1	decision	trialStart	1	16	16	foodImage.113	FOODEEG_Images\0921.jpg	NY	Right	Yes	1.56767659983598	0	231988	251
454.140625	2	decision	foodImageDisplay	1	16	16	foodImage.113	FOODEEG_Images\0921.jpg	NY	Right	Yes	1.56767659983598	0	232521	252
456.203125	1.56767659983598	decision	choicePhaseStart	1	16	16	foodImage.113	FOODEEG_Images\0921.jpg	NY	Right	Yes	1.56767659983598	0	233577	253
457.76171875	0	decision	response	1	16	16	foodImage.113	FOODEEG_Images\0921.jpg	NY	Right	Yes	1.56767659983598	0	234375	235
458.80078125	1	decision	trialStart	1	17	17	foodImage.16	FOODEEG_Images\0196.jpg	YN	Left	Yes	1.16408349992707	0	234907	251
459.859375	2	decision	foodImageDisplay	1	17	17	foodImage.16	FOODEEG_Images\0196.jpg	YN	Left	Yes	1.16408349992707	0	235449	252
461.923828125	1.16408349992707	decision	choicePhaseStart	1	17	17	foodImage.16	FOODEEG_Images\0196.jpg	YN	Left	Yes	1.16408349992707	0	236506	253
463.080078125	0	decision	response	1	17	17	foodImage.16	FOODEEG_Images\0196.jpg	YN	Left	Yes	1.16408349992707	0	237098	234
464.12109375	1	taste	trialStart	1	18	18	foodImage.91	FOODEEG_Images\0896.jpg	NY	Right	Yes	1.08359619998373	0	237631	251
465.17578125	2	taste	foodImageDisplay	1	18	18	foodImage.91	FOODEEG_Images\0896.jpg	NY	Right	Yes	1.08359619998373	0	238171	252
467.23828125	1.08359619998373	taste	choicePhaseStart	1	18	18	foodImage.91	FOODEEG_Images\0896.jpg	NY	Right	Yes	1.08359619998373	0	239227	253
468.3125	0	taste	response	1	18	18	foodImage.91	FOODEEG_Images\0896.jpg	NY	Right	Yes	1.08359619998373	0	239777	235
469.353515625	1	taste	trialStart	1	19	19	foodImage.14	FOODEEG_Images\0188.jpg	YN	Left	Yes	0.81167390011251	0	240310	251
470.408203125	2	taste	foodImageDisplay	1	19	19	foodImage.14	FOODEEG_Images\0188.jpg	YN	Left	Yes	0.81167390011251	0	240850	252
472.470703125	0.81167390011251	taste	choicePhaseStart	1	19	19	foodImage.14	FOODEEG_Images\0188.jpg	YN	Left	Yes	0.81167390011251	0	241906	253
473.2734375	0	taste	response	1	19	19	foodImage.14	FOODEEG_Images\0188.jpg	YN	Left	Yes	0.81167390011251	0	242317	234
474.31640625	1	decision	trialStart	1	20	20	foodImage.43	FOODEEG_Images\0445.jpg	NY	Right	Yes	0.975469699827954	0	242851	251
475.37109375	2	decision	foodImageDisplay	1	20	20	foodImage.43	FOODEEG_Images\0445.jpg	NY	Right	Yes	0.975469699827954	0	243391	252
477.435546875	0.975469699827954	decision	choicePhaseStart	1	20	20	foodImage.43	FOODEEG_Images\0445.jpg	NY	Right	Yes	0.975469699827954	0	244448	253
478.400390625	0	decision	response	1	20	20	foodImage.43	FOODEEG_Images\0445.jpg	NY	Right	Yes	0.975469699827954	0	244942	235
479.443359375	1	taste	trialStart	1	21	21	foodImage.102	FOODEEG_Images\0910.jpg	NY	Right	Yes	1.2635560000781	0	245476	251
480.482421875	2	taste	foodImageDisplay	1	21	21	foodImage.102	FOODEEG_Images\0910.jpg	NY	Right	Yes	1.2635560000781	0	246008	252
482.544921875	1.2635560000781	taste	choicePhaseStart	1	21	21	foodImage.102	FOODEEG_Images\0910.jpg	NY	Right	Yes	1.2635560000781	0	247064	253
483.80078125	0	taste	response	1	21	21	foodImage.102	FOODEEG_Images\0910.jpg	NY	Right	Yes	1.2635560000781	0	247707	235
484.841796875	1	decision	trialStart	1	22	22	foodImage.107	FOODEEG_Images\0915.jpg	NY	Left	No	1.16239670012146	0	248240	251
485.880859375	2	decision	foodImageDisplay	1	22	22	foodImage.107	FOODEEG_Images\0915.jpg	NY	Left	No	1.16239670012146	0	248772	252
487.943359375	1.16239670012146	decision	choicePhaseStart	1	22	22	foodImage.107	FOODEEG_Images\0915.jpg	NY	Left	No	1.16239670012146	0	249828	253
489.095703125	0	decision	response	1	22	22	foodImage.107	FOODEEG_Images\0915.jpg	NY	Left	No	1.16239670012146	0	250418	234
490.138671875	1	decision	trialStart	1	23	23	foodImage.118	FOODEEG_Images\0926.jpg	NY	Left	No	0.889621299924329	0	250952	251
491.17578125	2	decision	foodImageDisplay	1	23	23	foodImage.118	FOODEEG_Images\0926.jpg	NY	Left	No	0.889621299924329	0	251483	252
493.23828125	0.889621299924329	decision	choicePhaseStart	1	23	23	foodImage.118	FOODEEG_Images\0926.jpg	NY	Left	No	0.889621299924329	0	252539	253
494.119140625	0	decision	response	1	23	23	foodImage.118	FOODEEG_Images\0926.jpg	NY	Left	No	0.889621299924329	0	252990	234
495.16015625	1	decision	trialStart	1	24	24	foodImage.94	FOODEEG_Images\0902.jpg	YN	Left	Yes	0.628025899874046	0	253523	251
496.197265625	2	decision	foodImageDisplay	1	24	24	foodImage.94	FOODEEG_Images\0902.jpg	YN	Left	Yes	0.628025899874046	0	254054	252
498.259765625	0.628025899874046	decision	choicePhaseStart	1	24	24	foodImage.94	FOODEEG_Images\0902.jpg	YN	Left	Yes	0.628025899874046	0	255110	253
498.87890625	0	decision	response	1	24	24	foodImage.94	FOODEEG_Images\0902.jpg	YN	Left	Yes	0.628025899874046	0	255427	234
499.923828125	1	taste	trialStart	1	25	25	foodImage.88	FOODEEG_Images\0878.jpg	YN	Left	Yes	0.774280400015414	0	255962	251
500.978515625	2	taste	foodImageDisplay	1	25	25	foodImage.88	FOODEEG_Images\0878.jpg	YN	Left	Yes	0.774280400015414	0	256502	252
503.04296875	0.774280400015414	taste	choicePhaseStart	1	25	25	foodImage.88	FOODEEG_Images\0878.jpg	YN	Left	Yes	0.774280400015414	0	257559	253
503.806640625	0	taste	response	1	25	25	foodImage.88	FOODEEG_Images\0878.jpg	YN	Left	Yes	0.774280400015414	0	257950	234
504.849609375	1	decision	trialStart	1	26	26	foodImage.48	FOODEEG_Images\0494.jpg	YN	Right	No	1.24581189989112	0	258484	251
505.890625	2	decision	foodImageDisplay	1	26	26	foodImage.48	FOODEEG_Images\0494.jpg	YN	Right	No	1.24581189989112	0	259017	252
507.953125	1.24581189989112	decision	choicePhaseStart	1	26	26	foodImage.48	FOODEEG_Images\0494.jpg	YN	Right	No	1.24581189989112	0	260073	253
509.19140625	0	decision	response	1	26	26	foodImage.48	FOODEEG_Images\0494.jpg	YN	Right	No	1.24581189989112	0	260707	235
510.23046875	1	health	trialStart	1	27	27	foodImage.114	FOODEEG_Images\0922.jpg	YN	Left	Yes	0.635964600136504	0	261239	251
511.267578125	2	health	foodImageDisplay	1	27	27	foodImage.114	FOODEEG_Images\0922.jpg	YN	Left	Yes	0.635964600136504	0	261770	252
513.33203125	0.635964600136504	health	choicePhaseStart	1	27	27	foodImage.114	FOODEEG_Images\0922.jpg	YN	Left	Yes	0.635964600136504	0	262827	253
513.958984375	0	health	response	1	27	27	foodImage.114	FOODEEG_Images\0922.jpg	YN	Left	Yes	0.635964600136504	0	263148	234
515.001953125	1	health	trialStart	1	28	28	foodImage.56	FOODEEG_Images\0586.jpg	YN	Left	Yes	0.671833599917591	0	263682	251
516.046875	2	health	foodImageDisplay	1	28	28	foodImage.56	FOODEEG_Images\0586.jpg	YN	Left	Yes	0.671833599917591	0	264217	252
518.111328125	0.671833599917591	health	choicePhaseStart	1	28	28	foodImage.56	FOODEEG_Images\0586.jpg	YN	Left	Yes	0.671833599917591	0	265274	253
518.775390625	0	health	response	1	28	28	foodImage.56	FOODEEG_Images\0586.jpg	YN	Left	Yes	0.671833599917591	0	265614	234
519.818359375	1	taste	trialStart	1	29	29	foodImage.32	FOODEEG_Images\0319.jpg	NY	Right	Yes	1.02638539997861	0	266148	251
520.86328125	2	taste	foodImageDisplay	1	29	29	foodImage.32	FOODEEG_Images\0319.jpg	NY	Right	Yes	1.02638539997861	0	266683	252
522.92578125	1.02638539997861	taste	choicePhaseStart	1	29	29	foodImage.32	FOODEEG_Images\0319.jpg	NY	Right	Yes	1.02638539997861	0	267739	253
523.943359375	0	taste	response	1	29	29	foodImage.32	FOODEEG_Images\0319.jpg	NY	Right	Yes	1.02638539997861	0	268260	235
524.984375	1	health	trialStart	1	30	30	foodImage.69	FOODEEG_Images\0693.jpg	YN	Right	No	1.37199870008044	0	268793	251
526.02734375	2	health	foodImageDisplay	1	30	30	foodImage.69	FOODEEG_Images\0693.jpg	YN	Right	No	1.37199870008044	0	269327	252
528.08984375	1.37199870008044	health	choicePhaseStart	1	30	30	foodImage.69	FOODEEG_Images\0693.jpg	YN	Right	No	1.37199870008044	0	270383	253
529.455078125	0	health	response	1	30	30	foodImage.69	FOODEEG_Images\0693.jpg	YN	Right	No	1.37199870008044	0	271082	235
530.494140625	1	taste	trialStart	1	31	31	foodImage.87	FOODEEG_Images\0873.jpg	YN	Right	No	1.75442180014215	0	271614	251
531.55078125	2	taste	foodImageDisplay	1	31	31	foodImage.87	FOODEEG_Images\0873.jpg	YN	Right	No	1.75442180014215	0	272155	252
533.61328125	1.75442180014215	taste	choicePhaseStart	1	31	31	foodImage.87	FOODEEG_Images\0873.jpg	YN	Right	No	1.75442180014215	0	273211	253
535.357421875	0	taste	response	1	31	31	foodImage.87	FOODEEG_Images\0873.jpg	YN	Right	No	1.75442180014215	0	274104	235
536.3984375	1	decision	trialStart	1	32	32	foodImage.71	FOODEEG_Images\0713.jpg	YN	Left	Yes	0.920899500139058	0	274637	251
537.4375	2	decision	foodImageDisplay	1	32	32	foodImage.71	FOODEEG_Images\0713.jpg	YN	Left	Yes	0.920899500139058	0	275169	252
539.501953125	0.920899500139058	decision	choicePhaseStart	1	32	32	foodImage.71	FOODEEG_Images\0713.jpg	YN	Left	Yes	0.920899500139058	0	276226	253
540.4140625	0	decision	response	1	32	32	foodImage.71	FOODEEG_Images\0713.jpg	YN	Left	Yes	0.920899500139058	0	276693	234
541.453125	1	health	trialStart	1	33	33	foodImage.55	FOODEEG_Images\0567.jpg	YN	Left	Yes	0.938679900020361	0	277225	251
542.509765625	2	health	foodImageDisplay	1	33	33	foodImage.55	FOODEEG_Images\0567.jpg	YN	Left	Yes	0.938679900020361	0	277766	252
544.572265625	0.938679900020361	health	choicePhaseStart	1	33	33	foodImage.55	FOODEEG_Images\0567.jpg	YN	Left	Yes	0.938679900020361	0	278822	253
545.501953125	0	health	response	1	33	33	foodImage.55	FOODEEG_Images\0567.jpg	YN	Left	Yes	0.938679900020361	0	279298	234
546.546875	1	taste	trialStart	1	34	34	foodImage.21	FOODEEG_Images\0234.jpg	YN	Left	Yes	0.458376799942926	0	279833	251
547.60546875	2	taste	foodImageDisplay	1	34	34	foodImage.21	FOODEEG_Images\0234.jpg	YN	Left	Yes	0.458376799942926	0	280375	252
549.66796875	0.458376799942926	taste	choicePhaseStart	1	34	34	foodImage.21	FOODEEG_Images\0234.jpg	YN	Left	Yes	0.458376799942926	0	281431	253
550.1171875	0	taste	response	1	34	34	foodImage.21	FOODEEG_Images\0234.jpg	YN	Left	Yes	0.458376799942926	0	281661	234
551.16015625	1	decision	trialStart	1	35	35	foodImage.52	FOODEEG_Images\0539.jpg	NY	Right	Yes	0.812506399815902	0	282195	251
552.21875	2	decision	foodImageDisplay	1	35	35	foodImage.52	FOODEEG_Images\0539.jpg	NY	Right	Yes	0.812506399815902	0	282737	252
554.28125	0.812506399815902	decision	choicePhaseStart	1	35	35	foodImage.52	FOODEEG_Images\0539.jpg	NY	Right	Yes	0.812506399815902	0	283793	253
555.0859375	0	decision	response	1	35	35	foodImage.52	FOODEEG_Images\0539.jpg	NY	Right	Yes	0.812506399815902	0	284205	235
556.12890625	1	decision	trialStart	1	36	36	foodImage.86	FOODEEG_Images\0844.jpg	YN	Left	Yes	0.75989060010761	0	284739	251
557.18359375	2	decision	foodImageDisplay	1	36	36	foodImage.86	FOODEEG_Images\0844.jpg	YN	Left	Yes	0.75989060010761	0	285279	252
559.24609375	0.75989060010761	decision	choicePhaseStart	1	36	36	foodImage.86	FOODEEG_Images\0844.jpg	YN	Left	Yes	0.75989060010761	0	286335	253
559.99609375	0	decision	response	1	36	36	foodImage.86	FOODEEG_Images\0844.jpg	YN	Left	Yes	0.75989060010761	0	286719	234
561.041015625	1	health	trialStart	1	37	37	foodImage.92	FOODEEG_Images\0900.jpg	YN	Right	No	1.24086809996516	0	287254	251
562.078125	2	health	foodImageDisplay	1	37	37	foodImage.92	FOODEEG_Images\0900.jpg	YN	Right	No	1.24086809996516	0	287785	252
564.140625	1.24086809996516	health	choicePhaseStart	1	37	37	foodImage.92	FOODEEG_Images\0900.jpg	YN	Right	No	1.24086809996516	0	288841	253
565.373046875	0	health	response	1	37	37	foodImage.92	FOODEEG_Images\0900.jpg	YN	Right	No	1.24086809996516	0	289472	235
566.416015625	1	decision	trialStart	1	38	38	foodImage.65	FOODEEG_Images\0658.jpg	NY	Left	No	0.575722799869254	0	290006	251
567.455078125	2	decision	foodImageDisplay	1	38	38	foodImage.65	FOODEEG_Images\0658.jpg	NY	Left	No	0.575722799869254	0	290538	252
569.517578125	0.575722799869254	decision	choicePhaseStart	1	38	38	foodImage.65	FOODEEG_Images\0658.jpg	NY	Left	No	0.575722799869254	0	291594	253
570.083984375	0	decision	response	1	38	38	foodImage.65	FOODEEG_Images\0658.jpg	NY	Left	No	0.575722799869254	0	291884	234
571.126953125	1	health	trialStart	1	39	39	foodImage.85	FOODEEG_Images\0841.jpg	YN	Right	No	1.2990797997918	0	292418	251
572.185546875	2	health	foodImageDisplay	1	39	39	foodImage.85	FOODEEG_Images\0841.jpg	YN	Right	No	1.2990797997918	0	292960	252
574.25	1.2990797997918	health	choicePhaseStart	1	39	39	foodImage.85	FOODEEG_Images\0841.jpg	YN	Right	No	1.2990797997918	0	294017	253
575.541015625	0	health	response	1	39	39	foodImage.85	FOODEEG_Images\0841.jpg	YN	Right	No	1.2990797997918	0	294678	235
576.580078125	1	taste	trialStart	1	40	40	foodImage.89	FOODEEG_Images\0881.jpg	YN	Left	Yes	1.17989440006204	0	295210	251
577.634765625	2	taste	foodImageDisplay	1	40	40	foodImage.89	FOODEEG_Images\0881.jpg	YN	Left	Yes	1.17989440006204	0	295750	252
579.697265625	1.17989440006204	taste	choicePhaseStart	1	40	40	foodImage.89	FOODEEG_Images\0881.jpg	YN	Left	Yes	1.17989440006204	0	296806	253
580.869140625	0	taste	response	1	40	40	foodImage.89	FOODEEG_Images\0881.jpg	YN	Left	Yes	1.17989440006204	0	297406	234
581.91015625	1	health	trialStart	1	41	41	foodImage.75	FOODEEG_Images\0763.jpg	NY	Right	Yes	1.05328679992817	0	297939	251
582.9609375	2	health	foodImageDisplay	1	41	41	foodImage.75	FOODEEG_Images\0763.jpg	NY	Right	Yes	1.05328679992817	0	298477	252
585.0234375	1.05328679992817	health	choicePhaseStart	1	41	41	foodImage.75	FOODEEG_Images\0763.jpg	NY	Right	Yes	1.05328679992817	0	299533	253
586.068359375	0	health	response	1	41	41	foodImage.75	FOODEEG_Images\0763.jpg	NY	Right	Yes	1.05328679992817	0	300068	235
587.111328125	1	taste	trialStart	1	42	42	foodImage.54	FOODEEG_Images\0560.jpg	YN	Left	Yes	0.891582600073889	0	300602	251
588.169921875	2	taste	foodImageDisplay	1	42	42	foodImage.54	FOODEEG_Images\0560.jpg	YN	Left	Yes	0.891582600073889	0	301144	252
590.232421875	0.891582600073889	taste	choicePhaseStart	1	42	42	foodImage.54	FOODEEG_Images\0560.jpg	YN	Left	Yes	0.891582600073889	0	302200	253
591.115234375	0	taste	response	1	42	42	foodImage.54	FOODEEG_Images\0560.jpg	YN	Left	Yes	0.891582600073889	0	302652	234
592.158203125	1	decision	trialStart	1	43	43	foodImage.63	FOODEEG_Images\0645.jpg	YN	Left	Yes	0.81043260009028	0	303186	251
593.203125	2	decision	foodImageDisplay	1	43	43	foodImage.63	FOODEEG_Images\0645.jpg	YN	Left	Yes	0.81043260009028	0	303721	252
595.265625	0.81043260009028	decision	choicePhaseStart	1	43	43	foodImage.63	FOODEEG_Images\0645.jpg	YN	Left	Yes	0.81043260009028	0	304777	253
596.068359375	0	decision	response	1	43	43	foodImage.63	FOODEEG_Images\0645.jpg	YN	Left	Yes	0.81043260009028	0	305188	234
597.109375	1	health	trialStart	1	44	44	foodImage.38	FOODEEG_Images\0365.jpg	YN	Left	Yes	0.719392500119284	0	305721	251
598.1484375	2	health	foodImageDisplay	1	44	44	foodImage.38	FOODEEG_Images\0365.jpg	YN	Left	Yes	0.719392500119284	0	306253	252
600.2109375	0.719392500119284	health	choicePhaseStart	1	44	44	foodImage.38	FOODEEG_Images\0365.jpg	YN	Left	Yes	0.719392500119284	0	307309	253
600.923828125	0	health	response	1	44	44	foodImage.38	FOODEEG_Images\0365.jpg	YN	Left	Yes	0.719392500119284	0	307674	234
601.966796875	1	decision	trialStart	1	45	45	foodImage.119	FOODEEG_Images\0927.jpg	NY	Right	Yes	1.14486180013046	0	308208	251
603.00390625	2	decision	foodImageDisplay	1	45	45	foodImage.119	FOODEEG_Images\0927.jpg	NY	Right	Yes	1.14486180013046	0	308739	252
605.06640625	1.14486180013046	decision	choicePhaseStart	1	45	45	foodImage.119	FOODEEG_Images\0927.jpg	NY	Right	Yes	1.14486180013046	0	309795	253
606.203125	0	decision	response	1	45	45	foodImage.119	FOODEEG_Images\0927.jpg	NY	Right	Yes	1.14486180013046	0	310377	235
607.25	1	decision	trialStart	1	46	46	foodImage.5	FOODEEG_Images\0107.jpg	YN	Right	No	0.70622849999927	0	310913	251
608.330078125	2	decision	foodImageDisplay	1	46	46	foodImage.5	FOODEEG_Images\0107.jpg	YN	Right	No	0.70622849999927	0	311466	252
610.392578125	0.70622849999927	decision	choicePhaseStart	1	46	46	foodImage.5	FOODEEG_Images\0107.jpg	YN	Right	No	0.70622849999927	0	312522	253
611.091796875	0	decision	response	1	46	46	foodImage.5	FOODEEG_Images\0107.jpg	YN	Right	No	0.70622849999927	0	312880	235
612.134765625	1	decision	trialStart	1	47	47	foodImage.73	FOODEEG_Images\0717.jpg	NY	Right	Yes	1.19420359982178	0	313414	251
613.193359375	2	decision	foodImageDisplay	1	47	47	foodImage.73	FOODEEG_Images\0717.jpg	NY	Right	Yes	1.19420359982178	0	313956	252
615.255859375	1.19420359982178	decision	choicePhaseStart	1	47	47	foodImage.73	FOODEEG_Images\0717.jpg	NY	Right	Yes	1.19420359982178	0	315012	253
616.443359375	0	decision	response	1	47	47	foodImage.73	FOODEEG_Images\0717.jpg	NY	Right	Yes	1.19420359982178	0	315620	235
617.484375	1	health	trialStart	1	48	48	foodImage.84	FOODEEG_Images\0830.jpg	NY	Right	Yes	1.60601820005104	0	316153	251
618.54296875	2	health	foodImageDisplay	1	48	48	foodImage.84	FOODEEG_Images\0830.jpg	NY	Right	Yes	1.60601820005104	0	316695	252
620.60546875	1.60601820005104	health	choicePhaseStart	1	48	48	foodImage.84	FOODEEG_Images\0830.jpg	NY	Right	Yes	1.60601820005104	0	317751	253
622.203125	0	health	response	1	48	48	foodImage.84	FOODEEG_Images\0830.jpg	NY	Right	Yes	1.60601820005104	0	318569	235
623.24609375	1	taste	trialStart	1	49	49	foodImage.44	FOODEEG_Images\0459.jpg	YN	Left	Yes	2.47326219989918	0	319103	251
624.29296875	2	taste	foodImageDisplay	1	49	49	foodImage.44	FOODEEG_Images\0459.jpg	YN	Left	Yes	2.47326219989918	0	319639	252
626.35546875	2.47326219989918	taste	choicePhaseStart	1	49	49	foodImage.44	FOODEEG_Images\0459.jpg	YN	Left	Yes	2.47326219989918	0	320695	253
628.818359375	0	taste	response	1	49	49	foodImage.44	FOODEEG_Images\0459.jpg	YN	Left	Yes	2.47326219989918	0	321956	234
629.86328125	1	health	trialStart	1	50	50	foodImage.4	FOODEEG_Images\0065.jpg	NY	Left	No	1.10633430001326	0	322491	251
630.919921875	2	health	foodImageDisplay	1	50	50	foodImage.4	FOODEEG_Images\0065.jpg	NY	Left	No	1.10633430001326	0	323032	252
632.984375	1.10633430001326	health	choicePhaseStart	1	50	50	foodImage.4	FOODEEG_Images\0065.jpg	NY	Left	No	1.10633430001326	0	324089	253
634.08203125	0	health	response	1	50	50	foodImage.4	FOODEEG_Images\0065.jpg	NY	Left	No	1.10633430001326	0	324651	234
635.126953125	1	decision	trialStart	1	51	51	foodImage.85	FOODEEG_Images\0841.jpg	NY	Right	Yes	1.59968210011721	0	325186	251
636.181640625	2	decision	foodImageDisplay	1	51	51	foodImage.85	FOODEEG_Images\0841.jpg	NY	Right	Yes	1.59968210011721	0	325726	252
638.244140625	1.59968210011721	decision	choicePhaseStart	1	51	51	foodImage.85	FOODEEG_Images\0841.jpg	NY	Right	Yes	1.59968210011721	0	326782	253
639.833984375	0	decision	response	1	51	51	foodImage.85	FOODEEG_Images\0841.jpg	NY	Right	Yes	1.59968210011721	0	327596	235
640.875	1	health	trialStart	1	52	52	foodImage.46	FOODEEG_Images\0479.jpg	YN	Left	Yes	1.16918869991787	0	328129	251
641.94140625	2	health	foodImageDisplay	1	52	52	foodImage.46	FOODEEG_Images\0479.jpg	YN	Left	Yes	1.16918869991787	0	328675	252
644.001953125	1.16918869991787	health	choicePhaseStart	1	52	52	foodImage.46	FOODEEG_Images\0479.jpg	YN	Left	Yes	1.16918869991787	0	329730	253
645.162109375	0	health	response	1	52	52	foodImage.46	FOODEEG_Images\0479.jpg	YN	Left	Yes	1.16918869991787	0	330324	234
646.205078125	1	health	trialStart	1	53	53	foodImage.26	FOODEEG_Images\0262.jpg	NY	Right	Yes	1.0825209999457	0	330858	251
647.24609375	2	health	foodImageDisplay	1	53	53	foodImage.26	FOODEEG_Images\0262.jpg	NY	Right	Yes	1.0825209999457	0	331391	252
649.3125	1.0825209999457	health	choicePhaseStart	1	53	53	foodImage.26	FOODEEG_Images\0262.jpg	NY	Right	Yes	1.0825209999457	0	332449	253
650.38671875	0	health	response	1	53	53	foodImage.26	FOODEEG_Images\0262.jpg	NY	Right	Yes	1.0825209999457	0	332999	235
651.4296875	1	taste	trialStart	1	54	54	foodImage.20	FOODEEG_Images\0226.jpg	NY	Right	Yes	1.37434880016372	0	333533	251
652.470703125	2	taste	foodImageDisplay	1	54	54	foodImage.20	FOODEEG_Images\0226.jpg	NY	Right	Yes	1.37434880016372	0	334066	252
654.533203125	1.37434880016372	taste	choicePhaseStart	1	54	54	foodImage.20	FOODEEG_Images\0226.jpg	NY	Right	Yes	1.37434880016372	0	335122	253
655.8984375	0	taste	response	1	54	54	foodImage.20	FOODEEG_Images\0226.jpg	NY	Right	Yes	1.37434880016372	0	335821	235
656.939453125	1	taste	trialStart	1	55	55	foodImage.37	FOODEEG_Images\0359.jpg	NY	Left	No	1.24850019998848	0	336354	251
657.978515625	2	taste	foodImageDisplay	1	55	55	foodImage.37	FOODEEG_Images\0359.jpg	NY	Left	No	1.24850019998848	0	336886	252
660.041015625	1.24850019998848	taste	choicePhaseStart	1	55	55	foodImage.37	FOODEEG_Images\0359.jpg	NY	Left	No	1.24850019998848	0	337942	253
661.28125	0	taste	response	1	55	55	foodImage.37	FOODEEG_Images\0359.jpg	NY	Left	No	1.24850019998848	0	338577	234
662.326171875	1	decision	trialStart	1	56	56	foodImage.30	FOODEEG_Images\0282.jpg	NY	Right	Yes	0.522072500083596	0	339112	251
663.369140625	2	decision	foodImageDisplay	1	56	56	foodImage.30	FOODEEG_Images\0282.jpg	NY	Right	Yes	0.522072500083596	0	339646	252
665.431640625	0.522072500083596	decision	choicePhaseStart	1	56	56	foodImage.30	FOODEEG_Images\0282.jpg	NY	Right	Yes	0.522072500083596	0	340702	253
665.9453125	0	decision	response	1	56	56	foodImage.30	FOODEEG_Images\0282.jpg	NY	Right	Yes	0.522072500083596	0	340965	235
666.9921875	1	health	trialStart	1	57	57	foodImage.67	FOODEEG_Images\0679.jpg	YN	Left	Yes	1.09980809991248	0	341501	251
668.048828125	2	health	foodImageDisplay	1	57	57	foodImage.67	FOODEEG_Images\0679.jpg	YN	Left	Yes	1.09980809991248	0	342042	252
670.109375	1.09980809991248	health	choicePhaseStart	1	57	57	foodImage.67	FOODEEG_Images\0679.jpg	YN	Left	Yes	1.09980809991248	0	343097	253
671.201171875	0	health	response	1	57	57	foodImage.67	FOODEEG_Images\0679.jpg	YN	Left	Yes	1.09980809991248	0	343656	234
672.244140625	1	decision	trialStart	1	58	58	foodImage.29	FOODEEG_Images\0278.jpg	YN	Left	Yes	1.04276470001787	0	344190	251
673.283203125	2	decision	foodImageDisplay	1	58	58	foodImage.29	FOODEEG_Images\0278.jpg	YN	Left	Yes	1.04276470001787	0	344722	252
675.349609375	1.04276470001787	decision	choicePhaseStart	1	58	58	foodImage.29	FOODEEG_Images\0278.jpg	YN	Left	Yes	1.04276470001787	0	345780	253
676.384765625	0	decision	response	1	58	58	foodImage.29	FOODEEG_Images\0278.jpg	YN	Left	Yes	1.04276470001787	0	346310	234
677.427734375	1	health	trialStart	1	59	59	foodImage.33	FOODEEG_Images\0329.jpg	NY	Right	Yes	0.484182700049132	0	346844	251
678.470703125	2	health	foodImageDisplay	1	59	59	foodImage.33	FOODEEG_Images\0329.jpg	NY	Right	Yes	0.484182700049132	0	347378	252
680.533203125	0.484182700049132	health	choicePhaseStart	1	59	59	foodImage.33	FOODEEG_Images\0329.jpg	NY	Right	Yes	0.484182700049132	0	348434	253
681.0078125	0	health	response	1	59	59	foodImage.33	FOODEEG_Images\0329.jpg	NY	Right	Yes	0.484182700049132	0	348677	235
682.05078125	1	decision	trialStart	1	60	60	foodImage.38	FOODEEG_Images\0365.jpg	NY	Right	Yes	1.29071180010214	0	349211	251
683.087890625	2	decision	foodImageDisplay	1	60	60	foodImage.38	FOODEEG_Images\0365.jpg	NY	Right	Yes	1.29071180010214	0	349742	252
685.150390625	1.29071180010214	decision	choicePhaseStart	1	60	60	foodImage.38	FOODEEG_Images\0365.jpg	NY	Right	Yes	1.29071180010214	0	350798	253
686.431640625	0	decision	response	1	60	60	foodImage.38	FOODEEG_Images\0365.jpg	NY	Right	Yes	1.29071180010214	0	351454	235
688.48046875	8.294921875	n/a	blockEnd	n/a	n/a	n/a	n/a	n/a	n/a	n/a	n/a	n/a	n/a	352503	254
696.775390625	2	n/a	blockStart	2	n/a	n/a	n/a	n/a	n/a	n/a	n/a	n/a	n/a	356750	250
698.80859375	1	taste	trialStart	2	61	1	foodImage.17	FOODEEG_Images\0199.jpg	NY	Right	Yes	0.966057599987835	0	357791	251
699.849609375	2	taste	foodImageDisplay	2	61	1	foodImage.17	FOODEEG_Images\0199.jpg	NY	Right	Yes	0.966057599987835	0	358324	252
701.9140625	0.966057599987835	taste	choicePhaseStart	2	61	1	foodImage.17	FOODEEG_Images\0199.jpg	NY	Right	Yes	0.966057599987835	0	359381	253
702.87109375	0	taste	response	2	61	1	foodImage.17	FOODEEG_Images\0199.jpg	NY	Right	Yes	0.966057599987835	0	359871	235
703.9140625	1	decision	trialStart	2	62	2	foodImage.55	FOODEEG_Images\0567.jpg	NY	Right	Yes	1.28621540009044	0	360405	251
704.97265625	2	decision	foodImageDisplay	2	62	2	foodImage.55	FOODEEG_Images\0567.jpg	NY	Right	Yes	1.28621540009044	0	360947	252
707.03515625	1.28621540009044	decision	choicePhaseStart	2	62	2	foodImage.55	FOODEEG_Images\0567.jpg	NY	Right	Yes	1.28621540009044	0	362003	253
708.3125	0	decision	response	2	62	2	foodImage.55	FOODEEG_Images\0567.jpg	NY	Right	Yes	1.28621540009044	0	362657	235
709.3515625	1	health	trialStart	2	63	3	foodImage.27	FOODEEG_Images\0263.jpg	YN	Left	Yes	0.984624299919233	0	363189	251
710.392578125	2	health	foodImageDisplay	2	63	3	foodImage.27	FOODEEG_Images\0263.jpg	YN	Left	Yes	0.984624299919233	0	363722	252
712.455078125	0.984624299919233	health	choicePhaseStart	2	63	3	foodImage.27	FOODEEG_Images\0263.jpg	YN	Left	Yes	0.984624299919233	0	364778	253
713.431640625	0	health	response	2	63	3	foodImage.27	FOODEEG_Images\0263.jpg	YN	Left	Yes	0.984624299919233	0	365278	234
714.47265625	1	decision	trialStart	2	64	4	foodImage.111	FOODEEG_Images\0919.jpg	NY	Left	No	1.48294060002081	0	365811	251
715.509765625	2	decision	foodImageDisplay	2	64	4	foodImage.111	FOODEEG_Images\0919.jpg	NY	Left	No	1.48294060002081	0	366342	252
717.572265625	1.48294060002081	decision	choicePhaseStart	2	64	4	foodImage.111	FOODEEG_Images\0919.jpg	NY	Left	No	1.48294060002081	0	367398	253
719.046875	0	decision	response	2	64	4	foodImage.111	FOODEEG_Images\0919.jpg	NY	Left	No	1.48294060002081	0	368153	234
720.087890625	1	taste	trialStart	2	65	5	foodImage.47	FOODEEG_Images\0488.jpg	YN	Left	Yes	1.00605059997179	0	368686	251
721.130859375	2	taste	foodImageDisplay	2	65	5	foodImage.47	FOODEEG_Images\0488.jpg	YN	Left	Yes	1.00605059997179	0	369220	252
723.193359375	1.00605059997179	taste	choicePhaseStart	2	65	5	foodImage.47	FOODEEG_Images\0488.jpg	YN	Left	Yes	1.00605059997179	0	370276	253
724.19140625	0	taste	response	2	65	5	foodImage.47	FOODEEG_Images\0488.jpg	YN	Left	Yes	1.00605059997179	0	370787	234
725.236328125	1	decision	trialStart	2	66	6	foodImage.23	FOODEEG_Images\0244.jpg	YN	Right	No	1.23493220005184	0	371322	251
726.27734375	2	decision	foodImageDisplay	2	66	6	foodImage.23	FOODEEG_Images\0244.jpg	YN	Right	No	1.23493220005184	0	371855	252
728.33984375	1.23493220005184	decision	choicePhaseStart	2	66	6	foodImage.23	FOODEEG_Images\0244.jpg	YN	Right	No	1.23493220005184	0	372911	253
729.56640625	0	decision	response	2	66	6	foodImage.23	FOODEEG_Images\0244.jpg	YN	Right	No	1.23493220005184	0	373539	235
730.607421875	1	taste	trialStart	2	67	7	foodImage.33	FOODEEG_Images\0329.jpg	NY	Right	Yes	1.11151530011557	0	374072	251
731.650390625	2	taste	foodImageDisplay	2	67	7	foodImage.33	FOODEEG_Images\0329.jpg	NY	Right	Yes	1.11151530011557	0	374606	252
733.712890625	1.11151530011557	taste	choicePhaseStart	2	67	7	foodImage.33	FOODEEG_Images\0329.jpg	NY	Right	Yes	1.11151530011557	0	375662	253
734.814453125	0	taste	response	2	67	7	foodImage.33	FOODEEG_Images\0329.jpg	NY	Right	Yes	1.11151530011557	0	376226	235
735.857421875	1	taste	trialStart	2	68	8	foodImage.72	FOODEEG_Images\0714.jpg	YN	Left	Yes	0.7490809999872	0	376760	251
736.8984375	2	taste	foodImageDisplay	2	68	8	foodImage.72	FOODEEG_Images\0714.jpg	YN	Left	Yes	0.7490809999872	0	377293	252
738.9609375	0.7490809999872	taste	choicePhaseStart	2	68	8	foodImage.72	FOODEEG_Images\0714.jpg	YN	Left	Yes	0.7490809999872	0	378349	253
739.703125	0	taste	response	2	68	8	foodImage.72	FOODEEG_Images\0714.jpg	YN	Left	Yes	0.7490809999872	0	378729	234
740.744140625	1	health	trialStart	2	69	9	foodImage.16	FOODEEG_Images\0196.jpg	YN	Left	Yes	1.11097900010645	0	379262	251
741.80078125	2	health	foodImageDisplay	2	69	9	foodImage.16	FOODEEG_Images\0196.jpg	YN	Left	Yes	1.11097900010645	0	379803	252
743.86328125	1.11097900010645	health	choicePhaseStart	2	69	9	foodImage.16	FOODEEG_Images\0196.jpg	YN	Left	Yes	1.11097900010645	0	380859	253
744.96484375	0	health	response	2	69	9	foodImage.16	FOODEEG_Images\0196.jpg	YN	Left	Yes	1.11097900010645	0	381423	234
746.0078125	1	health	trialStart	2	70	10	foodImage.65	FOODEEG_Images\0658.jpg	YN	Right	No	1.51698469999246	0	381957	251
747.05078125	2	health	foodImageDisplay	2	70	10	foodImage.65	FOODEEG_Images\0658.jpg	YN	Right	No	1.51698469999246	0	382491	252
749.11328125	1.51698469999246	health	choicePhaseStart	2	70	10	foodImage.65	FOODEEG_Images\0658.jpg	YN	Right	No	1.51698469999246	0	383547	253
750.62109375	0	health	response	2	70	10	foodImage.65	FOODEEG_Images\0658.jpg	YN	Right	No	1.51698469999246	0	384319	235
751.662109375	1	taste	trialStart	2	71	11	foodImage.41	FOODEEG_Images\0409.jpg	YN	Left	Yes	0.72381930006668	0	384852	251
752.708984375	2	taste	foodImageDisplay	2	71	11	foodImage.41	FOODEEG_Images\0409.jpg	YN	Left	Yes	0.72381930006668	0	385388	252
754.771484375	0.72381930006668	taste	choicePhaseStart	2	71	11	foodImage.41	FOODEEG_Images\0409.jpg	YN	Left	Yes	0.72381930006668	0	386444	253
755.486328125	0	taste	response	2	71	11	foodImage.41	FOODEEG_Images\0409.jpg	YN	Left	Yes	0.72381930006668	0	386810	234
756.52734375	1	decision	trialStart	2	72	12	foodImage.34	FOODEEG_Images\0339.jpg	YN	Left	Yes	0.746947600040585	0	387343	251
757.58203125	2	decision	foodImageDisplay	2	72	12	foodImage.34	FOODEEG_Images\0339.jpg	YN	Left	Yes	0.746947600040585	0	387883	252
759.64453125	0.746947600040585	decision	choicePhaseStart	2	72	12	foodImage.34	FOODEEG_Images\0339.jpg	YN	Left	Yes	0.746947600040585	0	388939	253
760.380859375	0	decision	response	2	72	12	foodImage.34	FOODEEG_Images\0339.jpg	YN	Left	Yes	0.746947600040585	0	389316	234
761.423828125	1	health	trialStart	2	73	13	foodImage.35	FOODEEG_Images\0350.jpg	NY	Left	No	0.671673499979079	0	389850	251
762.462890625	2	health	foodImageDisplay	2	73	13	foodImage.35	FOODEEG_Images\0350.jpg	NY	Left	No	0.671673499979079	0	390382	252
764.525390625	0.671673499979079	health	choicePhaseStart	2	73	13	foodImage.35	FOODEEG_Images\0350.jpg	NY	Left	No	0.671673499979079	0	391438	253
765.189453125	0	health	response	2	73	13	foodImage.35	FOODEEG_Images\0350.jpg	NY	Left	No	0.671673499979079	0	391778	234
766.232421875	1	decision	trialStart	2	74	14	foodImage.75	FOODEEG_Images\0763.jpg	YN	Left	Yes	0.650616499828175	0	392312	251
767.275390625	2	decision	foodImageDisplay	2	74	14	foodImage.75	FOODEEG_Images\0763.jpg	YN	Left	Yes	0.650616499828175	0	392846	252
769.337890625	0.650616499828175	decision	choicePhaseStart	2	74	14	foodImage.75	FOODEEG_Images\0763.jpg	YN	Left	Yes	0.650616499828175	0	393902	253
769.98046875	0	decision	response	2	74	14	foodImage.75	FOODEEG_Images\0763.jpg	YN	Left	Yes	0.650616499828175	0	394231	234
771.0234375	1	health	trialStart	2	75	15	foodImage.54	FOODEEG_Images\0560.jpg	NY	Right	Yes	1.428941299906	0	394765	251
772.08203125	2	health	foodImageDisplay	2	75	15	foodImage.54	FOODEEG_Images\0560.jpg	NY	Right	Yes	1.428941299906	0	395307	252
774.14453125	1.428941299906	health	choicePhaseStart	2	75	15	foodImage.54	FOODEEG_Images\0560.jpg	NY	Right	Yes	1.428941299906	0	396363	253
775.564453125	0	health	response	2	75	15	foodImage.54	FOODEEG_Images\0560.jpg	NY	Right	Yes	1.428941299906	0	397090	235
776.603515625	1	health	trialStart	2	76	16	foodImage.34	FOODEEG_Images\0339.jpg	YN	Right	No	1.21891589998268	0	397622	251
777.66015625	2	health	foodImageDisplay	2	76	16	foodImage.34	FOODEEG_Images\0339.jpg	YN	Right	No	1.21891589998268	0	398163	252
779.72265625	1.21891589998268	health	choicePhaseStart	2	76	16	foodImage.34	FOODEEG_Images\0339.jpg	YN	Right	No	1.21891589998268	0	399219	253
780.93359375	0	health	response	2	76	16	foodImage.34	FOODEEG_Images\0339.jpg	YN	Right	No	1.21891589998268	0	399839	235
781.974609375	1	decision	trialStart	2	77	17	foodImage.32	FOODEEG_Images\0319.jpg	YN	Left	Yes	0.851904999930412	0	400372	251
783.017578125	2	decision	foodImageDisplay	2	77	17	foodImage.32	FOODEEG_Images\0319.jpg	YN	Left	Yes	0.851904999930412	0	400906	252
785.080078125	0.851904999930412	decision	choicePhaseStart	2	77	17	foodImage.32	FOODEEG_Images\0319.jpg	YN	Left	Yes	0.851904999930412	0	401962	253
785.923828125	0	decision	response	2	77	17	foodImage.32	FOODEEG_Images\0319.jpg	YN	Left	Yes	0.851904999930412	0	402394	234
786.966796875	1	decision	trialStart	2	78	18	foodImage.87	FOODEEG_Images\0873.jpg	YN	Left	Yes	1.47162290010601	0	402928	251
788.0234375	2	decision	foodImageDisplay	2	78	18	foodImage.87	FOODEEG_Images\0873.jpg	YN	Left	Yes	1.47162290010601	0	403469	252
790.0859375	1.47162290010601	decision	choicePhaseStart	2	78	18	foodImage.87	FOODEEG_Images\0873.jpg	YN	Left	Yes	1.47162290010601	0	404525	253
791.548828125	0	decision	response	2	78	18	foodImage.87	FOODEEG_Images\0873.jpg	YN	Left	Yes	1.47162290010601	0	405274	234
792.591796875	1	health	trialStart	2	79	19	foodImage.63	FOODEEG_Images\0645.jpg	NY	Right	Yes	1.54038019990548	0	405808	251
793.6328125	2	health	foodImageDisplay	2	79	19	foodImage.63	FOODEEG_Images\0645.jpg	NY	Right	Yes	1.54038019990548	0	406341	252
795.6953125	1.54038019990548	health	choicePhaseStart	2	79	19	foodImage.63	FOODEEG_Images\0645.jpg	NY	Right	Yes	1.54038019990548	0	407397	253
797.228515625	0	health	response	2	79	19	foodImage.63	FOODEEG_Images\0645.jpg	NY	Right	Yes	1.54038019990548	0	408182	235
798.2734375	1	taste	trialStart	2	80	20	foodImage.15	FOODEEG_Images\0189.jpg	YN	Left	Yes	0.801777400076389	0	408717	251
799.33203125	2	taste	foodImageDisplay	2	80	20	foodImage.15	FOODEEG_Images\0189.jpg	YN	Left	Yes	0.801777400076389	0	409259	252
801.39453125	0.801777400076389	taste	choicePhaseStart	2	80	20	foodImage.15	FOODEEG_Images\0189.jpg	YN	Left	Yes	0.801777400076389	0	410315	253
802.1875	0	taste	response	2	80	20	foodImage.15	FOODEEG_Images\0189.jpg	YN	Left	Yes	0.801777400076389	0	410721	234
803.234375	1	taste	trialStart	2	81	21	foodImage.66	FOODEEG_Images\0676.jpg	NY	Right	Yes	0.882494200021029	0	411257	251
804.275390625	2	taste	foodImageDisplay	2	81	21	foodImage.66	FOODEEG_Images\0676.jpg	NY	Right	Yes	0.882494200021029	0	411790	252
806.337890625	0.882494200021029	taste	choicePhaseStart	2	81	21	foodImage.66	FOODEEG_Images\0676.jpg	NY	Right	Yes	0.882494200021029	0	412846	253
807.2109375	0	taste	response	2	81	21	foodImage.66	FOODEEG_Images\0676.jpg	NY	Right	Yes	0.882494200021029	0	413293	235
808.255859375	1	health	trialStart	2	82	22	foodImage.101	FOODEEG_Images\0909.jpg	YN	Right	No	1.48794759996235	0	413828	251
809.30078125	2	health	foodImageDisplay	2	82	22	foodImage.101	FOODEEG_Images\0909.jpg	YN	Right	No	1.48794759996235	0	414363	252
811.36328125	1.48794759996235	health	choicePhaseStart	2	82	22	foodImage.101	FOODEEG_Images\0909.jpg	YN	Right	No	1.48794759996235	0	415419	253
812.84375	0	health	response	2	82	22	foodImage.101	FOODEEG_Images\0909.jpg	YN	Right	No	1.48794759996235	0	416177	235
813.8828125	1	taste	trialStart	2	83	23	foodImage.45	FOODEEG_Images\0478.jpg	NY	Right	Yes	1.28764720004983	0	416709	251
814.92578125	2	taste	foodImageDisplay	2	83	23	foodImage.45	FOODEEG_Images\0478.jpg	NY	Right	Yes	1.28764720004983	0	417243	252
816.98828125	1.28764720004983	taste	choicePhaseStart	2	83	23	foodImage.45	FOODEEG_Images\0478.jpg	NY	Right	Yes	1.28764720004983	0	418299	253
818.267578125	0	taste	response	2	83	23	foodImage.45	FOODEEG_Images\0478.jpg	NY	Right	Yes	1.28764720004983	0	418954	235
819.3125	1	taste	trialStart	2	84	24	foodImage.61	FOODEEG_Images\0640.jpg	YN	Left	Yes	0.746425400022417	0	419489	251
820.353515625	2	taste	foodImageDisplay	2	84	24	foodImage.61	FOODEEG_Images\0640.jpg	YN	Left	Yes	0.746425400022417	0	420022	252
822.41796875	0.746425400022417	taste	choicePhaseStart	2	84	24	foodImage.61	FOODEEG_Images\0640.jpg	YN	Left	Yes	0.746425400022417	0	421079	253
823.154296875	0	taste	response	2	84	24	foodImage.61	FOODEEG_Images\0640.jpg	YN	Left	Yes	0.746425400022417	0	421456	234
824.197265625	1	decision	trialStart	2	85	25	foodImage.70	FOODEEG_Images\0705.jpg	YN	Right	No	1.2772046001628	0	421990	251
825.25390625	2	decision	foodImageDisplay	2	85	25	foodImage.70	FOODEEG_Images\0705.jpg	YN	Right	No	1.2772046001628	0	422531	252
827.318359375	1.2772046001628	decision	choicePhaseStart	2	85	25	foodImage.70	FOODEEG_Images\0705.jpg	YN	Right	No	1.2772046001628	0	423588	253
828.5859375	0	decision	response	2	85	25	foodImage.70	FOODEEG_Images\0705.jpg	YN	Right	No	1.2772046001628	0	424237	235
829.630859375	1	taste	trialStart	2	86	26	foodImage.2	FOODEEG_Images\0028.jpg	YN	Left	Yes	0.723005200037733	0	424772	251
830.681640625	2	taste	foodImageDisplay	2	86	26	foodImage.2	FOODEEG_Images\0028.jpg	YN	Left	Yes	0.723005200037733	0	425310	252
832.744140625	0.723005200037733	taste	choicePhaseStart	2	86	26	foodImage.2	FOODEEG_Images\0028.jpg	YN	Left	Yes	0.723005200037733	0	426366	253
833.458984375	0	taste	response	2	86	26	foodImage.2	FOODEEG_Images\0028.jpg	YN	Left	Yes	0.723005200037733	0	426732	234
834.501953125	1	taste	trialStart	2	87	27	foodImage.22	FOODEEG_Images\0236.jpg	YN	Left	Yes	0.613033999921754	0	427266	251
835.54296875	2	taste	foodImageDisplay	2	87	27	foodImage.22	FOODEEG_Images\0236.jpg	YN	Left	Yes	0.613033999921754	0	427799	252
837.60546875	0.613033999921754	taste	choicePhaseStart	2	87	27	foodImage.22	FOODEEG_Images\0236.jpg	YN	Left	Yes	0.613033999921754	0	428855	253
838.2109375	0	taste	response	2	87	27	foodImage.22	FOODEEG_Images\0236.jpg	YN	Left	Yes	0.613033999921754	0	429165	234
839.25	1	taste	trialStart	2	88	28	foodImage.51	FOODEEG_Images\0536.jpg	NY	Right	Yes	0.888806900009513	0	429697	251
840.31640625	2	taste	foodImageDisplay	2	88	28	foodImage.51	FOODEEG_Images\0536.jpg	NY	Right	Yes	0.888806900009513	0	430243	252
842.37890625	0.888806900009513	taste	choicePhaseStart	2	88	28	foodImage.51	FOODEEG_Images\0536.jpg	NY	Right	Yes	0.888806900009513	0	431299	253
843.2578125	0	taste	response	2	88	28	foodImage.51	FOODEEG_Images\0536.jpg	NY	Right	Yes	0.888806900009513	0	431749	235
844.30078125	1	taste	trialStart	2	89	29	foodImage.118	FOODEEG_Images\0926.jpg	NY	Left	No	0.862960800062865	0	432283	251
845.337890625	2	taste	foodImageDisplay	2	89	29	foodImage.118	FOODEEG_Images\0926.jpg	NY	Left	No	0.862960800062865	0	432814	252
847.404296875	0.862960800062865	taste	choicePhaseStart	2	89	29	foodImage.118	FOODEEG_Images\0926.jpg	NY	Left	No	0.862960800062865	0	433872	253
848.2578125	0	taste	response	2	89	29	foodImage.118	FOODEEG_Images\0926.jpg	NY	Left	No	0.862960800062865	0	434309	234
849.30078125	1	decision	trialStart	2	90	30	foodImage.100	FOODEEG_Images\0908.jpg	NY	Right	Yes	0.76834569987841	0	434843	251
850.33984375	2	decision	foodImageDisplay	2	90	30	foodImage.100	FOODEEG_Images\0908.jpg	NY	Right	Yes	0.76834569987841	0	435375	252
852.40234375	0.76834569987841	decision	choicePhaseStart	2	90	30	foodImage.100	FOODEEG_Images\0908.jpg	NY	Right	Yes	0.76834569987841	0	436431	253
853.162109375	0	decision	response	2	90	30	foodImage.100	FOODEEG_Images\0908.jpg	NY	Right	Yes	0.76834569987841	0	436820	235
854.205078125	1	decision	trialStart	2	91	31	foodImage.64	FOODEEG_Images\0647.jpg	NY	Left	No	0.867245099972934	0	437354	251
855.26171875	2	decision	foodImageDisplay	2	91	31	foodImage.64	FOODEEG_Images\0647.jpg	NY	Left	No	0.867245099972934	0	437895	252
857.326171875	0.867245099972934	decision	choicePhaseStart	2	91	31	foodImage.64	FOODEEG_Images\0647.jpg	NY	Left	No	0.867245099972934	0	438952	253
858.185546875	0	decision	response	2	91	31	foodImage.64	FOODEEG_Images\0647.jpg	NY	Left	No	0.867245099972934	0	439392	234
859.232421875	1	health	trialStart	2	92	32	foodImage.62	FOODEEG_Images\0644.jpg	YN	Left	Yes	1.13215489988215	0	439928	251
860.287109375	2	health	foodImageDisplay	2	92	32	foodImage.62	FOODEEG_Images\0644.jpg	YN	Left	Yes	1.13215489988215	0	440468	252
862.349609375	1.13215489988215	health	choicePhaseStart	2	92	32	foodImage.62	FOODEEG_Images\0644.jpg	YN	Left	Yes	1.13215489988215	0	441524	253
863.47265625	0	health	response	2	92	32	foodImage.62	FOODEEG_Images\0644.jpg	YN	Left	Yes	1.13215489988215	0	442099	234
864.521484375	1	taste	trialStart	2	93	33	foodImage.84	FOODEEG_Images\0830.jpg	NY	Right	Yes	1.04908870020881	0	442636	251
865.576171875	2	taste	foodImageDisplay	2	93	33	foodImage.84	FOODEEG_Images\0830.jpg	NY	Right	Yes	1.04908870020881	0	443176	252
867.638671875	1.04908870020881	taste	choicePhaseStart	2	93	33	foodImage.84	FOODEEG_Images\0830.jpg	NY	Right	Yes	1.04908870020881	0	444232	253
868.681640625	0	taste	response	2	93	33	foodImage.84	FOODEEG_Images\0830.jpg	NY	Right	Yes	1.04908870020881	0	444766	235
869.72265625	1	taste	trialStart	2	94	34	foodImage.67	FOODEEG_Images\0679.jpg	YN	Left	Yes	0.911835000151768	0	445299	251
870.78125	2	taste	foodImageDisplay	2	94	34	foodImage.67	FOODEEG_Images\0679.jpg	YN	Left	Yes	0.911835000151768	0	445841	252
872.84375	0.911835000151768	taste	choicePhaseStart	2	94	34	foodImage.67	FOODEEG_Images\0679.jpg	YN	Left	Yes	0.911835000151768	0	446897	253
873.744140625	0	taste	response	2	94	34	foodImage.67	FOODEEG_Images\0679.jpg	YN	Left	Yes	0.911835000151768	0	447358	234
874.787109375	1	decision	trialStart	2	95	35	foodImage.47	FOODEEG_Images\0488.jpg	NY	Right	Yes	1.00487369997427	0	447892	251
875.830078125	2	decision	foodImageDisplay	2	95	35	foodImage.47	FOODEEG_Images\0488.jpg	NY	Right	Yes	1.00487369997427	0	448426	252
877.892578125	1.00487369997427	decision	choicePhaseStart	2	95	35	foodImage.47	FOODEEG_Images\0488.jpg	NY	Right	Yes	1.00487369997427	0	449482	253
878.888671875	0	decision	response	2	95	35	foodImage.47	FOODEEG_Images\0488.jpg	NY	Right	Yes	1.00487369997427	0	449992	235
879.935546875	1	decision	trialStart	2	96	36	foodImage.44	FOODEEG_Images\0459.jpg	NY	Right	Yes	0.906291200080886	0	450528	251
880.98046875	2	decision	foodImageDisplay	2	96	36	foodImage.44	FOODEEG_Images\0459.jpg	NY	Right	Yes	0.906291200080886	0	451063	252
883.046875	0.906291200080886	decision	choicePhaseStart	2	96	36	foodImage.44	FOODEEG_Images\0459.jpg	NY	Right	Yes	0.906291200080886	0	452121	253
883.943359375	0	decision	response	2	96	36	foodImage.44	FOODEEG_Images\0459.jpg	NY	Right	Yes	0.906291200080886	0	452580	235
884.98828125	1	decision	trialStart	2	97	37	foodImage.108	FOODEEG_Images\0916.jpg	YN	Left	Yes	0.632794299861416	0	453115	251
886.025390625	2	decision	foodImageDisplay	2	97	37	foodImage.108	FOODEEG_Images\0916.jpg	YN	Left	Yes	0.632794299861416	0	453646	252
888.087890625	0.632794299861416	decision	choicePhaseStart	2	97	37	foodImage.108	FOODEEG_Images\0916.jpg	YN	Left	Yes	0.632794299861416	0	454702	253
888.712890625	0	decision	response	2	97	37	foodImage.108	FOODEEG_Images\0916.jpg	YN	Left	Yes	0.632794299861416	0	455022	234
889.755859375	1	health	trialStart	2	98	38	foodImage.102	FOODEEG_Images\0910.jpg	NY	Right	Yes	0.935472399927676	0	455556	251
890.794921875	2	health	foodImageDisplay	2	98	38	foodImage.102	FOODEEG_Images\0910.jpg	NY	Right	Yes	0.935472399927676	0	456088	252
892.857421875	0.935472399927676	health	choicePhaseStart	2	98	38	foodImage.102	FOODEEG_Images\0910.jpg	NY	Right	Yes	0.935472399927676	0	457144	253
893.783203125	0	health	response	2	98	38	foodImage.102	FOODEEG_Images\0910.jpg	NY	Right	Yes	0.935472399927676	0	457618	235
894.828125	1	taste	trialStart	2	99	39	foodImage.36	FOODEEG_Images\0352.jpg	YN	Right	No	1.43480809987523	0	458153	251
895.88671875	2	taste	foodImageDisplay	2	99	39	foodImage.36	FOODEEG_Images\0352.jpg	YN	Right	No	1.43480809987523	0	458695	252
897.94921875	1.43480809987523	taste	choicePhaseStart	2	99	39	foodImage.36	FOODEEG_Images\0352.jpg	YN	Right	No	1.43480809987523	0	459751	253
899.376953125	0	taste	response	2	99	39	foodImage.36	FOODEEG_Images\0352.jpg	YN	Right	No	1.43480809987523	0	460482	235
900.416015625	1	taste	trialStart	2	100	40	foodImage.99	FOODEEG_Images\0907.jpg	YN	Right	No	0.75679670018144	0	461014	251
901.451171875	2	taste	foodImageDisplay	2	100	40	foodImage.99	FOODEEG_Images\0907.jpg	YN	Right	No	0.75679670018144	0	461544	252
903.513671875	0.75679670018144	taste	choicePhaseStart	2	100	40	foodImage.99	FOODEEG_Images\0907.jpg	YN	Right	No	0.75679670018144	0	462600	253
904.263671875	0	taste	response	2	100	40	foodImage.99	FOODEEG_Images\0907.jpg	YN	Right	No	0.75679670018144	0	462984	235
905.310546875	1	decision	trialStart	2	101	41	foodImage.103	FOODEEG_Images\0911.jpg	NY	Right	Yes	0.940327399875969	0	463520	251
906.349609375	2	decision	foodImageDisplay	2	101	41	foodImage.103	FOODEEG_Images\0911.jpg	NY	Right	Yes	0.940327399875969	0	464052	252
908.412109375	0.940327399875969	decision	choicePhaseStart	2	101	41	foodImage.103	FOODEEG_Images\0911.jpg	NY	Right	Yes	0.940327399875969	0	465108	253
909.34375	0	decision	response	2	101	41	foodImage.103	FOODEEG_Images\0911.jpg	NY	Right	Yes	0.940327399875969	0	465585	235
910.38671875	1	taste	trialStart	2	102	42	foodImage.23	FOODEEG_Images\0244.jpg	YN	Right	No	1.56772869988345	0	466119	251
911.427734375	2	taste	foodImageDisplay	2	102	42	foodImage.23	FOODEEG_Images\0244.jpg	YN	Right	No	1.56772869988345	0	466652	252
913.48828125	1.56772869988345	taste	choicePhaseStart	2	102	42	foodImage.23	FOODEEG_Images\0244.jpg	YN	Right	No	1.56772869988345	0	467707	253
915.046875	0	taste	response	2	102	42	foodImage.23	FOODEEG_Images\0244.jpg	YN	Right	No	1.56772869988345	0	468505	235
916.08984375	1	health	trialStart	2	103	43	foodImage.24	FOODEEG_Images\0250.jpg	YN	Left	Yes	0.64800909999758	0	469039	251
917.1328125	2	health	foodImageDisplay	2	103	43	foodImage.24	FOODEEG_Images\0250.jpg	YN	Left	Yes	0.64800909999758	0	469573	252
919.201171875	0.64800909999758	health	choicePhaseStart	2	103	43	foodImage.24	FOODEEG_Images\0250.jpg	YN	Left	Yes	0.64800909999758	0	470632	253
919.83984375	0	health	response	2	103	43	foodImage.24	FOODEEG_Images\0250.jpg	YN	Left	Yes	0.64800909999758	0	470959	234
920.8828125	1	taste	trialStart	2	104	44	foodImage.35	FOODEEG_Images\0350.jpg	NY	Right	Yes	0.957479800097644	0	471493	251
921.919921875	2	taste	foodImageDisplay	2	104	44	foodImage.35	FOODEEG_Images\0350.jpg	NY	Right	Yes	0.957479800097644	0	472024	252
923.986328125	0.957479800097644	taste	choicePhaseStart	2	104	44	foodImage.35	FOODEEG_Images\0350.jpg	NY	Right	Yes	0.957479800097644	0	473082	253
924.935546875	0	taste	response	2	104	44	foodImage.35	FOODEEG_Images\0350.jpg	NY	Right	Yes	0.957479800097644	0	473568	235
925.9765625	1	taste	trialStart	2	105	45	foodImage.115	FOODEEG_Images\0923.jpg	NY	Right	Yes	0.778154399944469	0	474101	251
927.015625	2	taste	foodImageDisplay	2	105	45	foodImage.115	FOODEEG_Images\0923.jpg	NY	Right	Yes	0.778154399944469	0	474633	252
929.078125	0.778154399944469	taste	choicePhaseStart	2	105	45	foodImage.115	FOODEEG_Images\0923.jpg	NY	Right	Yes	0.778154399944469	0	475689	253
929.84765625	0	taste	response	2	105	45	foodImage.115	FOODEEG_Images\0923.jpg	NY	Right	Yes	0.778154399944469	0	476083	235
930.890625	1	taste	trialStart	2	106	46	foodImage.108	FOODEEG_Images\0916.jpg	NY	Left	No	0.896224099909887	0	476617	251
931.9296875	2	taste	foodImageDisplay	2	106	46	foodImage.108	FOODEEG_Images\0916.jpg	NY	Left	No	0.896224099909887	0	477149	252
933.9921875	0.896224099909887	taste	choicePhaseStart	2	106	46	foodImage.108	FOODEEG_Images\0916.jpg	NY	Left	No	0.896224099909887	0	478205	253
934.87890625	0	taste	response	2	106	46	foodImage.108	FOODEEG_Images\0916.jpg	NY	Left	No	0.896224099909887	0	478659	234
935.921875	1	taste	trialStart	2	107	47	foodImage.74	FOODEEG_Images\0752.jpg	NY	Right	Yes	0.402462300145999	0	479193	251
936.966796875	2	taste	foodImageDisplay	2	107	47	foodImage.74	FOODEEG_Images\0752.jpg	NY	Right	Yes	0.402462300145999	0	479728	252
939.029296875	0.402462300145999	taste	choicePhaseStart	2	107	47	foodImage.74	FOODEEG_Images\0752.jpg	NY	Right	Yes	0.402462300145999	0	480784	253
939.421875	0	taste	response	2	107	47	foodImage.74	FOODEEG_Images\0752.jpg	NY	Right	Yes	0.402462300145999	0	480985	235
940.46484375	1	taste	trialStart	2	108	48	foodImage.16	FOODEEG_Images\0196.jpg	NY	Right	Yes	1.65183450002223	0	481519	251
941.525390625	2	taste	foodImageDisplay	2	108	48	foodImage.16	FOODEEG_Images\0196.jpg	NY	Right	Yes	1.65183450002223	0	482062	252
943.5859375	1.65183450002223	taste	choicePhaseStart	2	108	48	foodImage.16	FOODEEG_Images\0196.jpg	NY	Right	Yes	1.65183450002223	0	483117	253
945.23046875	0	taste	response	2	108	48	foodImage.16	FOODEEG_Images\0196.jpg	NY	Right	Yes	1.65183450002223	0	483959	235
946.2734375	1	health	trialStart	2	109	49	foodImage.83	FOODEEG_Images\0827.jpg	NY	Right	Yes	0.826296800049022	0	484493	251
947.33203125	2	health	foodImageDisplay	2	109	49	foodImage.83	FOODEEG_Images\0827.jpg	NY	Right	Yes	0.826296800049022	0	485035	252
949.396484375	0.826296800049022	health	choicePhaseStart	2	109	49	foodImage.83	FOODEEG_Images\0827.jpg	NY	Right	Yes	0.826296800049022	0	486092	253
950.212890625	0	health	response	2	109	49	foodImage.83	FOODEEG_Images\0827.jpg	NY	Right	Yes	0.826296800049022	0	486510	235
951.255859375	1	taste	trialStart	2	110	50	foodImage.113	FOODEEG_Images\0921.jpg	YN	Left	Yes	0.865215100115165	0	487044	251
952.294921875	2	taste	foodImageDisplay	2	110	50	foodImage.113	FOODEEG_Images\0921.jpg	YN	Left	Yes	0.865215100115165	0	487576	252
954.357421875	0.865215100115165	taste	choicePhaseStart	2	110	50	foodImage.113	FOODEEG_Images\0921.jpg	YN	Left	Yes	0.865215100115165	0	488632	253
955.212890625	0	taste	response	2	110	50	foodImage.113	FOODEEG_Images\0921.jpg	YN	Left	Yes	0.865215100115165	0	489070	234
956.255859375	1	decision	trialStart	2	111	51	foodImage.104	FOODEEG_Images\0912.jpg	YN	Right	No	0.960467899916694	0	489604	251
957.294921875	2	decision	foodImageDisplay	2	111	51	foodImage.104	FOODEEG_Images\0912.jpg	YN	Right	No	0.960467899916694	0	490136	252
959.359375	0.960467899916694	decision	choicePhaseStart	2	111	51	foodImage.104	FOODEEG_Images\0912.jpg	YN	Right	No	0.960467899916694	0	491193	253
960.310546875	0	decision	response	2	111	51	foodImage.104	FOODEEG_Images\0912.jpg	YN	Right	No	0.960467899916694	0	491680	235
961.353515625	1	health	trialStart	2	112	52	foodImage.7	FOODEEG_Images\0116.jpg	NY	Left	No	2.66278110002168	0	492214	251
962.39453125	2	health	foodImageDisplay	2	112	52	foodImage.7	FOODEEG_Images\0116.jpg	NY	Left	No	2.66278110002168	0	492747	252
964.45703125	2.66278110002168	health	choicePhaseStart	2	112	52	foodImage.7	FOODEEG_Images\0116.jpg	NY	Left	No	2.66278110002168	0	493803	253
967.109375	0	health	response	2	112	52	foodImage.7	FOODEEG_Images\0116.jpg	NY	Left	No	2.66278110002168	0	495161	234
968.150390625	1	decision	trialStart	2	113	53	foodImage.17	FOODEEG_Images\0199.jpg	NY	Right	Yes	0.839966000057757	0	495694	251
969.19140625	2	decision	foodImageDisplay	2	113	53	foodImage.17	FOODEEG_Images\0199.jpg	NY	Right	Yes	0.839966000057757	0	496227	252
971.25390625	0.839966000057757	decision	choicePhaseStart	2	113	53	foodImage.17	FOODEEG_Images\0199.jpg	NY	Right	Yes	0.839966000057757	0	497283	253
972.0859375	0	decision	response	2	113	53	foodImage.17	FOODEEG_Images\0199.jpg	NY	Right	Yes	0.839966000057757	0	497709	235
973.126953125	1	taste	trialStart	2	114	54	foodImage.42	FOODEEG_Images\0438.jpg	NY	Right	Yes	0.802862400189042	0	498242	251
974.212890625	2	taste	foodImageDisplay	2	114	54	foodImage.42	FOODEEG_Images\0438.jpg	NY	Right	Yes	0.802862400189042	0	498798	252
976.275390625	0.802862400189042	taste	choicePhaseStart	2	114	54	foodImage.42	FOODEEG_Images\0438.jpg	NY	Right	Yes	0.802862400189042	0	499854	253
977.068359375	0	taste	response	2	114	54	foodImage.42	FOODEEG_Images\0438.jpg	NY	Right	Yes	0.802862400189042	0	500260	235
978.109375	1	health	trialStart	2	115	55	foodImage.13	FOODEEG_Images\0183.jpg	YN	Right	No	1.16729780007154	0	500793	251
979.16796875	2	health	foodImageDisplay	2	115	55	foodImage.13	FOODEEG_Images\0183.jpg	YN	Right	No	1.16729780007154	0	501335	252
981.23046875	1.16729780007154	health	choicePhaseStart	2	115	55	foodImage.13	FOODEEG_Images\0183.jpg	YN	Right	No	1.16729780007154	0	502391	253
982.388671875	0	health	response	2	115	55	foodImage.13	FOODEEG_Images\0183.jpg	YN	Right	No	1.16729780007154	0	502984	235
983.43359375	1	taste	trialStart	2	116	56	foodImage.26	FOODEEG_Images\0262.jpg	YN	Left	Yes	0.782304800115526	0	503519	251
984.47265625	2	taste	foodImageDisplay	2	116	56	foodImage.26	FOODEEG_Images\0262.jpg	YN	Left	Yes	0.782304800115526	0	504051	252
986.53515625	0.782304800115526	taste	choicePhaseStart	2	116	56	foodImage.26	FOODEEG_Images\0262.jpg	YN	Left	Yes	0.782304800115526	0	505107	253
987.30859375	0	taste	response	2	116	56	foodImage.26	FOODEEG_Images\0262.jpg	YN	Left	Yes	0.782304800115526	0	505503	234
988.3515625	1	decision	trialStart	2	117	57	foodImage.22	FOODEEG_Images\0236.jpg	YN	Left	Yes	0.887273899978027	0	506037	251
989.392578125	2	decision	foodImageDisplay	2	117	57	foodImage.22	FOODEEG_Images\0236.jpg	YN	Left	Yes	0.887273899978027	0	506570	252
991.455078125	0.887273899978027	decision	choicePhaseStart	2	117	57	foodImage.22	FOODEEG_Images\0236.jpg	YN	Left	Yes	0.887273899978027	0	507626	253
992.33203125	0	decision	response	2	117	57	foodImage.22	FOODEEG_Images\0236.jpg	YN	Left	Yes	0.887273899978027	0	508075	234
993.375	1	decision	trialStart	2	118	58	foodImage.112	FOODEEG_Images\0920.jpg	NY	Right	Yes	2.18498679995537	0	508609	251
994.4140625	2	decision	foodImageDisplay	2	118	58	foodImage.112	FOODEEG_Images\0920.jpg	NY	Right	Yes	2.18498679995537	0	509141	252
996.4765625	2.18498679995537	decision	choicePhaseStart	2	118	58	foodImage.112	FOODEEG_Images\0920.jpg	NY	Right	Yes	2.18498679995537	0	510197	253
998.65234375	0	decision	response	2	118	58	foodImage.112	FOODEEG_Images\0920.jpg	NY	Right	Yes	2.18498679995537	0	511311	235
999.6953125	1	decision	trialStart	2	119	59	foodImage.41	FOODEEG_Images\0409.jpg	NY	Right	Yes	1.14482619985938	0	511845	251
1000.7421875	2	decision	foodImageDisplay	2	119	59	foodImage.41	FOODEEG_Images\0409.jpg	NY	Right	Yes	1.14482619985938	0	512381	252
1002.8046875	1.14482619985938	decision	choicePhaseStart	2	119	59	foodImage.41	FOODEEG_Images\0409.jpg	NY	Right	Yes	1.14482619985938	0	513437	253
1003.939453125	0	decision	response	2	119	59	foodImage.41	FOODEEG_Images\0409.jpg	NY	Right	Yes	1.14482619985938	0	514018	235
1004.98828125	1	taste	trialStart	2	120	60	foodImage.43	FOODEEG_Images\0445.jpg	NY	Right	Yes	1.67210049997084	0	514555	251
1006.046875	2	taste	foodImageDisplay	2	120	60	foodImage.43	FOODEEG_Images\0445.jpg	NY	Right	Yes	1.67210049997084	0	515097	252
1008.107421875	1.67210049997084	taste	choicePhaseStart	2	120	60	foodImage.43	FOODEEG_Images\0445.jpg	NY	Right	Yes	1.67210049997084	0	516152	253
1009.771484375	0	taste	response	2	120	60	foodImage.43	FOODEEG_Images\0445.jpg	NY	Right	Yes	1.67210049997084	0	517004	235
1011.8125	14.322265625	n/a	blockEnd	n/a	n/a	n/a	n/a	n/a	n/a	n/a	n/a	n/a	n/a	518049	254
1026.134765625	2	n/a	blockStart	3	n/a	n/a	n/a	n/a	n/a	n/a	n/a	n/a	n/a	525382	250
1028.166015625	1	taste	trialStart	3	121	1	foodImage.63	FOODEEG_Images\0645.jpg	YN	Left	Yes	0.822166100144386	0	526422	251
1029.205078125	2	taste	foodImageDisplay	3	121	1	foodImage.63	FOODEEG_Images\0645.jpg	YN	Left	Yes	0.822166100144386	0	526954	252
1031.26953125	0.822166100144386	taste	choicePhaseStart	3	121	1	foodImage.63	FOODEEG_Images\0645.jpg	YN	Left	Yes	0.822166100144386	0	528011	253
1032.08203125	0	taste	response	3	121	1	foodImage.63	FOODEEG_Images\0645.jpg	YN	Left	Yes	0.822166100144386	0	528427	234
1033.126953125	1	health	trialStart	3	122	2	foodImage.117	FOODEEG_Images\0925.jpg	YN	Left	Yes	1.17635269998573	0	528962	251
1034.166015625	2	health	foodImageDisplay	3	122	2	foodImage.117	FOODEEG_Images\0925.jpg	YN	Left	Yes	1.17635269998573	0	529494	252
1036.228515625	1.17635269998573	health	choicePhaseStart	3	122	2	foodImage.117	FOODEEG_Images\0925.jpg	YN	Left	Yes	1.17635269998573	0	530550	253
1037.39453125	0	health	response	3	122	2	foodImage.117	FOODEEG_Images\0925.jpg	YN	Left	Yes	1.17635269998573	0	531147	234
1038.439453125	1	decision	trialStart	3	123	3	foodImage.40	FOODEEG_Images\0373.jpg	YN	Left	Yes	0.829964800039306	0	531682	251
1039.478515625	2	decision	foodImageDisplay	3	123	3	foodImage.40	FOODEEG_Images\0373.jpg	YN	Left	Yes	0.829964800039306	0	532214	252
1041.541015625	0.829964800039306	decision	choicePhaseStart	3	123	3	foodImage.40	FOODEEG_Images\0373.jpg	YN	Left	Yes	0.829964800039306	0	533270	253
1042.36328125	0	decision	response	3	123	3	foodImage.40	FOODEEG_Images\0373.jpg	YN	Left	Yes	0.829964800039306	0	533691	234
1043.40234375	1	taste	trialStart	3	124	4	foodImage.78	FOODEEG_Images\0787.jpg	YN	Left	Yes	1.0058132999111	0	534223	251
1044.4453125	2	taste	foodImageDisplay	3	124	4	foodImage.78	FOODEEG_Images\0787.jpg	YN	Left	Yes	1.0058132999111	0	534757	252
1046.5078125	1.0058132999111	taste	choicePhaseStart	3	124	4	foodImage.78	FOODEEG_Images\0787.jpg	YN	Left	Yes	1.0058132999111	0	535813	253
1047.505859375	0	taste	response	3	124	4	foodImage.78	FOODEEG_Images\0787.jpg	YN	Left	Yes	1.0058132999111	0	536324	234
1048.546875	1	decision	trialStart	3	125	5	foodImage.9	FOODEEG_Images\0138.jpg	NY	Right	Yes	1.26183800003491	0	536857	251
1049.607421875	2	decision	foodImageDisplay	3	125	5	foodImage.9	FOODEEG_Images\0138.jpg	NY	Right	Yes	1.26183800003491	0	537400	252
1051.669921875	1.26183800003491	decision	choicePhaseStart	3	125	5	foodImage.9	FOODEEG_Images\0138.jpg	NY	Right	Yes	1.26183800003491	0	538456	253
1052.921875	0	decision	response	3	125	5	foodImage.9	FOODEEG_Images\0138.jpg	NY	Right	Yes	1.26183800003491	0	539097	235
1053.962890625	1	health	trialStart	3	126	6	foodImage.88	FOODEEG_Images\0878.jpg	YN	Right	No	1.63704960001633	0	539630	251
1055.015625	2	health	foodImageDisplay	3	126	6	foodImage.88	FOODEEG_Images\0878.jpg	YN	Right	No	1.63704960001633	0	540169	252
1057.078125	1.63704960001633	health	choicePhaseStart	3	126	6	foodImage.88	FOODEEG_Images\0878.jpg	YN	Right	No	1.63704960001633	0	541225	253
1058.705078125	0	health	response	3	126	6	foodImage.88	FOODEEG_Images\0878.jpg	YN	Right	No	1.63704960001633	0	542058	235
1059.75	1	health	trialStart	3	127	7	foodImage.118	FOODEEG_Images\0926.jpg	NY	Left	No	1.78460630006157	0	542593	251
1060.787109375	2	health	foodImageDisplay	3	127	7	foodImage.118	FOODEEG_Images\0926.jpg	NY	Left	No	1.78460630006157	0	543124	252
1062.849609375	1.78460630006157	health	choicePhaseStart	3	127	7	foodImage.118	FOODEEG_Images\0926.jpg	NY	Left	No	1.78460630006157	0	544180	253
1064.625	0	health	response	3	127	7	foodImage.118	FOODEEG_Images\0926.jpg	NY	Left	No	1.78460630006157	0	545089	234
1065.671875	1	taste	trialStart	3	128	8	foodImage.109	FOODEEG_Images\0917.jpg	YN	Right	No	1.97353009996004	0	545625	251
1066.708984375	2	taste	foodImageDisplay	3	128	8	foodImage.109	FOODEEG_Images\0917.jpg	YN	Right	No	1.97353009996004	0	546156	252
1068.771484375	1.97353009996004	taste	choicePhaseStart	3	128	8	foodImage.109	FOODEEG_Images\0917.jpg	YN	Right	No	1.97353009996004	0	547212	253
1070.73828125	0	taste	response	3	128	8	foodImage.109	FOODEEG_Images\0917.jpg	YN	Right	No	1.97353009996004	0	548219	235
1071.77734375	1	health	trialStart	3	129	9	foodImage.53	FOODEEG_Images\0547.jpg	YN	Left	Yes	1.72101749991998	0	548751	251
1072.833984375	2	health	foodImageDisplay	3	129	9	foodImage.53	FOODEEG_Images\0547.jpg	YN	Left	Yes	1.72101749991998	0	549292	252
1074.896484375	1.72101749991998	health	choicePhaseStart	3	129	9	foodImage.53	FOODEEG_Images\0547.jpg	YN	Left	Yes	1.72101749991998	0	550348	253
1076.609375	0	health	response	3	129	9	foodImage.53	FOODEEG_Images\0547.jpg	YN	Left	Yes	1.72101749991998	0	551225	234
1077.6484375	1	taste	trialStart	3	130	10	foodImage.90	FOODEEG_Images\0890.jpg	NY	Right	Yes	1.13380539999343	0	551757	251
1078.7109375	2	taste	foodImageDisplay	3	130	10	foodImage.90	FOODEEG_Images\0890.jpg	NY	Right	Yes	1.13380539999343	0	552301	252
1080.771484375	1.13380539999343	taste	choicePhaseStart	3	130	10	foodImage.90	FOODEEG_Images\0890.jpg	NY	Right	Yes	1.13380539999343	0	553356	253
1081.896484375	0	taste	response	3	130	10	foodImage.90	FOODEEG_Images\0890.jpg	NY	Right	Yes	1.13380539999343	0	553932	235
1082.939453125	1	decision	trialStart	3	131	11	foodImage.51	FOODEEG_Images\0536.jpg	YN	Left	Yes	1.29047290002927	0	554466	251
1083.984375	2	decision	foodImageDisplay	3	131	11	foodImage.51	FOODEEG_Images\0536.jpg	YN	Left	Yes	1.29047290002927	0	555001	252
1086.046875	1.29047290002927	decision	choicePhaseStart	3	131	11	foodImage.51	FOODEEG_Images\0536.jpg	YN	Left	Yes	1.29047290002927	0	556057	253
1087.328125	0	decision	response	3	131	11	foodImage.51	FOODEEG_Images\0536.jpg	YN	Left	Yes	1.29047290002927	0	556713	234
1088.376953125	1	decision	trialStart	3	132	12	foodImage.97	FOODEEG_Images\0905.jpg	NY	Right	Yes	0.81676120008342	0	557250	251
1089.416015625	2	decision	foodImageDisplay	3	132	12	foodImage.97	FOODEEG_Images\0905.jpg	NY	Right	Yes	0.81676120008342	0	557782	252
1091.48046875	0.81676120008342	decision	choicePhaseStart	3	132	12	foodImage.97	FOODEEG_Images\0905.jpg	NY	Right	Yes	0.81676120008342	0	558839	253
1092.2890625	0	decision	response	3	132	12	foodImage.97	FOODEEG_Images\0905.jpg	NY	Right	Yes	0.81676120008342	0	559253	235
1093.3359375	1	health	trialStart	3	133	13	foodImage.100	FOODEEG_Images\0908.jpg	NY	Right	Yes	1.36456970009021	0	559789	251
1094.375	2	health	foodImageDisplay	3	133	13	foodImage.100	FOODEEG_Images\0908.jpg	NY	Right	Yes	1.36456970009021	0	560321	252
1096.4375	1.36456970009021	health	choicePhaseStart	3	133	13	foodImage.100	FOODEEG_Images\0908.jpg	NY	Right	Yes	1.36456970009021	0	561377	253
1097.79296875	0	health	response	3	133	13	foodImage.100	FOODEEG_Images\0908.jpg	NY	Right	Yes	1.36456970009021	0	562071	235
1098.83203125	1	health	trialStart	3	134	14	foodImage.89	FOODEEG_Images\0881.jpg	NY	Right	Yes	1.60293600009754	0	562603	251
1099.88671875	2	health	foodImageDisplay	3	134	14	foodImage.89	FOODEEG_Images\0881.jpg	NY	Right	Yes	1.60293600009754	0	563143	252
1101.94921875	1.60293600009754	health	choicePhaseStart	3	134	14	foodImage.89	FOODEEG_Images\0881.jpg	NY	Right	Yes	1.60293600009754	0	564199	253
1103.54296875	0	health	response	3	134	14	foodImage.89	FOODEEG_Images\0881.jpg	NY	Right	Yes	1.60293600009754	0	565015	235
1104.587890625	1	taste	trialStart	3	135	15	foodImage.48	FOODEEG_Images\0494.jpg	NY	Right	Yes	2.20384650002234	0	565550	251
1105.630859375	2	taste	foodImageDisplay	3	135	15	foodImage.48	FOODEEG_Images\0494.jpg	NY	Right	Yes	2.20384650002234	0	566084	252
1107.693359375	2.20384650002234	taste	choicePhaseStart	3	135	15	foodImage.48	FOODEEG_Images\0494.jpg	NY	Right	Yes	2.20384650002234	0	567140	253
1109.88671875	0	taste	response	3	135	15	foodImage.48	FOODEEG_Images\0494.jpg	NY	Right	Yes	2.20384650002234	0	568263	235
1110.9296875	1	decision	trialStart	3	136	16	foodImage.61	FOODEEG_Images\0640.jpg	YN	Left	Yes	0.97692529996857	0	568797	251
1111.96875	2	decision	foodImageDisplay	3	136	16	foodImage.61	FOODEEG_Images\0640.jpg	YN	Left	Yes	0.97692529996857	0	569329	252
1114.03125	0.97692529996857	decision	choicePhaseStart	3	136	16	foodImage.61	FOODEEG_Images\0640.jpg	YN	Left	Yes	0.97692529996857	0	570385	253
1115	0	decision	response	3	136	16	foodImage.61	FOODEEG_Images\0640.jpg	YN	Left	Yes	0.97692529996857	0	570881	234
1116.04296875	1	health	trialStart	3	137	17	foodImage.31	FOODEEG_Images\0294.jpg	YN	Right	No	1.29131760005839	0	571415	251
1117.0859375	2	health	foodImageDisplay	3	137	17	foodImage.31	FOODEEG_Images\0294.jpg	YN	Right	No	1.29131760005839	0	571949	252
1119.1484375	1.29131760005839	health	choicePhaseStart	3	137	17	foodImage.31	FOODEEG_Images\0294.jpg	YN	Right	No	1.29131760005839	0	573005	253
1120.431640625	0	health	response	3	137	17	foodImage.31	FOODEEG_Images\0294.jpg	YN	Right	No	1.29131760005839	0	573662	235
1121.474609375	1	health	trialStart	3	138	18	foodImage.57	FOODEEG_Images\0587.jpg	NY	Right	Yes	0.991078200051561	0	574196	251
1122.515625	2	health	foodImageDisplay	3	138	18	foodImage.57	FOODEEG_Images\0587.jpg	NY	Right	Yes	0.991078200051561	0	574729	252
1124.578125	0.991078200051561	health	choicePhaseStart	3	138	18	foodImage.57	FOODEEG_Images\0587.jpg	NY	Right	Yes	0.991078200051561	0	575785	253
1125.560546875	0	health	response	3	138	18	foodImage.57	FOODEEG_Images\0587.jpg	NY	Right	Yes	0.991078200051561	0	576288	235
1126.603515625	1	decision	trialStart	3	139	19	foodImage.20	FOODEEG_Images\0226.jpg	YN	Left	Yes	0.895534900017083	0	576822	251
1127.6484375	2	decision	foodImageDisplay	3	139	19	foodImage.20	FOODEEG_Images\0226.jpg	YN	Left	Yes	0.895534900017083	0	577357	252
1129.7109375	0.895534900017083	decision	choicePhaseStart	3	139	19	foodImage.20	FOODEEG_Images\0226.jpg	YN	Left	Yes	0.895534900017083	0	578413	253
1130.59765625	0	decision	response	3	139	19	foodImage.20	FOODEEG_Images\0226.jpg	YN	Left	Yes	0.895534900017083	0	578867	234
1131.640625	1	decision	trialStart	3	140	20	foodImage.84	FOODEEG_Images\0830.jpg	NY	Right	Yes	0.885650200070813	0	579401	251
1132.69921875	2	decision	foodImageDisplay	3	140	20	foodImage.84	FOODEEG_Images\0830.jpg	NY	Right	Yes	0.885650200070813	0	579943	252
1134.76171875	0.885650200070813	decision	choicePhaseStart	3	140	20	foodImage.84	FOODEEG_Images\0830.jpg	NY	Right	Yes	0.885650200070813	0	580999	253
1135.638671875	0	decision	response	3	140	20	foodImage.84	FOODEEG_Images\0830.jpg	NY	Right	Yes	0.885650200070813	0	581448	235
1136.68359375	1	decision	trialStart	3	141	21	foodImage.98	FOODEEG_Images\0906.jpg	NY	Left	No	1.13499030005187	0	581983	251
1137.720703125	2	decision	foodImageDisplay	3	141	21	foodImage.98	FOODEEG_Images\0906.jpg	NY	Left	No	1.13499030005187	0	582514	252
1139.78515625	1.13499030005187	decision	choicePhaseStart	3	141	21	foodImage.98	FOODEEG_Images\0906.jpg	NY	Left	No	1.13499030005187	0	583571	253
1140.91015625	0	decision	response	3	141	21	foodImage.98	FOODEEG_Images\0906.jpg	NY	Left	No	1.13499030005187	0	584147	234
1141.955078125	1	taste	trialStart	3	142	22	foodImage.76	FOODEEG_Images\0766.jpg	YN	Left	Yes	0.900758200092241	0	584682	251
1142.99609375	2	taste	foodImageDisplay	3	142	22	foodImage.76	FOODEEG_Images\0766.jpg	YN	Left	Yes	0.900758200092241	0	585215	252
1145.05859375	0.900758200092241	taste	choicePhaseStart	3	142	22	foodImage.76	FOODEEG_Images\0766.jpg	YN	Left	Yes	0.900758200092241	0	586271	253
1145.94921875	0	taste	response	3	142	22	foodImage.76	FOODEEG_Images\0766.jpg	YN	Left	Yes	0.900758200092241	0	586727	234
1146.9921875	1	taste	trialStart	3	143	23	foodImage.97	FOODEEG_Images\0905.jpg	YN	Left	Yes	1.21130659990013	0	587261	251
1148.029296875	2	taste	foodImageDisplay	3	143	23	foodImage.97	FOODEEG_Images\0905.jpg	YN	Left	Yes	1.21130659990013	0	587792	252
1150.091796875	1.21130659990013	taste	choicePhaseStart	3	143	23	foodImage.97	FOODEEG_Images\0905.jpg	YN	Left	Yes	1.21130659990013	0	588848	253
1151.294921875	0	taste	response	3	143	23	foodImage.97	FOODEEG_Images\0905.jpg	YN	Left	Yes	1.21130659990013	0	589464	234
1152.3359375	1	taste	trialStart	3	144	24	foodImage.38	FOODEEG_Images\0365.jpg	NY	Right	Yes	0.466848499840125	0	589997	251
1153.375	2	taste	foodImageDisplay	3	144	24	foodImage.38	FOODEEG_Images\0365.jpg	NY	Right	Yes	0.466848499840125	0	590529	252
1155.4375	0.466848499840125	taste	choicePhaseStart	3	144	24	foodImage.38	FOODEEG_Images\0365.jpg	NY	Right	Yes	0.466848499840125	0	591585	253
1155.89453125	0	taste	response	3	144	24	foodImage.38	FOODEEG_Images\0365.jpg	NY	Right	Yes	0.466848499840125	0	591819	235
1156.935546875	1	decision	trialStart	3	145	25	foodImage.105	FOODEEG_Images\0913.jpg	NY	Left	No	0.954220499843359	0	592352	251
1157.974609375	2	decision	foodImageDisplay	3	145	25	foodImage.105	FOODEEG_Images\0913.jpg	NY	Left	No	0.954220499843359	0	592884	252
1160.037109375	0.954220499843359	decision	choicePhaseStart	3	145	25	foodImage.105	FOODEEG_Images\0913.jpg	NY	Left	No	0.954220499843359	0	593940	253
1160.982421875	0	decision	response	3	145	25	foodImage.105	FOODEEG_Images\0913.jpg	NY	Left	No	0.954220499843359	0	594424	234
1162.025390625	1	health	trialStart	3	146	26	foodImage.5	FOODEEG_Images\0107.jpg	YN	Right	No	0.868813700042665	0	594958	251
1163.083984375	2	health	foodImageDisplay	3	146	26	foodImage.5	FOODEEG_Images\0107.jpg	YN	Right	No	0.868813700042665	0	595500	252
1165.146484375	0.868813700042665	health	choicePhaseStart	3	146	26	foodImage.5	FOODEEG_Images\0107.jpg	YN	Right	No	0.868813700042665	0	596556	253
1166.005859375	0	health	response	3	146	26	foodImage.5	FOODEEG_Images\0107.jpg	YN	Right	No	0.868813700042665	0	596996	235
1167.048828125	1	decision	trialStart	3	147	27	foodImage.33	FOODEEG_Images\0329.jpg	YN	Left	Yes	0.740326199913397	0	597530	251
1168.091796875	2	decision	foodImageDisplay	3	147	27	foodImage.33	FOODEEG_Images\0329.jpg	YN	Left	Yes	0.740326199913397	0	598064	252
1170.154296875	0.740326199913397	decision	choicePhaseStart	3	147	27	foodImage.33	FOODEEG_Images\0329.jpg	YN	Left	Yes	0.740326199913397	0	599120	253
1170.884765625	0	decision	response	3	147	27	foodImage.33	FOODEEG_Images\0329.jpg	YN	Left	Yes	0.740326199913397	0	599494	234
1171.9296875	1	decision	trialStart	3	148	28	foodImage.54	FOODEEG_Images\0560.jpg	YN	Left	Yes	1.81176399998367	0	600029	251
1172.98828125	2	decision	foodImageDisplay	3	148	28	foodImage.54	FOODEEG_Images\0560.jpg	YN	Left	Yes	1.81176399998367	0	600571	252
1175.048828125	1.81176399998367	decision	choicePhaseStart	3	148	28	foodImage.54	FOODEEG_Images\0560.jpg	YN	Left	Yes	1.81176399998367	0	601626	253
1176.853515625	0	decision	response	3	148	28	foodImage.54	FOODEEG_Images\0560.jpg	YN	Left	Yes	1.81176399998367	0	602550	234
1177.896484375	1	taste	trialStart	3	149	29	foodImage.11	FOODEEG_Images\0180.jpg	NY	Right	Yes	1.87684369995259	0	603084	251
1178.9375	2	taste	foodImageDisplay	3	149	29	foodImage.11	FOODEEG_Images\0180.jpg	NY	Right	Yes	1.87684369995259	0	603617	252
1181	1.87684369995259	taste	choicePhaseStart	3	149	29	foodImage.11	FOODEEG_Images\0180.jpg	NY	Right	Yes	1.87684369995259	0	604673	253
1182.869140625	0	taste	response	3	149	29	foodImage.11	FOODEEG_Images\0180.jpg	NY	Right	Yes	1.87684369995259	0	605630	235
1183.912109375	1	decision	trialStart	3	150	30	foodImage.91	FOODEEG_Images\0896.jpg	NY	Right	Yes	1.09069589991122	0	606164	251
1184.970703125	2	decision	foodImageDisplay	3	150	30	foodImage.91	FOODEEG_Images\0896.jpg	NY	Right	Yes	1.09069589991122	0	606706	252
1187.033203125	1.09069589991122	decision	choicePhaseStart	3	150	30	foodImage.91	FOODEEG_Images\0896.jpg	NY	Right	Yes	1.09069589991122	0	607762	253
1188.1171875	0	decision	response	3	150	30	foodImage.91	FOODEEG_Images\0896.jpg	NY	Right	Yes	1.09069589991122	0	608317	235
1189.16015625	1	taste	trialStart	3	151	31	foodImage.110	FOODEEG_Images\0918.jpg	YN	Left	Yes	0.704970499966294	0	608851	251
1190.197265625	2	taste	foodImageDisplay	3	151	31	foodImage.110	FOODEEG_Images\0918.jpg	YN	Left	Yes	0.704970499966294	0	609382	252
1192.259765625	0.704970499966294	taste	choicePhaseStart	3	151	31	foodImage.110	FOODEEG_Images\0918.jpg	YN	Left	Yes	0.704970499966294	0	610438	253
1192.95703125	0	taste	response	3	151	31	foodImage.110	FOODEEG_Images\0918.jpg	YN	Left	Yes	0.704970499966294	0	610795	234
1194	1	decision	trialStart	3	152	32	foodImage.10	FOODEEG_Images\0145.jpg	NY	Right	Yes	0.817613100167364	0	611329	251
1195.05859375	2	decision	foodImageDisplay	3	152	32	foodImage.10	FOODEEG_Images\0145.jpg	NY	Right	Yes	0.817613100167364	0	611871	252
1197.123046875	0.817613100167364	decision	choicePhaseStart	3	152	32	foodImage.10	FOODEEG_Images\0145.jpg	NY	Right	Yes	0.817613100167364	0	612928	253
1197.931640625	0	decision	response	3	152	32	foodImage.10	FOODEEG_Images\0145.jpg	NY	Right	Yes	0.817613100167364	0	613342	235
1198.9765625	1	taste	trialStart	3	153	33	foodImage.65	FOODEEG_Images\0658.jpg	NY	Right	Yes	1.21342739998363	0	613877	251
1200.017578125	2	taste	foodImageDisplay	3	153	33	foodImage.65	FOODEEG_Images\0658.jpg	NY	Right	Yes	1.21342739998363	0	614410	252
1202.080078125	1.21342739998363	taste	choicePhaseStart	3	153	33	foodImage.65	FOODEEG_Images\0658.jpg	NY	Right	Yes	1.21342739998363	0	615466	253
1203.283203125	0	taste	response	3	153	33	foodImage.65	FOODEEG_Images\0658.jpg	NY	Right	Yes	1.21342739998363	0	616082	235
1204.326171875	1	taste	trialStart	3	154	34	foodImage.55	FOODEEG_Images\0567.jpg	NY	Right	Yes	1.21995380008593	0	616616	251
1205.37890625	2	taste	foodImageDisplay	3	154	34	foodImage.55	FOODEEG_Images\0567.jpg	NY	Right	Yes	1.21995380008593	0	617155	252
1207.44140625	1.21995380008593	taste	choicePhaseStart	3	154	34	foodImage.55	FOODEEG_Images\0567.jpg	NY	Right	Yes	1.21995380008593	0	618211	253
1208.65234375	0	taste	response	3	154	34	foodImage.55	FOODEEG_Images\0567.jpg	NY	Right	Yes	1.21995380008593	0	618831	235
1209.697265625	1	taste	trialStart	3	155	35	foodImage.105	FOODEEG_Images\0913.jpg	YN	Right	No	1.64739900012501	0	619366	251
1210.734375	2	taste	foodImageDisplay	3	155	35	foodImage.105	FOODEEG_Images\0913.jpg	YN	Right	No	1.64739900012501	0	619897	252
1212.796875	1.64739900012501	taste	choicePhaseStart	3	155	35	foodImage.105	FOODEEG_Images\0913.jpg	YN	Right	No	1.64739900012501	0	620953	253
1214.435546875	0	taste	response	3	155	35	foodImage.105	FOODEEG_Images\0913.jpg	YN	Right	No	1.64739900012501	0	621792	235
1215.4765625	1	taste	trialStart	3	156	36	foodImage.29	FOODEEG_Images\0278.jpg	NY	Right	Yes	1.10621439991519	0	622325	251
1216.515625	2	taste	foodImageDisplay	3	156	36	foodImage.29	FOODEEG_Images\0278.jpg	NY	Right	Yes	1.10621439991519	0	622857	252
1218.578125	1.10621439991519	taste	choicePhaseStart	3	156	36	foodImage.29	FOODEEG_Images\0278.jpg	NY	Right	Yes	1.10621439991519	0	623913	253
1219.67578125	0	taste	response	3	156	36	foodImage.29	FOODEEG_Images\0278.jpg	NY	Right	Yes	1.10621439991519	0	624475	235
1220.716796875	1	health	trialStart	3	157	37	foodImage.66	FOODEEG_Images\0676.jpg	NY	Left	No	1.69721320015378	0	625008	251
1221.755859375	2	health	foodImageDisplay	3	157	37	foodImage.66	FOODEEG_Images\0676.jpg	NY	Left	No	1.69721320015378	0	625540	252
1223.818359375	1.69721320015378	health	choicePhaseStart	3	157	37	foodImage.66	FOODEEG_Images\0676.jpg	NY	Left	No	1.69721320015378	0	626596	253
1225.5078125	0	health	response	3	157	37	foodImage.66	FOODEEG_Images\0676.jpg	NY	Left	No	1.69721320015378	0	627461	234
1226.55078125	1	health	trialStart	3	158	38	foodImage.40	FOODEEG_Images\0373.jpg	YN	Right	No	1.19173590000719	0	627995	251
1227.58984375	2	health	foodImageDisplay	3	158	38	foodImage.40	FOODEEG_Images\0373.jpg	YN	Right	No	1.19173590000719	0	628527	252
1229.65234375	1.19173590000719	health	choicePhaseStart	3	158	38	foodImage.40	FOODEEG_Images\0373.jpg	YN	Right	No	1.19173590000719	0	629583	253
1230.8359375	0	health	response	3	158	38	foodImage.40	FOODEEG_Images\0373.jpg	YN	Right	No	1.19173590000719	0	630189	235
1231.87890625	1	health	trialStart	3	159	39	foodImage.22	FOODEEG_Images\0236.jpg	YN	Left	Yes	0.984040700132027	0	630723	251
1232.91796875	2	health	foodImageDisplay	3	159	39	foodImage.22	FOODEEG_Images\0236.jpg	YN	Left	Yes	0.984040700132027	0	631255	252
1234.98046875	0.984040700132027	health	choicePhaseStart	3	159	39	foodImage.22	FOODEEG_Images\0236.jpg	YN	Left	Yes	0.984040700132027	0	632311	253
1235.955078125	0	health	response	3	159	39	foodImage.22	FOODEEG_Images\0236.jpg	YN	Left	Yes	0.984040700132027	0	632810	234
1236.998046875	1	health	trialStart	3	160	40	foodImage.52	FOODEEG_Images\0539.jpg	NY	Left	No	0.579669300001115	0	633344	251
1238.056640625	2	health	foodImageDisplay	3	160	40	foodImage.52	FOODEEG_Images\0539.jpg	NY	Left	No	0.579669300001115	0	633886	252
1240.119140625	0.579669300001115	health	choicePhaseStart	3	160	40	foodImage.52	FOODEEG_Images\0539.jpg	NY	Left	No	0.579669300001115	0	634942	253
1240.689453125	0	health	response	3	160	40	foodImage.52	FOODEEG_Images\0539.jpg	NY	Left	No	0.579669300001115	0	635234	234
1241.73046875	1	health	trialStart	3	161	41	foodImage.116	FOODEEG_Images\0924.jpg	YN	Left	Yes	1.3732420001179	0	635767	251
1242.767578125	2	health	foodImageDisplay	3	161	41	foodImage.116	FOODEEG_Images\0924.jpg	YN	Left	Yes	1.3732420001179	0	636298	252
1244.830078125	1.3732420001179	health	choicePhaseStart	3	161	41	foodImage.116	FOODEEG_Images\0924.jpg	YN	Left	Yes	1.3732420001179	0	637354	253
1246.193359375	0	health	response	3	161	41	foodImage.116	FOODEEG_Images\0924.jpg	YN	Left	Yes	1.3732420001179	0	638052	234
1247.23828125	1	taste	trialStart	3	162	42	foodImage.50	FOODEEG_Images\0529.jpg	NY	Right	Yes	0.822914500022307	0	638587	251
1248.29296875	2	taste	foodImageDisplay	3	162	42	foodImage.50	FOODEEG_Images\0529.jpg	NY	Right	Yes	0.822914500022307	0	639127	252
1250.35546875	0.822914500022307	taste	choicePhaseStart	3	162	42	foodImage.50	FOODEEG_Images\0529.jpg	NY	Right	Yes	0.822914500022307	0	640183	253
1251.169921875	0	taste	response	3	162	42	foodImage.50	FOODEEG_Images\0529.jpg	NY	Right	Yes	0.822914500022307	0	640600	235
1252.212890625	1	taste	trialStart	3	163	43	foodImage.59	FOODEEG_Images\0607.jpg	YN	Left	Yes	1.18459769990295	0	641134	251
1253.259765625	2	taste	foodImageDisplay	3	163	43	foodImage.59	FOODEEG_Images\0607.jpg	YN	Left	Yes	1.18459769990295	0	641670	252
1255.322265625	1.18459769990295	taste	choicePhaseStart	3	163	43	foodImage.59	FOODEEG_Images\0607.jpg	YN	Left	Yes	1.18459769990295	0	642726	253
1256.498046875	0	taste	response	3	163	43	foodImage.59	FOODEEG_Images\0607.jpg	YN	Left	Yes	1.18459769990295	0	643328	234
1257.541015625	1	decision	trialStart	3	164	44	foodImage.114	FOODEEG_Images\0922.jpg	YN	Left	Yes	0.713549799984321	0	643862	251
1258.578125	2	decision	foodImageDisplay	3	164	44	foodImage.114	FOODEEG_Images\0922.jpg	YN	Left	Yes	0.713549799984321	0	644393	252
1260.640625	0.713549799984321	decision	choicePhaseStart	3	164	44	foodImage.114	FOODEEG_Images\0922.jpg	YN	Left	Yes	0.713549799984321	0	645449	253
1261.345703125	0	decision	response	3	164	44	foodImage.114	FOODEEG_Images\0922.jpg	YN	Left	Yes	0.713549799984321	0	645810	234
1262.388671875	1	health	trialStart	3	165	45	foodImage.81	FOODEEG_Images\0797.jpg	YN	Left	Yes	0.91920750006102	0	646344	251
1263.447265625	2	health	foodImageDisplay	3	165	45	foodImage.81	FOODEEG_Images\0797.jpg	YN	Left	Yes	0.91920750006102	0	646886	252
1265.513671875	0.91920750006102	health	choicePhaseStart	3	165	45	foodImage.81	FOODEEG_Images\0797.jpg	YN	Left	Yes	0.91920750006102	0	647944	253
1266.42578125	0	health	response	3	165	45	foodImage.81	FOODEEG_Images\0797.jpg	YN	Left	Yes	0.91920750006102	0	648411	234
1267.47265625	1	health	trialStart	3	166	46	foodImage.23	FOODEEG_Images\0244.jpg	NY	Left	No	1.62563139991835	0	648947	251
1268.513671875	2	health	foodImageDisplay	3	166	46	foodImage.23	FOODEEG_Images\0244.jpg	NY	Left	No	1.62563139991835	0	649480	252
1270.576171875	1.62563139991835	health	choicePhaseStart	3	166	46	foodImage.23	FOODEEG_Images\0244.jpg	NY	Left	No	1.62563139991835	0	650536	253
1272.193359375	0	health	response	3	166	46	foodImage.23	FOODEEG_Images\0244.jpg	NY	Left	No	1.62563139991835	0	651364	234
1273.236328125	1	health	trialStart	3	167	47	foodImage.93	FOODEEG_Images\0901.jpg	YN	Left	Yes	0.898181899916381	0	651898	251
1274.2734375	2	health	foodImageDisplay	3	167	47	foodImage.93	FOODEEG_Images\0901.jpg	YN	Left	Yes	0.898181899916381	0	652429	252
1276.3359375	0.898181899916381	health	choicePhaseStart	3	167	47	foodImage.93	FOODEEG_Images\0901.jpg	YN	Left	Yes	0.898181899916381	0	653485	253
1277.224609375	0	health	response	3	167	47	foodImage.93	FOODEEG_Images\0901.jpg	YN	Left	Yes	0.898181899916381	0	653940	234
1278.267578125	1	decision	trialStart	3	168	48	foodImage.15	FOODEEG_Images\0189.jpg	NY	Right	Yes	1.64313329989091	0	654474	251
1279.328125	2	decision	foodImageDisplay	3	168	48	foodImage.15	FOODEEG_Images\0189.jpg	NY	Right	Yes	1.64313329989091	0	655017	252
1281.390625	1.64313329989091	decision	choicePhaseStart	3	168	48	foodImage.15	FOODEEG_Images\0189.jpg	NY	Right	Yes	1.64313329989091	0	656073	253
1283.025390625	0	decision	response	3	168	48	foodImage.15	FOODEEG_Images\0189.jpg	NY	Right	Yes	1.64313329989091	0	656910	235
1284.068359375	1	health	trialStart	3	169	49	foodImage.19	FOODEEG_Images\0225.jpg	YN	Left	Yes	2.00514080002904	0	657444	251
1285.111328125	2	health	foodImageDisplay	3	169	49	foodImage.19	FOODEEG_Images\0225.jpg	YN	Left	Yes	2.00514080002904	0	657978	252
1287.173828125	2.00514080002904	health	choicePhaseStart	3	169	49	foodImage.19	FOODEEG_Images\0225.jpg	YN	Left	Yes	2.00514080002904	0	659034	253
1289.16796875	0	health	response	3	169	49	foodImage.19	FOODEEG_Images\0225.jpg	YN	Left	Yes	2.00514080002904	0	660055	234
1290.2109375	1	health	trialStart	3	170	50	foodImage.39	FOODEEG_Images\0367.jpg	YN	Left	Yes	1.26550889993086	0	660589	251
1291.248046875	2	health	foodImageDisplay	3	170	50	foodImage.39	FOODEEG_Images\0367.jpg	YN	Left	Yes	1.26550889993086	0	661120	252
1293.310546875	1.26550889993086	health	choicePhaseStart	3	170	50	foodImage.39	FOODEEG_Images\0367.jpg	YN	Left	Yes	1.26550889993086	0	662176	253
1294.568359375	0	health	response	3	170	50	foodImage.39	FOODEEG_Images\0367.jpg	YN	Left	Yes	1.26550889993086	0	662820	234
1295.611328125	1	health	trialStart	3	171	51	foodImage.87	FOODEEG_Images\0873.jpg	YN	Left	Yes	1.21290619997308	0	663354	251
1296.669921875	2	health	foodImageDisplay	3	171	51	foodImage.87	FOODEEG_Images\0873.jpg	YN	Left	Yes	1.21290619997308	0	663896	252
1298.732421875	1.21290619997308	health	choicePhaseStart	3	171	51	foodImage.87	FOODEEG_Images\0873.jpg	YN	Left	Yes	1.21290619997308	0	664952	253
1299.935546875	0	health	response	3	171	51	foodImage.87	FOODEEG_Images\0873.jpg	YN	Left	Yes	1.21290619997308	0	665568	234
1300.9765625	1	taste	trialStart	3	172	52	foodImage.92	FOODEEG_Images\0900.jpg	YN	Left	Yes	1.36474029999226	0	666101	251
1302.013671875	2	taste	foodImageDisplay	3	172	52	foodImage.92	FOODEEG_Images\0900.jpg	YN	Left	Yes	1.36474029999226	0	666632	252
1304.076171875	1.36474029999226	taste	choicePhaseStart	3	172	52	foodImage.92	FOODEEG_Images\0900.jpg	YN	Left	Yes	1.36474029999226	0	667688	253
1305.431640625	0	taste	response	3	172	52	foodImage.92	FOODEEG_Images\0900.jpg	YN	Left	Yes	1.36474029999226	0	668382	234
1306.47265625	1	taste	trialStart	3	173	53	foodImage.49	FOODEEG_Images\0515.jpg	NY	Right	Yes	1.48730850010179	0	668915	251
1307.513671875	2	taste	foodImageDisplay	3	173	53	foodImage.49	FOODEEG_Images\0515.jpg	NY	Right	Yes	1.48730850010179	0	669448	252
1309.576171875	1.48730850010179	taste	choicePhaseStart	3	173	53	foodImage.49	FOODEEG_Images\0515.jpg	NY	Right	Yes	1.48730850010179	0	670504	253
1311.0546875	0	taste	response	3	173	53	foodImage.49	FOODEEG_Images\0515.jpg	NY	Right	Yes	1.48730850010179	0	671261	235
1312.10546875	1	taste	trialStart	3	174	54	foodImage.116	FOODEEG_Images\0924.jpg	NY	Right	Yes	1.40900110010989	0	671799	251
1313.154296875	2	taste	foodImageDisplay	3	174	54	foodImage.116	FOODEEG_Images\0924.jpg	NY	Right	Yes	1.40900110010989	0	672336	252
1315.216796875	1.40900110010989	taste	choicePhaseStart	3	174	54	foodImage.116	FOODEEG_Images\0924.jpg	NY	Right	Yes	1.40900110010989	0	673392	253
1316.615234375	0	taste	response	3	174	54	foodImage.116	FOODEEG_Images\0924.jpg	NY	Right	Yes	1.40900110010989	0	674108	235
1317.658203125	1	health	trialStart	3	175	55	foodImage.12	FOODEEG_Images\0181.jpg	YN	Left	Yes	0.748332800110802	0	674642	251
1318.701171875	2	health	foodImageDisplay	3	175	55	foodImage.12	FOODEEG_Images\0181.jpg	YN	Left	Yes	0.748332800110802	0	675176	252
1320.763671875	0.748332800110802	health	choicePhaseStart	3	175	55	foodImage.12	FOODEEG_Images\0181.jpg	YN	Left	Yes	0.748332800110802	0	676232	253
1321.50390625	0	health	response	3	175	55	foodImage.12	FOODEEG_Images\0181.jpg	YN	Left	Yes	0.748332800110802	0	676611	234
1322.546875	1	taste	trialStart	3	176	56	foodImage.70	FOODEEG_Images\0705.jpg	NY	Right	Yes	2.05028539989144	0	677145	251
1323.60546875	2	taste	foodImageDisplay	3	176	56	foodImage.70	FOODEEG_Images\0705.jpg	NY	Right	Yes	2.05028539989144	0	677687	252
1325.66796875	2.05028539989144	taste	choicePhaseStart	3	176	56	foodImage.70	FOODEEG_Images\0705.jpg	NY	Right	Yes	2.05028539989144	0	678743	253
1327.7109375	0	taste	response	3	176	56	foodImage.70	FOODEEG_Images\0705.jpg	NY	Right	Yes	2.05028539989144	0	679789	235
1328.75390625	1	health	trialStart	3	177	57	foodImage.78	FOODEEG_Images\0787.jpg	NY	Right	Yes	0.915295500075445	0	680323	251
1329.798828125	2	health	foodImageDisplay	3	177	57	foodImage.78	FOODEEG_Images\0787.jpg	NY	Right	Yes	0.915295500075445	0	680858	252
1331.861328125	0.915295500075445	health	choicePhaseStart	3	177	57	foodImage.78	FOODEEG_Images\0787.jpg	NY	Right	Yes	0.915295500075445	0	681914	253
1332.767578125	0	health	response	3	177	57	foodImage.78	FOODEEG_Images\0787.jpg	NY	Right	Yes	0.915295500075445	0	682378	235
1333.810546875	1	decision	trialStart	3	178	58	foodImage.2	FOODEEG_Images\0028.jpg	NY	Right	Yes	1.60355610004626	0	682912	251
1334.853515625	2	decision	foodImageDisplay	3	178	58	foodImage.2	FOODEEG_Images\0028.jpg	NY	Right	Yes	1.60355610004626	0	683446	252
1336.916015625	1.60355610004626	decision	choicePhaseStart	3	178	58	foodImage.2	FOODEEG_Images\0028.jpg	NY	Right	Yes	1.60355610004626	0	684502	253
1338.509765625	0	decision	response	3	178	58	foodImage.2	FOODEEG_Images\0028.jpg	NY	Right	Yes	1.60355610004626	0	685318	235
1339.5546875	1	health	trialStart	3	179	59	foodImage.28	FOODEEG_Images\0273.jpg	YN	Left	Yes	0.788334700046107	0	685853	251
1340.595703125	2	health	foodImageDisplay	3	179	59	foodImage.28	FOODEEG_Images\0273.jpg	YN	Left	Yes	0.788334700046107	0	686386	252
1342.658203125	0.788334700046107	health	choicePhaseStart	3	179	59	foodImage.28	FOODEEG_Images\0273.jpg	YN	Left	Yes	0.788334700046107	0	687442	253
1343.4375	0	health	response	3	179	59	foodImage.28	FOODEEG_Images\0273.jpg	YN	Left	Yes	0.788334700046107	0	687841	234
1344.482421875	1	health	trialStart	3	180	60	foodImage.96	FOODEEG_Images\0904.jpg	NY	Right	Yes	1.11410640017129	0	688376	251
1345.521484375	2	health	foodImageDisplay	3	180	60	foodImage.96	FOODEEG_Images\0904.jpg	NY	Right	Yes	1.11410640017129	0	688908	252
1347.587890625	1.11410640017129	health	choicePhaseStart	3	180	60	foodImage.96	FOODEEG_Images\0904.jpg	NY	Right	Yes	1.11410640017129	0	689966	253
1348.6953125	0	health	response	3	180	60	foodImage.96	FOODEEG_Images\0904.jpg	NY	Right	Yes	1.11410640017129	0	690533	235
1350.736328125	109.650390625	n/a	blockEnd	n/a	n/a	n/a	n/a	n/a	n/a	n/a	n/a	n/a	n/a	691578	254
1460.38671875	2	n/a	blockStart	4	n/a	n/a	n/a	n/a	n/a	n/a	n/a	n/a	n/a	747719	250
1462.419921875	1	taste	trialStart	4	181	1	foodImage.52	FOODEEG_Images\0539.jpg	NY	Right	Yes	0.962465499993414	0	748760	251
1463.48046875	2	taste	foodImageDisplay	4	181	1	foodImage.52	FOODEEG_Images\0539.jpg	NY	Right	Yes	0.962465499993414	0	749303	252
1465.544921875	0.962465499993414	taste	choicePhaseStart	4	181	1	foodImage.52	FOODEEG_Images\0539.jpg	NY	Right	Yes	0.962465499993414	0	750360	253
1466.498046875	0	taste	response	4	181	1	foodImage.52	FOODEEG_Images\0539.jpg	NY	Right	Yes	0.962465499993414	0	750848	235
1467.541015625	1	decision	trialStart	4	182	2	foodImage.46	FOODEEG_Images\0479.jpg	YN	Left	Yes	0.735348500078544	0	751382	251
1468.59765625	2	decision	foodImageDisplay	4	182	2	foodImage.46	FOODEEG_Images\0479.jpg	YN	Left	Yes	0.735348500078544	0	751923	252
1470.658203125	0.735348500078544	decision	choicePhaseStart	4	182	2	foodImage.46	FOODEEG_Images\0479.jpg	YN	Left	Yes	0.735348500078544	0	752978	253
1471.384765625	0	decision	response	4	182	2	foodImage.46	FOODEEG_Images\0479.jpg	YN	Left	Yes	0.735348500078544	0	753350	234
1472.427734375	1	decision	trialStart	4	183	3	foodImage.35	FOODEEG_Images\0350.jpg	NY	Right	Yes	0.883448400069028	0	753884	251
1473.466796875	2	decision	foodImageDisplay	4	183	3	foodImage.35	FOODEEG_Images\0350.jpg	NY	Right	Yes	0.883448400069028	0	754416	252
1475.53515625	0.883448400069028	decision	choicePhaseStart	4	183	3	foodImage.35	FOODEEG_Images\0350.jpg	NY	Right	Yes	0.883448400069028	0	755475	253
1476.408203125	0	decision	response	4	183	3	foodImage.35	FOODEEG_Images\0350.jpg	NY	Right	Yes	0.883448400069028	0	755922	235
1477.451171875	1	taste	trialStart	4	184	4	foodImage.25	FOODEEG_Images\0261.jpg	NY	Left	No	0.956937500042841	0	756456	251
1478.4921875	2	taste	foodImageDisplay	4	184	4	foodImage.25	FOODEEG_Images\0261.jpg	NY	Left	No	0.956937500042841	0	756989	252
1480.5546875	0.956937500042841	taste	choicePhaseStart	4	184	4	foodImage.25	FOODEEG_Images\0261.jpg	NY	Left	No	0.956937500042841	0	758045	253
1481.50390625	0	taste	response	4	184	4	foodImage.25	FOODEEG_Images\0261.jpg	NY	Left	No	0.956937500042841	0	758531	234
1482.548828125	1	taste	trialStart	4	185	5	foodImage.120	FOODEEG_Images\0928.jpg	NY	Left	No	1.48234190000221	0	759066	251
1483.5859375	2	taste	foodImageDisplay	4	185	5	foodImage.120	FOODEEG_Images\0928.jpg	NY	Left	No	1.48234190000221	0	759597	252
1485.654296875	1.48234190000221	taste	choicePhaseStart	4	185	5	foodImage.120	FOODEEG_Images\0928.jpg	NY	Left	No	1.48234190000221	0	760656	253
1487.12890625	0	taste	response	4	185	5	foodImage.120	FOODEEG_Images\0928.jpg	NY	Left	No	1.48234190000221	0	761411	234
1488.16796875	1	decision	trialStart	4	186	6	foodImage.89	FOODEEG_Images\0881.jpg	NY	Right	Yes	0.75778830004856	0	761943	251
1489.220703125	2	decision	foodImageDisplay	4	186	6	foodImage.89	FOODEEG_Images\0881.jpg	NY	Right	Yes	0.75778830004856	0	762482	252
1491.283203125	0.75778830004856	decision	choicePhaseStart	4	186	6	foodImage.89	FOODEEG_Images\0881.jpg	NY	Right	Yes	0.75778830004856	0	763538	253
1492.033203125	0	decision	response	4	186	6	foodImage.89	FOODEEG_Images\0881.jpg	NY	Right	Yes	0.75778830004856	0	763922	235
1493.076171875	1	health	trialStart	4	187	7	foodImage.106	FOODEEG_Images\0914.jpg	NY	Right	Yes	1.37564380001277	0	764456	251
1494.11328125	2	health	foodImageDisplay	4	187	7	foodImage.106	FOODEEG_Images\0914.jpg	NY	Right	Yes	1.37564380001277	0	764987	252
1496.177734375	1.37564380001277	health	choicePhaseStart	4	187	7	foodImage.106	FOODEEG_Images\0914.jpg	NY	Right	Yes	1.37564380001277	0	766044	253
1497.544921875	0	health	response	4	187	7	foodImage.106	FOODEEG_Images\0914.jpg	NY	Right	Yes	1.37564380001277	0	766744	235
1498.587890625	1	decision	trialStart	4	188	8	foodImage.21	FOODEEG_Images\0234.jpg	YN	Left	Yes	0.452910199994221	0	767278	251
1499.646484375	2	decision	foodImageDisplay	4	188	8	foodImage.21	FOODEEG_Images\0234.jpg	YN	Left	Yes	0.452910199994221	0	767820	252
1501.708984375	0.452910199994221	decision	choicePhaseStart	4	188	8	foodImage.21	FOODEEG_Images\0234.jpg	YN	Left	Yes	0.452910199994221	0	768876	253
1502.15234375	0	decision	response	4	188	8	foodImage.21	FOODEEG_Images\0234.jpg	YN	Left	Yes	0.452910199994221	0	769103	234
1503.1953125	1	health	trialStart	4	189	9	foodImage.17	FOODEEG_Images\0199.jpg	YN	Left	Yes	1.00423590000719	0	769637	251
1504.24609375	2	health	foodImageDisplay	4	189	9	foodImage.17	FOODEEG_Images\0199.jpg	YN	Left	Yes	1.00423590000719	0	770175	252
1506.30859375	1.00423590000719	health	choicePhaseStart	4	189	9	foodImage.17	FOODEEG_Images\0199.jpg	YN	Left	Yes	1.00423590000719	0	771231	253
1507.3046875	0	health	response	4	189	9	foodImage.17	FOODEEG_Images\0199.jpg	YN	Left	Yes	1.00423590000719	0	771741	234
1508.34375	1	decision	trialStart	4	190	10	foodImage.53	FOODEEG_Images\0547.jpg	YN	Left	Yes	1.01936829998158	0	772273	251
1509.3984375	2	decision	foodImageDisplay	4	190	10	foodImage.53	FOODEEG_Images\0547.jpg	YN	Left	Yes	1.01936829998158	0	772813	252
1511.4609375	1.01936829998158	decision	choicePhaseStart	4	190	10	foodImage.53	FOODEEG_Images\0547.jpg	YN	Left	Yes	1.01936829998158	0	773869	253
1512.47265625	0	decision	response	4	190	10	foodImage.53	FOODEEG_Images\0547.jpg	YN	Left	Yes	1.01936829998158	0	774387	234
1513.51171875	1	decision	trialStart	4	191	11	foodImage.92	FOODEEG_Images\0900.jpg	NY	Right	Yes	1.32387769990601	0	774919	251
1514.55078125	2	decision	foodImageDisplay	4	191	11	foodImage.92	FOODEEG_Images\0900.jpg	NY	Right	Yes	1.32387769990601	0	775451	252
1516.61328125	1.32387769990601	decision	choicePhaseStart	4	191	11	foodImage.92	FOODEEG_Images\0900.jpg	NY	Right	Yes	1.32387769990601	0	776507	253
1517.927734375	0	decision	response	4	191	11	foodImage.92	FOODEEG_Images\0900.jpg	NY	Right	Yes	1.32387769990601	0	777180	235
1518.970703125	1	taste	trialStart	4	192	12	foodImage.58	FOODEEG_Images\0605.jpg	YN	Left	Yes	1.18689480004832	0	777714	251
1520.029296875	2	taste	foodImageDisplay	4	192	12	foodImage.58	FOODEEG_Images\0605.jpg	YN	Left	Yes	1.18689480004832	0	778256	252
1522.091796875	1.18689480004832	taste	choicePhaseStart	4	192	12	foodImage.58	FOODEEG_Images\0605.jpg	YN	Left	Yes	1.18689480004832	0	779312	253
1523.271484375	0	taste	response	4	192	12	foodImage.58	FOODEEG_Images\0605.jpg	YN	Left	Yes	1.18689480004832	0	779916	234
1524.314453125	1	decision	trialStart	4	193	13	foodImage.115	FOODEEG_Images\0923.jpg	YN	Left	Yes	1.14377550012432	0	780450	251
1525.35546875	2	decision	foodImageDisplay	4	193	13	foodImage.115	FOODEEG_Images\0923.jpg	YN	Left	Yes	1.14377550012432	0	780983	252
1527.416015625	1.14377550012432	decision	choicePhaseStart	4	193	13	foodImage.115	FOODEEG_Images\0923.jpg	YN	Left	Yes	1.14377550012432	0	782038	253
1528.55078125	0	decision	response	4	193	13	foodImage.115	FOODEEG_Images\0923.jpg	YN	Left	Yes	1.14377550012432	0	782619	234
1529.595703125	1	decision	trialStart	4	194	14	foodImage.93	FOODEEG_Images\0901.jpg	NY	Right	Yes	0.737263600109145	0	783154	251
1530.6328125	2	decision	foodImageDisplay	4	194	14	foodImage.93	FOODEEG_Images\0901.jpg	NY	Right	Yes	0.737263600109145	0	783685	252
