onset	duration	trial_type	event_type	block	trial_total	trial_in_block	food_image_code	food_image_path	button_position	resp_position	resp_choice	choice_rt	resp_too_slow	sample	trigger
265.07421875	2	n/a	blockStart	1	n/a	n/a	n/a	n/a	n/a	n/a	n/a	n/a	n/a	135719	250
267.11328125	1	decision	trialStart	1	1	1	foodImage.10	FOODEEG_Images\0145.jpg	NY	Right	Yes	1.21016899999995	0	136763	251
268.181640625	2	decision	foodImageDisplay	1	1	1	foodImage.10	FOODEEG_Images\0145.jpg	NY	Right	Yes	1.21016899999995	0	137310	252
270.244140625	1.21016899999995	decision	choicePhaseStart	1	1	1	foodImage.10	FOODEEG_Images\0145.jpg	NY	Right	Yes	1.21016899999995	0	138366	253
271.451171875	0	decision	response	1	1	1	foodImage.10	FOODEEG_Images\0145.jpg	NY	Right	Yes	1.21016899999995	0	138984	235
272.54296875	1	decision	trialStart	1	2	2	foodImage.14	FOODEEG_Images\0188.jpg	NY	Left	No	1.1053351999999	0	139543	251
273.6015625	2	decision	foodImageDisplay	1	2	2	foodImage.14	FOODEEG_Images\0188.jpg	NY	Left	No	1.1053351999999	0	140085	252
275.666015625	1.1053351999999	decision	choicePhaseStart	1	2	2	foodImage.14	FOODEEG_Images\0188.jpg	NY	Left	No	1.1053351999999	0	141142	253
276.76171875	0	decision	response	1	2	2	foodImage.14	FOODEEG_Images\0188.jpg	NY	Left	No	1.1053351999999	0	141703	234
277.814453125	1	taste	trialStart	1	3	3	foodImage.39	FOODEEG_Images\0367.jpg	YN	Right	No	1.11877769999955	0	142242	251
278.857421875	2	taste	foodImageDisplay	1	3	3	foodImage.39	FOODEEG_Images\0367.jpg	YN	Right	No	1.11877769999955	0	142776	252
280.921875	1.11877769999955	taste	choicePhaseStart	1	3	3	foodImage.39	FOODEEG_Images\0367.jpg	YN	Right	No	1.11877769999955	0	143833	253
282.03515625	0	taste	response	1	3	3	foodImage.39	FOODEEG_Images\0367.jpg	YN	Right	No	1.11877769999955	0	144403	235
283.078125	1	decision	trialStart	1	4	4	foodImage.58	FOODEEG_Images\0605.jpg	YN	Left	Yes	0.816488599999502	0	144937	251
284.13671875	2	decision	foodImageDisplay	1	4	4	foodImage.58	FOODEEG_Images\0605.jpg	YN	Left	Yes	0.816488599999502	0	145479	252
286.201171875	0.816488599999502	decision	choicePhaseStart	1	4	4	foodImage.58	FOODEEG_Images\0605.jpg	YN	Left	Yes	0.816488599999502	0	146536	253
287.009765625	0	decision	response	1	4	4	foodImage.58	FOODEEG_Images\0605.jpg	YN	Left	Yes	0.816488599999502	0	146950	234
288.052734375	1	taste	trialStart	1	5	5	foodImage.6	FOODEEG_Images\0113.jpg	NY	Left	No	1.00978779999969	0	147484	251
289.103515625	2	taste	foodImageDisplay	1	5	5	foodImage.6	FOODEEG_Images\0113.jpg	NY	Left	No	1.00978779999969	0	148022	252
291.16796875	1.00978779999969	taste	choicePhaseStart	1	5	5	foodImage.6	FOODEEG_Images\0113.jpg	NY	Left	No	1.00978779999969	0	149079	253
292.169921875	0	taste	response	1	5	5	foodImage.6	FOODEEG_Images\0113.jpg	NY	Left	No	1.00978779999969	0	149592	234
293.21875	1	health	trialStart	1	6	6	foodImage.89	FOODEEG_Images\0881.jpg	YN	Left	Yes	0.705322100000558	0	150129	251
294.279296875	2	health	foodImageDisplay	1	6	6	foodImage.89	FOODEEG_Images\0881.jpg	YN	Left	Yes	0.705322100000558	0	150672	252
296.34375	0.705322100000558	health	choicePhaseStart	1	6	6	foodImage.89	FOODEEG_Images\0881.jpg	YN	Left	Yes	0.705322100000558	0	151729	253
297.041015625	0	health	response	1	6	6	foodImage.89	FOODEEG_Images\0881.jpg	YN	Left	Yes	0.705322100000558	0	152086	234
298.083984375	1	decision	trialStart	1	7	7	foodImage.104	FOODEEG_Images\0912.jpg	YN	Right	No	0.701053499999944	0	152620	251
299.125	2	decision	foodImageDisplay	1	7	7	foodImage.104	FOODEEG_Images\0912.jpg	YN	Right	No	0.701053499999944	0	153153	252
301.189453125	0.701053499999944	decision	choicePhaseStart	1	7	7	foodImage.104	FOODEEG_Images\0912.jpg	YN	Right	No	0.701053499999944	0	154210	253
301.880859375	0	decision	response	1	7	7	foodImage.104	FOODEEG_Images\0912.jpg	YN	Right	No	0.701053499999944	0	154564	235
302.921875	1	decision	trialStart	1	8	8	foodImage.44	FOODEEG_Images\0459.jpg	YN	Right	No	0.830342600000222	0	155097	251
303.96875	2	decision	foodImageDisplay	1	8	8	foodImage.44	FOODEEG_Images\0459.jpg	YN	Right	No	0.830342600000222	0	155633	252
306.033203125	0.830342600000222	decision	choicePhaseStart	1	8	8	foodImage.44	FOODEEG_Images\0459.jpg	YN	Right	No	0.830342600000222	0	156690	253
306.857421875	0	decision	response	1	8	8	foodImage.44	FOODEEG_Images\0459.jpg	YN	Right	No	0.830342600000222	0	157112	235
307.904296875	1	health	trialStart	1	9	9	foodImage.100	FOODEEG_Images\0908.jpg	YN	Right	No	0.664553799999339	0	157648	251
308.9453125	2	health	foodImageDisplay	1	9	9	foodImage.100	FOODEEG_Images\0908.jpg	YN	Right	No	0.664553799999339	0	158181	252
311.009765625	0.664553799999339	health	choicePhaseStart	1	9	9	foodImage.100	FOODEEG_Images\0908.jpg	YN	Right	No	0.664553799999339	0	159238	253
311.666015625	0	health	response	1	9	9	foodImage.100	FOODEEG_Images\0908.jpg	YN	Right	No	0.664553799999339	0	159574	235
312.708984375	1	health	trialStart	1	10	10	foodImage.86	FOODEEG_Images\0844.jpg	YN	Right	No	0.752331099999537	0	160108	251
313.775390625	2	health	foodImageDisplay	1	10	10	foodImage.86	FOODEEG_Images\0844.jpg	YN	Right	No	0.752331099999537	0	160654	252
315.83984375	0.752331099999537	health	choicePhaseStart	1	10	10	foodImage.86	FOODEEG_Images\0844.jpg	YN	Right	No	0.752331099999537	0	161711	253
316.5859375	0	health	response	1	10	10	foodImage.86	FOODEEG_Images\0844.jpg	YN	Right	No	0.752331099999537	0	162093	235
317.625	1	health	trialStart	1	11	11	foodImage.42	FOODEEG_Images\0438.jpg	NY	Right	Yes	1.00703470000008	0	162625	251
318.71484375	2	health	foodImageDisplay	1	11	11	foodImage.42	FOODEEG_Images\0438.jpg	NY	Right	Yes	1.00703470000008	0	163183	252
320.779296875	1.00703470000008	health	choicePhaseStart	1	11	11	foodImage.42	FOODEEG_Images\0438.jpg	NY	Right	Yes	1.00703470000008	0	164240	253
321.77734375	0	health	response	1	11	11	foodImage.42	FOODEEG_Images\0438.jpg	NY	Right	Yes	1.00703470000008	0	164751	235
322.81640625	1	health	trialStart	1	12	12	foodImage.45	FOODEEG_Images\0478.jpg	YN	Left	Yes	1.73441509999975	0	165283	251
323.865234375	2	health	foodImageDisplay	1	12	12	foodImage.45	FOODEEG_Images\0478.jpg	YN	Left	Yes	1.73441509999975	0	165820	252
325.931640625	1.73441509999975	health	choicePhaseStart	1	12	12	foodImage.45	FOODEEG_Images\0478.jpg	YN	Left	Yes	1.73441509999975	0	166878	253
327.65625	0	health	response	1	12	12	foodImage.45	FOODEEG_Images\0478.jpg	YN	Left	Yes	1.73441509999975	0	167761	234
328.69921875	1	decision	trialStart	1	13	13	foodImage.80	FOODEEG_Images\0796.jpg	YN	Left	Yes	1.01305769999999	0	168295	251
329.755859375	2	decision	foodImageDisplay	1	13	13	foodImage.80	FOODEEG_Images\0796.jpg	YN	Left	Yes	1.01305769999999	0	168836	252
331.8203125	1.01305769999999	decision	choicePhaseStart	1	13	13	foodImage.80	FOODEEG_Images\0796.jpg	YN	Left	Yes	1.01305769999999	0	169893	253
332.82421875	0	decision	response	1	13	13	foodImage.80	FOODEEG_Images\0796.jpg	YN	Left	Yes	1.01305769999999	0	170407	234
333.865234375	1	decision	trialStart	1	14	14	foodImage.11	FOODEEG_Images\0180.jpg	YN	Right	No	1.12311580000005	0	170940	251
334.91015625	2	decision	foodImageDisplay	1	14	14	foodImage.11	FOODEEG_Images\0180.jpg	YN	Right	No	1.12311580000005	0	171475	252
336.974609375	1.12311580000005	decision	choicePhaseStart	1	14	14	foodImage.11	FOODEEG_Images\0180.jpg	YN	Right	No	1.12311580000005	0	172532	253
338.087890625	0	decision	response	1	14	14	foodImage.11	FOODEEG_Images\0180.jpg	YN	Right	No	1.12311580000005	0	173102	235
339.12890625	1	taste	trialStart	1	15	15	foodImage.83	FOODEEG_Images\0827.jpg	YN	Left	Yes	0.852673600000344	0	173635	251
340.189453125	2	taste	foodImageDisplay	1	15	15	foodImage.83	FOODEEG_Images\0827.jpg	YN	Left	Yes	0.852673600000344	0	174178	252
342.251953125	0.852673600000344	taste	choicePhaseStart	1	15	15	foodImage.83	FOODEEG_Images\0827.jpg	YN	Left	Yes	0.852673600000344	0	175234	253
343.095703125	0	taste	response	1	15	15	foodImage.83	FOODEEG_Images\0827.jpg	YN	Left	Yes	0.852673600000344	0	175666	234
344.134765625	1	health	trialStart	1	16	16	foodImage.11	FOODEEG_Images\0180.jpg	NY	Left	No	0.926685100000213	0	176198	251
345.177734375	2	health	foodImageDisplay	1	16	16	foodImage.11	FOODEEG_Images\0180.jpg	NY	Left	No	0.926685100000213	0	176732	252
347.2421875	0.926685100000213	health	choicePhaseStart	1	16	16	foodImage.11	FOODEEG_Images\0180.jpg	NY	Left	No	0.926685100000213	0	177789	253
348.16015625	0	health	response	1	16	16	foodImage.11	FOODEEG_Images\0180.jpg	NY	Left	No	0.926685100000213	0	178259	234
349.205078125	1	taste	trialStart	1	17	17	foodImage.67	FOODEEG_Images\0679.jpg	NY	Right	Yes	1.00055169999996	0	178794	251
350.263671875	2	taste	foodImageDisplay	1	17	17	foodImage.67	FOODEEG_Images\0679.jpg	NY	Right	Yes	1.00055169999996	0	179336	252
352.328125	1.00055169999996	taste	choicePhaseStart	1	17	17	foodImage.67	FOODEEG_Images\0679.jpg	NY	Right	Yes	1.00055169999996	0	180393	253
353.3203125	0	taste	response	1	17	17	foodImage.67	FOODEEG_Images\0679.jpg	NY	Right	Yes	1.00055169999996	0	180901	235
354.359375	1	health	trialStart	1	18	18	foodImage.25	FOODEEG_Images\0261.jpg	YN	Left	Yes	0.758964999999989	0	181433	251
355.40234375	2	health	foodImageDisplay	1	18	18	foodImage.25	FOODEEG_Images\0261.jpg	YN	Left	Yes	0.758964999999989	0	181967	252
357.46484375	0.758964999999989	health	choicePhaseStart	1	18	18	foodImage.25	FOODEEG_Images\0261.jpg	YN	Left	Yes	0.758964999999989	0	183023	253
358.21484375	0	health	response	1	18	18	foodImage.25	FOODEEG_Images\0261.jpg	YN	Left	Yes	0.758964999999989	0	183407	234
359.255859375	1	taste	trialStart	1	19	19	foodImage.1	FOODEEG_Images\0004.jpg	YN	Left	Yes	0.874187200000051	0	183940	251
360.30078125	2	taste	foodImageDisplay	1	19	19	foodImage.1	FOODEEG_Images\0004.jpg	YN	Left	Yes	0.874187200000051	0	184475	252
362.365234375	0.874187200000051	taste	choicePhaseStart	1	19	19	foodImage.1	FOODEEG_Images\0004.jpg	YN	Left	Yes	0.874187200000051	0	185532	253
363.23046875	0	taste	response	1	19	19	foodImage.1	FOODEEG_Images\0004.jpg	YN	Left	Yes	0.874187200000051	0	185975	234
364.271484375	1	health	trialStart	1	20	20	foodImage.55	FOODEEG_Images\0567.jpg	YN	Left	Yes	0.749458900000718	0	186508	251
365.330078125	2	health	foodImageDisplay	1	20	20	foodImage.55	FOODEEG_Images\0567.jpg	YN	Left	Yes	0.749458900000718	0	187050	252
367.39453125	0.749458900000718	health	choicePhaseStart	1	20	20	foodImage.55	FOODEEG_Images\0567.jpg	YN	Left	Yes	0.749458900000718	0	188107	253
368.134765625	0	health	response	1	20	20	foodImage.55	FOODEEG_Images\0567.jpg	YN	Left	Yes	0.749458900000718	0	188486	234
369.177734375	1	decision	trialStart	1	21	21	foodImage.40	FOODEEG_Images\0373.jpg	YN	Left	Yes	0.89976630000001	0	189020	251
370.21875	2	decision	foodImageDisplay	1	21	21	foodImage.40	FOODEEG_Images\0373.jpg	YN	Left	Yes	0.89976630000001	0	189553	252
372.283203125	0.89976630000001	decision	choicePhaseStart	1	21	21	foodImage.40	FOODEEG_Images\0373.jpg	YN	Left	Yes	0.89976630000001	0	190610	253
373.173828125	0	decision	response	1	21	21	foodImage.40	FOODEEG_Images\0373.jpg	YN	Left	Yes	0.89976630000001	0	191066	234
374.23828125	1	health	trialStart	1	22	22	foodImage.49	FOODEEG_Images\0515.jpg	YN	Left	Yes	1.15151689999948	0	191611	251
375.28125	2	health	foodImageDisplay	1	22	22	foodImage.49	FOODEEG_Images\0515.jpg	YN	Left	Yes	1.15151689999948	0	192145	252
377.34375	1.15151689999948	health	choicePhaseStart	1	22	22	foodImage.49	FOODEEG_Images\0515.jpg	YN	Left	Yes	1.15151689999948	0	193201	253
378.486328125	0	health	response	1	22	22	foodImage.49	FOODEEG_Images\0515.jpg	YN	Left	Yes	1.15151689999948	0	193786	234
379.525390625	1	health	trialStart	1	23	23	foodImage.107	FOODEEG_Images\0915.jpg	YN	Left	Yes	0.870867100000396	0	194318	251
380.568359375	2	health	foodImageDisplay	1	23	23	foodImage.107	FOODEEG_Images\0915.jpg	YN	Left	Yes	0.870867100000396	0	194852	252
382.630859375	0.870867100000396	health	choicePhaseStart	1	23	23	foodImage.107	FOODEEG_Images\0915.jpg	YN	Left	Yes	0.870867100000396	0	195908	253
383.494140625	0	health	response	1	23	23	foodImage.107	FOODEEG_Images\0915.jpg	YN	Left	Yes	0.870867100000396	0	196350	234
384.53515625	1	decision	trialStart	1	24	24	foodImage.109	FOODEEG_Images\0917.jpg	YN	Right	No	1.42743560000054	0	196883	251
385.576171875	2	decision	foodImageDisplay	1	24	24	foodImage.109	FOODEEG_Images\0917.jpg	YN	Right	No	1.42743560000054	0	197416	252
387.640625	1.42743560000054	decision	choicePhaseStart	1	24	24	foodImage.109	FOODEEG_Images\0917.jpg	YN	Right	No	1.42743560000054	0	198473	253
389.0625	0	decision	response	1	24	24	foodImage.109	FOODEEG_Images\0917.jpg	YN	Right	No	1.42743560000054	0	199201	235
390.103515625	1	taste	trialStart	1	25	25	foodImage.20	FOODEEG_Images\0226.jpg	YN	Right	No	1.00395540000045	0	199734	251
391.1484375	2	taste	foodImageDisplay	1	25	25	foodImage.20	FOODEEG_Images\0226.jpg	YN	Right	No	1.00395540000045	0	200269	252
393.216796875	1.00395540000045	taste	choicePhaseStart	1	25	25	foodImage.20	FOODEEG_Images\0226.jpg	YN	Right	No	1.00395540000045	0	201328	253
394.212890625	0	taste	response	1	25	25	foodImage.20	FOODEEG_Images\0226.jpg	YN	Right	No	1.00395540000045	0	201838	235
395.25390625	1	taste	trialStart	1	26	26	foodImage.44	FOODEEG_Images\0459.jpg	NY	Left	No	1.35395080000035	0	202371	251
396.30078125	2	taste	foodImageDisplay	1	26	26	foodImage.44	FOODEEG_Images\0459.jpg	NY	Left	No	1.35395080000035	0	202907	252
398.365234375	1.35395080000035	taste	choicePhaseStart	1	26	26	foodImage.44	FOODEEG_Images\0459.jpg	NY	Left	No	1.35395080000035	0	203964	253
399.708984375	0	taste	response	1	26	26	foodImage.44	FOODEEG_Images\0459.jpg	NY	Left	No	1.35395080000035	0	204652	234
400.75	1	health	trialStart	1	27	27	foodImage.46	FOODEEG_Images\0479.jpg	YN	Left	Yes	0.591859200000727	0	205185	251
401.8125	2	health	foodImageDisplay	1	27	27	foodImage.46	FOODEEG_Images\0479.jpg	YN	Left	Yes	0.591859200000727	0	205729	252
403.876953125	0.591859200000727	health	choicePhaseStart	1	27	27	foodImage.46	FOODEEG_Images\0479.jpg	YN	Left	Yes	0.591859200000727	0	206786	253
404.4609375	0	health	response	1	27	27	foodImage.46	FOODEEG_Images\0479.jpg	YN	Left	Yes	0.591859200000727	0	207085	234
405.50390625	1	decision	trialStart	1	28	28	foodImage.105	FOODEEG_Images\0913.jpg	YN	Right	No	0.732962200000657	0	207619	251
406.544921875	2	decision	foodImageDisplay	1	28	28	foodImage.105	FOODEEG_Images\0913.jpg	YN	Right	No	0.732962200000657	0	208152	252
408.609375	0.732962200000657	decision	choicePhaseStart	1	28	28	foodImage.105	FOODEEG_Images\0913.jpg	YN	Right	No	0.732962200000657	0	209209	253
409.333984375	0	decision	response	1	28	28	foodImage.105	FOODEEG_Images\0913.jpg	YN	Right	No	0.732962200000657	0	209580	235
410.375	1	decision	trialStart	1	29	29	foodImage.88	FOODEEG_Images\0878.jpg	NY	Right	Yes	1.16995739999948	0	210113	251
411.435546875	2	decision	foodImageDisplay	1	29	29	foodImage.88	FOODEEG_Images\0878.jpg	NY	Right	Yes	1.16995739999948	0	210656	252
413.5	1.16995739999948	decision	choicePhaseStart	1	29	29	foodImage.88	FOODEEG_Images\0878.jpg	NY	Right	Yes	1.16995739999948	0	211713	253
414.66015625	0	decision	response	1	29	29	foodImage.88	FOODEEG_Images\0878.jpg	NY	Right	Yes	1.16995739999948	0	212307	235
415.701171875	1	health	trialStart	1	30	30	foodImage.23	FOODEEG_Images\0244.jpg	YN	Left	Yes	0.966321299999436	0	212840	251
416.744140625	2	health	foodImageDisplay	1	30	30	foodImage.23	FOODEEG_Images\0244.jpg	YN	Left	Yes	0.966321299999436	0	213374	252
418.806640625	0.966321299999436	health	choicePhaseStart	1	30	30	foodImage.23	FOODEEG_Images\0244.jpg	YN	Left	Yes	0.966321299999436	0	214430	253
419.763671875	0	health	response	1	30	30	foodImage.23	FOODEEG_Images\0244.jpg	YN	Left	Yes	0.966321299999436	0	214920	234
420.802734375	1	decision	trialStart	1	31	31	foodImage.4	FOODEEG_Images\0065.jpg	YN	Right	No	0.815106000000014	0	215452	251
421.86328125	2	decision	foodImageDisplay	1	31	31	foodImage.4	FOODEEG_Images\0065.jpg	YN	Right	No	0.815106000000014	0	215995	252
423.927734375	0.815106000000014	decision	choicePhaseStart	1	31	31	foodImage.4	FOODEEG_Images\0065.jpg	YN	Right	No	0.815106000000014	0	217052	253
424.732421875	0	decision	response	1	31	31	foodImage.4	FOODEEG_Images\0065.jpg	YN	Right	No	0.815106000000014	0	217464	235
425.771484375	1	decision	trialStart	1	32	32	foodImage.31	FOODEEG_Images\0294.jpg	NY	Right	Yes	0.933367699999508	0	217996	251
426.81640625	2	decision	foodImageDisplay	1	32	32	foodImage.31	FOODEEG_Images\0294.jpg	NY	Right	Yes	0.933367699999508	0	218531	252
428.87890625	0.933367699999508	decision	choicePhaseStart	1	32	32	foodImage.31	FOODEEG_Images\0294.jpg	NY	Right	Yes	0.933367699999508	0	219587	253
429.8046875	0	decision	response	1	32	32	foodImage.31	FOODEEG_Images\0294.jpg	NY	Right	Yes	0.933367699999508	0	220061	235
430.84375	1	taste	trialStart	1	33	33	foodImage.79	FOODEEG_Images\0794.jpg	NY	Right	Yes	0.779247800000121	0	220593	251
431.890625	2	taste	foodImageDisplay	1	33	33	foodImage.79	FOODEEG_Images\0794.jpg	NY	Right	Yes	0.779247800000121	0	221129	252
433.953125	0.779247800000121	taste	choicePhaseStart	1	33	33	foodImage.79	FOODEEG_Images\0794.jpg	NY	Right	Yes	0.779247800000121	0	222185	253
434.724609375	0	taste	response	1	33	33	foodImage.79	FOODEEG_Images\0794.jpg	NY	Right	Yes	0.779247800000121	0	222580	235
435.763671875	1	decision	trialStart	1	34	34	foodImage.113	FOODEEG_Images\0921.jpg	NY	Left	No	0.931146699999772	0	223112	251
436.802734375	2	decision	foodImageDisplay	1	34	34	foodImage.113	FOODEEG_Images\0921.jpg	NY	Left	No	0.931146699999772	0	223644	252
438.8671875	0.931146699999772	decision	choicePhaseStart	1	34	34	foodImage.113	FOODEEG_Images\0921.jpg	NY	Left	No	0.931146699999772	0	224701	253
439.787109375	0	decision	response	1	34	34	foodImage.113	FOODEEG_Images\0921.jpg	NY	Left	No	0.931146699999772	0	225172	234
440.828125	1	taste	trialStart	1	35	35	foodImage.61	FOODEEG_Images\0640.jpg	NY	Right	Yes	0.82698210000035	0	225705	251
441.873046875	2	taste	foodImageDisplay	1	35	35	foodImage.61	FOODEEG_Images\0640.jpg	NY	Right	Yes	0.82698210000035	0	226240	252
443.9375	0.82698210000035	taste	choicePhaseStart	1	35	35	foodImage.61	FOODEEG_Images\0640.jpg	NY	Right	Yes	0.82698210000035	0	227297	253
444.755859375	0	taste	response	1	35	35	foodImage.61	FOODEEG_Images\0640.jpg	NY	Right	Yes	0.82698210000035	0	227716	235
445.794921875	1	decision	trialStart	1	36	36	foodImage.48	FOODEEG_Images\0494.jpg	YN	Right	No	0.900374499999998	0	228248	251
446.837890625	2	decision	foodImageDisplay	1	36	36	foodImage.48	FOODEEG_Images\0494.jpg	YN	Right	No	0.900374499999998	0	228782	252
448.90234375	0.900374499999998	decision	choicePhaseStart	1	36	36	foodImage.48	FOODEEG_Images\0494.jpg	YN	Right	No	0.900374499999998	0	229839	253
449.794921875	0	decision	response	1	36	36	foodImage.48	FOODEEG_Images\0494.jpg	YN	Right	No	0.900374499999998	0	230296	235
450.837890625	1	taste	trialStart	1	37	37	foodImage.17	FOODEEG_Images\0199.jpg	YN	Left	Yes	0.746044000000438	0	230830	251
451.8828125	2	taste	foodImageDisplay	1	37	37	foodImage.17	FOODEEG_Images\0199.jpg	YN	Left	Yes	0.746044000000438	0	231365	252
453.9453125	0.746044000000438	taste	choicePhaseStart	1	37	37	foodImage.17	FOODEEG_Images\0199.jpg	YN	Left	Yes	0.746044000000438	0	232421	253
454.68359375	0	taste	response	1	37	37	foodImage.17	FOODEEG_Images\0199.jpg	YN	Left	Yes	0.746044000000438	0	232799	234
455.7265625	1	taste	trialStart	1	38	38	foodImage.57	FOODEEG_Images\0587.jpg	YN	Left	Yes	0.703005200000007	0	233333	251
456.7734375	2	taste	foodImageDisplay	1	38	38	foodImage.57	FOODEEG_Images\0587.jpg	YN	Left	Yes	0.703005200000007	0	233869	252
458.8359375	0.703005200000007	taste	choicePhaseStart	1	38	38	foodImage.57	FOODEEG_Images\0587.jpg	YN	Left	Yes	0.703005200000007	0	234925	253
459.53125	0	taste	response	1	38	38	foodImage.57	FOODEEG_Images\0587.jpg	YN	Left	Yes	0.703005200000007	0	235281	234
460.572265625	1	taste	trialStart	1	39	39	foodImage.103	FOODEEG_Images\0911.jpg	YN	Right	No	0.756811500000367	0	235814	251
461.61328125	2	taste	foodImageDisplay	1	39	39	foodImage.103	FOODEEG_Images\0911.jpg	YN	Right	No	0.756811500000367	0	236347	252
463.677734375	0.756811500000367	taste	choicePhaseStart	1	39	39	foodImage.103	FOODEEG_Images\0911.jpg	YN	Right	No	0.756811500000367	0	237404	253
464.427734375	0	taste	response	1	39	39	foodImage.103	FOODEEG_Images\0911.jpg	YN	Right	No	0.756811500000367	0	237788	235
465.46875	1	taste	trialStart	1	40	40	foodImage.119	FOODEEG_Images\0927.jpg	NY	Left	No	0.888927899999544	0	238321	251
466.51171875	2	taste	foodImageDisplay	1	40	40	foodImage.119	FOODEEG_Images\0927.jpg	NY	Left	No	0.888927899999544	0	238855	252
468.576171875	0.888927899999544	taste	choicePhaseStart	1	40	40	foodImage.119	FOODEEG_Images\0927.jpg	NY	Left	No	0.888927899999544	0	239912	253
469.458984375	0	taste	response	1	40	40	foodImage.119	FOODEEG_Images\0927.jpg	NY	Left	No	0.888927899999544	0	240364	234
470.498046875	1	decision	trialStart	1	41	41	foodImage.103	FOODEEG_Images\0911.jpg	NY	Left	No	0.714332200000172	0	240896	251
471.537109375	2	decision	foodImageDisplay	1	41	41	foodImage.103	FOODEEG_Images\0911.jpg	NY	Left	No	0.714332200000172	0	241428	252
473.6015625	0.714332200000172	decision	choicePhaseStart	1	41	41	foodImage.103	FOODEEG_Images\0911.jpg	NY	Left	No	0.714332200000172	0	242485	253
474.306640625	0	decision	response	1	41	41	foodImage.103	FOODEEG_Images\0911.jpg	NY	Left	No	0.714332200000172	0	242846	234
475.345703125	1	taste	trialStart	1	42	42	foodImage.52	FOODEEG_Images\0539.jpg	NY	Right	Yes	0.654345699999794	0	243378	251
476.40625	2	taste	foodImageDisplay	1	42	42	foodImage.52	FOODEEG_Images\0539.jpg	NY	Right	Yes	0.654345699999794	0	243921	252
478.46875	0.654345699999794	taste	choicePhaseStart	1	42	42	foodImage.52	FOODEEG_Images\0539.jpg	NY	Right	Yes	0.654345699999794	0	244977	253
479.115234375	0	taste	response	1	42	42	foodImage.52	FOODEEG_Images\0539.jpg	NY	Right	Yes	0.654345699999794	0	245308	235
480.15625	1	health	trialStart	1	43	43	foodImage.115	FOODEEG_Images\0923.jpg	YN	Right	No	1.07111590000022	0	245841	251
481.19921875	2	health	foodImageDisplay	1	43	43	foodImage.115	FOODEEG_Images\0923.jpg	YN	Right	No	1.07111590000022	0	246375	252
483.267578125	1.07111590000022	health	choicePhaseStart	1	43	43	foodImage.115	FOODEEG_Images\0923.jpg	YN	Right	No	1.07111590000022	0	247434	253
484.330078125	0	health	response	1	43	43	foodImage.115	FOODEEG_Images\0923.jpg	YN	Right	No	1.07111590000022	0	247978	235
485.37109375	1	taste	trialStart	1	44	44	foodImage.62	FOODEEG_Images\0644.jpg	YN	Right	No	2.20359240000016	0	248511	251
486.43359375	2	taste	foodImageDisplay	1	44	44	foodImage.62	FOODEEG_Images\0644.jpg	YN	Right	No	2.20359240000016	0	249055	252
488.49609375	2.20359240000016	taste	choicePhaseStart	1	44	44	foodImage.62	FOODEEG_Images\0644.jpg	YN	Right	No	2.20359240000016	0	250111	253
490.689453125	0	taste	response	1	44	44	foodImage.62	FOODEEG_Images\0644.jpg	YN	Right	No	2.20359240000016	0	251234	235
491.734375	1	health	trialStart	1	45	45	foodImage.3	FOODEEG_Images\0046.jpg	YN	Right	No	0.721961799999917	0	251769	251
492.77734375	2	health	foodImageDisplay	1	45	45	foodImage.3	FOODEEG_Images\0046.jpg	YN	Right	No	0.721961799999917	0	252303	252
494.841796875	0.721961799999917	health	choicePhaseStart	1	45	45	foodImage.3	FOODEEG_Images\0046.jpg	YN	Right	No	0.721961799999917	0	253360	253
495.552734375	0	health	response	1	45	45	foodImage.3	FOODEEG_Images\0046.jpg	YN	Right	No	0.721961799999917	0	253724	235
496.59765625	1	taste	trialStart	1	46	46	foodImage.66	FOODEEG_Images\0676.jpg	YN	Right	No	0.809333199999855	0	254259	251
497.650390625	2	taste	foodImageDisplay	1	46	46	foodImage.66	FOODEEG_Images\0676.jpg	YN	Right	No	0.809333199999855	0	254798	252
499.71484375	0.809333199999855	taste	choicePhaseStart	1	46	46	foodImage.66	FOODEEG_Images\0676.jpg	YN	Right	No	0.809333199999855	0	255855	253
500.513671875	0	taste	response	1	46	46	foodImage.66	FOODEEG_Images\0676.jpg	YN	Right	No	0.809333199999855	0	256264	235
501.55859375	1	health	trialStart	1	47	47	foodImage.7	FOODEEG_Images\0116.jpg	YN	Right	No	0.71027420000064	0	256799	251
502.6015625	2	health	foodImageDisplay	1	47	47	foodImage.7	FOODEEG_Images\0116.jpg	YN	Right	No	0.71027420000064	0	257333	252
504.666015625	0.71027420000064	health	choicePhaseStart	1	47	47	foodImage.7	FOODEEG_Images\0116.jpg	YN	Right	No	0.71027420000064	0	258390	253
505.369140625	0	health	response	1	47	47	foodImage.7	FOODEEG_Images\0116.jpg	YN	Right	No	0.71027420000064	0	258750	235
506.41796875	1	taste	trialStart	1	48	48	foodImage.37	FOODEEG_Images\0359.jpg	YN	Left	Yes	1.3367745000005	0	259287	251
507.4609375	2	taste	foodImageDisplay	1	48	48	foodImage.37	FOODEEG_Images\0359.jpg	YN	Left	Yes	1.3367745000005	0	259821	252
509.529296875	1.3367745000005	taste	choicePhaseStart	1	48	48	foodImage.37	FOODEEG_Images\0359.jpg	YN	Left	Yes	1.3367745000005	0	260880	253
510.857421875	0	taste	response	1	48	48	foodImage.37	FOODEEG_Images\0359.jpg	YN	Left	Yes	1.3367745000005	0	261560	234
511.896484375	1	taste	trialStart	1	49	49	foodImage.56	FOODEEG_Images\0586.jpg	NY	Right	Yes	0.949728600000526	0	262092	251
512.943359375	2	taste	foodImageDisplay	1	49	49	foodImage.56	FOODEEG_Images\0586.jpg	NY	Right	Yes	0.949728600000526	0	262628	252
515.01171875	0.949728600000526	taste	choicePhaseStart	1	49	49	foodImage.56	FOODEEG_Images\0586.jpg	NY	Right	Yes	0.949728600000526	0	263687	253
515.953125	0	taste	response	1	49	49	foodImage.56	FOODEEG_Images\0586.jpg	NY	Right	Yes	0.949728600000526	0	264169	235
516.994140625	1	taste	trialStart	1	50	50	foodImage.72	FOODEEG_Images\0714.jpg	YN	Left	Yes	1.17768749999959	0	264702	251
518.041015625	2	taste	foodImageDisplay	1	50	50	foodImage.72	FOODEEG_Images\0714.jpg	YN	Left	Yes	1.17768749999959	0	265238	252
520.10546875	1.17768749999959	taste	choicePhaseStart	1	50	50	foodImage.72	FOODEEG_Images\0714.jpg	YN	Left	Yes	1.17768749999959	0	266295	253
521.2734375	0	taste	response	1	50	50	foodImage.72	FOODEEG_Images\0714.jpg	YN	Left	Yes	1.17768749999959	0	266893	234
522.314453125	1	decision	trialStart	1	51	51	foodImage.79	FOODEEG_Images\0794.jpg	YN	Left	Yes	0.816517899999781	0	267426	251
523.359375	2	decision	foodImageDisplay	1	51	51	foodImage.79	FOODEEG_Images\0794.jpg	YN	Left	Yes	0.816517899999781	0	267961	252
525.423828125	0.816517899999781	decision	choicePhaseStart	1	51	51	foodImage.79	FOODEEG_Images\0794.jpg	YN	Left	Yes	0.816517899999781	0	269018	253
526.232421875	0	decision	response	1	51	51	foodImage.79	FOODEEG_Images\0794.jpg	YN	Left	Yes	0.816517899999781	0	269432	234
527.2734375	1	decision	trialStart	1	52	52	foodImage.114	FOODEEG_Images\0922.jpg	NY	Left	No	0.838353999999526	0	269965	251
528.314453125	2	decision	foodImageDisplay	1	52	52	foodImage.114	FOODEEG_Images\0922.jpg	NY	Left	No	0.838353999999526	0	270498	252
530.37890625	0.838353999999526	decision	choicePhaseStart	1	52	52	foodImage.114	FOODEEG_Images\0922.jpg	NY	Left	No	0.838353999999526	0	271555	253
531.208984375	0	decision	response	1	52	52	foodImage.114	FOODEEG_Images\0922.jpg	NY	Left	No	0.838353999999526	0	271980	234
532.25	1	health	trialStart	1	53	53	foodImage.95	FOODEEG_Images\0903.jpg	YN	Right	No	0.845250899999883	0	272513	251
533.29296875	2	health	foodImageDisplay	1	53	53	foodImage.95	FOODEEG_Images\0903.jpg	YN	Right	No	0.845250899999883	0	273047	252
535.357421875	0.845250899999883	health	choicePhaseStart	1	53	53	foodImage.95	FOODEEG_Images\0903.jpg	YN	Right	No	0.845250899999883	0	274104	253
536.19140625	0	health	response	1	53	53	foodImage.95	FOODEEG_Images\0903.jpg	YN	Right	No	0.845250899999883	0	274531	235
537.234375	1	taste	trialStart	1	54	54	foodImage.25	FOODEEG_Images\0261.jpg	YN	Left	Yes	0.773436699999365	0	275065	251
538.275390625	2	taste	foodImageDisplay	1	54	54	foodImage.25	FOODEEG_Images\0261.jpg	YN	Left	Yes	0.773436699999365	0	275598	252
540.33984375	0.773436699999365	taste	choicePhaseStart	1	54	54	foodImage.25	FOODEEG_Images\0261.jpg	YN	Left	Yes	0.773436699999365	0	276655	253
541.103515625	0	taste	response	1	54	54	foodImage.25	FOODEEG_Images\0261.jpg	YN	Left	Yes	0.773436699999365	0	277046	234
542.14453125	1	decision	trialStart	1	55	55	foodImage.59	FOODEEG_Images\0607.jpg	YN	Right	No	0.839193299999351	0	277579	251
543.193359375	2	decision	foodImageDisplay	1	55	55	foodImage.59	FOODEEG_Images\0607.jpg	YN	Right	No	0.839193299999351	0	278116	252
545.2578125	0.839193299999351	decision	choicePhaseStart	1	55	55	foodImage.59	FOODEEG_Images\0607.jpg	YN	Right	No	0.839193299999351	0	279173	253
546.087890625	0	decision	response	1	55	55	foodImage.59	FOODEEG_Images\0607.jpg	YN	Right	No	0.839193299999351	0	279598	235
547.12890625	1	decision	trialStart	1	56	56	foodImage.118	FOODEEG_Images\0926.jpg	NY	Left	No	0.653427999999622	0	280131	251
548.171875	2	decision	foodImageDisplay	1	56	56	foodImage.118	FOODEEG_Images\0926.jpg	NY	Left	No	0.653427999999622	0	280665	252
550.236328125	0.653427999999622	decision	choicePhaseStart	1	56	56	foodImage.118	FOODEEG_Images\0926.jpg	NY	Left	No	0.653427999999622	0	281722	253
550.87890625	0	decision	response	1	56	56	foodImage.118	FOODEEG_Images\0926.jpg	NY	Left	No	0.653427999999622	0	282051	234
551.921875	1	decision	trialStart	1	57	57	foodImage.75	FOODEEG_Images\0763.jpg	NY	Right	Yes	0.867374999999811	0	282585	251
552.96484375	2	decision	foodImageDisplay	1	57	57	foodImage.75	FOODEEG_Images\0763.jpg	NY	Right	Yes	0.867374999999811	0	283119	252
555.029296875	0.867374999999811	decision	choicePhaseStart	1	57	57	foodImage.75	FOODEEG_Images\0763.jpg	NY	Right	Yes	0.867374999999811	0	284176	253
555.88671875	0	decision	response	1	57	57	foodImage.75	FOODEEG_Images\0763.jpg	NY	Right	Yes	0.867374999999811	0	284615	235
556.927734375	1	health	trialStart	1	58	58	foodImage.43	FOODEEG_Images\0445.jpg	YN	Left	Yes	0.890493500000048	0	285148	251
557.990234375	2	health	foodImageDisplay	1	58	58	foodImage.43	FOODEEG_Images\0445.jpg	YN	Left	Yes	0.890493500000048	0	285692	252
560.052734375	0.890493500000048	health	choicePhaseStart	1	58	58	foodImage.43	FOODEEG_Images\0445.jpg	YN	Left	Yes	0.890493500000048	0	286748	253
560.935546875	0	health	response	1	58	58	foodImage.43	FOODEEG_Images\0445.jpg	YN	Left	Yes	0.890493500000048	0	287200	234
561.9765625	1	decision	trialStart	1	59	59	foodImage.74	FOODEEG_Images\0752.jpg	YN	Left	Yes	0.751935100000082	0	287733	251
563.0234375	2	decision	foodImageDisplay	1	59	59	foodImage.74	FOODEEG_Images\0752.jpg	YN	Left	Yes	0.751935100000082	0	288269	252
565.0859375	0.751935100000082	decision	choicePhaseStart	1	59	59	foodImage.74	FOODEEG_Images\0752.jpg	YN	Left	Yes	0.751935100000082	0	289325	253
565.830078125	0	decision	response	1	59	59	foodImage.74	FOODEEG_Images\0752.jpg	YN	Left	Yes	0.751935100000082	0	289706	234
566.87109375	1	decision	trialStart	1	60	60	foodImage.60	FOODEEG_Images\0614.jpg	NY	Left	No	1.32600169999932	0	290239	251
567.9296875	2	decision	foodImageDisplay	1	60	60	foodImage.60	FOODEEG_Images\0614.jpg	NY	Left	No	1.32600169999932	0	290781	252
569.994140625	1.32600169999932	decision	choicePhaseStart	1	60	60	foodImage.60	FOODEEG_Images\0614.jpg	NY	Left	No	1.32600169999932	0	291838	253
571.310546875	0	decision	response	1	60	60	foodImage.60	FOODEEG_Images\0614.jpg	NY	Left	No	1.32600169999932	0	292512	234
573.353515625	7.607421875	n/a	blockEnd	n/a	n/a	n/a	n/a	n/a	n/a	n/a	n/a	n/a	n/a	293558	254
580.9609375	2	n/a	blockStart	2	n/a	n/a	n/a	n/a	n/a	n/a	n/a	n/a	n/a	297453	250
582.994140625	1	health	trialStart	2	61	1	foodImage.58	FOODEEG_Images\0605.jpg	NY	Right	Yes	0.787307500000679	0	298494	251
584.052734375	2	health	foodImageDisplay	2	61	1	foodImage.58	FOODEEG_Images\0605.jpg	NY	Right	Yes	0.787307500000679	0	299036	252
586.115234375	0.787307500000679	health	choicePhaseStart	2	61	1	foodImage.58	FOODEEG_Images\0605.jpg	NY	Right	Yes	0.787307500000679	0	300092	253
586.89453125	0	health	response	2	61	1	foodImage.58	FOODEEG_Images\0605.jpg	NY	Right	Yes	0.787307500000679	0	300491	235
587.935546875	1	decision	trialStart	2	62	2	foodImage.89	FOODEEG_Images\0881.jpg	YN	Left	Yes	0.87540110000009	0	301024	251
588.994140625	2	decision	foodImageDisplay	2	62	2	foodImage.89	FOODEEG_Images\0881.jpg	YN	Left	Yes	0.87540110000009	0	301566	252
591.056640625	0.87540110000009	decision	choicePhaseStart	2	62	2	foodImage.89	FOODEEG_Images\0881.jpg	YN	Left	Yes	0.87540110000009	0	302622	253
591.92578125	0	decision	response	2	62	2	foodImage.89	FOODEEG_Images\0881.jpg	YN	Left	Yes	0.87540110000009	0	303067	234
592.96875	1	taste	trialStart	2	63	3	foodImage.98	FOODEEG_Images\0906.jpg	YN	Right	No	0.676675499999874	0	303601	251
594.009765625	2	taste	foodImageDisplay	2	63	3	foodImage.98	FOODEEG_Images\0906.jpg	YN	Right	No	0.676675499999874	0	304134	252
596.07421875	0.676675499999874	taste	choicePhaseStart	2	63	3	foodImage.98	FOODEEG_Images\0906.jpg	YN	Right	No	0.676675499999874	0	305191	253
596.7421875	0	taste	response	2	63	3	foodImage.98	FOODEEG_Images\0906.jpg	YN	Right	No	0.676675499999874	0	305533	235
597.78125	1	taste	trialStart	2	64	4	foodImage.63	FOODEEG_Images\0645.jpg	YN	Left	Yes	0.758661100000609	0	306065	251
598.826171875	2	taste	foodImageDisplay	2	64	4	foodImage.63	FOODEEG_Images\0645.jpg	YN	Left	Yes	0.758661100000609	0	306600	252
600.888671875	0.758661100000609	taste	choicePhaseStart	2	64	4	foodImage.63	FOODEEG_Images\0645.jpg	YN	Left	Yes	0.758661100000609	0	307656	253
601.63671875	0	taste	response	2	64	4	foodImage.63	FOODEEG_Images\0645.jpg	YN	Left	Yes	0.758661100000609	0	308039	234
602.6796875	1	health	trialStart	2	65	5	foodImage.14	FOODEEG_Images\0188.jpg	YN	Right	No	0.747888400000193	0	308573	251
603.73828125	2	health	foodImageDisplay	2	65	5	foodImage.14	FOODEEG_Images\0188.jpg	YN	Right	No	0.747888400000193	0	309115	252
605.802734375	0.747888400000193	health	choicePhaseStart	2	65	5	foodImage.14	FOODEEG_Images\0188.jpg	YN	Right	No	0.747888400000193	0	310172	253
606.541015625	0	health	response	2	65	5	foodImage.14	FOODEEG_Images\0188.jpg	YN	Right	No	0.747888400000193	0	310550	235
607.583984375	1	health	trialStart	2	66	6	foodImage.61	FOODEEG_Images\0640.jpg	YN	Left	Yes	0.788931899999625	0	311084	251
608.625	2	health	foodImageDisplay	2	66	6	foodImage.61	FOODEEG_Images\0640.jpg	YN	Left	Yes	0.788931899999625	0	311617	252
610.689453125	0.788931899999625	health	choicePhaseStart	2	66	6	foodImage.61	FOODEEG_Images\0640.jpg	YN	Left	Yes	0.788931899999625	0	312674	253
611.46875	0	health	response	2	66	6	foodImage.61	FOODEEG_Images\0640.jpg	YN	Left	Yes	0.788931899999625	0	313073	234
612.51171875	1	taste	trialStart	2	67	7	foodImage.100	FOODEEG_Images\0908.jpg	YN	Right	No	0.831426599999759	0	313607	251
613.55078125	2	taste	foodImageDisplay	2	67	7	foodImage.100	FOODEEG_Images\0908.jpg	YN	Right	No	0.831426599999759	0	314139	252
615.615234375	0.831426599999759	taste	choicePhaseStart	2	67	7	foodImage.100	FOODEEG_Images\0908.jpg	YN	Right	No	0.831426599999759	0	315196	253
616.4375	0	taste	response	2	67	7	foodImage.100	FOODEEG_Images\0908.jpg	YN	Right	No	0.831426599999759	0	315617	235
617.478515625	1	health	trialStart	2	68	8	foodImage.82	FOODEEG_Images\0805.jpg	YN	Left	Yes	1.10675110000011	0	316150	251
618.552734375	2	health	foodImageDisplay	2	68	8	foodImage.82	FOODEEG_Images\0805.jpg	YN	Left	Yes	1.10675110000011	0	316700	252
620.6171875	1.10675110000011	health	choicePhaseStart	2	68	8	foodImage.82	FOODEEG_Images\0805.jpg	YN	Left	Yes	1.10675110000011	0	317757	253
621.716796875	0	health	response	2	68	8	foodImage.82	FOODEEG_Images\0805.jpg	YN	Left	Yes	1.10675110000011	0	318320	234
622.759765625	1	decision	trialStart	2	69	9	foodImage.1	FOODEEG_Images\0004.jpg	YN	Left	Yes	1.67071880000003	0	318854	251
623.80078125	2	decision	foodImageDisplay	2	69	9	foodImage.1	FOODEEG_Images\0004.jpg	YN	Left	Yes	1.67071880000003	0	319387	252
625.86328125	1.67071880000003	decision	choicePhaseStart	2	69	9	foodImage.1	FOODEEG_Images\0004.jpg	YN	Left	Yes	1.67071880000003	0	320443	253
627.5234375	0	decision	response	2	69	9	foodImage.1	FOODEEG_Images\0004.jpg	YN	Left	Yes	1.67071880000003	0	321293	234
628.56640625	1	decision	trialStart	2	70	10	foodImage.7	FOODEEG_Images\0116.jpg	YN	Left	Yes	0.70374240000001	0	321827	251
629.607421875	2	decision	foodImageDisplay	2	70	10	foodImage.7	FOODEEG_Images\0116.jpg	YN	Left	Yes	0.70374240000001	0	322360	252
631.669921875	0.70374240000001	decision	choicePhaseStart	2	70	10	foodImage.7	FOODEEG_Images\0116.jpg	YN	Left	Yes	0.70374240000001	0	323416	253
632.365234375	0	decision	response	2	70	10	foodImage.7	FOODEEG_Images\0116.jpg	YN	Left	Yes	0.70374240000001	0	323772	234
633.40625	1	decision	trialStart	2	71	11	foodImage.37	FOODEEG_Images\0359.jpg	YN	Left	Yes	0.981019700000616	0	324305	251
634.447265625	2	decision	foodImageDisplay	2	71	11	foodImage.37	FOODEEG_Images\0359.jpg	YN	Left	Yes	0.981019700000616	0	324838	252
636.51171875	0.981019700000616	decision	choicePhaseStart	2	71	11	foodImage.37	FOODEEG_Images\0359.jpg	YN	Left	Yes	0.981019700000616	0	325895	253
637.484375	0	decision	response	2	71	11	foodImage.37	FOODEEG_Images\0359.jpg	YN	Left	Yes	0.981019700000616	0	326393	234
638.525390625	1	health	trialStart	2	72	12	foodImage.75	FOODEEG_Images\0763.jpg	YN	Left	Yes	0.703450200000589	0	326926	251
639.5703125	2	health	foodImageDisplay	2	72	12	foodImage.75	FOODEEG_Images\0763.jpg	YN	Left	Yes	0.703450200000589	0	327461	252
641.634765625	0.703450200000589	health	choicePhaseStart	2	72	12	foodImage.75	FOODEEG_Images\0763.jpg	YN	Left	Yes	0.703450200000589	0	328518	253
642.33203125	0	health	response	2	72	12	foodImage.75	FOODEEG_Images\0763.jpg	YN	Left	Yes	0.703450200000589	0	328875	234
643.373046875	1	health	trialStart	2	73	13	foodImage.13	FOODEEG_Images\0183.jpg	YN	Left	Yes	0.749014800000623	0	329408	251
644.416015625	2	health	foodImageDisplay	2	73	13	foodImage.13	FOODEEG_Images\0183.jpg	YN	Left	Yes	0.749014800000623	0	329942	252
646.478515625	0.749014800000623	health	choicePhaseStart	2	73	13	foodImage.13	FOODEEG_Images\0183.jpg	YN	Left	Yes	0.749014800000623	0	330998	253
647.21875	0	health	response	2	73	13	foodImage.13	FOODEEG_Images\0183.jpg	YN	Left	Yes	0.749014800000623	0	331377	234
648.26171875	1	decision	trialStart	2	74	14	foodImage.66	FOODEEG_Images\0676.jpg	NY	Left	No	0.869066999999632	0	331911	251
649.302734375	2	decision	foodImageDisplay	2	74	14	foodImage.66	FOODEEG_Images\0676.jpg	NY	Left	No	0.869066999999632	0	332444	252
651.3671875	0.869066999999632	decision	choicePhaseStart	2	74	14	foodImage.66	FOODEEG_Images\0676.jpg	NY	Left	No	0.869066999999632	0	333501	253
652.2265625	0	decision	response	2	74	14	foodImage.66	FOODEEG_Images\0676.jpg	NY	Left	No	0.869066999999632	0	333941	234
653.26953125	1	health	trialStart	2	75	15	foodImage.91	FOODEEG_Images\0896.jpg	NY	Right	Yes	0.809203900000284	0	334475	251
654.33203125	2	health	foodImageDisplay	2	75	15	foodImage.91	FOODEEG_Images\0896.jpg	NY	Right	Yes	0.809203900000284	0	335019	252
656.39453125	0.809203900000284	health	choicePhaseStart	2	75	15	foodImage.91	FOODEEG_Images\0896.jpg	NY	Right	Yes	0.809203900000284	0	336075	253
657.1953125	0	health	response	2	75	15	foodImage.91	FOODEEG_Images\0896.jpg	NY	Right	Yes	0.809203900000284	0	336485	235
658.240234375	1	taste	trialStart	2	76	16	foodImage.29	FOODEEG_Images\0278.jpg	NY	Left	No	1.06510150000031	0	337020	251
659.283203125	2	taste	foodImageDisplay	2	76	16	foodImage.29	FOODEEG_Images\0278.jpg	NY	Left	No	1.06510150000031	0	337554	252
661.34765625	1.06510150000031	taste	choicePhaseStart	2	76	16	foodImage.29	FOODEEG_Images\0278.jpg	NY	Left	No	1.06510150000031	0	338611	253
662.40234375	0	taste	response	2	76	16	foodImage.29	FOODEEG_Images\0278.jpg	NY	Left	No	1.06510150000031	0	339151	234
663.4453125	1	health	trialStart	2	77	17	foodImage.47	FOODEEG_Images\0488.jpg	YN	Right	No	0.897279799999524	0	339685	251
664.490234375	2	health	foodImageDisplay	2	77	17	foodImage.47	FOODEEG_Images\0488.jpg	YN	Right	No	0.897279799999524	0	340220	252
666.5546875	0.897279799999524	health	choicePhaseStart	2	77	17	foodImage.47	FOODEEG_Images\0488.jpg	YN	Right	No	0.897279799999524	0	341277	253
667.443359375	0	health	response	2	77	17	foodImage.47	FOODEEG_Images\0488.jpg	YN	Right	No	0.897279799999524	0	341732	235
668.482421875	1	taste	trialStart	2	78	18	foodImage.58	FOODEEG_Images\0605.jpg	NY	Right	Yes	0.916475300000457	0	342264	251
669.54296875	2	taste	foodImageDisplay	2	78	18	foodImage.58	FOODEEG_Images\0605.jpg	NY	Right	Yes	0.916475300000457	0	342807	252
671.607421875	0.916475300000457	taste	choicePhaseStart	2	78	18	foodImage.58	FOODEEG_Images\0605.jpg	NY	Right	Yes	0.916475300000457	0	343864	253
672.513671875	0	taste	response	2	78	18	foodImage.58	FOODEEG_Images\0605.jpg	NY	Right	Yes	0.916475300000457	0	344328	235
673.5546875	1	decision	trialStart	2	79	19	foodImage.99	FOODEEG_Images\0907.jpg	NY	Left	No	0.710107200000493	0	344861	251
674.59765625	2	decision	foodImageDisplay	2	79	19	foodImage.99	FOODEEG_Images\0907.jpg	NY	Left	No	0.710107200000493	0	345395	252
676.662109375	0.710107200000493	decision	choicePhaseStart	2	79	19	foodImage.99	FOODEEG_Images\0907.jpg	NY	Left	No	0.710107200000493	0	346452	253
677.36328125	0	decision	response	2	79	19	foodImage.99	FOODEEG_Images\0907.jpg	NY	Left	No	0.710107200000493	0	346811	234
678.40234375	1	taste	trialStart	2	80	20	foodImage.71	FOODEEG_Images\0713.jpg	YN	Right	No	0.884261299999707	0	347343	251
679.447265625	2	taste	foodImageDisplay	2	80	20	foodImage.71	FOODEEG_Images\0713.jpg	YN	Right	No	0.884261299999707	0	347878	252
681.51171875	0.884261299999707	taste	choicePhaseStart	2	80	20	foodImage.71	FOODEEG_Images\0713.jpg	YN	Right	No	0.884261299999707	0	348935	253
682.38671875	0	taste	response	2	80	20	foodImage.71	FOODEEG_Images\0713.jpg	YN	Right	No	0.884261299999707	0	349383	235
683.427734375	1	health	trialStart	2	81	21	foodImage.19	FOODEEG_Images\0225.jpg	NY	Right	Yes	0.887674499999775	0	349916	251
684.474609375	2	health	foodImageDisplay	2	81	21	foodImage.19	FOODEEG_Images\0225.jpg	NY	Right	Yes	0.887674499999775	0	350452	252
686.537109375	0.887674499999775	health	choicePhaseStart	2	81	21	foodImage.19	FOODEEG_Images\0225.jpg	NY	Right	Yes	0.887674499999775	0	351508	253
687.41796875	0	health	response	2	81	21	foodImage.19	FOODEEG_Images\0225.jpg	NY	Right	Yes	0.887674499999775	0	351959	235
688.4609375	1	decision	trialStart	2	82	22	foodImage.18	FOODEEG_Images\0202.jpg	NY	Right	Yes	0.782432499999231	0	352493	251
689.5234375	2	decision	foodImageDisplay	2	82	22	foodImage.18	FOODEEG_Images\0202.jpg	NY	Right	Yes	0.782432499999231	0	353037	252
691.587890625	0.782432499999231	decision	choicePhaseStart	2	82	22	foodImage.18	FOODEEG_Images\0202.jpg	NY	Right	Yes	0.782432499999231	0	354094	253
692.361328125	0	decision	response	2	82	22	foodImage.18	FOODEEG_Images\0202.jpg	NY	Right	Yes	0.782432499999231	0	354490	235
693.404296875	1	taste	trialStart	2	83	23	foodImage.55	FOODEEG_Images\0567.jpg	NY	Right	Yes	0.76132570000027	0	355024	251
694.462890625	2	taste	foodImageDisplay	2	83	23	foodImage.55	FOODEEG_Images\0567.jpg	NY	Right	Yes	0.76132570000027	0	355566	252
696.525390625	0.76132570000027	taste	choicePhaseStart	2	83	23	foodImage.55	FOODEEG_Images\0567.jpg	NY	Right	Yes	0.76132570000027	0	356622	253
697.28125	0	taste	response	2	83	23	foodImage.55	FOODEEG_Images\0567.jpg	NY	Right	Yes	0.76132570000027	0	357009	235
698.322265625	1	taste	trialStart	2	84	24	foodImage.24	FOODEEG_Images\0250.jpg	YN	Left	Yes	1.22809099999995	0	357542	251
699.3671875	2	taste	foodImageDisplay	2	84	24	foodImage.24	FOODEEG_Images\0250.jpg	YN	Left	Yes	1.22809099999995	0	358077	252
701.4375	1.22809099999995	taste	choicePhaseStart	2	84	24	foodImage.24	FOODEEG_Images\0250.jpg	YN	Left	Yes	1.22809099999995	0	359137	253
702.658203125	0	taste	response	2	84	24	foodImage.24	FOODEEG_Images\0250.jpg	YN	Left	Yes	1.22809099999995	0	359762	234
703.701171875	1	health	trialStart	2	85	25	foodImage.8	FOODEEG_Images\0136.jpg	YN	Right	No	0.943180000000211	0	360296	251
704.74609375	2	health	foodImageDisplay	2	85	25	foodImage.8	FOODEEG_Images\0136.jpg	YN	Right	No	0.943180000000211	0	360831	252
706.810546875	0.943180000000211	health	choicePhaseStart	2	85	25	foodImage.8	FOODEEG_Images\0136.jpg	YN	Right	No	0.943180000000211	0	361888	253
707.744140625	0	health	response	2	85	25	foodImage.8	FOODEEG_Images\0136.jpg	YN	Right	No	0.943180000000211	0	362366	235
708.791015625	1	decision	trialStart	2	86	26	foodImage.61	FOODEEG_Images\0640.jpg	NY	Left	No	1.0400295999998	0	362902	251
709.833984375	2	decision	foodImageDisplay	2	86	26	foodImage.61	FOODEEG_Images\0640.jpg	NY	Left	No	1.0400295999998	0	363436	252
711.8984375	1.0400295999998	decision	choicePhaseStart	2	86	26	foodImage.61	FOODEEG_Images\0640.jpg	NY	Left	No	1.0400295999998	0	364493	253
712.9296875	0	decision	response	2	86	26	foodImage.61	FOODEEG_Images\0640.jpg	NY	Left	No	1.0400295999998	0	365021	234
713.970703125	1	taste	trialStart	2	87	27	foodImage.54	FOODEEG_Images\0560.jpg	YN	Left	Yes	0.919823100000031	0	365554	251
715.02734375	2	taste	foodImageDisplay	2	87	27	foodImage.54	FOODEEG_Images\0560.jpg	YN	Left	Yes	0.919823100000031	0	366095	252
717.08984375	0.919823100000031	taste	choicePhaseStart	2	87	27	foodImage.54	FOODEEG_Images\0560.jpg	YN	Left	Yes	0.919823100000031	0	367151	253
718	0	taste	response	2	87	27	foodImage.54	FOODEEG_Images\0560.jpg	YN	Left	Yes	0.919823100000031	0	367617	234
719.04296875	1	decision	trialStart	2	88	28	foodImage.93	FOODEEG_Images\0901.jpg	NY	Left	No	0.780219000000216	0	368151	251
720.0859375	2	decision	foodImageDisplay	2	88	28	foodImage.93	FOODEEG_Images\0901.jpg	NY	Left	No	0.780219000000216	0	368685	252
722.1484375	0.780219000000216	decision	choicePhaseStart	2	88	28	foodImage.93	FOODEEG_Images\0901.jpg	NY	Left	No	0.780219000000216	0	369741	253
722.919921875	0	decision	response	2	88	28	foodImage.93	FOODEEG_Images\0901.jpg	NY	Left	No	0.780219000000216	0	370136	234
723.962890625	1	taste	trialStart	2	89	29	foodImage.15	FOODEEG_Images\0189.jpg	NY	Right	Yes	0.879467199999453	0	370670	251
725.0234375	2	taste	foodImageDisplay	2	89	29	foodImage.15	FOODEEG_Images\0189.jpg	NY	Right	Yes	0.879467199999453	0	371213	252
727.087890625	0.879467199999453	taste	choicePhaseStart	2	89	29	foodImage.15	FOODEEG_Images\0189.jpg	NY	Right	Yes	0.879467199999453	0	372270	253
727.9609375	0	taste	response	2	89	29	foodImage.15	FOODEEG_Images\0189.jpg	NY	Right	Yes	0.879467199999453	0	372717	235
729.00390625	1	health	trialStart	2	90	30	foodImage.111	FOODEEG_Images\0919.jpg	NY	Left	No	0.674402200000259	0	373251	251
730.04296875	2	health	foodImageDisplay	2	90	30	foodImage.111	FOODEEG_Images\0919.jpg	NY	Left	No	0.674402200000259	0	373783	252
732.107421875	0.674402200000259	health	choicePhaseStart	2	90	30	foodImage.111	FOODEEG_Images\0919.jpg	NY	Left	No	0.674402200000259	0	374840	253
732.775390625	0	health	response	2	90	30	foodImage.111	FOODEEG_Images\0919.jpg	NY	Left	No	0.674402200000259	0	375182	234
733.818359375	1	health	trialStart	2	91	31	foodImage.83	FOODEEG_Images\0827.jpg	YN	Left	Yes	0.666156199999932	0	375716	251
734.90234375	2	health	foodImageDisplay	2	91	31	foodImage.83	FOODEEG_Images\0827.jpg	YN	Left	Yes	0.666156199999932	0	376271	252
736.966796875	0.666156199999932	health	choicePhaseStart	2	91	31	foodImage.83	FOODEEG_Images\0827.jpg	YN	Left	Yes	0.666156199999932	0	377328	253
737.625	0	health	response	2	91	31	foodImage.83	FOODEEG_Images\0827.jpg	YN	Left	Yes	0.666156199999932	0	377665	234
738.666015625	1	decision	trialStart	2	92	32	foodImage.20	FOODEEG_Images\0226.jpg	NY	Left	No	0.913306200000079	0	378198	251
739.70703125	2	decision	foodImageDisplay	2	92	32	foodImage.20	FOODEEG_Images\0226.jpg	NY	Left	No	0.913306200000079	0	378731	252
741.775390625	0.913306200000079	decision	choicePhaseStart	2	92	32	foodImage.20	FOODEEG_Images\0226.jpg	NY	Left	No	0.913306200000079	0	379790	253
742.6796875	0	decision	response	2	92	32	foodImage.20	FOODEEG_Images\0226.jpg	NY	Left	No	0.913306200000079	0	380253	234
743.720703125	1	decision	trialStart	2	93	33	foodImage.106	FOODEEG_Images\0914.jpg	YN	Right	No	0.966677700000218	0	380786	251
744.763671875	2	decision	foodImageDisplay	2	93	33	foodImage.106	FOODEEG_Images\0914.jpg	YN	Right	No	0.966677700000218	0	381320	252
746.826171875	0.966677700000218	decision	choicePhaseStart	2	93	33	foodImage.106	FOODEEG_Images\0914.jpg	YN	Right	No	0.966677700000218	0	382376	253
747.783203125	0	decision	response	2	93	33	foodImage.106	FOODEEG_Images\0914.jpg	YN	Right	No	0.966677700000218	0	382866	235
748.826171875	1	taste	trialStart	2	94	34	foodImage.91	FOODEEG_Images\0896.jpg	NY	Right	Yes	1.04144790000009	0	383400	251
749.884765625	2	taste	foodImageDisplay	2	94	34	foodImage.91	FOODEEG_Images\0896.jpg	NY	Right	Yes	1.04144790000009	0	383942	252
751.94921875	1.04144790000009	taste	choicePhaseStart	2	94	34	foodImage.91	FOODEEG_Images\0896.jpg	NY	Right	Yes	1.04144790000009	0	384999	253
752.984375	0	taste	response	2	94	34	foodImage.91	FOODEEG_Images\0896.jpg	NY	Right	Yes	1.04144790000009	0	385529	235
754.02734375	1	decision	trialStart	2	95	35	foodImage.112	FOODEEG_Images\0920.jpg	YN	Right	No	0.748784800000067	0	386063	251
755.06640625	2	decision	foodImageDisplay	2	95	35	foodImage.112	FOODEEG_Images\0920.jpg	YN	Right	No	0.748784800000067	0	386595	252
757.130859375	0.748784800000067	decision	choicePhaseStart	2	95	35	foodImage.112	FOODEEG_Images\0920.jpg	YN	Right	No	0.748784800000067	0	387652	253
757.87109375	0	decision	response	2	95	35	foodImage.112	FOODEEG_Images\0920.jpg	YN	Right	No	0.748784800000067	0	388031	235
758.9140625	1	taste	trialStart	2	96	36	foodImage.116	FOODEEG_Images\0924.jpg	YN	Right	No	0.727667099999962	0	388565	251
759.953125	2	taste	foodImageDisplay	2	96	36	foodImage.116	FOODEEG_Images\0924.jpg	YN	Right	No	0.727667099999962	0	389097	252
762.021484375	0.727667099999962	taste	choicePhaseStart	2	96	36	foodImage.116	FOODEEG_Images\0924.jpg	YN	Right	No	0.727667099999962	0	390156	253
762.7421875	0	taste	response	2	96	36	foodImage.116	FOODEEG_Images\0924.jpg	YN	Right	No	0.727667099999962	0	390525	235
763.787109375	1	decision	trialStart	2	97	37	foodImage.86	FOODEEG_Images\0844.jpg	YN	Left	Yes	0.928463100000045	0	391060	251
764.845703125	2	decision	foodImageDisplay	2	97	37	foodImage.86	FOODEEG_Images\0844.jpg	YN	Left	Yes	0.928463100000045	0	391602	252
766.91015625	0.928463100000045	decision	choicePhaseStart	2	97	37	foodImage.86	FOODEEG_Images\0844.jpg	YN	Left	Yes	0.928463100000045	0	392659	253
767.830078125	0	decision	response	2	97	37	foodImage.86	FOODEEG_Images\0844.jpg	YN	Left	Yes	0.928463100000045	0	393130	234
768.87109375	1	taste	trialStart	2	98	38	foodImage.80	FOODEEG_Images\0796.jpg	NY	Right	Yes	0.782804399999804	0	393663	251
769.9296875	2	taste	foodImageDisplay	2	98	38	foodImage.80	FOODEEG_Images\0796.jpg	NY	Right	Yes	0.782804399999804	0	394205	252
771.9921875	0.782804399999804	taste	choicePhaseStart	2	98	38	foodImage.80	FOODEEG_Images\0796.jpg	NY	Right	Yes	0.782804399999804	0	395261	253
772.765625	0	taste	response	2	98	38	foodImage.80	FOODEEG_Images\0796.jpg	NY	Right	Yes	0.782804399999804	0	395657	235
773.806640625	1	taste	trialStart	2	99	39	foodImage.45	FOODEEG_Images\0478.jpg	NY	Right	Yes	0.72462379999979	0	396190	251
774.8515625	2	taste	foodImageDisplay	2	99	39	foodImage.45	FOODEEG_Images\0478.jpg	NY	Right	Yes	0.72462379999979	0	396725	252
776.9140625	0.72462379999979	taste	choicePhaseStart	2	99	39	foodImage.45	FOODEEG_Images\0478.jpg	NY	Right	Yes	0.72462379999979	0	397781	253
777.630859375	0	taste	response	2	99	39	foodImage.45	FOODEEG_Images\0478.jpg	NY	Right	Yes	0.72462379999979	0	398148	235
778.67578125	1	health	trialStart	2	100	40	foodImage.1	FOODEEG_Images\0004.jpg	NY	Left	No	0.74457319999965	0	398683	251
779.716796875	2	health	foodImageDisplay	2	100	40	foodImage.1	FOODEEG_Images\0004.jpg	NY	Left	No	0.74457319999965	0	399216	252
781.78125	0.74457319999965	health	choicePhaseStart	2	100	40	foodImage.1	FOODEEG_Images\0004.jpg	NY	Left	No	0.74457319999965	0	400273	253
782.517578125	0	health	response	2	100	40	foodImage.1	FOODEEG_Images\0004.jpg	NY	Left	No	0.74457319999965	0	400650	234
783.55859375	1	health	trialStart	2	101	41	foodImage.4	FOODEEG_Images\0065.jpg	NY	Left	No	0.783042199999727	0	401183	251
784.6171875	2	health	foodImageDisplay	2	101	41	foodImage.4	FOODEEG_Images\0065.jpg	NY	Left	No	0.783042199999727	0	401725	252
786.6796875	0.783042199999727	health	choicePhaseStart	2	101	41	foodImage.4	FOODEEG_Images\0065.jpg	NY	Left	No	0.783042199999727	0	402781	253
787.453125	0	health	response	2	101	41	foodImage.4	FOODEEG_Images\0065.jpg	NY	Left	No	0.783042199999727	0	403177	234
788.494140625	1	health	trialStart	2	102	42	foodImage.10	FOODEEG_Images\0145.jpg	NY	Right	Yes	0.623776999999791	0	403710	251
789.548828125	2	health	foodImageDisplay	2	102	42	foodImage.10	FOODEEG_Images\0145.jpg	NY	Right	Yes	0.623776999999791	0	404250	252
791.615234375	0.623776999999791	health	choicePhaseStart	2	102	42	foodImage.10	FOODEEG_Images\0145.jpg	NY	Right	Yes	0.623776999999791	0	405308	253
792.23046875	0	health	response	2	102	42	foodImage.10	FOODEEG_Images\0145.jpg	NY	Right	Yes	0.623776999999791	0	405623	235
793.275390625	1	taste	trialStart	2	103	43	foodImage.90	FOODEEG_Images\0890.jpg	YN	Left	Yes	0.968063299999812	0	406158	251
794.3359375	2	taste	foodImageDisplay	2	103	43	foodImage.90	FOODEEG_Images\0890.jpg	YN	Left	Yes	0.968063299999812	0	406701	252
796.3984375	0.968063299999812	taste	choicePhaseStart	2	103	43	foodImage.90	FOODEEG_Images\0890.jpg	YN	Left	Yes	0.968063299999812	0	407757	253
797.357421875	0	taste	response	2	103	43	foodImage.90	FOODEEG_Images\0890.jpg	YN	Left	Yes	0.968063299999812	0	408248	234
798.400390625	1	health	trialStart	2	104	44	foodImage.40	FOODEEG_Images\0373.jpg	NY	Left	No	0.689321899999413	0	408782	251
799.44140625	2	health	foodImageDisplay	2	104	44	foodImage.40	FOODEEG_Images\0373.jpg	NY	Left	No	0.689321899999413	0	409315	252
801.505859375	0.689321899999413	health	choicePhaseStart	2	104	44	foodImage.40	FOODEEG_Images\0373.jpg	NY	Left	No	0.689321899999413	0	410372	253
802.189453125	0	health	response	2	104	44	foodImage.40	FOODEEG_Images\0373.jpg	NY	Left	No	0.689321899999413	0	410722	234
803.23046875	1	taste	trialStart	2	105	45	foodImage.94	FOODEEG_Images\0902.jpg	NY	Left	No	0.744103099999847	0	411255	251
804.271484375	2	taste	foodImageDisplay	2	105	45	foodImage.94	FOODEEG_Images\0902.jpg	NY	Left	No	0.744103099999847	0	411788	252
806.3359375	0.744103099999847	taste	choicePhaseStart	2	105	45	foodImage.94	FOODEEG_Images\0902.jpg	NY	Left	No	0.744103099999847	0	412845	253
807.068359375	0	taste	response	2	105	45	foodImage.94	FOODEEG_Images\0902.jpg	NY	Left	No	0.744103099999847	0	413220	234
808.111328125	1	decision	trialStart	2	106	46	foodImage.8	FOODEEG_Images\0136.jpg	YN	Right	No	0.859281400000327	0	413754	251
809.154296875	2	decision	foodImageDisplay	2	106	46	foodImage.8	FOODEEG_Images\0136.jpg	YN	Right	No	0.859281400000327	0	414288	252
811.21875	0.859281400000327	decision	choicePhaseStart	2	106	46	foodImage.8	FOODEEG_Images\0136.jpg	YN	Right	No	0.859281400000327	0	415345	253
812.068359375	0	decision	response	2	106	46	foodImage.8	FOODEEG_Images\0136.jpg	YN	Right	No	0.859281400000327	0	415780	235
813.109375	1	decision	trialStart	2	107	47	foodImage.6	FOODEEG_Images\0113.jpg	YN	Right	No	0.854810699999689	0	416313	251
814.150390625	2	decision	foodImageDisplay	2	107	47	foodImage.6	FOODEEG_Images\0113.jpg	YN	Right	No	0.854810699999689	0	416846	252
816.21484375	0.854810699999689	decision	choicePhaseStart	2	107	47	foodImage.6	FOODEEG_Images\0113.jpg	YN	Right	No	0.854810699999689	0	417903	253
817.060546875	0	decision	response	2	107	47	foodImage.6	FOODEEG_Images\0113.jpg	YN	Right	No	0.854810699999689	0	418336	235
818.10546875	1	decision	trialStart	2	108	48	foodImage.100	FOODEEG_Images\0908.jpg	YN	Right	No	0.725140600000486	0	418871	251
819.14453125	2	decision	foodImageDisplay	2	108	48	foodImage.100	FOODEEG_Images\0908.jpg	YN	Right	No	0.725140600000486	0	419403	252
821.208984375	0.725140600000486	decision	choicePhaseStart	2	108	48	foodImage.100	FOODEEG_Images\0908.jpg	YN	Right	No	0.725140600000486	0	420460	253
821.923828125	0	decision	response	2	108	48	foodImage.100	FOODEEG_Images\0908.jpg	YN	Right	No	0.725140600000486	0	420826	235
822.966796875	1	health	trialStart	2	109	49	foodImage.57	FOODEEG_Images\0587.jpg	NY	Left	No	1.34689339999932	0	421360	251
824.01171875	2	health	foodImageDisplay	2	109	49	foodImage.57	FOODEEG_Images\0587.jpg	NY	Left	No	1.34689339999932	0	421895	252
826.076171875	1.34689339999932	health	choicePhaseStart	2	109	49	foodImage.57	FOODEEG_Images\0587.jpg	NY	Left	No	1.34689339999932	0	422952	253
827.412109375	0	health	response	2	109	49	foodImage.57	FOODEEG_Images\0587.jpg	NY	Left	No	1.34689339999932	0	423636	234
828.45703125	1	health	trialStart	2	110	50	foodImage.36	FOODEEG_Images\0352.jpg	NY	Left	No	0.813273599999775	0	424171	251
829.51953125	2	health	foodImageDisplay	2	110	50	foodImage.36	FOODEEG_Images\0352.jpg	NY	Left	No	0.813273599999775	0	424715	252
831.583984375	0.813273599999775	health	choicePhaseStart	2	110	50	foodImage.36	FOODEEG_Images\0352.jpg	NY	Left	No	0.813273599999775	0	425772	253
832.388671875	0	health	response	2	110	50	foodImage.36	FOODEEG_Images\0352.jpg	NY	Left	No	0.813273599999775	0	426184	234
833.431640625	1	health	trialStart	2	111	51	foodImage.60	FOODEEG_Images\0614.jpg	NY	Left	No	1.1223643000003	0	426718	251
834.490234375	2	health	foodImageDisplay	2	111	51	foodImage.60	FOODEEG_Images\0614.jpg	NY	Left	No	1.1223643000003	0	427260	252
836.5546875	1.1223643000003	health	choicePhaseStart	2	111	51	foodImage.60	FOODEEG_Images\0614.jpg	NY	Left	No	1.1223643000003	0	428317	253
837.66796875	0	health	response	2	111	51	foodImage.60	FOODEEG_Images\0614.jpg	NY	Left	No	1.1223643000003	0	428887	234
838.708984375	1	taste	trialStart	2	112	52	foodImage.2	FOODEEG_Images\0028.jpg	NY	Right	Yes	0.848742199999833	0	429420	251
839.755859375	2	taste	foodImageDisplay	2	112	52	foodImage.2	FOODEEG_Images\0028.jpg	NY	Right	Yes	0.848742199999833	0	429956	252
841.8203125	0.848742199999833	taste	choicePhaseStart	2	112	52	foodImage.2	FOODEEG_Images\0028.jpg	NY	Right	Yes	0.848742199999833	0	431013	253
842.66015625	0	taste	response	2	112	52	foodImage.2	FOODEEG_Images\0028.jpg	NY	Right	Yes	0.848742199999833	0	431443	235
843.701171875	1	health	trialStart	2	113	53	foodImage.93	FOODEEG_Images\0901.jpg	NY	Left	No	0.902054299999691	0	431976	251
844.740234375	2	health	foodImageDisplay	2	113	53	foodImage.93	FOODEEG_Images\0901.jpg	NY	Left	No	0.902054299999691	0	432508	252
846.806640625	0.902054299999691	health	choicePhaseStart	2	113	53	foodImage.93	FOODEEG_Images\0901.jpg	NY	Left	No	0.902054299999691	0	433566	253
847.69921875	0	health	response	2	113	53	foodImage.93	FOODEEG_Images\0901.jpg	NY	Left	No	0.902054299999691	0	434023	234
848.740234375	1	decision	trialStart	2	114	54	foodImage.81	FOODEEG_Images\0797.jpg	NY	Right	Yes	0.895785400000022	0	434556	251
849.8046875	2	decision	foodImageDisplay	2	114	54	foodImage.81	FOODEEG_Images\0797.jpg	NY	Right	Yes	0.895785400000022	0	435101	252
851.869140625	0.895785400000022	decision	choicePhaseStart	2	114	54	foodImage.81	FOODEEG_Images\0797.jpg	NY	Right	Yes	0.895785400000022	0	436158	253
852.755859375	0	decision	response	2	114	54	foodImage.81	FOODEEG_Images\0797.jpg	NY	Right	Yes	0.895785400000022	0	436612	235
853.796875	1	health	trialStart	2	115	55	foodImage.73	FOODEEG_Images\0717.jpg	NY	Right	Yes	0.856564100000469	0	437145	251
854.8671875	2	health	foodImageDisplay	2	115	55	foodImage.73	FOODEEG_Images\0717.jpg	NY	Right	Yes	0.856564100000469	0	437693	252
856.931640625	0.856564100000469	health	choicePhaseStart	2	115	55	foodImage.73	FOODEEG_Images\0717.jpg	NY	Right	Yes	0.856564100000469	0	438750	253
857.779296875	0	health	response	2	115	55	foodImage.73	FOODEEG_Images\0717.jpg	NY	Right	Yes	0.856564100000469	0	439184	235
858.818359375	1	health	trialStart	2	116	56	foodImage.24	FOODEEG_Images\0250.jpg	NY	Right	Yes	0.766217999999753	0	439716	251
859.861328125	2	health	foodImageDisplay	2	116	56	foodImage.24	FOODEEG_Images\0250.jpg	NY	Right	Yes	0.766217999999753	0	440250	252
861.92578125	0.766217999999753	health	choicePhaseStart	2	116	56	foodImage.24	FOODEEG_Images\0250.jpg	NY	Right	Yes	0.766217999999753	0	441307	253
862.68359375	0	health	response	2	116	56	foodImage.24	FOODEEG_Images\0250.jpg	NY	Right	Yes	0.766217999999753	0	441695	235
863.724609375	1	taste	trialStart	2	117	57	foodImage.78	FOODEEG_Images\0787.jpg	YN	Left	Yes	0.832359800000631	0	442228	251
864.7734375	2	taste	foodImageDisplay	2	117	57	foodImage.78	FOODEEG_Images\0787.jpg	YN	Left	Yes	0.832359800000631	0	442765	252
866.8359375	0.832359800000631	taste	choicePhaseStart	2	117	57	foodImage.78	FOODEEG_Images\0787.jpg	YN	Left	Yes	0.832359800000631	0	443821	253
867.658203125	0	taste	response	2	117	57	foodImage.78	FOODEEG_Images\0787.jpg	YN	Left	Yes	0.832359800000631	0	444242	234
868.69921875	1	health	trialStart	2	118	58	foodImage.51	FOODEEG_Images\0536.jpg	NY	Right	Yes	1.19051600000057	0	444775	251
869.748046875	2	health	foodImageDisplay	2	118	58	foodImage.51	FOODEEG_Images\0536.jpg	NY	Right	Yes	1.19051600000057	0	445312	252
871.8125	1.19051600000057	health	choicePhaseStart	2	118	58	foodImage.51	FOODEEG_Images\0536.jpg	NY	Right	Yes	1.19051600000057	0	446369	253
872.994140625	0	health	response	2	118	58	foodImage.51	FOODEEG_Images\0536.jpg	NY	Right	Yes	1.19051600000057	0	446974	235
874.03515625	1	decision	trialStart	2	119	59	foodImage.69	FOODEEG_Images\0693.jpg	NY	Right	Yes	0.891946900000221	0	447507	251
875.080078125	2	decision	foodImageDisplay	2	119	59	foodImage.69	FOODEEG_Images\0693.jpg	NY	Right	Yes	0.891946900000221	0	448042	252
877.14453125	0.891946900000221	decision	choicePhaseStart	2	119	59	foodImage.69	FOODEEG_Images\0693.jpg	NY	Right	Yes	0.891946900000221	0	449099	253
878.02734375	0	decision	response	2	119	59	foodImage.69	FOODEEG_Images\0693.jpg	NY	Right	Yes	0.891946900000221	0	449551	235
879.072265625	1	health	trialStart	2	120	60	foodImage.80	FOODEEG_Images\0796.jpg	NY	Right	Yes	0.832000999999764	0	450086	251
880.1328125	2	health	foodImageDisplay	2	120	60	foodImage.80	FOODEEG_Images\0796.jpg	NY	Right	Yes	0.832000999999764	0	450629	252
882.1953125	0.832000999999764	health	choicePhaseStart	2	120	60	foodImage.80	FOODEEG_Images\0796.jpg	NY	Right	Yes	0.832000999999764	0	451685	253
883.017578125	0	health	response	2	120	60	foodImage.80	FOODEEG_Images\0796.jpg	NY	Right	Yes	0.832000999999764	0	452106	235
885.060546875	5.912109375	n/a	blockEnd	n/a	n/a	n/a	n/a	n/a	n/a	n/a	n/a	n/a	n/a	453152	254
890.97265625	2	n/a	blockStart	3	n/a	n/a	n/a	n/a	n/a	n/a	n/a	n/a	n/a	456179	250
893.00390625	1	health	trialStart	3	121	1	foodImage.99	FOODEEG_Images\0907.jpg	NY	Left	No	0.734805099999903	0	457219	251
894.04296875	2	health	foodImageDisplay	3	121	1	foodImage.99	FOODEEG_Images\0907.jpg	NY	Left	No	0.734805099999903	0	457751	252
896.107421875	0.734805099999903	health	choicePhaseStart	3	121	1	foodImage.99	FOODEEG_Images\0907.jpg	NY	Left	No	0.734805099999903	0	458808	253
896.833984375	0	health	response	3	121	1	foodImage.99	FOODEEG_Images\0907.jpg	NY	Left	No	0.734805099999903	0	459180	234
897.876953125	1	decision	trialStart	3	122	2	foodImage.55	FOODEEG_Images\0567.jpg	NY	Right	Yes	0.775460500000008	0	459714	251
898.93359375	2	decision	foodImageDisplay	3	122	2	foodImage.55	FOODEEG_Images\0567.jpg	NY	Right	Yes	0.775460500000008	0	460255	252
900.99609375	0.775460500000008	decision	choicePhaseStart	3	122	2	foodImage.55	FOODEEG_Images\0567.jpg	NY	Right	Yes	0.775460500000008	0	461311	253
901.76171875	0	decision	response	3	122	2	foodImage.55	FOODEEG_Images\0567.jpg	NY	Right	Yes	0.775460500000008	0	461703	235
902.802734375	1	decision	trialStart	3	123	3	foodImage.43	FOODEEG_Images\0445.jpg	NY	Right	Yes	0.891771999999946	0	462236	251
903.87890625	2	decision	foodImageDisplay	3	123	3	foodImage.43	FOODEEG_Images\0445.jpg	NY	Right	Yes	0.891771999999946	0	462787	252
905.947265625	0.891771999999946	decision	choicePhaseStart	3	123	3	foodImage.43	FOODEEG_Images\0445.jpg	NY	Right	Yes	0.891771999999946	0	463846	253
906.833984375	0	decision	response	3	123	3	foodImage.43	FOODEEG_Images\0445.jpg	NY	Right	Yes	0.891771999999946	0	464300	235
907.875	1	decision	trialStart	3	124	4	foodImage.53	FOODEEG_Images\0547.jpg	NY	Left	No	0.794629300000452	0	464833	251
908.9375	2	decision	foodImageDisplay	3	124	4	foodImage.53	FOODEEG_Images\0547.jpg	NY	Left	No	0.794629300000452	0	465377	252
911	0.794629300000452	decision	choicePhaseStart	3	124	4	foodImage.53	FOODEEG_Images\0547.jpg	NY	Left	No	0.794629300000452	0	466433	253
911.78515625	0	decision	response	3	124	4	foodImage.53	FOODEEG_Images\0547.jpg	NY	Left	No	0.794629300000452	0	466835	234
912.82421875	1	decision	trialStart	3	125	5	foodImage.76	FOODEEG_Images\0766.jpg	NY	Right	Yes	1.52821469999981	0	467367	251
913.87109375	2	decision	foodImageDisplay	3	125	5	foodImage.76	FOODEEG_Images\0766.jpg	NY	Right	Yes	1.52821469999981	0	467903	252
915.9375	1.52821469999981	decision	choicePhaseStart	3	125	5	foodImage.76	FOODEEG_Images\0766.jpg	NY	Right	Yes	1.52821469999981	0	468961	253
917.45703125	0	decision	response	3	125	5	foodImage.76	FOODEEG_Images\0766.jpg	NY	Right	Yes	1.52821469999981	0	469739	235
918.498046875	1	health	trialStart	3	126	6	foodImage.102	FOODEEG_Images\0910.jpg	YN	Left	Yes	1.00633259999995	0	470272	251
919.5390625	2	health	foodImageDisplay	3	126	6	foodImage.102	FOODEEG_Images\0910.jpg	YN	Left	Yes	1.00633259999995	0	470805	252
921.603515625	1.00633259999995	health	choicePhaseStart	3	126	6	foodImage.102	FOODEEG_Images\0910.jpg	YN	Left	Yes	1.00633259999995	0	471862	253
922.6015625	0	health	response	3	126	6	foodImage.102	FOODEEG_Images\0910.jpg	YN	Left	Yes	1.00633259999995	0	472373	234
923.640625	1	decision	trialStart	3	127	7	foodImage.19	FOODEEG_Images\0225.jpg	NY	Left	No	1.22858989999986	0	472905	251
924.68359375	2	decision	foodImageDisplay	3	127	7	foodImage.19	FOODEEG_Images\0225.jpg	NY	Left	No	1.22858989999986	0	473439	252
926.748046875	1.22858989999986	decision	choicePhaseStart	3	127	7	foodImage.19	FOODEEG_Images\0225.jpg	NY	Left	No	1.22858989999986	0	474496	253
927.96875	0	decision	response	3	127	7	foodImage.19	FOODEEG_Images\0225.jpg	NY	Left	No	1.22858989999986	0	475121	234
929.01171875	1	taste	trialStart	3	128	8	foodImage.118	FOODEEG_Images\0926.jpg	YN	Right	No	0.896299800000634	0	475655	251
930.048828125	2	taste	foodImageDisplay	3	128	8	foodImage.118	FOODEEG_Images\0926.jpg	YN	Right	No	0.896299800000634	0	476186	252
932.11328125	0.896299800000634	taste	choicePhaseStart	3	128	8	foodImage.118	FOODEEG_Images\0926.jpg	YN	Right	No	0.896299800000634	0	477243	253
933	0	taste	response	3	128	8	foodImage.118	FOODEEG_Images\0926.jpg	YN	Right	No	0.896299800000634	0	477697	235
934.04296875	1	decision	trialStart	3	129	9	foodImage.107	FOODEEG_Images\0915.jpg	NY	Left	No	0.872947300000305	0	478231	251
935.08203125	2	decision	foodImageDisplay	3	129	9	foodImage.107	FOODEEG_Images\0915.jpg	NY	Left	No	0.872947300000305	0	478763	252
937.14453125	0.872947300000305	decision	choicePhaseStart	3	129	9	foodImage.107	FOODEEG_Images\0915.jpg	NY	Left	No	0.872947300000305	0	479819	253
938.0078125	0	decision	response	3	129	9	foodImage.107	FOODEEG_Images\0915.jpg	NY	Left	No	0.872947300000305	0	480261	234
939.05078125	1	health	trialStart	3	130	10	foodImage.76	FOODEEG_Images\0766.jpg	NY	Right	Yes	0.890774899999997	0	480795	251
940.095703125	2	health	foodImageDisplay	3	130	10	foodImage.76	FOODEEG_Images\0766.jpg	NY	Right	Yes	0.890774899999997	0	481330	252
942.158203125	0.890774899999997	health	choicePhaseStart	3	130	10	foodImage.76	FOODEEG_Images\0766.jpg	NY	Right	Yes	0.890774899999997	0	482386	253
943.041015625	0	health	response	3	130	10	foodImage.76	FOODEEG_Images\0766.jpg	NY	Right	Yes	0.890774899999997	0	482838	235
944.083984375	1	taste	trialStart	3	131	11	foodImage.93	FOODEEG_Images\0901.jpg	YN	Right	No	0.798051499999929	0	483372	251
945.123046875	2	taste	foodImageDisplay	3	131	11	foodImage.93	FOODEEG_Images\0901.jpg	YN	Right	No	0.798051499999929	0	483904	252
947.1875	0.798051499999929	taste	choicePhaseStart	3	131	11	foodImage.93	FOODEEG_Images\0901.jpg	YN	Right	No	0.798051499999929	0	484961	253
947.9765625	0	taste	response	3	131	11	foodImage.93	FOODEEG_Images\0901.jpg	YN	Right	No	0.798051499999929	0	485365	235
949.01953125	1	decision	trialStart	3	132	12	foodImage.46	FOODEEG_Images\0479.jpg	YN	Left	Yes	0.827341199999864	0	485899	251
950.078125	2	decision	foodImageDisplay	3	132	12	foodImage.46	FOODEEG_Images\0479.jpg	YN	Left	Yes	0.827341199999864	0	486441	252
952.140625	0.827341199999864	decision	choicePhaseStart	3	132	12	foodImage.46	FOODEEG_Images\0479.jpg	YN	Left	Yes	0.827341199999864	0	487497	253
952.958984375	0	decision	response	3	132	12	foodImage.46	FOODEEG_Images\0479.jpg	YN	Left	Yes	0.827341199999864	0	487916	234
954.001953125	1	health	trialStart	3	133	13	foodImage.37	FOODEEG_Images\0359.jpg	NY	Right	Yes	0.779573099999652	0	488450	251
955.044921875	2	health	foodImageDisplay	3	133	13	foodImage.37	FOODEEG_Images\0359.jpg	NY	Right	Yes	0.779573099999652	0	488984	252
957.109375	0.779573099999652	health	choicePhaseStart	3	133	13	foodImage.37	FOODEEG_Images\0359.jpg	NY	Right	Yes	0.779573099999652	0	490041	253
957.87890625	0	health	response	3	133	13	foodImage.37	FOODEEG_Images\0359.jpg	NY	Right	Yes	0.779573099999652	0	490435	235
958.921875	1	taste	trialStart	3	134	14	foodImage.101	FOODEEG_Images\0909.jpg	YN	Right	No	0.685071599999901	0	490969	251
959.962890625	2	taste	foodImageDisplay	3	134	14	foodImage.101	FOODEEG_Images\0909.jpg	YN	Right	No	0.685071599999901	0	491502	252
962.02734375	0.685071599999901	taste	choicePhaseStart	3	134	14	foodImage.101	FOODEEG_Images\0909.jpg	YN	Right	No	0.685071599999901	0	492559	253
962.703125	0	taste	response	3	134	14	foodImage.101	FOODEEG_Images\0909.jpg	YN	Right	No	0.685071599999901	0	492905	235
963.74609375	1	taste	trialStart	3	135	15	foodImage.3	FOODEEG_Images\0046.jpg	YN	Right	No	0.848675700000058	0	493439	251
964.7890625	2	taste	foodImageDisplay	3	135	15	foodImage.3	FOODEEG_Images\0046.jpg	YN	Right	No	0.848675700000058	0	493973	252
966.853515625	0.848675700000058	taste	choicePhaseStart	3	135	15	foodImage.3	FOODEEG_Images\0046.jpg	YN	Right	No	0.848675700000058	0	495030	253
967.6953125	0	taste	response	3	135	15	foodImage.3	FOODEEG_Images\0046.jpg	YN	Right	No	0.848675700000058	0	495461	235
968.73828125	1	health	trialStart	3	136	16	foodImage.97	FOODEEG_Images\0905.jpg	NY	Left	No	0.988589600000523	0	495995	251
969.779296875	2	health	foodImageDisplay	3	136	16	foodImage.97	FOODEEG_Images\0905.jpg	NY	Left	No	0.988589600000523	0	496528	252
971.841796875	0.988589600000523	health	choicePhaseStart	3	136	16	foodImage.97	FOODEEG_Images\0905.jpg	NY	Left	No	0.988589600000523	0	497584	253
972.822265625	0	health	response	3	136	16	foodImage.97	FOODEEG_Images\0905.jpg	NY	Left	No	0.988589600000523	0	498086	234
973.8671875	1	taste	trialStart	3	137	17	foodImage.104	FOODEEG_Images\0912.jpg	YN	Right	No	0.9139995000005	0	498621	251
974.90625	2	taste	foodImageDisplay	3	137	17	foodImage.104	FOODEEG_Images\0912.jpg	YN	Right	No	0.9139995000005	0	499153	252
976.97265625	0.9139995000005	taste	choicePhaseStart	3	137	17	foodImage.104	FOODEEG_Images\0912.jpg	YN	Right	No	0.9139995000005	0	500211	253
977.87890625	0	taste	response	3	137	17	foodImage.104	FOODEEG_Images\0912.jpg	YN	Right	No	0.9139995000005	0	500675	235
978.919921875	1	health	trialStart	3	138	18	foodImage.44	FOODEEG_Images\0459.jpg	NY	Right	Yes	0.753509300000587	0	501208	251
979.96484375	2	health	foodImageDisplay	3	138	18	foodImage.44	FOODEEG_Images\0459.jpg	NY	Right	Yes	0.753509300000587	0	501743	252
982.029296875	0.753509300000587	health	choicePhaseStart	3	138	18	foodImage.44	FOODEEG_Images\0459.jpg	NY	Right	Yes	0.753509300000587	0	502800	253
982.7734375	0	health	response	3	138	18	foodImage.44	FOODEEG_Images\0459.jpg	NY	Right	Yes	0.753509300000587	0	503181	235
983.81640625	1	taste	trialStart	3	139	19	foodImage.7	FOODEEG_Images\0116.jpg	NY	Right	Yes	0.772632400000475	0	503715	251
984.859375	2	taste	foodImageDisplay	3	139	19	foodImage.7	FOODEEG_Images\0116.jpg	NY	Right	Yes	0.772632400000475	0	504249	252
986.923828125	0.772632400000475	taste	choicePhaseStart	3	139	19	foodImage.7	FOODEEG_Images\0116.jpg	NY	Right	Yes	0.772632400000475	0	505306	253
987.685546875	0	taste	response	3	139	19	foodImage.7	FOODEEG_Images\0116.jpg	NY	Right	Yes	0.772632400000475	0	505696	235
988.7265625	1	decision	trialStart	3	140	20	foodImage.32	FOODEEG_Images\0319.jpg	YN	Left	Yes	0.945792600000459	0	506229	251
989.7734375	2	decision	foodImageDisplay	3	140	20	foodImage.32	FOODEEG_Images\0319.jpg	YN	Left	Yes	0.945792600000459	0	506765	252
991.837890625	0.945792600000459	decision	choicePhaseStart	3	140	20	foodImage.32	FOODEEG_Images\0319.jpg	YN	Left	Yes	0.945792600000459	0	507822	253
992.7734375	0	decision	response	3	140	20	foodImage.32	FOODEEG_Images\0319.jpg	YN	Left	Yes	0.945792600000459	0	508301	234
993.81640625	1	decision	trialStart	3	141	21	foodImage.82	FOODEEG_Images\0805.jpg	YN	Right	No	0.868915500000185	0	508835	251
994.873046875	2	decision	foodImageDisplay	3	141	21	foodImage.82	FOODEEG_Images\0805.jpg	YN	Right	No	0.868915500000185	0	509376	252
996.9375	0.868915500000185	decision	choicePhaseStart	3	141	21	foodImage.82	FOODEEG_Images\0805.jpg	YN	Right	No	0.868915500000185	0	510433	253
997.796875	0	decision	response	3	141	21	foodImage.82	FOODEEG_Images\0805.jpg	YN	Right	No	0.868915500000185	0	510873	235
998.83984375	1	decision	trialStart	3	142	22	foodImage.108	FOODEEG_Images\0916.jpg	NY	Left	No	0.890884599999481	0	511407	251
999.87890625	2	decision	foodImageDisplay	3	142	22	foodImage.108	FOODEEG_Images\0916.jpg	NY	Left	No	0.890884599999481	0	511939	252
1001.94921875	0.890884599999481	decision	choicePhaseStart	3	142	22	foodImage.108	FOODEEG_Images\0916.jpg	NY	Left	No	0.890884599999481	0	512999	253
1002.830078125	0	decision	response	3	142	22	foodImage.108	FOODEEG_Images\0916.jpg	NY	Left	No	0.890884599999481	0	513450	234
1003.873046875	1	health	trialStart	3	143	23	foodImage.39	FOODEEG_Images\0367.jpg	NY	Left	No	0.959330199999386	0	513984	251
1004.912109375	2	health	foodImageDisplay	3	143	23	foodImage.39	FOODEEG_Images\0367.jpg	NY	Left	No	0.959330199999386	0	514516	252
1006.974609375	0.959330199999386	health	choicePhaseStart	3	143	23	foodImage.39	FOODEEG_Images\0367.jpg	NY	Left	No	0.959330199999386	0	515572	253
1007.92578125	0	health	response	3	143	23	foodImage.39	FOODEEG_Images\0367.jpg	NY	Left	No	0.959330199999386	0	516059	234
1008.966796875	1	decision	trialStart	3	144	24	foodImage.64	FOODEEG_Images\0647.jpg	YN	Left	Yes	1.09578969999984	0	516592	251
1010.029296875	2	decision	foodImageDisplay	3	144	24	foodImage.64	FOODEEG_Images\0647.jpg	YN	Left	Yes	1.09578969999984	0	517136	252
1012.09375	1.09578969999984	decision	choicePhaseStart	3	144	24	foodImage.64	FOODEEG_Images\0647.jpg	YN	Left	Yes	1.09578969999984	0	518193	253
1013.181640625	0	decision	response	3	144	24	foodImage.64	FOODEEG_Images\0647.jpg	YN	Left	Yes	1.09578969999984	0	518750	234
1014.22265625	1	decision	trialStart	3	145	25	foodImage.102	FOODEEG_Images\0910.jpg	NY	Left	No	0.772438699999839	0	519283	251
1015.26171875	2	decision	foodImageDisplay	3	145	25	foodImage.102	FOODEEG_Images\0910.jpg	NY	Left	No	0.772438699999839	0	519815	252
1017.330078125	0.772438699999839	decision	choicePhaseStart	3	145	25	foodImage.102	FOODEEG_Images\0910.jpg	NY	Left	No	0.772438699999839	0	520874	253
1018.09375	0	decision	response	3	145	25	foodImage.102	FOODEEG_Images\0910.jpg	NY	Left	No	0.772438699999839	0	521265	234
1019.134765625	1	decision	trialStart	3	146	26	foodImage.110	FOODEEG_Images\0918.jpg	YN	Right	No	0.758707400000276	0	521798	251
1020.17578125	2	decision	foodImageDisplay	3	146	26	foodImage.110	FOODEEG_Images\0918.jpg	YN	Right	No	0.758707400000276	0	522331	252
1022.23828125	0.758707400000276	decision	choicePhaseStart	3	146	26	foodImage.110	FOODEEG_Images\0918.jpg	YN	Right	No	0.758707400000276	0	523387	253
1022.98828125	0	decision	response	3	146	26	foodImage.110	FOODEEG_Images\0918.jpg	YN	Right	No	0.758707400000276	0	523771	235
1024.03125	1	decision	trialStart	3	147	27	foodImage.73	FOODEEG_Images\0717.jpg	YN	Left	Yes	0.83156179999969	0	524305	251
1025.091796875	2	decision	foodImageDisplay	3	147	27	foodImage.73	FOODEEG_Images\0717.jpg	YN	Left	Yes	0.83156179999969	0	524848	252
1027.15625	0.83156179999969	decision	choicePhaseStart	3	147	27	foodImage.73	FOODEEG_Images\0717.jpg	YN	Left	Yes	0.83156179999969	0	525905	253
1027.98046875	0	decision	response	3	147	27	foodImage.73	FOODEEG_Images\0717.jpg	YN	Left	Yes	0.83156179999969	0	526327	234
1029.0234375	1	decision	trialStart	3	148	28	foodImage.35	FOODEEG_Images\0350.jpg	NY	Right	Yes	0.797830399999839	0	526861	251
1030.0625	2	decision	foodImageDisplay	3	148	28	foodImage.35	FOODEEG_Images\0350.jpg	NY	Right	Yes	0.797830399999839	0	527393	252
1032.12890625	0.797830399999839	decision	choicePhaseStart	3	148	28	foodImage.35	FOODEEG_Images\0350.jpg	NY	Right	Yes	0.797830399999839	0	528451	253
1032.916015625	0	decision	response	3	148	28	foodImage.35	FOODEEG_Images\0350.jpg	NY	Right	Yes	0.797830399999839	0	528854	235
1033.962890625	1	taste	trialStart	3	149	29	foodImage.33	FOODEEG_Images\0329.jpg	NY	Right	Yes	0.739992099999654	0	529390	251
1035.009765625	2	taste	foodImageDisplay	3	149	29	foodImage.33	FOODEEG_Images\0329.jpg	NY	Right	Yes	0.739992099999654	0	529926	252
1037.072265625	0.739992099999654	taste	choicePhaseStart	3	149	29	foodImage.33	FOODEEG_Images\0329.jpg	NY	Right	Yes	0.739992099999654	0	530982	253
1037.8046875	0	taste	response	3	149	29	foodImage.33	FOODEEG_Images\0329.jpg	NY	Right	Yes	0.739992099999654	0	531357	235
1038.84765625	1	decision	trialStart	3	150	30	foodImage.96	FOODEEG_Images\0904.jpg	NY	Left	No	0.772325199999614	0	531891	251
1039.888671875	2	decision	foodImageDisplay	3	150	30	foodImage.96	FOODEEG_Images\0904.jpg	NY	Left	No	0.772325199999614	0	532424	252
1041.953125	0.772325199999614	decision	choicePhaseStart	3	150	30	foodImage.96	FOODEEG_Images\0904.jpg	NY	Left	No	0.772325199999614	0	533481	253
1042.716796875	0	decision	response	3	150	30	foodImage.96	FOODEEG_Images\0904.jpg	NY	Left	No	0.772325199999614	0	533872	234
1043.7578125	1	health	trialStart	3	151	31	foodImage.18	FOODEEG_Images\0202.jpg	YN	Left	Yes	0.711454400000548	0	534405	251
1044.818359375	2	health	foodImageDisplay	3	151	31	foodImage.18	FOODEEG_Images\0202.jpg	YN	Left	Yes	0.711454400000548	0	534948	252
1046.8828125	0.711454400000548	health	choicePhaseStart	3	151	31	foodImage.18	FOODEEG_Images\0202.jpg	YN	Left	Yes	0.711454400000548	0	536005	253
1047.587890625	0	health	response	3	151	31	foodImage.18	FOODEEG_Images\0202.jpg	YN	Left	Yes	0.711454400000548	0	536366	234
1048.626953125	1	taste	trialStart	3	152	32	foodImage.84	FOODEEG_Images\0830.jpg	YN	Left	Yes	0.719541800000115	0	536898	251
1049.685546875	2	taste	foodImageDisplay	3	152	32	foodImage.84	FOODEEG_Images\0830.jpg	YN	Left	Yes	0.719541800000115	0	537440	252
1051.75	0.719541800000115	taste	choicePhaseStart	3	152	32	foodImage.84	FOODEEG_Images\0830.jpg	YN	Left	Yes	0.719541800000115	0	538497	253
1052.458984375	0	taste	response	3	152	32	foodImage.84	FOODEEG_Images\0830.jpg	YN	Left	Yes	0.719541800000115	0	538860	234
1053.501953125	1	decision	trialStart	3	153	33	foodImage.72	FOODEEG_Images\0714.jpg	NY	Right	Yes	0.782896199999414	0	539394	251
1054.544921875	2	decision	foodImageDisplay	3	153	33	foodImage.72	FOODEEG_Images\0714.jpg	NY	Right	Yes	0.782896199999414	0	539928	252
1056.61328125	0.782896199999414	decision	choicePhaseStart	3	153	33	foodImage.72	FOODEEG_Images\0714.jpg	NY	Right	Yes	0.782896199999414	0	540987	253
1057.38671875	0	decision	response	3	153	33	foodImage.72	FOODEEG_Images\0714.jpg	NY	Right	Yes	0.782896199999414	0	541383	235
1058.4296875	1	health	trialStart	3	154	34	foodImage.48	FOODEEG_Images\0494.jpg	YN	Right	No	0.92068670000026	0	541917	251
1059.474609375	2	health	foodImageDisplay	3	154	34	foodImage.48	FOODEEG_Images\0494.jpg	YN	Right	No	0.92068670000026	0	542452	252
1061.537109375	0.92068670000026	health	choicePhaseStart	3	154	34	foodImage.48	FOODEEG_Images\0494.jpg	YN	Right	No	0.92068670000026	0	543508	253
1062.451171875	0	health	response	3	154	34	foodImage.48	FOODEEG_Images\0494.jpg	YN	Right	No	0.92068670000026	0	543976	235
1063.4921875	1	health	trialStart	3	155	35	foodImage.104	FOODEEG_Images\0912.jpg	NY	Left	No	1.00861789999999	0	544509	251
1064.53125	2	health	foodImageDisplay	3	155	35	foodImage.104	FOODEEG_Images\0912.jpg	NY	Left	No	1.00861789999999	0	545041	252
1066.595703125	1.00861789999999	health	choicePhaseStart	3	155	35	foodImage.104	FOODEEG_Images\0912.jpg	NY	Left	No	1.00861789999999	0	546098	253
1067.595703125	0	health	response	3	155	35	foodImage.104	FOODEEG_Images\0912.jpg	NY	Left	No	1.00861789999999	0	546610	234
1068.63671875	1	health	trialStart	3	156	36	foodImage.77	FOODEEG_Images\0771.jpg	YN	Left	Yes	0.66445179999937	0	547143	251
1069.681640625	2	health	foodImageDisplay	3	156	36	foodImage.77	FOODEEG_Images\0771.jpg	YN	Left	Yes	0.66445179999937	0	547678	252
1071.748046875	0.66445179999937	health	choicePhaseStart	3	156	36	foodImage.77	FOODEEG_Images\0771.jpg	YN	Left	Yes	0.66445179999937	0	548736	253
1072.40234375	0	health	response	3	156	36	foodImage.77	FOODEEG_Images\0771.jpg	YN	Left	Yes	0.66445179999937	0	549071	234
1073.443359375	1	taste	trialStart	3	157	37	foodImage.95	FOODEEG_Images\0903.jpg	NY	Left	No	0.753080999999838	0	549604	251
1074.482421875	2	taste	foodImageDisplay	3	157	37	foodImage.95	FOODEEG_Images\0903.jpg	NY	Left	No	0.753080999999838	0	550136	252
1076.546875	0.753080999999838	taste	choicePhaseStart	3	157	37	foodImage.95	FOODEEG_Images\0903.jpg	NY	Left	No	0.753080999999838	0	551193	253
1077.291015625	0	taste	response	3	157	37	foodImage.95	FOODEEG_Images\0903.jpg	NY	Left	No	0.753080999999838	0	551574	234
1078.33203125	1	taste	trialStart	3	158	38	foodImage.64	FOODEEG_Images\0647.jpg	NY	Right	Yes	1.56506630000058	0	552107	251
1079.392578125	2	taste	foodImageDisplay	3	158	38	foodImage.64	FOODEEG_Images\0647.jpg	NY	Right	Yes	1.56506630000058	0	552650	252
1081.455078125	1.56506630000058	taste	choicePhaseStart	3	158	38	foodImage.64	FOODEEG_Images\0647.jpg	NY	Right	Yes	1.56506630000058	0	553706	253
1083.009765625	0	taste	response	3	158	38	foodImage.64	FOODEEG_Images\0647.jpg	NY	Right	Yes	1.56506630000058	0	554502	235
1084.052734375	1	taste	trialStart	3	159	39	foodImage.10	FOODEEG_Images\0145.jpg	YN	Left	Yes	1.20125850000022	0	555036	251
1085.111328125	2	taste	foodImageDisplay	3	159	39	foodImage.10	FOODEEG_Images\0145.jpg	YN	Left	Yes	1.20125850000022	0	555578	252
1087.177734375	1.20125850000022	taste	choicePhaseStart	3	159	39	foodImage.10	FOODEEG_Images\0145.jpg	YN	Left	Yes	1.20125850000022	0	556636	253
1088.37109375	0	taste	response	3	159	39	foodImage.10	FOODEEG_Images\0145.jpg	YN	Left	Yes	1.20125850000022	0	557247	234
1089.412109375	1	taste	trialStart	3	160	40	foodImage.28	FOODEEG_Images\0273.jpg	NY	Right	Yes	0.906293199999709	0	557780	251
1090.45703125	2	taste	foodImageDisplay	3	160	40	foodImage.28	FOODEEG_Images\0273.jpg	NY	Right	Yes	0.906293199999709	0	558315	252
1092.521484375	0.906293199999709	taste	choicePhaseStart	3	160	40	foodImage.28	FOODEEG_Images\0273.jpg	NY	Right	Yes	0.906293199999709	0	559372	253
1093.41796875	0	taste	response	3	160	40	foodImage.28	FOODEEG_Images\0273.jpg	NY	Right	Yes	0.906293199999709	0	559831	235
1094.4609375	1	health	trialStart	3	161	41	foodImage.110	FOODEEG_Images\0918.jpg	NY	Left	No	0.812433399999463	0	560365	251
1095.5	2	health	foodImageDisplay	3	161	41	foodImage.110	FOODEEG_Images\0918.jpg	NY	Left	No	0.812433399999463	0	560897	252
1097.5625	0.812433399999463	health	choicePhaseStart	3	161	41	foodImage.110	FOODEEG_Images\0918.jpg	NY	Left	No	0.812433399999463	0	561953	253
1098.369140625	0	health	response	3	161	41	foodImage.110	FOODEEG_Images\0918.jpg	NY	Left	No	0.812433399999463	0	562366	234
1099.41015625	1	taste	trialStart	3	162	42	foodImage.102	FOODEEG_Images\0910.jpg	NY	Left	No	0.81904940000004	0	562899	251
1100.44921875	2	taste	foodImageDisplay	3	162	42	foodImage.102	FOODEEG_Images\0910.jpg	NY	Left	No	0.81904940000004	0	563431	252
1102.51171875	0.81904940000004	taste	choicePhaseStart	3	162	42	foodImage.102	FOODEEG_Images\0910.jpg	NY	Left	No	0.81904940000004	0	564487	253
1103.322265625	0	taste	response	3	162	42	foodImage.102	FOODEEG_Images\0910.jpg	NY	Left	No	0.81904940000004	0	564902	234
1104.36328125	1	taste	trialStart	3	163	43	foodImage.19	FOODEEG_Images\0225.jpg	YN	Right	No	2.24506579999979	0	565435	251
1105.40625	2	taste	foodImageDisplay	3	163	43	foodImage.19	FOODEEG_Images\0225.jpg	YN	Right	No	2.24506579999979	0	565969	252
1107.46875	2.24506579999979	taste	choicePhaseStart	3	163	43	foodImage.19	FOODEEG_Images\0225.jpg	YN	Right	No	2.24506579999979	0	567025	253
1109.705078125	0	taste	response	3	163	43	foodImage.19	FOODEEG_Images\0225.jpg	YN	Right	No	2.24506579999979	0	568170	235
1110.748046875	1	health	trialStart	3	164	44	foodImage.6	FOODEEG_Images\0113.jpg	YN	Right	No	1.10168329999942	0	568704	251
1111.7890625	2	health	foodImageDisplay	3	164	44	foodImage.6	FOODEEG_Images\0113.jpg	YN	Right	No	1.10168329999942	0	569237	252
1113.853515625	1.10168329999942	health	choicePhaseStart	3	164	44	foodImage.6	FOODEEG_Images\0113.jpg	YN	Right	No	1.10168329999942	0	570294	253
1114.9453125	0	health	response	3	164	44	foodImage.6	FOODEEG_Images\0113.jpg	YN	Right	No	1.10168329999942	0	570853	235
1115.98828125	1	taste	trialStart	3	165	45	foodImage.30	FOODEEG_Images\0282.jpg	NY	Right	Yes	0.681527199999437	0	571387	251
1117.033203125	2	taste	foodImageDisplay	3	165	45	foodImage.30	FOODEEG_Images\0282.jpg	NY	Right	Yes	0.681527199999437	0	571922	252
1119.095703125	0.681527199999437	taste	choicePhaseStart	3	165	45	foodImage.30	FOODEEG_Images\0282.jpg	NY	Right	Yes	0.681527199999437	0	572978	253
1119.76953125	0	taste	response	3	165	45	foodImage.30	FOODEEG_Images\0282.jpg	NY	Right	Yes	0.681527199999437	0	573323	235
1120.8125	1	decision	trialStart	3	166	46	foodImage.71	FOODEEG_Images\0713.jpg	YN	Right	No	0.943334900000082	0	573857	251
1121.85546875	2	decision	foodImageDisplay	3	166	46	foodImage.71	FOODEEG_Images\0713.jpg	YN	Right	No	0.943334900000082	0	574391	252
1123.919921875	0.943334900000082	decision	choicePhaseStart	3	166	46	foodImage.71	FOODEEG_Images\0713.jpg	YN	Right	No	0.943334900000082	0	575448	253
1124.857421875	0	decision	response	3	166	46	foodImage.71	FOODEEG_Images\0713.jpg	YN	Right	No	0.943334900000082	0	575928	235
1125.90234375	1	health	trialStart	3	167	47	foodImage.70	FOODEEG_Images\0705.jpg	YN	Right	No	0.817707600000176	0	576463	251
1126.96875	2	health	foodImageDisplay	3	167	47	foodImage.70	FOODEEG_Images\0705.jpg	YN	Right	No	0.817707600000176	0	577009	252
1129.033203125	0.817707600000176	health	choicePhaseStart	3	167	47	foodImage.70	FOODEEG_Images\0705.jpg	YN	Right	No	0.817707600000176	0	578066	253
1129.83984375	0	health	response	3	167	47	foodImage.70	FOODEEG_Images\0705.jpg	YN	Right	No	0.817707600000176	0	578479	235
1130.8828125	1	taste	trialStart	3	168	48	foodImage.34	FOODEEG_Images\0339.jpg	YN	Left	Yes	1.1114891999996	0	579013	251
1131.9453125	2	taste	foodImageDisplay	3	168	48	foodImage.34	FOODEEG_Images\0339.jpg	YN	Left	Yes	1.1114891999996	0	579557	252
1134.009765625	1.1114891999996	taste	choicePhaseStart	3	168	48	foodImage.34	FOODEEG_Images\0339.jpg	YN	Left	Yes	1.1114891999996	0	580614	253
1135.111328125	0	taste	response	3	168	48	foodImage.34	FOODEEG_Images\0339.jpg	YN	Left	Yes	1.1114891999996	0	581178	234
1136.154296875	1	decision	trialStart	3	169	49	foodImage.97	FOODEEG_Images\0905.jpg	NY	Left	No	0.726317800000288	0	581712	251
1137.1953125	2	decision	foodImageDisplay	3	169	49	foodImage.97	FOODEEG_Images\0905.jpg	NY	Left	No	0.726317800000288	0	582245	252
1139.259765625	0.726317800000288	decision	choicePhaseStart	3	169	49	foodImage.97	FOODEEG_Images\0905.jpg	NY	Left	No	0.726317800000288	0	583302	253
1139.9765625	0	decision	response	3	169	49	foodImage.97	FOODEEG_Images\0905.jpg	NY	Left	No	0.726317800000288	0	583669	234
1141.01953125	1	health	trialStart	3	170	50	foodImage.87	FOODEEG_Images\0873.jpg	YN	Left	Yes	0.765660099999877	0	584203	251
1142.08203125	2	health	foodImageDisplay	3	170	50	foodImage.87	FOODEEG_Images\0873.jpg	YN	Left	Yes	0.765660099999877	0	584747	252
1144.14453125	0.765660099999877	health	choicePhaseStart	3	170	50	foodImage.87	FOODEEG_Images\0873.jpg	YN	Left	Yes	0.765660099999877	0	585803	253
1144.904296875	0	health	response	3	170	50	foodImage.87	FOODEEG_Images\0873.jpg	YN	Left	Yes	0.765660099999877	0	586192	234
1145.9453125	1	health	trialStart	3	171	51	foodImage.15	FOODEEG_Images\0189.jpg	NY	Left	No	0.876466900000196	0	586725	251
1147.00390625	2	health	foodImageDisplay	3	171	51	foodImage.15	FOODEEG_Images\0189.jpg	NY	Left	No	0.876466900000196	0	587267	252
1149.068359375	0.876466900000196	health	choicePhaseStart	3	171	51	foodImage.15	FOODEEG_Images\0189.jpg	NY	Left	No	0.876466900000196	0	588324	253
1149.935546875	0	health	response	3	171	51	foodImage.15	FOODEEG_Images\0189.jpg	NY	Left	No	0.876466900000196	0	588768	234
1150.974609375	1	health	trialStart	3	172	52	foodImage.34	FOODEEG_Images\0339.jpg	NY	Left	No	0.687900999999329	0	589300	251
1152.03515625	2	health	foodImageDisplay	3	172	52	foodImage.34	FOODEEG_Images\0339.jpg	NY	Left	No	0.687900999999329	0	589843	252
1154.103515625	0.687900999999329	health	choicePhaseStart	3	172	52	foodImage.34	FOODEEG_Images\0339.jpg	NY	Left	No	0.687900999999329	0	590902	253
1154.783203125	0	health	response	3	172	52	foodImage.34	FOODEEG_Images\0339.jpg	NY	Left	No	0.687900999999329	0	591250	234
1155.826171875	1	health	trialStart	3	173	53	foodImage.2	FOODEEG_Images\0028.jpg	YN	Right	No	0.935919599999579	0	591784	251
1156.869140625	2	health	foodImageDisplay	3	173	53	foodImage.2	FOODEEG_Images\0028.jpg	YN	Right	No	0.935919599999579	0	592318	252
1158.93359375	0.935919599999579	health	choicePhaseStart	3	173	53	foodImage.2	FOODEEG_Images\0028.jpg	YN	Right	No	0.935919599999579	0	593375	253
1159.86328125	0	health	response	3	173	53	foodImage.2	FOODEEG_Images\0028.jpg	YN	Right	No	0.935919599999579	0	593851	235
1160.912109375	1	health	trialStart	3	174	54	foodImage.41	FOODEEG_Images\0409.jpg	YN	Left	Yes	0.835693899999569	0	594388	251
1161.962890625	2	health	foodImageDisplay	3	174	54	foodImage.41	FOODEEG_Images\0409.jpg	YN	Left	Yes	0.835693899999569	0	594926	252
1164.02734375	0.835693899999569	health	choicePhaseStart	3	174	54	foodImage.41	FOODEEG_Images\0409.jpg	YN	Left	Yes	0.835693899999569	0	595983	253
1164.85546875	0	health	response	3	174	54	foodImage.41	FOODEEG_Images\0409.jpg	YN	Left	Yes	0.835693899999569	0	596407	234
1165.896484375	1	taste	trialStart	3	175	55	foodImage.9	FOODEEG_Images\0138.jpg	YN	Left	Yes	2.37961300000006	0	596940	251
1166.95703125	2	taste	foodImageDisplay	3	175	55	foodImage.9	FOODEEG_Images\0138.jpg	YN	Left	Yes	2.37961300000006	0	597483	252
1169.021484375	2.37961300000006	taste	choicePhaseStart	3	175	55	foodImage.9	FOODEEG_Images\0138.jpg	YN	Left	Yes	2.37961300000006	0	598540	253
1171.390625	0	taste	response	3	175	55	foodImage.9	FOODEEG_Images\0138.jpg	YN	Left	Yes	2.37961300000006	0	599753	234
1172.43359375	1	taste	trialStart	3	176	56	foodImage.23	FOODEEG_Images\0244.jpg	YN	Left	Yes	1.29860559999997	0	600287	251
1173.474609375	2	taste	foodImageDisplay	3	176	56	foodImage.23	FOODEEG_Images\0244.jpg	YN	Left	Yes	1.29860559999997	0	600820	252
1175.5390625	1.29860559999997	taste	choicePhaseStart	3	176	56	foodImage.23	FOODEEG_Images\0244.jpg	YN	Left	Yes	1.29860559999997	0	601877	253
1176.830078125	0	taste	response	3	176	56	foodImage.23	FOODEEG_Images\0244.jpg	YN	Left	Yes	1.29860559999997	0	602538	234
1177.89453125	1	decision	trialStart	3	177	57	foodImage.49	FOODEEG_Images\0515.jpg	YN	Left	Yes	0.958546599999863	0	603083	251
1178.9375	2	decision	foodImageDisplay	3	177	57	foodImage.49	FOODEEG_Images\0515.jpg	YN	Left	Yes	0.958546599999863	0	603617	252
1181	0.958546599999863	decision	choicePhaseStart	3	177	57	foodImage.49	FOODEEG_Images\0515.jpg	YN	Left	Yes	0.958546599999863	0	604673	253
1181.94921875	0	decision	response	3	177	57	foodImage.49	FOODEEG_Images\0515.jpg	YN	Left	Yes	0.958546599999863	0	605159	234
1182.9921875	1	health	trialStart	3	178	58	foodImage.90	FOODEEG_Images\0890.jpg	NY	Right	Yes	0.850197800000387	0	605693	251
1184.052734375	2	health	foodImageDisplay	3	178	58	foodImage.90	FOODEEG_Images\0890.jpg	NY	Right	Yes	0.850197800000387	0	606236	252
1186.1171875	0.850197800000387	health	choicePhaseStart	3	178	58	foodImage.90	FOODEEG_Images\0890.jpg	NY	Right	Yes	0.850197800000387	0	607293	253
1186.958984375	0	health	response	3	178	58	foodImage.90	FOODEEG_Images\0890.jpg	NY	Right	Yes	0.850197800000387	0	607724	235
1188	1	taste	trialStart	3	179	59	foodImage.12	FOODEEG_Images\0181.jpg	NY	Right	Yes	0.768953099999635	0	608257	251
1189.046875	2	taste	foodImageDisplay	3	179	59	foodImage.12	FOODEEG_Images\0181.jpg	NY	Right	Yes	0.768953099999635	0	608793	252
1191.109375	0.768953099999635	taste	choicePhaseStart	3	179	59	foodImage.12	FOODEEG_Images\0181.jpg	NY	Right	Yes	0.768953099999635	0	609849	253
1191.869140625	0	taste	response	3	179	59	foodImage.12	FOODEEG_Images\0181.jpg	NY	Right	Yes	0.768953099999635	0	610238	235
1192.912109375	1	taste	trialStart	3	180	60	foodImage.74	FOODEEG_Images\0752.jpg	YN	Left	Yes	0.692177099999753	0	610772	251
1193.95703125	2	taste	foodImageDisplay	3	180	60	foodImage.74	FOODEEG_Images\0752.jpg	YN	Left	Yes	0.692177099999753	0	611307	252
1196.01953125	0.692177099999753	taste	choicePhaseStart	3	180	60	foodImage.74	FOODEEG_Images\0752.jpg	YN	Left	Yes	0.692177099999753	0	612363	253
1196.701171875	0	taste	response	3	180	60	foodImage.74	FOODEEG_Images\0752.jpg	YN	Left	Yes	0.692177099999753	0	612712	234
1198.748046875	5.2734375	n/a	blockEnd	n/a	n/a	n/a	n/a	n/a	n/a	n/a	n/a	n/a	n/a	613760	254
1204.021484375	2	n/a	blockStart	4	n/a	n/a	n/a	n/a	n/a	n/a	n/a	n/a	n/a	616460	250
1206.0546875	1	decision	trialStart	4	181	1	foodImage.54	FOODEEG_Images\0560.jpg	NY	Right	Yes	0.789891599999464	0	617501	251
1207.11328125	2	decision	foodImageDisplay	4	181	1	foodImage.54	FOODEEG_Images\0560.jpg	NY	Right	Yes	0.789891599999464	0	618043	252
1209.17578125	0.789891599999464	decision	choicePhaseStart	4	181	1	foodImage.54	FOODEEG_Images\0560.jpg	NY	Right	Yes	0.789891599999464	0	619099	253
1209.95703125	0	decision	response	4	181	1	foodImage.54	FOODEEG_Images\0560.jpg	NY	Right	Yes	0.789891599999464	0	619499	235
1211.001953125	1	health	trialStart	4	182	2	foodImage.64	FOODEEG_Images\0647.jpg	NY	Right	Yes	0.718437599999561	0	620034	251
1212.060546875	2	health	foodImageDisplay	4	182	2	foodImage.64	FOODEEG_Images\0647.jpg	NY	Right	Yes	0.718437599999561	0	620576	252
1214.125	0.718437599999561	health	choicePhaseStart	4	182	2	foodImage.64	FOODEEG_Images\0647.jpg	NY	Right	Yes	0.718437599999561	0	621633	253
1214.837890625	0	health	response	4	182	2	foodImage.64	FOODEEG_Images\0647.jpg	NY	Right	Yes	0.718437599999561	0	621998	235
1215.8828125	1	health	trialStart	4	183	3	foodImage.84	FOODEEG_Images\0830.jpg	NY	Right	Yes	0.81749199999922	0	622533	251
1216.943359375	2	health	foodImageDisplay	4	183	3	foodImage.84	FOODEEG_Images\0830.jpg	NY	Right	Yes	0.81749199999922	0	623076	252
1219.005859375	0.81749199999922	health	choicePhaseStart	4	183	3	foodImage.84	FOODEEG_Images\0830.jpg	NY	Right	Yes	0.81749199999922	0	624132	253
1219.8125	0	health	response	4	183	3	foodImage.84	FOODEEG_Images\0830.jpg	NY	Right	Yes	0.81749199999922	0	624545	235
1220.85546875	1	taste	trialStart	4	184	4	foodImage.70	FOODEEG_Images\0705.jpg	NY	Right	Yes	0.737527700000101	0	625079	251
1221.916015625	2	taste	foodImageDisplay	4	184	4	foodImage.70	FOODEEG_Images\0705.jpg	NY	Right	Yes	0.737527700000101	0	625622	252
1223.98046875	0.737527700000101	taste	choicePhaseStart	4	184	4	foodImage.70	FOODEEG_Images\0705.jpg	NY	Right	Yes	0.737527700000101	0	626679	253
1224.708984375	0	taste	response	4	184	4	foodImage.70	FOODEEG_Images\0705.jpg	NY	Right	Yes	0.737527700000101	0	627052	235
1225.751953125	1	decision	trialStart	4	185	5	foodImage.57	FOODEEG_Images\0587.jpg	NY	Right	Yes	0.810066300000472	0	627586	251
1226.794921875	2	decision	foodImageDisplay	4	185	5	foodImage.57	FOODEEG_Images\0587.jpg	NY	Right	Yes	0.810066300000472	0	628120	252
1228.859375	0.810066300000472	decision	choicePhaseStart	4	185	5	foodImage.57	FOODEEG_Images\0587.jpg	NY	Right	Yes	0.810066300000472	0	629177	253
1229.66015625	0	decision	response	4	185	5	foodImage.57	FOODEEG_Images\0587.jpg	NY	Right	Yes	0.810066300000472	0	629587	235
1230.701171875	1	decision	trialStart	4	186	6	foodImage.23	FOODEEG_Images\0244.jpg	YN	Left	Yes	1.21648379999988	0	630120	251
1231.744140625	2	decision	foodImageDisplay	4	186	6	foodImage.23	FOODEEG_Images\0244.jpg	YN	Left	Yes	1.21648379999988	0	630654	252
1233.810546875	1.21648379999988	decision	choicePhaseStart	4	186	6	foodImage.23	FOODEEG_Images\0244.jpg	YN	Left	Yes	1.21648379999988	0	631712	253
1235.01953125	0	decision	response	4	186	6	foodImage.23	FOODEEG_Images\0244.jpg	YN	Left	Yes	1.21648379999988	0	632331	234
1236.0625	1	decision	trialStart	4	187	7	foodImage.26	FOODEEG_Images\0262.jpg	YN	Left	Yes	0.638892999999371	0	632865	251
1237.109375	2	decision	foodImageDisplay	4	187	7	foodImage.26	FOODEEG_Images\0262.jpg	YN	Left	Yes	0.638892999999371	0	633401	252
1239.173828125	0.638892999999371	decision	choicePhaseStart	4	187	7	foodImage.26	FOODEEG_Images\0262.jpg	YN	Left	Yes	0.638892999999371	0	634458	253
1239.8046875	0	decision	response	4	187	7	foodImage.26	FOODEEG_Images\0262.jpg	YN	Left	Yes	0.638892999999371	0	634781	234
1240.845703125	1	taste	trialStart	4	188	8	foodImage.75	FOODEEG_Images\0763.jpg	NY	Right	Yes	1.00193760000002	0	635314	251
1241.890625	2	taste	foodImageDisplay	4	188	8	foodImage.75	FOODEEG_Images\0763.jpg	NY	Right	Yes	1.00193760000002	0	635849	252
1243.955078125	1.00193760000002	taste	choicePhaseStart	4	188	8	foodImage.75	FOODEEG_Images\0763.jpg	NY	Right	Yes	1.00193760000002	0	636906	253
1244.947265625	0	taste	response	4	188	8	foodImage.75	FOODEEG_Images\0763.jpg	NY	Right	Yes	1.00193760000002	0	637414	235
1245.990234375	1	taste	trialStart	4	189	9	foodImage.48	FOODEEG_Images\0494.jpg	NY	Left	No	0.954136399999697	0	637948	251
1247.03515625	2	taste	foodImageDisplay	4	189	9	foodImage.48	FOODEEG_Images\0494.jpg	NY	Left	No	0.954136399999697	0	638483	252
1249.09765625	0.954136399999697	taste	choicePhaseStart	4	189	9	foodImage.48	FOODEEG_Images\0494.jpg	NY	Left	No	0.954136399999697	0	639539	253
1250.04296875	0	taste	response	4	189	9	foodImage.48	FOODEEG_Images\0494.jpg	NY	Left	No	0.954136399999697	0	640023	234
1251.0859375	1	taste	trialStart	4	190	10	foodImage.81	FOODEEG_Images\0797.jpg	YN	Left	Yes	1.32200439999997	0	640557	251
1252.14453125	2	taste	foodImageDisplay	4	190	10	foodImage.81	FOODEEG_Images\0797.jpg	YN	Left	Yes	1.32200439999997	0	641099	252
1254.208984375	1.32200439999997	taste	choicePhaseStart	4	190	10	foodImage.81	FOODEEG_Images\0797.jpg	YN	Left	Yes	1.32200439999997	0	642156	253
1255.5234375	0	taste	response	4	190	10	foodImage.81	FOODEEG_Images\0797.jpg	YN	Left	Yes	1.32200439999997	0	642829	234
1256.56640625	1	taste	trialStart	4	191	11	foodImage.26	FOODEEG_Images\0262.jpg	YN	Left	Yes	0.723912299999938	0	643363	251
1257.607421875	2	taste	foodImageDisplay	4	191	11	foodImage.26	FOODEEG_Images\0262.jpg	YN	Left	Yes	0.723912299999938	0	643896	252
1259.671875	0.723912299999938	taste	choicePhaseStart	4	191	11	foodImage.26	FOODEEG_Images\0262.jpg	YN	Left	Yes	0.723912299999938	0	644953	253
1260.38671875	0	taste	response	4	191	11	foodImage.26	FOODEEG_Images\0262.jpg	YN	Left	Yes	0.723912299999938	0	645319	234
1261.4296875	1	decision	trialStart	4	192	12	foodImage.92	FOODEEG_Images\0900.jpg	YN	Right	No	0.85068179999962	0	645853	251
1262.47265625	2	decision	foodImageDisplay	4	192	12	foodImage.92	FOODEEG_Images\0900.jpg	YN	Right	No	0.85068179999962	0	646387	252
1264.537109375	0.85068179999962	decision	choicePhaseStart	4	192	12	foodImage.92	FOODEEG_Images\0900.jpg	YN	Right	No	0.85068179999962	0	647444	253
1265.37890625	0	decision	response	4	192	12	foodImage.92	FOODEEG_Images\0900.jpg	YN	Right	No	0.85068179999962	0	647875	235
1266.421875	1	taste	trialStart	4	193	13	foodImage.65	FOODEEG_Images\0658.jpg	YN	Right	No	0.673541199999818	0	648409	251
