onset	duration	trial_type	event_type	block	trial_total	trial_in_block	food_image_code	food_image_path	button_position	resp_position	resp_choice	choice_rt	resp_too_slow	sample	trigger
296.22265625	2	n/a	blockStart	1	n/a	n/a	n/a	n/a	n/a	n/a	n/a	n/a	n/a	151667	250
298.2578125	1	decision	trialStart	1	1	1	foodImage.100	FOODEEG_Images\0908.jpg	YN	Right	No	1.00530509999953	0	152709	251
299.3046875	2	decision	foodImageDisplay	1	1	1	foodImage.100	FOODEEG_Images\0908.jpg	YN	Right	No	1.00530509999953	0	153245	252
301.373046875	1.00530509999953	decision	choicePhaseStart	1	1	1	foodImage.100	FOODEEG_Images\0908.jpg	YN	Right	No	1.00530509999953	0	154304	253
302.375	0	decision	response	1	1	1	foodImage.100	FOODEEG_Images\0908.jpg	YN	Right	No	1.00530509999953	0	154817	235
303.486328125	1	decision	trialStart	1	2	2	foodImage.20	FOODEEG_Images\0226.jpg	YN	Left	Yes	1.69190960004926	0	155386	251
304.529296875	2	decision	foodImageDisplay	1	2	2	foodImage.20	FOODEEG_Images\0226.jpg	YN	Left	Yes	1.69190960004926	0	155920	252
306.59375	1.69190960004926	decision	choicePhaseStart	1	2	2	foodImage.20	FOODEEG_Images\0226.jpg	YN	Left	Yes	1.69190960004926	0	156977	253
308.279296875	0	decision	response	1	2	2	foodImage.20	FOODEEG_Images\0226.jpg	YN	Left	Yes	1.69190960004926	0	157840	234
309.330078125	1	decision	trialStart	1	3	3	foodImage.25	FOODEEG_Images\0261.jpg	YN	Left	Yes	1.37078860006295	0	158378	251
310.373046875	2	decision	foodImageDisplay	1	3	3	foodImage.25	FOODEEG_Images\0261.jpg	YN	Left	Yes	1.37078860006295	0	158912	252
312.4375	1.37078860006295	decision	choicePhaseStart	1	3	3	foodImage.25	FOODEEG_Images\0261.jpg	YN	Left	Yes	1.37078860006295	0	159969	253
313.798828125	0	decision	response	1	3	3	foodImage.25	FOODEEG_Images\0261.jpg	YN	Left	Yes	1.37078860006295	0	160666	234
314.83984375	1	decision	trialStart	1	4	4	foodImage.56	FOODEEG_Images\0586.jpg	YN	Left	Yes	0.683605900034308	0	161199	251
315.8828125	2	decision	foodImageDisplay	1	4	4	foodImage.56	FOODEEG_Images\0586.jpg	YN	Left	Yes	0.683605900034308	0	161733	252
317.947265625	0.683605900034308	decision	choicePhaseStart	1	4	4	foodImage.56	FOODEEG_Images\0586.jpg	YN	Left	Yes	0.683605900034308	0	162790	253
318.623046875	0	decision	response	1	4	4	foodImage.56	FOODEEG_Images\0586.jpg	YN	Left	Yes	0.683605900034308	0	163136	234
319.666015625	1	taste	trialStart	1	5	5	foodImage.118	FOODEEG_Images\0926.jpg	NY	Left	No	1.05020880000666	0	163670	251
320.708984375	2	taste	foodImageDisplay	1	5	5	foodImage.118	FOODEEG_Images\0926.jpg	NY	Left	No	1.05020880000666	0	164204	252
322.7734375	1.05020880000666	taste	choicePhaseStart	1	5	5	foodImage.118	FOODEEG_Images\0926.jpg	NY	Left	No	1.05020880000666	0	165261	253
323.814453125	0	taste	response	1	5	5	foodImage.118	FOODEEG_Images\0926.jpg	NY	Left	No	1.05020880000666	0	165794	234
324.86328125	1	health	trialStart	1	6	6	foodImage.2	FOODEEG_Images\0028.jpg	NY	Left	No	1.10254339990206	0	166331	251
325.908203125	2	health	foodImageDisplay	1	6	6	foodImage.2	FOODEEG_Images\0028.jpg	NY	Left	No	1.10254339990206	0	166866	252
327.9765625	1.10254339990206	health	choicePhaseStart	1	6	6	foodImage.2	FOODEEG_Images\0028.jpg	NY	Left	No	1.10254339990206	0	167925	253
329.072265625	0	health	response	1	6	6	foodImage.2	FOODEEG_Images\0028.jpg	NY	Left	No	1.10254339990206	0	168486	234
330.115234375	1	taste	trialStart	1	7	7	foodImage.70	FOODEEG_Images\0705.jpg	NY	Right	Yes	0.762900700094178	0	169020	251
331.173828125	2	taste	foodImageDisplay	1	7	7	foodImage.70	FOODEEG_Images\0705.jpg	NY	Right	Yes	0.762900700094178	0	169562	252
333.236328125	0.762900700094178	taste	choicePhaseStart	1	7	7	foodImage.70	FOODEEG_Images\0705.jpg	NY	Right	Yes	0.762900700094178	0	170618	253
333.990234375	0	taste	response	1	7	7	foodImage.70	FOODEEG_Images\0705.jpg	NY	Right	Yes	0.762900700094178	0	171004	235
335.03125	1	decision	trialStart	1	8	8	foodImage.99	FOODEEG_Images\0907.jpg	YN	Right	No	0.869562099920586	0	171537	251
336.0703125	2	decision	foodImageDisplay	1	8	8	foodImage.99	FOODEEG_Images\0907.jpg	YN	Right	No	0.869562099920586	0	172069	252
338.134765625	0.869562099920586	decision	choicePhaseStart	1	8	8	foodImage.99	FOODEEG_Images\0907.jpg	YN	Right	No	0.869562099920586	0	173126	253
338.998046875	0	decision	response	1	8	8	foodImage.99	FOODEEG_Images\0907.jpg	YN	Right	No	0.869562099920586	0	173568	235
340.041015625	1	health	trialStart	1	9	9	foodImage.4	FOODEEG_Images\0065.jpg	NY	Left	No	1.00351329986006	0	174102	251
341.099609375	2	health	foodImageDisplay	1	9	9	foodImage.4	FOODEEG_Images\0065.jpg	NY	Left	No	1.00351329986006	0	174644	252
343.162109375	1.00351329986006	health	choicePhaseStart	1	9	9	foodImage.4	FOODEEG_Images\0065.jpg	NY	Left	No	1.00351329986006	0	175700	253
344.158203125	0	health	response	1	9	9	foodImage.4	FOODEEG_Images\0065.jpg	NY	Left	No	1.00351329986006	0	176210	234
345.201171875	1	taste	trialStart	1	10	10	foodImage.69	FOODEEG_Images\0693.jpg	NY	Right	Yes	0.755965800024569	0	176744	251
346.2421875	2	taste	foodImageDisplay	1	10	10	foodImage.69	FOODEEG_Images\0693.jpg	NY	Right	Yes	0.755965800024569	0	177277	252
348.3046875	0.755965800024569	taste	choicePhaseStart	1	10	10	foodImage.69	FOODEEG_Images\0693.jpg	NY	Right	Yes	0.755965800024569	0	178333	253
349.0546875	0	taste	response	1	10	10	foodImage.69	FOODEEG_Images\0693.jpg	NY	Right	Yes	0.755965800024569	0	178717	235
350.09765625	1	health	trialStart	1	11	11	foodImage.85	FOODEEG_Images\0841.jpg	YN	Right	No	1.07322150003165	0	179251	251
351.158203125	2	health	foodImageDisplay	1	11	11	foodImage.85	FOODEEG_Images\0841.jpg	YN	Right	No	1.07322150003165	0	179794	252
353.220703125	1.07322150003165	health	choicePhaseStart	1	11	11	foodImage.85	FOODEEG_Images\0841.jpg	YN	Right	No	1.07322150003165	0	180850	253
354.287109375	0	health	response	1	11	11	foodImage.85	FOODEEG_Images\0841.jpg	YN	Right	No	1.07322150003165	0	181396	235
355.330078125	1	taste	trialStart	1	12	12	foodImage.60	FOODEEG_Images\0614.jpg	NY	Right	Yes	1.29863890004344	0	181930	251
356.388671875	2	taste	foodImageDisplay	1	12	12	foodImage.60	FOODEEG_Images\0614.jpg	NY	Right	Yes	1.29863890004344	0	182472	252
358.451171875	1.29863890004344	taste	choicePhaseStart	1	12	12	foodImage.60	FOODEEG_Images\0614.jpg	NY	Right	Yes	1.29863890004344	0	183528	253
359.7421875	0	taste	response	1	12	12	foodImage.60	FOODEEG_Images\0614.jpg	NY	Right	Yes	1.29863890004344	0	184189	235
360.783203125	1	health	trialStart	1	13	13	foodImage.19	FOODEEG_Images\0225.jpg	NY	Right	Yes	1.1177250999026	0	184722	251
361.826171875	2	health	foodImageDisplay	1	13	13	foodImage.19	FOODEEG_Images\0225.jpg	NY	Right	Yes	1.1177250999026	0	185256	252
363.888671875	1.1177250999026	health	choicePhaseStart	1	13	13	foodImage.19	FOODEEG_Images\0225.jpg	NY	Right	Yes	1.1177250999026	0	186312	253
364.99609375	0	health	response	1	13	13	foodImage.19	FOODEEG_Images\0225.jpg	NY	Right	Yes	1.1177250999026	0	186879	235
366.037109375	1	taste	trialStart	1	14	14	foodImage.90	FOODEEG_Images\0890.jpg	YN	Left	Yes	0.82462660013698	0	187412	251
367.09375	2	taste	foodImageDisplay	1	14	14	foodImage.90	FOODEEG_Images\0890.jpg	YN	Left	Yes	0.82462660013698	0	187953	252
369.15625	0.82462660013698	taste	choicePhaseStart	1	14	14	foodImage.90	FOODEEG_Images\0890.jpg	YN	Left	Yes	0.82462660013698	0	189009	253
369.97265625	0	taste	response	1	14	14	foodImage.90	FOODEEG_Images\0890.jpg	YN	Left	Yes	0.82462660013698	0	189427	234
371.01171875	1	health	trialStart	1	15	15	foodImage.40	FOODEEG_Images\0373.jpg	NY	Left	No	0.855565599864349	0	189959	251
372.0546875	2	health	foodImageDisplay	1	15	15	foodImage.40	FOODEEG_Images\0373.jpg	NY	Left	No	0.855565599864349	0	190493	252
374.1171875	0.855565599864349	health	choicePhaseStart	1	15	15	foodImage.40	FOODEEG_Images\0373.jpg	NY	Left	No	0.855565599864349	0	191549	253
374.96484375	0	health	response	1	15	15	foodImage.40	FOODEEG_Images\0373.jpg	NY	Left	No	0.855565599864349	0	191983	234
376.0078125	1	health	trialStart	1	16	16	foodImage.70	FOODEEG_Images\0705.jpg	NY	Left	No	0.973503799876198	0	192517	251
377.064453125	2	health	foodImageDisplay	1	16	16	foodImage.70	FOODEEG_Images\0705.jpg	NY	Left	No	0.973503799876198	0	193058	252
379.12890625	0.973503799876198	health	choicePhaseStart	1	16	16	foodImage.70	FOODEEG_Images\0705.jpg	NY	Left	No	0.973503799876198	0	194115	253
380.091796875	0	health	response	1	16	16	foodImage.70	FOODEEG_Images\0705.jpg	NY	Left	No	0.973503799876198	0	194608	234
381.1328125	1	decision	trialStart	1	17	17	foodImage.117	FOODEEG_Images\0925.jpg	NY	Right	Yes	0.772083700168878	0	195141	251
382.169921875	2	decision	foodImageDisplay	1	17	17	foodImage.117	FOODEEG_Images\0925.jpg	NY	Right	Yes	0.772083700168878	0	195672	252
384.232421875	0.772083700168878	decision	choicePhaseStart	1	17	17	foodImage.117	FOODEEG_Images\0925.jpg	NY	Right	Yes	0.772083700168878	0	196728	253
384.99609375	0	decision	response	1	17	17	foodImage.117	FOODEEG_Images\0925.jpg	NY	Right	Yes	0.772083700168878	0	197119	235
386.03515625	1	decision	trialStart	1	18	18	foodImage.8	FOODEEG_Images\0136.jpg	YN	Right	No	0.709679799852893	0	197651	251
387.078125	2	decision	foodImageDisplay	1	18	18	foodImage.8	FOODEEG_Images\0136.jpg	YN	Right	No	0.709679799852893	0	198185	252
389.140625	0.709679799852893	decision	choicePhaseStart	1	18	18	foodImage.8	FOODEEG_Images\0136.jpg	YN	Right	No	0.709679799852893	0	199241	253
389.84375	0	decision	response	1	18	18	foodImage.8	FOODEEG_Images\0136.jpg	YN	Right	No	0.709679799852893	0	199601	235
390.8828125	1	health	trialStart	1	19	19	foodImage.47	FOODEEG_Images\0488.jpg	YN	Right	No	0.998097499832511	0	200133	251
391.935546875	2	health	foodImageDisplay	1	19	19	foodImage.47	FOODEEG_Images\0488.jpg	YN	Right	No	0.998097499832511	0	200672	252
393.998046875	0.998097499832511	health	choicePhaseStart	1	19	19	foodImage.47	FOODEEG_Images\0488.jpg	YN	Right	No	0.998097499832511	0	201728	253
394.98828125	0	health	response	1	19	19	foodImage.47	FOODEEG_Images\0488.jpg	YN	Right	No	0.998097499832511	0	202235	235
396.02734375	1	decision	trialStart	1	20	20	foodImage.33	FOODEEG_Images\0329.jpg	NY	Left	No	0.81609099986963	0	202767	251
397.0703125	2	decision	foodImageDisplay	1	20	20	foodImage.33	FOODEEG_Images\0329.jpg	NY	Left	No	0.81609099986963	0	203301	252
399.1328125	0.81609099986963	decision	choicePhaseStart	1	20	20	foodImage.33	FOODEEG_Images\0329.jpg	NY	Left	No	0.81609099986963	0	204357	253
399.939453125	0	decision	response	1	20	20	foodImage.33	FOODEEG_Images\0329.jpg	NY	Left	No	0.81609099986963	0	204770	234
400.978515625	1	health	trialStart	1	21	21	foodImage.29	FOODEEG_Images\0278.jpg	NY	Right	Yes	1.21239150012843	0	205302	251
402.025390625	2	health	foodImageDisplay	1	21	21	foodImage.29	FOODEEG_Images\0278.jpg	NY	Right	Yes	1.21239150012843	0	205838	252
404.087890625	1.21239150012843	health	choicePhaseStart	1	21	21	foodImage.29	FOODEEG_Images\0278.jpg	NY	Right	Yes	1.21239150012843	0	206894	253
405.291015625	0	health	response	1	21	21	foodImage.29	FOODEEG_Images\0278.jpg	NY	Right	Yes	1.21239150012843	0	207510	235
406.333984375	1	taste	trialStart	1	22	22	foodImage.2	FOODEEG_Images\0028.jpg	NY	Right	Yes	0.700186599977314	0	208044	251
407.376953125	2	taste	foodImageDisplay	1	22	22	foodImage.2	FOODEEG_Images\0028.jpg	NY	Right	Yes	0.700186599977314	0	208578	252
409.439453125	0.700186599977314	taste	choicePhaseStart	1	22	22	foodImage.2	FOODEEG_Images\0028.jpg	NY	Right	Yes	0.700186599977314	0	209634	253
410.130859375	0	taste	response	1	22	22	foodImage.2	FOODEEG_Images\0028.jpg	NY	Right	Yes	0.700186599977314	0	209988	235
411.171875	1	taste	trialStart	1	23	23	foodImage.111	FOODEEG_Images\0919.jpg	NY	Left	No	1.22681819996797	0	210521	251
412.208984375	2	taste	foodImageDisplay	1	23	23	foodImage.111	FOODEEG_Images\0919.jpg	NY	Left	No	1.22681819996797	0	211052	252
414.2734375	1.22681819996797	taste	choicePhaseStart	1	23	23	foodImage.111	FOODEEG_Images\0919.jpg	NY	Left	No	1.22681819996797	0	212109	253
415.490234375	0	taste	response	1	23	23	foodImage.111	FOODEEG_Images\0919.jpg	NY	Left	No	1.22681819996797	0	212732	234
416.537109375	1	health	trialStart	1	24	24	foodImage.60	FOODEEG_Images\0614.jpg	YN	Left	Yes	1.15318240015768	0	213268	251
417.595703125	2	health	foodImageDisplay	1	24	24	foodImage.60	FOODEEG_Images\0614.jpg	YN	Left	Yes	1.15318240015768	0	213810	252
419.658203125	1.15318240015768	health	choicePhaseStart	1	24	24	foodImage.60	FOODEEG_Images\0614.jpg	YN	Left	Yes	1.15318240015768	0	214866	253
420.802734375	0	health	response	1	24	24	foodImage.60	FOODEEG_Images\0614.jpg	YN	Left	Yes	1.15318240015768	0	215452	234
421.845703125	1	health	trialStart	1	25	25	foodImage.110	FOODEEG_Images\0918.jpg	YN	Right	No	1.18308370001614	0	215986	251
422.884765625	2	health	foodImageDisplay	1	25	25	foodImage.110	FOODEEG_Images\0918.jpg	YN	Right	No	1.18308370001614	0	216518	252
424.947265625	1.18308370001614	health	choicePhaseStart	1	25	25	foodImage.110	FOODEEG_Images\0918.jpg	YN	Right	No	1.18308370001614	0	217574	253
426.123046875	0	health	response	1	25	25	foodImage.110	FOODEEG_Images\0918.jpg	YN	Right	No	1.18308370001614	0	218176	235
427.162109375	1	health	trialStart	1	26	26	foodImage.111	FOODEEG_Images\0919.jpg	YN	Right	No	0.526961199939251	0	218708	251
428.197265625	2	health	foodImageDisplay	1	26	26	foodImage.111	FOODEEG_Images\0919.jpg	YN	Right	No	0.526961199939251	0	219238	252
430.259765625	0.526961199939251	health	choicePhaseStart	1	26	26	foodImage.111	FOODEEG_Images\0919.jpg	YN	Right	No	0.526961199939251	0	220294	253
430.77734375	0	health	response	1	26	26	foodImage.111	FOODEEG_Images\0919.jpg	YN	Right	No	0.526961199939251	0	220559	235
431.8203125	1	taste	trialStart	1	27	27	foodImage.54	FOODEEG_Images\0560.jpg	NY	Left	No	1.25867000012659	0	221093	251
432.880859375	2	taste	foodImageDisplay	1	27	27	foodImage.54	FOODEEG_Images\0560.jpg	NY	Left	No	1.25867000012659	0	221636	252
434.943359375	1.25867000012659	taste	choicePhaseStart	1	27	27	foodImage.54	FOODEEG_Images\0560.jpg	NY	Left	No	1.25867000012659	0	222692	253
436.193359375	0	taste	response	1	27	27	foodImage.54	FOODEEG_Images\0560.jpg	NY	Left	No	1.25867000012659	0	223332	234
437.234375	1	decision	trialStart	1	28	28	foodImage.9	FOODEEG_Images\0138.jpg	YN	Left	Yes	0.746275800047442	0	223865	251
438.291015625	2	decision	foodImageDisplay	1	28	28	foodImage.9	FOODEEG_Images\0138.jpg	YN	Left	Yes	0.746275800047442	0	224406	252
440.353515625	0.746275800047442	decision	choicePhaseStart	1	28	28	foodImage.9	FOODEEG_Images\0138.jpg	YN	Left	Yes	0.746275800047442	0	225462	253
441.08984375	0	decision	response	1	28	28	foodImage.9	FOODEEG_Images\0138.jpg	YN	Left	Yes	0.746275800047442	0	225839	234
442.1328125	1	decision	trialStart	1	29	29	foodImage.54	FOODEEG_Images\0560.jpg	NY	Left	No	1.17398290010169	0	226373	251
443.189453125	2	decision	foodImageDisplay	1	29	29	foodImage.54	FOODEEG_Images\0560.jpg	NY	Left	No	1.17398290010169	0	226914	252
445.251953125	1.17398290010169	decision	choicePhaseStart	1	29	29	foodImage.54	FOODEEG_Images\0560.jpg	NY	Left	No	1.17398290010169	0	227970	253
446.41796875	0	decision	response	1	29	29	foodImage.54	FOODEEG_Images\0560.jpg	NY	Left	No	1.17398290010169	0	228567	234
447.458984375	1	taste	trialStart	1	30	30	foodImage.43	FOODEEG_Images\0445.jpg	YN	Right	No	1.78691669995897	0	229100	251
448.521484375	2	taste	foodImageDisplay	1	30	30	foodImage.43	FOODEEG_Images\0445.jpg	YN	Right	No	1.78691669995897	0	229644	252
450.583984375	1.78691669995897	taste	choicePhaseStart	1	30	30	foodImage.43	FOODEEG_Images\0445.jpg	YN	Right	No	1.78691669995897	0	230700	253
452.361328125	0	taste	response	1	30	30	foodImage.43	FOODEEG_Images\0445.jpg	YN	Right	No	1.78691669995897	0	231610	235
453.40234375	1	health	trialStart	1	31	31	foodImage.10	FOODEEG_Images\0145.jpg	YN	Left	Yes	0.943837999831885	0	232143	251
454.4765625	2	health	foodImageDisplay	1	31	31	foodImage.10	FOODEEG_Images\0145.jpg	YN	Left	Yes	0.943837999831885	0	232693	252
456.5390625	0.943837999831885	health	choicePhaseStart	1	31	31	foodImage.10	FOODEEG_Images\0145.jpg	YN	Left	Yes	0.943837999831885	0	233749	253
457.47265625	0	health	response	1	31	31	foodImage.10	FOODEEG_Images\0145.jpg	YN	Left	Yes	0.943837999831885	0	234227	234
458.51953125	1	health	trialStart	1	32	32	foodImage.33	FOODEEG_Images\0329.jpg	NY	Right	Yes	0.674165699863806	0	234763	251
459.560546875	2	health	foodImageDisplay	1	32	32	foodImage.33	FOODEEG_Images\0329.jpg	NY	Right	Yes	0.674165699863806	0	235296	252
461.625	0.674165699863806	health	choicePhaseStart	1	32	32	foodImage.33	FOODEEG_Images\0329.jpg	NY	Right	Yes	0.674165699863806	0	236353	253
462.2890625	0	health	response	1	32	32	foodImage.33	FOODEEG_Images\0329.jpg	NY	Right	Yes	0.674165699863806	0	236693	235
463.328125	1	taste	trialStart	1	33	33	foodImage.16	FOODEEG_Images\0196.jpg	YN	Right	No	1.11147700017318	0	237225	251
464.388671875	2	taste	foodImageDisplay	1	33	33	foodImage.16	FOODEEG_Images\0196.jpg	YN	Right	No	1.11147700017318	0	237768	252
466.45703125	1.11147700017318	taste	choicePhaseStart	1	33	33	foodImage.16	FOODEEG_Images\0196.jpg	YN	Right	No	1.11147700017318	0	238827	253
467.560546875	0	taste	response	1	33	33	foodImage.16	FOODEEG_Images\0196.jpg	YN	Right	No	1.11147700017318	0	239392	235
468.6015625	1	health	trialStart	1	34	34	foodImage.98	FOODEEG_Images\0906.jpg	YN	Left	Yes	0.969913899898529	0	239925	251
469.640625	2	health	foodImageDisplay	1	34	34	foodImage.98	FOODEEG_Images\0906.jpg	YN	Left	Yes	0.969913899898529	0	240457	252
471.703125	0.969913899898529	health	choicePhaseStart	1	34	34	foodImage.98	FOODEEG_Images\0906.jpg	YN	Left	Yes	0.969913899898529	0	241513	253
472.6640625	0	health	response	1	34	34	foodImage.98	FOODEEG_Images\0906.jpg	YN	Left	Yes	0.969913899898529	0	242005	234
473.705078125	1	taste	trialStart	1	35	35	foodImage.78	FOODEEG_Images\0787.jpg	NY	Left	No	0.981450600083917	0	242538	251
474.75	2	taste	foodImageDisplay	1	35	35	foodImage.78	FOODEEG_Images\0787.jpg	NY	Left	No	0.981450600083917	0	243073	252
476.8125	0.981450600083917	taste	choicePhaseStart	1	35	35	foodImage.78	FOODEEG_Images\0787.jpg	NY	Left	No	0.981450600083917	0	244129	253
477.78515625	0	taste	response	1	35	35	foodImage.78	FOODEEG_Images\0787.jpg	NY	Left	No	0.981450600083917	0	244627	234
478.828125	1	health	trialStart	1	36	36	foodImage.119	FOODEEG_Images\0927.jpg	NY	Left	No	1.33618750004098	0	245161	251
479.8671875	2	health	foodImageDisplay	1	36	36	foodImage.119	FOODEEG_Images\0927.jpg	NY	Left	No	1.33618750004098	0	245693	252
481.9296875	1.33618750004098	health	choicePhaseStart	1	36	36	foodImage.119	FOODEEG_Images\0927.jpg	NY	Left	No	1.33618750004098	0	246749	253
483.255859375	0	health	response	1	36	36	foodImage.119	FOODEEG_Images\0927.jpg	NY	Left	No	1.33618750004098	0	247428	234
484.30078125	1	taste	trialStart	1	37	37	foodImage.89	FOODEEG_Images\0881.jpg	YN	Left	Yes	0.916672399966046	0	247963	251
485.357421875	2	taste	foodImageDisplay	1	37	37	foodImage.89	FOODEEG_Images\0881.jpg	YN	Left	Yes	0.916672399966046	0	248504	252
487.419921875	0.916672399966046	taste	choicePhaseStart	1	37	37	foodImage.89	FOODEEG_Images\0881.jpg	YN	Left	Yes	0.916672399966046	0	249560	253
488.328125	0	taste	response	1	37	37	foodImage.89	FOODEEG_Images\0881.jpg	YN	Left	Yes	0.916672399966046	0	250025	234
489.373046875	1	health	trialStart	1	38	38	foodImage.7	FOODEEG_Images\0116.jpg	NY	Right	Yes	0.744552599964663	0	250560	251
490.416015625	2	health	foodImageDisplay	1	38	38	foodImage.7	FOODEEG_Images\0116.jpg	NY	Right	Yes	0.744552599964663	0	251094	252
492.48046875	0.744552599964663	health	choicePhaseStart	1	38	38	foodImage.7	FOODEEG_Images\0116.jpg	NY	Right	Yes	0.744552599964663	0	252151	253
493.21484375	0	health	response	1	38	38	foodImage.7	FOODEEG_Images\0116.jpg	NY	Right	Yes	0.744552599964663	0	252527	235
494.2578125	1	decision	trialStart	1	39	39	foodImage.111	FOODEEG_Images\0919.jpg	NY	Left	No	0.640085099963471	0	253061	251
495.296875	2	decision	foodImageDisplay	1	39	39	foodImage.111	FOODEEG_Images\0919.jpg	NY	Left	No	0.640085099963471	0	253593	252
497.359375	0.640085099963471	decision	choicePhaseStart	1	39	39	foodImage.111	FOODEEG_Images\0919.jpg	NY	Left	No	0.640085099963471	0	254649	253
497.9921875	0	decision	response	1	39	39	foodImage.111	FOODEEG_Images\0919.jpg	NY	Left	No	0.640085099963471	0	254973	234
499.033203125	1	decision	trialStart	1	40	40	foodImage.89	FOODEEG_Images\0881.jpg	NY	Right	Yes	0.62395799998194	0	255506	251
500.08984375	2	decision	foodImageDisplay	1	40	40	foodImage.89	FOODEEG_Images\0881.jpg	NY	Right	Yes	0.62395799998194	0	256047	252
502.15234375	0.62395799998194	decision	choicePhaseStart	1	40	40	foodImage.89	FOODEEG_Images\0881.jpg	NY	Right	Yes	0.62395799998194	0	257103	253
502.767578125	0	decision	response	1	40	40	foodImage.89	FOODEEG_Images\0881.jpg	NY	Right	Yes	0.62395799998194	0	257418	235
503.80859375	1	taste	trialStart	1	41	41	foodImage.92	FOODEEG_Images\0900.jpg	NY	Left	No	0.896598400082439	0	257951	251
504.857421875	2	taste	foodImageDisplay	1	41	41	foodImage.92	FOODEEG_Images\0900.jpg	NY	Left	No	0.896598400082439	0	258488	252
506.919921875	0.896598400082439	taste	choicePhaseStart	1	41	41	foodImage.92	FOODEEG_Images\0900.jpg	NY	Left	No	0.896598400082439	0	259544	253
507.806640625	0	taste	response	1	41	41	foodImage.92	FOODEEG_Images\0900.jpg	NY	Left	No	0.896598400082439	0	259998	234
508.84765625	1	decision	trialStart	1	42	42	foodImage.113	FOODEEG_Images\0921.jpg	NY	Left	No	0.745955300051719	0	260531	251
509.88671875	2	decision	foodImageDisplay	1	42	42	foodImage.113	FOODEEG_Images\0921.jpg	NY	Left	No	0.745955300051719	0	261063	252
511.94921875	0.745955300051719	decision	choicePhaseStart	1	42	42	foodImage.113	FOODEEG_Images\0921.jpg	NY	Left	No	0.745955300051719	0	262119	253
512.6875	0	decision	response	1	42	42	foodImage.113	FOODEEG_Images\0921.jpg	NY	Left	No	0.745955300051719	0	262497	234
513.7265625	1	decision	trialStart	1	43	43	foodImage.114	FOODEEG_Images\0922.jpg	YN	Left	Yes	0.605157299898565	0	263029	251
514.763671875	2	decision	foodImageDisplay	1	43	43	foodImage.114	FOODEEG_Images\0922.jpg	YN	Left	Yes	0.605157299898565	0	263560	252
516.826171875	0.605157299898565	decision	choicePhaseStart	1	43	43	foodImage.114	FOODEEG_Images\0922.jpg	YN	Left	Yes	0.605157299898565	0	264616	253
517.423828125	0	decision	response	1	43	43	foodImage.114	FOODEEG_Images\0922.jpg	YN	Left	Yes	0.605157299898565	0	264922	234
518.46484375	1	health	trialStart	1	44	44	foodImage.41	FOODEEG_Images\0409.jpg	YN	Left	Yes	1.29176389984787	0	265455	251
519.51171875	2	health	foodImageDisplay	1	44	44	foodImage.41	FOODEEG_Images\0409.jpg	YN	Left	Yes	1.29176389984787	0	265991	252
521.580078125	1.29176389984787	health	choicePhaseStart	1	44	44	foodImage.41	FOODEEG_Images\0409.jpg	YN	Left	Yes	1.29176389984787	0	267050	253
522.86328125	0	health	response	1	44	44	foodImage.41	FOODEEG_Images\0409.jpg	YN	Left	Yes	1.29176389984787	0	267707	234
523.90625	1	taste	trialStart	1	45	45	foodImage.101	FOODEEG_Images\0909.jpg	YN	Right	No	0.929744699969888	0	268241	251
524.943359375	2	taste	foodImageDisplay	1	45	45	foodImage.101	FOODEEG_Images\0909.jpg	YN	Right	No	0.929744699969888	0	268772	252
527.005859375	0.929744699969888	taste	choicePhaseStart	1	45	45	foodImage.101	FOODEEG_Images\0909.jpg	YN	Right	No	0.929744699969888	0	269828	253
527.92578125	0	taste	response	1	45	45	foodImage.101	FOODEEG_Images\0909.jpg	YN	Right	No	0.929744699969888	0	270299	235
528.966796875	1	taste	trialStart	1	46	46	foodImage.83	FOODEEG_Images\0827.jpg	NY	Right	Yes	1.27831279998645	0	270832	251
530.02734375	2	taste	foodImageDisplay	1	46	46	foodImage.83	FOODEEG_Images\0827.jpg	NY	Right	Yes	1.27831279998645	0	271375	252
532.087890625	1.27831279998645	taste	choicePhaseStart	1	46	46	foodImage.83	FOODEEG_Images\0827.jpg	NY	Right	Yes	1.27831279998645	0	272430	253
533.357421875	0	taste	response	1	46	46	foodImage.83	FOODEEG_Images\0827.jpg	NY	Right	Yes	1.27831279998645	0	273080	235
534.400390625	1	decision	trialStart	1	47	47	foodImage.118	FOODEEG_Images\0926.jpg	NY	Left	No	0.738894599955529	0	273614	251
535.4375	2	decision	foodImageDisplay	1	47	47	foodImage.118	FOODEEG_Images\0926.jpg	NY	Left	No	0.738894599955529	0	274145	252
537.5	0.738894599955529	decision	choicePhaseStart	1	47	47	foodImage.118	FOODEEG_Images\0926.jpg	NY	Left	No	0.738894599955529	0	275201	253
538.23046875	0	decision	response	1	47	47	foodImage.118	FOODEEG_Images\0926.jpg	NY	Left	No	0.738894599955529	0	275575	234
539.271484375	1	taste	trialStart	1	48	48	foodImage.86	FOODEEG_Images\0844.jpg	NY	Right	Yes	0.812658900162205	0	276108	251
540.33203125	2	taste	foodImageDisplay	1	48	48	foodImage.86	FOODEEG_Images\0844.jpg	NY	Right	Yes	0.812658900162205	0	276651	252
542.39453125	0.812658900162205	taste	choicePhaseStart	1	48	48	foodImage.86	FOODEEG_Images\0844.jpg	NY	Right	Yes	0.812658900162205	0	277707	253
543.197265625	0	taste	response	1	48	48	foodImage.86	FOODEEG_Images\0844.jpg	NY	Right	Yes	0.812658900162205	0	278118	235
544.240234375	1	decision	trialStart	1	49	49	foodImage.91	FOODEEG_Images\0896.jpg	NY	Right	Yes	0.865291999885812	0	278652	251
545.302734375	2	decision	foodImageDisplay	1	49	49	foodImage.91	FOODEEG_Images\0896.jpg	NY	Right	Yes	0.865291999885812	0	279196	252
547.365234375	0.865291999885812	decision	choicePhaseStart	1	49	49	foodImage.91	FOODEEG_Images\0896.jpg	NY	Right	Yes	0.865291999885812	0	280252	253
548.220703125	0	decision	response	1	49	49	foodImage.91	FOODEEG_Images\0896.jpg	NY	Right	Yes	0.865291999885812	0	280690	235
549.265625	1	taste	trialStart	1	50	50	foodImage.66	FOODEEG_Images\0676.jpg	NY	Right	Yes	0.760736499913037	0	281225	251
550.310546875	2	taste	foodImageDisplay	1	50	50	foodImage.66	FOODEEG_Images\0676.jpg	NY	Right	Yes	0.760736499913037	0	281760	252
552.373046875	0.760736499913037	taste	choicePhaseStart	1	50	50	foodImage.66	FOODEEG_Images\0676.jpg	NY	Right	Yes	0.760736499913037	0	282816	253
553.125	0	taste	response	1	50	50	foodImage.66	FOODEEG_Images\0676.jpg	NY	Right	Yes	0.760736499913037	0	283201	235
554.166015625	1	decision	trialStart	1	51	51	foodImage.35	FOODEEG_Images\0350.jpg	YN	Left	Yes	0.91588110011071	0	283734	251
555.203125	2	decision	foodImageDisplay	1	51	51	foodImage.35	FOODEEG_Images\0350.jpg	YN	Left	Yes	0.91588110011071	0	284265	252
557.265625	0.91588110011071	decision	choicePhaseStart	1	51	51	foodImage.35	FOODEEG_Images\0350.jpg	YN	Left	Yes	0.91588110011071	0	285321	253
558.173828125	0	decision	response	1	51	51	foodImage.35	FOODEEG_Images\0350.jpg	YN	Left	Yes	0.91588110011071	0	285786	234
559.212890625	1	taste	trialStart	1	52	52	foodImage.55	FOODEEG_Images\0567.jpg	NY	Left	No	1.7945294000674	0	286318	251
560.26953125	2	taste	foodImageDisplay	1	52	52	foodImage.55	FOODEEG_Images\0567.jpg	NY	Left	No	1.7945294000674	0	286859	252
562.33203125	1.7945294000674	taste	choicePhaseStart	1	52	52	foodImage.55	FOODEEG_Images\0567.jpg	NY	Left	No	1.7945294000674	0	287915	253
564.1171875	0	taste	response	1	52	52	foodImage.55	FOODEEG_Images\0567.jpg	NY	Left	No	1.7945294000674	0	288829	234
565.158203125	1	decision	trialStart	1	53	53	foodImage.82	FOODEEG_Images\0805.jpg	NY	Left	No	0.756779300048947	0	289362	251
566.2109375	2	decision	foodImageDisplay	1	53	53	foodImage.82	FOODEEG_Images\0805.jpg	NY	Left	No	0.756779300048947	0	289901	252
568.2734375	0.756779300048947	decision	choicePhaseStart	1	53	53	foodImage.82	FOODEEG_Images\0805.jpg	NY	Left	No	0.756779300048947	0	290957	253
569.021484375	0	decision	response	1	53	53	foodImage.82	FOODEEG_Images\0805.jpg	NY	Left	No	0.756779300048947	0	291340	234
570.060546875	1	decision	trialStart	1	54	54	foodImage.55	FOODEEG_Images\0567.jpg	NY	Left	No	0.836161599960178	0	291872	251
571.115234375	2	decision	foodImageDisplay	1	54	54	foodImage.55	FOODEEG_Images\0567.jpg	NY	Left	No	0.836161599960178	0	292412	252
573.177734375	0.836161599960178	decision	choicePhaseStart	1	54	54	foodImage.55	FOODEEG_Images\0567.jpg	NY	Left	No	0.836161599960178	0	293468	253
574.00390625	0	decision	response	1	54	54	foodImage.55	FOODEEG_Images\0567.jpg	NY	Left	No	0.836161599960178	0	293891	234
575.046875	1	decision	trialStart	1	55	55	foodImage.41	FOODEEG_Images\0409.jpg	YN	Right	No	0.697774400003254	0	294425	251
576.09375	2	decision	foodImageDisplay	1	55	55	foodImage.41	FOODEEG_Images\0409.jpg	YN	Right	No	0.697774400003254	0	294961	252
578.15625	0.697774400003254	decision	choicePhaseStart	1	55	55	foodImage.41	FOODEEG_Images\0409.jpg	YN	Right	No	0.697774400003254	0	296017	253
578.84375	0	decision	response	1	55	55	foodImage.41	FOODEEG_Images\0409.jpg	YN	Right	No	0.697774400003254	0	296369	235
579.88671875	1	health	trialStart	1	56	56	foodImage.94	FOODEEG_Images\0902.jpg	YN	Right	No	2.90596600016579	0	296903	251
580.923828125	2	health	foodImageDisplay	1	56	56	foodImage.94	FOODEEG_Images\0902.jpg	YN	Right	No	2.90596600016579	0	297434	252
582.98828125	2.90596600016579	health	choicePhaseStart	1	56	56	foodImage.94	FOODEEG_Images\0902.jpg	YN	Right	No	2.90596600016579	0	298491	253
585.884765625	0	health	response	1	56	56	foodImage.94	FOODEEG_Images\0902.jpg	YN	Right	No	2.90596600016579	0	299974	235
586.927734375	1	taste	trialStart	1	57	57	foodImage.13	FOODEEG_Images\0183.jpg	NY	Left	No	1.45936920004897	0	300508	251
587.970703125	2	taste	foodImageDisplay	1	57	57	foodImage.13	FOODEEG_Images\0183.jpg	NY	Left	No	1.45936920004897	0	301042	252
590.033203125	1.45936920004897	taste	choicePhaseStart	1	57	57	foodImage.13	FOODEEG_Images\0183.jpg	NY	Left	No	1.45936920004897	0	302098	253
591.484375	0	taste	response	1	57	57	foodImage.13	FOODEEG_Images\0183.jpg	NY	Left	No	1.45936920004897	0	302841	234
592.52734375	1	taste	trialStart	1	58	58	foodImage.15	FOODEEG_Images\0189.jpg	NY	Right	Yes	0.741406500106677	0	303375	251
593.5859375	2	taste	foodImageDisplay	1	58	58	foodImage.15	FOODEEG_Images\0189.jpg	NY	Right	Yes	0.741406500106677	0	303917	252
595.6484375	0.741406500106677	taste	choicePhaseStart	1	58	58	foodImage.15	FOODEEG_Images\0189.jpg	NY	Right	Yes	0.741406500106677	0	304973	253
596.37890625	0	taste	response	1	58	58	foodImage.15	FOODEEG_Images\0189.jpg	NY	Right	Yes	0.741406500106677	0	305347	235
597.42578125	1	health	trialStart	1	59	59	foodImage.48	FOODEEG_Images\0494.jpg	NY	Left	No	0.68214530008845	0	305883	251
598.466796875	2	health	foodImageDisplay	1	59	59	foodImage.48	FOODEEG_Images\0494.jpg	NY	Left	No	0.68214530008845	0	306416	252
600.529296875	0.68214530008845	health	choicePhaseStart	1	59	59	foodImage.48	FOODEEG_Images\0494.jpg	NY	Left	No	0.68214530008845	0	307472	253
601.203125	0	health	response	1	59	59	foodImage.48	FOODEEG_Images\0494.jpg	NY	Left	No	0.68214530008845	0	307817	234
602.24609375	1	health	trialStart	1	60	60	foodImage.16	FOODEEG_Images\0196.jpg	NY	Right	Yes	0.872081999899819	0	308351	251
603.302734375	2	health	foodImageDisplay	1	60	60	foodImage.16	FOODEEG_Images\0196.jpg	NY	Right	Yes	0.872081999899819	0	308892	252
605.365234375	0.872081999899819	health	choicePhaseStart	1	60	60	foodImage.16	FOODEEG_Images\0196.jpg	NY	Right	Yes	0.872081999899819	0	309948	253
606.2265625	0	health	response	1	60	60	foodImage.16	FOODEEG_Images\0196.jpg	NY	Right	Yes	0.872081999899819	0	310389	235
608.26953125	15.25390625	n/a	blockEnd	n/a	n/a	n/a	n/a	n/a	n/a	n/a	n/a	n/a	n/a	311435	254
623.5234375	2	n/a	blockStart	2	n/a	n/a	n/a	n/a	n/a	n/a	n/a	n/a	n/a	319245	250
625.560546875	1	health	trialStart	2	61	1	foodImage.120	FOODEEG_Images\0928.jpg	YN	Right	No	1.20290470006876	0	320288	251
626.6015625	2	health	foodImageDisplay	2	61	1	foodImage.120	FOODEEG_Images\0928.jpg	YN	Right	No	1.20290470006876	0	320821	252
628.6640625	1.20290470006876	health	choicePhaseStart	2	61	1	foodImage.120	FOODEEG_Images\0928.jpg	YN	Right	No	1.20290470006876	0	321877	253
629.857421875	0	health	response	2	61	1	foodImage.120	FOODEEG_Images\0928.jpg	YN	Right	No	1.20290470006876	0	322488	235
630.90234375	1	taste	trialStart	2	62	2	foodImage.1	FOODEEG_Images\0004.jpg	YN	Right	No	1.39740799996071	0	323023	251
631.943359375	2	taste	foodImageDisplay	2	62	2	foodImage.1	FOODEEG_Images\0004.jpg	YN	Right	No	1.39740799996071	0	323556	252
634.005859375	1.39740799996071	taste	choicePhaseStart	2	62	2	foodImage.1	FOODEEG_Images\0004.jpg	YN	Right	No	1.39740799996071	0	324612	253
635.39453125	0	taste	response	2	62	2	foodImage.1	FOODEEG_Images\0004.jpg	YN	Right	No	1.39740799996071	0	325323	235
636.43359375	1	decision	trialStart	2	63	3	foodImage.15	FOODEEG_Images\0189.jpg	YN	Left	Yes	1.28245479986072	0	325855	251
637.490234375	2	decision	foodImageDisplay	2	63	3	foodImage.15	FOODEEG_Images\0189.jpg	YN	Left	Yes	1.28245479986072	0	326396	252
639.552734375	1.28245479986072	decision	choicePhaseStart	2	63	3	foodImage.15	FOODEEG_Images\0189.jpg	YN	Left	Yes	1.28245479986072	0	327452	253
640.826171875	0	decision	response	2	63	3	foodImage.15	FOODEEG_Images\0189.jpg	YN	Left	Yes	1.28245479986072	0	328104	234
641.869140625	1	health	trialStart	2	64	4	foodImage.52	FOODEEG_Images\0539.jpg	YN	Right	No	0.690276100067422	0	328638	251
642.9296875	2	health	foodImageDisplay	2	64	4	foodImage.52	FOODEEG_Images\0539.jpg	YN	Right	No	0.690276100067422	0	329181	252
644.9921875	0.690276100067422	health	choicePhaseStart	2	64	4	foodImage.52	FOODEEG_Images\0539.jpg	YN	Right	No	0.690276100067422	0	330237	253
645.673828125	0	health	response	2	64	4	foodImage.52	FOODEEG_Images\0539.jpg	YN	Right	No	0.690276100067422	0	330586	235
646.71484375	1	decision	trialStart	2	65	5	foodImage.80	FOODEEG_Images\0796.jpg	NY	Right	Yes	1.35244779987261	0	331119	251
647.771484375	2	decision	foodImageDisplay	2	65	5	foodImage.80	FOODEEG_Images\0796.jpg	NY	Right	Yes	1.35244779987261	0	331660	252
649.833984375	1.35244779987261	decision	choicePhaseStart	2	65	5	foodImage.80	FOODEEG_Images\0796.jpg	NY	Right	Yes	1.35244779987261	0	332716	253
651.177734375	0	decision	response	2	65	5	foodImage.80	FOODEEG_Images\0796.jpg	NY	Right	Yes	1.35244779987261	0	333404	235
652.220703125	1	health	trialStart	2	66	6	foodImage.83	FOODEEG_Images\0827.jpg	NY	Right	Yes	1.05434209993109	0	333938	251
653.279296875	2	health	foodImageDisplay	2	66	6	foodImage.83	FOODEEG_Images\0827.jpg	NY	Right	Yes	1.05434209993109	0	334480	252
655.341796875	1.05434209993109	health	choicePhaseStart	2	66	6	foodImage.83	FOODEEG_Images\0827.jpg	NY	Right	Yes	1.05434209993109	0	335536	253
656.384765625	0	health	response	2	66	6	foodImage.83	FOODEEG_Images\0827.jpg	NY	Right	Yes	1.05434209993109	0	336070	235
657.427734375	1	taste	trialStart	2	67	7	foodImage.115	FOODEEG_Images\0923.jpg	YN	Right	No	1.50352829997428	0	336604	251
658.466796875	2	taste	foodImageDisplay	2	67	7	foodImage.115	FOODEEG_Images\0923.jpg	YN	Right	No	1.50352829997428	0	337136	252
660.529296875	1.50352829997428	taste	choicePhaseStart	2	67	7	foodImage.115	FOODEEG_Images\0923.jpg	YN	Right	No	1.50352829997428	0	338192	253
662.025390625	0	taste	response	2	67	7	foodImage.115	FOODEEG_Images\0923.jpg	YN	Right	No	1.50352829997428	0	338958	235
663.068359375	1	health	trialStart	2	68	8	foodImage.59	FOODEEG_Images\0607.jpg	YN	Right	No	1.52999529987574	0	339492	251
664.12109375	2	health	foodImageDisplay	2	68	8	foodImage.59	FOODEEG_Images\0607.jpg	YN	Right	No	1.52999529987574	0	340031	252
666.18359375	1.52999529987574	health	choicePhaseStart	2	68	8	foodImage.59	FOODEEG_Images\0607.jpg	YN	Right	No	1.52999529987574	0	341087	253
667.705078125	0	health	response	2	68	8	foodImage.59	FOODEEG_Images\0607.jpg	YN	Right	No	1.52999529987574	0	341866	235
668.744140625	1	decision	trialStart	2	69	9	foodImage.70	FOODEEG_Images\0705.jpg	NY	Right	Yes	1.35592469992116	0	342398	251
669.81640625	2	decision	foodImageDisplay	2	69	9	foodImage.70	FOODEEG_Images\0705.jpg	NY	Right	Yes	1.35592469992116	0	342947	252
671.87890625	1.35592469992116	decision	choicePhaseStart	2	69	9	foodImage.70	FOODEEG_Images\0705.jpg	NY	Right	Yes	1.35592469992116	0	344003	253
673.224609375	0	decision	response	2	69	9	foodImage.70	FOODEEG_Images\0705.jpg	NY	Right	Yes	1.35592469992116	0	344692	235
674.267578125	1	taste	trialStart	2	70	10	foodImage.47	FOODEEG_Images\0488.jpg	NY	Right	Yes	2.20574249979109	0	345226	251
675.30859375	2	taste	foodImageDisplay	2	70	10	foodImage.47	FOODEEG_Images\0488.jpg	NY	Right	Yes	2.20574249979109	0	345759	252
677.37109375	2.20574249979109	taste	choicePhaseStart	2	70	10	foodImage.47	FOODEEG_Images\0488.jpg	NY	Right	Yes	2.20574249979109	0	346815	253
679.568359375	0	taste	response	2	70	10	foodImage.47	FOODEEG_Images\0488.jpg	NY	Right	Yes	2.20574249979109	0	347940	235
680.611328125	1	taste	trialStart	2	71	11	foodImage.63	FOODEEG_Images\0645.jpg	NY	Right	Yes	0.883330899989232	0	348474	251
681.654296875	2	taste	foodImageDisplay	2	71	11	foodImage.63	FOODEEG_Images\0645.jpg	NY	Right	Yes	0.883330899989232	0	349008	252
683.716796875	0.883330899989232	taste	choicePhaseStart	2	71	11	foodImage.63	FOODEEG_Images\0645.jpg	NY	Right	Yes	0.883330899989232	0	350064	253
684.591796875	0	taste	response	2	71	11	foodImage.63	FOODEEG_Images\0645.jpg	NY	Right	Yes	0.883330899989232	0	350512	235
685.634765625	1	decision	trialStart	2	72	12	foodImage.37	FOODEEG_Images\0359.jpg	YN	Right	No	0.798321399837732	0	351046	251
686.67578125	2	decision	foodImageDisplay	2	72	12	foodImage.37	FOODEEG_Images\0359.jpg	YN	Right	No	0.798321399837732	0	351579	252
688.73828125	0.798321399837732	decision	choicePhaseStart	2	72	12	foodImage.37	FOODEEG_Images\0359.jpg	YN	Right	No	0.798321399837732	0	352635	253
689.52734375	0	decision	response	2	72	12	foodImage.37	FOODEEG_Images\0359.jpg	YN	Right	No	0.798321399837732	0	353039	235
690.5703125	1	health	trialStart	2	73	13	foodImage.68	FOODEEG_Images\0685.jpg	NY	Right	Yes	1.50855519995093	0	353573	251
691.646484375	2	health	foodImageDisplay	2	73	13	foodImage.68	FOODEEG_Images\0685.jpg	NY	Right	Yes	1.50855519995093	0	354124	252
693.708984375	1.50855519995093	health	choicePhaseStart	2	73	13	foodImage.68	FOODEEG_Images\0685.jpg	NY	Right	Yes	1.50855519995093	0	355180	253
695.20703125	0	health	response	2	73	13	foodImage.68	FOODEEG_Images\0685.jpg	NY	Right	Yes	1.50855519995093	0	355947	235
696.25	1	health	trialStart	2	74	14	foodImage.53	FOODEEG_Images\0547.jpg	YN	Right	No	0.955824800068513	0	356481	251
697.310546875	2	health	foodImageDisplay	2	74	14	foodImage.53	FOODEEG_Images\0547.jpg	YN	Right	No	0.955824800068513	0	357024	252
699.373046875	0.955824800068513	health	choicePhaseStart	2	74	14	foodImage.53	FOODEEG_Images\0547.jpg	YN	Right	No	0.955824800068513	0	358080	253
700.3203125	0	health	response	2	74	14	foodImage.53	FOODEEG_Images\0547.jpg	YN	Right	No	0.955824800068513	0	358565	235
701.36328125	1	decision	trialStart	2	75	15	foodImage.45	FOODEEG_Images\0478.jpg	NY	Right	Yes	0.94537610001862	0	359099	251
702.408203125	2	decision	foodImageDisplay	2	75	15	foodImage.45	FOODEEG_Images\0478.jpg	NY	Right	Yes	0.94537610001862	0	359634	252
704.470703125	0.94537610001862	decision	choicePhaseStart	2	75	15	foodImage.45	FOODEEG_Images\0478.jpg	NY	Right	Yes	0.94537610001862	0	360690	253
705.408203125	0	decision	response	2	75	15	foodImage.45	FOODEEG_Images\0478.jpg	NY	Right	Yes	0.94537610001862	0	361170	235
706.455078125	1	taste	trialStart	2	76	16	foodImage.100	FOODEEG_Images\0908.jpg	YN	Right	No	0.895238399971277	0	361706	251
707.494140625	2	taste	foodImageDisplay	2	76	16	foodImage.100	FOODEEG_Images\0908.jpg	YN	Right	No	0.895238399971277	0	362238	252
709.560546875	0.895238399971277	taste	choicePhaseStart	2	76	16	foodImage.100	FOODEEG_Images\0908.jpg	YN	Right	No	0.895238399971277	0	363296	253
710.447265625	0	taste	response	2	76	16	foodImage.100	FOODEEG_Images\0908.jpg	YN	Right	No	0.895238399971277	0	363750	235
711.490234375	1	decision	trialStart	2	77	17	foodImage.2	FOODEEG_Images\0028.jpg	YN	Left	Yes	0.749730200041085	0	364284	251
712.53125	2	decision	foodImageDisplay	2	77	17	foodImage.2	FOODEEG_Images\0028.jpg	YN	Left	Yes	0.749730200041085	0	364817	252
714.59375	0.749730200041085	decision	choicePhaseStart	2	77	17	foodImage.2	FOODEEG_Images\0028.jpg	YN	Left	Yes	0.749730200041085	0	365873	253
715.3359375	0	decision	response	2	77	17	foodImage.2	FOODEEG_Images\0028.jpg	YN	Left	Yes	0.749730200041085	0	366253	234
716.37890625	1	taste	trialStart	2	78	18	foodImage.19	FOODEEG_Images\0225.jpg	YN	Left	Yes	1.74268480017781	0	366787	251
717.419921875	2	taste	foodImageDisplay	2	78	18	foodImage.19	FOODEEG_Images\0225.jpg	YN	Left	Yes	1.74268480017781	0	367320	252
719.482421875	1.74268480017781	taste	choicePhaseStart	2	78	18	foodImage.19	FOODEEG_Images\0225.jpg	YN	Left	Yes	1.74268480017781	0	368376	253
721.21484375	0	taste	response	2	78	18	foodImage.19	FOODEEG_Images\0225.jpg	YN	Left	Yes	1.74268480017781	0	369263	234
722.259765625	1	taste	trialStart	2	79	19	foodImage.4	FOODEEG_Images\0065.jpg	YN	Left	Yes	0.821153899887577	0	369798	251
723.31640625	2	taste	foodImageDisplay	2	79	19	foodImage.4	FOODEEG_Images\0065.jpg	YN	Left	Yes	0.821153899887577	0	370339	252
725.37890625	0.821153899887577	taste	choicePhaseStart	2	79	19	foodImage.4	FOODEEG_Images\0065.jpg	YN	Left	Yes	0.821153899887577	0	371395	253
726.19140625	0	taste	response	2	79	19	foodImage.4	FOODEEG_Images\0065.jpg	YN	Left	Yes	0.821153899887577	0	371811	234
727.232421875	1	health	trialStart	2	80	20	foodImage.35	FOODEEG_Images\0350.jpg	YN	Left	Yes	1.89328359998763	0	372344	251
728.28515625	2	health	foodImageDisplay	2	80	20	foodImage.35	FOODEEG_Images\0350.jpg	YN	Left	Yes	1.89328359998763	0	372883	252
730.34765625	1.89328359998763	health	choicePhaseStart	2	80	20	foodImage.35	FOODEEG_Images\0350.jpg	YN	Left	Yes	1.89328359998763	0	373939	253
732.23046875	0	health	response	2	80	20	foodImage.35	FOODEEG_Images\0350.jpg	YN	Left	Yes	1.89328359998763	0	374903	234
733.271484375	1	health	trialStart	2	81	21	foodImage.77	FOODEEG_Images\0771.jpg	YN	Left	Yes	1.96212180005386	0	375436	251
734.318359375	2	health	foodImageDisplay	2	81	21	foodImage.77	FOODEEG_Images\0771.jpg	YN	Left	Yes	1.96212180005386	0	375972	252
736.380859375	1.96212180005386	health	choicePhaseStart	2	81	21	foodImage.77	FOODEEG_Images\0771.jpg	YN	Left	Yes	1.96212180005386	0	377028	253
738.333984375	0	health	response	2	81	21	foodImage.77	FOODEEG_Images\0771.jpg	YN	Left	Yes	1.96212180005386	0	378028	234
739.376953125	1	health	trialStart	2	82	22	foodImage.87	FOODEEG_Images\0873.jpg	YN	Right	No	0.622259699972346	0	378562	251
740.43359375	2	health	foodImageDisplay	2	82	22	foodImage.87	FOODEEG_Images\0873.jpg	YN	Right	No	0.622259699972346	0	379103	252
742.49609375	0.622259699972346	health	choicePhaseStart	2	82	22	foodImage.87	FOODEEG_Images\0873.jpg	YN	Right	No	0.622259699972346	0	380159	253
743.109375	0	health	response	2	82	22	foodImage.87	FOODEEG_Images\0873.jpg	YN	Right	No	0.622259699972346	0	380473	235
744.150390625	1	health	trialStart	2	83	23	foodImage.57	FOODEEG_Images\0587.jpg	NY	Right	Yes	1.16282560001127	0	381006	251
745.193359375	2	health	foodImageDisplay	2	83	23	foodImage.57	FOODEEG_Images\0587.jpg	NY	Right	Yes	1.16282560001127	0	381540	252
747.2578125	1.16282560001127	health	choicePhaseStart	2	83	23	foodImage.57	FOODEEG_Images\0587.jpg	NY	Right	Yes	1.16282560001127	0	382597	253
748.4140625	0	health	response	2	83	23	foodImage.57	FOODEEG_Images\0587.jpg	NY	Right	Yes	1.16282560001127	0	383189	235
749.45703125	1	taste	trialStart	2	84	24	foodImage.35	FOODEEG_Images\0350.jpg	YN	Left	Yes	1.33548810007051	0	383723	251
750.49609375	2	taste	foodImageDisplay	2	84	24	foodImage.35	FOODEEG_Images\0350.jpg	YN	Left	Yes	1.33548810007051	0	384255	252
752.55859375	1.33548810007051	taste	choicePhaseStart	2	84	24	foodImage.35	FOODEEG_Images\0350.jpg	YN	Left	Yes	1.33548810007051	0	385311	253
753.884765625	0	taste	response	2	84	24	foodImage.35	FOODEEG_Images\0350.jpg	YN	Left	Yes	1.33548810007051	0	385990	234
754.927734375	1	decision	trialStart	2	85	25	foodImage.67	FOODEEG_Images\0679.jpg	YN	Left	Yes	0.925926200114191	0	386524	251
755.986328125	2	decision	foodImageDisplay	2	85	25	foodImage.67	FOODEEG_Images\0679.jpg	YN	Left	Yes	0.925926200114191	0	387066	252
758.048828125	0.925926200114191	decision	choicePhaseStart	2	85	25	foodImage.67	FOODEEG_Images\0679.jpg	YN	Left	Yes	0.925926200114191	0	388122	253
758.96484375	0	decision	response	2	85	25	foodImage.67	FOODEEG_Images\0679.jpg	YN	Left	Yes	0.925926200114191	0	388591	234
760.0078125	1	taste	trialStart	2	86	26	foodImage.52	FOODEEG_Images\0539.jpg	YN	Right	No	1.47464339993894	0	389125	251
761.06640625	2	taste	foodImageDisplay	2	86	26	foodImage.52	FOODEEG_Images\0539.jpg	YN	Right	No	1.47464339993894	0	389667	252
763.130859375	1.47464339993894	taste	choicePhaseStart	2	86	26	foodImage.52	FOODEEG_Images\0539.jpg	YN	Right	No	1.47464339993894	0	390724	253
764.59765625	0	taste	response	2	86	26	foodImage.52	FOODEEG_Images\0539.jpg	YN	Right	No	1.47464339993894	0	391475	235
765.640625	1	decision	trialStart	2	87	27	foodImage.75	FOODEEG_Images\0763.jpg	NY	Left	No	1.85574130015448	0	392009	251
766.6875	2	decision	foodImageDisplay	2	87	27	foodImage.75	FOODEEG_Images\0763.jpg	NY	Left	No	1.85574130015448	0	392545	252
768.75	1.85574130015448	decision	choicePhaseStart	2	87	27	foodImage.75	FOODEEG_Images\0763.jpg	NY	Left	No	1.85574130015448	0	393601	253
770.595703125	0	decision	response	2	87	27	foodImage.75	FOODEEG_Images\0763.jpg	NY	Left	No	1.85574130015448	0	394546	234
771.640625	1	health	trialStart	2	88	28	foodImage.5	FOODEEG_Images\0107.jpg	NY	Left	No	1.30105010000989	0	395081	251
772.69921875	2	health	foodImageDisplay	2	88	28	foodImage.5	FOODEEG_Images\0107.jpg	NY	Left	No	1.30105010000989	0	395623	252
774.76171875	1.30105010000989	health	choicePhaseStart	2	88	28	foodImage.5	FOODEEG_Images\0107.jpg	NY	Left	No	1.30105010000989	0	396679	253
776.052734375	0	health	response	2	88	28	foodImage.5	FOODEEG_Images\0107.jpg	NY	Left	No	1.30105010000989	0	397340	234
777.095703125	1	taste	trialStart	2	89	29	foodImage.80	FOODEEG_Images\0796.jpg	YN	Left	Yes	0.861354099819437	0	397874	251
778.154296875	2	taste	foodImageDisplay	2	89	29	foodImage.80	FOODEEG_Images\0796.jpg	YN	Left	Yes	0.861354099819437	0	398416	252
780.216796875	0.861354099819437	taste	choicePhaseStart	2	89	29	foodImage.80	FOODEEG_Images\0796.jpg	YN	Left	Yes	0.861354099819437	0	399472	253
781.068359375	0	taste	response	2	89	29	foodImage.80	FOODEEG_Images\0796.jpg	YN	Left	Yes	0.861354099819437	0	399908	234
782.111328125	1	taste	trialStart	2	90	30	foodImage.64	FOODEEG_Images\0647.jpg	NY	Left	No	0.908830600092188	0	400442	251
783.171875	2	taste	foodImageDisplay	2	90	30	foodImage.64	FOODEEG_Images\0647.jpg	NY	Left	No	0.908830600092188	0	400985	252
785.232421875	0.908830600092188	taste	choicePhaseStart	2	90	30	foodImage.64	FOODEEG_Images\0647.jpg	NY	Left	No	0.908830600092188	0	402040	253
786.1328125	0	taste	response	2	90	30	foodImage.64	FOODEEG_Images\0647.jpg	NY	Left	No	0.908830600092188	0	402501	234
787.171875	1	taste	trialStart	2	91	31	foodImage.94	FOODEEG_Images\0902.jpg	NY	Left	No	1.50883619999513	0	403033	251
788.2109375	2	taste	foodImageDisplay	2	91	31	foodImage.94	FOODEEG_Images\0902.jpg	NY	Left	No	1.50883619999513	0	403565	252
790.271484375	1.50883619999513	taste	choicePhaseStart	2	91	31	foodImage.94	FOODEEG_Images\0902.jpg	NY	Left	No	1.50883619999513	0	404620	253
791.771484375	0	taste	response	2	91	31	foodImage.94	FOODEEG_Images\0902.jpg	NY	Left	No	1.50883619999513	0	405388	234
792.814453125	1	decision	trialStart	2	92	32	foodImage.12	FOODEEG_Images\0181.jpg	NY	Left	No	0.786380599951372	0	405922	251
793.859375	2	decision	foodImageDisplay	2	92	32	foodImage.12	FOODEEG_Images\0181.jpg	NY	Left	No	0.786380599951372	0	406457	252
795.921875	0.786380599951372	decision	choicePhaseStart	2	92	32	foodImage.12	FOODEEG_Images\0181.jpg	NY	Left	No	0.786380599951372	0	407513	253
796.69921875	0	decision	response	2	92	32	foodImage.12	FOODEEG_Images\0181.jpg	NY	Left	No	0.786380599951372	0	407911	234
797.7421875	1	taste	trialStart	2	93	33	foodImage.112	FOODEEG_Images\0920.jpg	NY	Left	No	0.688370199874043	0	408445	251
798.78125	2	taste	foodImageDisplay	2	93	33	foodImage.112	FOODEEG_Images\0920.jpg	NY	Left	No	0.688370199874043	0	408977	252
800.84375	0.688370199874043	taste	choicePhaseStart	2	93	33	foodImage.112	FOODEEG_Images\0920.jpg	NY	Left	No	0.688370199874043	0	410033	253
801.5234375	0	taste	response	2	93	33	foodImage.112	FOODEEG_Images\0920.jpg	NY	Left	No	0.688370199874043	0	410381	234
802.564453125	1	decision	trialStart	2	94	34	foodImage.42	FOODEEG_Images\0438.jpg	NY	Left	No	0.913985799998045	0	410914	251
803.65234375	2	decision	foodImageDisplay	2	94	34	foodImage.42	FOODEEG_Images\0438.jpg	NY	Left	No	0.913985799998045	0	411471	252
805.71484375	0.913985799998045	decision	choicePhaseStart	2	94	34	foodImage.42	FOODEEG_Images\0438.jpg	NY	Left	No	0.913985799998045	0	412527	253
806.619140625	0	decision	response	2	94	34	foodImage.42	FOODEEG_Images\0438.jpg	NY	Left	No	0.913985799998045	0	412990	234
807.66796875	1	health	trialStart	2	95	35	foodImage.113	FOODEEG_Images\0921.jpg	YN	Right	No	1.32290000002831	0	413527	251
808.70703125	2	health	foodImageDisplay	2	95	35	foodImage.113	FOODEEG_Images\0921.jpg	YN	Right	No	1.32290000002831	0	414059	252
810.76953125	1.32290000002831	health	choicePhaseStart	2	95	35	foodImage.113	FOODEEG_Images\0921.jpg	YN	Right	No	1.32290000002831	0	415115	253
812.083984375	0	health	response	2	95	35	foodImage.113	FOODEEG_Images\0921.jpg	YN	Right	No	1.32290000002831	0	415788	235
813.126953125	1	health	trialStart	2	96	36	foodImage.36	FOODEEG_Images\0352.jpg	NY	Right	Yes	1.29919570009224	0	416322	251
814.185546875	2	health	foodImageDisplay	2	96	36	foodImage.36	FOODEEG_Images\0352.jpg	NY	Right	Yes	1.29919570009224	0	416864	252
816.248046875	1.29919570009224	health	choicePhaseStart	2	96	36	foodImage.36	FOODEEG_Images\0352.jpg	NY	Right	Yes	1.29919570009224	0	417920	253
817.5390625	0	health	response	2	96	36	foodImage.36	FOODEEG_Images\0352.jpg	NY	Right	Yes	1.29919570009224	0	418581	235
818.578125	1	decision	trialStart	2	97	37	foodImage.16	FOODEEG_Images\0196.jpg	YN	Right	No	0.667658400023356	0	419113	251
819.6328125	2	decision	foodImageDisplay	2	97	37	foodImage.16	FOODEEG_Images\0196.jpg	YN	Right	No	0.667658400023356	0	419653	252
821.6953125	0.667658400023356	decision	choicePhaseStart	2	97	37	foodImage.16	FOODEEG_Images\0196.jpg	YN	Right	No	0.667658400023356	0	420709	253
822.35546875	0	decision	response	2	97	37	foodImage.16	FOODEEG_Images\0196.jpg	YN	Right	No	0.667658400023356	0	421047	235
823.3984375	1	decision	trialStart	2	98	38	foodImage.36	FOODEEG_Images\0352.jpg	YN	Right	No	1.38747690012679	0	421581	251
824.45703125	2	decision	foodImageDisplay	2	98	38	foodImage.36	FOODEEG_Images\0352.jpg	YN	Right	No	1.38747690012679	0	422123	252
826.51953125	1.38747690012679	decision	choicePhaseStart	2	98	38	foodImage.36	FOODEEG_Images\0352.jpg	YN	Right	No	1.38747690012679	0	423179	253
827.8984375	0	decision	response	2	98	38	foodImage.36	FOODEEG_Images\0352.jpg	YN	Right	No	1.38747690012679	0	423885	235
828.939453125	1	health	trialStart	2	99	39	foodImage.101	FOODEEG_Images\0909.jpg	YN	Right	No	1.49071749998257	0	424418	251
829.978515625	2	health	foodImageDisplay	2	99	39	foodImage.101	FOODEEG_Images\0909.jpg	YN	Right	No	1.49071749998257	0	424950	252
832.041015625	1.49071749998257	health	choicePhaseStart	2	99	39	foodImage.101	FOODEEG_Images\0909.jpg	YN	Right	No	1.49071749998257	0	426006	253
833.521484375	0	health	response	2	99	39	foodImage.101	FOODEEG_Images\0909.jpg	YN	Right	No	1.49071749998257	0	426764	235
834.564453125	1	decision	trialStart	2	100	40	foodImage.49	FOODEEG_Images\0515.jpg	YN	Right	No	1.6453535000328	0	427298	251
835.607421875	2	decision	foodImageDisplay	2	100	40	foodImage.49	FOODEEG_Images\0515.jpg	YN	Right	No	1.6453535000328	0	427832	252
837.669921875	1.6453535000328	decision	choicePhaseStart	2	100	40	foodImage.49	FOODEEG_Images\0515.jpg	YN	Right	No	1.6453535000328	0	428888	253
839.306640625	0	decision	response	2	100	40	foodImage.49	FOODEEG_Images\0515.jpg	YN	Right	No	1.6453535000328	0	429726	235
840.34765625	1	health	trialStart	2	101	41	foodImage.117	FOODEEG_Images\0925.jpg	YN	Left	Yes	2.05610779998824	0	430259	251
841.38671875	2	health	foodImageDisplay	2	101	41	foodImage.117	FOODEEG_Images\0925.jpg	YN	Left	Yes	2.05610779998824	0	430791	252
843.44921875	2.05610779998824	health	choicePhaseStart	2	101	41	foodImage.117	FOODEEG_Images\0925.jpg	YN	Left	Yes	2.05610779998824	0	431847	253
845.498046875	0	health	response	2	101	41	foodImage.117	FOODEEG_Images\0925.jpg	YN	Left	Yes	2.05610779998824	0	432896	234
846.541015625	1	health	trialStart	2	102	42	foodImage.15	FOODEEG_Images\0189.jpg	NY	Left	No	1.59779060003348	0	433430	251
847.599609375	2	health	foodImageDisplay	2	102	42	foodImage.15	FOODEEG_Images\0189.jpg	NY	Left	No	1.59779060003348	0	433972	252
849.662109375	1.59779060003348	health	choicePhaseStart	2	102	42	foodImage.15	FOODEEG_Images\0189.jpg	NY	Left	No	1.59779060003348	0	435028	253
851.25	0	health	response	2	102	42	foodImage.15	FOODEEG_Images\0189.jpg	NY	Left	No	1.59779060003348	0	435841	234
852.29296875	1	taste	trialStart	2	103	43	foodImage.110	FOODEEG_Images\0918.jpg	YN	Right	No	0.960084200138226	0	436375	251
853.33203125	2	taste	foodImageDisplay	2	103	43	foodImage.110	FOODEEG_Images\0918.jpg	YN	Right	No	0.960084200138226	0	436907	252
855.39453125	0.960084200138226	taste	choicePhaseStart	2	103	43	foodImage.110	FOODEEG_Images\0918.jpg	YN	Right	No	0.960084200138226	0	437963	253
856.345703125	0	taste	response	2	103	43	foodImage.110	FOODEEG_Images\0918.jpg	YN	Right	No	0.960084200138226	0	438450	235
857.388671875	1	health	trialStart	2	104	44	foodImage.50	FOODEEG_Images\0529.jpg	YN	Left	Yes	0.795686800032854	0	438984	251
858.44921875	2	health	foodImageDisplay	2	104	44	foodImage.50	FOODEEG_Images\0529.jpg	YN	Left	Yes	0.795686800032854	0	439527	252
860.51171875	0.795686800032854	health	choicePhaseStart	2	104	44	foodImage.50	FOODEEG_Images\0529.jpg	YN	Left	Yes	0.795686800032854	0	440583	253
861.296875	0	health	response	2	104	44	foodImage.50	FOODEEG_Images\0529.jpg	YN	Left	Yes	0.795686800032854	0	440985	234
862.33984375	1	decision	trialStart	2	105	45	foodImage.26	FOODEEG_Images\0262.jpg	YN	Right	No	0.917977300006896	0	441519	251
863.3828125	2	decision	foodImageDisplay	2	105	45	foodImage.26	FOODEEG_Images\0262.jpg	YN	Right	No	0.917977300006896	0	442053	252
865.443359375	0.917977300006896	decision	choicePhaseStart	2	105	45	foodImage.26	FOODEEG_Images\0262.jpg	YN	Right	No	0.917977300006896	0	443108	253
866.353515625	0	decision	response	2	105	45	foodImage.26	FOODEEG_Images\0262.jpg	YN	Right	No	0.917977300006896	0	443574	235
867.396484375	1	taste	trialStart	2	106	46	foodImage.40	FOODEEG_Images\0373.jpg	NY	Right	Yes	0.803876999998465	0	444108	251
868.4375	2	taste	foodImageDisplay	2	106	46	foodImage.40	FOODEEG_Images\0373.jpg	NY	Right	Yes	0.803876999998465	0	444641	252
870.501953125	0.803876999998465	taste	choicePhaseStart	2	106	46	foodImage.40	FOODEEG_Images\0373.jpg	NY	Right	Yes	0.803876999998465	0	445698	253
871.296875	0	taste	response	2	106	46	foodImage.40	FOODEEG_Images\0373.jpg	NY	Right	Yes	0.803876999998465	0	446105	235
872.33984375	1	decision	trialStart	2	107	47	foodImage.102	FOODEEG_Images\0910.jpg	NY	Right	Yes	2.26535389991477	0	446639	251
873.376953125	2	decision	foodImageDisplay	2	107	47	foodImage.102	FOODEEG_Images\0910.jpg	NY	Right	Yes	2.26535389991477	0	447170	252
875.439453125	2.26535389991477	decision	choicePhaseStart	2	107	47	foodImage.102	FOODEEG_Images\0910.jpg	NY	Right	Yes	2.26535389991477	0	448226	253
877.697265625	0	decision	response	2	107	47	foodImage.102	FOODEEG_Images\0910.jpg	NY	Right	Yes	2.26535389991477	0	449382	235
878.740234375	1	health	trialStart	2	108	48	foodImage.6	FOODEEG_Images\0113.jpg	YN	Right	No	0.733840700006112	0	449916	251
879.7890625	2	health	foodImageDisplay	2	108	48	foodImage.6	FOODEEG_Images\0113.jpg	YN	Right	No	0.733840700006112	0	450453	252
881.8515625	0.733840700006112	health	choicePhaseStart	2	108	48	foodImage.6	FOODEEG_Images\0113.jpg	YN	Right	No	0.733840700006112	0	451509	253
882.576171875	0	health	response	2	108	48	foodImage.6	FOODEEG_Images\0113.jpg	YN	Right	No	0.733840700006112	0	451880	235
883.619140625	1	health	trialStart	2	109	49	foodImage.106	FOODEEG_Images\0914.jpg	YN	Left	Yes	1.06323590013199	0	452414	251
884.666015625	2	health	foodImageDisplay	2	109	49	foodImage.106	FOODEEG_Images\0914.jpg	YN	Left	Yes	1.06323590013199	0	452950	252
886.728515625	1.06323590013199	health	choicePhaseStart	2	109	49	foodImage.106	FOODEEG_Images\0914.jpg	YN	Left	Yes	1.06323590013199	0	454006	253
887.783203125	0	health	response	2	109	49	foodImage.106	FOODEEG_Images\0914.jpg	YN	Left	Yes	1.06323590013199	0	454546	234
888.828125	1	health	trialStart	2	110	50	foodImage.11	FOODEEG_Images\0180.jpg	NY	Right	Yes	1.06683509983122	0	455081	251
889.87109375	2	health	foodImageDisplay	2	110	50	foodImage.11	FOODEEG_Images\0180.jpg	NY	Right	Yes	1.06683509983122	0	455615	252
891.93359375	1.06683509983122	health	choicePhaseStart	2	110	50	foodImage.11	FOODEEG_Images\0180.jpg	NY	Right	Yes	1.06683509983122	0	456671	253
892.9921875	0	health	response	2	110	50	foodImage.11	FOODEEG_Images\0180.jpg	NY	Right	Yes	1.06683509983122	0	457213	235
894.03125	1	taste	trialStart	2	111	51	foodImage.48	FOODEEG_Images\0494.jpg	NY	Right	Yes	1.16967909992673	0	457745	251
895.072265625	2	taste	foodImageDisplay	2	111	51	foodImage.48	FOODEEG_Images\0494.jpg	NY	Right	Yes	1.16967909992673	0	458278	252
897.134765625	1.16967909992673	taste	choicePhaseStart	2	111	51	foodImage.48	FOODEEG_Images\0494.jpg	NY	Right	Yes	1.16967909992673	0	459334	253
898.294921875	0	taste	response	2	111	51	foodImage.48	FOODEEG_Images\0494.jpg	NY	Right	Yes	1.16967909992673	0	459928	235
899.337890625	1	taste	trialStart	2	112	52	foodImage.9	FOODEEG_Images\0138.jpg	NY	Right	Yes	1.19756489992142	0	460462	251
900.396484375	2	taste	foodImageDisplay	2	112	52	foodImage.9	FOODEEG_Images\0138.jpg	NY	Right	Yes	1.19756489992142	0	461004	252
902.458984375	1.19756489992142	taste	choicePhaseStart	2	112	52	foodImage.9	FOODEEG_Images\0138.jpg	NY	Right	Yes	1.19756489992142	0	462060	253
903.6484375	0	taste	response	2	112	52	foodImage.9	FOODEEG_Images\0138.jpg	NY	Right	Yes	1.19756489992142	0	462669	235
904.693359375	1	health	trialStart	2	113	53	foodImage.30	FOODEEG_Images\0282.jpg	YN	Left	Yes	0.683978199958801	0	463204	251
905.736328125	2	health	foodImageDisplay	2	113	53	foodImage.30	FOODEEG_Images\0282.jpg	YN	Left	Yes	0.683978199958801	0	463738	252
907.802734375	0.683978199958801	health	choicePhaseStart	2	113	53	foodImage.30	FOODEEG_Images\0282.jpg	YN	Left	Yes	0.683978199958801	0	464796	253
908.478515625	0	health	response	2	113	53	foodImage.30	FOODEEG_Images\0282.jpg	YN	Left	Yes	0.683978199958801	0	465142	234
909.521484375	1	health	trialStart	2	114	54	foodImage.71	FOODEEG_Images\0713.jpg	YN	Right	No	1.20280189998448	0	465676	251
910.56640625	2	health	foodImageDisplay	2	114	54	foodImage.71	FOODEEG_Images\0713.jpg	YN	Right	No	1.20280189998448	0	466211	252
912.630859375	1.20280189998448	health	choicePhaseStart	2	114	54	foodImage.71	FOODEEG_Images\0713.jpg	YN	Right	No	1.20280189998448	0	467268	253
913.82421875	0	health	response	2	114	54	foodImage.71	FOODEEG_Images\0713.jpg	YN	Right	No	1.20280189998448	0	467879	235
914.87109375	1	health	trialStart	2	115	55	foodImage.116	FOODEEG_Images\0924.jpg	NY	Left	No	1.65707199997269	0	468415	251
915.912109375	2	health	foodImageDisplay	2	115	55	foodImage.116	FOODEEG_Images\0924.jpg	NY	Left	No	1.65707199997269	0	468948	252
917.974609375	1.65707199997269	health	choicePhaseStart	2	115	55	foodImage.116	FOODEEG_Images\0924.jpg	NY	Left	No	1.65707199997269	0	470004	253
919.623046875	0	health	response	2	115	55	foodImage.116	FOODEEG_Images\0924.jpg	NY	Left	No	1.65707199997269	0	470848	234
920.666015625	1	decision	trialStart	2	116	56	foodImage.14	FOODEEG_Images\0188.jpg	NY	Right	Yes	0.90745300007984	0	471382	251
921.724609375	2	decision	foodImageDisplay	2	116	56	foodImage.14	FOODEEG_Images\0188.jpg	NY	Right	Yes	0.90745300007984	0	471924	252
923.787109375	0.90745300007984	decision	choicePhaseStart	2	116	56	foodImage.14	FOODEEG_Images\0188.jpg	NY	Right	Yes	0.90745300007984	0	472980	253
924.6875	0	decision	response	2	116	56	foodImage.14	FOODEEG_Images\0188.jpg	NY	Right	Yes	0.90745300007984	0	473441	235
925.728515625	1	decision	trialStart	2	117	57	foodImage.101	FOODEEG_Images\0909.jpg	NY	Left	No	1.29733470012434	0	473974	251
926.767578125	2	decision	foodImageDisplay	2	117	57	foodImage.101	FOODEEG_Images\0909.jpg	NY	Left	No	1.29733470012434	0	474506	252
928.830078125	1.29733470012434	decision	choicePhaseStart	2	117	57	foodImage.101	FOODEEG_Images\0909.jpg	NY	Left	No	1.29733470012434	0	475562	253
930.119140625	0	decision	response	2	117	57	foodImage.101	FOODEEG_Images\0909.jpg	NY	Left	No	1.29733470012434	0	476222	234
931.16015625	1	decision	trialStart	2	118	58	foodImage.116	FOODEEG_Images\0924.jpg	YN	Right	No	0.924096200149506	0	476755	251
932.197265625	2	decision	foodImageDisplay	2	118	58	foodImage.116	FOODEEG_Images\0924.jpg	YN	Right	No	0.924096200149506	0	477286	252
934.259765625	0.924096200149506	decision	choicePhaseStart	2	118	58	foodImage.116	FOODEEG_Images\0924.jpg	YN	Right	No	0.924096200149506	0	478342	253
935.173828125	0	decision	response	2	118	58	foodImage.116	FOODEEG_Images\0924.jpg	YN	Right	No	0.924096200149506	0	478810	235
936.212890625	1	health	trialStart	2	119	59	foodImage.13	FOODEEG_Images\0183.jpg	NY	Right	Yes	1.40284999995492	0	479342	251
937.25390625	2	health	foodImageDisplay	2	119	59	foodImage.13	FOODEEG_Images\0183.jpg	NY	Right	Yes	1.40284999995492	0	479875	252
939.31640625	1.40284999995492	health	choicePhaseStart	2	119	59	foodImage.13	FOODEEG_Images\0183.jpg	NY	Right	Yes	1.40284999995492	0	480931	253
940.7109375	0	health	response	2	119	59	foodImage.13	FOODEEG_Images\0183.jpg	NY	Right	Yes	1.40284999995492	0	481645	235
941.75390625	1	taste	trialStart	2	120	60	foodImage.39	FOODEEG_Images\0367.jpg	NY	Right	Yes	0.86153949983418	0	482179	251
942.794921875	2	taste	foodImageDisplay	2	120	60	foodImage.39	FOODEEG_Images\0367.jpg	NY	Right	Yes	0.86153949983418	0	482712	252
944.857421875	0.86153949983418	taste	choicePhaseStart	2	120	60	foodImage.39	FOODEEG_Images\0367.jpg	NY	Right	Yes	0.86153949983418	0	483768	253
945.708984375	0	taste	response	2	120	60	foodImage.39	FOODEEG_Images\0367.jpg	NY	Right	Yes	0.86153949983418	0	484204	235
947.75390625	21.775390625	n/a	blockEnd	n/a	n/a	n/a	n/a	n/a	n/a	n/a	n/a	n/a	n/a	485251	254
969.529296875	2	n/a	blockStart	3	n/a	n/a	n/a	n/a	n/a	n/a	n/a	n/a	n/a	496400	250
971.560546875	1	health	trialStart	3	121	1	foodImage.82	FOODEEG_Images\0805.jpg	YN	Right	No	1.44361080019735	0	497440	251
972.61328125	2	health	foodImageDisplay	3	121	1	foodImage.82	FOODEEG_Images\0805.jpg	YN	Right	No	1.44361080019735	0	497979	252
974.67578125	1.44361080019735	health	choicePhaseStart	3	121	1	foodImage.82	FOODEEG_Images\0805.jpg	YN	Right	No	1.44361080019735	0	499035	253
976.109375	0	health	response	3	121	1	foodImage.82	FOODEEG_Images\0805.jpg	YN	Right	No	1.44361080019735	0	499769	235
977.15234375	1	taste	trialStart	3	122	2	foodImage.98	FOODEEG_Images\0906.jpg	YN	Left	Yes	2.80749709997326	0	500303	251
978.19140625	2	taste	foodImageDisplay	3	122	2	foodImage.98	FOODEEG_Images\0906.jpg	YN	Left	Yes	2.80749709997326	0	500835	252
980.25390625	2.80749709997326	taste	choicePhaseStart	3	122	2	foodImage.98	FOODEEG_Images\0906.jpg	YN	Left	Yes	2.80749709997326	0	501891	253
983.052734375	0	taste	response	3	122	2	foodImage.98	FOODEEG_Images\0906.jpg	YN	Left	Yes	2.80749709997326	0	503324	234
984.09375	1	decision	trialStart	3	123	3	foodImage.1	FOODEEG_Images\0004.jpg	YN	Right	No	0.926912399940193	0	503857	251
985.134765625	2	decision	foodImageDisplay	3	123	3	foodImage.1	FOODEEG_Images\0004.jpg	YN	Right	No	0.926912399940193	0	504390	252
987.197265625	0.926912399940193	decision	choicePhaseStart	3	123	3	foodImage.1	FOODEEG_Images\0004.jpg	YN	Right	No	0.926912399940193	0	505446	253
988.115234375	0	decision	response	3	123	3	foodImage.1	FOODEEG_Images\0004.jpg	YN	Right	No	0.926912399940193	0	505916	235
989.166015625	1	taste	trialStart	3	124	4	foodImage.10	FOODEEG_Images\0145.jpg	NY	Right	Yes	0.732094699982554	0	506454	251
990.224609375	2	taste	foodImageDisplay	3	124	4	foodImage.10	FOODEEG_Images\0145.jpg	NY	Right	Yes	0.732094699982554	0	506996	252
992.287109375	0.732094699982554	taste	choicePhaseStart	3	124	4	foodImage.10	FOODEEG_Images\0145.jpg	NY	Right	Yes	0.732094699982554	0	508052	253
993.01171875	0	taste	response	3	124	4	foodImage.10	FOODEEG_Images\0145.jpg	NY	Right	Yes	0.732094699982554	0	508423	235
994.0546875	1	taste	trialStart	3	125	5	foodImage.107	FOODEEG_Images\0915.jpg	NY	Left	No	0.992994699859992	0	508957	251
995.09375	2	taste	foodImageDisplay	3	125	5	foodImage.107	FOODEEG_Images\0915.jpg	NY	Left	No	0.992994699859992	0	509489	252
997.15625	0.992994699859992	taste	choicePhaseStart	3	125	5	foodImage.107	FOODEEG_Images\0915.jpg	NY	Left	No	0.992994699859992	0	510545	253
998.140625	0	taste	response	3	125	5	foodImage.107	FOODEEG_Images\0915.jpg	NY	Left	No	0.992994699859992	0	511049	234
999.1796875	1	health	trialStart	3	126	6	foodImage.26	FOODEEG_Images\0262.jpg	YN	Left	Yes	1.11274280003272	0	511581	251
1000.220703125	2	health	foodImageDisplay	3	126	6	foodImage.26	FOODEEG_Images\0262.jpg	YN	Left	Yes	1.11274280003272	0	512114	252
1002.283203125	1.11274280003272	health	choicePhaseStart	3	126	6	foodImage.26	FOODEEG_Images\0262.jpg	YN	Left	Yes	1.11274280003272	0	513170	253
1003.38671875	0	health	response	3	126	6	foodImage.26	FOODEEG_Images\0262.jpg	YN	Left	Yes	1.11274280003272	0	513735	234
1004.431640625	1	decision	trialStart	3	127	7	foodImage.81	FOODEEG_Images\0797.jpg	YN	Left	Yes	1.4356916998513	0	514270	251
1005.48828125	2	decision	foodImageDisplay	3	127	7	foodImage.81	FOODEEG_Images\0797.jpg	YN	Left	Yes	1.4356916998513	0	514811	252
1007.55078125	1.4356916998513	decision	choicePhaseStart	3	127	7	foodImage.81	FOODEEG_Images\0797.jpg	YN	Left	Yes	1.4356916998513	0	515867	253
1008.978515625	0	decision	response	3	127	7	foodImage.81	FOODEEG_Images\0797.jpg	YN	Left	Yes	1.4356916998513	0	516598	234
1010.021484375	1	decision	trialStart	3	128	8	foodImage.100	FOODEEG_Images\0908.jpg	n/a	n/a	n/a	1.26740809995681	0	517132	251
1011.05859375	2	decision	foodImageDisplay	3	128	8	foodImage.100	FOODEEG_Images\0908.jpg	YN	Right	No	1.26740809995681	0	517663	252
1013.12109375	1.26740809995681	decision	choicePhaseStart	3	128	8	foodImage.100	FOODEEG_Images\0908.jpg	YN	Right	No	1.26740809995681	0	518719	253
1014.37890625	0	decision	response	3	128	8	foodImage.100	FOODEEG_Images\0908.jpg	YN	Right	No	1.26740809995681	0	519363	235
1015.423828125	1	decision	trialStart	3	129	9	foodImage.95	FOODEEG_Images\0903.jpg	YN	Right	No	1.39882620004937	0	519898	251
1016.4609375	2	decision	foodImageDisplay	3	129	9	foodImage.95	FOODEEG_Images\0903.jpg	YN	Right	No	1.39882620004937	0	520429	252
1018.5234375	1.39882620004937	decision	choicePhaseStart	3	129	9	foodImage.95	FOODEEG_Images\0903.jpg	YN	Right	No	1.39882620004937	0	521485	253
1019.9140625	0	decision	response	3	129	9	foodImage.95	FOODEEG_Images\0903.jpg	YN	Right	No	1.39882620004937	0	522197	235
1020.955078125	1	health	trialStart	3	130	10	foodImage.8	FOODEEG_Images\0136.jpg	NY	Left	No	1.38941269996576	0	522730	251
1021.998046875	2	health	foodImageDisplay	3	130	10	foodImage.8	FOODEEG_Images\0136.jpg	NY	Left	No	1.38941269996576	0	523264	252
1024.0625	1.38941269996576	health	choicePhaseStart	3	130	10	foodImage.8	FOODEEG_Images\0136.jpg	NY	Left	No	1.38941269996576	0	524321	253
1025.443359375	0	health	response	3	130	10	foodImage.8	FOODEEG_Images\0136.jpg	NY	Left	No	1.38941269996576	0	525028	234
1026.486328125	1	decision	trialStart	3	131	11	foodImage.53	FOODEEG_Images\0547.jpg	NY	Right	Yes	1.15412899991497	0	525562	251
1027.546875	2	decision	foodImageDisplay	3	131	11	foodImage.53	FOODEEG_Images\0547.jpg	NY	Right	Yes	1.15412899991497	0	526105	252
1029.609375	1.15412899991497	decision	choicePhaseStart	3	131	11	foodImage.53	FOODEEG_Images\0547.jpg	NY	Right	Yes	1.15412899991497	0	527161	253
1030.75390625	0	decision	response	3	131	11	foodImage.53	FOODEEG_Images\0547.jpg	NY	Right	Yes	1.15412899991497	0	527747	235
1031.796875	1	decision	trialStart	3	132	12	foodImage.72	FOODEEG_Images\0714.jpg	YN	Right	No	2.19740419997834	0	528281	251
1032.83984375	2	decision	foodImageDisplay	3	132	12	foodImage.72	FOODEEG_Images\0714.jpg	YN	Right	No	2.19740419997834	0	528815	252
1034.90234375	2.19740419997834	decision	choicePhaseStart	3	132	12	foodImage.72	FOODEEG_Images\0714.jpg	YN	Right	No	2.19740419997834	0	529871	253
1037.08984375	0	decision	response	3	132	12	foodImage.72	FOODEEG_Images\0714.jpg	YN	Right	No	2.19740419997834	0	530991	235
1038.130859375	1	taste	trialStart	3	133	13	foodImage.75	FOODEEG_Images\0763.jpg	NY	Right	Yes	1.88653509994037	0	531524	251
1039.181640625	2	taste	foodImageDisplay	3	133	13	foodImage.75	FOODEEG_Images\0763.jpg	NY	Right	Yes	1.88653509994037	0	532062	252
1041.244140625	1.88653509994037	taste	choicePhaseStart	3	133	13	foodImage.75	FOODEEG_Images\0763.jpg	NY	Right	Yes	1.88653509994037	0	533118	253
1043.123046875	0	taste	response	3	133	13	foodImage.75	FOODEEG_Images\0763.jpg	NY	Right	Yes	1.88653509994037	0	534080	235
1044.1640625	1	decision	trialStart	3	134	14	foodImage.61	FOODEEG_Images\0640.jpg	NY	Left	No	1.10344340000302	0	534613	251
1045.205078125	2	decision	foodImageDisplay	3	134	14	foodImage.61	FOODEEG_Images\0640.jpg	NY	Left	No	1.10344340000302	0	535146	252
1047.267578125	1.10344340000302	decision	choicePhaseStart	3	134	14	foodImage.61	FOODEEG_Images\0640.jpg	NY	Left	No	1.10344340000302	0	536202	253
1048.361328125	0	decision	response	3	134	14	foodImage.61	FOODEEG_Images\0640.jpg	NY	Left	No	1.10344340000302	0	536762	234
1049.404296875	1	decision	trialStart	3	135	15	foodImage.24	FOODEEG_Images\0250.jpg	YN	Right	No	1.25386129994877	0	537296	251
1050.447265625	2	decision	foodImageDisplay	3	135	15	foodImage.24	FOODEEG_Images\0250.jpg	YN	Right	No	1.25386129994877	0	537830	252
1052.5078125	1.25386129994877	decision	choicePhaseStart	3	135	15	foodImage.24	FOODEEG_Images\0250.jpg	YN	Right	No	1.25386129994877	0	538885	253
1053.75390625	0	decision	response	3	135	15	foodImage.24	FOODEEG_Images\0250.jpg	YN	Right	No	1.25386129994877	0	539523	235
1054.796875	1	decision	trialStart	3	136	16	foodImage.105	FOODEEG_Images\0913.jpg	YN	Right	No	1.14536289987154	0	540057	251
1055.833984375	2	decision	foodImageDisplay	3	136	16	foodImage.105	FOODEEG_Images\0913.jpg	YN	Right	No	1.14536289987154	0	540588	252
1057.896484375	1.14536289987154	decision	choicePhaseStart	3	136	16	foodImage.105	FOODEEG_Images\0913.jpg	YN	Right	No	1.14536289987154	0	541644	253
1059.033203125	0	decision	response	3	136	16	foodImage.105	FOODEEG_Images\0913.jpg	YN	Right	No	1.14536289987154	0	542226	235
1060.07421875	1	health	trialStart	3	137	17	foodImage.31	FOODEEG_Images\0294.jpg	NY	Right	Yes	0.68159560021013	0	542759	251
1061.115234375	2	health	foodImageDisplay	3	137	17	foodImage.31	FOODEEG_Images\0294.jpg	NY	Right	Yes	0.68159560021013	0	543292	252
1063.177734375	0.68159560021013	health	choicePhaseStart	3	137	17	foodImage.31	FOODEEG_Images\0294.jpg	NY	Right	Yes	0.68159560021013	0	544348	253
1063.849609375	0	health	response	3	137	17	foodImage.31	FOODEEG_Images\0294.jpg	NY	Right	Yes	0.68159560021013	0	544692	235
1064.890625	1	decision	trialStart	3	138	18	foodImage.11	FOODEEG_Images\0180.jpg	YN	Right	No	1.44025530014187	0	545225	251
1065.931640625	2	decision	foodImageDisplay	3	138	18	foodImage.11	FOODEEG_Images\0180.jpg	YN	Right	No	1.44025530014187	0	545758	252
1067.994140625	1.44025530014187	decision	choicePhaseStart	3	138	18	foodImage.11	FOODEEG_Images\0180.jpg	YN	Right	No	1.44025530014187	0	546814	253
1069.42578125	0	decision	response	3	138	18	foodImage.11	FOODEEG_Images\0180.jpg	YN	Right	No	1.44025530014187	0	547547	235
1070.46875	1	taste	trialStart	3	139	19	foodImage.30	FOODEEG_Images\0282.jpg	YN	Left	Yes	0.902287699980661	0	548081	251
1071.509765625	2	taste	foodImageDisplay	3	139	19	foodImage.30	FOODEEG_Images\0282.jpg	YN	Left	Yes	0.902287699980661	0	548614	252
1073.572265625	0.902287699980661	taste	choicePhaseStart	3	139	19	foodImage.30	FOODEEG_Images\0282.jpg	YN	Left	Yes	0.902287699980661	0	549670	253
1074.46484375	0	taste	response	3	139	19	foodImage.30	FOODEEG_Images\0282.jpg	YN	Left	Yes	0.902287699980661	0	550127	234
1075.5078125	1	health	trialStart	3	140	20	foodImage.89	FOODEEG_Images\0881.jpg	NY	Right	Yes	1.05502019985579	0	550661	251
1076.564453125	2	health	foodImageDisplay	3	140	20	foodImage.89	FOODEEG_Images\0881.jpg	NY	Right	Yes	1.05502019985579	0	551202	252
1078.626953125	1.05502019985579	health	choicePhaseStart	3	140	20	foodImage.89	FOODEEG_Images\0881.jpg	NY	Right	Yes	1.05502019985579	0	552258	253
1079.671875	0	health	response	3	140	20	foodImage.89	FOODEEG_Images\0881.jpg	NY	Right	Yes	1.05502019985579	0	552793	235
1080.71484375	1	taste	trialStart	3	141	21	foodImage.72	FOODEEG_Images\0714.jpg	NY	Left	No	1.0198601000011	0	553327	251
1081.7578125	2	taste	foodImageDisplay	3	141	21	foodImage.72	FOODEEG_Images\0714.jpg	NY	Left	No	1.0198601000011	0	553861	252
1083.8203125	1.0198601000011	taste	choicePhaseStart	3	141	21	foodImage.72	FOODEEG_Images\0714.jpg	NY	Left	No	1.0198601000011	0	554917	253
1084.83203125	0	taste	response	3	141	21	foodImage.72	FOODEEG_Images\0714.jpg	NY	Left	No	1.0198601000011	0	555435	234
1085.875	1	decision	trialStart	3	142	22	foodImage.71	FOODEEG_Images\0713.jpg	YN	Left	Yes	0.942919099936262	0	555969	251
1086.916015625	2	decision	foodImageDisplay	3	142	22	foodImage.71	FOODEEG_Images\0713.jpg	YN	Left	Yes	0.942919099936262	0	556502	252
1088.978515625	0.942919099936262	decision	choicePhaseStart	3	142	22	foodImage.71	FOODEEG_Images\0713.jpg	YN	Left	Yes	0.942919099936262	0	557558	253
1089.912109375	0	decision	response	3	142	22	foodImage.71	FOODEEG_Images\0713.jpg	YN	Left	Yes	0.942919099936262	0	558036	234
1090.953125	1	taste	trialStart	3	143	23	foodImage.44	FOODEEG_Images\0459.jpg	NY	Left	No	1.84136159997433	0	558569	251
1091.998046875	2	taste	foodImageDisplay	3	143	23	foodImage.44	FOODEEG_Images\0459.jpg	NY	Left	No	1.84136159997433	0	559104	252
1094.0625	1.84136159997433	taste	choicePhaseStart	3	143	23	foodImage.44	FOODEEG_Images\0459.jpg	NY	Left	No	1.84136159997433	0	560161	253
1095.896484375	0	taste	response	3	143	23	foodImage.44	FOODEEG_Images\0459.jpg	NY	Left	No	1.84136159997433	0	561100	234
1096.939453125	1	health	trialStart	3	144	24	foodImage.54	FOODEEG_Images\0560.jpg	NY	Right	Yes	1.07559829996899	0	561634	251
1097.998046875	2	health	foodImageDisplay	3	144	24	foodImage.54	FOODEEG_Images\0560.jpg	NY	Right	Yes	1.07559829996899	0	562176	252
1100.060546875	1.07559829996899	health	choicePhaseStart	3	144	24	foodImage.54	FOODEEG_Images\0560.jpg	NY	Right	Yes	1.07559829996899	0	563232	253
1101.126953125	0	health	response	3	144	24	foodImage.54	FOODEEG_Images\0560.jpg	NY	Right	Yes	1.07559829996899	0	563778	235
1102.169921875	1	decision	trialStart	3	145	25	foodImage.106	FOODEEG_Images\0914.jpg	YN	Left	Yes	0.625159800052643	0	564312	251
1103.208984375	2	decision	foodImageDisplay	3	145	25	foodImage.106	FOODEEG_Images\0914.jpg	YN	Left	Yes	0.625159800052643	0	564844	252
1105.271484375	0.625159800052643	decision	choicePhaseStart	3	145	25	foodImage.106	FOODEEG_Images\0914.jpg	YN	Left	Yes	0.625159800052643	0	565900	253
1105.88671875	0	decision	response	3	145	25	foodImage.106	FOODEEG_Images\0914.jpg	YN	Left	Yes	0.625159800052643	0	566215	234
1106.9296875	1	health	trialStart	3	146	26	foodImage.66	FOODEEG_Images\0676.jpg	NY	Left	No	1.09321140008979	0	566749	251
1107.97265625	2	health	foodImageDisplay	3	146	26	foodImage.66	FOODEEG_Images\0676.jpg	NY	Left	No	1.09321140008979	0	567283	252
1110.03515625	1.09321140008979	health	choicePhaseStart	3	146	26	foodImage.66	FOODEEG_Images\0676.jpg	NY	Left	No	1.09321140008979	0	568339	253
1111.119140625	0	health	response	3	146	26	foodImage.66	FOODEEG_Images\0676.jpg	NY	Left	No	1.09321140008979	0	568894	234
1112.16796875	1	taste	trialStart	3	147	27	foodImage.113	FOODEEG_Images\0921.jpg	NY	Left	No	1.06011810014024	0	569431	251
1113.205078125	2	taste	foodImageDisplay	3	147	27	foodImage.113	FOODEEG_Images\0921.jpg	NY	Left	No	1.06011810014024	0	569962	252
1115.267578125	1.06011810014024	taste	choicePhaseStart	3	147	27	foodImage.113	FOODEEG_Images\0921.jpg	NY	Left	No	1.06011810014024	0	571018	253
1116.318359375	0	taste	response	3	147	27	foodImage.113	FOODEEG_Images\0921.jpg	NY	Left	No	1.06011810014024	0	571556	234
1117.3671875	1	health	trialStart	3	148	28	foodImage.109	FOODEEG_Images\0917.jpg	YN	Right	No	1.23658400005661	0	572093	251
1118.404296875	2	health	foodImageDisplay	3	148	28	foodImage.109	FOODEEG_Images\0917.jpg	YN	Right	No	1.23658400005661	0	572624	252
1120.466796875	1.23658400005661	health	choicePhaseStart	3	148	28	foodImage.109	FOODEEG_Images\0917.jpg	YN	Right	No	1.23658400005661	0	573680	253
1121.6953125	0	health	response	3	148	28	foodImage.109	FOODEEG_Images\0917.jpg	YN	Right	No	1.23658400005661	0	574309	235
1122.736328125	1	decision	trialStart	3	149	29	foodImage.115	FOODEEG_Images\0923.jpg	YN	Right	No	1.13798070000485	0	574842	251
1123.775390625	2	decision	foodImageDisplay	3	149	29	foodImage.115	FOODEEG_Images\0923.jpg	YN	Right	No	1.13798070000485	0	575374	252
1125.837890625	1.13798070000485	decision	choicePhaseStart	3	149	29	foodImage.115	FOODEEG_Images\0923.jpg	YN	Right	No	1.13798070000485	0	576430	253
1126.966796875	0	decision	response	3	149	29	foodImage.115	FOODEEG_Images\0923.jpg	YN	Right	No	1.13798070000485	0	577008	235
1128.009765625	1	taste	trialStart	3	150	30	foodImage.62	FOODEEG_Images\0644.jpg	NY	Left	No	0.885603399947286	0	577542	251
1129.068359375	2	taste	foodImageDisplay	3	150	30	foodImage.62	FOODEEG_Images\0644.jpg	NY	Left	No	0.885603399947286	0	578084	252
1131.130859375	0.885603399947286	taste	choicePhaseStart	3	150	30	foodImage.62	FOODEEG_Images\0644.jpg	NY	Left	No	0.885603399947286	0	579140	253
1132.0078125	0	taste	response	3	150	30	foodImage.62	FOODEEG_Images\0644.jpg	NY	Left	No	0.885603399947286	0	579589	234
1133.052734375	1	decision	trialStart	3	151	31	foodImage.96	FOODEEG_Images\0904.jpg	YN	Right	No	0.980360700050369	0	580124	251
1134.091796875	2	decision	foodImageDisplay	3	151	31	foodImage.96	FOODEEG_Images\0904.jpg	YN	Right	No	0.980360700050369	0	580656	252
1136.154296875	0.980360700050369	decision	choicePhaseStart	3	151	31	foodImage.96	FOODEEG_Images\0904.jpg	YN	Right	No	0.980360700050369	0	581712	253
1137.126953125	0	decision	response	3	151	31	foodImage.96	FOODEEG_Images\0904.jpg	YN	Right	No	0.980360700050369	0	582210	235
1138.169921875	1	taste	trialStart	3	152	32	foodImage.36	FOODEEG_Images\0352.jpg	YN	Left	Yes	2.30717960000038	0	582744	251
1139.228515625	2	taste	foodImageDisplay	3	152	32	foodImage.36	FOODEEG_Images\0352.jpg	YN	Left	Yes	2.30717960000038	0	583286	252
1141.291015625	2.30717960000038	taste	choicePhaseStart	3	152	32	foodImage.36	FOODEEG_Images\0352.jpg	YN	Left	Yes	2.30717960000038	0	584342	253
1143.58984375	0	taste	response	3	152	32	foodImage.36	FOODEEG_Images\0352.jpg	YN	Left	Yes	2.30717960000038	0	585519	234
1144.630859375	1	health	trialStart	3	153	33	foodImage.32	FOODEEG_Images\0319.jpg	NY	Right	Yes	1.33507620007731	0	586052	251
1145.673828125	2	health	foodImageDisplay	3	153	33	foodImage.32	FOODEEG_Images\0319.jpg	NY	Right	Yes	1.33507620007731	0	586586	252
1147.736328125	1.33507620007731	health	choicePhaseStart	3	153	33	foodImage.32	FOODEEG_Images\0319.jpg	NY	Right	Yes	1.33507620007731	0	587642	253
1149.0625	0	health	response	3	153	33	foodImage.32	FOODEEG_Images\0319.jpg	NY	Right	Yes	1.33507620007731	0	588321	235
1150.103515625	1	health	trialStart	3	154	34	foodImage.22	FOODEEG_Images\0236.jpg	YN	Left	Yes	0.758153199916705	0	588854	251
1151.146484375	2	health	foodImageDisplay	3	154	34	foodImage.22	FOODEEG_Images\0236.jpg	YN	Left	Yes	0.758153199916705	0	589388	252
1153.208984375	0.758153199916705	health	choicePhaseStart	3	154	34	foodImage.22	FOODEEG_Images\0236.jpg	YN	Left	Yes	0.758153199916705	0	590444	253
1153.95703125	0	health	response	3	154	34	foodImage.22	FOODEEG_Images\0236.jpg	YN	Left	Yes	0.758153199916705	0	590827	234
1155	1	decision	trialStart	3	155	35	foodImage.109	FOODEEG_Images\0917.jpg	YN	Left	Yes	0.832355999853462	0	591361	251
1156.0390625	2	decision	foodImageDisplay	3	155	35	foodImage.109	FOODEEG_Images\0917.jpg	YN	Left	Yes	0.832355999853462	0	591893	252
1158.103515625	0.832355999853462	decision	choicePhaseStart	3	155	35	foodImage.109	FOODEEG_Images\0917.jpg	YN	Left	Yes	0.832355999853462	0	592950	253
1158.92578125	0	decision	response	3	155	35	foodImage.109	FOODEEG_Images\0917.jpg	YN	Left	Yes	0.832355999853462	0	593371	234
1159.96875	1	decision	trialStart	3	156	36	foodImage.51	FOODEEG_Images\0536.jpg	YN	Left	Yes	1.73688780004159	0	593905	251
1161.015625	2	decision	foodImageDisplay	3	156	36	foodImage.51	FOODEEG_Images\0536.jpg	YN	Left	Yes	1.73688780004159	0	594441	252
1163.078125	1.73688780004159	decision	choicePhaseStart	3	156	36	foodImage.51	FOODEEG_Images\0536.jpg	YN	Left	Yes	1.73688780004159	0	595497	253
1164.8046875	0	decision	response	3	156	36	foodImage.51	FOODEEG_Images\0536.jpg	YN	Left	Yes	1.73688780004159	0	596381	234
1165.845703125	1	decision	trialStart	3	157	37	foodImage.6	FOODEEG_Images\0113.jpg	YN	Left	Yes	0.823144599795341	0	596914	251
1166.88671875	2	decision	foodImageDisplay	3	157	37	foodImage.6	FOODEEG_Images\0113.jpg	YN	Left	Yes	0.823144599795341	0	597447	252
1168.94921875	0.823144599795341	decision	choicePhaseStart	3	157	37	foodImage.6	FOODEEG_Images\0113.jpg	YN	Left	Yes	0.823144599795341	0	598503	253
1169.765625	0	decision	response	3	157	37	foodImage.6	FOODEEG_Images\0113.jpg	YN	Left	Yes	0.823144599795341	0	598921	234
1170.8046875	1	health	trialStart	3	158	38	foodImage.72	FOODEEG_Images\0714.jpg	YN	Left	Yes	2.17791670002043	0	599453	251
1171.845703125	2	health	foodImageDisplay	3	158	38	foodImage.72	FOODEEG_Images\0714.jpg	YN	Left	Yes	2.17791670002043	0	599986	252
1173.908203125	2.17791670002043	health	choicePhaseStart	3	158	38	foodImage.72	FOODEEG_Images\0714.jpg	YN	Left	Yes	2.17791670002043	0	601042	253
1176.076171875	0	health	response	3	158	38	foodImage.72	FOODEEG_Images\0714.jpg	YN	Left	Yes	2.17791670002043	0	602152	234
1177.119140625	1	health	trialStart	3	159	39	foodImage.44	FOODEEG_Images\0459.jpg	YN	Left	Yes	1.00121299992315	0	602686	251
1178.166015625	2	health	foodImageDisplay	3	159	39	foodImage.44	FOODEEG_Images\0459.jpg	YN	Left	Yes	1.00121299992315	0	603222	252
1180.228515625	1.00121299992315	health	choicePhaseStart	3	159	39	foodImage.44	FOODEEG_Images\0459.jpg	YN	Left	Yes	1.00121299992315	0	604278	253
1181.220703125	0	health	response	3	159	39	foodImage.44	FOODEEG_Images\0459.jpg	YN	Left	Yes	1.00121299992315	0	604786	234
1182.263671875	1	health	trialStart	3	160	40	foodImage.78	FOODEEG_Images\0787.jpg	NY	Right	Yes	1.24238030007109	0	605320	251
1183.30859375	2	health	foodImageDisplay	3	160	40	foodImage.78	FOODEEG_Images\0787.jpg	NY	Right	Yes	1.24238030007109	0	605855	252
1185.37109375	1.24238030007109	health	choicePhaseStart	3	160	40	foodImage.78	FOODEEG_Images\0787.jpg	NY	Right	Yes	1.24238030007109	0	606911	253
1186.60546875	0	health	response	3	160	40	foodImage.78	FOODEEG_Images\0787.jpg	NY	Right	Yes	1.24238030007109	0	607543	235
1187.6484375	1	taste	trialStart	3	161	41	foodImage.29	FOODEEG_Images\0278.jpg	NY	Left	No	0.983197600115091	0	608077	251
1188.689453125	2	taste	foodImageDisplay	3	161	41	foodImage.29	FOODEEG_Images\0278.jpg	NY	Left	No	0.983197600115091	0	608610	252
1190.75	0.983197600115091	taste	choicePhaseStart	3	161	41	foodImage.29	FOODEEG_Images\0278.jpg	NY	Left	No	0.983197600115091	0	609665	253
1191.724609375	0	taste	response	3	161	41	foodImage.29	FOODEEG_Images\0278.jpg	NY	Left	No	0.983197600115091	0	610164	234
1192.767578125	1	taste	trialStart	3	162	42	foodImage.45	FOODEEG_Images\0478.jpg	YN	Left	Yes	1.16096620005555	0	610698	251
1193.8125	2	taste	foodImageDisplay	3	162	42	foodImage.45	FOODEEG_Images\0478.jpg	YN	Left	Yes	1.16096620005555	0	611233	252
1195.875	1.16096620005555	taste	choicePhaseStart	3	162	42	foodImage.45	FOODEEG_Images\0478.jpg	YN	Left	Yes	1.16096620005555	0	612289	253
1197.02734375	0	taste	response	3	162	42	foodImage.45	FOODEEG_Images\0478.jpg	YN	Left	Yes	1.16096620005555	0	612879	234
1198.068359375	1	health	trialStart	3	163	43	foodImage.112	FOODEEG_Images\0920.jpg	NY	Left	No	1.04400480003096	0	613412	251
1199.107421875	2	health	foodImageDisplay	3	163	43	foodImage.112	FOODEEG_Images\0920.jpg	NY	Left	No	1.04400480003096	0	613944	252
1201.16796875	1.04400480003096	health	choicePhaseStart	3	163	43	foodImage.112	FOODEEG_Images\0920.jpg	NY	Left	No	1.04400480003096	0	614999	253
1202.203125	0	health	response	3	163	43	foodImage.112	FOODEEG_Images\0920.jpg	NY	Left	No	1.04400480003096	0	615529	234
1203.244140625	1	health	trialStart	3	164	44	foodImage.45	FOODEEG_Images\0478.jpg	YN	Left	Yes	0.682674299925566	0	616062	251
1204.29296875	2	health	foodImageDisplay	3	164	44	foodImage.45	FOODEEG_Images\0478.jpg	YN	Left	Yes	0.682674299925566	0	616599	252
1206.35546875	0.682674299925566	health	choicePhaseStart	3	164	44	foodImage.45	FOODEEG_Images\0478.jpg	YN	Left	Yes	0.682674299925566	0	617655	253
1207.02734375	0	health	response	3	164	44	foodImage.45	FOODEEG_Images\0478.jpg	YN	Left	Yes	0.682674299925566	0	617999	234
1208.068359375	1	taste	trialStart	3	165	45	foodImage.37	FOODEEG_Images\0359.jpg	NY	Left	No	0.763034100178629	0	618532	251
1209.107421875	2	taste	foodImageDisplay	3	165	45	foodImage.37	FOODEEG_Images\0359.jpg	NY	Left	No	0.763034100178629	0	619064	252
1211.169921875	0.763034100178629	taste	choicePhaseStart	3	165	45	foodImage.37	FOODEEG_Images\0359.jpg	NY	Left	No	0.763034100178629	0	620120	253
1211.923828125	0	taste	response	3	165	45	foodImage.37	FOODEEG_Images\0359.jpg	NY	Left	No	0.763034100178629	0	620506	234
1212.96484375	1	decision	trialStart	3	166	46	foodImage.27	FOODEEG_Images\0263.jpg	NY	Left	No	0.729729400016367	0	621039	251
1214.005859375	2	decision	foodImageDisplay	3	166	46	foodImage.27	FOODEEG_Images\0263.jpg	NY	Left	No	0.729729400016367	0	621572	252
1216.06640625	0.729729400016367	decision	choicePhaseStart	3	166	46	foodImage.27	FOODEEG_Images\0263.jpg	NY	Left	No	0.729729400016367	0	622627	253
1216.787109375	0	decision	response	3	166	46	foodImage.27	FOODEEG_Images\0263.jpg	NY	Left	No	0.729729400016367	0	622996	234
1217.830078125	1	health	trialStart	3	167	47	foodImage.84	FOODEEG_Images\0830.jpg	NY	Left	No	0.838205599924549	0	623530	251
1218.88671875	2	health	foodImageDisplay	3	167	47	foodImage.84	FOODEEG_Images\0830.jpg	NY	Left	No	0.838205599924549	0	624071	252
1220.94921875	0.838205599924549	health	choicePhaseStart	3	167	47	foodImage.84	FOODEEG_Images\0830.jpg	NY	Left	No	0.838205599924549	0	625127	253
1221.779296875	0	health	response	3	167	47	foodImage.84	FOODEEG_Images\0830.jpg	NY	Left	No	0.838205599924549	0	625552	234
1222.82421875	1	decision	trialStart	3	168	48	foodImage.97	FOODEEG_Images\0905.jpg	NY	Left	No	0.695857200073078	0	626087	251
1223.86328125	2	decision	foodImageDisplay	3	168	48	foodImage.97	FOODEEG_Images\0905.jpg	NY	Left	No	0.695857200073078	0	626619	252
1225.931640625	0.695857200073078	decision	choicePhaseStart	3	168	48	foodImage.97	FOODEEG_Images\0905.jpg	NY	Left	No	0.695857200073078	0	627678	253
1226.619140625	0	decision	response	3	168	48	foodImage.97	FOODEEG_Images\0905.jpg	NY	Left	No	0.695857200073078	0	628030	234
1227.66015625	1	taste	trialStart	3	169	49	foodImage.5	FOODEEG_Images\0107.jpg	NY	Right	Yes	1.06920309993438	0	628563	251
1228.71875	2	taste	foodImageDisplay	3	169	49	foodImage.5	FOODEEG_Images\0107.jpg	NY	Right	Yes	1.06920309993438	0	629105	252
1230.783203125	1.06920309993438	taste	choicePhaseStart	3	169	49	foodImage.5	FOODEEG_Images\0107.jpg	NY	Right	Yes	1.06920309993438	0	630162	253
1231.84375	0	taste	response	3	169	49	foodImage.5	FOODEEG_Images\0107.jpg	NY	Right	Yes	1.06920309993438	0	630705	235
1232.884765625	1	taste	trialStart	3	170	50	foodImage.26	FOODEEG_Images\0262.jpg	NY	Left	No	1.06900220015086	0	631238	251
1233.927734375	2	taste	foodImageDisplay	3	170	50	foodImage.26	FOODEEG_Images\0262.jpg	NY	Left	No	1.06900220015086	0	631772	252
1235.990234375	1.06900220015086	taste	choicePhaseStart	3	170	50	foodImage.26	FOODEEG_Images\0262.jpg	NY	Left	No	1.06900220015086	0	632828	253
1237.05078125	0	taste	response	3	170	50	foodImage.26	FOODEEG_Images\0262.jpg	NY	Left	No	1.06900220015086	0	633371	234
1238.08984375	1	decision	trialStart	3	171	51	foodImage.119	FOODEEG_Images\0927.jpg	YN	Right	No	1.46923039993271	0	633903	251
1239.126953125	2	decision	foodImageDisplay	3	171	51	foodImage.119	FOODEEG_Images\0927.jpg	YN	Right	No	1.46923039993271	0	634434	252
1241.189453125	1.46923039993271	decision	choicePhaseStart	3	171	51	foodImage.119	FOODEEG_Images\0927.jpg	YN	Right	No	1.46923039993271	0	635490	253
1242.650390625	0	decision	response	3	171	51	foodImage.119	FOODEEG_Images\0927.jpg	YN	Right	No	1.46923039993271	0	636238	235
1243.693359375	1	health	trialStart	3	172	52	foodImage.39	FOODEEG_Images\0367.jpg	YN	Right	No	0.927966699935496	0	636772	251
1244.732421875	2	health	foodImageDisplay	3	172	52	foodImage.39	FOODEEG_Images\0367.jpg	YN	Right	No	0.927966699935496	0	637304	252
1246.794921875	0.927966699935496	health	choicePhaseStart	3	172	52	foodImage.39	FOODEEG_Images\0367.jpg	YN	Right	No	0.927966699935496	0	638360	253
1247.71484375	0	health	response	3	172	52	foodImage.39	FOODEEG_Images\0367.jpg	YN	Right	No	0.927966699935496	0	638831	235
1248.7578125	1	taste	trialStart	3	173	53	foodImage.25	FOODEEG_Images\0261.jpg	YN	Right	No	1.51574510009959	0	639365	251
1249.80078125	2	taste	foodImageDisplay	3	173	53	foodImage.25	FOODEEG_Images\0261.jpg	YN	Right	No	1.51574510009959	0	639899	252
1251.86328125	1.51574510009959	taste	choicePhaseStart	3	173	53	foodImage.25	FOODEEG_Images\0261.jpg	YN	Right	No	1.51574510009959	0	640955	253
1253.369140625	0	taste	response	3	173	53	foodImage.25	FOODEEG_Images\0261.jpg	YN	Right	No	1.51574510009959	0	641726	235
1254.416015625	1	health	trialStart	3	174	54	foodImage.86	FOODEEG_Images\0844.jpg	NY	Left	No	1.50808429997414	0	642262	251
1255.474609375	2	health	foodImageDisplay	3	174	54	foodImage.86	FOODEEG_Images\0844.jpg	NY	Left	No	1.50808429997414	0	642804	252
1257.537109375	1.50808429997414	health	choicePhaseStart	3	174	54	foodImage.86	FOODEEG_Images\0844.jpg	NY	Left	No	1.50808429997414	0	643860	253
1259.033203125	0	health	response	3	174	54	foodImage.86	FOODEEG_Images\0844.jpg	NY	Left	No	1.50808429997414	0	644626	234
1260.076171875	1	health	trialStart	3	175	55	foodImage.21	FOODEEG_Images\0234.jpg	YN	Left	Yes	1.12812980008312	0	645160	251
1261.1328125	2	health	foodImageDisplay	3	175	55	foodImage.21	FOODEEG_Images\0234.jpg	YN	Left	Yes	1.12812980008312	0	645701	252
1263.1953125	1.12812980008312	health	choicePhaseStart	3	175	55	foodImage.21	FOODEEG_Images\0234.jpg	YN	Left	Yes	1.12812980008312	0	646757	253
1264.314453125	0	health	response	3	175	55	foodImage.21	FOODEEG_Images\0234.jpg	YN	Left	Yes	1.12812980008312	0	647330	234
1265.353515625	1	health	trialStart	3	176	56	foodImage.43	FOODEEG_Images\0445.jpg	NY	Right	Yes	0.761119100032374	0	647862	251
1266.41015625	2	health	foodImageDisplay	3	176	56	foodImage.43	FOODEEG_Images\0445.jpg	NY	Right	Yes	0.761119100032374	0	648403	252
1268.47265625	0.761119100032374	health	choicePhaseStart	3	176	56	foodImage.43	FOODEEG_Images\0445.jpg	NY	Right	Yes	0.761119100032374	0	649459	253
1269.224609375	0	health	response	3	176	56	foodImage.43	FOODEEG_Images\0445.jpg	NY	Right	Yes	0.761119100032374	0	649844	235
1270.267578125	1	health	trialStart	3	177	57	foodImage.62	FOODEEG_Images\0644.jpg	NY	Right	Yes	1.14525469997898	0	650378	251
1271.322265625	2	health	foodImageDisplay	3	177	57	foodImage.62	FOODEEG_Images\0644.jpg	NY	Right	Yes	1.14525469997898	0	650918	252
1273.384765625	1.14525469997898	health	choicePhaseStart	3	177	57	foodImage.62	FOODEEG_Images\0644.jpg	NY	Right	Yes	1.14525469997898	0	651974	253
1274.521484375	0	health	response	3	177	57	foodImage.62	FOODEEG_Images\0644.jpg	NY	Right	Yes	1.14525469997898	0	652556	235
1275.564453125	1	health	trialStart	3	178	58	foodImage.37	FOODEEG_Images\0359.jpg	YN	Left	Yes	0.844812700059265	0	653090	251
1276.60546875	2	health	foodImageDisplay	3	178	58	foodImage.37	FOODEEG_Images\0359.jpg	YN	Left	Yes	0.844812700059265	0	653623	252
1278.669921875	0.844812700059265	health	choicePhaseStart	3	178	58	foodImage.37	FOODEEG_Images\0359.jpg	YN	Left	Yes	0.844812700059265	0	654680	253
1279.505859375	0	health	response	3	178	58	foodImage.37	FOODEEG_Images\0359.jpg	YN	Left	Yes	0.844812700059265	0	655108	234
1280.548828125	1	decision	trialStart	3	179	59	foodImage.107	FOODEEG_Images\0915.jpg	NY	Left	No	0.944741199957207	0	655642	251
1281.587890625	2	decision	foodImageDisplay	3	179	59	foodImage.107	FOODEEG_Images\0915.jpg	NY	Left	No	0.944741199957207	0	656174	252
1283.650390625	0.944741199957207	decision	choicePhaseStart	3	179	59	foodImage.107	FOODEEG_Images\0915.jpg	NY	Left	No	0.944741199957207	0	657230	253
1284.583984375	0	decision	response	3	179	59	foodImage.107	FOODEEG_Images\0915.jpg	NY	Left	No	0.944741199957207	0	657708	234
1285.626953125	1	health	trialStart	3	180	60	foodImage.91	FOODEEG_Images\0896.jpg	NY	Right	Yes	0.906993400072679	0	658242	251
1286.685546875	2	health	foodImageDisplay	3	180	60	foodImage.91	FOODEEG_Images\0896.jpg	NY	Right	Yes	0.906993400072679	0	658784	252
1288.75	0.906993400072679	health	choicePhaseStart	3	180	60	foodImage.91	FOODEEG_Images\0896.jpg	NY	Right	Yes	0.906993400072679	0	659841	253
1289.6484375	0	health	response	3	180	60	foodImage.91	FOODEEG_Images\0896.jpg	NY	Right	Yes	0.906993400072679	0	660301	235
1291.693359375	13.029296875	n/a	blockEnd	n/a	n/a	n/a	n/a	n/a	n/a	n/a	n/a	n/a	n/a	661348	254
1304.72265625	2	n/a	blockStart	4	n/a	n/a	n/a	n/a	n/a	n/a	n/a	n/a	n/a	668019	250
1306.7578125	1	health	trialStart	4	181	1	foodImage.61	FOODEEG_Images\0640.jpg	YN	Left	Yes	1.27787180012092	0	669061	251
1307.80078125	2	health	foodImageDisplay	4	181	1	foodImage.61	FOODEEG_Images\0640.jpg	YN	Left	Yes	1.27787180012092	0	669595	252
1309.8671875	1.27787180012092	health	choicePhaseStart	4	181	1	foodImage.61	FOODEEG_Images\0640.jpg	YN	Left	Yes	1.27787180012092	0	670653	253
1311.134765625	0	health	response	4	181	1	foodImage.61	FOODEEG_Images\0640.jpg	YN	Left	Yes	1.27787180012092	0	671302	234
1312.1796875	1	decision	trialStart	4	182	2	foodImage.66	FOODEEG_Images\0676.jpg	NY	Right	Yes	0.926176900044084	0	671837	251
1313.21875	2	decision	foodImageDisplay	4	182	2	foodImage.66	FOODEEG_Images\0676.jpg	NY	Right	Yes	0.926176900044084	0	672369	252
1315.28125	0.926176900044084	decision	choicePhaseStart	4	182	2	foodImage.66	FOODEEG_Images\0676.jpg	NY	Right	Yes	0.926176900044084	0	673425	253
1316.19921875	0	decision	response	4	182	2	foodImage.66	FOODEEG_Images\0676.jpg	NY	Right	Yes	0.926176900044084	0	673895	235
1317.2421875	1	decision	trialStart	4	183	3	foodImage.28	FOODEEG_Images\0273.jpg	NY	Left	No	1.10801950003952	0	674429	251
1318.28515625	2	decision	foodImageDisplay	4	183	3	foodImage.28	FOODEEG_Images\0273.jpg	NY	Left	No	1.10801950003952	0	674963	252
1320.34765625	1.10801950003952	decision	choicePhaseStart	4	183	3	foodImage.28	FOODEEG_Images\0273.jpg	NY	Left	No	1.10801950003952	0	676019	253
1321.447265625	0	decision	response	4	183	3	foodImage.28	FOODEEG_Images\0273.jpg	NY	Left	No	1.10801950003952	0	676582	234
1322.490234375	1	taste	trialStart	4	184	4	foodImage.95	FOODEEG_Images\0903.jpg	YN	Right	No	0.952885400038213	0	677116	251
1323.529296875	2	taste	foodImageDisplay	4	184	4	foodImage.95	FOODEEG_Images\0903.jpg	YN	Right	No	0.952885400038213	0	677648	252
1325.591796875	0.952885400038213	taste	choicePhaseStart	4	184	4	foodImage.95	FOODEEG_Images\0903.jpg	YN	Right	No	0.952885400038213	0	678704	253
1326.53515625	0	taste	response	4	184	4	foodImage.95	FOODEEG_Images\0903.jpg	YN	Right	No	0.952885400038213	0	679187	235
1327.578125	1	health	trialStart	4	185	5	foodImage.105	FOODEEG_Images\0913.jpg	NY	Right	Yes	1.16119140014052	0	679721	251
1328.615234375	2	health	foodImageDisplay	4	185	5	foodImage.105	FOODEEG_Images\0913.jpg	NY	Right	Yes	1.16119140014052	0	680252	252
1330.677734375	1.16119140014052	health	choicePhaseStart	4	185	5	foodImage.105	FOODEEG_Images\0913.jpg	NY	Right	Yes	1.16119140014052	0	681308	253
1331.830078125	0	health	response	4	185	5	foodImage.105	FOODEEG_Images\0913.jpg	NY	Right	Yes	1.16119140014052	0	681898	235
1332.873046875	1	decision	trialStart	4	186	6	foodImage.94	FOODEEG_Images\0902.jpg	NY	Left	No	0.790863499976695	0	682432	251
1333.91015625	2	decision	foodImageDisplay	4	186	6	foodImage.94	FOODEEG_Images\0902.jpg	NY	Left	No	0.790863499976695	0	682963	252
1335.9765625	0.790863499976695	decision	choicePhaseStart	4	186	6	foodImage.94	FOODEEG_Images\0902.jpg	NY	Left	No	0.790863499976695	0	684021	253
1336.759765625	0	decision	response	4	186	6	foodImage.94	FOODEEG_Images\0902.jpg	NY	Left	No	0.790863499976695	0	684422	234
1337.798828125	1	taste	trialStart	4	187	7	foodImage.104	FOODEEG_Images\0912.jpg	NY	Right	Yes	1.18017300008796	0	684954	251
1338.837890625	2	taste	foodImageDisplay	4	187	7	foodImage.104	FOODEEG_Images\0912.jpg	NY	Right	Yes	1.18017300008796	0	685486	252
1340.8984375	1.18017300008796	taste	choicePhaseStart	4	187	7	foodImage.104	FOODEEG_Images\0912.jpg	NY	Right	Yes	1.18017300008796	0	686541	253
1342.0703125	0	taste	response	4	187	7	foodImage.104	FOODEEG_Images\0912.jpg	NY	Right	Yes	1.18017300008796	0	687141	235
1343.11328125	1	decision	trialStart	4	188	8	foodImage.34	FOODEEG_Images\0339.jpg	NY	Right	Yes	1.36820809985511	0	687675	251
1344.177734375	2	decision	foodImageDisplay	4	188	8	foodImage.34	FOODEEG_Images\0339.jpg	NY	Right	Yes	1.36820809985511	0	688220	252
1346.240234375	1.36820809985511	decision	choicePhaseStart	4	188	8	foodImage.34	FOODEEG_Images\0339.jpg	NY	Right	Yes	1.36820809985511	0	689276	253
1347.59765625	0	decision	response	4	188	8	foodImage.34	FOODEEG_Images\0339.jpg	NY	Right	Yes	1.36820809985511	0	689971	235
1348.640625	1	taste	trialStart	4	189	9	foodImage.50	FOODEEG_Images\0529.jpg	NY	Left	No	1.1849702000618	0	690505	251
1349.697265625	2	taste	foodImageDisplay	4	189	9	foodImage.50	FOODEEG_Images\0529.jpg	NY	Left	No	1.1849702000618	0	691046	252
1351.759765625	1.1849702000618	taste	choicePhaseStart	4	189	9	foodImage.50	FOODEEG_Images\0529.jpg	NY	Left	No	1.1849702000618	0	692102	253
1352.93359375	0	taste	response	4	189	9	foodImage.50	FOODEEG_Images\0529.jpg	NY	Left	No	1.1849702000618	0	692703	234
1353.9765625	1	decision	trialStart	4	190	10	foodImage.57	FOODEEG_Images\0587.jpg	YN	Left	Yes	0.804972199955955	0	693237	251
1355.01953125	2	decision	foodImageDisplay	4	190	10	foodImage.57	FOODEEG_Images\0587.jpg	YN	Left	Yes	0.804972199955955	0	693771	252
1357.08203125	0.804972199955955	decision	choicePhaseStart	4	190	10	foodImage.57	FOODEEG_Images\0587.jpg	YN	Left	Yes	0.804972199955955	0	694827	253
1357.876953125	0	decision	response	4	190	10	foodImage.57	FOODEEG_Images\0587.jpg	YN	Left	Yes	0.804972199955955	0	695234	234
1358.91796875	1	decision	trialStart	4	191	11	foodImage.3	FOODEEG_Images\0046.jpg	NY	Right	Yes	1.55327179981396	0	695767	251
1359.958984375	2	decision	foodImageDisplay	4	191	11	foodImage.3	FOODEEG_Images\0046.jpg	NY	Right	Yes	1.55327179981396	0	696300	252
1362.021484375	1.55327179981396	decision	choicePhaseStart	4	191	11	foodImage.3	FOODEEG_Images\0046.jpg	NY	Right	Yes	1.55327179981396	0	697356	253
1363.564453125	0	decision	response	4	191	11	foodImage.3	FOODEEG_Images\0046.jpg	NY	Right	Yes	1.55327179981396	0	698146	235
1364.607421875	1	taste	trialStart	4	192	12	foodImage.56	FOODEEG_Images\0586.jpg	NY	Right	Yes	0.84557899995707	0	698680	251
1365.650390625	2	taste	foodImageDisplay	4	192	12	foodImage.56	FOODEEG_Images\0586.jpg	NY	Right	Yes	0.84557899995707	0	699214	252
1367.712890625	0.84557899995707	taste	choicePhaseStart	4	192	12	foodImage.56	FOODEEG_Images\0586.jpg	NY	Right	Yes	0.84557899995707	0	700270	253
1368.548828125	0	taste	response	4	192	12	foodImage.56	FOODEEG_Images\0586.jpg	NY	Right	Yes	0.84557899995707	0	700698	235
1369.591796875	1	taste	trialStart	4	193	13	foodImage.119	FOODEEG_Images\0927.jpg	YN	Left	Yes	1.7248739998322	0	701232	251
1370.634765625	2	taste	foodImageDisplay	4	193	13	foodImage.119	FOODEEG_Images\0927.jpg	YN	Left	Yes	1.7248739998322	0	701766	252
1372.697265625	1.7248739998322	taste	choicePhaseStart	4	193	13	foodImage.119	FOODEEG_Images\0927.jpg	YN	Left	Yes	1.7248739998322	0	702822	253
1374.4140625	0	taste	response	4	193	13	foodImage.119	FOODEEG_Images\0927.jpg	YN	Left	Yes	1.7248739998322	0	703701	234
1375.455078125	1	health	trialStart	4	194	14	foodImage.20	FOODEEG_Images\0226.jpg	NY	Right	Yes	1.07094109989703	0	704234	251
1376.49609375	2	health	foodImageDisplay	4	194	14	foodImage.20	FOODEEG_Images\0226.jpg	NY	Right	Yes	1.07094109989703	0	704767	252
1378.55859375	1.07094109989703	health	choicePhaseStart	4	194	14	foodImage.20	FOODEEG_Images\0226.jpg	NY	Right	Yes	1.07094109989703	0	705823	253
