onset	duration	trial_type	event_type	block	trial_total	trial_in_block	food_image_code	food_image_path	button_position	resp_position	resp_choice	choice_rt	resp_too_slow	sample	trigger
72.474609375	2	n/a	blockStart	1	n/a	n/a	n/a	n/a	n/a	n/a	n/a	n/a	n/a	37108	250
74.51171875	1	taste	trialStart	1	1	1	foodImage.48	FOODEEG_Images\0494.jpg	NY	Right	Yes	0.723125000018626	0	38151	251
75.5625	2	taste	foodImageDisplay	1	1	1	foodImage.48	FOODEEG_Images\0494.jpg	NY	Right	Yes	0.723125000018626	0	38689	252
77.626953125	0.723125000018626	taste	choicePhaseStart	1	1	1	foodImage.48	FOODEEG_Images\0494.jpg	NY	Right	Yes	0.723125000018626	0	39746	253
78.34375	0	taste	response	1	1	1	foodImage.48	FOODEEG_Images\0494.jpg	NY	Right	Yes	0.723125000018626	0	40113	235
79.451171875	1	taste	trialStart	1	2	2	foodImage.6	FOODEEG_Images\0113.jpg	NY	Right	Yes	0.530951499938965	0	40680	251
80.494140625	2	taste	foodImageDisplay	1	2	2	foodImage.6	FOODEEG_Images\0113.jpg	NY	Right	Yes	0.530951499938965	0	41214	252
82.556640625	0.530951499938965	taste	choicePhaseStart	1	2	2	foodImage.6	FOODEEG_Images\0113.jpg	NY	Right	Yes	0.530951499938965	0	42270	253
83.078125	0	taste	response	1	2	2	foodImage.6	FOODEEG_Images\0113.jpg	NY	Right	Yes	0.530951499938965	0	42537	235
84.130859375	1	health	trialStart	1	3	3	foodImage.80	FOODEEG_Images\0796.jpg	NY	Right	Yes	0.721704200026579	0	43076	251
85.189453125	2	health	foodImageDisplay	1	3	3	foodImage.80	FOODEEG_Images\0796.jpg	NY	Right	Yes	0.721704200026579	0	43618	252
87.25390625	0.721704200026579	health	choicePhaseStart	1	3	3	foodImage.80	FOODEEG_Images\0796.jpg	NY	Right	Yes	0.721704200026579	0	44675	253
87.966796875	0	health	response	1	3	3	foodImage.80	FOODEEG_Images\0796.jpg	NY	Right	Yes	0.721704200026579	0	45040	235
89.005859375	1	health	trialStart	1	4	4	foodImage.117	FOODEEG_Images\0925.jpg	NY	Right	Yes	1.08813269995153	0	45572	251
90.046875	2	health	foodImageDisplay	1	4	4	foodImage.117	FOODEEG_Images\0925.jpg	NY	Right	Yes	1.08813269995153	0	46105	252
92.109375	1.08813269995153	health	choicePhaseStart	1	4	4	foodImage.117	FOODEEG_Images\0925.jpg	NY	Right	Yes	1.08813269995153	0	47161	253
93.189453125	0	health	response	1	4	4	foodImage.117	FOODEEG_Images\0925.jpg	NY	Right	Yes	1.08813269995153	0	47714	235
94.232421875	1	decision	trialStart	1	5	5	foodImage.11	FOODEEG_Images\0180.jpg	YN	Left	Yes	1.39006539992988	0	48248	251
95.279296875	2	decision	foodImageDisplay	1	5	5	foodImage.11	FOODEEG_Images\0180.jpg	YN	Left	Yes	1.39006539992988	0	48784	252
97.34375	1.39006539992988	decision	choicePhaseStart	1	5	5	foodImage.11	FOODEEG_Images\0180.jpg	YN	Left	Yes	1.39006539992988	0	49841	253
98.7265625	0	decision	response	1	5	5	foodImage.11	FOODEEG_Images\0180.jpg	YN	Left	Yes	1.39006539992988	0	50549	234
99.77734375	1	taste	trialStart	1	6	6	foodImage.118	FOODEEG_Images\0926.jpg	NY	Left	No	0.806113100028597	0	51087	251
100.814453125	2	taste	foodImageDisplay	1	6	6	foodImage.118	FOODEEG_Images\0926.jpg	NY	Left	No	0.806113100028597	0	51618	252
102.87890625	0.806113100028597	taste	choicePhaseStart	1	6	6	foodImage.118	FOODEEG_Images\0926.jpg	NY	Left	No	0.806113100028597	0	52675	253
103.677734375	0	taste	response	1	6	6	foodImage.118	FOODEEG_Images\0926.jpg	NY	Left	No	0.806113100028597	0	53084	234
104.71875	1	decision	trialStart	1	7	7	foodImage.26	FOODEEG_Images\0262.jpg	YN	Right	No	0.880448900046758	0	53617	251
105.759765625	2	decision	foodImageDisplay	1	7	7	foodImage.26	FOODEEG_Images\0262.jpg	YN	Right	No	0.880448900046758	0	54150	252
107.822265625	0.880448900046758	decision	choicePhaseStart	1	7	7	foodImage.26	FOODEEG_Images\0262.jpg	YN	Right	No	0.880448900046758	0	55206	253
108.693359375	0	decision	response	1	7	7	foodImage.26	FOODEEG_Images\0262.jpg	YN	Right	No	0.880448900046758	0	55652	235
109.734375	1	taste	trialStart	1	8	8	foodImage.78	FOODEEG_Images\0787.jpg	YN	Left	Yes	0.803369999979623	0	56185	251
110.779296875	2	taste	foodImageDisplay	1	8	8	foodImage.78	FOODEEG_Images\0787.jpg	YN	Left	Yes	0.803369999979623	0	56720	252
112.841796875	0.803369999979623	taste	choicePhaseStart	1	8	8	foodImage.78	FOODEEG_Images\0787.jpg	YN	Left	Yes	0.803369999979623	0	57776	253
113.63671875	0	taste	response	1	8	8	foodImage.78	FOODEEG_Images\0787.jpg	YN	Left	Yes	0.803369999979623	0	58183	234
114.677734375	1	taste	trialStart	1	9	9	foodImage.76	FOODEEG_Images\0766.jpg	YN	Right	No	0.882726400042884	0	58716	251
115.720703125	2	taste	foodImageDisplay	1	9	9	foodImage.76	FOODEEG_Images\0766.jpg	YN	Right	No	0.882726400042884	0	59250	252
117.783203125	0.882726400042884	taste	choicePhaseStart	1	9	9	foodImage.76	FOODEEG_Images\0766.jpg	YN	Right	No	0.882726400042884	0	60306	253
118.66015625	0	taste	response	1	9	9	foodImage.76	FOODEEG_Images\0766.jpg	YN	Right	No	0.882726400042884	0	60755	235
119.705078125	1	taste	trialStart	1	10	10	foodImage.56	FOODEEG_Images\0586.jpg	NY	Left	No	0.923869700054638	0	61290	251
120.74609375	2	taste	foodImageDisplay	1	10	10	foodImage.56	FOODEEG_Images\0586.jpg	NY	Left	No	0.923869700054638	0	61823	252
122.810546875	0.923869700054638	taste	choicePhaseStart	1	10	10	foodImage.56	FOODEEG_Images\0586.jpg	NY	Left	No	0.923869700054638	0	62880	253
123.724609375	0	taste	response	1	10	10	foodImage.56	FOODEEG_Images\0586.jpg	NY	Left	No	0.923869700054638	0	63348	234
124.765625	1	health	trialStart	1	11	11	foodImage.42	FOODEEG_Images\0438.jpg	NY	Right	Yes	0.613015600014478	0	63881	251
125.86328125	2	health	foodImageDisplay	1	11	11	foodImage.42	FOODEEG_Images\0438.jpg	NY	Right	Yes	0.613015600014478	0	64443	252
127.92578125	0.613015600014478	health	choicePhaseStart	1	11	11	foodImage.42	FOODEEG_Images\0438.jpg	NY	Right	Yes	0.613015600014478	0	65499	253
128.533203125	0	health	response	1	11	11	foodImage.42	FOODEEG_Images\0438.jpg	NY	Right	Yes	0.613015600014478	0	65810	235
129.572265625	1	taste	trialStart	1	12	12	foodImage.87	FOODEEG_Images\0873.jpg	YN	Left	Yes	0.879641099949367	0	66342	251
130.630859375	2	taste	foodImageDisplay	1	12	12	foodImage.87	FOODEEG_Images\0873.jpg	YN	Left	Yes	0.879641099949367	0	66884	252
132.693359375	0.879641099949367	taste	choicePhaseStart	1	12	12	foodImage.87	FOODEEG_Images\0873.jpg	YN	Left	Yes	0.879641099949367	0	67940	253
133.564453125	0	taste	response	1	12	12	foodImage.87	FOODEEG_Images\0873.jpg	YN	Left	Yes	0.879641099949367	0	68386	234
134.607421875	1	health	trialStart	1	13	13	foodImage.47	FOODEEG_Images\0488.jpg	NY	Left	No	3.22979580005631	0	68920	251
135.6484375	2	health	foodImageDisplay	1	13	13	foodImage.47	FOODEEG_Images\0488.jpg	NY	Left	No	3.22979580005631	0	69453	252
137.7109375	3.22979580005631	health	choicePhaseStart	1	13	13	foodImage.47	FOODEEG_Images\0488.jpg	NY	Left	No	3.22979580005631	0	70509	253
140.931640625	0	health	response	1	13	13	foodImage.47	FOODEEG_Images\0488.jpg	NY	Left	No	3.22979580005631	0	72158	234
141.974609375	1	health	trialStart	1	14	14	foodImage.102	FOODEEG_Images\0910.jpg	NY	Left	No	1.27021040010732	0	72692	251
143.013671875	2	health	foodImageDisplay	1	14	14	foodImage.102	FOODEEG_Images\0910.jpg	NY	Left	No	1.27021040010732	0	73224	252
145.076171875	1.27021040010732	health	choicePhaseStart	1	14	14	foodImage.102	FOODEEG_Images\0910.jpg	NY	Left	No	1.27021040010732	0	74280	253
146.33984375	0	health	response	1	14	14	foodImage.102	FOODEEG_Images\0910.jpg	NY	Left	No	1.27021040010732	0	74927	234
147.380859375	1	taste	trialStart	1	15	15	foodImage.91	FOODEEG_Images\0896.jpg	YN	Right	No	1.16675410000607	0	75460	251
148.439453125	2	taste	foodImageDisplay	1	15	15	foodImage.91	FOODEEG_Images\0896.jpg	YN	Right	No	1.16675410000607	0	76002	252
150.501953125	1.16675410000607	taste	choicePhaseStart	1	15	15	foodImage.91	FOODEEG_Images\0896.jpg	YN	Right	No	1.16675410000607	0	77058	253
151.658203125	0	taste	response	1	15	15	foodImage.91	FOODEEG_Images\0896.jpg	YN	Right	No	1.16675410000607	0	77650	235
152.701171875	1	taste	trialStart	1	16	16	foodImage.92	FOODEEG_Images\0900.jpg	NY	Left	No	0.751156999962404	0	78184	251
153.7421875	2	taste	foodImageDisplay	1	16	16	foodImage.92	FOODEEG_Images\0900.jpg	NY	Left	No	0.751156999962404	0	78717	252
155.8046875	0.751156999962404	taste	choicePhaseStart	1	16	16	foodImage.92	FOODEEG_Images\0900.jpg	NY	Left	No	0.751156999962404	0	79773	253
156.546875	0	taste	response	1	16	16	foodImage.92	FOODEEG_Images\0900.jpg	NY	Left	No	0.751156999962404	0	80153	234
157.58984375	1	taste	trialStart	1	17	17	foodImage.96	FOODEEG_Images\0904.jpg	NY	Right	Yes	0.67146490002051	0	80687	251
158.62890625	2	taste	foodImageDisplay	1	17	17	foodImage.96	FOODEEG_Images\0904.jpg	NY	Right	Yes	0.67146490002051	0	81219	252
160.69140625	0.67146490002051	taste	choicePhaseStart	1	17	17	foodImage.96	FOODEEG_Images\0904.jpg	NY	Right	Yes	0.67146490002051	0	82275	253
161.35546875	0	taste	response	1	17	17	foodImage.96	FOODEEG_Images\0904.jpg	NY	Right	Yes	0.67146490002051	0	82615	235
162.3984375	1	taste	trialStart	1	18	18	foodImage.44	FOODEEG_Images\0459.jpg	YN	Left	Yes	0.771782700088806	0	83149	251
163.44921875	2	taste	foodImageDisplay	1	18	18	foodImage.44	FOODEEG_Images\0459.jpg	YN	Left	Yes	0.771782700088806	0	83687	252
165.51171875	0.771782700088806	taste	choicePhaseStart	1	18	18	foodImage.44	FOODEEG_Images\0459.jpg	YN	Left	Yes	0.771782700088806	0	84743	253
166.275390625	0	taste	response	1	18	18	foodImage.44	FOODEEG_Images\0459.jpg	YN	Left	Yes	0.771782700088806	0	85134	234
167.314453125	1	health	trialStart	1	19	19	foodImage.68	FOODEEG_Images\0685.jpg	YN	Left	Yes	0.96275029995013	0	85666	251
168.392578125	2	health	foodImageDisplay	1	19	19	foodImage.68	FOODEEG_Images\0685.jpg	YN	Left	Yes	0.96275029995013	0	86218	252
170.455078125	0.96275029995013	health	choicePhaseStart	1	19	19	foodImage.68	FOODEEG_Images\0685.jpg	YN	Left	Yes	0.96275029995013	0	87274	253
171.41015625	0	health	response	1	19	19	foodImage.68	FOODEEG_Images\0685.jpg	YN	Left	Yes	0.96275029995013	0	87763	234
172.451171875	1	taste	trialStart	1	20	20	foodImage.62	FOODEEG_Images\0644.jpg	NY	Left	No	1.09785880008712	0	88296	251
173.5078125	2	taste	foodImageDisplay	1	20	20	foodImage.62	FOODEEG_Images\0644.jpg	NY	Left	No	1.09785880008712	0	88837	252
175.5703125	1.09785880008712	taste	choicePhaseStart	1	20	20	foodImage.62	FOODEEG_Images\0644.jpg	NY	Left	No	1.09785880008712	0	89893	253
176.658203125	0	taste	response	1	20	20	foodImage.62	FOODEEG_Images\0644.jpg	NY	Left	No	1.09785880008712	0	90450	234
177.705078125	1	taste	trialStart	1	21	21	foodImage.31	FOODEEG_Images\0294.jpg	YN	Left	Yes	0.889054800034501	0	90986	251
178.748046875	2	taste	foodImageDisplay	1	21	21	foodImage.31	FOODEEG_Images\0294.jpg	YN	Left	Yes	0.889054800034501	0	91520	252
180.810546875	0.889054800034501	taste	choicePhaseStart	1	21	21	foodImage.31	FOODEEG_Images\0294.jpg	YN	Left	Yes	0.889054800034501	0	92576	253
181.689453125	0	taste	response	1	21	21	foodImage.31	FOODEEG_Images\0294.jpg	YN	Left	Yes	0.889054800034501	0	93026	234
182.732421875	1	health	trialStart	1	22	22	foodImage.20	FOODEEG_Images\0226.jpg	NY	Right	Yes	1.05632969993167	0	93560	251
183.7734375	2	health	foodImageDisplay	1	22	22	foodImage.20	FOODEEG_Images\0226.jpg	NY	Right	Yes	1.05632969993167	0	94093	252
185.8359375	1.05632969993167	health	choicePhaseStart	1	22	22	foodImage.20	FOODEEG_Images\0226.jpg	NY	Right	Yes	1.05632969993167	0	95149	253
186.8828125	0	health	response	1	22	22	foodImage.20	FOODEEG_Images\0226.jpg	NY	Right	Yes	1.05632969993167	0	95685	235
187.92578125	1	taste	trialStart	1	23	23	foodImage.106	FOODEEG_Images\0914.jpg	NY	Left	No	1.21538870001677	0	96219	251
188.96484375	2	taste	foodImageDisplay	1	23	23	foodImage.106	FOODEEG_Images\0914.jpg	NY	Left	No	1.21538870001677	0	96751	252
191.02734375	1.21538870001677	taste	choicePhaseStart	1	23	23	foodImage.106	FOODEEG_Images\0914.jpg	NY	Left	No	1.21538870001677	0	97807	253
192.234375	0	taste	response	1	23	23	foodImage.106	FOODEEG_Images\0914.jpg	NY	Left	No	1.21538870001677	0	98425	234
193.28125	1	taste	trialStart	1	24	24	foodImage.17	FOODEEG_Images\0199.jpg	YN	Left	Yes	0.953901799977757	0	98961	251
194.322265625	2	taste	foodImageDisplay	1	24	24	foodImage.17	FOODEEG_Images\0199.jpg	YN	Left	Yes	0.953901799977757	0	99494	252
196.384765625	0.953901799977757	taste	choicePhaseStart	1	24	24	foodImage.17	FOODEEG_Images\0199.jpg	YN	Left	Yes	0.953901799977757	0	100550	253
197.330078125	0	taste	response	1	24	24	foodImage.17	FOODEEG_Images\0199.jpg	YN	Left	Yes	0.953901799977757	0	101034	234
198.369140625	1	decision	trialStart	1	25	25	foodImage.67	FOODEEG_Images\0679.jpg	NY	Left	No	1.87350470002275	0	101566	251
199.42578125	2	decision	foodImageDisplay	1	25	25	foodImage.67	FOODEEG_Images\0679.jpg	NY	Left	No	1.87350470002275	0	102107	252
201.490234375	1.87350470002275	decision	choicePhaseStart	1	25	25	foodImage.67	FOODEEG_Images\0679.jpg	NY	Left	No	1.87350470002275	0	103164	253
203.353515625	0	decision	response	1	25	25	foodImage.67	FOODEEG_Images\0679.jpg	NY	Left	No	1.87350470002275	0	104118	234
204.39453125	1	health	trialStart	1	26	26	foodImage.2	FOODEEG_Images\0028.jpg	YN	Left	Yes	1.01456139993388	0	104651	251
205.4375	2	health	foodImageDisplay	1	26	26	foodImage.2	FOODEEG_Images\0028.jpg	YN	Left	Yes	1.01456139993388	0	105185	252
207.5	1.01456139993388	health	choicePhaseStart	1	26	26	foodImage.2	FOODEEG_Images\0028.jpg	YN	Left	Yes	1.01456139993388	0	106241	253
208.505859375	0	health	response	1	26	26	foodImage.2	FOODEEG_Images\0028.jpg	YN	Left	Yes	1.01456139993388	0	106756	234
209.544921875	1	decision	trialStart	1	27	27	foodImage.60	FOODEEG_Images\0614.jpg	NY	Right	Yes	1.10567790002096	0	107288	251
210.6015625	2	decision	foodImageDisplay	1	27	27	foodImage.60	FOODEEG_Images\0614.jpg	NY	Right	Yes	1.10567790002096	0	107829	252
212.6640625	1.10567790002096	decision	choicePhaseStart	1	27	27	foodImage.60	FOODEEG_Images\0614.jpg	NY	Right	Yes	1.10567790002096	0	108885	253
213.76171875	0	decision	response	1	27	27	foodImage.60	FOODEEG_Images\0614.jpg	NY	Right	Yes	1.10567790002096	0	109447	235
214.802734375	1	decision	trialStart	1	28	28	foodImage.71	FOODEEG_Images\0713.jpg	YN	Left	Yes	0.738462500041351	0	109980	251
215.845703125	2	decision	foodImageDisplay	1	28	28	foodImage.71	FOODEEG_Images\0713.jpg	YN	Left	Yes	0.738462500041351	0	110514	252
217.908203125	0.738462500041351	decision	choicePhaseStart	1	28	28	foodImage.71	FOODEEG_Images\0713.jpg	YN	Left	Yes	0.738462500041351	0	111570	253
218.640625	0	decision	response	1	28	28	foodImage.71	FOODEEG_Images\0713.jpg	YN	Left	Yes	0.738462500041351	0	111945	234
219.6875	1	decision	trialStart	1	29	29	foodImage.41	FOODEEG_Images\0409.jpg	YN	Left	Yes	0.732695500017144	0	112481	251
220.734375	2	decision	foodImageDisplay	1	29	29	foodImage.41	FOODEEG_Images\0409.jpg	YN	Left	Yes	0.732695500017144	0	113017	252
222.794921875	0.732695500017144	decision	choicePhaseStart	1	29	29	foodImage.41	FOODEEG_Images\0409.jpg	YN	Left	Yes	0.732695500017144	0	114072	253
223.51953125	0	decision	response	1	29	29	foodImage.41	FOODEEG_Images\0409.jpg	YN	Left	Yes	0.732695500017144	0	114443	234
224.560546875	1	health	trialStart	1	30	30	foodImage.109	FOODEEG_Images\0917.jpg	YN	Right	No	0.886427400051616	0	114976	251
225.603515625	2	health	foodImageDisplay	1	30	30	foodImage.109	FOODEEG_Images\0917.jpg	YN	Right	No	0.886427400051616	0	115510	252
227.66796875	0.886427400051616	health	choicePhaseStart	1	30	30	foodImage.109	FOODEEG_Images\0917.jpg	YN	Right	No	0.886427400051616	0	116567	253
228.544921875	0	health	response	1	30	30	foodImage.109	FOODEEG_Images\0917.jpg	YN	Right	No	0.886427400051616	0	117016	235
229.583984375	1	health	trialStart	1	31	31	foodImage.92	FOODEEG_Images\0900.jpg	NY	Left	No	0.996068799984641	0	117548	251
230.630859375	2	health	foodImageDisplay	1	31	31	foodImage.92	FOODEEG_Images\0900.jpg	NY	Left	No	0.996068799984641	0	118084	252
232.693359375	0.996068799984641	health	choicePhaseStart	1	31	31	foodImage.92	FOODEEG_Images\0900.jpg	NY	Left	No	0.996068799984641	0	119140	253
233.6796875	0	health	response	1	31	31	foodImage.92	FOODEEG_Images\0900.jpg	NY	Left	No	0.996068799984641	0	119645	234
234.7265625	1	taste	trialStart	1	32	32	foodImage.119	FOODEEG_Images\0927.jpg	NY	Right	Yes	1.05327959998976	0	120181	251
235.767578125	2	taste	foodImageDisplay	1	32	32	foodImage.119	FOODEEG_Images\0927.jpg	NY	Right	Yes	1.05327959998976	0	120714	252
237.8359375	1.05327959998976	taste	choicePhaseStart	1	32	32	foodImage.119	FOODEEG_Images\0927.jpg	NY	Right	Yes	1.05327959998976	0	121773	253
238.87890625	0	taste	response	1	32	32	foodImage.119	FOODEEG_Images\0927.jpg	NY	Right	Yes	1.05327959998976	0	122307	235
239.919921875	1	health	trialStart	1	33	33	foodImage.28	FOODEEG_Images\0273.jpg	NY	Left	No	1.48041449999437	0	122840	251
240.962890625	2	health	foodImageDisplay	1	33	33	foodImage.28	FOODEEG_Images\0273.jpg	NY	Left	No	1.48041449999437	0	123374	252
243.025390625	1.48041449999437	health	choicePhaseStart	1	33	33	foodImage.28	FOODEEG_Images\0273.jpg	NY	Left	No	1.48041449999437	0	124430	253
244.49609375	0	health	response	1	33	33	foodImage.28	FOODEEG_Images\0273.jpg	NY	Left	No	1.48041449999437	0	125183	234
245.537109375	1	decision	trialStart	1	34	34	foodImage.74	FOODEEG_Images\0752.jpg	YN	Left	Yes	0.954159400076605	0	125716	251
246.58203125	2	decision	foodImageDisplay	1	34	34	foodImage.74	FOODEEG_Images\0752.jpg	YN	Left	Yes	0.954159400076605	0	126251	252
248.64453125	0.954159400076605	decision	choicePhaseStart	1	34	34	foodImage.74	FOODEEG_Images\0752.jpg	YN	Left	Yes	0.954159400076605	0	127307	253
249.591796875	0	decision	response	1	34	34	foodImage.74	FOODEEG_Images\0752.jpg	YN	Left	Yes	0.954159400076605	0	127792	234
250.6328125	1	taste	trialStart	1	35	35	foodImage.42	FOODEEG_Images\0438.jpg	NY	Right	Yes	1.01409110007808	0	128325	251
251.716796875	2	taste	foodImageDisplay	1	35	35	foodImage.42	FOODEEG_Images\0438.jpg	NY	Right	Yes	1.01409110007808	0	128880	252
253.779296875	1.01409110007808	taste	choicePhaseStart	1	35	35	foodImage.42	FOODEEG_Images\0438.jpg	NY	Right	Yes	1.01409110007808	0	129936	253
254.783203125	0	taste	response	1	35	35	foodImage.42	FOODEEG_Images\0438.jpg	NY	Right	Yes	1.01409110007808	0	130450	235
255.82421875	1	decision	trialStart	1	36	36	foodImage.1	FOODEEG_Images\0004.jpg	YN	Left	Yes	0.685781099949963	0	130983	251
256.8671875	2	decision	foodImageDisplay	1	36	36	foodImage.1	FOODEEG_Images\0004.jpg	YN	Left	Yes	0.685781099949963	0	131517	252
258.9296875	0.685781099949963	decision	choicePhaseStart	1	36	36	foodImage.1	FOODEEG_Images\0004.jpg	YN	Left	Yes	0.685781099949963	0	132573	253
259.607421875	0	decision	response	1	36	36	foodImage.1	FOODEEG_Images\0004.jpg	YN	Left	Yes	0.685781099949963	0	132920	234
260.650390625	1	decision	trialStart	1	37	37	foodImage.105	FOODEEG_Images\0913.jpg	YN	Right	No	0.809726499952376	0	133454	251
261.6875	2	decision	foodImageDisplay	1	37	37	foodImage.105	FOODEEG_Images\0913.jpg	YN	Right	No	0.809726499952376	0	133985	252
263.75	0.809726499952376	decision	choicePhaseStart	1	37	37	foodImage.105	FOODEEG_Images\0913.jpg	YN	Right	No	0.809726499952376	0	135041	253
264.55078125	0	decision	response	1	37	37	foodImage.105	FOODEEG_Images\0913.jpg	YN	Right	No	0.809726499952376	0	135451	235
265.591796875	1	taste	trialStart	1	38	38	foodImage.108	FOODEEG_Images\0916.jpg	YN	Right	No	0.979476199951023	0	135984	251
266.62890625	2	taste	foodImageDisplay	1	38	38	foodImage.108	FOODEEG_Images\0916.jpg	YN	Right	No	0.979476199951023	0	136515	252
268.69140625	0.979476199951023	taste	choicePhaseStart	1	38	38	foodImage.108	FOODEEG_Images\0916.jpg	YN	Right	No	0.979476199951023	0	137571	253
269.662109375	0	taste	response	1	38	38	foodImage.108	FOODEEG_Images\0916.jpg	YN	Right	No	0.979476199951023	0	138068	235
270.705078125	1	taste	trialStart	1	39	39	foodImage.95	FOODEEG_Images\0903.jpg	NY	Right	Yes	1.08014190010726	0	138602	251
271.744140625	2	taste	foodImageDisplay	1	39	39	foodImage.95	FOODEEG_Images\0903.jpg	NY	Right	Yes	1.08014190010726	0	139134	252
273.806640625	1.08014190010726	taste	choicePhaseStart	1	39	39	foodImage.95	FOODEEG_Images\0903.jpg	NY	Right	Yes	1.08014190010726	0	140190	253
274.87890625	0	taste	response	1	39	39	foodImage.95	FOODEEG_Images\0903.jpg	NY	Right	Yes	1.08014190010726	0	140739	235
275.921875	1	health	trialStart	1	40	40	foodImage.22	FOODEEG_Images\0236.jpg	YN	Left	Yes	0.804846300045028	0	141273	251
276.96484375	2	health	foodImageDisplay	1	40	40	foodImage.22	FOODEEG_Images\0236.jpg	YN	Left	Yes	0.804846300045028	0	141807	252
279.02734375	0.804846300045028	health	choicePhaseStart	1	40	40	foodImage.22	FOODEEG_Images\0236.jpg	YN	Left	Yes	0.804846300045028	0	142863	253
279.822265625	0	health	response	1	40	40	foodImage.22	FOODEEG_Images\0236.jpg	YN	Left	Yes	0.804846300045028	0	143270	234
280.86328125	1	decision	trialStart	1	41	41	foodImage.51	FOODEEG_Images\0536.jpg	YN	Left	Yes	0.524365999968722	0	143803	251
281.91015625	2	decision	foodImageDisplay	1	41	41	foodImage.51	FOODEEG_Images\0536.jpg	YN	Left	Yes	0.524365999968722	0	144339	252
283.970703125	0.524365999968722	decision	choicePhaseStart	1	41	41	foodImage.51	FOODEEG_Images\0536.jpg	YN	Left	Yes	0.524365999968722	0	145394	253
284.486328125	0	decision	response	1	41	41	foodImage.51	FOODEEG_Images\0536.jpg	YN	Left	Yes	0.524365999968722	0	145658	234
285.52734375	1	taste	trialStart	1	42	42	foodImage.99	FOODEEG_Images\0907.jpg	YN	Left	Yes	0.692344699986279	0	146191	251
286.564453125	2	taste	foodImageDisplay	1	42	42	foodImage.99	FOODEEG_Images\0907.jpg	YN	Left	Yes	0.692344699986279	0	146722	252
288.626953125	0.692344699986279	taste	choicePhaseStart	1	42	42	foodImage.99	FOODEEG_Images\0907.jpg	YN	Left	Yes	0.692344699986279	0	147778	253
289.310546875	0	taste	response	1	42	42	foodImage.99	FOODEEG_Images\0907.jpg	YN	Left	Yes	0.692344699986279	0	148128	234
290.353515625	1	decision	trialStart	1	43	43	foodImage.3	FOODEEG_Images\0046.jpg	YN	Left	Yes	0.610109800007194	0	148662	251
291.3984375	2	decision	foodImageDisplay	1	43	43	foodImage.3	FOODEEG_Images\0046.jpg	YN	Left	Yes	0.610109800007194	0	149197	252
293.4609375	0.610109800007194	decision	choicePhaseStart	1	43	43	foodImage.3	FOODEEG_Images\0046.jpg	YN	Left	Yes	0.610109800007194	0	150253	253
294.0625	0	decision	response	1	43	43	foodImage.3	FOODEEG_Images\0046.jpg	YN	Left	Yes	0.610109800007194	0	150561	234
295.103515625	1	taste	trialStart	1	44	44	foodImage.2	FOODEEG_Images\0028.jpg	YN	Left	Yes	0.875794999999925	0	151094	251
296.15234375	2	taste	foodImageDisplay	1	44	44	foodImage.2	FOODEEG_Images\0028.jpg	YN	Left	Yes	0.875794999999925	0	151631	252
298.21875	0.875794999999925	taste	choicePhaseStart	1	44	44	foodImage.2	FOODEEG_Images\0028.jpg	YN	Left	Yes	0.875794999999925	0	152689	253
299.0859375	0	taste	response	1	44	44	foodImage.2	FOODEEG_Images\0028.jpg	YN	Left	Yes	0.875794999999925	0	153133	234
300.125	1	decision	trialStart	1	45	45	foodImage.117	FOODEEG_Images\0925.jpg	NY	Right	Yes	0.786933199968189	0	153665	251
301.1640625	2	decision	foodImageDisplay	1	45	45	foodImage.117	FOODEEG_Images\0925.jpg	NY	Right	Yes	0.786933199968189	0	154197	252
303.2265625	0.786933199968189	decision	choicePhaseStart	1	45	45	foodImage.117	FOODEEG_Images\0925.jpg	NY	Right	Yes	0.786933199968189	0	155253	253
304.005859375	0	decision	response	1	45	45	foodImage.117	FOODEEG_Images\0925.jpg	NY	Right	Yes	0.786933199968189	0	155652	235
305.046875	1	taste	trialStart	1	46	46	foodImage.40	FOODEEG_Images\0373.jpg	YN	Left	Yes	0.681201500003226	0	156185	251
306.0859375	2	taste	foodImageDisplay	1	46	46	foodImage.40	FOODEEG_Images\0373.jpg	YN	Left	Yes	0.681201500003226	0	156717	252
308.1484375	0.681201500003226	taste	choicePhaseStart	1	46	46	foodImage.40	FOODEEG_Images\0373.jpg	YN	Left	Yes	0.681201500003226	0	157773	253
308.8203125	0	taste	response	1	46	46	foodImage.40	FOODEEG_Images\0373.jpg	YN	Left	Yes	0.681201500003226	0	158117	234
309.865234375	1	taste	trialStart	1	47	47	foodImage.35	FOODEEG_Images\0350.jpg	NY	Left	No	0.703833800042048	0	158652	251
310.904296875	2	taste	foodImageDisplay	1	47	47	foodImage.35	FOODEEG_Images\0350.jpg	NY	Left	No	0.703833800042048	0	159184	252
312.966796875	0.703833800042048	taste	choicePhaseStart	1	47	47	foodImage.35	FOODEEG_Images\0350.jpg	NY	Left	No	0.703833800042048	0	160240	253
313.66015625	0	taste	response	1	47	47	foodImage.35	FOODEEG_Images\0350.jpg	NY	Left	No	0.703833800042048	0	160595	234
314.705078125	1	decision	trialStart	1	48	48	foodImage.19	FOODEEG_Images\0225.jpg	NY	Right	Yes	0.635442300001159	0	161130	251
315.748046875	2	decision	foodImageDisplay	1	48	48	foodImage.19	FOODEEG_Images\0225.jpg	NY	Right	Yes	0.635442300001159	0	161664	252
317.810546875	0.635442300001159	decision	choicePhaseStart	1	48	48	foodImage.19	FOODEEG_Images\0225.jpg	NY	Right	Yes	0.635442300001159	0	162720	253
318.4375	0	decision	response	1	48	48	foodImage.19	FOODEEG_Images\0225.jpg	NY	Right	Yes	0.635442300001159	0	163041	235
319.478515625	1	taste	trialStart	1	49	49	foodImage.22	FOODEEG_Images\0236.jpg	YN	Left	Yes	0.671472700079903	0	163574	251
320.51953125	2	taste	foodImageDisplay	1	49	49	foodImage.22	FOODEEG_Images\0236.jpg	YN	Left	Yes	0.671472700079903	0	164107	252
322.58203125	0.671472700079903	taste	choicePhaseStart	1	49	49	foodImage.22	FOODEEG_Images\0236.jpg	YN	Left	Yes	0.671472700079903	0	165163	253
323.244140625	0	taste	response	1	49	49	foodImage.22	FOODEEG_Images\0236.jpg	YN	Left	Yes	0.671472700079903	0	165502	234
324.287109375	1	health	trialStart	1	50	50	foodImage.67	FOODEEG_Images\0679.jpg	NY	Right	Yes	0.909782100003213	0	166036	251
325.345703125	2	health	foodImageDisplay	1	50	50	foodImage.67	FOODEEG_Images\0679.jpg	NY	Right	Yes	0.909782100003213	0	166578	252
327.408203125	0.909782100003213	health	choicePhaseStart	1	50	50	foodImage.67	FOODEEG_Images\0679.jpg	NY	Right	Yes	0.909782100003213	0	167634	253
328.30859375	0	health	response	1	50	50	foodImage.67	FOODEEG_Images\0679.jpg	NY	Right	Yes	0.909782100003213	0	168095	235
329.3515625	1	decision	trialStart	1	51	51	foodImage.89	FOODEEG_Images\0881.jpg	YN	Left	Yes	0.694190900074318	0	168629	251
330.408203125	2	decision	foodImageDisplay	1	51	51	foodImage.89	FOODEEG_Images\0881.jpg	YN	Left	Yes	0.694190900074318	0	169170	252
332.470703125	0.694190900074318	decision	choicePhaseStart	1	51	51	foodImage.89	FOODEEG_Images\0881.jpg	YN	Left	Yes	0.694190900074318	0	170226	253
333.15625	0	decision	response	1	51	51	foodImage.89	FOODEEG_Images\0881.jpg	YN	Left	Yes	0.694190900074318	0	170577	234
334.1953125	1	taste	trialStart	1	52	52	foodImage.101	FOODEEG_Images\0909.jpg	YN	Right	No	1.19414649996907	0	171109	251
335.234375	2	taste	foodImageDisplay	1	52	52	foodImage.101	FOODEEG_Images\0909.jpg	YN	Right	No	1.19414649996907	0	171641	252
337.296875	1.19414649996907	taste	choicePhaseStart	1	52	52	foodImage.101	FOODEEG_Images\0909.jpg	YN	Right	No	1.19414649996907	0	172697	253
338.484375	0	taste	response	1	52	52	foodImage.101	FOODEEG_Images\0909.jpg	YN	Right	No	1.19414649996907	0	173305	235
339.52734375	1	health	trialStart	1	53	53	foodImage.63	FOODEEG_Images\0645.jpg	YN	Left	Yes	0.878206299967133	0	173839	251
340.568359375	2	health	foodImageDisplay	1	53	53	foodImage.63	FOODEEG_Images\0645.jpg	YN	Left	Yes	0.878206299967133	0	174372	252
342.630859375	0.878206299967133	health	choicePhaseStart	1	53	53	foodImage.63	FOODEEG_Images\0645.jpg	YN	Left	Yes	0.878206299967133	0	175428	253
343.5	0	health	response	1	53	53	foodImage.63	FOODEEG_Images\0645.jpg	YN	Left	Yes	0.878206299967133	0	175873	234
344.54296875	1	taste	trialStart	1	54	54	foodImage.72	FOODEEG_Images\0714.jpg	YN	Left	Yes	0.609655399923213	0	176407	251
345.587890625	2	taste	foodImageDisplay	1	54	54	foodImage.72	FOODEEG_Images\0714.jpg	YN	Left	Yes	0.609655399923213	0	176942	252
347.650390625	0.609655399923213	taste	choicePhaseStart	1	54	54	foodImage.72	FOODEEG_Images\0714.jpg	YN	Left	Yes	0.609655399923213	0	177998	253
348.251953125	0	taste	response	1	54	54	foodImage.72	FOODEEG_Images\0714.jpg	YN	Left	Yes	0.609655399923213	0	178306	234
349.29296875	1	taste	trialStart	1	55	55	foodImage.45	FOODEEG_Images\0478.jpg	YN	Left	Yes	0.644858599989675	0	178839	251
350.337890625	2	taste	foodImageDisplay	1	55	55	foodImage.45	FOODEEG_Images\0478.jpg	YN	Left	Yes	0.644858599989675	0	179374	252
352.400390625	0.644858599989675	taste	choicePhaseStart	1	55	55	foodImage.45	FOODEEG_Images\0478.jpg	YN	Left	Yes	0.644858599989675	0	180430	253
353.03515625	0	taste	response	1	55	55	foodImage.45	FOODEEG_Images\0478.jpg	YN	Left	Yes	0.644858599989675	0	180755	234
354.078125	1	taste	trialStart	1	56	56	foodImage.25	FOODEEG_Images\0261.jpg	NY	Right	Yes	0.695946000050753	0	181289	251
355.1171875	2	taste	foodImageDisplay	1	56	56	foodImage.25	FOODEEG_Images\0261.jpg	NY	Right	Yes	0.695946000050753	0	181821	252
357.1796875	0.695946000050753	taste	choicePhaseStart	1	56	56	foodImage.25	FOODEEG_Images\0261.jpg	NY	Right	Yes	0.695946000050753	0	182877	253
357.8671875	0	taste	response	1	56	56	foodImage.25	FOODEEG_Images\0261.jpg	NY	Right	Yes	0.695946000050753	0	183229	235
358.908203125	1	health	trialStart	1	57	57	foodImage.94	FOODEEG_Images\0902.jpg	YN	Left	Yes	1.4027955000056	0	183762	251
359.947265625	2	health	foodImageDisplay	1	57	57	foodImage.94	FOODEEG_Images\0902.jpg	YN	Left	Yes	1.4027955000056	0	184294	252
362.0078125	1.4027955000056	health	choicePhaseStart	1	57	57	foodImage.94	FOODEEG_Images\0902.jpg	YN	Left	Yes	1.4027955000056	0	185349	253
363.40234375	0	health	response	1	57	57	foodImage.94	FOODEEG_Images\0902.jpg	YN	Left	Yes	1.4027955000056	0	186063	234
364.4453125	1	taste	trialStart	1	58	58	foodImage.70	FOODEEG_Images\0705.jpg	NY	Right	Yes	1.0695745999692	0	186597	251
365.50390625	2	taste	foodImageDisplay	1	58	58	foodImage.70	FOODEEG_Images\0705.jpg	NY	Right	Yes	1.0695745999692	0	187139	252
367.56640625	1.0695745999692	taste	choicePhaseStart	1	58	58	foodImage.70	FOODEEG_Images\0705.jpg	NY	Right	Yes	1.0695745999692	0	188195	253
368.626953125	0	taste	response	1	58	58	foodImage.70	FOODEEG_Images\0705.jpg	NY	Right	Yes	1.0695745999692	0	188738	235
369.673828125	1	taste	trialStart	1	59	59	foodImage.90	FOODEEG_Images\0890.jpg	NY	Right	Yes	0.961582000018097	0	189274	251
370.732421875	2	taste	foodImageDisplay	1	59	59	foodImage.90	FOODEEG_Images\0890.jpg	NY	Right	Yes	0.961582000018097	0	189816	252
372.794921875	0.961582000018097	taste	choicePhaseStart	1	59	59	foodImage.90	FOODEEG_Images\0890.jpg	NY	Right	Yes	0.961582000018097	0	190872	253
373.74609375	0	taste	response	1	59	59	foodImage.90	FOODEEG_Images\0890.jpg	NY	Right	Yes	0.961582000018097	0	191359	235
374.794921875	1	decision	trialStart	1	60	60	foodImage.35	FOODEEG_Images\0350.jpg	NY	Left	No	0.862889599986374	0	191896	251
375.833984375	2	decision	foodImageDisplay	1	60	60	foodImage.35	FOODEEG_Images\0350.jpg	NY	Left	No	0.862889599986374	0	192428	252
377.900390625	0.862889599986374	decision	choicePhaseStart	1	60	60	foodImage.35	FOODEEG_Images\0350.jpg	NY	Left	No	0.862889599986374	0	193486	253
378.75390625	0	decision	response	1	60	60	foodImage.35	FOODEEG_Images\0350.jpg	NY	Left	No	0.862889599986374	0	193923	234
380.794921875	8.19140625	n/a	blockEnd	n/a	n/a	n/a	n/a	n/a	n/a	n/a	n/a	n/a	n/a	194968	254
388.986328125	2	n/a	blockStart	2	n/a	n/a	n/a	n/a	n/a	n/a	n/a	n/a	n/a	199162	250
391.017578125	1	taste	trialStart	2	61	1	foodImage.14	FOODEEG_Images\0188.jpg	YN	Right	No	1.26617699989583	0	200202	251
392.080078125	2	taste	foodImageDisplay	2	61	1	foodImage.14	FOODEEG_Images\0188.jpg	YN	Right	No	1.26617699989583	0	200746	252
394.142578125	1.26617699989583	taste	choicePhaseStart	2	61	1	foodImage.14	FOODEEG_Images\0188.jpg	YN	Right	No	1.26617699989583	0	201802	253
395.40234375	0	taste	response	2	61	1	foodImage.14	FOODEEG_Images\0188.jpg	YN	Right	No	1.26617699989583	0	202447	235
396.443359375	1	taste	trialStart	2	62	2	foodImage.49	FOODEEG_Images\0515.jpg	NY	Right	Yes	0.631973900017329	0	202980	251
397.484375	2	taste	foodImageDisplay	2	62	2	foodImage.49	FOODEEG_Images\0515.jpg	NY	Right	Yes	0.631973900017329	0	203513	252
399.544921875	0.631973900017329	taste	choicePhaseStart	2	62	2	foodImage.49	FOODEEG_Images\0515.jpg	NY	Right	Yes	0.631973900017329	0	204568	253
400.169921875	0	taste	response	2	62	2	foodImage.49	FOODEEG_Images\0515.jpg	NY	Right	Yes	0.631973900017329	0	204888	235
401.212890625	1	health	trialStart	2	63	3	foodImage.54	FOODEEG_Images\0560.jpg	YN	Left	Yes	0.941894199931994	0	205422	251
402.26953125	2	health	foodImageDisplay	2	63	3	foodImage.54	FOODEEG_Images\0560.jpg	YN	Left	Yes	0.941894199931994	0	205963	252
404.333984375	0.941894199931994	health	choicePhaseStart	2	63	3	foodImage.54	FOODEEG_Images\0560.jpg	YN	Left	Yes	0.941894199931994	0	207020	253
405.265625	0	health	response	2	63	3	foodImage.54	FOODEEG_Images\0560.jpg	YN	Left	Yes	0.941894199931994	0	207497	234
406.306640625	1	taste	trialStart	2	64	4	foodImage.63	FOODEEG_Images\0645.jpg	NY	Left	No	1.16777119995095	0	208030	251
407.34765625	2	taste	foodImageDisplay	2	64	4	foodImage.63	FOODEEG_Images\0645.jpg	NY	Left	No	1.16777119995095	0	208563	252
409.408203125	1.16777119995095	taste	choicePhaseStart	2	64	4	foodImage.63	FOODEEG_Images\0645.jpg	NY	Left	No	1.16777119995095	0	209618	253
410.568359375	0	taste	response	2	64	4	foodImage.63	FOODEEG_Images\0645.jpg	NY	Left	No	1.16777119995095	0	210212	234
411.611328125	1	decision	trialStart	2	65	5	foodImage.87	FOODEEG_Images\0873.jpg	YN	Left	Yes	0.86484059994109	0	210746	251
412.66796875	2	decision	foodImageDisplay	2	65	5	foodImage.87	FOODEEG_Images\0873.jpg	YN	Left	Yes	0.86484059994109	0	211287	252
414.73046875	0.86484059994109	decision	choicePhaseStart	2	65	5	foodImage.87	FOODEEG_Images\0873.jpg	YN	Left	Yes	0.86484059994109	0	212343	253
415.5859375	0	decision	response	2	65	5	foodImage.87	FOODEEG_Images\0873.jpg	YN	Left	Yes	0.86484059994109	0	212781	234
416.626953125	1	decision	trialStart	2	66	6	foodImage.31	FOODEEG_Images\0294.jpg	NY	Right	Yes	0.874060899950564	0	213314	251
417.669921875	2	decision	foodImageDisplay	2	66	6	foodImage.31	FOODEEG_Images\0294.jpg	NY	Right	Yes	0.874060899950564	0	213848	252
419.736328125	0.874060899950564	decision	choicePhaseStart	2	66	6	foodImage.31	FOODEEG_Images\0294.jpg	NY	Right	Yes	0.874060899950564	0	214906	253
420.6015625	0	decision	response	2	66	6	foodImage.31	FOODEEG_Images\0294.jpg	NY	Right	Yes	0.874060899950564	0	215349	235
421.650390625	1	taste	trialStart	2	67	7	foodImage.28	FOODEEG_Images\0273.jpg	NY	Left	No	0.609371699974872	0	215886	251
422.689453125	2	taste	foodImageDisplay	2	67	7	foodImage.28	FOODEEG_Images\0273.jpg	NY	Left	No	0.609371699974872	0	216418	252
424.751953125	0.609371699974872	taste	choicePhaseStart	2	67	7	foodImage.28	FOODEEG_Images\0273.jpg	NY	Left	No	0.609371699974872	0	217474	253
425.3515625	0	taste	response	2	67	7	foodImage.28	FOODEEG_Images\0273.jpg	NY	Left	No	0.609371699974872	0	217781	234
426.39453125	1	taste	trialStart	2	68	8	foodImage.60	FOODEEG_Images\0614.jpg	NY	Right	Yes	0.77134560002014	0	218315	251
427.455078125	2	taste	foodImageDisplay	2	68	8	foodImage.60	FOODEEG_Images\0614.jpg	NY	Right	Yes	0.77134560002014	0	218858	252
429.517578125	0.77134560002014	taste	choicePhaseStart	2	68	8	foodImage.60	FOODEEG_Images\0614.jpg	NY	Right	Yes	0.77134560002014	0	219914	253
430.279296875	0	taste	response	2	68	8	foodImage.60	FOODEEG_Images\0614.jpg	NY	Right	Yes	0.77134560002014	0	220304	235
431.3203125	1	taste	trialStart	2	69	9	foodImage.8	FOODEEG_Images\0136.jpg	NY	Right	Yes	0.414329999941401	0	220837	251
432.36328125	2	taste	foodImageDisplay	2	69	9	foodImage.8	FOODEEG_Images\0136.jpg	NY	Right	Yes	0.414329999941401	0	221371	252
434.42578125	0.414329999941401	taste	choicePhaseStart	2	69	9	foodImage.8	FOODEEG_Images\0136.jpg	NY	Right	Yes	0.414329999941401	0	222427	253
434.83203125	0	taste	response	2	69	9	foodImage.8	FOODEEG_Images\0136.jpg	NY	Right	Yes	0.414329999941401	0	222635	235
435.880859375	1	decision	trialStart	2	70	10	foodImage.75	FOODEEG_Images\0763.jpg	NY	Left	No	0.878732400014997	0	223172	251
436.923828125	2	decision	foodImageDisplay	2	70	10	foodImage.75	FOODEEG_Images\0763.jpg	NY	Left	No	0.878732400014997	0	223706	252
438.986328125	0.878732400014997	decision	choicePhaseStart	2	70	10	foodImage.75	FOODEEG_Images\0763.jpg	NY	Left	No	0.878732400014997	0	224762	253
439.85546875	0	decision	response	2	70	10	foodImage.75	FOODEEG_Images\0763.jpg	NY	Left	No	0.878732400014997	0	225207	234
440.8984375	1	health	trialStart	2	71	11	foodImage.53	FOODEEG_Images\0547.jpg	YN	Right	No	0.765798900043592	0	225741	251
441.95703125	2	health	foodImageDisplay	2	71	11	foodImage.53	FOODEEG_Images\0547.jpg	YN	Right	No	0.765798900043592	0	226283	252
444.01953125	0.765798900043592	health	choicePhaseStart	2	71	11	foodImage.53	FOODEEG_Images\0547.jpg	YN	Right	No	0.765798900043592	0	227339	253
444.775390625	0	health	response	2	71	11	foodImage.53	FOODEEG_Images\0547.jpg	YN	Right	No	0.765798900043592	0	227726	235
445.818359375	1	decision	trialStart	2	72	12	foodImage.44	FOODEEG_Images\0459.jpg	YN	Left	Yes	0.753610300016589	0	228260	251
446.865234375	2	decision	foodImageDisplay	2	72	12	foodImage.44	FOODEEG_Images\0459.jpg	YN	Left	Yes	0.753610300016589	0	228796	252
448.927734375	0.753610300016589	decision	choicePhaseStart	2	72	12	foodImage.44	FOODEEG_Images\0459.jpg	YN	Left	Yes	0.753610300016589	0	229852	253
449.671875	0	decision	response	2	72	12	foodImage.44	FOODEEG_Images\0459.jpg	YN	Left	Yes	0.753610300016589	0	230233	234
450.71484375	1	decision	trialStart	2	73	13	foodImage.114	FOODEEG_Images\0922.jpg	YN	Left	Yes	0.697462200070731	0	230767	251
451.75390625	2	decision	foodImageDisplay	2	73	13	foodImage.114	FOODEEG_Images\0922.jpg	YN	Left	Yes	0.697462200070731	0	231299	252
453.822265625	0.697462200070731	decision	choicePhaseStart	2	73	13	foodImage.114	FOODEEG_Images\0922.jpg	YN	Left	Yes	0.697462200070731	0	232358	253
454.51171875	0	decision	response	2	73	13	foodImage.114	FOODEEG_Images\0922.jpg	YN	Left	Yes	0.697462200070731	0	232711	234
455.552734375	1	health	trialStart	2	74	14	foodImage.106	FOODEEG_Images\0914.jpg	NY	Left	No	1.06034900003579	0	233244	251
456.58984375	2	health	foodImageDisplay	2	74	14	foodImage.106	FOODEEG_Images\0914.jpg	NY	Left	No	1.06034900003579	0	233775	252
458.65234375	1.06034900003579	health	choicePhaseStart	2	74	14	foodImage.106	FOODEEG_Images\0914.jpg	NY	Left	No	1.06034900003579	0	234831	253
459.703125	0	health	response	2	74	14	foodImage.106	FOODEEG_Images\0914.jpg	NY	Left	No	1.06034900003579	0	235369	234
460.74609375	1	health	trialStart	2	75	15	foodImage.107	FOODEEG_Images\0915.jpg	YN	Right	No	1.30871969996952	0	235903	251
461.787109375	2	health	foodImageDisplay	2	75	15	foodImage.107	FOODEEG_Images\0915.jpg	YN	Right	No	1.30871969996952	0	236436	252
463.849609375	1.30871969996952	health	choicePhaseStart	2	75	15	foodImage.107	FOODEEG_Images\0915.jpg	YN	Right	No	1.30871969996952	0	237492	253
465.150390625	0	health	response	2	75	15	foodImage.107	FOODEEG_Images\0915.jpg	YN	Right	No	1.30871969996952	0	238158	235
466.1953125	1	taste	trialStart	2	76	16	foodImage.54	FOODEEG_Images\0560.jpg	NY	Right	Yes	0.683340599993244	0	238693	251
467.25390625	2	taste	foodImageDisplay	2	76	16	foodImage.54	FOODEEG_Images\0560.jpg	NY	Right	Yes	0.683340599993244	0	239235	252
469.31640625	0.683340599993244	taste	choicePhaseStart	2	76	16	foodImage.54	FOODEEG_Images\0560.jpg	NY	Right	Yes	0.683340599993244	0	240291	253
469.990234375	0	taste	response	2	76	16	foodImage.54	FOODEEG_Images\0560.jpg	NY	Right	Yes	0.683340599993244	0	240636	235
471.033203125	1	health	trialStart	2	77	17	foodImage.21	FOODEEG_Images\0234.jpg	NY	Right	Yes	0.96583790006116	0	241170	251
472.08984375	2	health	foodImageDisplay	2	77	17	foodImage.21	FOODEEG_Images\0234.jpg	NY	Right	Yes	0.96583790006116	0	241711	252
474.15234375	0.96583790006116	health	choicePhaseStart	2	77	17	foodImage.21	FOODEEG_Images\0234.jpg	NY	Right	Yes	0.96583790006116	0	242767	253
475.111328125	0	health	response	2	77	17	foodImage.21	FOODEEG_Images\0234.jpg	NY	Right	Yes	0.96583790006116	0	243258	235
476.150390625	1	health	trialStart	2	78	18	foodImage.70	FOODEEG_Images\0705.jpg	YN	Left	Yes	1.05737319996115	0	243790	251
477.208984375	2	health	foodImageDisplay	2	78	18	foodImage.70	FOODEEG_Images\0705.jpg	YN	Left	Yes	1.05737319996115	0	244332	252
479.271484375	1.05737319996115	health	choicePhaseStart	2	78	18	foodImage.70	FOODEEG_Images\0705.jpg	YN	Left	Yes	1.05737319996115	0	245388	253
480.318359375	0	health	response	2	78	18	foodImage.70	FOODEEG_Images\0705.jpg	YN	Left	Yes	1.05737319996115	0	245924	234
481.361328125	1	health	trialStart	2	79	19	foodImage.103	FOODEEG_Images\0911.jpg	YN	Right	No	0.859993500052951	0	246458	251
482.404296875	2	health	foodImageDisplay	2	79	19	foodImage.103	FOODEEG_Images\0911.jpg	YN	Right	No	0.859993500052951	0	246992	252
484.466796875	0.859993500052951	health	choicePhaseStart	2	79	19	foodImage.103	FOODEEG_Images\0911.jpg	YN	Right	No	0.859993500052951	0	248048	253
485.318359375	0	health	response	2	79	19	foodImage.103	FOODEEG_Images\0911.jpg	YN	Right	No	0.859993500052951	0	248484	235
486.361328125	1	decision	trialStart	2	80	20	foodImage.73	FOODEEG_Images\0717.jpg	YN	Left	Yes	0.887315699947067	0	249018	251
487.41796875	2	decision	foodImageDisplay	2	80	20	foodImage.73	FOODEEG_Images\0717.jpg	YN	Left	Yes	0.887315699947067	0	249559	252
489.48046875	0.887315699947067	decision	choicePhaseStart	2	80	20	foodImage.73	FOODEEG_Images\0717.jpg	YN	Left	Yes	0.887315699947067	0	250615	253
490.357421875	0	decision	response	2	80	20	foodImage.73	FOODEEG_Images\0717.jpg	YN	Left	Yes	0.887315699947067	0	251064	234
491.400390625	1	health	trialStart	2	81	21	foodImage.110	FOODEEG_Images\0918.jpg	NY	Left	No	1.49535390001256	0	251598	251
492.44140625	2	health	foodImageDisplay	2	81	21	foodImage.110	FOODEEG_Images\0918.jpg	NY	Left	No	1.49535390001256	0	252131	252
494.501953125	1.49535390001256	health	choicePhaseStart	2	81	21	foodImage.110	FOODEEG_Images\0918.jpg	NY	Left	No	1.49535390001256	0	253186	253
495.990234375	0	health	response	2	81	21	foodImage.110	FOODEEG_Images\0918.jpg	NY	Left	No	1.49535390001256	0	253948	234
497.03125	1	taste	trialStart	2	82	22	foodImage.16	FOODEEG_Images\0196.jpg	YN	Left	Yes	0.791086900047958	0	254481	251
498.08984375	2	taste	foodImageDisplay	2	82	22	foodImage.16	FOODEEG_Images\0196.jpg	YN	Left	Yes	0.791086900047958	0	255023	252
500.15234375	0.791086900047958	taste	choicePhaseStart	2	82	22	foodImage.16	FOODEEG_Images\0196.jpg	YN	Left	Yes	0.791086900047958	0	256079	253
500.93359375	0	taste	response	2	82	22	foodImage.16	FOODEEG_Images\0196.jpg	YN	Left	Yes	0.791086900047958	0	256479	234
501.974609375	1	health	trialStart	2	83	23	foodImage.112	FOODEEG_Images\0920.jpg	YN	Right	No	1.95980070007499	0	257012	251
503.013671875	2	health	foodImageDisplay	2	83	23	foodImage.112	FOODEEG_Images\0920.jpg	YN	Right	No	1.95980070007499	0	257544	252
505.078125	1.95980070007499	health	choicePhaseStart	2	83	23	foodImage.112	FOODEEG_Images\0920.jpg	YN	Right	No	1.95980070007499	0	258601	253
507.029296875	0	health	response	2	83	23	foodImage.112	FOODEEG_Images\0920.jpg	YN	Right	No	1.95980070007499	0	259600	235
508.072265625	1	decision	trialStart	2	84	24	foodImage.83	FOODEEG_Images\0827.jpg	NY	Right	Yes	0.670921300072223	0	260134	251
509.12890625	2	decision	foodImageDisplay	2	84	24	foodImage.83	FOODEEG_Images\0827.jpg	NY	Right	Yes	0.670921300072223	0	260675	252
511.19140625	0.670921300072223	decision	choicePhaseStart	2	84	24	foodImage.83	FOODEEG_Images\0827.jpg	NY	Right	Yes	0.670921300072223	0	261731	253
511.853515625	0	decision	response	2	84	24	foodImage.83	FOODEEG_Images\0827.jpg	NY	Right	Yes	0.670921300072223	0	262070	235
512.896484375	1	decision	trialStart	2	85	25	foodImage.50	FOODEEG_Images\0529.jpg	NY	Left	No	0.908971500000916	0	262604	251
513.955078125	2	decision	foodImageDisplay	2	85	25	foodImage.50	FOODEEG_Images\0529.jpg	NY	Left	No	0.908971500000916	0	263146	252
516.017578125	0.908971500000916	decision	choicePhaseStart	2	85	25	foodImage.50	FOODEEG_Images\0529.jpg	NY	Left	No	0.908971500000916	0	264202	253
516.916015625	0	decision	response	2	85	25	foodImage.50	FOODEEG_Images\0529.jpg	NY	Left	No	0.908971500000916	0	264662	234
517.95703125	1	decision	trialStart	2	86	26	foodImage.42	FOODEEG_Images\0438.jpg	NY	Right	Yes	1.14590300002601	0	265195	251
519.044921875	2	decision	foodImageDisplay	2	86	26	foodImage.42	FOODEEG_Images\0438.jpg	NY	Right	Yes	1.14590300002601	0	265752	252
521.107421875	1.14590300002601	decision	choicePhaseStart	2	86	26	foodImage.42	FOODEEG_Images\0438.jpg	NY	Right	Yes	1.14590300002601	0	266808	253
522.244140625	0	decision	response	2	86	26	foodImage.42	FOODEEG_Images\0438.jpg	NY	Right	Yes	1.14590300002601	0	267390	235
523.287109375	1	health	trialStart	2	87	27	foodImage.15	FOODEEG_Images\0189.jpg	NY	Left	No	0.829186400049366	0	267924	251
524.341796875	2	health	foodImageDisplay	2	87	27	foodImage.15	FOODEEG_Images\0189.jpg	NY	Left	No	0.829186400049366	0	268464	252
526.41015625	0.829186400049366	health	choicePhaseStart	2	87	27	foodImage.15	FOODEEG_Images\0189.jpg	NY	Left	No	0.829186400049366	0	269523	253
527.228515625	0	health	response	2	87	27	foodImage.15	FOODEEG_Images\0189.jpg	NY	Left	No	0.829186400049366	0	269942	234
528.271484375	1	taste	trialStart	2	88	28	foodImage.9	FOODEEG_Images\0138.jpg	YN	Right	No	0.997108899988234	0	270476	251
529.328125	2	taste	foodImageDisplay	2	88	28	foodImage.9	FOODEEG_Images\0138.jpg	YN	Right	No	0.997108899988234	0	271017	252
531.390625	0.997108899988234	taste	choicePhaseStart	2	88	28	foodImage.9	FOODEEG_Images\0138.jpg	YN	Right	No	0.997108899988234	0	272073	253
532.380859375	0	taste	response	2	88	28	foodImage.9	FOODEEG_Images\0138.jpg	YN	Right	No	0.997108899988234	0	272580	235
533.423828125	1	health	trialStart	2	89	29	foodImage.39	FOODEEG_Images\0367.jpg	YN	Left	Yes	0.58493869996164	0	273114	251
534.4609375	2	health	foodImageDisplay	2	89	29	foodImage.39	FOODEEG_Images\0367.jpg	YN	Left	Yes	0.58493869996164	0	273645	252
536.5234375	0.58493869996164	health	choicePhaseStart	2	89	29	foodImage.39	FOODEEG_Images\0367.jpg	YN	Left	Yes	0.58493869996164	0	274701	253
537.099609375	0	health	response	2	89	29	foodImage.39	FOODEEG_Images\0367.jpg	YN	Left	Yes	0.58493869996164	0	274996	234
538.140625	1	taste	trialStart	2	90	30	foodImage.77	FOODEEG_Images\0771.jpg	YN	Left	Yes	0.678275100071914	0	275529	251
539.18359375	2	taste	foodImageDisplay	2	90	30	foodImage.77	FOODEEG_Images\0771.jpg	YN	Left	Yes	0.678275100071914	0	276063	252
541.24609375	0.678275100071914	taste	choicePhaseStart	2	90	30	foodImage.77	FOODEEG_Images\0771.jpg	YN	Left	Yes	0.678275100071914	0	277119	253
541.916015625	0	taste	response	2	90	30	foodImage.77	FOODEEG_Images\0771.jpg	YN	Left	Yes	0.678275100071914	0	277462	234
542.96484375	1	health	trialStart	2	91	31	foodImage.86	FOODEEG_Images\0844.jpg	NY	Left	No	0.802837800001726	0	277999	251
544.01953125	2	health	foodImageDisplay	2	91	31	foodImage.86	FOODEEG_Images\0844.jpg	NY	Left	No	0.802837800001726	0	278539	252
546.08203125	0.802837800001726	health	choicePhaseStart	2	91	31	foodImage.86	FOODEEG_Images\0844.jpg	NY	Left	No	0.802837800001726	0	279595	253
546.875	0	health	response	2	91	31	foodImage.86	FOODEEG_Images\0844.jpg	NY	Left	No	0.802837800001726	0	280001	234
547.91796875	1	decision	trialStart	2	92	32	foodImage.5	FOODEEG_Images\0107.jpg	NY	Right	Yes	0.620801399927586	0	280535	251
548.974609375	2	decision	foodImageDisplay	2	92	32	foodImage.5	FOODEEG_Images\0107.jpg	NY	Right	Yes	0.620801399927586	0	281076	252
551.037109375	0.620801399927586	decision	choicePhaseStart	2	92	32	foodImage.5	FOODEEG_Images\0107.jpg	NY	Right	Yes	0.620801399927586	0	282132	253
551.65234375	0	decision	response	2	92	32	foodImage.5	FOODEEG_Images\0107.jpg	NY	Right	Yes	0.620801399927586	0	282447	235
552.69140625	1	decision	trialStart	2	93	33	foodImage.32	FOODEEG_Images\0319.jpg	NY	Right	Yes	0.925811099936254	0	282979	251
553.734375	2	decision	foodImageDisplay	2	93	33	foodImage.32	FOODEEG_Images\0319.jpg	NY	Right	Yes	0.925811099936254	0	283513	252
555.796875	0.925811099936254	decision	choicePhaseStart	2	93	33	foodImage.32	FOODEEG_Images\0319.jpg	NY	Right	Yes	0.925811099936254	0	284569	253
556.71484375	0	decision	response	2	93	33	foodImage.32	FOODEEG_Images\0319.jpg	NY	Right	Yes	0.925811099936254	0	285039	235
557.7578125	1	decision	trialStart	2	94	34	foodImage.110	FOODEEG_Images\0918.jpg	NY	Left	No	1.25861119991168	0	285573	251
558.794921875	2	decision	foodImageDisplay	2	94	34	foodImage.110	FOODEEG_Images\0918.jpg	NY	Left	No	1.25861119991168	0	286104	252
560.857421875	1.25861119991168	decision	choicePhaseStart	2	94	34	foodImage.110	FOODEEG_Images\0918.jpg	NY	Left	No	1.25861119991168	0	287160	253
562.107421875	0	decision	response	2	94	34	foodImage.110	FOODEEG_Images\0918.jpg	NY	Left	No	1.25861119991168	0	287800	234
563.150390625	1	decision	trialStart	2	95	35	foodImage.45	FOODEEG_Images\0478.jpg	YN	Left	Yes	0.777664899942465	0	288334	251
564.1953125	2	decision	foodImageDisplay	2	95	35	foodImage.45	FOODEEG_Images\0478.jpg	YN	Left	Yes	0.777664899942465	0	288869	252
566.2578125	0.777664899942465	decision	choicePhaseStart	2	95	35	foodImage.45	FOODEEG_Images\0478.jpg	YN	Left	Yes	0.777664899942465	0	289925	253
567.02734375	0	decision	response	2	95	35	foodImage.45	FOODEEG_Images\0478.jpg	YN	Left	Yes	0.777664899942465	0	290319	234
568.068359375	1	taste	trialStart	2	96	36	foodImage.83	FOODEEG_Images\0827.jpg	NY	Right	Yes	0.742228299961425	0	290852	251
569.126953125	2	taste	foodImageDisplay	2	96	36	foodImage.83	FOODEEG_Images\0827.jpg	NY	Right	Yes	0.742228299961425	0	291394	252
571.189453125	0.742228299961425	taste	choicePhaseStart	2	96	36	foodImage.83	FOODEEG_Images\0827.jpg	NY	Right	Yes	0.742228299961425	0	292450	253
571.923828125	0	taste	response	2	96	36	foodImage.83	FOODEEG_Images\0827.jpg	NY	Right	Yes	0.742228299961425	0	292826	235
572.966796875	1	health	trialStart	2	97	37	foodImage.45	FOODEEG_Images\0478.jpg	NY	Right	Yes	0.70479750004597	0	293360	251
574.013671875	2	health	foodImageDisplay	2	97	37	foodImage.45	FOODEEG_Images\0478.jpg	NY	Right	Yes	0.70479750004597	0	293896	252
576.076171875	0.70479750004597	health	choicePhaseStart	2	97	37	foodImage.45	FOODEEG_Images\0478.jpg	NY	Right	Yes	0.70479750004597	0	294952	253
576.771484375	0	health	response	2	97	37	foodImage.45	FOODEEG_Images\0478.jpg	NY	Right	Yes	0.70479750004597	0	295308	235
577.810546875	1	taste	trialStart	2	98	38	foodImage.84	FOODEEG_Images\0830.jpg	YN	Left	Yes	0.79177560005337	0	295840	251
578.869140625	2	taste	foodImageDisplay	2	98	38	foodImage.84	FOODEEG_Images\0830.jpg	YN	Left	Yes	0.79177560005337	0	296382	252
580.931640625	0.79177560005337	taste	choicePhaseStart	2	98	38	foodImage.84	FOODEEG_Images\0830.jpg	YN	Left	Yes	0.79177560005337	0	297438	253
581.71484375	0	taste	response	2	98	38	foodImage.84	FOODEEG_Images\0830.jpg	YN	Left	Yes	0.79177560005337	0	297839	234
582.7578125	1	health	trialStart	2	99	39	foodImage.90	FOODEEG_Images\0890.jpg	NY	Right	Yes	0.740796700003557	0	298373	251
583.81640625	2	health	foodImageDisplay	2	99	39	foodImage.90	FOODEEG_Images\0890.jpg	NY	Right	Yes	0.740796700003557	0	298915	252
585.87890625	0.740796700003557	health	choicePhaseStart	2	99	39	foodImage.90	FOODEEG_Images\0890.jpg	NY	Right	Yes	0.740796700003557	0	299971	253
586.609375	0	health	response	2	99	39	foodImage.90	FOODEEG_Images\0890.jpg	NY	Right	Yes	0.740796700003557	0	300345	235
587.65234375	1	decision	trialStart	2	100	40	foodImage.7	FOODEEG_Images\0116.jpg	NY	Right	Yes	0.803883100044914	0	300879	251
588.6953125	2	decision	foodImageDisplay	2	100	40	foodImage.7	FOODEEG_Images\0116.jpg	NY	Right	Yes	0.803883100044914	0	301413	252
590.7578125	0.803883100044914	decision	choicePhaseStart	2	100	40	foodImage.7	FOODEEG_Images\0116.jpg	NY	Right	Yes	0.803883100044914	0	302469	253
591.5546875	0	decision	response	2	100	40	foodImage.7	FOODEEG_Images\0116.jpg	NY	Right	Yes	0.803883100044914	0	302877	235
592.6015625	1	decision	trialStart	2	101	41	foodImage.90	FOODEEG_Images\0890.jpg	YN	Left	Yes	0.798948399955407	0	303413	251
593.662109375	2	decision	foodImageDisplay	2	101	41	foodImage.90	FOODEEG_Images\0890.jpg	YN	Left	Yes	0.798948399955407	0	303956	252
595.724609375	0.798948399955407	decision	choicePhaseStart	2	101	41	foodImage.90	FOODEEG_Images\0890.jpg	YN	Left	Yes	0.798948399955407	0	305012	253
596.513671875	0	decision	response	2	101	41	foodImage.90	FOODEEG_Images\0890.jpg	YN	Left	Yes	0.798948399955407	0	305416	234
597.556640625	1	health	trialStart	2	102	42	foodImage.3	FOODEEG_Images\0046.jpg	NY	Left	No	0.964941099984571	0	305950	251
598.599609375	2	health	foodImageDisplay	2	102	42	foodImage.3	FOODEEG_Images\0046.jpg	NY	Left	No	0.964941099984571	0	306484	252
600.662109375	0.964941099984571	health	choicePhaseStart	2	102	42	foodImage.3	FOODEEG_Images\0046.jpg	NY	Left	No	0.964941099984571	0	307540	253
601.619140625	0	health	response	2	102	42	foodImage.3	FOODEEG_Images\0046.jpg	NY	Left	No	0.964941099984571	0	308030	234
602.662109375	1	taste	trialStart	2	103	43	foodImage.57	FOODEEG_Images\0587.jpg	NY	Right	Yes	0.936332799959928	0	308564	251
603.70703125	2	taste	foodImageDisplay	2	103	43	foodImage.57	FOODEEG_Images\0587.jpg	NY	Right	Yes	0.936332799959928	0	309099	252
605.76953125	0.936332799959928	taste	choicePhaseStart	2	103	43	foodImage.57	FOODEEG_Images\0587.jpg	NY	Right	Yes	0.936332799959928	0	310155	253
606.697265625	0	taste	response	2	103	43	foodImage.57	FOODEEG_Images\0587.jpg	NY	Right	Yes	0.936332799959928	0	310630	235
607.740234375	1	taste	trialStart	2	104	44	foodImage.111	FOODEEG_Images\0919.jpg	NY	Right	Yes	0.770672300015576	0	311164	251
608.77734375	2	taste	foodImageDisplay	2	104	44	foodImage.111	FOODEEG_Images\0919.jpg	NY	Right	Yes	0.770672300015576	0	311695	252
610.83984375	0.770672300015576	taste	choicePhaseStart	2	104	44	foodImage.111	FOODEEG_Images\0919.jpg	NY	Right	Yes	0.770672300015576	0	312751	253
611.6015625	0	taste	response	2	104	44	foodImage.111	FOODEEG_Images\0919.jpg	NY	Right	Yes	0.770672300015576	0	313141	235
612.64453125	1	taste	trialStart	2	105	45	foodImage.97	FOODEEG_Images\0905.jpg	YN	Right	No	1.12081700004637	0	313675	251
613.68359375	2	taste	foodImageDisplay	2	105	45	foodImage.97	FOODEEG_Images\0905.jpg	YN	Right	No	1.12081700004637	0	314207	252
615.74609375	1.12081700004637	taste	choicePhaseStart	2	105	45	foodImage.97	FOODEEG_Images\0905.jpg	YN	Right	No	1.12081700004637	0	315263	253
616.857421875	0	taste	response	2	105	45	foodImage.97	FOODEEG_Images\0905.jpg	YN	Right	No	1.12081700004637	0	315832	235
617.900390625	1	taste	trialStart	2	106	46	foodImage.100	FOODEEG_Images\0908.jpg	YN	Left	Yes	0.614318100037053	0	316366	251
618.94140625	2	taste	foodImageDisplay	2	106	46	foodImage.100	FOODEEG_Images\0908.jpg	YN	Left	Yes	0.614318100037053	0	316899	252
621.00390625	0.614318100037053	taste	choicePhaseStart	2	106	46	foodImage.100	FOODEEG_Images\0908.jpg	YN	Left	Yes	0.614318100037053	0	317955	253
621.609375	0	taste	response	2	106	46	foodImage.100	FOODEEG_Images\0908.jpg	YN	Left	Yes	0.614318100037053	0	318265	234
622.65234375	1	taste	trialStart	2	107	47	foodImage.24	FOODEEG_Images\0250.jpg	YN	Right	No	0.635974500095472	0	318799	251
623.6953125	2	taste	foodImageDisplay	2	107	47	foodImage.24	FOODEEG_Images\0250.jpg	YN	Right	No	0.635974500095472	0	319333	252
625.7578125	0.635974500095472	taste	choicePhaseStart	2	107	47	foodImage.24	FOODEEG_Images\0250.jpg	YN	Right	No	0.635974500095472	0	320389	253
626.384765625	0	taste	response	2	107	47	foodImage.24	FOODEEG_Images\0250.jpg	YN	Right	No	0.635974500095472	0	320710	235
627.427734375	1	taste	trialStart	2	108	48	foodImage.67	FOODEEG_Images\0679.jpg	YN	Left	Yes	0.742472599959001	0	321244	251
628.484375	2	taste	foodImageDisplay	2	108	48	foodImage.67	FOODEEG_Images\0679.jpg	YN	Left	Yes	0.742472599959001	0	321785	252
630.546875	0.742472599959001	taste	choicePhaseStart	2	108	48	foodImage.67	FOODEEG_Images\0679.jpg	YN	Left	Yes	0.742472599959001	0	322841	253
631.279296875	0	taste	response	2	108	48	foodImage.67	FOODEEG_Images\0679.jpg	YN	Left	Yes	0.742472599959001	0	323216	234
632.322265625	1	decision	trialStart	2	109	49	foodImage.82	FOODEEG_Images\0805.jpg	YN	Left	Yes	0.784777599968947	0	323750	251
633.37890625	2	decision	foodImageDisplay	2	109	49	foodImage.82	FOODEEG_Images\0805.jpg	YN	Left	Yes	0.784777599968947	0	324291	252
635.44140625	0.784777599968947	decision	choicePhaseStart	2	109	49	foodImage.82	FOODEEG_Images\0805.jpg	YN	Left	Yes	0.784777599968947	0	325347	253
636.216796875	0	decision	response	2	109	49	foodImage.82	FOODEEG_Images\0805.jpg	YN	Left	Yes	0.784777599968947	0	325744	234
637.265625	1	decision	trialStart	2	110	50	foodImage.99	FOODEEG_Images\0907.jpg	NY	Left	No	1.50638370006345	0	326281	251
638.302734375	2	decision	foodImageDisplay	2	110	50	foodImage.99	FOODEEG_Images\0907.jpg	NY	Left	No	1.50638370006345	0	326812	252
640.365234375	1.50638370006345	decision	choicePhaseStart	2	110	50	foodImage.99	FOODEEG_Images\0907.jpg	NY	Left	No	1.50638370006345	0	327868	253
641.86328125	0	decision	response	2	110	50	foodImage.99	FOODEEG_Images\0907.jpg	NY	Left	No	1.50638370006345	0	328635	234
642.908203125	1	decision	trialStart	2	111	51	foodImage.65	FOODEEG_Images\0658.jpg	YN	Right	No	1.9079113000771	0	329170	251
643.94921875	2	decision	foodImageDisplay	2	111	51	foodImage.65	FOODEEG_Images\0658.jpg	YN	Right	No	1.9079113000771	0	329703	252
646.01171875	1.9079113000771	decision	choicePhaseStart	2	111	51	foodImage.65	FOODEEG_Images\0658.jpg	YN	Right	No	1.9079113000771	0	330759	253
647.912109375	0	decision	response	2	111	51	foodImage.65	FOODEEG_Images\0658.jpg	YN	Right	No	1.9079113000771	0	331732	235
648.955078125	1	decision	trialStart	2	112	52	foodImage.10	FOODEEG_Images\0145.jpg	NY	Right	Yes	1.14921870001126	0	332266	251
650.013671875	2	decision	foodImageDisplay	2	112	52	foodImage.10	FOODEEG_Images\0145.jpg	NY	Right	Yes	1.14921870001126	0	332808	252
652.076171875	1.14921870001126	decision	choicePhaseStart	2	112	52	foodImage.10	FOODEEG_Images\0145.jpg	NY	Right	Yes	1.14921870001126	0	333864	253
653.216796875	0	decision	response	2	112	52	foodImage.10	FOODEEG_Images\0145.jpg	NY	Right	Yes	1.14921870001126	0	334448	235
654.2578125	1	taste	trialStart	2	113	53	foodImage.13	FOODEEG_Images\0183.jpg	NY	Right	Yes	1.92330289992969	0	334981	251
655.298828125	2	taste	foodImageDisplay	2	113	53	foodImage.13	FOODEEG_Images\0183.jpg	NY	Right	Yes	1.92330289992969	0	335514	252
657.36328125	1.92330289992969	taste	choicePhaseStart	2	113	53	foodImage.13	FOODEEG_Images\0183.jpg	NY	Right	Yes	1.92330289992969	0	336571	253
659.279296875	0	taste	response	2	113	53	foodImage.13	FOODEEG_Images\0183.jpg	NY	Right	Yes	1.92330289992969	0	337552	235
660.322265625	1	health	trialStart	2	114	54	foodImage.74	FOODEEG_Images\0752.jpg	YN	Left	Yes	0.739866800024174	0	338086	251
661.365234375	2	health	foodImageDisplay	2	114	54	foodImage.74	FOODEEG_Images\0752.jpg	YN	Left	Yes	0.739866800024174	0	338620	252
663.427734375	0.739866800024174	health	choicePhaseStart	2	114	54	foodImage.74	FOODEEG_Images\0752.jpg	YN	Left	Yes	0.739866800024174	0	339676	253
664.158203125	0	health	response	2	114	54	foodImage.74	FOODEEG_Images\0752.jpg	YN	Left	Yes	0.739866800024174	0	340050	234
665.203125	1	taste	trialStart	2	115	55	foodImage.59	FOODEEG_Images\0607.jpg	NY	Right	Yes	1.22008919995278	0	340585	251
666.26171875	2	taste	foodImageDisplay	2	115	55	foodImage.59	FOODEEG_Images\0607.jpg	NY	Right	Yes	1.22008919995278	0	341127	252
668.32421875	1.22008919995278	taste	choicePhaseStart	2	115	55	foodImage.59	FOODEEG_Images\0607.jpg	NY	Right	Yes	1.22008919995278	0	342183	253
669.53515625	0	taste	response	2	115	55	foodImage.59	FOODEEG_Images\0607.jpg	NY	Right	Yes	1.22008919995278	0	342803	235
670.57421875	1	taste	trialStart	2	116	56	foodImage.93	FOODEEG_Images\0901.jpg	YN	Right	No	1.08348510006908	0	343335	251
671.61328125	2	taste	foodImageDisplay	2	116	56	foodImage.93	FOODEEG_Images\0901.jpg	YN	Right	No	1.08348510006908	0	343867	252
673.67578125	1.08348510006908	taste	choicePhaseStart	2	116	56	foodImage.93	FOODEEG_Images\0901.jpg	YN	Right	No	1.08348510006908	0	344923	253
674.75	0	taste	response	2	116	56	foodImage.93	FOODEEG_Images\0901.jpg	YN	Right	No	1.08348510006908	0	345473	235
675.794921875	1	health	trialStart	2	117	57	foodImage.1	FOODEEG_Images\0004.jpg	NY	Right	Yes	0.715489800088108	0	346008	251
676.833984375	2	health	foodImageDisplay	2	117	57	foodImage.1	FOODEEG_Images\0004.jpg	NY	Right	Yes	0.715489800088108	0	346540	252
678.8984375	0.715489800088108	health	choicePhaseStart	2	117	57	foodImage.1	FOODEEG_Images\0004.jpg	NY	Right	Yes	0.715489800088108	0	347597	253
679.607421875	0	health	response	2	117	57	foodImage.1	FOODEEG_Images\0004.jpg	NY	Right	Yes	0.715489800088108	0	347960	235
680.650390625	1	decision	trialStart	2	118	58	foodImage.68	FOODEEG_Images\0685.jpg	YN	Left	Yes	0.817805500002578	0	348494	251
681.728515625	2	decision	foodImageDisplay	2	118	58	foodImage.68	FOODEEG_Images\0685.jpg	YN	Left	Yes	0.817805500002578	0	349046	252
683.7890625	0.817805500002578	decision	choicePhaseStart	2	118	58	foodImage.68	FOODEEG_Images\0685.jpg	YN	Left	Yes	0.817805500002578	0	350101	253
684.59765625	0	decision	response	2	118	58	foodImage.68	FOODEEG_Images\0685.jpg	YN	Left	Yes	0.817805500002578	0	350515	234
685.638671875	1	taste	trialStart	2	119	59	foodImage.75	FOODEEG_Images\0763.jpg	NY	Left	No	2.15959189995192	0	351048	251
686.681640625	2	taste	foodImageDisplay	2	119	59	foodImage.75	FOODEEG_Images\0763.jpg	NY	Left	No	2.15959189995192	0	351582	252
688.744140625	2.15959189995192	taste	choicePhaseStart	2	119	59	foodImage.75	FOODEEG_Images\0763.jpg	NY	Left	No	2.15959189995192	0	352638	253
690.89453125	0	taste	response	2	119	59	foodImage.75	FOODEEG_Images\0763.jpg	NY	Left	No	2.15959189995192	0	353739	234
691.9375	1	taste	trialStart	2	120	60	foodImage.79	FOODEEG_Images\0794.jpg	YN	Right	No	1.21053759998176	0	354273	251
692.98046875	2	taste	foodImageDisplay	2	120	60	foodImage.79	FOODEEG_Images\0794.jpg	YN	Right	No	1.21053759998176	0	354807	252
695.04296875	1.21053759998176	taste	choicePhaseStart	2	120	60	foodImage.79	FOODEEG_Images\0794.jpg	YN	Right	No	1.21053759998176	0	355863	253
696.24609375	0	taste	response	2	120	60	foodImage.79	FOODEEG_Images\0794.jpg	YN	Right	No	1.21053759998176	0	356479	235
698.2890625	11.859375	n/a	blockEnd	n/a	n/a	n/a	n/a	n/a	n/a	n/a	n/a	n/a	n/a	357525	254
710.1484375	2	n/a	blockStart	3	n/a	n/a	n/a	n/a	n/a	n/a	n/a	n/a	n/a	363597	250
712.18359375	1	decision	trialStart	3	121	1	foodImage.98	FOODEEG_Images\0906.jpg	NY	Right	Yes	0.89085269998759	0	364639	251
713.2265625	2	decision	foodImageDisplay	3	121	1	foodImage.98	FOODEEG_Images\0906.jpg	NY	Right	Yes	0.89085269998759	0	365173	252
715.291015625	0.89085269998759	decision	choicePhaseStart	3	121	1	foodImage.98	FOODEEG_Images\0906.jpg	NY	Right	Yes	0.89085269998759	0	366230	253
716.173828125	0	decision	response	3	121	1	foodImage.98	FOODEEG_Images\0906.jpg	NY	Right	Yes	0.89085269998759	0	366682	235
717.216796875	1	taste	trialStart	3	122	2	foodImage.26	FOODEEG_Images\0262.jpg	YN	Right	No	0.958247200003825	0	367216	251
718.2578125	2	taste	foodImageDisplay	3	122	2	foodImage.26	FOODEEG_Images\0262.jpg	YN	Right	No	0.958247200003825	0	367749	252
720.3203125	0.958247200003825	taste	choicePhaseStart	3	122	2	foodImage.26	FOODEEG_Images\0262.jpg	YN	Right	No	0.958247200003825	0	368805	253
721.26953125	0	taste	response	3	122	2	foodImage.26	FOODEEG_Images\0262.jpg	YN	Right	No	0.958247200003825	0	369291	235
722.30859375	1	taste	trialStart	3	123	3	foodImage.52	FOODEEG_Images\0539.jpg	NY	Right	Yes	0.999651100020856	0	369823	251
723.3671875	2	taste	foodImageDisplay	3	123	3	foodImage.52	FOODEEG_Images\0539.jpg	NY	Right	Yes	0.999651100020856	0	370365	252
725.4296875	0.999651100020856	taste	choicePhaseStart	3	123	3	foodImage.52	FOODEEG_Images\0539.jpg	NY	Right	Yes	0.999651100020856	0	371421	253
726.419921875	0	taste	response	3	123	3	foodImage.52	FOODEEG_Images\0539.jpg	NY	Right	Yes	0.999651100020856	0	371928	235
727.462890625	1	health	trialStart	3	124	4	foodImage.7	FOODEEG_Images\0116.jpg	YN	Right	No	1.00496729998849	0	372462	251
728.505859375	2	health	foodImageDisplay	3	124	4	foodImage.7	FOODEEG_Images\0116.jpg	YN	Right	No	1.00496729998849	0	372996	252
730.568359375	1.00496729998849	health	choicePhaseStart	3	124	4	foodImage.7	FOODEEG_Images\0116.jpg	YN	Right	No	1.00496729998849	0	374052	253
731.564453125	0	health	response	3	124	4	foodImage.7	FOODEEG_Images\0116.jpg	YN	Right	No	1.00496729998849	0	374562	235
732.607421875	1	decision	trialStart	3	125	5	foodImage.101	FOODEEG_Images\0909.jpg	NY	Left	No	0.681749799987301	0	375096	251
733.64453125	2	decision	foodImageDisplay	3	125	5	foodImage.101	FOODEEG_Images\0909.jpg	NY	Left	No	0.681749799987301	0	375627	252
735.70703125	0.681749799987301	decision	choicePhaseStart	3	125	5	foodImage.101	FOODEEG_Images\0909.jpg	NY	Left	No	0.681749799987301	0	376683	253
736.380859375	0	decision	response	3	125	5	foodImage.101	FOODEEG_Images\0909.jpg	NY	Left	No	0.681749799987301	0	377028	234
737.421875	1	health	trialStart	3	126	6	foodImage.25	FOODEEG_Images\0261.jpg	NY	Right	Yes	0.910287100006826	0	377561	251
738.46484375	2	health	foodImageDisplay	3	126	6	foodImage.25	FOODEEG_Images\0261.jpg	NY	Right	Yes	0.910287100006826	0	378095	252
740.52734375	0.910287100006826	health	choicePhaseStart	3	126	6	foodImage.25	FOODEEG_Images\0261.jpg	NY	Right	Yes	0.910287100006826	0	379151	253
741.427734375	0	health	response	3	126	6	foodImage.25	FOODEEG_Images\0261.jpg	NY	Right	Yes	0.910287100006826	0	379612	235
742.470703125	1	decision	trialStart	3	127	7	foodImage.111	FOODEEG_Images\0919.jpg	NY	Right	Yes	0.794249900034629	0	380146	251
743.5078125	2	decision	foodImageDisplay	3	127	7	foodImage.111	FOODEEG_Images\0919.jpg	NY	Right	Yes	0.794249900034629	0	380677	252
745.5703125	0.794249900034629	decision	choicePhaseStart	3	127	7	foodImage.111	FOODEEG_Images\0919.jpg	NY	Right	Yes	0.794249900034629	0	381733	253
746.35546875	0	decision	response	3	127	7	foodImage.111	FOODEEG_Images\0919.jpg	NY	Right	Yes	0.794249900034629	0	382135	235
747.3984375	1	health	trialStart	3	128	8	foodImage.72	FOODEEG_Images\0714.jpg	YN	Left	Yes	1.15023050003219	0	382669	251
748.439453125	2	health	foodImageDisplay	3	128	8	foodImage.72	FOODEEG_Images\0714.jpg	YN	Left	Yes	1.15023050003219	0	383202	252
750.501953125	1.15023050003219	health	choicePhaseStart	3	128	8	foodImage.72	FOODEEG_Images\0714.jpg	YN	Left	Yes	1.15023050003219	0	384258	253
751.64453125	0	health	response	3	128	8	foodImage.72	FOODEEG_Images\0714.jpg	YN	Left	Yes	1.15023050003219	0	384843	234
752.6875	1	decision	trialStart	3	129	9	foodImage.103	FOODEEG_Images\0911.jpg	NY	Left	No	1.65591869992204	0	385377	251
753.7265625	2	decision	foodImageDisplay	3	129	9	foodImage.103	FOODEEG_Images\0911.jpg	NY	Left	No	1.65591869992204	0	385909	252
755.7890625	1.65591869992204	decision	choicePhaseStart	3	129	9	foodImage.103	FOODEEG_Images\0911.jpg	NY	Left	No	1.65591869992204	0	386965	253
757.435546875	0	decision	response	3	129	9	foodImage.103	FOODEEG_Images\0911.jpg	NY	Left	No	1.65591869992204	0	387808	234
758.478515625	1	decision	trialStart	3	130	10	foodImage.102	FOODEEG_Images\0910.jpg	YN	Right	No	1.1669600000605	0	388342	251
759.517578125	2	decision	foodImageDisplay	3	130	10	foodImage.102	FOODEEG_Images\0910.jpg	YN	Right	No	1.1669600000605	0	388874	252
761.58203125	1.1669600000605	decision	choicePhaseStart	3	130	10	foodImage.102	FOODEEG_Images\0910.jpg	YN	Right	No	1.1669600000605	0	389931	253
762.73828125	0	decision	response	3	130	10	foodImage.102	FOODEEG_Images\0910.jpg	YN	Right	No	1.1669600000605	0	390523	235
763.78125	1	decision	trialStart	3	131	11	foodImage.33	FOODEEG_Images\0329.jpg	NY	Right	Yes	0.750448799924925	0	391057	251
764.82421875	2	decision	foodImageDisplay	3	131	11	foodImage.33	FOODEEG_Images\0329.jpg	NY	Right	Yes	0.750448799924925	0	391591	252
766.88671875	0.750448799924925	decision	choicePhaseStart	3	131	11	foodImage.33	FOODEEG_Images\0329.jpg	NY	Right	Yes	0.750448799924925	0	392647	253
767.626953125	0	decision	response	3	131	11	foodImage.33	FOODEEG_Images\0329.jpg	NY	Right	Yes	0.750448799924925	0	393026	235
768.671875	1	health	trialStart	3	132	12	foodImage.32	FOODEEG_Images\0319.jpg	NY	Left	No	0.970645900000818	0	393561	251
769.71484375	2	health	foodImageDisplay	3	132	12	foodImage.32	FOODEEG_Images\0319.jpg	NY	Left	No	0.970645900000818	0	394095	252
771.77734375	0.970645900000818	health	choicePhaseStart	3	132	12	foodImage.32	FOODEEG_Images\0319.jpg	NY	Left	No	0.970645900000818	0	395151	253
772.73828125	0	health	response	3	132	12	foodImage.32	FOODEEG_Images\0319.jpg	NY	Left	No	0.970645900000818	0	395643	234
773.783203125	1	taste	trialStart	3	133	13	foodImage.110	FOODEEG_Images\0918.jpg	NY	Left	No	1.17705429997295	0	396178	251
774.8203125	2	taste	foodImageDisplay	3	133	13	foodImage.110	FOODEEG_Images\0918.jpg	NY	Left	No	1.17705429997295	0	396709	252
776.880859375	1.17705429997295	taste	choicePhaseStart	3	133	13	foodImage.110	FOODEEG_Images\0918.jpg	NY	Left	No	1.17705429997295	0	397764	253
778.05078125	0	taste	response	3	133	13	foodImage.110	FOODEEG_Images\0918.jpg	NY	Left	No	1.17705429997295	0	398363	234
779.095703125	1	health	trialStart	3	134	14	foodImage.120	FOODEEG_Images\0928.jpg	YN	Right	No	0.885282000061125	0	398898	251
780.134765625	2	health	foodImageDisplay	3	134	14	foodImage.120	FOODEEG_Images\0928.jpg	YN	Right	No	0.885282000061125	0	399430	252
782.197265625	0.885282000061125	health	choicePhaseStart	3	134	14	foodImage.120	FOODEEG_Images\0928.jpg	YN	Right	No	0.885282000061125	0	400486	253
783.07421875	0	health	response	3	134	14	foodImage.120	FOODEEG_Images\0928.jpg	YN	Right	No	0.885282000061125	0	400935	235
784.1171875	1	decision	trialStart	3	135	15	foodImage.108	FOODEEG_Images\0916.jpg	NY	Right	Yes	1.9575024000369	0	401469	251
785.15625	2	decision	foodImageDisplay	3	135	15	foodImage.108	FOODEEG_Images\0916.jpg	NY	Right	Yes	1.9575024000369	0	402001	252
787.21875	1.9575024000369	decision	choicePhaseStart	3	135	15	foodImage.108	FOODEEG_Images\0916.jpg	NY	Right	Yes	1.9575024000369	0	403057	253
789.169921875	0	decision	response	3	135	15	foodImage.108	FOODEEG_Images\0916.jpg	NY	Right	Yes	1.9575024000369	0	404056	235
790.212890625	1	decision	trialStart	3	136	16	foodImage.13	FOODEEG_Images\0183.jpg	NY	Right	Yes	0.749483599909581	0	404590	251
791.255859375	2	decision	foodImageDisplay	3	136	16	foodImage.13	FOODEEG_Images\0183.jpg	NY	Right	Yes	0.749483599909581	0	405124	252
793.318359375	0.749483599909581	decision	choicePhaseStart	3	136	16	foodImage.13	FOODEEG_Images\0183.jpg	NY	Right	Yes	0.749483599909581	0	406180	253
794.05859375	0	decision	response	3	136	16	foodImage.13	FOODEEG_Images\0183.jpg	NY	Right	Yes	0.749483599909581	0	406559	235
795.1015625	1	decision	trialStart	3	137	17	foodImage.58	FOODEEG_Images\0605.jpg	NY	Left	No	1.24446359998547	0	407093	251
796.16015625	2	decision	foodImageDisplay	3	137	17	foodImage.58	FOODEEG_Images\0605.jpg	NY	Left	No	1.24446359998547	0	407635	252
798.22265625	1.24446359998547	decision	choicePhaseStart	3	137	17	foodImage.58	FOODEEG_Images\0605.jpg	NY	Left	No	1.24446359998547	0	408691	253
799.45703125	0	decision	response	3	137	17	foodImage.58	FOODEEG_Images\0605.jpg	NY	Left	No	1.24446359998547	0	409323	234
800.49609375	1	health	trialStart	3	138	18	foodImage.114	FOODEEG_Images\0922.jpg	NY	Right	Yes	0.860965400002897	0	409855	251
801.53515625	2	health	foodImageDisplay	3	138	18	foodImage.114	FOODEEG_Images\0922.jpg	NY	Right	Yes	0.860965400002897	0	410387	252
803.59765625	0.860965400002897	health	choicePhaseStart	3	138	18	foodImage.114	FOODEEG_Images\0922.jpg	NY	Right	Yes	0.860965400002897	0	411443	253
804.44921875	0	health	response	3	138	18	foodImage.114	FOODEEG_Images\0922.jpg	NY	Right	Yes	0.860965400002897	0	411879	235
805.494140625	1	taste	trialStart	3	139	19	foodImage.104	FOODEEG_Images\0912.jpg	NY	Right	Yes	0.5897699999623	0	412414	251
806.533203125	2	taste	foodImageDisplay	3	139	19	foodImage.104	FOODEEG_Images\0912.jpg	NY	Right	Yes	0.5897699999623	0	412946	252
808.595703125	0.5897699999623	taste	choicePhaseStart	3	139	19	foodImage.104	FOODEEG_Images\0912.jpg	NY	Right	Yes	0.5897699999623	0	414002	253
809.177734375	0	taste	response	3	139	19	foodImage.104	FOODEEG_Images\0912.jpg	NY	Right	Yes	0.5897699999623	0	414300	235
810.220703125	1	decision	trialStart	3	140	20	foodImage.79	FOODEEG_Images\0794.jpg	NY	Right	Yes	2.11566290003248	0	414834	251
811.263671875	2	decision	foodImageDisplay	3	140	20	foodImage.79	FOODEEG_Images\0794.jpg	NY	Right	Yes	2.11566290003248	0	415368	252
813.328125	2.11566290003248	decision	choicePhaseStart	3	140	20	foodImage.79	FOODEEG_Images\0794.jpg	NY	Right	Yes	2.11566290003248	0	416425	253
815.43359375	0	decision	response	3	140	20	foodImage.79	FOODEEG_Images\0794.jpg	NY	Right	Yes	2.11566290003248	0	417503	235
816.4765625	1	health	trialStart	3	141	21	foodImage.24	FOODEEG_Images\0250.jpg	NY	Left	No	0.494330000015907	0	418037	251
817.517578125	2	health	foodImageDisplay	3	141	21	foodImage.24	FOODEEG_Images\0250.jpg	NY	Left	No	0.494330000015907	0	418570	252
819.580078125	0.494330000015907	health	choicePhaseStart	3	141	21	foodImage.24	FOODEEG_Images\0250.jpg	NY	Left	No	0.494330000015907	0	419626	253
820.064453125	0	health	response	3	141	21	foodImage.24	FOODEEG_Images\0250.jpg	NY	Left	No	0.494330000015907	0	419874	234
821.109375	1	taste	trialStart	3	142	22	foodImage.109	FOODEEG_Images\0917.jpg	YN	Left	Yes	2.47933120001107	0	420409	251
822.146484375	2	taste	foodImageDisplay	3	142	22	foodImage.109	FOODEEG_Images\0917.jpg	YN	Left	Yes	2.47933120001107	0	420940	252
824.208984375	2.47933120001107	taste	choicePhaseStart	3	142	22	foodImage.109	FOODEEG_Images\0917.jpg	YN	Left	Yes	2.47933120001107	0	421996	253
826.6796875	0	taste	response	3	142	22	foodImage.109	FOODEEG_Images\0917.jpg	YN	Left	Yes	2.47933120001107	0	423261	234
827.724609375	1	decision	trialStart	3	143	23	foodImage.27	FOODEEG_Images\0263.jpg	YN	Left	Yes	0.804677999927662	0	423796	251
828.767578125	2	decision	foodImageDisplay	3	143	23	foodImage.27	FOODEEG_Images\0263.jpg	YN	Left	Yes	0.804677999927662	0	424330	252
830.830078125	0.804677999927662	decision	choicePhaseStart	3	143	23	foodImage.27	FOODEEG_Images\0263.jpg	YN	Left	Yes	0.804677999927662	0	425386	253
831.625	0	decision	response	3	143	23	foodImage.27	FOODEEG_Images\0263.jpg	YN	Left	Yes	0.804677999927662	0	425793	234
832.666015625	1	taste	trialStart	3	144	24	foodImage.112	FOODEEG_Images\0920.jpg	NY	Left	No	0.9057904999936	0	426326	251
833.705078125	2	taste	foodImageDisplay	3	144	24	foodImage.112	FOODEEG_Images\0920.jpg	NY	Left	No	0.9057904999936	0	426858	252
835.767578125	0.9057904999936	taste	choicePhaseStart	3	144	24	foodImage.112	FOODEEG_Images\0920.jpg	NY	Left	No	0.9057904999936	0	427914	253
836.6640625	0	taste	response	3	144	24	foodImage.112	FOODEEG_Images\0920.jpg	NY	Left	No	0.9057904999936	0	428373	234
837.708984375	1	taste	trialStart	3	145	25	foodImage.39	FOODEEG_Images\0367.jpg	NY	Right	Yes	0.966471400111914	0	428908	251
838.74609375	2	taste	foodImageDisplay	3	145	25	foodImage.39	FOODEEG_Images\0367.jpg	NY	Right	Yes	0.966471400111914	0	429439	252
840.80859375	0.966471400111914	taste	choicePhaseStart	3	145	25	foodImage.39	FOODEEG_Images\0367.jpg	NY	Right	Yes	0.966471400111914	0	430495	253
841.767578125	0	taste	response	3	145	25	foodImage.39	FOODEEG_Images\0367.jpg	NY	Right	Yes	0.966471400111914	0	430986	235
842.806640625	1	health	trialStart	3	146	26	foodImage.93	FOODEEG_Images\0901.jpg	YN	Right	No	1.07052799989469	0	431518	251
843.84375	2	health	foodImageDisplay	3	146	26	foodImage.93	FOODEEG_Images\0901.jpg	YN	Right	No	1.07052799989469	0	432049	252
845.90625	1.07052799989469	health	choicePhaseStart	3	146	26	foodImage.93	FOODEEG_Images\0901.jpg	YN	Right	No	1.07052799989469	0	433105	253
846.96875	0	health	response	3	146	26	foodImage.93	FOODEEG_Images\0901.jpg	YN	Right	No	1.07052799989469	0	433649	235
848.009765625	1	health	trialStart	3	147	27	foodImage.59	FOODEEG_Images\0607.jpg	NY	Left	No	1.5138218998909	0	434182	251
849.056640625	2	health	foodImageDisplay	3	147	27	foodImage.59	FOODEEG_Images\0607.jpg	NY	Left	No	1.5138218998909	0	434718	252
851.119140625	1.5138218998909	health	choicePhaseStart	3	147	27	foodImage.59	FOODEEG_Images\0607.jpg	NY	Left	No	1.5138218998909	0	435774	253
852.623046875	0	health	response	3	147	27	foodImage.59	FOODEEG_Images\0607.jpg	NY	Left	No	1.5138218998909	0	436544	234
853.666015625	1	taste	trialStart	3	148	28	foodImage.113	FOODEEG_Images\0921.jpg	YN	Left	Yes	1.01543290005066	0	437078	251
854.70703125	2	taste	foodImageDisplay	3	148	28	foodImage.113	FOODEEG_Images\0921.jpg	YN	Left	Yes	1.01543290005066	0	437611	252
856.76953125	1.01543290005066	taste	choicePhaseStart	3	148	28	foodImage.113	FOODEEG_Images\0921.jpg	YN	Left	Yes	1.01543290005066	0	438667	253
857.775390625	0	taste	response	3	148	28	foodImage.113	FOODEEG_Images\0921.jpg	YN	Left	Yes	1.01543290005066	0	439182	234
858.818359375	1	health	trialStart	3	149	29	foodImage.62	FOODEEG_Images\0644.jpg	NY	Right	Yes	0.985307900002226	0	439716	251
859.873046875	2	health	foodImageDisplay	3	149	29	foodImage.62	FOODEEG_Images\0644.jpg	NY	Right	Yes	0.985307900002226	0	440256	252
861.935546875	0.985307900002226	health	choicePhaseStart	3	149	29	foodImage.62	FOODEEG_Images\0644.jpg	NY	Right	Yes	0.985307900002226	0	441312	253
862.912109375	0	health	response	3	149	29	foodImage.62	FOODEEG_Images\0644.jpg	NY	Right	Yes	0.985307900002226	0	441812	235
863.958984375	1	decision	trialStart	3	150	30	foodImage.16	FOODEEG_Images\0196.jpg	YN	Left	Yes	1.39533530001063	0	442348	251
865.013671875	2	decision	foodImageDisplay	3	150	30	foodImage.16	FOODEEG_Images\0196.jpg	YN	Left	Yes	1.39533530001063	0	442888	252
867.076171875	1.39533530001063	decision	choicePhaseStart	3	150	30	foodImage.16	FOODEEG_Images\0196.jpg	YN	Left	Yes	1.39533530001063	0	443944	253
868.462890625	0	decision	response	3	150	30	foodImage.16	FOODEEG_Images\0196.jpg	YN	Left	Yes	1.39533530001063	0	444654	234
869.509765625	1	taste	trialStart	3	151	31	foodImage.29	FOODEEG_Images\0278.jpg	YN	Left	Yes	0.74101040000096	0	445190	251
870.55078125	2	taste	foodImageDisplay	3	151	31	foodImage.29	FOODEEG_Images\0278.jpg	YN	Left	Yes	0.74101040000096	0	445723	252
872.619140625	0.74101040000096	taste	choicePhaseStart	3	151	31	foodImage.29	FOODEEG_Images\0278.jpg	YN	Left	Yes	0.74101040000096	0	446782	253
873.3515625	0	taste	response	3	151	31	foodImage.29	FOODEEG_Images\0278.jpg	YN	Left	Yes	0.74101040000096	0	447157	234
874.392578125	1	taste	trialStart	3	152	32	foodImage.73	FOODEEG_Images\0717.jpg	YN	Left	Yes	1.11849609995261	0	447690	251
875.451171875	2	taste	foodImageDisplay	3	152	32	foodImage.73	FOODEEG_Images\0717.jpg	YN	Left	Yes	1.11849609995261	0	448232	252
877.513671875	1.11849609995261	taste	choicePhaseStart	3	152	32	foodImage.73	FOODEEG_Images\0717.jpg	YN	Left	Yes	1.11849609995261	0	449288	253
878.623046875	0	taste	response	3	152	32	foodImage.73	FOODEEG_Images\0717.jpg	YN	Left	Yes	1.11849609995261	0	449856	234
879.666015625	1	health	trialStart	3	153	33	foodImage.13	FOODEEG_Images\0183.jpg	YN	Left	Yes	1.30169510003179	0	450390	251
880.70703125	2	health	foodImageDisplay	3	153	33	foodImage.13	FOODEEG_Images\0183.jpg	YN	Left	Yes	1.30169510003179	0	450923	252
882.76953125	1.30169510003179	health	choicePhaseStart	3	153	33	foodImage.13	FOODEEG_Images\0183.jpg	YN	Left	Yes	1.30169510003179	0	451979	253
884.0625	0	health	response	3	153	33	foodImage.13	FOODEEG_Images\0183.jpg	YN	Left	Yes	1.30169510003179	0	452641	234
885.103515625	1	health	trialStart	3	154	34	foodImage.85	FOODEEG_Images\0841.jpg	YN	Right	No	1.07563800003845	0	453174	251
886.1640625	2	health	foodImageDisplay	3	154	34	foodImage.85	FOODEEG_Images\0841.jpg	YN	Right	No	1.07563800003845	0	453717	252
888.2265625	1.07563800003845	health	choicePhaseStart	3	154	34	foodImage.85	FOODEEG_Images\0841.jpg	YN	Right	No	1.07563800003845	0	454773	253
889.294921875	0	health	response	3	154	34	foodImage.85	FOODEEG_Images\0841.jpg	YN	Right	No	1.07563800003845	0	455320	235
890.337890625	1	taste	trialStart	3	155	35	foodImage.69	FOODEEG_Images\0693.jpg	NY	Right	Yes	0.772837999975309	0	455854	251
891.380859375	2	taste	foodImageDisplay	3	155	35	foodImage.69	FOODEEG_Images\0693.jpg	NY	Right	Yes	0.772837999975309	0	456388	252
893.443359375	0.772837999975309	taste	choicePhaseStart	3	155	35	foodImage.69	FOODEEG_Images\0693.jpg	NY	Right	Yes	0.772837999975309	0	457444	253
894.20703125	0	taste	response	3	155	35	foodImage.69	FOODEEG_Images\0693.jpg	NY	Right	Yes	0.772837999975309	0	457835	235
895.25	1	decision	trialStart	3	156	36	foodImage.78	FOODEEG_Images\0787.jpg	NY	Right	Yes	3.0532398999203	0	458369	251
896.306640625	2	decision	foodImageDisplay	3	156	36	foodImage.78	FOODEEG_Images\0787.jpg	NY	Right	Yes	3.0532398999203	0	458910	252
898.369140625	3.0532398999203	decision	choicePhaseStart	3	156	36	foodImage.78	FOODEEG_Images\0787.jpg	NY	Right	Yes	3.0532398999203	0	459966	253
901.4140625	0	decision	response	3	156	36	foodImage.78	FOODEEG_Images\0787.jpg	NY	Right	Yes	3.0532398999203	0	461525	235
902.45703125	1	decision	trialStart	3	157	37	foodImage.77	FOODEEG_Images\0771.jpg	YN	Left	Yes	0.819754600059241	0	462059	251
903.5	2	decision	foodImageDisplay	3	157	37	foodImage.77	FOODEEG_Images\0771.jpg	YN	Left	Yes	0.819754600059241	0	462593	252
905.5625	0.819754600059241	decision	choicePhaseStart	3	157	37	foodImage.77	FOODEEG_Images\0771.jpg	YN	Left	Yes	0.819754600059241	0	463649	253
906.373046875	0	decision	response	3	157	37	foodImage.77	FOODEEG_Images\0771.jpg	YN	Left	Yes	0.819754600059241	0	464064	234
907.421875	1	taste	trialStart	3	158	38	foodImage.21	FOODEEG_Images\0234.jpg	YN	Left	Yes	0.827757299994119	0	464601	251
908.498046875	2	taste	foodImageDisplay	3	158	38	foodImage.21	FOODEEG_Images\0234.jpg	YN	Left	Yes	0.827757299994119	0	465152	252
910.560546875	0.827757299994119	taste	choicePhaseStart	3	158	38	foodImage.21	FOODEEG_Images\0234.jpg	YN	Left	Yes	0.827757299994119	0	466208	253
911.380859375	0	taste	response	3	158	38	foodImage.21	FOODEEG_Images\0234.jpg	YN	Left	Yes	0.827757299994119	0	466628	234
912.423828125	1	health	trialStart	3	159	39	foodImage.27	FOODEEG_Images\0263.jpg	YN	Left	Yes	1.6916245999746	0	467162	251
913.466796875	2	health	foodImageDisplay	3	159	39	foodImage.27	FOODEEG_Images\0263.jpg	YN	Left	Yes	1.6916245999746	0	467696	252
915.529296875	1.6916245999746	health	choicePhaseStart	3	159	39	foodImage.27	FOODEEG_Images\0263.jpg	YN	Left	Yes	1.6916245999746	0	468752	253
917.212890625	0	health	response	3	159	39	foodImage.27	FOODEEG_Images\0263.jpg	YN	Left	Yes	1.6916245999746	0	469614	234
918.255859375	1	taste	trialStart	3	160	40	foodImage.89	FOODEEG_Images\0881.jpg	NY	Right	Yes	0.760527699952945	0	470148	251
919.3125	2	taste	foodImageDisplay	3	160	40	foodImage.89	FOODEEG_Images\0881.jpg	NY	Right	Yes	0.760527699952945	0	470689	252
921.375	0.760527699952945	taste	choicePhaseStart	3	160	40	foodImage.89	FOODEEG_Images\0881.jpg	NY	Right	Yes	0.760527699952945	0	471745	253
922.125	0	taste	response	3	160	40	foodImage.89	FOODEEG_Images\0881.jpg	NY	Right	Yes	0.760527699952945	0	472129	235
923.16796875	1	health	trialStart	3	161	41	foodImage.16	FOODEEG_Images\0196.jpg	NY	Right	Yes	1.31777999992482	0	472663	251
924.2265625	2	health	foodImageDisplay	3	161	41	foodImage.16	FOODEEG_Images\0196.jpg	NY	Right	Yes	1.31777999992482	0	473205	252
926.2890625	1.31777999992482	health	choicePhaseStart	3	161	41	foodImage.16	FOODEEG_Images\0196.jpg	NY	Right	Yes	1.31777999992482	0	474261	253
927.595703125	0	health	response	3	161	41	foodImage.16	FOODEEG_Images\0196.jpg	NY	Right	Yes	1.31777999992482	0	474930	235
928.640625	1	health	trialStart	3	162	42	foodImage.81	FOODEEG_Images\0797.jpg	YN	Right	No	1.60694710002281	0	475465	251
929.697265625	2	health	foodImageDisplay	3	162	42	foodImage.81	FOODEEG_Images\0797.jpg	YN	Right	No	1.60694710002281	0	476006	252
931.759765625	1.60694710002281	health	choicePhaseStart	3	162	42	foodImage.81	FOODEEG_Images\0797.jpg	YN	Right	No	1.60694710002281	0	477062	253
933.35546875	0	health	response	3	162	42	foodImage.81	FOODEEG_Images\0797.jpg	YN	Right	No	1.60694710002281	0	477879	235
934.3984375	1	decision	trialStart	3	163	43	foodImage.61	FOODEEG_Images\0640.jpg	YN	Left	Yes	0.829324300051667	0	478413	251
935.44140625	2	decision	foodImageDisplay	3	163	43	foodImage.61	FOODEEG_Images\0640.jpg	YN	Left	Yes	0.829324300051667	0	478947	252
937.50390625	0.829324300051667	decision	choicePhaseStart	3	163	43	foodImage.61	FOODEEG_Images\0640.jpg	YN	Left	Yes	0.829324300051667	0	480003	253
938.32421875	0	decision	response	3	163	43	foodImage.61	FOODEEG_Images\0640.jpg	YN	Left	Yes	0.829324300051667	0	480423	234
939.3671875	1	taste	trialStart	3	164	44	foodImage.80	FOODEEG_Images\0796.jpg	YN	Left	Yes	0.76698309998028	0	480957	251
940.421875	2	taste	foodImageDisplay	3	164	44	foodImage.80	FOODEEG_Images\0796.jpg	YN	Left	Yes	0.76698309998028	0	481497	252
942.486328125	0.76698309998028	taste	choicePhaseStart	3	164	44	foodImage.80	FOODEEG_Images\0796.jpg	YN	Left	Yes	0.76698309998028	0	482554	253
943.244140625	0	taste	response	3	164	44	foodImage.80	FOODEEG_Images\0796.jpg	YN	Left	Yes	0.76698309998028	0	482942	234
944.29296875	1	health	trialStart	3	165	45	foodImage.49	FOODEEG_Images\0515.jpg	YN	Left	Yes	0.992334199952893	0	483479	251
945.333984375	2	health	foodImageDisplay	3	165	45	foodImage.49	FOODEEG_Images\0515.jpg	YN	Left	Yes	0.992334199952893	0	484012	252
947.396484375	0.992334199952893	health	choicePhaseStart	3	165	45	foodImage.49	FOODEEG_Images\0515.jpg	YN	Left	Yes	0.992334199952893	0	485068	253
948.37890625	0	health	response	3	165	45	foodImage.49	FOODEEG_Images\0515.jpg	YN	Left	Yes	0.992334199952893	0	485571	234
949.421875	1	decision	trialStart	3	166	46	foodImage.46	FOODEEG_Images\0479.jpg	NY	Right	Yes	1.0602566000307	0	486105	251
950.505859375	2	decision	foodImageDisplay	3	166	46	foodImage.46	FOODEEG_Images\0479.jpg	NY	Right	Yes	1.0602566000307	0	486660	252
952.568359375	1.0602566000307	decision	choicePhaseStart	3	166	46	foodImage.46	FOODEEG_Images\0479.jpg	NY	Right	Yes	1.0602566000307	0	487716	253
953.619140625	0	decision	response	3	166	46	foodImage.46	FOODEEG_Images\0479.jpg	NY	Right	Yes	1.0602566000307	0	488254	235
954.6640625	1	health	trialStart	3	167	47	foodImage.29	FOODEEG_Images\0278.jpg	YN	Left	Yes	0.763999600079842	0	488789	251
955.705078125	2	health	foodImageDisplay	3	167	47	foodImage.29	FOODEEG_Images\0278.jpg	YN	Left	Yes	0.763999600079842	0	489322	252
957.767578125	0.763999600079842	health	choicePhaseStart	3	167	47	foodImage.29	FOODEEG_Images\0278.jpg	YN	Left	Yes	0.763999600079842	0	490378	253
958.5234375	0	health	response	3	167	47	foodImage.29	FOODEEG_Images\0278.jpg	YN	Left	Yes	0.763999600079842	0	490765	234
959.564453125	1	decision	trialStart	3	168	48	foodImage.80	FOODEEG_Images\0796.jpg	NY	Right	Yes	0.752780300099403	0	491298	251
960.62109375	2	decision	foodImageDisplay	3	168	48	foodImage.80	FOODEEG_Images\0796.jpg	NY	Right	Yes	0.752780300099403	0	491839	252
962.68359375	0.752780300099403	decision	choicePhaseStart	3	168	48	foodImage.80	FOODEEG_Images\0796.jpg	NY	Right	Yes	0.752780300099403	0	492895	253
963.427734375	0	decision	response	3	168	48	foodImage.80	FOODEEG_Images\0796.jpg	NY	Right	Yes	0.752780300099403	0	493276	235
964.46875	1	health	trialStart	3	169	49	foodImage.101	FOODEEG_Images\0909.jpg	YN	Right	No	1.11330850003287	0	493809	251
965.505859375	2	health	foodImageDisplay	3	169	49	foodImage.101	FOODEEG_Images\0909.jpg	YN	Right	No	1.11330850003287	0	494340	252
967.5703125	1.11330850003287	health	choicePhaseStart	3	169	49	foodImage.101	FOODEEG_Images\0909.jpg	YN	Right	No	1.11330850003287	0	495397	253
968.673828125	0	health	response	3	169	49	foodImage.101	FOODEEG_Images\0909.jpg	YN	Right	No	1.11330850003287	0	495962	235
969.716796875	1	decision	trialStart	3	170	50	foodImage.17	FOODEEG_Images\0199.jpg	YN	Left	Yes	0.773469800013117	0	496496	251
970.759765625	2	decision	foodImageDisplay	3	170	50	foodImage.17	FOODEEG_Images\0199.jpg	YN	Left	Yes	0.773469800013117	0	497030	252
972.822265625	0.773469800013117	decision	choicePhaseStart	3	170	50	foodImage.17	FOODEEG_Images\0199.jpg	YN	Left	Yes	0.773469800013117	0	498086	253
973.5859375	0	decision	response	3	170	50	foodImage.17	FOODEEG_Images\0199.jpg	YN	Left	Yes	0.773469800013117	0	498477	234
974.62890625	1	taste	trialStart	3	171	51	foodImage.34	FOODEEG_Images\0339.jpg	NY	Right	Yes	0.752168599981815	0	499011	251
975.693359375	2	taste	foodImageDisplay	3	171	51	foodImage.34	FOODEEG_Images\0339.jpg	NY	Right	Yes	0.752168599981815	0	499556	252
977.755859375	0.752168599981815	taste	choicePhaseStart	3	171	51	foodImage.34	FOODEEG_Images\0339.jpg	NY	Right	Yes	0.752168599981815	0	500612	253
978.498046875	0	taste	response	3	171	51	foodImage.34	FOODEEG_Images\0339.jpg	NY	Right	Yes	0.752168599981815	0	500992	235
979.541015625	1	decision	trialStart	3	172	52	foodImage.97	FOODEEG_Images\0905.jpg	YN	Right	No	1.15416849998292	0	501526	251
980.580078125	2	decision	foodImageDisplay	3	172	52	foodImage.97	FOODEEG_Images\0905.jpg	YN	Right	No	1.15416849998292	0	502058	252
982.642578125	1.15416849998292	decision	choicePhaseStart	3	172	52	foodImage.97	FOODEEG_Images\0905.jpg	YN	Right	No	1.15416849998292	0	503114	253
983.787109375	0	decision	response	3	172	52	foodImage.97	FOODEEG_Images\0905.jpg	YN	Right	No	1.15416849998292	0	503700	235
984.830078125	1	health	trialStart	3	173	53	foodImage.8	FOODEEG_Images\0136.jpg	NY	Right	Yes	2.54194300004747	0	504234	251
985.88671875	2	health	foodImageDisplay	3	173	53	foodImage.8	FOODEEG_Images\0136.jpg	NY	Right	Yes	2.54194300004747	0	504775	252
987.94921875	2.54194300004747	health	choicePhaseStart	3	173	53	foodImage.8	FOODEEG_Images\0136.jpg	NY	Right	Yes	2.54194300004747	0	505831	253
990.482421875	0	health	response	3	173	53	foodImage.8	FOODEEG_Images\0136.jpg	NY	Right	Yes	2.54194300004747	0	507128	235
991.5234375	1	taste	trialStart	3	174	54	foodImage.33	FOODEEG_Images\0329.jpg	NY	Right	Yes	0.694156600045972	0	507661	251
992.58203125	2	taste	foodImageDisplay	3	174	54	foodImage.33	FOODEEG_Images\0329.jpg	NY	Right	Yes	0.694156600045972	0	508203	252
994.64453125	0.694156600045972	taste	choicePhaseStart	3	174	54	foodImage.33	FOODEEG_Images\0329.jpg	NY	Right	Yes	0.694156600045972	0	509259	253
995.330078125	0	taste	response	3	174	54	foodImage.33	FOODEEG_Images\0329.jpg	NY	Right	Yes	0.694156600045972	0	509610	235
996.373046875	1	decision	trialStart	3	175	55	foodImage.70	FOODEEG_Images\0705.jpg	YN	Left	Yes	1.61260270001367	0	510144	251
997.431640625	2	decision	foodImageDisplay	3	175	55	foodImage.70	FOODEEG_Images\0705.jpg	YN	Left	Yes	1.61260270001367	0	510686	252
999.494140625	1.61260270001367	decision	choicePhaseStart	3	175	55	foodImage.70	FOODEEG_Images\0705.jpg	YN	Left	Yes	1.61260270001367	0	511742	253
1001.09765625	0	decision	response	3	175	55	foodImage.70	FOODEEG_Images\0705.jpg	YN	Left	Yes	1.61260270001367	0	512563	234
1002.142578125	1	health	trialStart	3	176	56	foodImage.4	FOODEEG_Images\0065.jpg	YN	Right	No	0.804633499938063	0	513098	251
1003.197265625	2	health	foodImageDisplay	3	176	56	foodImage.4	FOODEEG_Images\0065.jpg	YN	Right	No	0.804633499938063	0	513638	252
1005.259765625	0.804633499938063	health	choicePhaseStart	3	176	56	foodImage.4	FOODEEG_Images\0065.jpg	YN	Right	No	0.804633499938063	0	514694	253
1006.056640625	0	health	response	3	176	56	foodImage.4	FOODEEG_Images\0065.jpg	YN	Right	No	0.804633499938063	0	515102	235
1007.099609375	1	taste	trialStart	3	177	57	foodImage.85	FOODEEG_Images\0841.jpg	YN	Left	Yes	2.65639270003885	0	515636	251
1008.15625	2	taste	foodImageDisplay	3	177	57	foodImage.85	FOODEEG_Images\0841.jpg	YN	Left	Yes	2.65639270003885	0	516177	252
1010.21875	2.65639270003885	taste	choicePhaseStart	3	177	57	foodImage.85	FOODEEG_Images\0841.jpg	YN	Left	Yes	2.65639270003885	0	517233	253
1012.865234375	0	taste	response	3	177	57	foodImage.85	FOODEEG_Images\0841.jpg	YN	Left	Yes	2.65639270003885	0	518588	234
1013.908203125	1	taste	trialStart	3	178	58	foodImage.30	FOODEEG_Images\0282.jpg	YN	Left	Yes	0.708855399978347	0	519122	251
1014.951171875	2	taste	foodImageDisplay	3	178	58	foodImage.30	FOODEEG_Images\0282.jpg	YN	Left	Yes	0.708855399978347	0	519656	252
1017.01171875	0.708855399978347	taste	choicePhaseStart	3	178	58	foodImage.30	FOODEEG_Images\0282.jpg	YN	Left	Yes	0.708855399978347	0	520711	253
1017.712890625	0	taste	response	3	178	58	foodImage.30	FOODEEG_Images\0282.jpg	YN	Left	Yes	0.708855399978347	0	521070	234
1018.759765625	1	decision	trialStart	3	179	59	foodImage.38	FOODEEG_Images\0365.jpg	NY	Right	Yes	3.92541010002606	0	521606	251
1019.796875	2	decision	foodImageDisplay	3	179	59	foodImage.38	FOODEEG_Images\0365.jpg	NY	Right	Yes	3.92541010002606	0	522137	252
1021.859375	3.92541010002606	decision	choicePhaseStart	3	179	59	foodImage.38	FOODEEG_Images\0365.jpg	NY	Right	Yes	3.92541010002606	0	523193	253
1025.77734375	0	decision	response	3	179	59	foodImage.38	FOODEEG_Images\0365.jpg	NY	Right	Yes	3.92541010002606	0	525199	235
1026.818359375	1	health	trialStart	3	180	60	foodImage.10	FOODEEG_Images\0145.jpg	NY	Left	No	1.37332519993652	0	525732	251
1027.87890625	2	health	foodImageDisplay	3	180	60	foodImage.10	FOODEEG_Images\0145.jpg	NY	Left	No	1.37332519993652	0	526275	252
1029.94140625	1.37332519993652	health	choicePhaseStart	3	180	60	foodImage.10	FOODEEG_Images\0145.jpg	NY	Left	No	1.37332519993652	0	527331	253
1031.3046875	0	health	response	3	180	60	foodImage.10	FOODEEG_Images\0145.jpg	NY	Left	No	1.37332519993652	0	528029	234
1033.345703125	15.638671875	n/a	blockEnd	n/a	n/a	n/a	n/a	n/a	n/a	n/a	n/a	n/a	n/a	529074	254
1048.984375	2	n/a	blockStart	4	n/a	n/a	n/a	n/a	n/a	n/a	n/a	n/a	n/a	537081	250
1051.017578125	1	decision	trialStart	4	181	1	foodImage.115	FOODEEG_Images\0923.jpg	NY	Left	No	0.66014020005241	0	538122	251
1052.0625	2	decision	foodImageDisplay	4	181	1	foodImage.115	FOODEEG_Images\0923.jpg	NY	Left	No	0.66014020005241	0	538657	252
1054.125	0.66014020005241	decision	choicePhaseStart	4	181	1	foodImage.115	FOODEEG_Images\0923.jpg	NY	Left	No	0.66014020005241	0	539713	253
1054.775390625	0	decision	response	4	181	1	foodImage.115	FOODEEG_Images\0923.jpg	NY	Left	No	0.66014020005241	0	540046	234
1055.818359375	1	health	trialStart	4	182	2	foodImage.83	FOODEEG_Images\0827.jpg	NY	Right	Yes	0.619459299952723	0	540580	251
1056.87890625	2	health	foodImageDisplay	4	182	2	foodImage.83	FOODEEG_Images\0827.jpg	NY	Right	Yes	0.619459299952723	0	541123	252
1058.94140625	0.619459299952723	health	choicePhaseStart	4	182	2	foodImage.83	FOODEEG_Images\0827.jpg	NY	Right	Yes	0.619459299952723	0	542179	253
1059.55078125	0	health	response	4	182	2	foodImage.83	FOODEEG_Images\0827.jpg	NY	Right	Yes	0.619459299952723	0	542491	235
1060.59375	1	decision	trialStart	4	183	3	foodImage.95	FOODEEG_Images\0903.jpg	YN	Left	Yes	0.920698699890636	0	543025	251
1061.6328125	2	decision	foodImageDisplay	4	183	3	foodImage.95	FOODEEG_Images\0903.jpg	YN	Left	Yes	0.920698699890636	0	543557	252
1063.6953125	0.920698699890636	decision	choicePhaseStart	4	183	3	foodImage.95	FOODEEG_Images\0903.jpg	YN	Left	Yes	0.920698699890636	0	544613	253
1064.607421875	0	decision	response	4	183	3	foodImage.95	FOODEEG_Images\0903.jpg	YN	Left	Yes	0.920698699890636	0	545080	234
1065.65234375	1	taste	trialStart	4	184	4	foodImage.50	FOODEEG_Images\0529.jpg	YN	Right	No	0.762468399945647	0	545615	251
1066.7109375	2	taste	foodImageDisplay	4	184	4	foodImage.50	FOODEEG_Images\0529.jpg	YN	Right	No	0.762468399945647	0	546157	252
1068.7734375	0.762468399945647	taste	choicePhaseStart	4	184	4	foodImage.50	FOODEEG_Images\0529.jpg	YN	Right	No	0.762468399945647	0	547213	253
1069.52734375	0	taste	response	4	184	4	foodImage.50	FOODEEG_Images\0529.jpg	YN	Right	No	0.762468399945647	0	547599	235
1070.5703125	1	decision	trialStart	4	185	5	foodImage.53	FOODEEG_Images\0547.jpg	NY	Right	Yes	0.708860600017942	0	548133	251
1071.62890625	2	decision	foodImageDisplay	4	185	5	foodImage.53	FOODEEG_Images\0547.jpg	NY	Right	Yes	0.708860600017942	0	548675	252
1073.69140625	0.708860600017942	decision	choicePhaseStart	4	185	5	foodImage.53	FOODEEG_Images\0547.jpg	NY	Right	Yes	0.708860600017942	0	549731	253
1074.390625	0	decision	response	4	185	5	foodImage.53	FOODEEG_Images\0547.jpg	NY	Right	Yes	0.708860600017942	0	550089	235
1075.435546875	1	taste	trialStart	4	186	6	foodImage.115	FOODEEG_Images\0923.jpg	NY	Left	No	0.598553899908438	0	550624	251
1076.474609375	2	taste	foodImageDisplay	4	186	6	foodImage.115	FOODEEG_Images\0923.jpg	NY	Left	No	0.598553899908438	0	551156	252
1078.537109375	0.598553899908438	taste	choicePhaseStart	4	186	6	foodImage.115	FOODEEG_Images\0923.jpg	NY	Left	No	0.598553899908438	0	552212	253
1079.126953125	0	taste	response	4	186	6	foodImage.115	FOODEEG_Images\0923.jpg	NY	Left	No	0.598553899908438	0	552514	234
1080.171875	1	health	trialStart	4	187	7	foodImage.56	FOODEEG_Images\0586.jpg	NY	Left	No	0.938532600062899	0	553049	251
1081.21484375	2	health	foodImageDisplay	4	187	7	foodImage.56	FOODEEG_Images\0586.jpg	NY	Left	No	0.938532600062899	0	553583	252
1083.27734375	0.938532600062899	health	choicePhaseStart	4	187	7	foodImage.56	FOODEEG_Images\0586.jpg	NY	Left	No	0.938532600062899	0	554639	253
1084.20703125	0	health	response	4	187	7	foodImage.56	FOODEEG_Images\0586.jpg	NY	Left	No	0.938532600062899	0	555115	234
1085.251953125	1	taste	trialStart	4	188	8	foodImage.38	FOODEEG_Images\0365.jpg	YN	Left	Yes	0.705213999957778	0	555650	251
1086.2890625	2	taste	foodImageDisplay	4	188	8	foodImage.38	FOODEEG_Images\0365.jpg	YN	Left	Yes	0.705213999957778	0	556181	252
1088.3515625	0.705213999957778	taste	choicePhaseStart	4	188	8	foodImage.38	FOODEEG_Images\0365.jpg	YN	Left	Yes	0.705213999957778	0	557237	253
1089.046875	0	taste	response	4	188	8	foodImage.38	FOODEEG_Images\0365.jpg	YN	Left	Yes	0.705213999957778	0	557593	234
1090.087890625	1	health	trialStart	4	189	9	foodImage.116	FOODEEG_Images\0924.jpg	YN	Right	No	0.904824100085534	0	558126	251
1091.126953125	2	health	foodImageDisplay	4	189	9	foodImage.116	FOODEEG_Images\0924.jpg	YN	Right	No	0.904824100085534	0	558658	252
1093.189453125	0.904824100085534	health	choicePhaseStart	4	189	9	foodImage.116	FOODEEG_Images\0924.jpg	YN	Right	No	0.904824100085534	0	559714	253
1094.0859375	0	health	response	4	189	9	foodImage.116	FOODEEG_Images\0924.jpg	YN	Right	No	0.904824100085534	0	560173	235
1095.126953125	1	decision	trialStart	4	190	10	foodImage.4	FOODEEG_Images\0065.jpg	YN	Left	Yes	0.808582699974068	0	560706	251
1096.18359375	2	decision	foodImageDisplay	4	190	10	foodImage.4	FOODEEG_Images\0065.jpg	YN	Left	Yes	0.808582699974068	0	561247	252
1098.24609375	0.808582699974068	decision	choicePhaseStart	4	190	10	foodImage.4	FOODEEG_Images\0065.jpg	YN	Left	Yes	0.808582699974068	0	562303	253
1099.046875	0	decision	response	4	190	10	foodImage.4	FOODEEG_Images\0065.jpg	YN	Left	Yes	0.808582699974068	0	562713	234
1100.08984375	1	health	trialStart	4	191	11	foodImage.118	FOODEEG_Images\0926.jpg	NY	Left	No	1.06199680001009	0	563247	251
1101.130859375	2	health	foodImageDisplay	4	191	11	foodImage.118	FOODEEG_Images\0926.jpg	NY	Left	No	1.06199680001009	0	563780	252
1103.193359375	1.06199680001009	health	choicePhaseStart	4	191	11	foodImage.118	FOODEEG_Images\0926.jpg	NY	Left	No	1.06199680001009	0	564836	253
1104.24609375	0	health	response	4	191	11	foodImage.118	FOODEEG_Images\0926.jpg	NY	Left	No	1.06199680001009	0	565375	234
1105.2890625	1	health	trialStart	4	192	12	foodImage.40	FOODEEG_Images\0373.jpg	YN	Right	No	2.1679355999222	0	565909	251
1106.3359375	2	health	foodImageDisplay	4	192	12	foodImage.40	FOODEEG_Images\0373.jpg	YN	Right	No	2.1679355999222	0	566445	252
1108.3984375	2.1679355999222	health	choicePhaseStart	4	192	12	foodImage.40	FOODEEG_Images\0373.jpg	YN	Right	No	2.1679355999222	0	567501	253
1110.556640625	0	health	response	4	192	12	foodImage.40	FOODEEG_Images\0373.jpg	YN	Right	No	2.1679355999222	0	568606	235
1111.599609375	1	health	trialStart	4	193	13	foodImage.75	FOODEEG_Images\0763.jpg	YN	Left	Yes	1.45214229996782	0	569140	251
1112.64453125	2	health	foodImageDisplay	4	193	13	foodImage.75	FOODEEG_Images\0763.jpg	YN	Left	Yes	1.45214229996782	0	569675	252
1114.70703125	1.45214229996782	health	choicePhaseStart	4	193	13	foodImage.75	FOODEEG_Images\0763.jpg	YN	Left	Yes	1.45214229996782	0	570731	253
1116.1484375	0	health	response	4	193	13	foodImage.75	FOODEEG_Images\0763.jpg	YN	Left	Yes	1.45214229996782	0	571469	234
1117.19140625	1	health	trialStart	4	194	14	foodImage.19	FOODEEG_Images\0225.jpg	YN	Right	No	3.71080370002892	0	572003	251
1118.232421875	2	health	foodImageDisplay	4	194	14	foodImage.19	FOODEEG_Images\0225.jpg	YN	Right	No	3.71080370002892	0	572536	252
1120.294921875	3.71080370002892	health	choicePhaseStart	4	194	14	foodImage.19	FOODEEG_Images\0225.jpg	YN	Right	No	3.71080370002892	0	573592	253
1123.99609375	0	health	response	4	194	14	foodImage.19	FOODEEG_Images\0225.jpg	YN	Right	No	3.71080370002892	0	575487	235
1125.0390625	1	decision	trialStart	4	195	15	foodImage.23	FOODEEG_Images\0244.jpg	YN	Left	Yes	0.756665499997325	0	576021	251
