onset	duration	trial_type	event_type	block	trial_total	trial_in_block	food_image_code	food_image_path	button_position	resp_position	resp_choice	choice_rt	resp_too_slow	sample	trigger
386.5234375	2	n/a	blockStart	1	n/a	n/a	n/a	n/a	n/a	n/a	n/a	n/a	n/a	197901	250
388.560546875	1	decision	trialStart	1	1	1	foodImage.47	FOODEEG_Images\0488.jpg	YN	Left	Yes	0.816828099999839	0	198944	251
389.607421875	2	decision	foodImageDisplay	1	1	1	foodImage.47	FOODEEG_Images\0488.jpg	YN	Left	Yes	0.816828099999839	0	199480	252
391.673828125	0.816828099999839	decision	choicePhaseStart	1	1	1	foodImage.47	FOODEEG_Images\0488.jpg	YN	Left	Yes	0.816828099999839	0	200538	253
392.484375	0	decision	response	1	1	1	foodImage.47	FOODEEG_Images\0488.jpg	YN	Left	Yes	0.816828099999839	0	200953	234
393.595703125	1	taste	trialStart	1	2	2	foodImage.19	FOODEEG_Images\0225.jpg	NY	Left	No	1.72431429999961	0	201522	251
394.638671875	2	taste	foodImageDisplay	1	2	2	foodImage.19	FOODEEG_Images\0225.jpg	NY	Left	No	1.72431429999961	0	202056	252
396.703125	1.72431429999961	taste	choicePhaseStart	1	2	2	foodImage.19	FOODEEG_Images\0225.jpg	NY	Left	No	1.72431429999961	0	203113	253
398.419921875	0	taste	response	1	2	2	foodImage.19	FOODEEG_Images\0225.jpg	NY	Left	No	1.72431429999961	0	203992	234
399.47265625	1	taste	trialStart	1	3	3	foodImage.61	FOODEEG_Images\0640.jpg	YN	Left	Yes	0.941684100000202	0	204531	251
400.517578125	2	taste	foodImageDisplay	1	3	3	foodImage.61	FOODEEG_Images\0640.jpg	YN	Left	Yes	0.941684100000202	0	205066	252
402.58203125	0.941684100000202	taste	choicePhaseStart	1	3	3	foodImage.61	FOODEEG_Images\0640.jpg	YN	Left	Yes	0.941684100000202	0	206123	253
403.515625	0	taste	response	1	3	3	foodImage.61	FOODEEG_Images\0640.jpg	YN	Left	Yes	0.941684100000202	0	206601	234
404.560546875	1	decision	trialStart	1	4	4	foodImage.32	FOODEEG_Images\0319.jpg	NY	Right	Yes	1.45344130000012	0	207136	251
405.60546875	2	decision	foodImageDisplay	1	4	4	foodImage.32	FOODEEG_Images\0319.jpg	NY	Right	Yes	1.45344130000012	0	207671	252
407.669921875	1.45344130000012	decision	choicePhaseStart	1	4	4	foodImage.32	FOODEEG_Images\0319.jpg	NY	Right	Yes	1.45344130000012	0	208728	253
409.115234375	0	decision	response	1	4	4	foodImage.32	FOODEEG_Images\0319.jpg	NY	Right	Yes	1.45344130000012	0	209468	235
410.16015625	1	decision	trialStart	1	5	5	foodImage.114	FOODEEG_Images\0922.jpg	NY	Right	Yes	1.05374889999985	0	210003	251
411.203125	2	decision	foodImageDisplay	1	5	5	foodImage.114	FOODEEG_Images\0922.jpg	NY	Right	Yes	1.05374889999985	0	210537	252
413.26953125	1.05374889999985	decision	choicePhaseStart	1	5	5	foodImage.114	FOODEEG_Images\0922.jpg	NY	Right	Yes	1.05374889999985	0	211595	253
414.314453125	0	decision	response	1	5	5	foodImage.114	FOODEEG_Images\0922.jpg	NY	Right	Yes	1.05374889999985	0	212130	235
415.369140625	1	taste	trialStart	1	6	6	foodImage.56	FOODEEG_Images\0586.jpg	NY	Left	No	3.86112420000063	0	212670	251
416.4140625	2	taste	foodImageDisplay	1	6	6	foodImage.56	FOODEEG_Images\0586.jpg	NY	Left	No	3.86112420000063	0	213205	252
418.4765625	3.86112420000063	taste	choicePhaseStart	1	6	6	foodImage.56	FOODEEG_Images\0586.jpg	NY	Left	No	3.86112420000063	0	214261	253
422.330078125	0	taste	response	1	6	6	foodImage.56	FOODEEG_Images\0586.jpg	NY	Left	No	3.86112420000063	0	216234	234
423.373046875	1	decision	trialStart	1	7	7	foodImage.48	FOODEEG_Images\0494.jpg	NY	Left	No	0.85383770000044	0	216768	251
424.41796875	2	decision	foodImageDisplay	1	7	7	foodImage.48	FOODEEG_Images\0494.jpg	NY	Left	No	0.85383770000044	0	217303	252
426.482421875	0.85383770000044	decision	choicePhaseStart	1	7	7	foodImage.48	FOODEEG_Images\0494.jpg	NY	Left	No	0.85383770000044	0	218360	253
427.330078125	0	decision	response	1	7	7	foodImage.48	FOODEEG_Images\0494.jpg	NY	Left	No	0.85383770000044	0	218794	234
428.37890625	1	health	trialStart	1	8	8	foodImage.108	FOODEEG_Images\0916.jpg	NY	Right	Yes	1.36022339999909	0	219331	251
429.41796875	2	health	foodImageDisplay	1	8	8	foodImage.108	FOODEEG_Images\0916.jpg	NY	Right	Yes	1.36022339999909	0	219863	252
431.482421875	1.36022339999909	health	choicePhaseStart	1	8	8	foodImage.108	FOODEEG_Images\0916.jpg	NY	Right	Yes	1.36022339999909	0	220920	253
432.833984375	0	health	response	1	8	8	foodImage.108	FOODEEG_Images\0916.jpg	NY	Right	Yes	1.36022339999909	0	221612	235
433.87890625	1	taste	trialStart	1	9	9	foodImage.73	FOODEEG_Images\0717.jpg	NY	Left	No	1.4797094000005	0	222147	251
434.939453125	2	taste	foodImageDisplay	1	9	9	foodImage.73	FOODEEG_Images\0717.jpg	NY	Left	No	1.4797094000005	0	222690	252
437.00390625	1.4797094000005	taste	choicePhaseStart	1	9	9	foodImage.73	FOODEEG_Images\0717.jpg	NY	Left	No	1.4797094000005	0	223747	253
438.474609375	0	taste	response	1	9	9	foodImage.73	FOODEEG_Images\0717.jpg	NY	Left	No	1.4797094000005	0	224500	234
439.517578125	1	decision	trialStart	1	10	10	foodImage.100	FOODEEG_Images\0908.jpg	YN	Left	Yes	0.972982900000716	0	225034	251
440.556640625	2	decision	foodImageDisplay	1	10	10	foodImage.100	FOODEEG_Images\0908.jpg	YN	Left	Yes	0.972982900000716	0	225566	252
442.62109375	0.972982900000716	decision	choicePhaseStart	1	10	10	foodImage.100	FOODEEG_Images\0908.jpg	YN	Left	Yes	0.972982900000716	0	226623	253
443.5859375	0	decision	response	1	10	10	foodImage.100	FOODEEG_Images\0908.jpg	YN	Left	Yes	0.972982900000716	0	227117	234
444.634765625	1	taste	trialStart	1	11	11	foodImage.70	FOODEEG_Images\0705.jpg	YN	Left	Yes	0.833884599998783	0	227654	251
445.6953125	2	taste	foodImageDisplay	1	11	11	foodImage.70	FOODEEG_Images\0705.jpg	YN	Left	Yes	0.833884599998783	0	228197	252
447.759765625	0.833884599998783	taste	choicePhaseStart	1	11	11	foodImage.70	FOODEEG_Images\0705.jpg	YN	Left	Yes	0.833884599998783	0	229254	253
448.5859375	0	taste	response	1	11	11	foodImage.70	FOODEEG_Images\0705.jpg	YN	Left	Yes	0.833884599998783	0	229677	234
449.626953125	1	taste	trialStart	1	12	12	foodImage.41	FOODEEG_Images\0409.jpg	YN	Right	No	1.41652799999974	0	230210	251
450.6953125	2	taste	foodImageDisplay	1	12	12	foodImage.41	FOODEEG_Images\0409.jpg	YN	Right	No	1.41652799999974	0	230757	252
452.7578125	1.41652799999974	taste	choicePhaseStart	1	12	12	foodImage.41	FOODEEG_Images\0409.jpg	YN	Right	No	1.41652799999974	0	231813	253
454.16796875	0	taste	response	1	12	12	foodImage.41	FOODEEG_Images\0409.jpg	YN	Right	No	1.41652799999974	0	232535	235
455.21875	1	health	trialStart	1	13	13	foodImage.103	FOODEEG_Images\0911.jpg	NY	Right	Yes	1.19903559999875	0	233073	251
456.2578125	2	health	foodImageDisplay	1	13	13	foodImage.103	FOODEEG_Images\0911.jpg	NY	Right	Yes	1.19903559999875	0	233605	252
458.322265625	1.19903559999875	health	choicePhaseStart	1	13	13	foodImage.103	FOODEEG_Images\0911.jpg	NY	Right	Yes	1.19903559999875	0	234662	253
459.513671875	0	health	response	1	13	13	foodImage.103	FOODEEG_Images\0911.jpg	NY	Right	Yes	1.19903559999875	0	235272	235
460.556640625	1	health	trialStart	1	14	14	foodImage.61	FOODEEG_Images\0640.jpg	YN	Left	Yes	0.771910299999945	0	235806	251
461.59765625	2	health	foodImageDisplay	1	14	14	foodImage.61	FOODEEG_Images\0640.jpg	YN	Left	Yes	0.771910299999945	0	236339	252
463.662109375	0.771910299999945	health	choicePhaseStart	1	14	14	foodImage.61	FOODEEG_Images\0640.jpg	YN	Left	Yes	0.771910299999945	0	237396	253
464.423828125	0	health	response	1	14	14	foodImage.61	FOODEEG_Images\0640.jpg	YN	Left	Yes	0.771910299999945	0	237786	234
465.466796875	1	taste	trialStart	1	15	15	foodImage.28	FOODEEG_Images\0273.jpg	YN	Left	Yes	1.44013479999921	0	238320	251
466.5078125	2	taste	foodImageDisplay	1	15	15	foodImage.28	FOODEEG_Images\0273.jpg	YN	Left	Yes	1.44013479999921	0	238853	252
468.5703125	1.44013479999921	taste	choicePhaseStart	1	15	15	foodImage.28	FOODEEG_Images\0273.jpg	YN	Left	Yes	1.44013479999921	0	239909	253
470	0	taste	response	1	15	15	foodImage.28	FOODEEG_Images\0273.jpg	YN	Left	Yes	1.44013479999921	0	240641	234
471.04296875	1	decision	trialStart	1	16	16	foodImage.2	FOODEEG_Images\0028.jpg	YN	Left	Yes	0.614827299999888	0	241175	251
472.087890625	2	decision	foodImageDisplay	1	16	16	foodImage.2	FOODEEG_Images\0028.jpg	YN	Left	Yes	0.614827299999888	0	241710	252
474.15234375	0.614827299999888	decision	choicePhaseStart	1	16	16	foodImage.2	FOODEEG_Images\0028.jpg	YN	Left	Yes	0.614827299999888	0	242767	253
474.759765625	0	decision	response	1	16	16	foodImage.2	FOODEEG_Images\0028.jpg	YN	Left	Yes	0.614827299999888	0	243078	234
475.802734375	1	decision	trialStart	1	17	17	foodImage.35	FOODEEG_Images\0350.jpg	NY	Right	Yes	0.862836799999059	0	243612	251
476.841796875	2	decision	foodImageDisplay	1	17	17	foodImage.35	FOODEEG_Images\0350.jpg	NY	Right	Yes	0.862836799999059	0	244144	252
478.90625	0.862836799999059	decision	choicePhaseStart	1	17	17	foodImage.35	FOODEEG_Images\0350.jpg	NY	Right	Yes	0.862836799999059	0	245201	253
479.759765625	0	decision	response	1	17	17	foodImage.35	FOODEEG_Images\0350.jpg	NY	Right	Yes	0.862836799999059	0	245638	235
480.8046875	1	health	trialStart	1	18	18	foodImage.51	FOODEEG_Images\0536.jpg	NY	Left	No	2.2923224999995	0	246173	251
481.8515625	2	health	foodImageDisplay	1	18	18	foodImage.51	FOODEEG_Images\0536.jpg	NY	Left	No	2.2923224999995	0	246709	252
483.916015625	2.2923224999995	health	choicePhaseStart	1	18	18	foodImage.51	FOODEEG_Images\0536.jpg	NY	Left	No	2.2923224999995	0	247766	253
486.19921875	0	health	response	1	18	18	foodImage.51	FOODEEG_Images\0536.jpg	NY	Left	No	2.2923224999995	0	248935	234
487.244140625	1	decision	trialStart	1	19	19	foodImage.91	FOODEEG_Images\0896.jpg	NY	Right	Yes	1.03351029999976	0	249470	251
488.302734375	2	decision	foodImageDisplay	1	19	19	foodImage.91	FOODEEG_Images\0896.jpg	NY	Right	Yes	1.03351029999976	0	250012	252
490.3671875	1.03351029999976	decision	choicePhaseStart	1	19	19	foodImage.91	FOODEEG_Images\0896.jpg	NY	Right	Yes	1.03351029999976	0	251069	253
491.390625	0	decision	response	1	19	19	foodImage.91	FOODEEG_Images\0896.jpg	NY	Right	Yes	1.03351029999976	0	251593	235
492.43359375	1	health	trialStart	1	20	20	foodImage.30	FOODEEG_Images\0282.jpg	YN	Left	Yes	0.948987399999169	0	252127	251
493.474609375	2	health	foodImageDisplay	1	20	20	foodImage.30	FOODEEG_Images\0282.jpg	YN	Left	Yes	0.948987399999169	0	252660	252
495.5390625	0.948987399999169	health	choicePhaseStart	1	20	20	foodImage.30	FOODEEG_Images\0282.jpg	YN	Left	Yes	0.948987399999169	0	253717	253
496.478515625	0	health	response	1	20	20	foodImage.30	FOODEEG_Images\0282.jpg	YN	Left	Yes	0.948987399999169	0	254198	234
497.521484375	1	decision	trialStart	1	21	21	foodImage.99	FOODEEG_Images\0907.jpg	NY	Right	Yes	1.98088420000022	0	254732	251
498.560546875	2	decision	foodImageDisplay	1	21	21	foodImage.99	FOODEEG_Images\0907.jpg	NY	Right	Yes	1.98088420000022	0	255264	252
500.625	1.98088420000022	decision	choicePhaseStart	1	21	21	foodImage.99	FOODEEG_Images\0907.jpg	NY	Right	Yes	1.98088420000022	0	256321	253
502.599609375	0	decision	response	1	21	21	foodImage.99	FOODEEG_Images\0907.jpg	NY	Right	Yes	1.98088420000022	0	257332	235
503.642578125	1	taste	trialStart	1	22	22	foodImage.88	FOODEEG_Images\0878.jpg	NY	Right	Yes	0.898067500000252	0	257866	251
504.69921875	2	taste	foodImageDisplay	1	22	22	foodImage.88	FOODEEG_Images\0878.jpg	NY	Right	Yes	0.898067500000252	0	258407	252
506.763671875	0.898067500000252	taste	choicePhaseStart	1	22	22	foodImage.88	FOODEEG_Images\0878.jpg	NY	Right	Yes	0.898067500000252	0	259464	253
507.654296875	0	taste	response	1	22	22	foodImage.88	FOODEEG_Images\0878.jpg	NY	Right	Yes	0.898067500000252	0	259920	235
508.697265625	1	taste	trialStart	1	23	23	foodImage.118	FOODEEG_Images\0926.jpg	NY	Left	No	1.10307970000031	0	260454	251
509.73828125	2	taste	foodImageDisplay	1	23	23	foodImage.118	FOODEEG_Images\0926.jpg	NY	Left	No	1.10307970000031	0	260987	252
511.80078125	1.10307970000031	taste	choicePhaseStart	1	23	23	foodImage.118	FOODEEG_Images\0926.jpg	NY	Left	No	1.10307970000031	0	262043	253
512.89453125	0	taste	response	1	23	23	foodImage.118	FOODEEG_Images\0926.jpg	NY	Left	No	1.10307970000031	0	262603	234
513.9375	1	decision	trialStart	1	24	24	foodImage.87	FOODEEG_Images\0873.jpg	NY	Right	Yes	0.591746600000988	0	263137	251
514.998046875	2	decision	foodImageDisplay	1	24	24	foodImage.87	FOODEEG_Images\0873.jpg	NY	Right	Yes	0.591746600000988	0	263680	252
517.0625	0.591746600000988	decision	choicePhaseStart	1	24	24	foodImage.87	FOODEEG_Images\0873.jpg	NY	Right	Yes	0.591746600000988	0	264737	253
517.646484375	0	decision	response	1	24	24	foodImage.87	FOODEEG_Images\0873.jpg	NY	Right	Yes	0.591746600000988	0	265036	235
518.689453125	1	health	trialStart	1	25	25	foodImage.66	FOODEEG_Images\0676.jpg	YN	Right	No	1.16794860000118	0	265570	251
519.736328125	2	health	foodImageDisplay	1	25	25	foodImage.66	FOODEEG_Images\0676.jpg	YN	Right	No	1.16794860000118	0	266106	252
521.798828125	1.16794860000118	health	choicePhaseStart	1	25	25	foodImage.66	FOODEEG_Images\0676.jpg	YN	Right	No	1.16794860000118	0	267162	253
522.958984375	0	health	response	1	25	25	foodImage.66	FOODEEG_Images\0676.jpg	YN	Right	No	1.16794860000118	0	267756	235
524.001953125	1	health	trialStart	1	26	26	foodImage.9	FOODEEG_Images\0138.jpg	YN	Right	No	1.307364100001	0	268290	251
525.060546875	2	health	foodImageDisplay	1	26	26	foodImage.9	FOODEEG_Images\0138.jpg	YN	Right	No	1.307364100001	0	268832	252
527.125	1.307364100001	health	choicePhaseStart	1	26	26	foodImage.9	FOODEEG_Images\0138.jpg	YN	Right	No	1.307364100001	0	269889	253
528.421875	0	health	response	1	26	26	foodImage.9	FOODEEG_Images\0138.jpg	YN	Right	No	1.307364100001	0	270553	235
529.46484375	1	health	trialStart	1	27	27	foodImage.50	FOODEEG_Images\0529.jpg	YN	Left	Yes	0.605420300000333	0	271087	251
530.5234375	2	health	foodImageDisplay	1	27	27	foodImage.50	FOODEEG_Images\0529.jpg	YN	Left	Yes	0.605420300000333	0	271629	252
532.5859375	0.605420300000333	health	choicePhaseStart	1	27	27	foodImage.50	FOODEEG_Images\0529.jpg	YN	Left	Yes	0.605420300000333	0	272685	253
533.181640625	0	health	response	1	27	27	foodImage.50	FOODEEG_Images\0529.jpg	YN	Left	Yes	0.605420300000333	0	272990	234
534.224609375	1	health	trialStart	1	28	28	foodImage.6	FOODEEG_Images\0113.jpg	NY	Left	No	0.882079099999828	0	273524	251
535.267578125	2	health	foodImageDisplay	1	28	28	foodImage.6	FOODEEG_Images\0113.jpg	NY	Left	No	0.882079099999828	0	274058	252
537.33203125	0.882079099999828	health	choicePhaseStart	1	28	28	foodImage.6	FOODEEG_Images\0113.jpg	NY	Left	No	0.882079099999828	0	275115	253
538.205078125	0	health	response	1	28	28	foodImage.6	FOODEEG_Images\0113.jpg	NY	Left	No	0.882079099999828	0	275562	234
539.25	1	taste	trialStart	1	29	29	foodImage.82	FOODEEG_Images\0805.jpg	YN	Left	Yes	0.84729470000093	0	276097	251
540.302734375	2	taste	foodImageDisplay	1	29	29	foodImage.82	FOODEEG_Images\0805.jpg	YN	Left	Yes	0.84729470000093	0	276636	252
542.3671875	0.84729470000093	taste	choicePhaseStart	1	29	29	foodImage.82	FOODEEG_Images\0805.jpg	YN	Left	Yes	0.84729470000093	0	277693	253
543.205078125	0	taste	response	1	29	29	foodImage.82	FOODEEG_Images\0805.jpg	YN	Left	Yes	0.84729470000093	0	278122	234
544.248046875	1	decision	trialStart	1	30	30	foodImage.23	FOODEEG_Images\0244.jpg	NY	Right	Yes	0.828178800000387	0	278656	251
545.291015625	2	decision	foodImageDisplay	1	30	30	foodImage.23	FOODEEG_Images\0244.jpg	NY	Right	Yes	0.828178800000387	0	279190	252
547.359375	0.828178800000387	decision	choicePhaseStart	1	30	30	foodImage.23	FOODEEG_Images\0244.jpg	NY	Right	Yes	0.828178800000387	0	280249	253
548.181640625	0	decision	response	1	30	30	foodImage.23	FOODEEG_Images\0244.jpg	NY	Right	Yes	0.828178800000387	0	280670	235
549.224609375	1	taste	trialStart	1	31	31	foodImage.10	FOODEEG_Images\0145.jpg	NY	Right	Yes	1.18014719999883	0	281204	251
550.28125	2	taste	foodImageDisplay	1	31	31	foodImage.10	FOODEEG_Images\0145.jpg	NY	Right	Yes	1.18014719999883	0	281745	252
552.345703125	1.18014719999883	taste	choicePhaseStart	1	31	31	foodImage.10	FOODEEG_Images\0145.jpg	NY	Right	Yes	1.18014719999883	0	282802	253
553.517578125	0	taste	response	1	31	31	foodImage.10	FOODEEG_Images\0145.jpg	NY	Right	Yes	1.18014719999883	0	283402	235
554.5625	1	decision	trialStart	1	32	32	foodImage.29	FOODEEG_Images\0278.jpg	NY	Right	Yes	0.860215700000481	0	283937	251
555.603515625	2	decision	foodImageDisplay	1	32	32	foodImage.29	FOODEEG_Images\0278.jpg	NY	Right	Yes	0.860215700000481	0	284470	252
557.666015625	0.860215700000481	decision	choicePhaseStart	1	32	32	foodImage.29	FOODEEG_Images\0278.jpg	NY	Right	Yes	0.860215700000481	0	285526	253
558.517578125	0	decision	response	1	32	32	foodImage.29	FOODEEG_Images\0278.jpg	NY	Right	Yes	0.860215700000481	0	285962	235
559.560546875	1	health	trialStart	1	33	33	foodImage.87	FOODEEG_Images\0873.jpg	NY	Right	Yes	0.665009000000282	0	286496	251
560.6171875	2	health	foodImageDisplay	1	33	33	foodImage.87	FOODEEG_Images\0873.jpg	NY	Right	Yes	0.665009000000282	0	287037	252
562.681640625	0.665009000000282	health	choicePhaseStart	1	33	33	foodImage.87	FOODEEG_Images\0873.jpg	NY	Right	Yes	0.665009000000282	0	288094	253
563.33984375	0	health	response	1	33	33	foodImage.87	FOODEEG_Images\0873.jpg	NY	Right	Yes	0.665009000000282	0	288431	235
564.3828125	1	decision	trialStart	1	34	34	foodImage.18	FOODEEG_Images\0202.jpg	NY	Right	Yes	0.740822100000514	0	288965	251
565.44140625	2	decision	foodImageDisplay	1	34	34	foodImage.18	FOODEEG_Images\0202.jpg	NY	Right	Yes	0.740822100000514	0	289507	252
567.50390625	0.740822100000514	decision	choicePhaseStart	1	34	34	foodImage.18	FOODEEG_Images\0202.jpg	NY	Right	Yes	0.740822100000514	0	290563	253
568.236328125	0	decision	response	1	34	34	foodImage.18	FOODEEG_Images\0202.jpg	NY	Right	Yes	0.740822100000514	0	290938	235
569.28125	1	taste	trialStart	1	35	35	foodImage.15	FOODEEG_Images\0189.jpg	YN	Right	No	0.761586099999477	0	291473	251
570.33984375	2	taste	foodImageDisplay	1	35	35	foodImage.15	FOODEEG_Images\0189.jpg	YN	Right	No	0.761586099999477	0	292015	252
572.404296875	0.761586099999477	taste	choicePhaseStart	1	35	35	foodImage.15	FOODEEG_Images\0189.jpg	YN	Right	No	0.761586099999477	0	293072	253
573.15625	0	taste	response	1	35	35	foodImage.15	FOODEEG_Images\0189.jpg	YN	Right	No	0.761586099999477	0	293457	235
574.197265625	1	taste	trialStart	1	36	36	foodImage.46	FOODEEG_Images\0479.jpg	NY	Right	Yes	0.749523000000409	0	293990	251
575.255859375	2	taste	foodImageDisplay	1	36	36	foodImage.46	FOODEEG_Images\0479.jpg	NY	Right	Yes	0.749523000000409	0	294532	252
577.318359375	0.749523000000409	taste	choicePhaseStart	1	36	36	foodImage.46	FOODEEG_Images\0479.jpg	NY	Right	Yes	0.749523000000409	0	295588	253
578.060546875	0	taste	response	1	36	36	foodImage.46	FOODEEG_Images\0479.jpg	NY	Right	Yes	0.749523000000409	0	295968	235
579.103515625	1	taste	trialStart	1	37	37	foodImage.14	FOODEEG_Images\0188.jpg	NY	Right	Yes	0.953681899998628	0	296502	251
580.16015625	2	taste	foodImageDisplay	1	37	37	foodImage.14	FOODEEG_Images\0188.jpg	NY	Right	Yes	0.953681899998628	0	297043	252
582.224609375	0.953681899998628	taste	choicePhaseStart	1	37	37	foodImage.14	FOODEEG_Images\0188.jpg	NY	Right	Yes	0.953681899998628	0	298100	253
583.171875	0	taste	response	1	37	37	foodImage.14	FOODEEG_Images\0188.jpg	NY	Right	Yes	0.953681899998628	0	298585	235
584.21484375	1	decision	trialStart	1	38	38	foodImage.69	FOODEEG_Images\0693.jpg	NY	Right	Yes	0.613388599998871	0	299119	251
585.255859375	2	decision	foodImageDisplay	1	38	38	foodImage.69	FOODEEG_Images\0693.jpg	NY	Right	Yes	0.613388599998871	0	299652	252
587.3203125	0.613388599998871	decision	choicePhaseStart	1	38	38	foodImage.69	FOODEEG_Images\0693.jpg	NY	Right	Yes	0.613388599998871	0	300709	253
587.923828125	0	decision	response	1	38	38	foodImage.69	FOODEEG_Images\0693.jpg	NY	Right	Yes	0.613388599998871	0	301018	235
588.966796875	1	decision	trialStart	1	39	39	foodImage.49	FOODEEG_Images\0515.jpg	NY	Right	Yes	0.604053200000635	0	301552	251
590.0078125	2	decision	foodImageDisplay	1	39	39	foodImage.49	FOODEEG_Images\0515.jpg	NY	Right	Yes	0.604053200000635	0	302085	252
592.072265625	0.604053200000635	decision	choicePhaseStart	1	39	39	foodImage.49	FOODEEG_Images\0515.jpg	NY	Right	Yes	0.604053200000635	0	303142	253
592.66796875	0	decision	response	1	39	39	foodImage.49	FOODEEG_Images\0515.jpg	NY	Right	Yes	0.604053200000635	0	303447	235
593.71484375	1	decision	trialStart	1	40	40	foodImage.19	FOODEEG_Images\0225.jpg	NY	Left	No	1.49416539999947	0	303983	251
594.7578125	2	decision	foodImageDisplay	1	40	40	foodImage.19	FOODEEG_Images\0225.jpg	NY	Left	No	1.49416539999947	0	304517	252
596.822265625	1.49416539999947	decision	choicePhaseStart	1	40	40	foodImage.19	FOODEEG_Images\0225.jpg	NY	Left	No	1.49416539999947	0	305574	253
598.306640625	0	decision	response	1	40	40	foodImage.19	FOODEEG_Images\0225.jpg	NY	Left	No	1.49416539999947	0	306334	234
599.353515625	1	taste	trialStart	1	41	41	foodImage.66	FOODEEG_Images\0676.jpg	YN	Right	No	1.9134195000006	0	306870	251
600.39453125	2	taste	foodImageDisplay	1	41	41	foodImage.66	FOODEEG_Images\0676.jpg	YN	Right	No	1.9134195000006	0	307403	252
602.458984375	1.9134195000006	taste	choicePhaseStart	1	41	41	foodImage.66	FOODEEG_Images\0676.jpg	YN	Right	No	1.9134195000006	0	308460	253
604.36328125	0	taste	response	1	41	41	foodImage.66	FOODEEG_Images\0676.jpg	YN	Right	No	1.9134195000006	0	309435	235
605.40625	1	decision	trialStart	1	42	42	foodImage.60	FOODEEG_Images\0614.jpg	YN	Left	Yes	0.940368899999157	0	309969	251
606.46484375	2	decision	foodImageDisplay	1	42	42	foodImage.60	FOODEEG_Images\0614.jpg	YN	Left	Yes	0.940368899999157	0	310511	252
608.52734375	0.940368899999157	decision	choicePhaseStart	1	42	42	foodImage.60	FOODEEG_Images\0614.jpg	YN	Left	Yes	0.940368899999157	0	311567	253
609.458984375	0	decision	response	1	42	42	foodImage.60	FOODEEG_Images\0614.jpg	YN	Left	Yes	0.940368899999157	0	312044	234
610.501953125	1	decision	trialStart	1	43	43	foodImage.16	FOODEEG_Images\0196.jpg	NY	Right	Yes	0.892132899998614	0	312578	251
611.560546875	2	decision	foodImageDisplay	1	43	43	foodImage.16	FOODEEG_Images\0196.jpg	NY	Right	Yes	0.892132899998614	0	313120	252
613.623046875	0.892132899998614	decision	choicePhaseStart	1	43	43	foodImage.16	FOODEEG_Images\0196.jpg	NY	Right	Yes	0.892132899998614	0	314176	253
614.505859375	0	decision	response	1	43	43	foodImage.16	FOODEEG_Images\0196.jpg	NY	Right	Yes	0.892132899998614	0	314628	235
615.556640625	1	health	trialStart	1	44	44	foodImage.35	FOODEEG_Images\0350.jpg	YN	Right	No	1.52012050000121	0	315166	251
616.595703125	2	health	foodImageDisplay	1	44	44	foodImage.35	FOODEEG_Images\0350.jpg	YN	Right	No	1.52012050000121	0	315698	252
618.66015625	1.52012050000121	health	choicePhaseStart	1	44	44	foodImage.35	FOODEEG_Images\0350.jpg	YN	Right	No	1.52012050000121	0	316755	253
620.169921875	0	health	response	1	44	44	foodImage.35	FOODEEG_Images\0350.jpg	YN	Right	No	1.52012050000121	0	317528	235
621.21484375	1	decision	trialStart	1	45	45	foodImage.97	FOODEEG_Images\0905.jpg	YN	Right	No	1.23800300000039	0	318063	251
622.26953125	2	decision	foodImageDisplay	1	45	45	foodImage.97	FOODEEG_Images\0905.jpg	YN	Right	No	1.23800300000039	0	318603	252
624.333984375	1.23800300000039	decision	choicePhaseStart	1	45	45	foodImage.97	FOODEEG_Images\0905.jpg	YN	Right	No	1.23800300000039	0	319660	253
625.5625	0	decision	response	1	45	45	foodImage.97	FOODEEG_Images\0905.jpg	YN	Right	No	1.23800300000039	0	320289	235
626.603515625	1	decision	trialStart	1	46	46	foodImage.70	FOODEEG_Images\0705.jpg	NY	Right	Yes	0.833872600000177	0	320822	251
627.681640625	2	decision	foodImageDisplay	1	46	46	foodImage.70	FOODEEG_Images\0705.jpg	NY	Right	Yes	0.833872600000177	0	321374	252
629.744140625	0.833872600000177	decision	choicePhaseStart	1	46	46	foodImage.70	FOODEEG_Images\0705.jpg	NY	Right	Yes	0.833872600000177	0	322430	253
630.5703125	0	decision	response	1	46	46	foodImage.70	FOODEEG_Images\0705.jpg	NY	Right	Yes	0.833872600000177	0	322853	235
631.615234375	1	health	trialStart	1	47	47	foodImage.96	FOODEEG_Images\0904.jpg	NY	Right	Yes	1.0084996000005	0	323388	251
632.666015625	2	health	foodImageDisplay	1	47	47	foodImage.96	FOODEEG_Images\0904.jpg	NY	Right	Yes	1.0084996000005	0	323926	252
634.73046875	1.0084996000005	health	choicePhaseStart	1	47	47	foodImage.96	FOODEEG_Images\0904.jpg	NY	Right	Yes	1.0084996000005	0	324983	253
635.73046875	0	health	response	1	47	47	foodImage.96	FOODEEG_Images\0904.jpg	NY	Right	Yes	1.0084996000005	0	325495	235
636.771484375	1	health	trialStart	1	48	48	foodImage.13	FOODEEG_Images\0183.jpg	NY	Left	No	1.21277329999975	0	326028	251
637.814453125	2	health	foodImageDisplay	1	48	48	foodImage.13	FOODEEG_Images\0183.jpg	NY	Left	No	1.21277329999975	0	326562	252
639.876953125	1.21277329999975	health	choicePhaseStart	1	48	48	foodImage.13	FOODEEG_Images\0183.jpg	NY	Left	No	1.21277329999975	0	327618	253
641.08203125	0	health	response	1	48	48	foodImage.13	FOODEEG_Images\0183.jpg	NY	Left	No	1.21277329999975	0	328235	234
642.12890625	1	health	trialStart	1	49	49	foodImage.79	FOODEEG_Images\0794.jpg	NY	Right	Yes	0.678065300000526	0	328771	251
643.173828125	2	health	foodImageDisplay	1	49	49	foodImage.79	FOODEEG_Images\0794.jpg	NY	Right	Yes	0.678065300000526	0	329306	252
645.236328125	0.678065300000526	health	choicePhaseStart	1	49	49	foodImage.79	FOODEEG_Images\0794.jpg	NY	Right	Yes	0.678065300000526	0	330362	253
645.90625	0	health	response	1	49	49	foodImage.79	FOODEEG_Images\0794.jpg	NY	Right	Yes	0.678065300000526	0	330705	235
646.955078125	1	health	trialStart	1	50	50	foodImage.46	FOODEEG_Images\0479.jpg	NY	Right	Yes	0.868433300000106	0	331242	251
648.029296875	2	health	foodImageDisplay	1	50	50	foodImage.46	FOODEEG_Images\0479.jpg	NY	Right	Yes	0.868433300000106	0	331792	252
650.09375	0.868433300000106	health	choicePhaseStart	1	50	50	foodImage.46	FOODEEG_Images\0479.jpg	NY	Right	Yes	0.868433300000106	0	332849	253
650.953125	0	health	response	1	50	50	foodImage.46	FOODEEG_Images\0479.jpg	NY	Right	Yes	0.868433300000106	0	333289	235
651.99609375	1	taste	trialStart	1	51	51	foodImage.86	FOODEEG_Images\0844.jpg	NY	Right	Yes	4.18667979999918	0	333823	251
653.0546875	2	taste	foodImageDisplay	1	51	51	foodImage.86	FOODEEG_Images\0844.jpg	NY	Right	Yes	4.18667979999918	0	334365	252
655.119140625	4.18667979999918	taste	choicePhaseStart	1	51	51	foodImage.86	FOODEEG_Images\0844.jpg	NY	Right	Yes	4.18667979999918	0	335422	253
659.296875	0	taste	response	1	51	51	foodImage.86	FOODEEG_Images\0844.jpg	NY	Right	Yes	4.18667979999918	0	337561	235
660.341796875	1	taste	trialStart	1	52	52	foodImage.94	FOODEEG_Images\0902.jpg	YN	Right	No	0.839093599999615	0	338096	251
661.37890625	2	taste	foodImageDisplay	1	52	52	foodImage.94	FOODEEG_Images\0902.jpg	YN	Right	No	0.839093599999615	0	338627	252
663.447265625	0.839093599999615	taste	choicePhaseStart	1	52	52	foodImage.94	FOODEEG_Images\0902.jpg	YN	Right	No	0.839093599999615	0	339686	253
664.28125	0	taste	response	1	52	52	foodImage.94	FOODEEG_Images\0902.jpg	YN	Right	No	0.839093599999615	0	340113	235
665.322265625	1	decision	trialStart	1	53	53	foodImage.12	FOODEEG_Images\0181.jpg	NY	Right	Yes	1.21272390000013	0	340646	251
666.365234375	2	decision	foodImageDisplay	1	53	53	foodImage.12	FOODEEG_Images\0181.jpg	NY	Right	Yes	1.21272390000013	0	341180	252
668.427734375	1.21272390000013	decision	choicePhaseStart	1	53	53	foodImage.12	FOODEEG_Images\0181.jpg	NY	Right	Yes	1.21272390000013	0	342236	253
669.6328125	0	decision	response	1	53	53	foodImage.12	FOODEEG_Images\0181.jpg	NY	Right	Yes	1.21272390000013	0	342853	235
670.677734375	1	taste	trialStart	1	54	54	foodImage.83	FOODEEG_Images\0827.jpg	YN	Left	Yes	1.01831039999888	0	343388	251
671.734375	2	taste	foodImageDisplay	1	54	54	foodImage.83	FOODEEG_Images\0827.jpg	YN	Left	Yes	1.01831039999888	0	343929	252
673.798828125	1.01831039999888	taste	choicePhaseStart	1	54	54	foodImage.83	FOODEEG_Images\0827.jpg	YN	Left	Yes	1.01831039999888	0	344986	253
674.80859375	0	taste	response	1	54	54	foodImage.83	FOODEEG_Images\0827.jpg	YN	Left	Yes	1.01831039999888	0	345503	234
675.8515625	1	health	trialStart	1	55	55	foodImage.63	FOODEEG_Images\0645.jpg	NY	Left	No	0.955737499998577	0	346037	251
676.89453125	2	health	foodImageDisplay	1	55	55	foodImage.63	FOODEEG_Images\0645.jpg	NY	Left	No	0.955737499998577	0	346571	252
678.95703125	0.955737499998577	health	choicePhaseStart	1	55	55	foodImage.63	FOODEEG_Images\0645.jpg	NY	Left	No	0.955737499998577	0	347627	253
679.904296875	0	health	response	1	55	55	foodImage.63	FOODEEG_Images\0645.jpg	NY	Left	No	0.955737499998577	0	348112	234
680.9453125	1	taste	trialStart	1	56	56	foodImage.43	FOODEEG_Images\0445.jpg	YN	Left	Yes	0.810244800000874	0	348645	251
682.00390625	2	taste	foodImageDisplay	1	56	56	foodImage.43	FOODEEG_Images\0445.jpg	YN	Left	Yes	0.810244800000874	0	349187	252
684.0703125	0.810244800000874	taste	choicePhaseStart	1	56	56	foodImage.43	FOODEEG_Images\0445.jpg	YN	Left	Yes	0.810244800000874	0	350245	253
684.87109375	0	taste	response	1	56	56	foodImage.43	FOODEEG_Images\0445.jpg	YN	Left	Yes	0.810244800000874	0	350655	234
685.9140625	1	health	trialStart	1	57	57	foodImage.4	FOODEEG_Images\0065.jpg	NY	Left	No	0.742826699999569	0	351189	251
686.970703125	2	health	foodImageDisplay	1	57	57	foodImage.4	FOODEEG_Images\0065.jpg	NY	Left	No	0.742826699999569	0	351730	252
689.033203125	0.742826699999569	health	choicePhaseStart	1	57	57	foodImage.4	FOODEEG_Images\0065.jpg	NY	Left	No	0.742826699999569	0	352786	253
689.767578125	0	health	response	1	57	57	foodImage.4	FOODEEG_Images\0065.jpg	NY	Left	No	0.742826699999569	0	353162	234
690.810546875	1	decision	trialStart	1	58	58	foodImage.65	FOODEEG_Images\0658.jpg	YN	Right	No	1.04302359999929	0	353696	251
691.853515625	2	decision	foodImageDisplay	1	58	58	foodImage.65	FOODEEG_Images\0658.jpg	YN	Right	No	1.04302359999929	0	354230	252
693.91796875	1.04302359999929	decision	choicePhaseStart	1	58	58	foodImage.65	FOODEEG_Images\0658.jpg	YN	Right	No	1.04302359999929	0	355287	253
694.951171875	0	decision	response	1	58	58	foodImage.65	FOODEEG_Images\0658.jpg	YN	Right	No	1.04302359999929	0	355816	235
695.9921875	1	decision	trialStart	1	59	59	foodImage.33	FOODEEG_Images\0329.jpg	YN	Left	Yes	0.621035799998936	0	356349	251
697.03515625	2	decision	foodImageDisplay	1	59	59	foodImage.33	FOODEEG_Images\0329.jpg	YN	Left	Yes	0.621035799998936	0	356883	252
699.099609375	0.621035799998936	decision	choicePhaseStart	1	59	59	foodImage.33	FOODEEG_Images\0329.jpg	YN	Left	Yes	0.621035799998936	0	357940	253
699.7109375	0	decision	response	1	59	59	foodImage.33	FOODEEG_Images\0329.jpg	YN	Left	Yes	0.621035799998936	0	358253	234
700.75390625	1	health	trialStart	1	60	60	foodImage.15	FOODEEG_Images\0189.jpg	NY	Left	No	0.691802299999836	0	358787	251
701.8125	2	health	foodImageDisplay	1	60	60	foodImage.15	FOODEEG_Images\0189.jpg	NY	Left	No	0.691802299999836	0	359329	252
703.875	0.691802299999836	health	choicePhaseStart	1	60	60	foodImage.15	FOODEEG_Images\0189.jpg	NY	Left	No	0.691802299999836	0	360385	253
704.55859375	0	health	response	1	60	60	foodImage.15	FOODEEG_Images\0189.jpg	NY	Left	No	0.691802299999836	0	360735	234
706.599609375	9.478515625	n/a	blockEnd	n/a	n/a	n/a	n/a	n/a	n/a	n/a	n/a	n/a	n/a	361780	254
716.078125	2	n/a	blockStart	2	n/a	n/a	n/a	n/a	n/a	n/a	n/a	n/a	n/a	366633	250
718.111328125	1	health	trialStart	2	61	1	foodImage.38	FOODEEG_Images\0365.jpg	YN	Left	Yes	0.782500200000868	0	367674	251
719.15234375	2	health	foodImageDisplay	2	61	1	foodImage.38	FOODEEG_Images\0365.jpg	YN	Left	Yes	0.782500200000868	0	368207	252
721.216796875	0.782500200000868	health	choicePhaseStart	2	61	1	foodImage.38	FOODEEG_Images\0365.jpg	YN	Left	Yes	0.782500200000868	0	369264	253
721.990234375	0	health	response	2	61	1	foodImage.38	FOODEEG_Images\0365.jpg	YN	Left	Yes	0.782500200000868	0	369660	234
723.033203125	1	decision	trialStart	2	62	2	foodImage.85	FOODEEG_Images\0841.jpg	NY	Right	Yes	0.779399999999441	0	370194	251
724.08984375	2	decision	foodImageDisplay	2	62	2	foodImage.85	FOODEEG_Images\0841.jpg	NY	Right	Yes	0.779399999999441	0	370735	252
726.15625	0.779399999999441	decision	choicePhaseStart	2	62	2	foodImage.85	FOODEEG_Images\0841.jpg	NY	Right	Yes	0.779399999999441	0	371793	253
726.92578125	0	decision	response	2	62	2	foodImage.85	FOODEEG_Images\0841.jpg	NY	Right	Yes	0.779399999999441	0	372187	235
727.96875	1	decision	trialStart	2	63	3	foodImage.81	FOODEEG_Images\0797.jpg	YN	Left	Yes	0.604030300000886	0	372721	251
729.025390625	2	decision	foodImageDisplay	2	63	3	foodImage.81	FOODEEG_Images\0797.jpg	YN	Left	Yes	0.604030300000886	0	373262	252
731.08984375	0.604030300000886	decision	choicePhaseStart	2	63	3	foodImage.81	FOODEEG_Images\0797.jpg	YN	Left	Yes	0.604030300000886	0	374319	253
731.685546875	0	decision	response	2	63	3	foodImage.81	FOODEEG_Images\0797.jpg	YN	Left	Yes	0.604030300000886	0	374624	234
732.728515625	1	taste	trialStart	2	64	4	foodImage.3	FOODEEG_Images\0046.jpg	YN	Left	Yes	0.844759100000374	0	375158	251
733.76953125	2	taste	foodImageDisplay	2	64	4	foodImage.3	FOODEEG_Images\0046.jpg	YN	Left	Yes	0.844759100000374	0	375691	252
735.833984375	0.844759100000374	taste	choicePhaseStart	2	64	4	foodImage.3	FOODEEG_Images\0046.jpg	YN	Left	Yes	0.844759100000374	0	376748	253
736.669921875	0	taste	response	2	64	4	foodImage.3	FOODEEG_Images\0046.jpg	YN	Left	Yes	0.844759100000374	0	377176	234
737.712890625	1	health	trialStart	2	65	5	foodImage.64	FOODEEG_Images\0647.jpg	YN	Left	Yes	0.715532899999744	0	377710	251
738.771484375	2	health	foodImageDisplay	2	65	5	foodImage.64	FOODEEG_Images\0647.jpg	YN	Left	Yes	0.715532899999744	0	378252	252
740.8359375	0.715532899999744	health	choicePhaseStart	2	65	5	foodImage.64	FOODEEG_Images\0647.jpg	YN	Left	Yes	0.715532899999744	0	379309	253
741.541015625	0	health	response	2	65	5	foodImage.64	FOODEEG_Images\0647.jpg	YN	Left	Yes	0.715532899999744	0	379670	234
742.583984375	1	decision	trialStart	2	66	6	foodImage.39	FOODEEG_Images\0367.jpg	NY	Right	Yes	1.20872159999999	0	380204	251
743.623046875	2	decision	foodImageDisplay	2	66	6	foodImage.39	FOODEEG_Images\0367.jpg	NY	Right	Yes	1.20872159999999	0	380736	252
745.685546875	1.20872159999999	decision	choicePhaseStart	2	66	6	foodImage.39	FOODEEG_Images\0367.jpg	NY	Right	Yes	1.20872159999999	0	381792	253
746.884765625	0	decision	response	2	66	6	foodImage.39	FOODEEG_Images\0367.jpg	NY	Right	Yes	1.20872159999999	0	382406	235
747.927734375	1	decision	trialStart	2	67	7	foodImage.42	FOODEEG_Images\0438.jpg	YN	Left	Yes	0.735792299999957	0	382940	251
749.01953125	2	decision	foodImageDisplay	2	67	7	foodImage.42	FOODEEG_Images\0438.jpg	YN	Left	Yes	0.735792299999957	0	383499	252
751.083984375	0.735792299999957	decision	choicePhaseStart	2	67	7	foodImage.42	FOODEEG_Images\0438.jpg	YN	Left	Yes	0.735792299999957	0	384556	253
751.8125	0	decision	response	2	67	7	foodImage.42	FOODEEG_Images\0438.jpg	YN	Left	Yes	0.735792299999957	0	384929	234
752.85546875	1	decision	trialStart	2	68	8	foodImage.117	FOODEEG_Images\0925.jpg	YN	Left	Yes	1.52126099999987	0	385463	251
753.89453125	2	decision	foodImageDisplay	2	68	8	foodImage.117	FOODEEG_Images\0925.jpg	YN	Left	Yes	1.52126099999987	0	385995	252
755.95703125	1.52126099999987	decision	choicePhaseStart	2	68	8	foodImage.117	FOODEEG_Images\0925.jpg	YN	Left	Yes	1.52126099999987	0	387051	253
757.46875	0	decision	response	2	68	8	foodImage.117	FOODEEG_Images\0925.jpg	YN	Left	Yes	1.52126099999987	0	387825	234
758.515625	1	taste	trialStart	2	69	9	foodImage.102	FOODEEG_Images\0910.jpg	NY	Left	No	0.932049299999562	0	388361	251
759.5546875	2	taste	foodImageDisplay	2	69	9	foodImage.102	FOODEEG_Images\0910.jpg	NY	Left	No	0.932049299999562	0	388893	252
761.6171875	0.932049299999562	taste	choicePhaseStart	2	69	9	foodImage.102	FOODEEG_Images\0910.jpg	NY	Left	No	0.932049299999562	0	389949	253
762.541015625	0	taste	response	2	69	9	foodImage.102	FOODEEG_Images\0910.jpg	NY	Left	No	0.932049299999562	0	390422	234
763.583984375	1	decision	trialStart	2	70	10	foodImage.90	FOODEEG_Images\0890.jpg	NY	Right	Yes	0.66193469999962	0	390956	251
764.640625	2	decision	foodImageDisplay	2	70	10	foodImage.90	FOODEEG_Images\0890.jpg	NY	Right	Yes	0.66193469999962	0	391497	252
766.703125	0.66193469999962	decision	choicePhaseStart	2	70	10	foodImage.90	FOODEEG_Images\0890.jpg	NY	Right	Yes	0.66193469999962	0	392553	253
767.357421875	0	decision	response	2	70	10	foodImage.90	FOODEEG_Images\0890.jpg	NY	Right	Yes	0.66193469999962	0	392888	235
768.40234375	1	health	trialStart	2	71	11	foodImage.95	FOODEEG_Images\0903.jpg	YN	Right	No	1.2377534999996	0	393423	251
769.439453125	2	health	foodImageDisplay	2	71	11	foodImage.95	FOODEEG_Images\0903.jpg	YN	Right	No	1.2377534999996	0	393954	252
771.50390625	1.2377534999996	health	choicePhaseStart	2	71	11	foodImage.95	FOODEEG_Images\0903.jpg	YN	Right	No	1.2377534999996	0	395011	253
772.732421875	0	health	response	2	71	11	foodImage.95	FOODEEG_Images\0903.jpg	YN	Right	No	1.2377534999996	0	395640	235
773.775390625	1	taste	trialStart	2	72	12	foodImage.8	FOODEEG_Images\0136.jpg	YN	Left	Yes	1.51768879999872	0	396174	251
774.81640625	2	taste	foodImageDisplay	2	72	12	foodImage.8	FOODEEG_Images\0136.jpg	YN	Left	Yes	1.51768879999872	0	396707	252
776.87890625	1.51768879999872	taste	choicePhaseStart	2	72	12	foodImage.8	FOODEEG_Images\0136.jpg	YN	Left	Yes	1.51768879999872	0	397763	253
778.388671875	0	taste	response	2	72	12	foodImage.8	FOODEEG_Images\0136.jpg	YN	Left	Yes	1.51768879999872	0	398536	234
779.431640625	1	decision	trialStart	2	73	13	foodImage.53	FOODEEG_Images\0547.jpg	NY	Right	Yes	1.11632900000041	0	399070	251
780.490234375	2	decision	foodImageDisplay	2	73	13	foodImage.53	FOODEEG_Images\0547.jpg	NY	Right	Yes	1.11632900000041	0	399612	252
782.552734375	1.11632900000041	decision	choicePhaseStart	2	73	13	foodImage.53	FOODEEG_Images\0547.jpg	NY	Right	Yes	1.11632900000041	0	400668	253
783.66015625	0	decision	response	2	73	13	foodImage.53	FOODEEG_Images\0547.jpg	NY	Right	Yes	1.11632900000041	0	401235	235
784.703125	1	health	trialStart	2	74	14	foodImage.78	FOODEEG_Images\0787.jpg	YN	Left	Yes	0.832510000000184	0	401769	251
785.748046875	2	health	foodImageDisplay	2	74	14	foodImage.78	FOODEEG_Images\0787.jpg	YN	Left	Yes	0.832510000000184	0	402304	252
787.810546875	0.832510000000184	health	choicePhaseStart	2	74	14	foodImage.78	FOODEEG_Images\0787.jpg	YN	Left	Yes	0.832510000000184	0	403360	253
788.634765625	0	health	response	2	74	14	foodImage.78	FOODEEG_Images\0787.jpg	YN	Left	Yes	0.832510000000184	0	403782	234
789.6796875	1	health	trialStart	2	75	15	foodImage.67	FOODEEG_Images\0679.jpg	NY	Left	No	1.4445356999986	0	404317	251
790.736328125	2	health	foodImageDisplay	2	75	15	foodImage.67	FOODEEG_Images\0679.jpg	NY	Left	No	1.4445356999986	0	404858	252
792.80078125	1.4445356999986	health	choicePhaseStart	2	75	15	foodImage.67	FOODEEG_Images\0679.jpg	NY	Left	No	1.4445356999986	0	405915	253
794.236328125	0	health	response	2	75	15	foodImage.67	FOODEEG_Images\0679.jpg	NY	Left	No	1.4445356999986	0	406650	234
795.27734375	1	taste	trialStart	2	76	16	foodImage.95	FOODEEG_Images\0903.jpg	YN	Right	No	0.848982499999693	0	407183	251
796.31640625	2	taste	foodImageDisplay	2	76	16	foodImage.95	FOODEEG_Images\0903.jpg	YN	Right	No	0.848982499999693	0	407715	252
798.37890625	0.848982499999693	taste	choicePhaseStart	2	76	16	foodImage.95	FOODEEG_Images\0903.jpg	YN	Right	No	0.848982499999693	0	408771	253
799.21875	0	taste	response	2	76	16	foodImage.95	FOODEEG_Images\0903.jpg	YN	Right	No	0.848982499999693	0	409201	235
800.259765625	1	taste	trialStart	2	77	17	foodImage.89	FOODEEG_Images\0881.jpg	YN	Left	Yes	1.29438149999987	0	409734	251
801.31640625	2	taste	foodImageDisplay	2	77	17	foodImage.89	FOODEEG_Images\0881.jpg	YN	Left	Yes	1.29438149999987	0	410275	252
803.380859375	1.29438149999987	taste	choicePhaseStart	2	77	17	foodImage.89	FOODEEG_Images\0881.jpg	YN	Left	Yes	1.29438149999987	0	411332	253
804.66796875	0	taste	response	2	77	17	foodImage.89	FOODEEG_Images\0881.jpg	YN	Left	Yes	1.29438149999987	0	411991	234
805.708984375	1	taste	trialStart	2	78	18	foodImage.9	FOODEEG_Images\0138.jpg	NY	Left	No	1.01392269999997	0	412524	251
806.767578125	2	taste	foodImageDisplay	2	78	18	foodImage.9	FOODEEG_Images\0138.jpg	NY	Left	No	1.01392269999997	0	413066	252
808.830078125	1.01392269999997	taste	choicePhaseStart	2	78	18	foodImage.9	FOODEEG_Images\0138.jpg	NY	Left	No	1.01392269999997	0	414122	253
809.833984375	0	taste	response	2	78	18	foodImage.9	FOODEEG_Images\0138.jpg	NY	Left	No	1.01392269999997	0	414636	234
810.876953125	1	decision	trialStart	2	79	19	foodImage.102	FOODEEG_Images\0910.jpg	NY	Left	No	1.18636979999974	0	415170	251
811.916015625	2	decision	foodImageDisplay	2	79	19	foodImage.102	FOODEEG_Images\0910.jpg	NY	Left	No	1.18636979999974	0	415702	252
813.986328125	1.18636979999974	decision	choicePhaseStart	2	79	19	foodImage.102	FOODEEG_Images\0910.jpg	NY	Left	No	1.18636979999974	0	416762	253
815.162109375	0	decision	response	2	79	19	foodImage.102	FOODEEG_Images\0910.jpg	NY	Left	No	1.18636979999974	0	417364	234
816.20703125	1	taste	trialStart	2	80	20	foodImage.105	FOODEEG_Images\0913.jpg	NY	Right	Yes	1.21293999999943	0	417899	251
817.244140625	2	taste	foodImageDisplay	2	80	20	foodImage.105	FOODEEG_Images\0913.jpg	NY	Right	Yes	1.21293999999943	0	418430	252
819.306640625	1.21293999999943	taste	choicePhaseStart	2	80	20	foodImage.105	FOODEEG_Images\0913.jpg	NY	Right	Yes	1.21293999999943	0	419486	253
820.513671875	0	taste	response	2	80	20	foodImage.105	FOODEEG_Images\0913.jpg	NY	Right	Yes	1.21293999999943	0	420104	235
821.556640625	1	decision	trialStart	2	81	21	foodImage.22	FOODEEG_Images\0236.jpg	YN	Left	Yes	0.787845999999263	0	420638	251
822.599609375	2	decision	foodImageDisplay	2	81	21	foodImage.22	FOODEEG_Images\0236.jpg	YN	Left	Yes	0.787845999999263	0	421172	252
824.6640625	0.787845999999263	decision	choicePhaseStart	2	81	21	foodImage.22	FOODEEG_Images\0236.jpg	YN	Left	Yes	0.787845999999263	0	422229	253
825.44140625	0	decision	response	2	81	21	foodImage.22	FOODEEG_Images\0236.jpg	YN	Left	Yes	0.787845999999263	0	422627	234
826.484375	1	taste	trialStart	2	82	22	foodImage.51	FOODEEG_Images\0536.jpg	NY	Right	Yes	1.06222829999933	0	423161	251
827.533203125	2	taste	foodImageDisplay	2	82	22	foodImage.51	FOODEEG_Images\0536.jpg	NY	Right	Yes	1.06222829999933	0	423698	252
829.59765625	1.06222829999933	taste	choicePhaseStart	2	82	22	foodImage.51	FOODEEG_Images\0536.jpg	NY	Right	Yes	1.06222829999933	0	424755	253
830.650390625	0	taste	response	2	82	22	foodImage.51	FOODEEG_Images\0536.jpg	NY	Right	Yes	1.06222829999933	0	425294	235
831.693359375	1	decision	trialStart	2	83	23	foodImage.34	FOODEEG_Images\0339.jpg	YN	Left	Yes	0.738751900000352	0	425828	251
832.751953125	2	decision	foodImageDisplay	2	83	23	foodImage.34	FOODEEG_Images\0339.jpg	YN	Left	Yes	0.738751900000352	0	426370	252
834.81640625	0.738751900000352	decision	choicePhaseStart	2	83	23	foodImage.34	FOODEEG_Images\0339.jpg	YN	Left	Yes	0.738751900000352	0	427427	253
835.544921875	0	decision	response	2	83	23	foodImage.34	FOODEEG_Images\0339.jpg	YN	Left	Yes	0.738751900000352	0	427800	234
836.58984375	1	health	trialStart	2	84	24	foodImage.109	FOODEEG_Images\0917.jpg	NY	Left	No	1.32575980000001	0	428335	251
837.62890625	2	health	foodImageDisplay	2	84	24	foodImage.109	FOODEEG_Images\0917.jpg	NY	Left	No	1.32575980000001	0	428867	252
839.693359375	1.32575980000001	health	choicePhaseStart	2	84	24	foodImage.109	FOODEEG_Images\0917.jpg	NY	Left	No	1.32575980000001	0	429924	253
841.009765625	0	health	response	2	84	24	foodImage.109	FOODEEG_Images\0917.jpg	NY	Left	No	1.32575980000001	0	430598	234
842.052734375	1	decision	trialStart	2	85	25	foodImage.1	FOODEEG_Images\0004.jpg	NY	Right	Yes	0.780495799999699	0	431132	251
843.09375	2	decision	foodImageDisplay	2	85	25	foodImage.1	FOODEEG_Images\0004.jpg	NY	Right	Yes	0.780495799999699	0	431665	252
845.158203125	0.780495799999699	decision	choicePhaseStart	2	85	25	foodImage.1	FOODEEG_Images\0004.jpg	NY	Right	Yes	0.780495799999699	0	432722	253
845.9296875	0	decision	response	2	85	25	foodImage.1	FOODEEG_Images\0004.jpg	NY	Right	Yes	0.780495799999699	0	433117	235
846.97265625	1	taste	trialStart	2	86	26	foodImage.96	FOODEEG_Images\0904.jpg	NY	Left	No	1.2184543000003	0	433651	251
848.01171875	2	taste	foodImageDisplay	2	86	26	foodImage.96	FOODEEG_Images\0904.jpg	NY	Left	No	1.2184543000003	0	434183	252
850.080078125	1.2184543000003	taste	choicePhaseStart	2	86	26	foodImage.96	FOODEEG_Images\0904.jpg	NY	Left	No	1.2184543000003	0	435242	253
851.2890625	0	taste	response	2	86	26	foodImage.96	FOODEEG_Images\0904.jpg	NY	Left	No	1.2184543000003	0	435861	234
852.33203125	1	health	trialStart	2	87	27	foodImage.86	FOODEEG_Images\0844.jpg	NY	Left	No	1.0180134000002	0	436395	251
853.400390625	2	health	foodImageDisplay	2	87	27	foodImage.86	FOODEEG_Images\0844.jpg	NY	Left	No	1.0180134000002	0	436942	252
855.470703125	1.0180134000002	health	choicePhaseStart	2	87	27	foodImage.86	FOODEEG_Images\0844.jpg	NY	Left	No	1.0180134000002	0	438002	253
856.48046875	0	health	response	2	87	27	foodImage.86	FOODEEG_Images\0844.jpg	NY	Left	No	1.0180134000002	0	438519	234
857.5234375	1	taste	trialStart	2	88	28	foodImage.44	FOODEEG_Images\0459.jpg	YN	Left	Yes	1.85522870000023	0	439053	251
858.5703125	2	taste	foodImageDisplay	2	88	28	foodImage.44	FOODEEG_Images\0459.jpg	YN	Left	Yes	1.85522870000023	0	439589	252
860.6328125	1.85522870000023	taste	choicePhaseStart	2	88	28	foodImage.44	FOODEEG_Images\0459.jpg	YN	Left	Yes	1.85522870000023	0	440645	253
862.48046875	0	taste	response	2	88	28	foodImage.44	FOODEEG_Images\0459.jpg	YN	Left	Yes	1.85522870000023	0	441591	234
863.5234375	1	taste	trialStart	2	89	29	foodImage.75	FOODEEG_Images\0763.jpg	NY	Right	Yes	0.692340699999477	0	442125	251
864.56640625	2	taste	foodImageDisplay	2	89	29	foodImage.75	FOODEEG_Images\0763.jpg	NY	Right	Yes	0.692340699999477	0	442659	252
866.62890625	0.692340699999477	taste	choicePhaseStart	2	89	29	foodImage.75	FOODEEG_Images\0763.jpg	NY	Right	Yes	0.692340699999477	0	443715	253
867.3125	0	taste	response	2	89	29	foodImage.75	FOODEEG_Images\0763.jpg	NY	Right	Yes	0.692340699999477	0	444065	235
868.35546875	1	health	trialStart	2	90	30	foodImage.8	FOODEEG_Images\0136.jpg	YN	Right	No	0.882991899999979	0	444599	251
869.3984375	2	health	foodImageDisplay	2	90	30	foodImage.8	FOODEEG_Images\0136.jpg	YN	Right	No	0.882991899999979	0	445133	252
871.462890625	0.882991899999979	health	choicePhaseStart	2	90	30	foodImage.8	FOODEEG_Images\0136.jpg	YN	Right	No	0.882991899999979	0	446190	253
872.3359375	0	health	response	2	90	30	foodImage.8	FOODEEG_Images\0136.jpg	YN	Right	No	0.882991899999979	0	446637	235
873.37890625	1	decision	trialStart	2	91	31	foodImage.98	FOODEEG_Images\0906.jpg	NY	Left	No	1.11130419999972	0	447171	251
874.41796875	2	decision	foodImageDisplay	2	91	31	foodImage.98	FOODEEG_Images\0906.jpg	NY	Left	No	1.11130419999972	0	447703	252
876.482421875	1.11130419999972	decision	choicePhaseStart	2	91	31	foodImage.98	FOODEEG_Images\0906.jpg	NY	Left	No	1.11130419999972	0	448760	253
877.583984375	0	decision	response	2	91	31	foodImage.98	FOODEEG_Images\0906.jpg	NY	Left	No	1.11130419999972	0	449324	234
878.626953125	1	health	trialStart	2	92	32	foodImage.23	FOODEEG_Images\0244.jpg	NY	Left	No	1.16459699999905	0	449858	251
879.66796875	2	health	foodImageDisplay	2	92	32	foodImage.23	FOODEEG_Images\0244.jpg	NY	Left	No	1.16459699999905	0	450391	252
881.732421875	1.16459699999905	health	choicePhaseStart	2	92	32	foodImage.23	FOODEEG_Images\0244.jpg	NY	Left	No	1.16459699999905	0	451448	253
882.888671875	0	health	response	2	92	32	foodImage.23	FOODEEG_Images\0244.jpg	NY	Left	No	1.16459699999905	0	452040	234
883.931640625	1	health	trialStart	2	93	33	foodImage.56	FOODEEG_Images\0586.jpg	YN	Right	No	0.890209899998808	0	452574	251
884.974609375	2	health	foodImageDisplay	2	93	33	foodImage.56	FOODEEG_Images\0586.jpg	YN	Right	No	0.890209899998808	0	453108	252
887.0390625	0.890209899998808	health	choicePhaseStart	2	93	33	foodImage.56	FOODEEG_Images\0586.jpg	YN	Right	No	0.890209899998808	0	454165	253
887.919921875	0	health	response	2	93	33	foodImage.56	FOODEEG_Images\0586.jpg	YN	Right	No	0.890209899998808	0	454616	235
888.962890625	1	health	trialStart	2	94	34	foodImage.47	FOODEEG_Images\0488.jpg	YN	Right	No	1.14807269999983	0	455150	251
890.00390625	2	health	foodImageDisplay	2	94	34	foodImage.47	FOODEEG_Images\0488.jpg	YN	Right	No	1.14807269999983	0	455683	252
892.068359375	1.14807269999983	health	choicePhaseStart	2	94	34	foodImage.47	FOODEEG_Images\0488.jpg	YN	Right	No	1.14807269999983	0	456740	253
893.20703125	0	health	response	2	94	34	foodImage.47	FOODEEG_Images\0488.jpg	YN	Right	No	1.14807269999983	0	457323	235
894.25	1	decision	trialStart	2	95	35	foodImage.30	FOODEEG_Images\0282.jpg	NY	Right	Yes	1.09210740000162	0	457857	251
895.294921875	2	decision	foodImageDisplay	2	95	35	foodImage.30	FOODEEG_Images\0282.jpg	NY	Right	Yes	1.09210740000162	0	458392	252
897.357421875	1.09210740000162	decision	choicePhaseStart	2	95	35	foodImage.30	FOODEEG_Images\0282.jpg	NY	Right	Yes	1.09210740000162	0	459448	253
898.439453125	0	decision	response	2	95	35	foodImage.30	FOODEEG_Images\0282.jpg	NY	Right	Yes	1.09210740000162	0	460002	235
899.482421875	1	taste	trialStart	2	96	36	foodImage.67	FOODEEG_Images\0679.jpg	YN	Left	Yes	1.0686141999995	0	460536	251
900.541015625	2	taste	foodImageDisplay	2	96	36	foodImage.67	FOODEEG_Images\0679.jpg	YN	Left	Yes	1.0686141999995	0	461078	252
902.603515625	1.0686141999995	taste	choicePhaseStart	2	96	36	foodImage.67	FOODEEG_Images\0679.jpg	YN	Left	Yes	1.0686141999995	0	462134	253
903.6640625	0	taste	response	2	96	36	foodImage.67	FOODEEG_Images\0679.jpg	YN	Left	Yes	1.0686141999995	0	462677	234
904.70703125	1	health	trialStart	2	97	37	foodImage.83	FOODEEG_Images\0827.jpg	YN	Left	Yes	0.595916899999793	0	463211	251
905.763671875	2	health	foodImageDisplay	2	97	37	foodImage.83	FOODEEG_Images\0827.jpg	YN	Left	Yes	0.595916899999793	0	463752	252
907.828125	0.595916899999793	health	choicePhaseStart	2	97	37	foodImage.83	FOODEEG_Images\0827.jpg	YN	Left	Yes	0.595916899999793	0	464809	253
908.4140625	0	health	response	2	97	37	foodImage.83	FOODEEG_Images\0827.jpg	YN	Left	Yes	0.595916899999793	0	465109	234
909.45703125	1	decision	trialStart	2	98	38	foodImage.31	FOODEEG_Images\0294.jpg	NY	Left	No	1.02617760000066	0	465643	251
910.501953125	2	decision	foodImageDisplay	2	98	38	foodImage.31	FOODEEG_Images\0294.jpg	NY	Left	No	1.02617760000066	0	466178	252
912.56640625	1.02617760000066	decision	choicePhaseStart	2	98	38	foodImage.31	FOODEEG_Images\0294.jpg	NY	Left	No	1.02617760000066	0	467235	253
913.58203125	0	decision	response	2	98	38	foodImage.31	FOODEEG_Images\0294.jpg	NY	Left	No	1.02617760000066	0	467755	234
914.625	1	health	trialStart	2	99	39	foodImage.93	FOODEEG_Images\0901.jpg	YN	Right	No	1.08126609999999	0	468289	251
915.662109375	2	health	foodImageDisplay	2	99	39	foodImage.93	FOODEEG_Images\0901.jpg	YN	Right	No	1.08126609999999	0	468820	252
917.7265625	1.08126609999999	health	choicePhaseStart	2	99	39	foodImage.93	FOODEEG_Images\0901.jpg	YN	Right	No	1.08126609999999	0	469877	253
918.798828125	0	health	response	2	99	39	foodImage.93	FOODEEG_Images\0901.jpg	YN	Right	No	1.08126609999999	0	470426	235
919.841796875	1	health	trialStart	2	100	40	foodImage.91	FOODEEG_Images\0896.jpg	YN	Right	No	0.986626500000057	0	470960	251
920.8984375	2	health	foodImageDisplay	2	100	40	foodImage.91	FOODEEG_Images\0896.jpg	YN	Right	No	0.986626500000057	0	471501	252
922.962890625	0.986626500000057	health	choicePhaseStart	2	100	40	foodImage.91	FOODEEG_Images\0896.jpg	YN	Right	No	0.986626500000057	0	472558	253
923.943359375	0	health	response	2	100	40	foodImage.91	FOODEEG_Images\0896.jpg	YN	Right	No	0.986626500000057	0	473060	235
924.994140625	1	health	trialStart	2	101	41	foodImage.59	FOODEEG_Images\0607.jpg	YN	Right	No	1.15062810000018	0	473598	251
926.041015625	2	health	foodImageDisplay	2	101	41	foodImage.59	FOODEEG_Images\0607.jpg	YN	Right	No	1.15062810000018	0	474134	252
928.103515625	1.15062810000018	health	choicePhaseStart	2	101	41	foodImage.59	FOODEEG_Images\0607.jpg	YN	Right	No	1.15062810000018	0	475190	253
929.24609375	0	health	response	2	101	41	foodImage.59	FOODEEG_Images\0607.jpg	YN	Right	No	1.15062810000018	0	475775	235
930.2890625	1	health	trialStart	2	102	42	foodImage.5	FOODEEG_Images\0107.jpg	NY	Right	Yes	0.788979299999482	0	476309	251
931.345703125	2	health	foodImageDisplay	2	102	42	foodImage.5	FOODEEG_Images\0107.jpg	NY	Right	Yes	0.788979299999482	0	476850	252
933.41015625	0.788979299999482	health	choicePhaseStart	2	102	42	foodImage.5	FOODEEG_Images\0107.jpg	NY	Right	Yes	0.788979299999482	0	477907	253
934.189453125	0	health	response	2	102	42	foodImage.5	FOODEEG_Images\0107.jpg	NY	Right	Yes	0.788979299999482	0	478306	235
935.232421875	1	decision	trialStart	2	103	43	foodImage.119	FOODEEG_Images\0927.jpg	NY	Left	No	0.870956499999011	0	478840	251
936.271484375	2	decision	foodImageDisplay	2	103	43	foodImage.119	FOODEEG_Images\0927.jpg	NY	Left	No	0.870956499999011	0	479372	252
938.3359375	0.870956499999011	decision	choicePhaseStart	2	103	43	foodImage.119	FOODEEG_Images\0927.jpg	NY	Left	No	0.870956499999011	0	480429	253
939.197265625	0	decision	response	2	103	43	foodImage.119	FOODEEG_Images\0927.jpg	NY	Left	No	0.870956499999011	0	480870	234
940.240234375	1	decision	trialStart	2	104	44	foodImage.24	FOODEEG_Images\0250.jpg	NY	Right	Yes	0.882929400000648	0	481404	251
941.283203125	2	decision	foodImageDisplay	2	104	44	foodImage.24	FOODEEG_Images\0250.jpg	NY	Right	Yes	0.882929400000648	0	481938	252
943.34765625	0.882929400000648	decision	choicePhaseStart	2	104	44	foodImage.24	FOODEEG_Images\0250.jpg	NY	Right	Yes	0.882929400000648	0	482995	253
944.220703125	0	decision	response	2	104	44	foodImage.24	FOODEEG_Images\0250.jpg	NY	Right	Yes	0.882929400000648	0	483442	235
945.265625	1	decision	trialStart	2	105	45	foodImage.82	FOODEEG_Images\0805.jpg	YN	Left	Yes	0.677652599999419	0	483977	251
946.337890625	2	decision	foodImageDisplay	2	105	45	foodImage.82	FOODEEG_Images\0805.jpg	YN	Left	Yes	0.677652599999419	0	484526	252
948.40234375	0.677652599999419	decision	choicePhaseStart	2	105	45	foodImage.82	FOODEEG_Images\0805.jpg	YN	Left	Yes	0.677652599999419	0	485583	253
949.0703125	0	decision	response	2	105	45	foodImage.82	FOODEEG_Images\0805.jpg	YN	Left	Yes	0.677652599999419	0	485925	234
950.11328125	1	health	trialStart	2	106	46	foodImage.97	FOODEEG_Images\0905.jpg	NY	Left	No	0.582188700000188	0	486459	251
951.15234375	2	health	foodImageDisplay	2	106	46	foodImage.97	FOODEEG_Images\0905.jpg	NY	Left	No	0.582188700000188	0	486991	252
953.216796875	0.582188700000188	health	choicePhaseStart	2	106	46	foodImage.97	FOODEEG_Images\0905.jpg	NY	Left	No	0.582188700000188	0	488048	253
953.7890625	0	health	response	2	106	46	foodImage.97	FOODEEG_Images\0905.jpg	NY	Left	No	0.582188700000188	0	488341	234
954.83203125	1	health	trialStart	2	107	47	foodImage.54	FOODEEG_Images\0560.jpg	YN	Right	No	1.07721120000133	0	488875	251
955.890625	2	health	foodImageDisplay	2	107	47	foodImage.54	FOODEEG_Images\0560.jpg	YN	Right	No	1.07721120000133	0	489417	252
957.953125	1.07721120000133	health	choicePhaseStart	2	107	47	foodImage.54	FOODEEG_Images\0560.jpg	YN	Right	No	1.07721120000133	0	490473	253
959.021484375	0	health	response	2	107	47	foodImage.54	FOODEEG_Images\0560.jpg	YN	Right	No	1.07721120000133	0	491020	235
960.064453125	1	decision	trialStart	2	108	48	foodImage.92	FOODEEG_Images\0900.jpg	YN	Right	No	1.45541100000082	0	491554	251
961.103515625	2	decision	foodImageDisplay	2	108	48	foodImage.92	FOODEEG_Images\0900.jpg	YN	Right	No	1.45541100000082	0	492086	252
963.166015625	1.45541100000082	decision	choicePhaseStart	2	108	48	foodImage.92	FOODEEG_Images\0900.jpg	YN	Right	No	1.45541100000082	0	493142	253
964.61328125	0	decision	response	2	108	48	foodImage.92	FOODEEG_Images\0900.jpg	YN	Right	No	1.45541100000082	0	493883	235
965.654296875	1	health	trialStart	2	109	49	foodImage.98	FOODEEG_Images\0906.jpg	NY	Right	Yes	1.9139567000002	0	494416	251
966.69140625	2	health	foodImageDisplay	2	109	49	foodImage.98	FOODEEG_Images\0906.jpg	NY	Right	Yes	1.9139567000002	0	494947	252
968.755859375	1.9139567000002	health	choicePhaseStart	2	109	49	foodImage.98	FOODEEG_Images\0906.jpg	NY	Right	Yes	1.9139567000002	0	496004	253
970.66015625	0	health	response	2	109	49	foodImage.98	FOODEEG_Images\0906.jpg	NY	Right	Yes	1.9139567000002	0	496979	235
971.703125	1	health	trialStart	2	110	50	foodImage.120	FOODEEG_Images\0928.jpg	NY	Left	No	0.84998909999922	0	497513	251
972.7421875	2	health	foodImageDisplay	2	110	50	foodImage.120	FOODEEG_Images\0928.jpg	NY	Left	No	0.84998909999922	0	498045	252
974.81640625	0.84998909999922	health	choicePhaseStart	2	110	50	foodImage.120	FOODEEG_Images\0928.jpg	NY	Left	No	0.84998909999922	0	499107	253
975.66015625	0	health	response	2	110	50	foodImage.120	FOODEEG_Images\0928.jpg	NY	Left	No	0.84998909999922	0	499539	234
976.701171875	1	taste	trialStart	2	111	51	foodImage.5	FOODEEG_Images\0107.jpg	YN	Left	Yes	1.02955409999959	0	500072	251
977.759765625	2	taste	foodImageDisplay	2	111	51	foodImage.5	FOODEEG_Images\0107.jpg	YN	Left	Yes	1.02955409999959	0	500614	252
979.82421875	1.02955409999959	taste	choicePhaseStart	2	111	51	foodImage.5	FOODEEG_Images\0107.jpg	YN	Left	Yes	1.02955409999959	0	501671	253
980.84375	0	taste	response	2	111	51	foodImage.5	FOODEEG_Images\0107.jpg	YN	Left	Yes	1.02955409999959	0	502193	234
981.88671875	1	health	trialStart	2	112	52	foodImage.44	FOODEEG_Images\0459.jpg	YN	Left	Yes	0.726808600000368	0	502727	251
982.93359375	2	health	foodImageDisplay	2	112	52	foodImage.44	FOODEEG_Images\0459.jpg	YN	Left	Yes	0.726808600000368	0	503263	252
984.998046875	0.726808600000368	health	choicePhaseStart	2	112	52	foodImage.44	FOODEEG_Images\0459.jpg	YN	Left	Yes	0.726808600000368	0	504320	253
985.716796875	0	health	response	2	112	52	foodImage.44	FOODEEG_Images\0459.jpg	YN	Left	Yes	0.726808600000368	0	504688	234
986.7578125	1	taste	trialStart	2	113	53	foodImage.79	FOODEEG_Images\0794.jpg	NY	Right	Yes	1.33143489999929	0	505221	251
987.802734375	2	taste	foodImageDisplay	2	113	53	foodImage.79	FOODEEG_Images\0794.jpg	NY	Right	Yes	1.33143489999929	0	505756	252
989.865234375	1.33143489999929	taste	choicePhaseStart	2	113	53	foodImage.79	FOODEEG_Images\0794.jpg	NY	Right	Yes	1.33143489999929	0	506812	253
991.1875	0	taste	response	2	113	53	foodImage.79	FOODEEG_Images\0794.jpg	NY	Right	Yes	1.33143489999929	0	507489	235
992.23046875	1	decision	trialStart	2	114	54	foodImage.112	FOODEEG_Images\0920.jpg	YN	Right	No	1.03923080000095	0	508023	251
993.26953125	2	decision	foodImageDisplay	2	114	54	foodImage.112	FOODEEG_Images\0920.jpg	YN	Right	No	1.03923080000095	0	508555	252
995.333984375	1.03923080000095	decision	choicePhaseStart	2	114	54	foodImage.112	FOODEEG_Images\0920.jpg	YN	Right	No	1.03923080000095	0	509612	253
996.36328125	0	decision	response	2	114	54	foodImage.112	FOODEEG_Images\0920.jpg	YN	Right	No	1.03923080000095	0	510139	235
997.41015625	1	decision	trialStart	2	115	55	foodImage.7	FOODEEG_Images\0116.jpg	NY	Right	Yes	0.842153199999302	0	510675	251
998.466796875	2	decision	foodImageDisplay	2	115	55	foodImage.7	FOODEEG_Images\0116.jpg	NY	Right	Yes	0.842153199999302	0	511216	252
1000.53125	0.842153199999302	decision	choicePhaseStart	2	115	55	foodImage.7	FOODEEG_Images\0116.jpg	NY	Right	Yes	0.842153199999302	0	512273	253
1001.36328125	0	decision	response	2	115	55	foodImage.7	FOODEEG_Images\0116.jpg	NY	Right	Yes	0.842153199999302	0	512699	235
1002.40625	1	decision	trialStart	2	116	56	foodImage.20	FOODEEG_Images\0226.jpg	YN	Right	No	2.4435168	0	513233	251
1003.447265625	2	decision	foodImageDisplay	2	116	56	foodImage.20	FOODEEG_Images\0226.jpg	YN	Right	No	2.4435168	0	513766	252
1005.51171875	2.4435168	decision	choicePhaseStart	2	116	56	foodImage.20	FOODEEG_Images\0226.jpg	YN	Right	No	2.4435168	0	514823	253
1007.947265625	0	decision	response	2	116	56	foodImage.20	FOODEEG_Images\0226.jpg	YN	Right	No	2.4435168	0	516070	235
1008.990234375	1	health	trialStart	2	117	57	foodImage.58	FOODEEG_Images\0605.jpg	YN	Left	Yes	0.780145200000334	0	516604	251
1010.048828125	2	health	foodImageDisplay	2	117	57	foodImage.58	FOODEEG_Images\0605.jpg	YN	Left	Yes	0.780145200000334	0	517146	252
1012.111328125	0.780145200000334	health	choicePhaseStart	2	117	57	foodImage.58	FOODEEG_Images\0605.jpg	YN	Left	Yes	0.780145200000334	0	518202	253
1012.8828125	0	health	response	2	117	57	foodImage.58	FOODEEG_Images\0605.jpg	YN	Left	Yes	0.780145200000334	0	518597	234
1013.92578125	1	decision	trialStart	2	118	58	foodImage.74	FOODEEG_Images\0752.jpg	NY	Right	Yes	0.65948489999937	0	519131	251
1014.984375	2	decision	foodImageDisplay	2	118	58	foodImage.74	FOODEEG_Images\0752.jpg	NY	Right	Yes	0.65948489999937	0	519673	252
1017.048828125	0.65948489999937	decision	choicePhaseStart	2	118	58	foodImage.74	FOODEEG_Images\0752.jpg	NY	Right	Yes	0.65948489999937	0	520730	253
1017.69921875	0	decision	response	2	118	58	foodImage.74	FOODEEG_Images\0752.jpg	NY	Right	Yes	0.65948489999937	0	521063	235
1018.7421875	1	taste	trialStart	2	119	59	foodImage.60	FOODEEG_Images\0614.jpg	YN	Left	Yes	0.875905599999896	0	521597	251
1019.798828125	2	taste	foodImageDisplay	2	119	59	foodImage.60	FOODEEG_Images\0614.jpg	YN	Left	Yes	0.875905599999896	0	522138	252
1021.86328125	0.875905599999896	taste	choicePhaseStart	2	119	59	foodImage.60	FOODEEG_Images\0614.jpg	YN	Left	Yes	0.875905599999896	0	523195	253
1022.73046875	0	taste	response	2	119	59	foodImage.60	FOODEEG_Images\0614.jpg	YN	Left	Yes	0.875905599999896	0	523639	234
1023.7734375	1	health	trialStart	2	120	60	foodImage.29	FOODEEG_Images\0278.jpg	NY	Right	Yes	1.07347759999902	0	524173	251
1024.826171875	2	health	foodImageDisplay	2	120	60	foodImage.29	FOODEEG_Images\0278.jpg	NY	Right	Yes	1.07347759999902	0	524712	252
1026.888671875	1.07347759999902	health	choicePhaseStart	2	120	60	foodImage.29	FOODEEG_Images\0278.jpg	NY	Right	Yes	1.07347759999902	0	525768	253
1027.955078125	0	health	response	2	120	60	foodImage.29	FOODEEG_Images\0278.jpg	NY	Right	Yes	1.07347759999902	0	526314	235
1029.994140625	11.921875	n/a	blockEnd	n/a	n/a	n/a	n/a	n/a	n/a	n/a	n/a	n/a	n/a	527358	254
1041.916015625	2	n/a	blockStart	3	n/a	n/a	n/a	n/a	n/a	n/a	n/a	n/a	n/a	533462	250
1043.94921875	1	health	trialStart	3	121	1	foodImage.33	FOODEEG_Images\0329.jpg	NY	Left	No	2.11415269999998	0	534503	251
1044.9921875	2	health	foodImageDisplay	3	121	1	foodImage.33	FOODEEG_Images\0329.jpg	NY	Left	No	2.11415269999998	0	535037	252
1047.0546875	2.11415269999998	health	choicePhaseStart	3	121	1	foodImage.33	FOODEEG_Images\0329.jpg	NY	Left	No	2.11415269999998	0	536093	253
1049.162109375	0	health	response	3	121	1	foodImage.33	FOODEEG_Images\0329.jpg	NY	Left	No	2.11415269999998	0	537172	234
1050.203125	1	health	trialStart	3	122	2	foodImage.111	FOODEEG_Images\0919.jpg	YN	Right	No	1.00171299999965	0	537705	251
1051.2421875	2	health	foodImageDisplay	3	122	2	foodImage.111	FOODEEG_Images\0919.jpg	YN	Right	No	1.00171299999965	0	538237	252
1053.3125	1.00171299999965	health	choicePhaseStart	3	122	2	foodImage.111	FOODEEG_Images\0919.jpg	YN	Right	No	1.00171299999965	0	539297	253
1054.3046875	0	health	response	3	122	2	foodImage.111	FOODEEG_Images\0919.jpg	YN	Right	No	1.00171299999965	0	539805	235
1055.34765625	1	decision	trialStart	3	123	3	foodImage.44	FOODEEG_Images\0459.jpg	YN	Left	Yes	0.737264299999879	0	540339	251
1056.408203125	2	decision	foodImageDisplay	3	123	3	foodImage.44	FOODEEG_Images\0459.jpg	YN	Left	Yes	0.737264299999879	0	540882	252
1058.47265625	0.737264299999879	decision	choicePhaseStart	3	123	3	foodImage.44	FOODEEG_Images\0459.jpg	YN	Left	Yes	0.737264299999879	0	541939	253
1059.201171875	0	decision	response	3	123	3	foodImage.44	FOODEEG_Images\0459.jpg	YN	Left	Yes	0.737264299999879	0	542312	234
1060.244140625	1	taste	trialStart	3	124	4	foodImage.85	FOODEEG_Images\0841.jpg	NY	Right	Yes	0.700893200000792	0	542846	251
1061.30078125	2	taste	foodImageDisplay	3	124	4	foodImage.85	FOODEEG_Images\0841.jpg	NY	Right	Yes	0.700893200000792	0	543387	252
1063.365234375	0.700893200000792	taste	choicePhaseStart	3	124	4	foodImage.85	FOODEEG_Images\0841.jpg	NY	Right	Yes	0.700893200000792	0	544444	253
1064.056640625	0	taste	response	3	124	4	foodImage.85	FOODEEG_Images\0841.jpg	NY	Right	Yes	0.700893200000792	0	544798	235
1065.1015625	1	health	trialStart	3	125	5	foodImage.82	FOODEEG_Images\0805.jpg	YN	Right	No	0.783591600000364	0	545333	251
1066.1640625	2	health	foodImageDisplay	3	125	5	foodImage.82	FOODEEG_Images\0805.jpg	YN	Right	No	0.783591600000364	0	545877	252
1068.2265625	0.783591600000364	health	choicePhaseStart	3	125	5	foodImage.82	FOODEEG_Images\0805.jpg	YN	Right	No	0.783591600000364	0	546933	253
1069	0	health	response	3	125	5	foodImage.82	FOODEEG_Images\0805.jpg	YN	Right	No	0.783591600000364	0	547329	235
1070.044921875	1	health	trialStart	3	126	6	foodImage.84	FOODEEG_Images\0830.jpg	YN	Left	Yes	0.67258159999983	0	547864	251
1071.12109375	2	health	foodImageDisplay	3	126	6	foodImage.84	FOODEEG_Images\0830.jpg	YN	Left	Yes	0.67258159999983	0	548415	252
1073.185546875	0.67258159999983	health	choicePhaseStart	3	126	6	foodImage.84	FOODEEG_Images\0830.jpg	YN	Left	Yes	0.67258159999983	0	549472	253
1073.84765625	0	health	response	3	126	6	foodImage.84	FOODEEG_Images\0830.jpg	YN	Left	Yes	0.67258159999983	0	549811	234
1074.892578125	1	decision	trialStart	3	127	7	foodImage.15	FOODEEG_Images\0189.jpg	NY	Left	No	0.732356099999379	0	550346	251
1075.94921875	2	decision	foodImageDisplay	3	127	7	foodImage.15	FOODEEG_Images\0189.jpg	NY	Left	No	0.732356099999379	0	550887	252
1078.013671875	0.732356099999379	decision	choicePhaseStart	3	127	7	foodImage.15	FOODEEG_Images\0189.jpg	NY	Left	No	0.732356099999379	0	551944	253
1078.736328125	0	decision	response	3	127	7	foodImage.15	FOODEEG_Images\0189.jpg	NY	Left	No	0.732356099999379	0	552314	234
1079.78125	1	decision	trialStart	3	128	8	foodImage.75	FOODEEG_Images\0763.jpg	YN	Left	Yes	1.34314269999959	0	552849	251
1080.826171875	2	decision	foodImageDisplay	3	128	8	foodImage.75	FOODEEG_Images\0763.jpg	YN	Left	Yes	1.34314269999959	0	553384	252
1082.890625	1.34314269999959	decision	choicePhaseStart	3	128	8	foodImage.75	FOODEEG_Images\0763.jpg	YN	Left	Yes	1.34314269999959	0	554441	253
1084.224609375	0	decision	response	3	128	8	foodImage.75	FOODEEG_Images\0763.jpg	YN	Left	Yes	1.34314269999959	0	555124	234
1085.265625	1	health	trialStart	3	129	9	foodImage.17	FOODEEG_Images\0199.jpg	YN	Left	Yes	0.639312100000097	0	555657	251
1086.306640625	2	health	foodImageDisplay	3	129	9	foodImage.17	FOODEEG_Images\0199.jpg	YN	Left	Yes	0.639312100000097	0	556190	252
1088.369140625	0.639312100000097	health	choicePhaseStart	3	129	9	foodImage.17	FOODEEG_Images\0199.jpg	YN	Left	Yes	0.639312100000097	0	557246	253
1089	0	health	response	3	129	9	foodImage.17	FOODEEG_Images\0199.jpg	YN	Left	Yes	0.639312100000097	0	557569	234
1090.041015625	1	decision	trialStart	3	130	10	foodImage.110	FOODEEG_Images\0918.jpg	NY	Left	No	0.985800500000551	0	558102	251
1091.080078125	2	decision	foodImageDisplay	3	130	10	foodImage.110	FOODEEG_Images\0918.jpg	NY	Left	No	0.985800500000551	0	558634	252
1093.142578125	0.985800500000551	decision	choicePhaseStart	3	130	10	foodImage.110	FOODEEG_Images\0918.jpg	NY	Left	No	0.985800500000551	0	559690	253
1094.119140625	0	decision	response	3	130	10	foodImage.110	FOODEEG_Images\0918.jpg	NY	Left	No	0.985800500000551	0	560190	234
1095.162109375	1	decision	trialStart	3	131	11	foodImage.94	FOODEEG_Images\0902.jpg	YN	Right	No	0.63133469999957	0	560724	251
1096.201171875	2	decision	foodImageDisplay	3	131	11	foodImage.94	FOODEEG_Images\0902.jpg	YN	Right	No	0.63133469999957	0	561256	252
1098.265625	0.63133469999957	decision	choicePhaseStart	3	131	11	foodImage.94	FOODEEG_Images\0902.jpg	YN	Right	No	0.63133469999957	0	562313	253
1098.88671875	0	decision	response	3	131	11	foodImage.94	FOODEEG_Images\0902.jpg	YN	Right	No	0.63133469999957	0	562631	235
1099.9296875	1	health	trialStart	3	132	12	foodImage.27	FOODEEG_Images\0263.jpg	YN	Left	Yes	1.14080419999846	0	563165	251
1100.97265625	2	health	foodImageDisplay	3	132	12	foodImage.27	FOODEEG_Images\0263.jpg	YN	Left	Yes	1.14080419999846	0	563699	252
1103.03515625	1.14080419999846	health	choicePhaseStart	3	132	12	foodImage.27	FOODEEG_Images\0263.jpg	YN	Left	Yes	1.14080419999846	0	564755	253
1104.16796875	0	health	response	3	132	12	foodImage.27	FOODEEG_Images\0263.jpg	YN	Left	Yes	1.14080419999846	0	565335	234
1105.2109375	1	health	trialStart	3	133	13	foodImage.119	FOODEEG_Images\0927.jpg	NY	Left	No	0.696234899998672	0	565869	251
1106.248046875	2	health	foodImageDisplay	3	133	13	foodImage.119	FOODEEG_Images\0927.jpg	NY	Left	No	0.696234899998672	0	566400	252
1108.3125	0.696234899998672	health	choicePhaseStart	3	133	13	foodImage.119	FOODEEG_Images\0927.jpg	NY	Left	No	0.696234899998672	0	567457	253
1109	0	health	response	3	133	13	foodImage.119	FOODEEG_Images\0927.jpg	NY	Left	No	0.696234899998672	0	567809	234
1110.041015625	1	health	trialStart	3	134	14	foodImage.69	FOODEEG_Images\0693.jpg	YN	Left	Yes	2.78483339999912	0	568342	251
1111.095703125	2	health	foodImageDisplay	3	134	14	foodImage.69	FOODEEG_Images\0693.jpg	YN	Left	Yes	2.78483339999912	0	568882	252
1113.158203125	2.78483339999912	health	choicePhaseStart	3	134	14	foodImage.69	FOODEEG_Images\0693.jpg	YN	Left	Yes	2.78483339999912	0	569938	253
1115.935546875	0	health	response	3	134	14	foodImage.69	FOODEEG_Images\0693.jpg	YN	Left	Yes	2.78483339999912	0	571360	234
1116.9765625	1	taste	trialStart	3	135	15	foodImage.72	FOODEEG_Images\0714.jpg	YN	Right	No	0.806967399999849	0	571893	251
1118.025390625	2	taste	foodImageDisplay	3	135	15	foodImage.72	FOODEEG_Images\0714.jpg	YN	Right	No	0.806967399999849	0	572430	252
1120.087890625	0.806967399999849	taste	choicePhaseStart	3	135	15	foodImage.72	FOODEEG_Images\0714.jpg	YN	Right	No	0.806967399999849	0	573486	253
1120.88671875	0	taste	response	3	135	15	foodImage.72	FOODEEG_Images\0714.jpg	YN	Right	No	0.806967399999849	0	573895	235
1121.931640625	1	decision	trialStart	3	136	16	foodImage.50	FOODEEG_Images\0529.jpg	YN	Left	Yes	3.17911280000044	0	574430	251
1122.98828125	2	decision	foodImageDisplay	3	136	16	foodImage.50	FOODEEG_Images\0529.jpg	YN	Left	Yes	3.17911280000044	0	574971	252
1125.052734375	3.17911280000044	decision	choicePhaseStart	3	136	16	foodImage.50	FOODEEG_Images\0529.jpg	YN	Left	Yes	3.17911280000044	0	576028	253
1128.22265625	0	decision	response	3	136	16	foodImage.50	FOODEEG_Images\0529.jpg	YN	Left	Yes	3.17911280000044	0	577651	234
1129.263671875	1	decision	trialStart	3	137	17	foodImage.59	FOODEEG_Images\0607.jpg	YN	Left	Yes	1.60944810000001	0	578184	251
1130.310546875	2	decision	foodImageDisplay	3	137	17	foodImage.59	FOODEEG_Images\0607.jpg	YN	Left	Yes	1.60944810000001	0	578720	252
1132.375	1.60944810000001	decision	choicePhaseStart	3	137	17	foodImage.59	FOODEEG_Images\0607.jpg	YN	Left	Yes	1.60944810000001	0	579777	253
1133.974609375	0	decision	response	3	137	17	foodImage.59	FOODEEG_Images\0607.jpg	YN	Left	Yes	1.60944810000001	0	580596	234
1135.015625	1	taste	trialStart	3	138	18	foodImage.34	FOODEEG_Images\0339.jpg	YN	Left	Yes	2.94936760000019	0	581129	251
1136.07421875	2	taste	foodImageDisplay	3	138	18	foodImage.34	FOODEEG_Images\0339.jpg	YN	Left	Yes	2.94936760000019	0	581671	252
1138.138671875	2.94936760000019	taste	choicePhaseStart	3	138	18	foodImage.34	FOODEEG_Images\0339.jpg	YN	Left	Yes	2.94936760000019	0	582728	253
1141.078125	0	taste	response	3	138	18	foodImage.34	FOODEEG_Images\0339.jpg	YN	Left	Yes	2.94936760000019	0	584233	234
1142.119140625	1	health	trialStart	3	139	19	foodImage.107	FOODEEG_Images\0915.jpg	YN	Left	Yes	1.22426650000125	0	584766	251
1143.158203125	2	health	foodImageDisplay	3	139	19	foodImage.107	FOODEEG_Images\0915.jpg	YN	Left	Yes	1.22426650000125	0	585298	252
1145.22265625	1.22426650000125	health	choicePhaseStart	3	139	19	foodImage.107	FOODEEG_Images\0915.jpg	YN	Left	Yes	1.22426650000125	0	586355	253
1146.4375	0	health	response	3	139	19	foodImage.107	FOODEEG_Images\0915.jpg	YN	Left	Yes	1.22426650000125	0	586977	234
1147.482421875	1	taste	trialStart	3	140	20	foodImage.65	FOODEEG_Images\0658.jpg	NY	Left	No	0.87074229999962	0	587512	251
1148.525390625	2	taste	foodImageDisplay	3	140	20	foodImage.65	FOODEEG_Images\0658.jpg	NY	Left	No	0.87074229999962	0	588046	252
1150.587890625	0.87074229999962	taste	choicePhaseStart	3	140	20	foodImage.65	FOODEEG_Images\0658.jpg	NY	Left	No	0.87074229999962	0	589102	253
1151.453125	0	taste	response	3	140	20	foodImage.65	FOODEEG_Images\0658.jpg	NY	Left	No	0.87074229999962	0	589545	234
1152.49609375	1	health	trialStart	3	141	21	foodImage.53	FOODEEG_Images\0547.jpg	YN	Right	No	0.762159199999587	0	590079	251
1153.5546875	2	health	foodImageDisplay	3	141	21	foodImage.53	FOODEEG_Images\0547.jpg	YN	Right	No	0.762159199999587	0	590621	252
1155.62109375	0.762159199999587	health	choicePhaseStart	3	141	21	foodImage.53	FOODEEG_Images\0547.jpg	YN	Right	No	0.762159199999587	0	591679	253
1156.373046875	0	health	response	3	141	21	foodImage.53	FOODEEG_Images\0547.jpg	YN	Right	No	0.762159199999587	0	592064	235
1157.41796875	1	taste	trialStart	3	142	22	foodImage.106	FOODEEG_Images\0914.jpg	NY	Right	Yes	0.805977399999392	0	592599	251
1158.45703125	2	taste	foodImageDisplay	3	142	22	foodImage.106	FOODEEG_Images\0914.jpg	NY	Right	Yes	0.805977399999392	0	593131	252
1160.51953125	0.805977399999392	taste	choicePhaseStart	3	142	22	foodImage.106	FOODEEG_Images\0914.jpg	NY	Right	Yes	0.805977399999392	0	594187	253
1161.31640625	0	taste	response	3	142	22	foodImage.106	FOODEEG_Images\0914.jpg	NY	Right	Yes	0.805977399999392	0	594595	235
1162.359375	1	taste	trialStart	3	143	23	foodImage.6	FOODEEG_Images\0113.jpg	NY	Left	No	0.977943300000334	0	595129	251
1163.40234375	2	taste	foodImageDisplay	3	143	23	foodImage.6	FOODEEG_Images\0113.jpg	NY	Left	No	0.977943300000334	0	595663	252
1165.46875	0.977943300000334	taste	choicePhaseStart	3	143	23	foodImage.6	FOODEEG_Images\0113.jpg	NY	Left	No	0.977943300000334	0	596721	253
1166.4375	0	taste	response	3	143	23	foodImage.6	FOODEEG_Images\0113.jpg	NY	Left	No	0.977943300000334	0	597217	234
1167.48046875	1	decision	trialStart	3	144	24	foodImage.63	FOODEEG_Images\0645.jpg	YN	Left	Yes	0.962654700000712	0	597751	251
1168.5234375	2	decision	foodImageDisplay	3	144	24	foodImage.63	FOODEEG_Images\0645.jpg	YN	Left	Yes	0.962654700000712	0	598285	252
1170.587890625	0.962654700000712	decision	choicePhaseStart	3	144	24	foodImage.63	FOODEEG_Images\0645.jpg	YN	Left	Yes	0.962654700000712	0	599342	253
1171.541015625	0	decision	response	3	144	24	foodImage.63	FOODEEG_Images\0645.jpg	YN	Left	Yes	0.962654700000712	0	599830	234
1172.583984375	1	taste	trialStart	3	145	25	foodImage.24	FOODEEG_Images\0250.jpg	NY	Right	Yes	0.739301999999952	0	600364	251
1173.626953125	2	taste	foodImageDisplay	3	145	25	foodImage.24	FOODEEG_Images\0250.jpg	NY	Right	Yes	0.739301999999952	0	600898	252
1175.69140625	0.739301999999952	taste	choicePhaseStart	3	145	25	foodImage.24	FOODEEG_Images\0250.jpg	NY	Right	Yes	0.739301999999952	0	601955	253
1176.419921875	0	taste	response	3	145	25	foodImage.24	FOODEEG_Images\0250.jpg	NY	Right	Yes	0.739301999999952	0	602328	235
1177.46484375	1	health	trialStart	3	146	26	foodImage.112	FOODEEG_Images\0920.jpg	YN	Left	Yes	0.942095100001097	0	602863	251
1178.50390625	2	health	foodImageDisplay	3	146	26	foodImage.112	FOODEEG_Images\0920.jpg	YN	Left	Yes	0.942095100001097	0	603395	252
1180.56640625	0.942095100001097	health	choicePhaseStart	3	146	26	foodImage.112	FOODEEG_Images\0920.jpg	YN	Left	Yes	0.942095100001097	0	604451	253
1181.5	0	health	response	3	146	26	foodImage.112	FOODEEG_Images\0920.jpg	YN	Left	Yes	0.942095100001097	0	604929	234
1182.54296875	1	health	trialStart	3	147	27	foodImage.34	FOODEEG_Images\0339.jpg	YN	Right	No	0.641091999999844	0	605463	251
1183.603515625	2	health	foodImageDisplay	3	147	27	foodImage.34	FOODEEG_Images\0339.jpg	YN	Right	No	0.641091999999844	0	606006	252
1185.66796875	0.641091999999844	health	choicePhaseStart	3	147	27	foodImage.34	FOODEEG_Images\0339.jpg	YN	Right	No	0.641091999999844	0	607063	253
1186.30078125	0	health	response	3	147	27	foodImage.34	FOODEEG_Images\0339.jpg	YN	Right	No	0.641091999999844	0	607387	235
1187.341796875	1	health	trialStart	3	148	28	foodImage.115	FOODEEG_Images\0923.jpg	YN	Left	Yes	1.44097849999889	0	607920	251
1188.380859375	2	health	foodImageDisplay	3	148	28	foodImage.115	FOODEEG_Images\0923.jpg	YN	Left	Yes	1.44097849999889	0	608452	252
1190.443359375	1.44097849999889	health	choicePhaseStart	3	148	28	foodImage.115	FOODEEG_Images\0923.jpg	YN	Left	Yes	1.44097849999889	0	609508	253
1191.875	0	health	response	3	148	28	foodImage.115	FOODEEG_Images\0923.jpg	YN	Left	Yes	1.44097849999889	0	610241	234
1192.919921875	1	taste	trialStart	3	149	29	foodImage.18	FOODEEG_Images\0202.jpg	YN	Left	Yes	0.787002499999289	0	610776	251
1193.978515625	2	taste	foodImageDisplay	3	149	29	foodImage.18	FOODEEG_Images\0202.jpg	YN	Left	Yes	0.787002499999289	0	611318	252
1196.041015625	0.787002499999289	taste	choicePhaseStart	3	149	29	foodImage.18	FOODEEG_Images\0202.jpg	YN	Left	Yes	0.787002499999289	0	612374	253
1196.8203125	0	taste	response	3	149	29	foodImage.18	FOODEEG_Images\0202.jpg	YN	Left	Yes	0.787002499999289	0	612773	234
1197.86328125	1	decision	trialStart	3	150	30	foodImage.28	FOODEEG_Images\0273.jpg	NY	Right	Yes	1.06842210000104	0	613307	251
1198.90625	2	decision	foodImageDisplay	3	150	30	foodImage.28	FOODEEG_Images\0273.jpg	NY	Right	Yes	1.06842210000104	0	613841	252
1200.96875	1.06842210000104	decision	choicePhaseStart	3	150	30	foodImage.28	FOODEEG_Images\0273.jpg	NY	Right	Yes	1.06842210000104	0	614897	253
1202.02734375	0	decision	response	3	150	30	foodImage.28	FOODEEG_Images\0273.jpg	NY	Right	Yes	1.06842210000104	0	615439	235
1203.0703125	1	taste	trialStart	3	151	31	foodImage.78	FOODEEG_Images\0787.jpg	NY	Right	Yes	0.690734300000258	0	615973	251
1204.11328125	2	taste	foodImageDisplay	3	151	31	foodImage.78	FOODEEG_Images\0787.jpg	NY	Right	Yes	0.690734300000258	0	616507	252
1206.177734375	0.690734300000258	taste	choicePhaseStart	3	151	31	foodImage.78	FOODEEG_Images\0787.jpg	NY	Right	Yes	0.690734300000258	0	617564	253
1206.859375	0	taste	response	3	151	31	foodImage.78	FOODEEG_Images\0787.jpg	NY	Right	Yes	0.690734300000258	0	617913	235
1207.90234375	1	taste	trialStart	3	152	32	foodImage.119	FOODEEG_Images\0927.jpg	YN	Right	No	1.20688379999956	0	618447	251
1208.94140625	2	taste	foodImageDisplay	3	152	32	foodImage.119	FOODEEG_Images\0927.jpg	YN	Right	No	1.20688379999956	0	618979	252
1211.005859375	1.20688379999956	taste	choicePhaseStart	3	152	32	foodImage.119	FOODEEG_Images\0927.jpg	YN	Right	No	1.20688379999956	0	620036	253
1212.203125	0	taste	response	3	152	32	foodImage.119	FOODEEG_Images\0927.jpg	YN	Right	No	1.20688379999956	0	620649	235
1213.251953125	1	health	trialStart	3	153	33	foodImage.110	FOODEEG_Images\0918.jpg	NY	Left	No	1.39904659999956	0	621186	251
1214.291015625	2	health	foodImageDisplay	3	153	33	foodImage.110	FOODEEG_Images\0918.jpg	NY	Left	No	1.39904659999956	0	621718	252
1216.35546875	1.39904659999956	health	choicePhaseStart	3	153	33	foodImage.110	FOODEEG_Images\0918.jpg	NY	Left	No	1.39904659999956	0	622775	253
1217.74609375	0	health	response	3	153	33	foodImage.110	FOODEEG_Images\0918.jpg	NY	Left	No	1.39904659999956	0	623487	234
1218.7890625	1	taste	trialStart	3	154	34	foodImage.33	FOODEEG_Images\0329.jpg	NY	Right	Yes	0.711198200000581	0	624021	251
1219.83203125	2	taste	foodImageDisplay	3	154	34	foodImage.33	FOODEEG_Images\0329.jpg	NY	Right	Yes	0.711198200000581	0	624555	252
1221.900390625	0.711198200000581	taste	choicePhaseStart	3	154	34	foodImage.33	FOODEEG_Images\0329.jpg	NY	Right	Yes	0.711198200000581	0	625614	253
1222.6015625	0	taste	response	3	154	34	foodImage.33	FOODEEG_Images\0329.jpg	NY	Right	Yes	0.711198200000581	0	625973	235
1223.64453125	1	taste	trialStart	3	155	35	foodImage.76	FOODEEG_Images\0766.jpg	YN	Left	Yes	0.715887100001055	0	626507	251
1224.689453125	2	taste	foodImageDisplay	3	155	35	foodImage.76	FOODEEG_Images\0766.jpg	YN	Left	Yes	0.715887100001055	0	627042	252
1226.751953125	0.715887100001055	taste	choicePhaseStart	3	155	35	foodImage.76	FOODEEG_Images\0766.jpg	YN	Left	Yes	0.715887100001055	0	628098	253
1227.458984375	0	taste	response	3	155	35	foodImage.76	FOODEEG_Images\0766.jpg	YN	Left	Yes	0.715887100001055	0	628460	234
1228.501953125	1	health	trialStart	3	156	36	foodImage.19	FOODEEG_Images\0225.jpg	NY	Left	No	2.6658924000003	0	628994	251
1229.544921875	2	health	foodImageDisplay	3	156	36	foodImage.19	FOODEEG_Images\0225.jpg	NY	Left	No	2.6658924000003	0	629528	252
1231.609375	2.6658924000003	health	choicePhaseStart	3	156	36	foodImage.19	FOODEEG_Images\0225.jpg	NY	Left	No	2.6658924000003	0	630585	253
1234.265625	0	health	response	3	156	36	foodImage.19	FOODEEG_Images\0225.jpg	NY	Left	No	2.6658924000003	0	631945	234
1235.3125	1	taste	trialStart	3	157	37	foodImage.31	FOODEEG_Images\0294.jpg	YN	Right	No	1.14536790000056	0	632481	251
1236.353515625	2	taste	foodImageDisplay	3	157	37	foodImage.31	FOODEEG_Images\0294.jpg	YN	Right	No	1.14536790000056	0	633014	252
1238.41796875	1.14536790000056	taste	choicePhaseStart	3	157	37	foodImage.31	FOODEEG_Images\0294.jpg	YN	Right	No	1.14536790000056	0	634071	253
1239.5546875	0	taste	response	3	157	37	foodImage.31	FOODEEG_Images\0294.jpg	YN	Right	No	1.14536790000056	0	634653	235
1240.6015625	1	health	trialStart	3	158	38	foodImage.71	FOODEEG_Images\0713.jpg	YN	Right	No	1.57669949999945	0	635189	251
1241.642578125	2	health	foodImageDisplay	3	158	38	foodImage.71	FOODEEG_Images\0713.jpg	YN	Right	No	1.57669949999945	0	635722	252
1243.70703125	1.57669949999945	health	choicePhaseStart	3	158	38	foodImage.71	FOODEEG_Images\0713.jpg	YN	Right	No	1.57669949999945	0	636779	253
1245.2734375	0	health	response	3	158	38	foodImage.71	FOODEEG_Images\0713.jpg	YN	Right	No	1.57669949999945	0	637581	235
1246.31640625	1	health	trialStart	3	159	39	foodImage.24	FOODEEG_Images\0250.jpg	NY	Right	Yes	1.67593900000065	0	638115	251
1247.359375	2	health	foodImageDisplay	3	159	39	foodImage.24	FOODEEG_Images\0250.jpg	NY	Right	Yes	1.67593900000065	0	638649	252
1249.421875	1.67593900000065	health	choicePhaseStart	3	159	39	foodImage.24	FOODEEG_Images\0250.jpg	NY	Right	Yes	1.67593900000065	0	639705	253
1251.08984375	0	health	response	3	159	39	foodImage.24	FOODEEG_Images\0250.jpg	NY	Right	Yes	1.67593900000065	0	640559	235
1252.1328125	1	taste	trialStart	3	160	40	foodImage.39	FOODEEG_Images\0367.jpg	YN	Left	Yes	1.63152210000044	0	641093	251
1253.171875	2	taste	foodImageDisplay	3	160	40	foodImage.39	FOODEEG_Images\0367.jpg	YN	Left	Yes	1.63152210000044	0	641625	252
1255.236328125	1.63152210000044	taste	choicePhaseStart	3	160	40	foodImage.39	FOODEEG_Images\0367.jpg	YN	Left	Yes	1.63152210000044	0	642682	253
1256.857421875	0	taste	response	3	160	40	foodImage.39	FOODEEG_Images\0367.jpg	YN	Left	Yes	1.63152210000044	0	643512	234
1257.900390625	1	taste	trialStart	3	161	41	foodImage.74	FOODEEG_Images\0752.jpg	NY	Right	Yes	0.882408900000883	0	644046	251
1258.943359375	2	taste	foodImageDisplay	3	161	41	foodImage.74	FOODEEG_Images\0752.jpg	NY	Right	Yes	0.882408900000883	0	644580	252
1261.0078125	0.882408900000883	taste	choicePhaseStart	3	161	41	foodImage.74	FOODEEG_Images\0752.jpg	NY	Right	Yes	0.882408900000883	0	645637	253
1261.880859375	0	taste	response	3	161	41	foodImage.74	FOODEEG_Images\0752.jpg	NY	Right	Yes	0.882408900000883	0	646084	235
1262.921875	1	taste	trialStart	3	162	42	foodImage.110	FOODEEG_Images\0918.jpg	NY	Left	No	1.90309619999971	0	646617	251
1263.9609375	2	taste	foodImageDisplay	3	162	42	foodImage.110	FOODEEG_Images\0918.jpg	NY	Left	No	1.90309619999971	0	647149	252
1266.025390625	1.90309619999971	taste	choicePhaseStart	3	162	42	foodImage.110	FOODEEG_Images\0918.jpg	NY	Left	No	1.90309619999971	0	648206	253
1267.919921875	0	taste	response	3	162	42	foodImage.110	FOODEEG_Images\0918.jpg	NY	Left	No	1.90309619999971	0	649176	234
1268.962890625	1	decision	trialStart	3	163	43	foodImage.108	FOODEEG_Images\0916.jpg	NY	Left	No	0.903983199999857	0	649710	251
1270.001953125	2	decision	foodImageDisplay	3	163	43	foodImage.108	FOODEEG_Images\0916.jpg	NY	Left	No	0.903983199999857	0	650242	252
1272.06640625	0.903983199999857	decision	choicePhaseStart	3	163	43	foodImage.108	FOODEEG_Images\0916.jpg	NY	Left	No	0.903983199999857	0	651299	253
1272.9609375	0	decision	response	3	163	43	foodImage.108	FOODEEG_Images\0916.jpg	NY	Left	No	0.903983199999857	0	651757	234
1274.00390625	1	taste	trialStart	3	164	44	foodImage.71	FOODEEG_Images\0713.jpg	YN	Right	No	1.43088449999959	0	652291	251
1275.046875	2	taste	foodImageDisplay	3	164	44	foodImage.71	FOODEEG_Images\0713.jpg	YN	Right	No	1.43088449999959	0	652825	252
1277.115234375	1.43088449999959	taste	choicePhaseStart	3	164	44	foodImage.71	FOODEEG_Images\0713.jpg	YN	Right	No	1.43088449999959	0	653884	253
1278.537109375	0	taste	response	3	164	44	foodImage.71	FOODEEG_Images\0713.jpg	YN	Right	No	1.43088449999959	0	654612	235
1279.580078125	1	health	trialStart	3	165	45	foodImage.72	FOODEEG_Images\0714.jpg	YN	Right	No	0.755586799999946	0	655146	251
1280.623046875	2	health	foodImageDisplay	3	165	45	foodImage.72	FOODEEG_Images\0714.jpg	YN	Right	No	0.755586799999946	0	655680	252
1282.685546875	0.755586799999946	health	choicePhaseStart	3	165	45	foodImage.72	FOODEEG_Images\0714.jpg	YN	Right	No	0.755586799999946	0	656736	253
1283.431640625	0	health	response	3	165	45	foodImage.72	FOODEEG_Images\0714.jpg	YN	Right	No	0.755586799999946	0	657118	235
1284.474609375	1	taste	trialStart	3	166	46	foodImage.16	FOODEEG_Images\0196.jpg	YN	Left	Yes	0.740188899999339	0	657652	251
1285.533203125	2	taste	foodImageDisplay	3	166	46	foodImage.16	FOODEEG_Images\0196.jpg	YN	Left	Yes	0.740188899999339	0	658194	252
1287.59765625	0.740188899999339	taste	choicePhaseStart	3	166	46	foodImage.16	FOODEEG_Images\0196.jpg	YN	Left	Yes	0.740188899999339	0	659251	253
1288.328125	0	taste	response	3	166	46	foodImage.16	FOODEEG_Images\0196.jpg	YN	Left	Yes	0.740188899999339	0	659625	234
1289.369140625	1	decision	trialStart	3	167	47	foodImage.55	FOODEEG_Images\0567.jpg	YN	Left	Yes	0.972420400001283	0	660158	251
1290.427734375	2	decision	foodImageDisplay	3	167	47	foodImage.55	FOODEEG_Images\0567.jpg	YN	Left	Yes	0.972420400001283	0	660700	252
1292.4921875	0.972420400001283	decision	choicePhaseStart	3	167	47	foodImage.55	FOODEEG_Images\0567.jpg	YN	Left	Yes	0.972420400001283	0	661757	253
1293.455078125	0	decision	response	3	167	47	foodImage.55	FOODEEG_Images\0567.jpg	YN	Left	Yes	0.972420400001283	0	662250	234
1294.5	1	health	trialStart	3	168	48	foodImage.45	FOODEEG_Images\0478.jpg	NY	Right	Yes	1.23215419999906	0	662785	251
1295.546875	2	health	foodImageDisplay	3	168	48	foodImage.45	FOODEEG_Images\0478.jpg	NY	Right	Yes	1.23215419999906	0	663321	252
1297.609375	1.23215419999906	health	choicePhaseStart	3	168	48	foodImage.45	FOODEEG_Images\0478.jpg	NY	Right	Yes	1.23215419999906	0	664377	253
1298.83203125	0	health	response	3	168	48	foodImage.45	FOODEEG_Images\0478.jpg	NY	Right	Yes	1.23215419999906	0	665003	235
1299.875	1	health	trialStart	3	169	49	foodImage.12	FOODEEG_Images\0181.jpg	NY	Right	Yes	0.861656499999299	0	665537	251
1300.916015625	2	health	foodImageDisplay	3	169	49	foodImage.12	FOODEEG_Images\0181.jpg	NY	Right	Yes	0.861656499999299	0	666070	252
1302.978515625	0.861656499999299	health	choicePhaseStart	3	169	49	foodImage.12	FOODEEG_Images\0181.jpg	NY	Right	Yes	0.861656499999299	0	667126	253
1303.83203125	0	health	response	3	169	49	foodImage.12	FOODEEG_Images\0181.jpg	NY	Right	Yes	0.861656499999299	0	667563	235
1304.875	1	decision	trialStart	3	170	50	foodImage.58	FOODEEG_Images\0605.jpg	NY	Right	Yes	1.01357139999891	0	668097	251
1305.931640625	2	decision	foodImageDisplay	3	170	50	foodImage.58	FOODEEG_Images\0605.jpg	NY	Right	Yes	1.01357139999891	0	668638	252
1307.99609375	1.01357139999891	decision	choicePhaseStart	3	170	50	foodImage.58	FOODEEG_Images\0605.jpg	NY	Right	Yes	1.01357139999891	0	669695	253
1309	0	decision	response	3	170	50	foodImage.58	FOODEEG_Images\0605.jpg	NY	Right	Yes	1.01357139999891	0	670209	235
1310.04296875	1	taste	trialStart	3	171	51	foodImage.55	FOODEEG_Images\0567.jpg	NY	Right	Yes	0.706210800000918	0	670743	251
1311.103515625	2	taste	foodImageDisplay	3	171	51	foodImage.55	FOODEEG_Images\0567.jpg	NY	Right	Yes	0.706210800000918	0	671286	252
1313.166015625	0.706210800000918	taste	choicePhaseStart	3	171	51	foodImage.55	FOODEEG_Images\0567.jpg	NY	Right	Yes	0.706210800000918	0	672342	253
1313.86328125	0	taste	response	3	171	51	foodImage.55	FOODEEG_Images\0567.jpg	NY	Right	Yes	0.706210800000918	0	672699	235
1314.90625	1	taste	trialStart	3	172	52	foodImage.120	FOODEEG_Images\0928.jpg	YN	Right	No	0.640082600000824	0	673233	251
1315.9453125	2	taste	foodImageDisplay	3	172	52	foodImage.120	FOODEEG_Images\0928.jpg	YN	Right	No	0.640082600000824	0	673765	252
1318.0078125	0.640082600000824	taste	choicePhaseStart	3	172	52	foodImage.120	FOODEEG_Images\0928.jpg	YN	Right	No	0.640082600000824	0	674821	253
1318.638671875	0	taste	response	3	172	52	foodImage.120	FOODEEG_Images\0928.jpg	YN	Right	No	0.640082600000824	0	675144	235
1319.68359375	1	taste	trialStart	3	173	53	foodImage.48	FOODEEG_Images\0494.jpg	YN	Right	No	0.745818999999756	0	675679	251
1320.7265625	2	taste	foodImageDisplay	3	173	53	foodImage.48	FOODEEG_Images\0494.jpg	YN	Right	No	0.745818999999756	0	676213	252
1322.7890625	0.745818999999756	taste	choicePhaseStart	3	173	53	foodImage.48	FOODEEG_Images\0494.jpg	YN	Right	No	0.745818999999756	0	677269	253
1323.52734375	0	taste	response	3	173	53	foodImage.48	FOODEEG_Images\0494.jpg	YN	Right	No	0.745818999999756	0	677647	235
1324.57421875	1	decision	trialStart	3	174	54	foodImage.40	FOODEEG_Images\0373.jpg	NY	Right	Yes	1.45540900000015	0	678183	251
1325.6171875	2	decision	foodImageDisplay	3	174	54	foodImage.40	FOODEEG_Images\0373.jpg	NY	Right	Yes	1.45540900000015	0	678717	252
1327.681640625	1.45540900000015	decision	choicePhaseStart	3	174	54	foodImage.40	FOODEEG_Images\0373.jpg	NY	Right	Yes	1.45540900000015	0	679774	253
1329.126953125	0	decision	response	3	174	54	foodImage.40	FOODEEG_Images\0373.jpg	NY	Right	Yes	1.45540900000015	0	680514	235
1330.16796875	1	decision	trialStart	3	175	55	foodImage.76	FOODEEG_Images\0766.jpg	YN	Right	No	1.1886355000006	0	681047	251
1331.212890625	2	decision	foodImageDisplay	3	175	55	foodImage.76	FOODEEG_Images\0766.jpg	YN	Right	No	1.1886355000006	0	681582	252
1333.275390625	1.1886355000006	decision	choicePhaseStart	3	175	55	foodImage.76	FOODEEG_Images\0766.jpg	YN	Right	No	1.1886355000006	0	682638	253
1334.455078125	0	decision	response	3	175	55	foodImage.76	FOODEEG_Images\0766.jpg	YN	Right	No	1.1886355000006	0	683242	235
1335.498046875	1	decision	trialStart	3	176	56	foodImage.116	FOODEEG_Images\0924.jpg	NY	Left	No	1.23171480000019	0	683776	251
1336.53515625	2	decision	foodImageDisplay	3	176	56	foodImage.116	FOODEEG_Images\0924.jpg	NY	Left	No	1.23171480000019	0	684307	252
1338.599609375	1.23171480000019	decision	choicePhaseStart	3	176	56	foodImage.116	FOODEEG_Images\0924.jpg	NY	Left	No	1.23171480000019	0	685364	253
1339.822265625	0	decision	response	3	176	56	foodImage.116	FOODEEG_Images\0924.jpg	NY	Left	No	1.23171480000019	0	685990	234
1340.865234375	1	health	trialStart	3	177	57	foodImage.32	FOODEEG_Images\0319.jpg	YN	Right	No	0.906748000001244	0	686524	251
1341.908203125	2	health	foodImageDisplay	3	177	57	foodImage.32	FOODEEG_Images\0319.jpg	YN	Right	No	0.906748000001244	0	687058	252
1343.97265625	0.906748000001244	health	choicePhaseStart	3	177	57	foodImage.32	FOODEEG_Images\0319.jpg	YN	Right	No	0.906748000001244	0	688115	253
1344.869140625	0	health	response	3	177	57	foodImage.32	FOODEEG_Images\0319.jpg	YN	Right	No	0.906748000001244	0	688574	235
1345.912109375	1	health	trialStart	3	178	58	foodImage.85	FOODEEG_Images\0841.jpg	NY	Left	No	1.10024720000001	0	689108	251
1346.970703125	2	health	foodImageDisplay	3	178	58	foodImage.85	FOODEEG_Images\0841.jpg	NY	Left	No	1.10024720000001	0	689650	252
1349.03515625	1.10024720000001	health	choicePhaseStart	3	178	58	foodImage.85	FOODEEG_Images\0841.jpg	NY	Left	No	1.10024720000001	0	690707	253
1350.125	0	health	response	3	178	58	foodImage.85	FOODEEG_Images\0841.jpg	NY	Left	No	1.10024720000001	0	691265	234
1351.169921875	1	decision	trialStart	3	179	59	foodImage.71	FOODEEG_Images\0713.jpg	NY	Left	No	2.70740469999873	0	691800	251
1352.2109375	2	decision	foodImageDisplay	3	179	59	foodImage.71	FOODEEG_Images\0713.jpg	NY	Left	No	2.70740469999873	0	692333	252
1354.275390625	2.70740469999873	decision	choicePhaseStart	3	179	59	foodImage.71	FOODEEG_Images\0713.jpg	NY	Left	No	2.70740469999873	0	693390	253
1356.97265625	0	decision	response	3	179	59	foodImage.71	FOODEEG_Images\0713.jpg	NY	Left	No	2.70740469999873	0	694771	234
1358.015625	1	taste	trialStart	3	180	60	foodImage.103	FOODEEG_Images\0911.jpg	YN	Right	No	0.934474800000316	0	695305	251
1359.0546875	2	taste	foodImageDisplay	3	180	60	foodImage.103	FOODEEG_Images\0911.jpg	YN	Right	No	0.934474800000316	0	695837	252
1361.119140625	0.934474800000316	taste	choicePhaseStart	3	180	60	foodImage.103	FOODEEG_Images\0911.jpg	YN	Right	No	0.934474800000316	0	696894	253
1362.044921875	0	taste	response	3	180	60	foodImage.103	FOODEEG_Images\0911.jpg	YN	Right	No	0.934474800000316	0	697368	235
1364.087890625	17.625	n/a	blockEnd	n/a	n/a	n/a	n/a	n/a	n/a	n/a	n/a	n/a	n/a	698414	254
1381.712890625	2	n/a	blockStart	4	n/a	n/a	n/a	n/a	n/a	n/a	n/a	n/a	n/a	707438	250
1383.748046875	1	health	trialStart	4	181	1	foodImage.37	FOODEEG_Images\0359.jpg	YN	Left	Yes	0.751405599999998	0	708480	251
1384.791015625	2	health	foodImageDisplay	4	181	1	foodImage.37	FOODEEG_Images\0359.jpg	YN	Left	Yes	0.751405599999998	0	709014	252
1386.853515625	0.751405599999998	health	choicePhaseStart	4	181	1	foodImage.37	FOODEEG_Images\0359.jpg	YN	Left	Yes	0.751405599999998	0	710070	253
1387.595703125	0	health	response	4	181	1	foodImage.37	FOODEEG_Images\0359.jpg	YN	Left	Yes	0.751405599999998	0	710450	234
1388.638671875	1	decision	trialStart	4	182	2	foodImage.5	FOODEEG_Images\0107.jpg	NY	Right	Yes	1.25291979999929	0	710984	251
1389.697265625	2	decision	foodImageDisplay	4	182	2	foodImage.5	FOODEEG_Images\0107.jpg	NY	Right	Yes	1.25291979999929	0	711526	252
1391.759765625	1.25291979999929	decision	choicePhaseStart	4	182	2	foodImage.5	FOODEEG_Images\0107.jpg	NY	Right	Yes	1.25291979999929	0	712582	253
1393.00390625	0	decision	response	4	182	2	foodImage.5	FOODEEG_Images\0107.jpg	NY	Right	Yes	1.25291979999929	0	713219	235
1394.046875	1	decision	trialStart	4	183	3	foodImage.88	FOODEEG_Images\0878.jpg	YN	Left	Yes	0.944012799998745	0	713753	251
1395.107421875	2	decision	foodImageDisplay	4	183	3	foodImage.88	FOODEEG_Images\0878.jpg	YN	Left	Yes	0.944012799998745	0	714296	252
1397.173828125	0.944012799998745	decision	choicePhaseStart	4	183	3	foodImage.88	FOODEEG_Images\0878.jpg	YN	Left	Yes	0.944012799998745	0	715354	253
1398.107421875	0	decision	response	4	183	3	foodImage.88	FOODEEG_Images\0878.jpg	YN	Left	Yes	0.944012799998745	0	715832	234
1399.150390625	1	health	trialStart	4	184	4	foodImage.62	FOODEEG_Images\0644.jpg	YN	Left	Yes	0.575169600000663	0	716366	251
1400.20703125	2	health	foodImageDisplay	4	184	4	foodImage.62	FOODEEG_Images\0644.jpg	YN	Left	Yes	0.575169600000663	0	716907	252
1402.27734375	0.575169600000663	health	choicePhaseStart	4	184	4	foodImage.62	FOODEEG_Images\0644.jpg	YN	Left	Yes	0.575169600000663	0	717967	253
1402.84375	0	health	response	4	184	4	foodImage.62	FOODEEG_Images\0644.jpg	YN	Left	Yes	0.575169600000663	0	718257	234
1403.88671875	1	health	trialStart	4	185	5	foodImage.18	FOODEEG_Images\0202.jpg	NY	Right	Yes	0.776481500000955	0	718791	251
1404.943359375	2	health	foodImageDisplay	4	185	5	foodImage.18	FOODEEG_Images\0202.jpg	NY	Right	Yes	0.776481500000955	0	719332	252
1407.01171875	0.776481500000955	health	choicePhaseStart	4	185	5	foodImage.18	FOODEEG_Images\0202.jpg	NY	Right	Yes	0.776481500000955	0	720391	253
1407.779296875	0	health	response	4	185	5	foodImage.18	FOODEEG_Images\0202.jpg	NY	Right	Yes	0.776481500000955	0	720784	235
1408.82421875	1	decision	trialStart	4	186	6	foodImage.9	FOODEEG_Images\0138.jpg	NY	Left	No	0.582716000000801	0	721319	251
1409.87890625	2	decision	foodImageDisplay	4	186	6	foodImage.9	FOODEEG_Images\0138.jpg	NY	Left	No	0.582716000000801	0	721859	252
1411.94140625	0.582716000000801	decision	choicePhaseStart	4	186	6	foodImage.9	FOODEEG_Images\0138.jpg	NY	Left	No	0.582716000000801	0	722915	253
1412.515625	0	decision	response	4	186	6	foodImage.9	FOODEEG_Images\0138.jpg	NY	Left	No	0.582716000000801	0	723209	234
1413.5625	1	decision	trialStart	4	187	7	foodImage.72	FOODEEG_Images\0714.jpg	YN	Right	No	0.629581200000757	0	723745	251
1414.60546875	2	decision	foodImageDisplay	4	187	7	foodImage.72	FOODEEG_Images\0714.jpg	YN	Right	No	0.629581200000757	0	724279	252
1416.669921875	0.629581200000757	decision	choicePhaseStart	4	187	7	foodImage.72	FOODEEG_Images\0714.jpg	YN	Right	No	0.629581200000757	0	725336	253
1417.291015625	0	decision	response	4	187	7	foodImage.72	FOODEEG_Images\0714.jpg	YN	Right	No	0.629581200000757	0	725654	235
1418.333984375	1	decision	trialStart	4	188	8	foodImage.46	FOODEEG_Images\0479.jpg	NY	Right	Yes	1.31706010000016	0	726188	251
1419.392578125	2	decision	foodImageDisplay	4	188	8	foodImage.46	FOODEEG_Images\0479.jpg	NY	Right	Yes	1.31706010000016	0	726730	252
1421.455078125	1.31706010000016	decision	choicePhaseStart	4	188	8	foodImage.46	FOODEEG_Images\0479.jpg	NY	Right	Yes	1.31706010000016	0	727786	253
1422.763671875	0	decision	response	4	188	8	foodImage.46	FOODEEG_Images\0479.jpg	NY	Right	Yes	1.31706010000016	0	728456	235
1423.806640625	1	health	trialStart	4	189	9	foodImage.70	FOODEEG_Images\0705.jpg	YN	Right	No	0.957994700000199	0	728990	251
1424.865234375	2	health	foodImageDisplay	4	189	9	foodImage.70	FOODEEG_Images\0705.jpg	YN	Right	No	0.957994700000199	0	729532	252
1426.93359375	0.957994700000199	health	choicePhaseStart	4	189	9	foodImage.70	FOODEEG_Images\0705.jpg	YN	Right	No	0.957994700000199	0	730591	253
1427.8828125	0	health	response	4	189	9	foodImage.70	FOODEEG_Images\0705.jpg	YN	Right	No	0.957994700000199	0	731077	235
1428.923828125	1	health	trialStart	4	190	10	foodImage.100	FOODEEG_Images\0908.jpg	NY	Left	No	1.34424390000095	0	731610	251
1429.962890625	2	health	foodImageDisplay	4	190	10	foodImage.100	FOODEEG_Images\0908.jpg	NY	Left	No	1.34424390000095	0	732142	252
1432.02734375	1.34424390000095	health	choicePhaseStart	4	190	10	foodImage.100	FOODEEG_Images\0908.jpg	NY	Left	No	1.34424390000095	0	733199	253
1433.361328125	0	health	response	4	190	10	foodImage.100	FOODEEG_Images\0908.jpg	NY	Left	No	1.34424390000095	0	733882	234
1434.404296875	1	decision	trialStart	4	191	11	foodImage.57	FOODEEG_Images\0587.jpg	YN	Left	Yes	0.948064600001089	0	734416	251
1435.447265625	2	decision	foodImageDisplay	4	191	11	foodImage.57	FOODEEG_Images\0587.jpg	YN	Left	Yes	0.948064600001089	0	734950	252
1437.51171875	0.948064600001089	decision	choicePhaseStart	4	191	11	foodImage.57	FOODEEG_Images\0587.jpg	YN	Left	Yes	0.948064600001089	0	736007	253
1438.44921875	0	decision	response	4	191	11	foodImage.57	FOODEEG_Images\0587.jpg	YN	Left	Yes	0.948064600001089	0	736487	234
1439.4921875	1	taste	trialStart	4	192	12	foodImage.29	FOODEEG_Images\0278.jpg	YN	Left	Yes	1.94725950000065	0	737021	251
1440.537109375	2	taste	foodImageDisplay	4	192	12	foodImage.29	FOODEEG_Images\0278.jpg	YN	Left	Yes	1.94725950000065	0	737556	252
1442.599609375	1.94725950000065	taste	choicePhaseStart	4	192	12	foodImage.29	FOODEEG_Images\0278.jpg	YN	Left	Yes	1.94725950000065	0	738612	253
1444.537109375	0	taste	response	4	192	12	foodImage.29	FOODEEG_Images\0278.jpg	YN	Left	Yes	1.94725950000065	0	739604	234
1445.580078125	1	health	trialStart	4	193	13	foodImage.49	FOODEEG_Images\0515.jpg	YN	Left	Yes	2.06788479999886	0	740138	251
