onset	duration	trial_type	event_type	block	trial_total	trial_in_block	food_image_code	food_image_path	button_position	resp_position	resp_choice	choice_rt	resp_too_slow	sample	trigger
233.466796875	2	n/a	blockStart	1	n/a	n/a	n/a	n/a	n/a	n/a	n/a	n/a	n/a	119536	250
235.50390625	1	decision	trialStart	1	1	1	foodImage.63	FOODEEG_Images\0645.jpg	NY	Right	Yes	0.927553800000169	0	120579	251
236.548828125	2	decision	foodImageDisplay	1	1	1	foodImage.63	FOODEEG_Images\0645.jpg	NY	Right	Yes	0.927553800000169	0	121114	252
238.61328125	0.927553800000169	decision	choicePhaseStart	1	1	1	foodImage.63	FOODEEG_Images\0645.jpg	NY	Right	Yes	0.927553800000169	0	122171	253
239.53515625	0	decision	response	1	1	1	foodImage.63	FOODEEG_Images\0645.jpg	NY	Right	Yes	0.927553800000169	0	122643	235
240.62890625	1	taste	trialStart	1	2	2	foodImage.27	FOODEEG_Images\0263.jpg	YN	Left	Yes	0.790309000003617	0	123203	251
241.671875	2	taste	foodImageDisplay	1	2	2	foodImage.27	FOODEEG_Images\0263.jpg	YN	Left	Yes	0.790309000003617	0	123737	252
243.736328125	0.790309000003617	taste	choicePhaseStart	1	2	2	foodImage.27	FOODEEG_Images\0263.jpg	YN	Left	Yes	0.790309000003617	0	124794	253
244.517578125	0	taste	response	1	2	2	foodImage.27	FOODEEG_Images\0263.jpg	YN	Left	Yes	0.790309000003617	0	125194	234
245.57421875	1	decision	trialStart	1	3	3	foodImage.103	FOODEEG_Images\0911.jpg	YN	Right	No	0.915795900000376	0	125735	251
246.61328125	2	decision	foodImageDisplay	1	3	3	foodImage.103	FOODEEG_Images\0911.jpg	YN	Right	No	0.915795900000376	0	126267	252
248.68359375	0.915795900000376	decision	choicePhaseStart	1	3	3	foodImage.103	FOODEEG_Images\0911.jpg	YN	Right	No	0.915795900000376	0	127327	253
249.58984375	0	decision	response	1	3	3	foodImage.103	FOODEEG_Images\0911.jpg	YN	Right	No	0.915795900000376	0	127791	235
250.6328125	1	decision	trialStart	1	4	4	foodImage.25	FOODEEG_Images\0261.jpg	NY	Left	No	0.820663400001649	0	128325	251
251.67578125	2	decision	foodImageDisplay	1	4	4	foodImage.25	FOODEEG_Images\0261.jpg	NY	Left	No	0.820663400001649	0	128859	252
253.74609375	0.820663400001649	decision	choicePhaseStart	1	4	4	foodImage.25	FOODEEG_Images\0261.jpg	NY	Left	No	0.820663400001649	0	129919	253
254.55859375	0	decision	response	1	4	4	foodImage.25	FOODEEG_Images\0261.jpg	NY	Left	No	0.820663400001649	0	130335	234
255.6015625	1	health	trialStart	1	5	5	foodImage.49	FOODEEG_Images\0515.jpg	YN	Left	Yes	1.28637829999934	0	130869	251
256.646484375	2	health	foodImageDisplay	1	5	5	foodImage.49	FOODEEG_Images\0515.jpg	YN	Left	Yes	1.28637829999934	0	131404	252
258.712890625	1.28637829999934	health	choicePhaseStart	1	5	5	foodImage.49	FOODEEG_Images\0515.jpg	YN	Left	Yes	1.28637829999934	0	132462	253
259.990234375	0	health	response	1	5	5	foodImage.49	FOODEEG_Images\0515.jpg	YN	Left	Yes	1.28637829999934	0	133116	234
261.041015625	1	health	trialStart	1	6	6	foodImage.43	FOODEEG_Images\0445.jpg	YN	Left	Yes	0.622228000000177	0	133654	251
262.09765625	2	health	foodImageDisplay	1	6	6	foodImage.43	FOODEEG_Images\0445.jpg	YN	Left	Yes	0.622228000000177	0	134195	252
264.16015625	0.622228000000177	health	choicePhaseStart	1	6	6	foodImage.43	FOODEEG_Images\0445.jpg	YN	Left	Yes	0.622228000000177	0	135251	253
264.7734375	0	health	response	1	6	6	foodImage.43	FOODEEG_Images\0445.jpg	YN	Left	Yes	0.622228000000177	0	135565	234
265.814453125	1	decision	trialStart	1	7	7	foodImage.54	FOODEEG_Images\0560.jpg	YN	Left	Yes	0.507489500007068	0	136098	251
266.873046875	2	decision	foodImageDisplay	1	7	7	foodImage.54	FOODEEG_Images\0560.jpg	YN	Left	Yes	0.507489500007068	0	136640	252
268.9375	0.507489500007068	decision	choicePhaseStart	1	7	7	foodImage.54	FOODEEG_Images\0560.jpg	YN	Left	Yes	0.507489500007068	0	137697	253
269.4375	0	decision	response	1	7	7	foodImage.54	FOODEEG_Images\0560.jpg	YN	Left	Yes	0.507489500007068	0	137953	234
270.484375	1	decision	trialStart	1	8	8	foodImage.19	FOODEEG_Images\0225.jpg	NY	Left	No	1.04554020000069	0	138489	251
271.52734375	2	decision	foodImageDisplay	1	8	8	foodImage.19	FOODEEG_Images\0225.jpg	NY	Left	No	1.04554020000069	0	139023	252
273.591796875	1.04554020000069	decision	choicePhaseStart	1	8	8	foodImage.19	FOODEEG_Images\0225.jpg	NY	Left	No	1.04554020000069	0	140080	253
274.62890625	0	decision	response	1	8	8	foodImage.19	FOODEEG_Images\0225.jpg	NY	Left	No	1.04554020000069	0	140611	234
275.671875	1	decision	trialStart	1	9	9	foodImage.88	FOODEEG_Images\0878.jpg	YN	Right	No	1.27320709999913	0	141145	251
276.748046875	2	decision	foodImageDisplay	1	9	9	foodImage.88	FOODEEG_Images\0878.jpg	YN	Right	No	1.27320709999913	0	141696	252
278.8125	1.27320709999913	decision	choicePhaseStart	1	9	9	foodImage.88	FOODEEG_Images\0878.jpg	YN	Right	No	1.27320709999913	0	142753	253
280.076171875	0	decision	response	1	9	9	foodImage.88	FOODEEG_Images\0878.jpg	YN	Right	No	1.27320709999913	0	143400	235
281.1171875	1	taste	trialStart	1	10	10	foodImage.109	FOODEEG_Images\0917.jpg	NY	Left	No	0.868044099996041	0	143933	251
282.15625	2	taste	foodImageDisplay	1	10	10	foodImage.109	FOODEEG_Images\0917.jpg	NY	Left	No	0.868044099996041	0	144465	252
284.224609375	0.868044099996041	taste	choicePhaseStart	1	10	10	foodImage.109	FOODEEG_Images\0917.jpg	NY	Left	No	0.868044099996041	0	145524	253
285.083984375	0	taste	response	1	10	10	foodImage.109	FOODEEG_Images\0917.jpg	NY	Left	No	0.868044099996041	0	145964	234
286.130859375	1	health	trialStart	1	11	11	foodImage.31	FOODEEG_Images\0294.jpg	NY	Left	No	0.52973010000278	0	146500	251
287.171875	2	health	foodImageDisplay	1	11	11	foodImage.31	FOODEEG_Images\0294.jpg	NY	Left	No	0.52973010000278	0	147033	252
289.2421875	0.52973010000278	health	choicePhaseStart	1	11	11	foodImage.31	FOODEEG_Images\0294.jpg	NY	Left	No	0.52973010000278	0	148093	253
289.763671875	0	health	response	1	11	11	foodImage.31	FOODEEG_Images\0294.jpg	NY	Left	No	0.52973010000278	0	148360	234
290.806640625	1	decision	trialStart	1	12	12	foodImage.33	FOODEEG_Images\0329.jpg	YN	Left	Yes	0.610525600000983	0	148894	251
291.849609375	2	decision	foodImageDisplay	1	12	12	foodImage.33	FOODEEG_Images\0329.jpg	YN	Left	Yes	0.610525600000983	0	149428	252
293.9140625	0.610525600000983	decision	choicePhaseStart	1	12	12	foodImage.33	FOODEEG_Images\0329.jpg	YN	Left	Yes	0.610525600000983	0	150485	253
294.515625	0	decision	response	1	12	12	foodImage.33	FOODEEG_Images\0329.jpg	YN	Left	Yes	0.610525600000983	0	150793	234
295.572265625	1	health	trialStart	1	13	13	foodImage.23	FOODEEG_Images\0244.jpg	NY	Right	Yes	1.26572329999908	0	151334	251
296.611328125	2	health	foodImageDisplay	1	13	13	foodImage.23	FOODEEG_Images\0244.jpg	NY	Right	Yes	1.26572329999908	0	151866	252
298.67578125	1.26572329999908	health	choicePhaseStart	1	13	13	foodImage.23	FOODEEG_Images\0244.jpg	NY	Right	Yes	1.26572329999908	0	152923	253
299.931640625	0	health	response	1	13	13	foodImage.23	FOODEEG_Images\0244.jpg	NY	Right	Yes	1.26572329999908	0	153566	235
300.9765625	1	health	trialStart	1	14	14	foodImage.80	FOODEEG_Images\0796.jpg	YN	Left	Yes	0.487835899999482	0	154101	251
302.03515625	2	health	foodImageDisplay	1	14	14	foodImage.80	FOODEEG_Images\0796.jpg	YN	Left	Yes	0.487835899999482	0	154643	252
304.099609375	0.487835899999482	health	choicePhaseStart	1	14	14	foodImage.80	FOODEEG_Images\0796.jpg	YN	Left	Yes	0.487835899999482	0	155700	253
304.580078125	0	health	response	1	14	14	foodImage.80	FOODEEG_Images\0796.jpg	YN	Left	Yes	0.487835899999482	0	155946	234
305.62890625	1	decision	trialStart	1	15	15	foodImage.101	FOODEEG_Images\0909.jpg	NY	Left	No	0.663952599999902	0	156483	251
306.66796875	2	decision	foodImageDisplay	1	15	15	foodImage.101	FOODEEG_Images\0909.jpg	NY	Left	No	0.663952599999902	0	157015	252
308.732421875	0.663952599999902	decision	choicePhaseStart	1	15	15	foodImage.101	FOODEEG_Images\0909.jpg	NY	Left	No	0.663952599999902	0	158072	253
309.38671875	0	decision	response	1	15	15	foodImage.101	FOODEEG_Images\0909.jpg	NY	Left	No	0.663952599999902	0	158407	234
310.427734375	1	taste	trialStart	1	16	16	foodImage.80	FOODEEG_Images\0796.jpg	NY	Left	No	0.937647900005686	0	158940	251
311.486328125	2	taste	foodImageDisplay	1	16	16	foodImage.80	FOODEEG_Images\0796.jpg	NY	Left	No	0.937647900005686	0	159482	252
313.5546875	0.937647900005686	taste	choicePhaseStart	1	16	16	foodImage.80	FOODEEG_Images\0796.jpg	NY	Left	No	0.937647900005686	0	160541	253
314.482421875	0	taste	response	1	16	16	foodImage.80	FOODEEG_Images\0796.jpg	NY	Left	No	0.937647900005686	0	161016	234
315.525390625	1	taste	trialStart	1	17	17	foodImage.1	FOODEEG_Images\0004.jpg	YN	Left	Yes	0.772434500002419	0	161550	251
316.56640625	2	taste	foodImageDisplay	1	17	17	foodImage.1	FOODEEG_Images\0004.jpg	YN	Left	Yes	0.772434500002419	0	162083	252
318.630859375	0.772434500002419	taste	choicePhaseStart	1	17	17	foodImage.1	FOODEEG_Images\0004.jpg	YN	Left	Yes	0.772434500002419	0	163140	253
319.39453125	0	taste	response	1	17	17	foodImage.1	FOODEEG_Images\0004.jpg	YN	Left	Yes	0.772434500002419	0	163531	234
320.435546875	1	health	trialStart	1	18	18	foodImage.28	FOODEEG_Images\0273.jpg	YN	Left	Yes	0.610856899998907	0	164064	251
321.478515625	2	health	foodImageDisplay	1	18	18	foodImage.28	FOODEEG_Images\0273.jpg	YN	Left	Yes	0.610856899998907	0	164598	252
323.54296875	0.610856899998907	health	choicePhaseStart	1	18	18	foodImage.28	FOODEEG_Images\0273.jpg	YN	Left	Yes	0.610856899998907	0	165655	253
324.146484375	0	health	response	1	18	18	foodImage.28	FOODEEG_Images\0273.jpg	YN	Left	Yes	0.610856899998907	0	165964	234
325.189453125	1	decision	trialStart	1	19	19	foodImage.81	FOODEEG_Images\0797.jpg	NY	Left	No	0.534180999995442	0	166498	251
326.24609375	2	decision	foodImageDisplay	1	19	19	foodImage.81	FOODEEG_Images\0797.jpg	NY	Left	No	0.534180999995442	0	167039	252
328.30859375	0.534180999995442	decision	choicePhaseStart	1	19	19	foodImage.81	FOODEEG_Images\0797.jpg	NY	Left	No	0.534180999995442	0	168095	253
328.833984375	0	decision	response	1	19	19	foodImage.81	FOODEEG_Images\0797.jpg	NY	Left	No	0.534180999995442	0	168364	234
329.875	1	taste	trialStart	1	20	20	foodImage.98	FOODEEG_Images\0906.jpg	YN	Right	No	0.825776000005135	0	168897	251
330.9140625	2	taste	foodImageDisplay	1	20	20	foodImage.98	FOODEEG_Images\0906.jpg	YN	Right	No	0.825776000005135	0	169429	252
332.9765625	0.825776000005135	taste	choicePhaseStart	1	20	20	foodImage.98	FOODEEG_Images\0906.jpg	YN	Right	No	0.825776000005135	0	170485	253
333.794921875	0	taste	response	1	20	20	foodImage.98	FOODEEG_Images\0906.jpg	YN	Right	No	0.825776000005135	0	170904	235
334.84375	1	decision	trialStart	1	21	21	foodImage.106	FOODEEG_Images\0914.jpg	YN	Left	Yes	0.518386600000667	0	171441	251
335.884765625	2	decision	foodImageDisplay	1	21	21	foodImage.106	FOODEEG_Images\0914.jpg	YN	Left	Yes	0.518386600000667	0	171974	252
337.94921875	0.518386600000667	decision	choicePhaseStart	1	21	21	foodImage.106	FOODEEG_Images\0914.jpg	YN	Left	Yes	0.518386600000667	0	173031	253
338.458984375	0	decision	response	1	21	21	foodImage.106	FOODEEG_Images\0914.jpg	YN	Left	Yes	0.518386600000667	0	173292	234
339.501953125	1	decision	trialStart	1	22	22	foodImage.110	FOODEEG_Images\0918.jpg	YN	Right	No	0.844572699999844	0	173826	251
340.552734375	2	decision	foodImageDisplay	1	22	22	foodImage.110	FOODEEG_Images\0918.jpg	YN	Right	No	0.844572699999844	0	174364	252
342.615234375	0.844572699999844	decision	choicePhaseStart	1	22	22	foodImage.110	FOODEEG_Images\0918.jpg	YN	Right	No	0.844572699999844	0	175420	253
343.451171875	0	decision	response	1	22	22	foodImage.110	FOODEEG_Images\0918.jpg	YN	Right	No	0.844572699999844	0	175848	235
344.5	1	taste	trialStart	1	23	23	foodImage.83	FOODEEG_Images\0827.jpg	NY	Left	No	0.744037000004028	0	176385	251
345.556640625	2	taste	foodImageDisplay	1	23	23	foodImage.83	FOODEEG_Images\0827.jpg	NY	Left	No	0.744037000004028	0	176926	252
347.619140625	0.744037000004028	taste	choicePhaseStart	1	23	23	foodImage.83	FOODEEG_Images\0827.jpg	NY	Left	No	0.744037000004028	0	177982	253
348.353515625	0	taste	response	1	23	23	foodImage.83	FOODEEG_Images\0827.jpg	NY	Left	No	0.744037000004028	0	178358	234
349.39453125	1	taste	trialStart	1	24	24	foodImage.96	FOODEEG_Images\0904.jpg	NY	Right	Yes	1.15864449999935	0	178891	251
350.43359375	2	taste	foodImageDisplay	1	24	24	foodImage.96	FOODEEG_Images\0904.jpg	NY	Right	Yes	1.15864449999935	0	179423	252
352.498046875	1.15864449999935	taste	choicePhaseStart	1	24	24	foodImage.96	FOODEEG_Images\0904.jpg	NY	Right	Yes	1.15864449999935	0	180480	253
353.650390625	0	taste	response	1	24	24	foodImage.96	FOODEEG_Images\0904.jpg	NY	Right	Yes	1.15864449999935	0	181070	235
354.69140625	1	decision	trialStart	1	25	25	foodImage.1	FOODEEG_Images\0004.jpg	NY	Right	Yes	0.684225100005278	0	181603	251
355.734375	2	decision	foodImageDisplay	1	25	25	foodImage.1	FOODEEG_Images\0004.jpg	NY	Right	Yes	0.684225100005278	0	182137	252
357.798828125	0.684225100005278	decision	choicePhaseStart	1	25	25	foodImage.1	FOODEEG_Images\0004.jpg	NY	Right	Yes	0.684225100005278	0	183194	253
358.474609375	0	decision	response	1	25	25	foodImage.1	FOODEEG_Images\0004.jpg	NY	Right	Yes	0.684225100005278	0	183540	235
359.515625	1	health	trialStart	1	26	26	foodImage.109	FOODEEG_Images\0917.jpg	NY	Left	No	1.08945839999797	0	184073	251
360.552734375	2	health	foodImageDisplay	1	26	26	foodImage.109	FOODEEG_Images\0917.jpg	NY	Left	No	1.08945839999797	0	184604	252
362.615234375	1.08945839999797	health	choicePhaseStart	1	26	26	foodImage.109	FOODEEG_Images\0917.jpg	NY	Left	No	1.08945839999797	0	185660	253
363.697265625	0	health	response	1	26	26	foodImage.109	FOODEEG_Images\0917.jpg	NY	Left	No	1.08945839999797	0	186214	234
364.740234375	1	taste	trialStart	1	27	27	foodImage.20	FOODEEG_Images\0226.jpg	YN	Right	No	1.59549210000114	0	186748	251
365.78125	2	taste	foodImageDisplay	1	27	27	foodImage.20	FOODEEG_Images\0226.jpg	YN	Right	No	1.59549210000114	0	187281	252
367.845703125	1.59549210000114	taste	choicePhaseStart	1	27	27	foodImage.20	FOODEEG_Images\0226.jpg	YN	Right	No	1.59549210000114	0	188338	253
369.43359375	0	taste	response	1	27	27	foodImage.20	FOODEEG_Images\0226.jpg	YN	Right	No	1.59549210000114	0	189151	235
370.478515625	1	decision	trialStart	1	28	28	foodImage.75	FOODEEG_Images\0763.jpg	NY	Right	Yes	0.603211399997235	0	189686	251
371.5234375	2	decision	foodImageDisplay	1	28	28	foodImage.75	FOODEEG_Images\0763.jpg	NY	Right	Yes	0.603211399997235	0	190221	252
373.591796875	0.603211399997235	decision	choicePhaseStart	1	28	28	foodImage.75	FOODEEG_Images\0763.jpg	NY	Right	Yes	0.603211399997235	0	191280	253
374.185546875	0	decision	response	1	28	28	foodImage.75	FOODEEG_Images\0763.jpg	NY	Right	Yes	0.603211399997235	0	191584	235
375.228515625	1	decision	trialStart	1	29	29	foodImage.57	FOODEEG_Images\0587.jpg	YN	Left	Yes	1.14305359999707	0	192118	251
376.2734375	2	decision	foodImageDisplay	1	29	29	foodImage.57	FOODEEG_Images\0587.jpg	YN	Left	Yes	1.14305359999707	0	192653	252
378.337890625	1.14305359999707	decision	choicePhaseStart	1	29	29	foodImage.57	FOODEEG_Images\0587.jpg	YN	Left	Yes	1.14305359999707	0	193710	253
379.47265625	0	decision	response	1	29	29	foodImage.57	FOODEEG_Images\0587.jpg	YN	Left	Yes	1.14305359999707	0	194291	234
380.515625	1	health	trialStart	1	30	30	foodImage.81	FOODEEG_Images\0797.jpg	NY	Right	Yes	0.644014400000742	0	194825	251
381.57421875	2	health	foodImageDisplay	1	30	30	foodImage.81	FOODEEG_Images\0797.jpg	NY	Right	Yes	0.644014400000742	0	195367	252
383.638671875	0.644014400000742	health	choicePhaseStart	1	30	30	foodImage.81	FOODEEG_Images\0797.jpg	NY	Right	Yes	0.644014400000742	0	196424	253
384.2734375	0	health	response	1	30	30	foodImage.81	FOODEEG_Images\0797.jpg	NY	Right	Yes	0.644014400000742	0	196749	235
385.3125	1	health	trialStart	1	31	31	foodImage.75	FOODEEG_Images\0763.jpg	NY	Right	Yes	0.502382300001045	0	197281	251
386.357421875	2	health	foodImageDisplay	1	31	31	foodImage.75	FOODEEG_Images\0763.jpg	NY	Right	Yes	0.502382300001045	0	197816	252
388.42578125	0.502382300001045	health	choicePhaseStart	1	31	31	foodImage.75	FOODEEG_Images\0763.jpg	NY	Right	Yes	0.502382300001045	0	198875	253
388.919921875	0	health	response	1	31	31	foodImage.75	FOODEEG_Images\0763.jpg	NY	Right	Yes	0.502382300001045	0	199128	235
389.966796875	1	health	trialStart	1	32	32	foodImage.4	FOODEEG_Images\0065.jpg	YN	Right	No	1.09686460000376	0	199664	251
391.025390625	2	health	foodImageDisplay	1	32	32	foodImage.4	FOODEEG_Images\0065.jpg	YN	Right	No	1.09686460000376	0	200206	252
393.08984375	1.09686460000376	health	choicePhaseStart	1	32	32	foodImage.4	FOODEEG_Images\0065.jpg	YN	Right	No	1.09686460000376	0	201263	253
394.17578125	0	health	response	1	32	32	foodImage.4	FOODEEG_Images\0065.jpg	YN	Right	No	1.09686460000376	0	201819	235
395.220703125	1	taste	trialStart	1	33	33	foodImage.102	FOODEEG_Images\0910.jpg	NY	Left	No	1.26270300000033	0	202354	251
396.2578125	2	taste	foodImageDisplay	1	33	33	foodImage.102	FOODEEG_Images\0910.jpg	NY	Left	No	1.26270300000033	0	202885	252
398.3203125	1.26270300000033	taste	choicePhaseStart	1	33	33	foodImage.102	FOODEEG_Images\0910.jpg	NY	Left	No	1.26270300000033	0	203941	253
399.576171875	0	taste	response	1	33	33	foodImage.102	FOODEEG_Images\0910.jpg	NY	Left	No	1.26270300000033	0	204584	234
400.6171875	1	decision	trialStart	1	34	34	foodImage.24	FOODEEG_Images\0250.jpg	YN	Left	Yes	0.645178199993097	0	205117	251
401.66015625	2	decision	foodImageDisplay	1	34	34	foodImage.24	FOODEEG_Images\0250.jpg	YN	Left	Yes	0.645178199993097	0	205651	252
403.72265625	0.645178199993097	decision	choicePhaseStart	1	34	34	foodImage.24	FOODEEG_Images\0250.jpg	YN	Left	Yes	0.645178199993097	0	206707	253
404.359375	0	decision	response	1	34	34	foodImage.24	FOODEEG_Images\0250.jpg	YN	Left	Yes	0.645178199993097	0	207033	234
405.40234375	1	health	trialStart	1	35	35	foodImage.110	FOODEEG_Images\0918.jpg	YN	Right	No	1.52856340000289	0	207567	251
406.44140625	2	health	foodImageDisplay	1	35	35	foodImage.110	FOODEEG_Images\0918.jpg	YN	Right	No	1.52856340000289	0	208099	252
408.50390625	1.52856340000289	health	choicePhaseStart	1	35	35	foodImage.110	FOODEEG_Images\0918.jpg	YN	Right	No	1.52856340000289	0	209155	253
410.0234375	0	health	response	1	35	35	foodImage.110	FOODEEG_Images\0918.jpg	YN	Right	No	1.52856340000289	0	209933	235
411.0703125	1	decision	trialStart	1	36	36	foodImage.116	FOODEEG_Images\0924.jpg	NY	Left	No	0.668075800000224	0	210469	251
412.109375	2	decision	foodImageDisplay	1	36	36	foodImage.116	FOODEEG_Images\0924.jpg	NY	Left	No	0.668075800000224	0	211001	252
414.173828125	0.668075800000224	decision	choicePhaseStart	1	36	36	foodImage.116	FOODEEG_Images\0924.jpg	NY	Left	No	0.668075800000224	0	212058	253
414.83203125	0	decision	response	1	36	36	foodImage.116	FOODEEG_Images\0924.jpg	NY	Left	No	0.668075800000224	0	212395	234
415.87109375	1	health	trialStart	1	37	37	foodImage.10	FOODEEG_Images\0145.jpg	YN	Right	No	0.592034500004956	0	212927	251
416.9296875	2	health	foodImageDisplay	1	37	37	foodImage.10	FOODEEG_Images\0145.jpg	YN	Right	No	0.592034500004956	0	213469	252
418.9921875	0.592034500004956	health	choicePhaseStart	1	37	37	foodImage.10	FOODEEG_Images\0145.jpg	YN	Right	No	0.592034500004956	0	214525	253
419.576171875	0	health	response	1	37	37	foodImage.10	FOODEEG_Images\0145.jpg	YN	Right	No	0.592034500004956	0	214824	235
420.62109375	1	taste	trialStart	1	38	38	foodImage.88	FOODEEG_Images\0878.jpg	YN	Left	Yes	0.847660799998266	0	215359	251
421.673828125	2	taste	foodImageDisplay	1	38	38	foodImage.88	FOODEEG_Images\0878.jpg	YN	Left	Yes	0.847660799998266	0	215898	252
423.736328125	0.847660799998266	taste	choicePhaseStart	1	38	38	foodImage.88	FOODEEG_Images\0878.jpg	YN	Left	Yes	0.847660799998266	0	216954	253
424.57421875	0	taste	response	1	38	38	foodImage.88	FOODEEG_Images\0878.jpg	YN	Left	Yes	0.847660799998266	0	217383	234
425.615234375	1	decision	trialStart	1	39	39	foodImage.16	FOODEEG_Images\0196.jpg	NY	Right	Yes	0.901106900004379	0	217916	251
426.673828125	2	decision	foodImageDisplay	1	39	39	foodImage.16	FOODEEG_Images\0196.jpg	NY	Right	Yes	0.901106900004379	0	218458	252
428.73828125	0.901106900004379	decision	choicePhaseStart	1	39	39	foodImage.16	FOODEEG_Images\0196.jpg	NY	Right	Yes	0.901106900004379	0	219515	253
429.630859375	0	decision	response	1	39	39	foodImage.16	FOODEEG_Images\0196.jpg	NY	Right	Yes	0.901106900004379	0	219972	235
430.673828125	1	taste	trialStart	1	40	40	foodImage.101	FOODEEG_Images\0909.jpg	YN	Right	No	1.19572229999903	0	220506	251
431.712890625	2	taste	foodImageDisplay	1	40	40	foodImage.101	FOODEEG_Images\0909.jpg	YN	Right	No	1.19572229999903	0	221038	252
433.78125	1.19572229999903	taste	choicePhaseStart	1	40	40	foodImage.101	FOODEEG_Images\0909.jpg	YN	Right	No	1.19572229999903	0	222097	253
434.966796875	0	taste	response	1	40	40	foodImage.101	FOODEEG_Images\0909.jpg	YN	Right	No	1.19572229999903	0	222704	235
436.009765625	1	health	trialStart	1	41	41	foodImage.112	FOODEEG_Images\0920.jpg	YN	Left	Yes	0.687285899999551	0	223238	251
437.046875	2	health	foodImageDisplay	1	41	41	foodImage.112	FOODEEG_Images\0920.jpg	YN	Left	Yes	0.687285899999551	0	223769	252
439.11328125	0.687285899999551	health	choicePhaseStart	1	41	41	foodImage.112	FOODEEG_Images\0920.jpg	YN	Left	Yes	0.687285899999551	0	224827	253
439.791015625	0	health	response	1	41	41	foodImage.112	FOODEEG_Images\0920.jpg	YN	Left	Yes	0.687285899999551	0	225174	234
440.83203125	1	health	trialStart	1	42	42	foodImage.85	FOODEEG_Images\0841.jpg	YN	Right	No	0.891153699994902	0	225707	251
441.890625	2	health	foodImageDisplay	1	42	42	foodImage.85	FOODEEG_Images\0841.jpg	YN	Right	No	0.891153699994902	0	226249	252
443.955078125	0.891153699994902	health	choicePhaseStart	1	42	42	foodImage.85	FOODEEG_Images\0841.jpg	YN	Right	No	0.891153699994902	0	227306	253
444.837890625	0	health	response	1	42	42	foodImage.85	FOODEEG_Images\0841.jpg	YN	Right	No	0.891153699994902	0	227758	235
445.87890625	1	decision	trialStart	1	43	43	foodImage.5	FOODEEG_Images\0107.jpg	NY	Left	No	0.552904899996065	0	228291	251
446.93359375	2	decision	foodImageDisplay	1	43	43	foodImage.5	FOODEEG_Images\0107.jpg	NY	Left	No	0.552904899996065	0	228831	252
448.998046875	0.552904899996065	decision	choicePhaseStart	1	43	43	foodImage.5	FOODEEG_Images\0107.jpg	NY	Left	No	0.552904899996065	0	229888	253
449.54296875	0	decision	response	1	43	43	foodImage.5	FOODEEG_Images\0107.jpg	NY	Left	No	0.552904899996065	0	230167	234
450.583984375	1	health	trialStart	1	44	44	foodImage.16	FOODEEG_Images\0196.jpg	YN	Left	Yes	0.500333399999363	0	230700	251
451.642578125	2	health	foodImageDisplay	1	44	44	foodImage.16	FOODEEG_Images\0196.jpg	YN	Left	Yes	0.500333399999363	0	231242	252
453.70703125	0.500333399999363	health	choicePhaseStart	1	44	44	foodImage.16	FOODEEG_Images\0196.jpg	YN	Left	Yes	0.500333399999363	0	232299	253
454.197265625	0	health	response	1	44	44	foodImage.16	FOODEEG_Images\0196.jpg	YN	Left	Yes	0.500333399999363	0	232550	234
455.240234375	1	taste	trialStart	1	45	45	foodImage.95	FOODEEG_Images\0903.jpg	NY	Left	No	0.853427800000645	0	233084	251
456.279296875	2	taste	foodImageDisplay	1	45	45	foodImage.95	FOODEEG_Images\0903.jpg	NY	Left	No	0.853427800000645	0	233616	252
458.341796875	0.853427800000645	taste	choicePhaseStart	1	45	45	foodImage.95	FOODEEG_Images\0903.jpg	NY	Left	No	0.853427800000645	0	234672	253
459.189453125	0	taste	response	1	45	45	foodImage.95	FOODEEG_Images\0903.jpg	NY	Left	No	0.853427800000645	0	235106	234
460.232421875	1	decision	trialStart	1	46	46	foodImage.27	FOODEEG_Images\0263.jpg	YN	Left	Yes	0.876133199999458	0	235640	251
461.2734375	2	decision	foodImageDisplay	1	46	46	foodImage.27	FOODEEG_Images\0263.jpg	YN	Left	Yes	0.876133199999458	0	236173	252
463.337890625	0.876133199999458	decision	choicePhaseStart	1	46	46	foodImage.27	FOODEEG_Images\0263.jpg	YN	Left	Yes	0.876133199999458	0	237230	253
464.205078125	0	decision	response	1	46	46	foodImage.27	FOODEEG_Images\0263.jpg	YN	Left	Yes	0.876133199999458	0	237674	234
465.24609375	1	decision	trialStart	1	47	47	foodImage.95	FOODEEG_Images\0903.jpg	NY	Left	No	1.48245839999436	0	238207	251
466.283203125	2	decision	foodImageDisplay	1	47	47	foodImage.95	FOODEEG_Images\0903.jpg	NY	Left	No	1.48245839999436	0	238738	252
468.34765625	1.48245839999436	decision	choicePhaseStart	1	47	47	foodImage.95	FOODEEG_Images\0903.jpg	NY	Left	No	1.48245839999436	0	239795	253
469.8203125	0	decision	response	1	47	47	foodImage.95	FOODEEG_Images\0903.jpg	NY	Left	No	1.48245839999436	0	240549	234
470.86328125	1	taste	trialStart	1	48	48	foodImage.3	FOODEEG_Images\0046.jpg	YN	Left	Yes	0.625175400004082	0	241083	251
471.90625	2	taste	foodImageDisplay	1	48	48	foodImage.3	FOODEEG_Images\0046.jpg	YN	Left	Yes	0.625175400004082	0	241617	252
473.970703125	0.625175400004082	taste	choicePhaseStart	1	48	48	foodImage.3	FOODEEG_Images\0046.jpg	YN	Left	Yes	0.625175400004082	0	242674	253
474.587890625	0	taste	response	1	48	48	foodImage.3	FOODEEG_Images\0046.jpg	YN	Left	Yes	0.625175400004082	0	242990	234
475.630859375	1	taste	trialStart	1	49	49	foodImage.31	FOODEEG_Images\0294.jpg	NY	Right	Yes	1.14263039999787	0	243524	251
476.671875	2	taste	foodImageDisplay	1	49	49	foodImage.31	FOODEEG_Images\0294.jpg	NY	Right	Yes	1.14263039999787	0	244057	252
478.736328125	1.14263039999787	taste	choicePhaseStart	1	49	49	foodImage.31	FOODEEG_Images\0294.jpg	NY	Right	Yes	1.14263039999787	0	245114	253
479.869140625	0	taste	response	1	49	49	foodImage.31	FOODEEG_Images\0294.jpg	NY	Right	Yes	1.14263039999787	0	245694	235
480.91015625	1	health	trialStart	1	50	50	foodImage.100	FOODEEG_Images\0908.jpg	NY	Left	No	2.49517959999503	0	246227	251
481.947265625	2	health	foodImageDisplay	1	50	50	foodImage.100	FOODEEG_Images\0908.jpg	NY	Left	No	2.49517959999503	0	246758	252
484.01171875	2.49517959999503	health	choicePhaseStart	1	50	50	foodImage.100	FOODEEG_Images\0908.jpg	NY	Left	No	2.49517959999503	0	247815	253
486.5	0	health	response	1	50	50	foodImage.100	FOODEEG_Images\0908.jpg	NY	Left	No	2.49517959999503	0	249089	234
487.541015625	1	decision	trialStart	1	51	51	foodImage.71	FOODEEG_Images\0713.jpg	NY	Right	Yes	0.65654359999462	0	249622	251
488.583984375	2	decision	foodImageDisplay	1	51	51	foodImage.71	FOODEEG_Images\0713.jpg	NY	Right	Yes	0.65654359999462	0	250156	252
490.65234375	0.65654359999462	decision	choicePhaseStart	1	51	51	foodImage.71	FOODEEG_Images\0713.jpg	NY	Right	Yes	0.65654359999462	0	251215	253
491.30078125	0	decision	response	1	51	51	foodImage.71	FOODEEG_Images\0713.jpg	NY	Right	Yes	0.65654359999462	0	251547	235
492.341796875	1	taste	trialStart	1	52	52	foodImage.113	FOODEEG_Images\0921.jpg	NY	Left	No	0.672840999999607	0	252080	251
493.380859375	2	taste	foodImageDisplay	1	52	52	foodImage.113	FOODEEG_Images\0921.jpg	NY	Left	No	0.672840999999607	0	252612	252
495.451171875	0.672840999999607	taste	choicePhaseStart	1	52	52	foodImage.113	FOODEEG_Images\0921.jpg	NY	Left	No	0.672840999999607	0	253672	253
496.115234375	0	taste	response	1	52	52	foodImage.113	FOODEEG_Images\0921.jpg	NY	Left	No	0.672840999999607	0	254012	234
497.16015625	1	decision	trialStart	1	53	53	foodImage.40	FOODEEG_Images\0373.jpg	YN	Left	Yes	3.43452600000455	0	254547	251
498.201171875	2	decision	foodImageDisplay	1	53	53	foodImage.40	FOODEEG_Images\0373.jpg	YN	Left	Yes	3.43452600000455	0	255080	252
500.265625	3.43452600000455	decision	choicePhaseStart	1	53	53	foodImage.40	FOODEEG_Images\0373.jpg	YN	Left	Yes	3.43452600000455	0	256137	253
503.69140625	0	decision	response	1	53	53	foodImage.40	FOODEEG_Images\0373.jpg	YN	Left	Yes	3.43452600000455	0	257891	234
504.734375	1	health	trialStart	1	54	54	foodImage.8	FOODEEG_Images\0136.jpg	YN	Right	No	0.754843499998969	0	258425	251
505.775390625	2	health	foodImageDisplay	1	54	54	foodImage.8	FOODEEG_Images\0136.jpg	YN	Right	No	0.754843499998969	0	258958	252
507.83984375	0.754843499998969	health	choicePhaseStart	1	54	54	foodImage.8	FOODEEG_Images\0136.jpg	YN	Right	No	0.754843499998969	0	260015	253
508.587890625	0	health	response	1	54	54	foodImage.8	FOODEEG_Images\0136.jpg	YN	Right	No	0.754843499998969	0	260398	235
509.62890625	1	taste	trialStart	1	55	55	foodImage.118	FOODEEG_Images\0926.jpg	NY	Left	No	0.616659899998922	0	260931	251
510.66796875	2	taste	foodImageDisplay	1	55	55	foodImage.118	FOODEEG_Images\0926.jpg	NY	Left	No	0.616659899998922	0	261463	252
512.732421875	0.616659899998922	taste	choicePhaseStart	1	55	55	foodImage.118	FOODEEG_Images\0926.jpg	NY	Left	No	0.616659899998922	0	262520	253
513.33984375	0	taste	response	1	55	55	foodImage.118	FOODEEG_Images\0926.jpg	NY	Left	No	0.616659899998922	0	262831	234
514.3828125	1	health	trialStart	1	56	56	foodImage.99	FOODEEG_Images\0907.jpg	YN	Right	No	1.28029190000234	0	263365	251
515.421875	2	health	foodImageDisplay	1	56	56	foodImage.99	FOODEEG_Images\0907.jpg	YN	Right	No	1.28029190000234	0	263897	252
517.484375	1.28029190000234	health	choicePhaseStart	1	56	56	foodImage.99	FOODEEG_Images\0907.jpg	YN	Right	No	1.28029190000234	0	264953	253
518.755859375	0	health	response	1	56	56	foodImage.99	FOODEEG_Images\0907.jpg	YN	Right	No	1.28029190000234	0	265604	235
519.798828125	1	decision	trialStart	1	57	57	foodImage.62	FOODEEG_Images\0644.jpg	NY	Right	Yes	0.876393499995174	0	266138	251
520.85546875	2	decision	foodImageDisplay	1	57	57	foodImage.62	FOODEEG_Images\0644.jpg	NY	Right	Yes	0.876393499995174	0	266679	252
522.919921875	0.876393499995174	decision	choicePhaseStart	1	57	57	foodImage.62	FOODEEG_Images\0644.jpg	NY	Right	Yes	0.876393499995174	0	267736	253
523.787109375	0	decision	response	1	57	57	foodImage.62	FOODEEG_Images\0644.jpg	NY	Right	Yes	0.876393499995174	0	268180	235
524.830078125	1	health	trialStart	1	58	58	foodImage.76	FOODEEG_Images\0766.jpg	NY	Right	Yes	0.584831399995892	0	268714	251
525.875	2	health	foodImageDisplay	1	58	58	foodImage.76	FOODEEG_Images\0766.jpg	NY	Right	Yes	0.584831399995892	0	269249	252
527.939453125	0.584831399995892	health	choicePhaseStart	1	58	58	foodImage.76	FOODEEG_Images\0766.jpg	NY	Right	Yes	0.584831399995892	0	270306	253
528.515625	0	health	response	1	58	58	foodImage.76	FOODEEG_Images\0766.jpg	NY	Right	Yes	0.584831399995892	0	270601	235
529.5625	1	health	trialStart	1	59	59	foodImage.87	FOODEEG_Images\0873.jpg	NY	Right	Yes	1.05622939999739	0	271137	251
530.619140625	2	health	foodImageDisplay	1	59	59	foodImage.87	FOODEEG_Images\0873.jpg	NY	Right	Yes	1.05622939999739	0	271678	252
532.68359375	1.05622939999739	health	choicePhaseStart	1	59	59	foodImage.87	FOODEEG_Images\0873.jpg	NY	Right	Yes	1.05622939999739	0	272735	253
533.73046875	0	health	response	1	59	59	foodImage.87	FOODEEG_Images\0873.jpg	NY	Right	Yes	1.05622939999739	0	273271	235
534.7734375	1	taste	trialStart	1	60	60	foodImage.92	FOODEEG_Images\0900.jpg	YN	Right	No	0.756517900001199	0	273805	251
535.8125	2	taste	foodImageDisplay	1	60	60	foodImage.92	FOODEEG_Images\0900.jpg	YN	Right	No	0.756517900001199	0	274337	252
537.876953125	0.756517900001199	taste	choicePhaseStart	1	60	60	foodImage.92	FOODEEG_Images\0900.jpg	YN	Right	No	0.756517900001199	0	275394	253
538.626953125	0	taste	response	1	60	60	foodImage.92	FOODEEG_Images\0900.jpg	YN	Right	No	0.756517900001199	0	275778	235
540.666015625	18.431640625	n/a	blockEnd	n/a	n/a	n/a	n/a	n/a	n/a	n/a	n/a	n/a	n/a	276822	254
559.09765625	2	n/a	blockStart	2	n/a	n/a	n/a	n/a	n/a	n/a	n/a	n/a	n/a	286259	250
561.12890625	1	decision	trialStart	2	61	1	foodImage.87	FOODEEG_Images\0873.jpg	YN	Right	No	0.899689199999557	0	287299	251
562.189453125	2	decision	foodImageDisplay	2	61	1	foodImage.87	FOODEEG_Images\0873.jpg	YN	Right	No	0.899689199999557	0	287842	252
564.25390625	0.899689199999557	decision	choicePhaseStart	2	61	1	foodImage.87	FOODEEG_Images\0873.jpg	YN	Right	No	0.899689199999557	0	288899	253
565.14453125	0	decision	response	2	61	1	foodImage.87	FOODEEG_Images\0873.jpg	YN	Right	No	0.899689199999557	0	289355	235
566.189453125	1	health	trialStart	2	62	2	foodImage.61	FOODEEG_Images\0640.jpg	YN	Left	Yes	0.579683600000862	0	289890	251
567.232421875	2	health	foodImageDisplay	2	62	2	foodImage.61	FOODEEG_Images\0640.jpg	YN	Left	Yes	0.579683600000862	0	290424	252
569.294921875	0.579683600000862	health	choicePhaseStart	2	62	2	foodImage.61	FOODEEG_Images\0640.jpg	YN	Left	Yes	0.579683600000862	0	291480	253
569.865234375	0	health	response	2	62	2	foodImage.61	FOODEEG_Images\0640.jpg	YN	Left	Yes	0.579683600000862	0	291772	234
570.90625	1	decision	trialStart	2	63	3	foodImage.59	FOODEEG_Images\0607.jpg	YN	Left	Yes	1.77087929999834	0	292305	251
571.953125	2	decision	foodImageDisplay	2	63	3	foodImage.59	FOODEEG_Images\0607.jpg	YN	Left	Yes	1.77087929999834	0	292841	252
574.015625	1.77087929999834	decision	choicePhaseStart	2	63	3	foodImage.59	FOODEEG_Images\0607.jpg	YN	Left	Yes	1.77087929999834	0	293897	253
575.77734375	0	decision	response	2	63	3	foodImage.59	FOODEEG_Images\0607.jpg	YN	Left	Yes	1.77087929999834	0	294799	234
576.828125	1	taste	trialStart	2	64	4	foodImage.35	FOODEEG_Images\0350.jpg	NY	Right	Yes	0.593795900000259	0	295337	251
577.865234375	2	taste	foodImageDisplay	2	64	4	foodImage.35	FOODEEG_Images\0350.jpg	NY	Right	Yes	0.593795900000259	0	295868	252
579.9296875	0.593795900000259	taste	choicePhaseStart	2	64	4	foodImage.35	FOODEEG_Images\0350.jpg	NY	Right	Yes	0.593795900000259	0	296925	253
580.513671875	0	taste	response	2	64	4	foodImage.35	FOODEEG_Images\0350.jpg	NY	Right	Yes	0.593795900000259	0	297224	235
581.5546875	1	taste	trialStart	2	65	5	foodImage.44	FOODEEG_Images\0459.jpg	YN	Left	Yes	0.485279100001208	0	297757	251
582.6015625	2	taste	foodImageDisplay	2	65	5	foodImage.44	FOODEEG_Images\0459.jpg	YN	Left	Yes	0.485279100001208	0	298293	252
584.666015625	0.485279100001208	taste	choicePhaseStart	2	65	5	foodImage.44	FOODEEG_Images\0459.jpg	YN	Left	Yes	0.485279100001208	0	299350	253
585.14453125	0	taste	response	2	65	5	foodImage.44	FOODEEG_Images\0459.jpg	YN	Left	Yes	0.485279100001208	0	299595	234
586.1875	1	decision	trialStart	2	66	6	foodImage.20	FOODEEG_Images\0226.jpg	NY	Left	No	1.79058200000145	0	300129	251
587.2265625	2	decision	foodImageDisplay	2	66	6	foodImage.20	FOODEEG_Images\0226.jpg	NY	Left	No	1.79058200000145	0	300661	252
589.291015625	1.79058200000145	decision	choicePhaseStart	2	66	6	foodImage.20	FOODEEG_Images\0226.jpg	NY	Left	No	1.79058200000145	0	301718	253
591.072265625	0	decision	response	2	66	6	foodImage.20	FOODEEG_Images\0226.jpg	NY	Left	No	1.79058200000145	0	302630	234
592.1171875	1	health	trialStart	2	67	7	foodImage.37	FOODEEG_Images\0359.jpg	YN	Left	Yes	0.535810299996228	0	303165	251
593.166015625	2	health	foodImageDisplay	2	67	7	foodImage.37	FOODEEG_Images\0359.jpg	YN	Left	Yes	0.535810299996228	0	303702	252
595.234375	0.535810299996228	health	choicePhaseStart	2	67	7	foodImage.37	FOODEEG_Images\0359.jpg	YN	Left	Yes	0.535810299996228	0	304761	253
595.759765625	0	health	response	2	67	7	foodImage.37	FOODEEG_Images\0359.jpg	YN	Left	Yes	0.535810299996228	0	305030	234
596.80078125	1	health	trialStart	2	68	8	foodImage.69	FOODEEG_Images\0693.jpg	NY	Right	Yes	0.704205900001398	0	305563	251
597.841796875	2	health	foodImageDisplay	2	68	8	foodImage.69	FOODEEG_Images\0693.jpg	NY	Right	Yes	0.704205900001398	0	306096	252
599.912109375	0.704205900001398	health	choicePhaseStart	2	68	8	foodImage.69	FOODEEG_Images\0693.jpg	NY	Right	Yes	0.704205900001398	0	307156	253
600.607421875	0	health	response	2	68	8	foodImage.69	FOODEEG_Images\0693.jpg	NY	Right	Yes	0.704205900001398	0	307512	235
601.650390625	1	health	trialStart	2	69	9	foodImage.9	FOODEEG_Images\0138.jpg	YN	Right	No	0.836815000002389	0	308046	251
602.708984375	2	health	foodImageDisplay	2	69	9	foodImage.9	FOODEEG_Images\0138.jpg	YN	Right	No	0.836815000002389	0	308588	252
604.771484375	0.836815000002389	health	choicePhaseStart	2	69	9	foodImage.9	FOODEEG_Images\0138.jpg	YN	Right	No	0.836815000002389	0	309644	253
605.599609375	0	health	response	2	69	9	foodImage.9	FOODEEG_Images\0138.jpg	YN	Right	No	0.836815000002389	0	310068	235
606.64453125	1	decision	trialStart	2	70	10	foodImage.52	FOODEEG_Images\0539.jpg	YN	Right	No	1.6581737000015	0	310603	251
607.703125	2	decision	foodImageDisplay	2	70	10	foodImage.52	FOODEEG_Images\0539.jpg	YN	Right	No	1.6581737000015	0	311145	252
609.765625	1.6581737000015	decision	choicePhaseStart	2	70	10	foodImage.52	FOODEEG_Images\0539.jpg	YN	Right	No	1.6581737000015	0	312201	253
611.416015625	0	decision	response	2	70	10	foodImage.52	FOODEEG_Images\0539.jpg	YN	Right	No	1.6581737000015	0	313046	235
612.458984375	1	taste	trialStart	2	71	11	foodImage.116	FOODEEG_Images\0924.jpg	YN	Right	No	1.4465549000015	0	313580	251
613.498046875	2	taste	foodImageDisplay	2	71	11	foodImage.116	FOODEEG_Images\0924.jpg	YN	Right	No	1.4465549000015	0	314112	252
615.5625	1.4465549000015	taste	choicePhaseStart	2	71	11	foodImage.116	FOODEEG_Images\0924.jpg	YN	Right	No	1.4465549000015	0	315169	253
617	0	taste	response	2	71	11	foodImage.116	FOODEEG_Images\0924.jpg	YN	Right	No	1.4465549000015	0	315905	235
618.04296875	1	health	trialStart	2	72	12	foodImage.97	FOODEEG_Images\0905.jpg	YN	Right	No	0.807600000000093	0	316439	251
619.08203125	2	health	foodImageDisplay	2	72	12	foodImage.97	FOODEEG_Images\0905.jpg	YN	Right	No	0.807600000000093	0	316971	252
621.14453125	0.807600000000093	health	choicePhaseStart	2	72	12	foodImage.97	FOODEEG_Images\0905.jpg	YN	Right	No	0.807600000000093	0	318027	253
621.943359375	0	health	response	2	72	12	foodImage.97	FOODEEG_Images\0905.jpg	YN	Right	No	0.807600000000093	0	318436	235
622.9921875	1	taste	trialStart	2	73	13	foodImage.46	FOODEEG_Images\0479.jpg	NY	Right	Yes	0.774295600000187	0	318973	251
624.048828125	2	taste	foodImageDisplay	2	73	13	foodImage.46	FOODEEG_Images\0479.jpg	NY	Right	Yes	0.774295600000187	0	319514	252
626.111328125	0.774295600000187	taste	choicePhaseStart	2	73	13	foodImage.46	FOODEEG_Images\0479.jpg	NY	Right	Yes	0.774295600000187	0	320570	253
626.87890625	0	taste	response	2	73	13	foodImage.46	FOODEEG_Images\0479.jpg	NY	Right	Yes	0.774295600000187	0	320963	235
627.927734375	1	taste	trialStart	2	74	14	foodImage.47	FOODEEG_Images\0488.jpg	NY	Right	Yes	0.469471699994756	0	321500	251
628.96875	2	taste	foodImageDisplay	2	74	14	foodImage.47	FOODEEG_Images\0488.jpg	NY	Right	Yes	0.469471699994756	0	322033	252
631.03125	0.469471699994756	taste	choicePhaseStart	2	74	14	foodImage.47	FOODEEG_Images\0488.jpg	NY	Right	Yes	0.469471699994756	0	323089	253
631.494140625	0	taste	response	2	74	14	foodImage.47	FOODEEG_Images\0488.jpg	NY	Right	Yes	0.469471699994756	0	323326	235
632.537109375	1	health	trialStart	2	75	15	foodImage.11	FOODEEG_Images\0180.jpg	YN	Left	Yes	2.40616470000532	0	323860	251
633.578125	2	health	foodImageDisplay	2	75	15	foodImage.11	FOODEEG_Images\0180.jpg	YN	Left	Yes	2.40616470000532	0	324393	252
635.642578125	2.40616470000532	health	choicePhaseStart	2	75	15	foodImage.11	FOODEEG_Images\0180.jpg	YN	Left	Yes	2.40616470000532	0	325450	253
638.0390625	0	health	response	2	75	15	foodImage.11	FOODEEG_Images\0180.jpg	YN	Left	Yes	2.40616470000532	0	326677	234
639.08203125	1	taste	trialStart	2	76	16	foodImage.16	FOODEEG_Images\0196.jpg	YN	Right	No	1.32995949999895	0	327211	251
640.140625	2	taste	foodImageDisplay	2	76	16	foodImage.16	FOODEEG_Images\0196.jpg	YN	Right	No	1.32995949999895	0	327753	252
642.203125	1.32995949999895	taste	choicePhaseStart	2	76	16	foodImage.16	FOODEEG_Images\0196.jpg	YN	Right	No	1.32995949999895	0	328809	253
643.52734375	0	taste	response	2	76	16	foodImage.16	FOODEEG_Images\0196.jpg	YN	Right	No	1.32995949999895	0	329487	235
644.5703125	1	taste	trialStart	2	77	17	foodImage.120	FOODEEG_Images\0928.jpg	YN	Right	No	0.641571699998167	0	330021	251
645.607421875	2	taste	foodImageDisplay	2	77	17	foodImage.120	FOODEEG_Images\0928.jpg	YN	Right	No	0.641571699998167	0	330552	252
647.67578125	0.641571699998167	taste	choicePhaseStart	2	77	17	foodImage.120	FOODEEG_Images\0928.jpg	YN	Right	No	0.641571699998167	0	331611	253
648.310546875	0	taste	response	2	77	17	foodImage.120	FOODEEG_Images\0928.jpg	YN	Right	No	0.641571699998167	0	331936	235
649.3515625	1	taste	trialStart	2	78	18	foodImage.62	FOODEEG_Images\0644.jpg	YN	Left	Yes	0.691676399997959	0	332469	251
650.412109375	2	taste	foodImageDisplay	2	78	18	foodImage.62	FOODEEG_Images\0644.jpg	YN	Left	Yes	0.691676399997959	0	333012	252
652.474609375	0.691676399997959	taste	choicePhaseStart	2	78	18	foodImage.62	FOODEEG_Images\0644.jpg	YN	Left	Yes	0.691676399997959	0	334068	253
653.158203125	0	taste	response	2	78	18	foodImage.62	FOODEEG_Images\0644.jpg	YN	Left	Yes	0.691676399997959	0	334418	234
654.19921875	1	health	trialStart	2	79	19	foodImage.86	FOODEEG_Images\0844.jpg	YN	Right	No	0.759470600001805	0	334951	251
655.255859375	2	health	foodImageDisplay	2	79	19	foodImage.86	FOODEEG_Images\0844.jpg	YN	Right	No	0.759470600001805	0	335492	252
657.3203125	0.759470600001805	health	choicePhaseStart	2	79	19	foodImage.86	FOODEEG_Images\0844.jpg	YN	Right	No	0.759470600001805	0	336549	253
658.0703125	0	health	response	2	79	19	foodImage.86	FOODEEG_Images\0844.jpg	YN	Right	No	0.759470600001805	0	336933	235
659.111328125	1	taste	trialStart	2	80	20	foodImage.15	FOODEEG_Images\0189.jpg	NY	Right	Yes	0.498151599997072	0	337466	251
660.173828125	2	taste	foodImageDisplay	2	80	20	foodImage.15	FOODEEG_Images\0189.jpg	NY	Right	Yes	0.498151599997072	0	338010	252
662.236328125	0.498151599997072	taste	choicePhaseStart	2	80	20	foodImage.15	FOODEEG_Images\0189.jpg	NY	Right	Yes	0.498151599997072	0	339066	253
662.7265625	0	taste	response	2	80	20	foodImage.15	FOODEEG_Images\0189.jpg	NY	Right	Yes	0.498151599997072	0	339317	235
663.767578125	1	decision	trialStart	2	81	21	foodImage.115	FOODEEG_Images\0923.jpg	YN	Right	No	0.529806799997459	0	339850	251
664.806640625	2	decision	foodImageDisplay	2	81	21	foodImage.115	FOODEEG_Images\0923.jpg	YN	Right	No	0.529806799997459	0	340382	252
666.869140625	0.529806799997459	decision	choicePhaseStart	2	81	21	foodImage.115	FOODEEG_Images\0923.jpg	YN	Right	No	0.529806799997459	0	341438	253
667.388671875	0	decision	response	2	81	21	foodImage.115	FOODEEG_Images\0923.jpg	YN	Right	No	0.529806799997459	0	341704	235
668.431640625	1	decision	trialStart	2	82	22	foodImage.61	FOODEEG_Images\0640.jpg	YN	Left	Yes	1.81779310000275	0	342238	251
669.474609375	2	decision	foodImageDisplay	2	82	22	foodImage.61	FOODEEG_Images\0640.jpg	YN	Left	Yes	1.81779310000275	0	342772	252
671.537109375	1.81779310000275	decision	choicePhaseStart	2	82	22	foodImage.61	FOODEEG_Images\0640.jpg	YN	Left	Yes	1.81779310000275	0	343828	253
673.349609375	0	decision	response	2	82	22	foodImage.61	FOODEEG_Images\0640.jpg	YN	Left	Yes	1.81779310000275	0	344756	234
674.3984375	1	health	trialStart	2	83	23	foodImage.98	FOODEEG_Images\0906.jpg	NY	Right	Yes	1.16199010000128	0	345293	251
675.4375	2	health	foodImageDisplay	2	83	23	foodImage.98	FOODEEG_Images\0906.jpg	NY	Right	Yes	1.16199010000128	0	345825	252
677.5	1.16199010000128	health	choicePhaseStart	2	83	23	foodImage.98	FOODEEG_Images\0906.jpg	NY	Right	Yes	1.16199010000128	0	346881	253
678.65234375	0	health	response	2	83	23	foodImage.98	FOODEEG_Images\0906.jpg	NY	Right	Yes	1.16199010000128	0	347471	235
679.6953125	1	decision	trialStart	2	84	24	foodImage.34	FOODEEG_Images\0339.jpg	NY	Right	Yes	0.750561200002267	0	348005	251
680.751953125	2	decision	foodImageDisplay	2	84	24	foodImage.34	FOODEEG_Images\0339.jpg	NY	Right	Yes	0.750561200002267	0	348546	252
682.81640625	0.750561200002267	decision	choicePhaseStart	2	84	24	foodImage.34	FOODEEG_Images\0339.jpg	NY	Right	Yes	0.750561200002267	0	349603	253
683.556640625	0	decision	response	2	84	24	foodImage.34	FOODEEG_Images\0339.jpg	NY	Right	Yes	0.750561200002267	0	349982	235
684.599609375	1	decision	trialStart	2	85	25	foodImage.73	FOODEEG_Images\0717.jpg	NY	Right	Yes	0.432327200003783	0	350516	251
685.65625	2	decision	foodImageDisplay	2	85	25	foodImage.73	FOODEEG_Images\0717.jpg	NY	Right	Yes	0.432327200003783	0	351057	252
687.71875	0.432327200003783	decision	choicePhaseStart	2	85	25	foodImage.73	FOODEEG_Images\0717.jpg	NY	Right	Yes	0.432327200003783	0	352113	253
688.140625	0	decision	response	2	85	25	foodImage.73	FOODEEG_Images\0717.jpg	NY	Right	Yes	0.432327200003783	0	352329	235
689.1875	1	taste	trialStart	2	86	26	foodImage.79	FOODEEG_Images\0794.jpg	YN	Left	Yes	0.901194300000498	0	352865	251
690.232421875	2	taste	foodImageDisplay	2	86	26	foodImage.79	FOODEEG_Images\0794.jpg	YN	Left	Yes	0.901194300000498	0	353400	252
692.296875	0.901194300000498	taste	choicePhaseStart	2	86	26	foodImage.79	FOODEEG_Images\0794.jpg	YN	Left	Yes	0.901194300000498	0	354457	253
693.1875	0	taste	response	2	86	26	foodImage.79	FOODEEG_Images\0794.jpg	YN	Left	Yes	0.901194300000498	0	354913	234
694.236328125	1	decision	trialStart	2	87	27	foodImage.7	FOODEEG_Images\0116.jpg	YN	Left	Yes	0.510741500002041	0	355450	251
695.279296875	2	decision	foodImageDisplay	2	87	27	foodImage.7	FOODEEG_Images\0116.jpg	YN	Left	Yes	0.510741500002041	0	355984	252
697.34375	0.510741500002041	decision	choicePhaseStart	2	87	27	foodImage.7	FOODEEG_Images\0116.jpg	YN	Left	Yes	0.510741500002041	0	357041	253
697.84375	0	decision	response	2	87	27	foodImage.7	FOODEEG_Images\0116.jpg	YN	Left	Yes	0.510741500002041	0	357297	234
698.8984375	1	taste	trialStart	2	88	28	foodImage.49	FOODEEG_Images\0515.jpg	NY	Right	Yes	0.592157699997188	0	357837	251
699.94140625	2	taste	foodImageDisplay	2	88	28	foodImage.49	FOODEEG_Images\0515.jpg	NY	Right	Yes	0.592157699997188	0	358371	252
702.005859375	0.592157699997188	taste	choicePhaseStart	2	88	28	foodImage.49	FOODEEG_Images\0515.jpg	NY	Right	Yes	0.592157699997188	0	359428	253
702.587890625	0	taste	response	2	88	28	foodImage.49	FOODEEG_Images\0515.jpg	NY	Right	Yes	0.592157699997188	0	359726	235
703.630859375	1	taste	trialStart	2	89	29	foodImage.13	FOODEEG_Images\0183.jpg	YN	Left	Yes	1.04531399999541	0	360260	251
704.671875	2	taste	foodImageDisplay	2	89	29	foodImage.13	FOODEEG_Images\0183.jpg	YN	Left	Yes	1.04531399999541	0	360793	252
706.736328125	1.04531399999541	taste	choicePhaseStart	2	89	29	foodImage.13	FOODEEG_Images\0183.jpg	YN	Left	Yes	1.04531399999541	0	361850	253
707.771484375	0	taste	response	2	89	29	foodImage.13	FOODEEG_Images\0183.jpg	YN	Left	Yes	1.04531399999541	0	362380	234
708.814453125	1	taste	trialStart	2	90	30	foodImage.105	FOODEEG_Images\0913.jpg	YN	Right	No	0.576045100002375	0	362914	251
709.853515625	2	taste	foodImageDisplay	2	90	30	foodImage.105	FOODEEG_Images\0913.jpg	YN	Right	No	0.576045100002375	0	363446	252
711.91796875	0.576045100002375	taste	choicePhaseStart	2	90	30	foodImage.105	FOODEEG_Images\0913.jpg	YN	Right	No	0.576045100002375	0	364503	253
712.484375	0	taste	response	2	90	30	foodImage.105	FOODEEG_Images\0913.jpg	YN	Right	No	0.576045100002375	0	364793	235
713.525390625	1	taste	trialStart	2	91	31	foodImage.34	FOODEEG_Images\0339.jpg	NY	Right	Yes	0.844584099999338	0	365326	251
714.583984375	2	taste	foodImageDisplay	2	91	31	foodImage.34	FOODEEG_Images\0339.jpg	NY	Right	Yes	0.844584099999338	0	365868	252
716.646484375	0.844584099999338	taste	choicePhaseStart	2	91	31	foodImage.34	FOODEEG_Images\0339.jpg	NY	Right	Yes	0.844584099999338	0	366924	253
717.482421875	0	taste	response	2	91	31	foodImage.34	FOODEEG_Images\0339.jpg	NY	Right	Yes	0.844584099999338	0	367352	235
718.525390625	1	decision	trialStart	2	92	32	foodImage.66	FOODEEG_Images\0676.jpg	NY	Right	Yes	0.915282299996761	0	367886	251
719.568359375	2	decision	foodImageDisplay	2	92	32	foodImage.66	FOODEEG_Images\0676.jpg	NY	Right	Yes	0.915282299996761	0	368420	252
721.6328125	0.915282299996761	decision	choicePhaseStart	2	92	32	foodImage.66	FOODEEG_Images\0676.jpg	NY	Right	Yes	0.915282299996761	0	369477	253
722.5390625	0	decision	response	2	92	32	foodImage.66	FOODEEG_Images\0676.jpg	NY	Right	Yes	0.915282299996761	0	369941	235
723.580078125	1	taste	trialStart	2	93	33	foodImage.112	FOODEEG_Images\0920.jpg	NY	Left	No	0.632689199999731	0	370474	251
724.619140625	2	taste	foodImageDisplay	2	93	33	foodImage.112	FOODEEG_Images\0920.jpg	NY	Left	No	0.632689199999731	0	371006	252
726.68359375	0.632689199999731	taste	choicePhaseStart	2	93	33	foodImage.112	FOODEEG_Images\0920.jpg	NY	Left	No	0.632689199999731	0	372063	253
727.306640625	0	taste	response	2	93	33	foodImage.112	FOODEEG_Images\0920.jpg	NY	Left	No	0.632689199999731	0	372382	234
728.353515625	1	taste	trialStart	2	94	34	foodImage.114	FOODEEG_Images\0922.jpg	YN	Right	No	0.743248799997673	0	372918	251
729.396484375	2	taste	foodImageDisplay	2	94	34	foodImage.114	FOODEEG_Images\0922.jpg	YN	Right	No	0.743248799997673	0	373452	252
731.46484375	0.743248799997673	taste	choicePhaseStart	2	94	34	foodImage.114	FOODEEG_Images\0922.jpg	YN	Right	No	0.743248799997673	0	374511	253
732.203125	0	taste	response	2	94	34	foodImage.114	FOODEEG_Images\0922.jpg	YN	Right	No	0.743248799997673	0	374889	235
733.251953125	1	health	trialStart	2	95	35	foodImage.12	FOODEEG_Images\0181.jpg	NY	Left	No	2.10249179999664	0	375426	251
734.294921875	2	health	foodImageDisplay	2	95	35	foodImage.12	FOODEEG_Images\0181.jpg	NY	Left	No	2.10249179999664	0	375960	252
736.357421875	2.10249179999664	health	choicePhaseStart	2	95	35	foodImage.12	FOODEEG_Images\0181.jpg	NY	Left	No	2.10249179999664	0	377016	253
738.451171875	0	health	response	2	95	35	foodImage.12	FOODEEG_Images\0181.jpg	NY	Left	No	2.10249179999664	0	378088	234
739.5	1	decision	trialStart	2	96	36	foodImage.56	FOODEEG_Images\0586.jpg	NY	Right	Yes	0.555903000000399	0	378625	251
740.54296875	2	decision	foodImageDisplay	2	96	36	foodImage.56	FOODEEG_Images\0586.jpg	NY	Right	Yes	0.555903000000399	0	379159	252
742.607421875	0.555903000000399	decision	choicePhaseStart	2	96	36	foodImage.56	FOODEEG_Images\0586.jpg	NY	Right	Yes	0.555903000000399	0	380216	253
743.154296875	0	decision	response	2	96	36	foodImage.56	FOODEEG_Images\0586.jpg	NY	Right	Yes	0.555903000000399	0	380496	235
744.197265625	1	taste	trialStart	2	97	37	foodImage.32	FOODEEG_Images\0319.jpg	YN	Left	Yes	1.46653420000075	0	381030	251
745.240234375	2	taste	foodImageDisplay	2	97	37	foodImage.32	FOODEEG_Images\0319.jpg	YN	Left	Yes	1.46653420000075	0	381564	252
747.3046875	1.46653420000075	taste	choicePhaseStart	2	97	37	foodImage.32	FOODEEG_Images\0319.jpg	YN	Left	Yes	1.46653420000075	0	382621	253
748.76171875	0	taste	response	2	97	37	foodImage.32	FOODEEG_Images\0319.jpg	YN	Left	Yes	1.46653420000075	0	383367	234
749.8046875	1	taste	trialStart	2	98	38	foodImage.117	FOODEEG_Images\0925.jpg	YN	Right	No	0.572336799996265	0	383901	251
750.8515625	2	taste	foodImageDisplay	2	98	38	foodImage.117	FOODEEG_Images\0925.jpg	YN	Right	No	0.572336799996265	0	384437	252
752.916015625	0.572336799996265	taste	choicePhaseStart	2	98	38	foodImage.117	FOODEEG_Images\0925.jpg	YN	Right	No	0.572336799996265	0	385494	253
753.482421875	0	taste	response	2	98	38	foodImage.117	FOODEEG_Images\0925.jpg	YN	Right	No	0.572336799996265	0	385784	235
754.529296875	1	health	trialStart	2	99	39	foodImage.42	FOODEEG_Images\0438.jpg	NY	Right	Yes	0.62142060000042	0	386320	251
755.619140625	2	health	foodImageDisplay	2	99	39	foodImage.42	FOODEEG_Images\0438.jpg	NY	Right	Yes	0.62142060000042	0	386878	252
757.685546875	0.62142060000042	health	choicePhaseStart	2	99	39	foodImage.42	FOODEEG_Images\0438.jpg	NY	Right	Yes	0.62142060000042	0	387936	253
758.298828125	0	health	response	2	99	39	foodImage.42	FOODEEG_Images\0438.jpg	NY	Right	Yes	0.62142060000042	0	388250	235
759.337890625	1	decision	trialStart	2	100	40	foodImage.51	FOODEEG_Images\0536.jpg	NY	Right	Yes	1.24562870000227	0	388782	251
760.380859375	2	decision	foodImageDisplay	2	100	40	foodImage.51	FOODEEG_Images\0536.jpg	NY	Right	Yes	1.24562870000227	0	389316	252
762.4453125	1.24562870000227	decision	choicePhaseStart	2	100	40	foodImage.51	FOODEEG_Images\0536.jpg	NY	Right	Yes	1.24562870000227	0	390373	253
763.681640625	0	decision	response	2	100	40	foodImage.51	FOODEEG_Images\0536.jpg	NY	Right	Yes	1.24562870000227	0	391006	235
764.724609375	1	decision	trialStart	2	101	41	foodImage.37	FOODEEG_Images\0359.jpg	NY	Right	Yes	0.547167500000796	0	391540	251
765.765625	2	decision	foodImageDisplay	2	101	41	foodImage.37	FOODEEG_Images\0359.jpg	NY	Right	Yes	0.547167500000796	0	392073	252
767.830078125	0.547167500000796	decision	choicePhaseStart	2	101	41	foodImage.37	FOODEEG_Images\0359.jpg	NY	Right	Yes	0.547167500000796	0	393130	253
768.369140625	0	decision	response	2	101	41	foodImage.37	FOODEEG_Images\0359.jpg	NY	Right	Yes	0.547167500000796	0	393406	235
769.412109375	1	decision	trialStart	2	102	42	foodImage.13	FOODEEG_Images\0183.jpg	YN	Left	Yes	1.24200759999803	0	393940	251
770.455078125	2	decision	foodImageDisplay	2	102	42	foodImage.13	FOODEEG_Images\0183.jpg	YN	Left	Yes	1.24200759999803	0	394474	252
772.51953125	1.24200759999803	decision	choicePhaseStart	2	102	42	foodImage.13	FOODEEG_Images\0183.jpg	YN	Left	Yes	1.24200759999803	0	395531	253
773.75390625	0	decision	response	2	102	42	foodImage.13	FOODEEG_Images\0183.jpg	YN	Left	Yes	1.24200759999803	0	396163	234
774.796875	1	taste	trialStart	2	103	43	foodImage.91	FOODEEG_Images\0896.jpg	YN	Left	Yes	0.602936299997964	0	396697	251
775.85546875	2	taste	foodImageDisplay	2	103	43	foodImage.91	FOODEEG_Images\0896.jpg	YN	Left	Yes	0.602936299997964	0	397239	252
777.919921875	0.602936299997964	taste	choicePhaseStart	2	103	43	foodImage.91	FOODEEG_Images\0896.jpg	YN	Left	Yes	0.602936299997964	0	398296	253
778.513671875	0	taste	response	2	103	43	foodImage.91	FOODEEG_Images\0896.jpg	YN	Left	Yes	0.602936299997964	0	398600	234
779.560546875	1	decision	trialStart	2	104	44	foodImage.47	FOODEEG_Images\0488.jpg	YN	Left	Yes	0.688858299996355	0	399136	251
780.615234375	2	decision	foodImageDisplay	2	104	44	foodImage.47	FOODEEG_Images\0488.jpg	YN	Left	Yes	0.688858299996355	0	399676	252
782.681640625	0.688858299996355	decision	choicePhaseStart	2	104	44	foodImage.47	FOODEEG_Images\0488.jpg	YN	Left	Yes	0.688858299996355	0	400734	253
783.361328125	0	decision	response	2	104	44	foodImage.47	FOODEEG_Images\0488.jpg	YN	Left	Yes	0.688858299996355	0	401082	234
784.404296875	1	decision	trialStart	2	105	45	foodImage.28	FOODEEG_Images\0273.jpg	NY	Left	No	0.610686899999564	0	401616	251
785.447265625	2	decision	foodImageDisplay	2	105	45	foodImage.28	FOODEEG_Images\0273.jpg	NY	Left	No	0.610686899999564	0	402150	252
787.51171875	0.610686899999564	decision	choicePhaseStart	2	105	45	foodImage.28	FOODEEG_Images\0273.jpg	NY	Left	No	0.610686899999564	0	403207	253
788.11328125	0	decision	response	2	105	45	foodImage.28	FOODEEG_Images\0273.jpg	NY	Left	No	0.610686899999564	0	403515	234
789.15625	1	decision	trialStart	2	106	46	foodImage.97	FOODEEG_Images\0905.jpg	NY	Right	Yes	1.06362210000225	0	404049	251
790.1953125	2	decision	foodImageDisplay	2	106	46	foodImage.97	FOODEEG_Images\0905.jpg	NY	Right	Yes	1.06362210000225	0	404581	252
792.2578125	1.06362210000225	decision	choicePhaseStart	2	106	46	foodImage.97	FOODEEG_Images\0905.jpg	NY	Right	Yes	1.06362210000225	0	405637	253
793.3125	0	decision	response	2	106	46	foodImage.97	FOODEEG_Images\0905.jpg	NY	Right	Yes	1.06362210000225	0	406177	235
794.3515625	1	decision	trialStart	2	107	47	foodImage.8	FOODEEG_Images\0136.jpg	NY	Left	No	0.532896299999265	0	406709	251
795.39453125	2	decision	foodImageDisplay	2	107	47	foodImage.8	FOODEEG_Images\0136.jpg	NY	Left	No	0.532896299999265	0	407243	252
797.458984375	0.532896299999265	decision	choicePhaseStart	2	107	47	foodImage.8	FOODEEG_Images\0136.jpg	NY	Left	No	0.532896299999265	0	408300	253
797.984375	0	decision	response	2	107	47	foodImage.8	FOODEEG_Images\0136.jpg	NY	Left	No	0.532896299999265	0	408569	234
799.025390625	1	taste	trialStart	2	108	48	foodImage.104	FOODEEG_Images\0912.jpg	NY	Right	Yes	0.562885300001653	0	409102	251
800.0625	2	taste	foodImageDisplay	2	108	48	foodImage.104	FOODEEG_Images\0912.jpg	NY	Right	Yes	0.562885300001653	0	409633	252
802.126953125	0.562885300001653	taste	choicePhaseStart	2	108	48	foodImage.104	FOODEEG_Images\0912.jpg	NY	Right	Yes	0.562885300001653	0	410690	253
802.6796875	0	taste	response	2	108	48	foodImage.104	FOODEEG_Images\0912.jpg	NY	Right	Yes	0.562885300001653	0	410973	235
803.728515625	1	decision	trialStart	2	109	49	foodImage.32	FOODEEG_Images\0319.jpg	NY	Right	Yes	0.54200559999299	0	411510	251
804.7734375	2	decision	foodImageDisplay	2	109	49	foodImage.32	FOODEEG_Images\0319.jpg	NY	Right	Yes	0.54200559999299	0	412045	252
806.8359375	0.54200559999299	decision	choicePhaseStart	2	109	49	foodImage.32	FOODEEG_Images\0319.jpg	NY	Right	Yes	0.54200559999299	0	413101	253
807.369140625	0	decision	response	2	109	49	foodImage.32	FOODEEG_Images\0319.jpg	NY	Right	Yes	0.54200559999299	0	413374	235
808.41015625	1	decision	trialStart	2	110	50	foodImage.64	FOODEEG_Images\0647.jpg	NY	Right	Yes	0.605028899997706	0	413907	251
809.46875	2	decision	foodImageDisplay	2	110	50	foodImage.64	FOODEEG_Images\0647.jpg	NY	Right	Yes	0.605028899997706	0	414449	252
811.533203125	0.605028899997706	decision	choicePhaseStart	2	110	50	foodImage.64	FOODEEG_Images\0647.jpg	NY	Right	Yes	0.605028899997706	0	415506	253
812.126953125	0	decision	response	2	110	50	foodImage.64	FOODEEG_Images\0647.jpg	NY	Right	Yes	0.605028899997706	0	415810	235
813.171875	1	taste	trialStart	2	111	51	foodImage.45	FOODEEG_Images\0478.jpg	YN	Right	No	0.751231700000062	0	416345	251
814.21875	2	taste	foodImageDisplay	2	111	51	foodImage.45	FOODEEG_Images\0478.jpg	YN	Right	No	0.751231700000062	0	416881	252
816.28125	0.751231700000062	taste	choicePhaseStart	2	111	51	foodImage.45	FOODEEG_Images\0478.jpg	YN	Right	No	0.751231700000062	0	417937	253
817.0234375	0	taste	response	2	111	51	foodImage.45	FOODEEG_Images\0478.jpg	YN	Right	No	0.751231700000062	0	418317	235
818.06640625	1	decision	trialStart	2	112	52	foodImage.43	FOODEEG_Images\0445.jpg	YN	Left	Yes	0.722301699999662	0	418851	251
819.123046875	2	decision	foodImageDisplay	2	112	52	foodImage.43	FOODEEG_Images\0445.jpg	YN	Left	Yes	0.722301699999662	0	419392	252
821.189453125	0.722301699999662	decision	choicePhaseStart	2	112	52	foodImage.43	FOODEEG_Images\0445.jpg	YN	Left	Yes	0.722301699999662	0	420450	253
821.904296875	0	decision	response	2	112	52	foodImage.43	FOODEEG_Images\0445.jpg	YN	Left	Yes	0.722301699999662	0	420816	234
822.947265625	1	decision	trialStart	2	113	53	foodImage.93	FOODEEG_Images\0901.jpg	YN	Right	No	0.520179900006042	0	421350	251
823.984375	2	decision	foodImageDisplay	2	113	53	foodImage.93	FOODEEG_Images\0901.jpg	YN	Right	No	0.520179900006042	0	421881	252
826.048828125	0.520179900006042	decision	choicePhaseStart	2	113	53	foodImage.93	FOODEEG_Images\0901.jpg	YN	Right	No	0.520179900006042	0	422938	253
826.55859375	0	decision	response	2	113	53	foodImage.93	FOODEEG_Images\0901.jpg	YN	Right	No	0.520179900006042	0	423199	235
827.607421875	1	decision	trialStart	2	114	54	foodImage.10	FOODEEG_Images\0145.jpg	NY	Right	Yes	0.638507899995602	0	423736	251
828.666015625	2	decision	foodImageDisplay	2	114	54	foodImage.10	FOODEEG_Images\0145.jpg	NY	Right	Yes	0.638507899995602	0	424278	252
830.73046875	0.638507899995602	decision	choicePhaseStart	2	114	54	foodImage.10	FOODEEG_Images\0145.jpg	NY	Right	Yes	0.638507899995602	0	425335	253
831.359375	0	decision	response	2	114	54	foodImage.10	FOODEEG_Images\0145.jpg	NY	Right	Yes	0.638507899995602	0	425657	235
832.40234375	1	health	trialStart	2	115	55	foodImage.13	FOODEEG_Images\0183.jpg	NY	Right	Yes	0.626970400000573	0	426191	251
833.4453125	2	health	foodImageDisplay	2	115	55	foodImage.13	FOODEEG_Images\0183.jpg	NY	Right	Yes	0.626970400000573	0	426725	252
835.509765625	0.626970400000573	health	choicePhaseStart	2	115	55	foodImage.13	FOODEEG_Images\0183.jpg	NY	Right	Yes	0.626970400000573	0	427782	253
836.126953125	0	health	response	2	115	55	foodImage.13	FOODEEG_Images\0183.jpg	NY	Right	Yes	0.626970400000573	0	428098	235
837.169921875	1	decision	trialStart	2	116	56	foodImage.30	FOODEEG_Images\0282.jpg	NY	Right	Yes	1.05045370000153	0	428632	251
838.2109375	2	decision	foodImageDisplay	2	116	56	foodImage.30	FOODEEG_Images\0282.jpg	NY	Right	Yes	1.05045370000153	0	429165	252
840.275390625	1.05045370000153	decision	choicePhaseStart	2	116	56	foodImage.30	FOODEEG_Images\0282.jpg	NY	Right	Yes	1.05045370000153	0	430222	253
841.318359375	0	decision	response	2	116	56	foodImage.30	FOODEEG_Images\0282.jpg	NY	Right	Yes	1.05045370000153	0	430756	235
842.359375	1	health	trialStart	2	117	57	foodImage.51	FOODEEG_Images\0536.jpg	YN	Right	No	1.20033240000339	0	431289	251
843.40625	2	health	foodImageDisplay	2	117	57	foodImage.51	FOODEEG_Images\0536.jpg	YN	Right	No	1.20033240000339	0	431825	252
845.470703125	1.20033240000339	health	choicePhaseStart	2	117	57	foodImage.51	FOODEEG_Images\0536.jpg	YN	Right	No	1.20033240000339	0	432882	253
846.662109375	0	health	response	2	117	57	foodImage.51	FOODEEG_Images\0536.jpg	YN	Right	No	1.20033240000339	0	433492	235
847.705078125	1	taste	trialStart	2	118	58	foodImage.119	FOODEEG_Images\0927.jpg	YN	Right	No	0.815398799997638	0	434026	251
848.744140625	2	taste	foodImageDisplay	2	118	58	foodImage.119	FOODEEG_Images\0927.jpg	YN	Right	No	0.815398799997638	0	434558	252
850.80859375	0.815398799997638	taste	choicePhaseStart	2	118	58	foodImage.119	FOODEEG_Images\0927.jpg	YN	Right	No	0.815398799997638	0	435615	253
851.61328125	0	taste	response	2	118	58	foodImage.119	FOODEEG_Images\0927.jpg	YN	Right	No	0.815398799997638	0	436027	235
852.65625	1	decision	trialStart	2	119	59	foodImage.36	FOODEEG_Images\0352.jpg	NY	Right	Yes	0.662054100001114	0	436561	251
853.71484375	2	decision	foodImageDisplay	2	119	59	foodImage.36	FOODEEG_Images\0352.jpg	NY	Right	Yes	0.662054100001114	0	437103	252
855.77734375	0.662054100001114	decision	choicePhaseStart	2	119	59	foodImage.36	FOODEEG_Images\0352.jpg	NY	Right	Yes	0.662054100001114	0	438159	253
856.4296875	0	decision	response	2	119	59	foodImage.36	FOODEEG_Images\0352.jpg	NY	Right	Yes	0.662054100001114	0	438493	235
857.470703125	1	taste	trialStart	2	120	60	foodImage.28	FOODEEG_Images\0273.jpg	NY	Left	No	0.886307499997201	0	439026	251
858.513671875	2	taste	foodImageDisplay	2	120	60	foodImage.28	FOODEEG_Images\0273.jpg	NY	Left	No	0.886307499997201	0	439560	252
860.578125	0.886307499997201	taste	choicePhaseStart	2	120	60	foodImage.28	FOODEEG_Images\0273.jpg	NY	Left	No	0.886307499997201	0	440617	253
861.453125	0	taste	response	2	120	60	foodImage.28	FOODEEG_Images\0273.jpg	NY	Left	No	0.886307499997201	0	441065	234
863.498046875	52.193359375	n/a	blockEnd	n/a	n/a	n/a	n/a	n/a	n/a	n/a	n/a	n/a	n/a	442112	254
915.69140625	2	n/a	blockStart	3	n/a	n/a	n/a	n/a	n/a	n/a	n/a	n/a	n/a	468835	250
917.724609375	1	health	trialStart	3	121	1	foodImage.71	FOODEEG_Images\0713.jpg	YN	Right	No	0.916155899998557	0	469876	251
918.767578125	2	health	foodImageDisplay	3	121	1	foodImage.71	FOODEEG_Images\0713.jpg	YN	Right	No	0.916155899998557	0	470410	252
920.83203125	0.916155899998557	health	choicePhaseStart	3	121	1	foodImage.71	FOODEEG_Images\0713.jpg	YN	Right	No	0.916155899998557	0	471467	253
921.73828125	0	health	response	3	121	1	foodImage.71	FOODEEG_Images\0713.jpg	YN	Right	No	0.916155899998557	0	471931	235
922.783203125	1	health	trialStart	3	122	2	foodImage.90	FOODEEG_Images\0890.jpg	NY	Right	Yes	1.68631260000257	0	472466	251
923.837890625	2	health	foodImageDisplay	3	122	2	foodImage.90	FOODEEG_Images\0890.jpg	NY	Right	Yes	1.68631260000257	0	473006	252
925.90234375	1.68631260000257	health	choicePhaseStart	3	122	2	foodImage.90	FOODEEG_Images\0890.jpg	NY	Right	Yes	1.68631260000257	0	474063	253
927.580078125	0	health	response	3	122	2	foodImage.90	FOODEEG_Images\0890.jpg	NY	Right	Yes	1.68631260000257	0	474922	235
928.623046875	1	taste	trialStart	3	123	3	foodImage.72	FOODEEG_Images\0714.jpg	NY	Right	Yes	0.49308060000476	0	475456	251
929.666015625	2	taste	foodImageDisplay	3	123	3	foodImage.72	FOODEEG_Images\0714.jpg	NY	Right	Yes	0.49308060000476	0	475990	252
931.728515625	0.49308060000476	taste	choicePhaseStart	3	123	3	foodImage.72	FOODEEG_Images\0714.jpg	NY	Right	Yes	0.49308060000476	0	477046	253
932.2109375	0	taste	response	3	123	3	foodImage.72	FOODEEG_Images\0714.jpg	NY	Right	Yes	0.49308060000476	0	477293	235
933.25390625	1	decision	trialStart	3	124	4	foodImage.3	FOODEEG_Images\0046.jpg	NY	Right	Yes	0.488771700001962	0	477827	251
934.296875	2	decision	foodImageDisplay	3	124	4	foodImage.3	FOODEEG_Images\0046.jpg	NY	Right	Yes	0.488771700001962	0	478361	252
936.359375	0.488771700001962	decision	choicePhaseStart	3	124	4	foodImage.3	FOODEEG_Images\0046.jpg	NY	Right	Yes	0.488771700001962	0	479417	253
936.841796875	0	decision	response	3	124	4	foodImage.3	FOODEEG_Images\0046.jpg	NY	Right	Yes	0.488771700001962	0	479664	235
937.88671875	1	health	trialStart	3	125	5	foodImage.66	FOODEEG_Images\0676.jpg	NY	Left	No	0.610571600002004	0	480199	251
938.927734375	2	health	foodImageDisplay	3	125	5	foodImage.66	FOODEEG_Images\0676.jpg	NY	Left	No	0.610571600002004	0	480732	252
940.9921875	0.610571600002004	health	choicePhaseStart	3	125	5	foodImage.66	FOODEEG_Images\0676.jpg	NY	Left	No	0.610571600002004	0	481789	253
941.59375	0	health	response	3	125	5	foodImage.66	FOODEEG_Images\0676.jpg	NY	Left	No	0.610571600002004	0	482097	234
942.63671875	1	taste	trialStart	3	126	6	foodImage.108	FOODEEG_Images\0916.jpg	NY	Left	No	0.585470199999691	0	482631	251
943.67578125	2	taste	foodImageDisplay	3	126	6	foodImage.108	FOODEEG_Images\0916.jpg	NY	Left	No	0.585470199999691	0	483163	252
945.73828125	0.585470199999691	taste	choicePhaseStart	3	126	6	foodImage.108	FOODEEG_Images\0916.jpg	NY	Left	No	0.585470199999691	0	484219	253
946.314453125	0	taste	response	3	126	6	foodImage.108	FOODEEG_Images\0916.jpg	NY	Left	No	0.585470199999691	0	484514	234
947.35546875	1	health	trialStart	3	127	7	foodImage.72	FOODEEG_Images\0714.jpg	NY	Left	No	0.892195000000356	0	485047	251
948.3984375	2	health	foodImageDisplay	3	127	7	foodImage.72	FOODEEG_Images\0714.jpg	NY	Left	No	0.892195000000356	0	485581	252
950.462890625	0.892195000000356	health	choicePhaseStart	3	127	7	foodImage.72	FOODEEG_Images\0714.jpg	NY	Left	No	0.892195000000356	0	486638	253
951.345703125	0	health	response	3	127	7	foodImage.72	FOODEEG_Images\0714.jpg	NY	Left	No	0.892195000000356	0	487090	234
952.39453125	1	decision	trialStart	3	128	8	foodImage.83	FOODEEG_Images\0827.jpg	NY	Left	No	0.774132900005498	0	487627	251
953.453125	2	decision	foodImageDisplay	3	128	8	foodImage.83	FOODEEG_Images\0827.jpg	NY	Left	No	0.774132900005498	0	488169	252
955.517578125	0.774132900005498	decision	choicePhaseStart	3	128	8	foodImage.83	FOODEEG_Images\0827.jpg	NY	Left	No	0.774132900005498	0	489226	253
956.28125	0	decision	response	3	128	8	foodImage.83	FOODEEG_Images\0827.jpg	NY	Left	No	0.774132900005498	0	489617	234
957.32421875	1	decision	trialStart	3	129	9	foodImage.117	FOODEEG_Images\0925.jpg	YN	Right	No	0.697446700003638	0	490151	251
958.36328125	2	decision	foodImageDisplay	3	129	9	foodImage.117	FOODEEG_Images\0925.jpg	YN	Right	No	0.697446700003638	0	490683	252
960.431640625	0.697446700003638	decision	choicePhaseStart	3	129	9	foodImage.117	FOODEEG_Images\0925.jpg	YN	Right	No	0.697446700003638	0	491742	253
961.12109375	0	decision	response	3	129	9	foodImage.117	FOODEEG_Images\0925.jpg	YN	Right	No	0.697446700003638	0	492095	235
962.166015625	1	taste	trialStart	3	130	10	foodImage.26	FOODEEG_Images\0262.jpg	YN	Right	No	0.715880900002958	0	492630	251
963.20703125	2	taste	foodImageDisplay	3	130	10	foodImage.26	FOODEEG_Images\0262.jpg	YN	Right	No	0.715880900002958	0	493163	252
965.271484375	0.715880900002958	taste	choicePhaseStart	3	130	10	foodImage.26	FOODEEG_Images\0262.jpg	YN	Right	No	0.715880900002958	0	494220	253
965.978515625	0	taste	response	3	130	10	foodImage.26	FOODEEG_Images\0262.jpg	YN	Right	No	0.715880900002958	0	494582	235
967.021484375	1	decision	trialStart	3	131	11	foodImage.60	FOODEEG_Images\0614.jpg	YN	Left	Yes	0.684371500006819	0	495116	251
968.078125	2	decision	foodImageDisplay	3	131	11	foodImage.60	FOODEEG_Images\0614.jpg	YN	Left	Yes	0.684371500006819	0	495657	252
970.142578125	0.684371500006819	decision	choicePhaseStart	3	131	11	foodImage.60	FOODEEG_Images\0614.jpg	YN	Left	Yes	0.684371500006819	0	496714	253
970.818359375	0	decision	response	3	131	11	foodImage.60	FOODEEG_Images\0614.jpg	YN	Left	Yes	0.684371500006819	0	497060	234
971.86328125	1	decision	trialStart	3	132	12	foodImage.102	FOODEEG_Images\0910.jpg	YN	Right	No	0.694502999998804	0	497595	251
972.900390625	2	decision	foodImageDisplay	3	132	12	foodImage.102	FOODEEG_Images\0910.jpg	YN	Right	No	0.694502999998804	0	498126	252
974.96484375	0.694502999998804	decision	choicePhaseStart	3	132	12	foodImage.102	FOODEEG_Images\0910.jpg	YN	Right	No	0.694502999998804	0	499183	253
975.6484375	0	decision	response	3	132	12	foodImage.102	FOODEEG_Images\0910.jpg	YN	Right	No	0.694502999998804	0	499533	235
976.69140625	1	health	trialStart	3	133	13	foodImage.96	FOODEEG_Images\0904.jpg	NY	Left	No	1.31638329999987	0	500067	251
977.7421875	2	health	foodImageDisplay	3	133	13	foodImage.96	FOODEEG_Images\0904.jpg	NY	Left	No	1.31638329999987	0	500605	252
979.806640625	1.31638329999987	health	choicePhaseStart	3	133	13	foodImage.96	FOODEEG_Images\0904.jpg	NY	Left	No	1.31638329999987	0	501662	253
981.11328125	0	health	response	3	133	13	foodImage.96	FOODEEG_Images\0904.jpg	NY	Left	No	1.31638329999987	0	502331	234
982.154296875	1	health	trialStart	3	134	14	foodImage.74	FOODEEG_Images\0752.jpg	NY	Right	Yes	0.419412399998691	0	502864	251
983.19921875	2	health	foodImageDisplay	3	134	14	foodImage.74	FOODEEG_Images\0752.jpg	NY	Right	Yes	0.419412399998691	0	503399	252
985.26171875	0.419412399998691	health	choicePhaseStart	3	134	14	foodImage.74	FOODEEG_Images\0752.jpg	NY	Right	Yes	0.419412399998691	0	504455	253
985.673828125	0	health	response	3	134	14	foodImage.74	FOODEEG_Images\0752.jpg	NY	Right	Yes	0.419412399998691	0	504666	235
986.71484375	1	health	trialStart	3	135	15	foodImage.113	FOODEEG_Images\0921.jpg	NY	Left	No	0.928518000000622	0	505199	251
987.75390625	2	health	foodImageDisplay	3	135	15	foodImage.113	FOODEEG_Images\0921.jpg	NY	Left	No	0.928518000000622	0	505731	252
989.81640625	0.928518000000622	health	choicePhaseStart	3	135	15	foodImage.113	FOODEEG_Images\0921.jpg	NY	Left	No	0.928518000000622	0	506787	253
990.736328125	0	health	response	3	135	15	foodImage.113	FOODEEG_Images\0921.jpg	NY	Left	No	0.928518000000622	0	507258	234
991.78125	1	decision	trialStart	3	136	16	foodImage.23	FOODEEG_Images\0244.jpg	YN	Left	Yes	1.68781219999801	0	507793	251
992.833984375	2	decision	foodImageDisplay	3	136	16	foodImage.23	FOODEEG_Images\0244.jpg	YN	Left	Yes	1.68781219999801	0	508332	252
994.8984375	1.68781219999801	decision	choicePhaseStart	3	136	16	foodImage.23	FOODEEG_Images\0244.jpg	YN	Left	Yes	1.68781219999801	0	509389	253
996.576171875	0	decision	response	3	136	16	foodImage.23	FOODEEG_Images\0244.jpg	YN	Left	Yes	1.68781219999801	0	510248	234
997.619140625	1	health	trialStart	3	137	17	foodImage.79	FOODEEG_Images\0794.jpg	NY	Right	Yes	0.524189000003389	0	510782	251
998.6640625	2	health	foodImageDisplay	3	137	17	foodImage.79	FOODEEG_Images\0794.jpg	NY	Right	Yes	0.524189000003389	0	511317	252
1000.732421875	0.524189000003389	health	choicePhaseStart	3	137	17	foodImage.79	FOODEEG_Images\0794.jpg	NY	Right	Yes	0.524189000003389	0	512376	253
1001.248046875	0	health	response	3	137	17	foodImage.79	FOODEEG_Images\0794.jpg	NY	Right	Yes	0.524189000003389	0	512640	235
1002.29296875	1	health	trialStart	3	138	18	foodImage.24	FOODEEG_Images\0250.jpg	YN	Left	Yes	0.610884699999588	0	513175	251
1003.3359375	2	health	foodImageDisplay	3	138	18	foodImage.24	FOODEEG_Images\0250.jpg	YN	Left	Yes	0.610884699999588	0	513709	252
1005.3984375	0.610884699999588	health	choicePhaseStart	3	138	18	foodImage.24	FOODEEG_Images\0250.jpg	YN	Left	Yes	0.610884699999588	0	514765	253
1006	0	health	response	3	138	18	foodImage.24	FOODEEG_Images\0250.jpg	YN	Left	Yes	0.610884699999588	0	515073	234
1007.048828125	1	taste	trialStart	3	139	19	foodImage.106	FOODEEG_Images\0914.jpg	YN	Left	Yes	0.536035099998116	0	515610	251
1008.087890625	2	taste	foodImageDisplay	3	139	19	foodImage.106	FOODEEG_Images\0914.jpg	YN	Left	Yes	0.536035099998116	0	516142	252
1010.15234375	0.536035099998116	taste	choicePhaseStart	3	139	19	foodImage.106	FOODEEG_Images\0914.jpg	YN	Left	Yes	0.536035099998116	0	517199	253
1010.6796875	0	taste	response	3	139	19	foodImage.106	FOODEEG_Images\0914.jpg	YN	Left	Yes	0.536035099998116	0	517469	234
1011.72265625	1	taste	trialStart	3	140	20	foodImage.64	FOODEEG_Images\0647.jpg	YN	Left	Yes	0.901546399996732	0	518003	251
1012.78125	2	taste	foodImageDisplay	3	140	20	foodImage.64	FOODEEG_Images\0647.jpg	YN	Left	Yes	0.901546399996732	0	518545	252
1014.84375	0.901546399996732	taste	choicePhaseStart	3	140	20	foodImage.64	FOODEEG_Images\0647.jpg	YN	Left	Yes	0.901546399996732	0	519601	253
1015.736328125	0	taste	response	3	140	20	foodImage.64	FOODEEG_Images\0647.jpg	YN	Left	Yes	0.901546399996732	0	520058	234
1016.779296875	1	decision	trialStart	3	141	21	foodImage.35	FOODEEG_Images\0350.jpg	NY	Right	Yes	0.760222400000202	0	520592	251
1017.818359375	2	decision	foodImageDisplay	3	141	21	foodImage.35	FOODEEG_Images\0350.jpg	NY	Right	Yes	0.760222400000202	0	521124	252
1019.888671875	0.760222400000202	decision	choicePhaseStart	3	141	21	foodImage.35	FOODEEG_Images\0350.jpg	NY	Right	Yes	0.760222400000202	0	522184	253
1020.640625	0	decision	response	3	141	21	foodImage.35	FOODEEG_Images\0350.jpg	NY	Right	Yes	0.760222400000202	0	522569	235
1021.689453125	1	decision	trialStart	3	142	22	foodImage.11	FOODEEG_Images\0180.jpg	NY	Right	Yes	1.64293129999714	0	523106	251
1022.73046875	2	decision	foodImageDisplay	3	142	22	foodImage.11	FOODEEG_Images\0180.jpg	NY	Right	Yes	1.64293129999714	0	523639	252
1024.794921875	1.64293129999714	decision	choicePhaseStart	3	142	22	foodImage.11	FOODEEG_Images\0180.jpg	NY	Right	Yes	1.64293129999714	0	524696	253
1026.431640625	0	decision	response	3	142	22	foodImage.11	FOODEEG_Images\0180.jpg	NY	Right	Yes	1.64293129999714	0	525534	235
1027.474609375	1	taste	trialStart	3	143	23	foodImage.50	FOODEEG_Images\0529.jpg	NY	Right	Yes	0.890773700004502	0	526068	251
1028.533203125	2	taste	foodImageDisplay	3	143	23	foodImage.50	FOODEEG_Images\0529.jpg	NY	Right	Yes	0.890773700004502	0	526610	252
1030.59765625	0.890773700004502	taste	choicePhaseStart	3	143	23	foodImage.50	FOODEEG_Images\0529.jpg	NY	Right	Yes	0.890773700004502	0	527667	253
1031.478515625	0	taste	response	3	143	23	foodImage.50	FOODEEG_Images\0529.jpg	NY	Right	Yes	0.890773700004502	0	528118	235
1032.521484375	1	taste	trialStart	3	144	24	foodImage.43	FOODEEG_Images\0445.jpg	YN	Left	Yes	0.523310300006415	0	528652	251
1033.58203125	2	taste	foodImageDisplay	3	144	24	foodImage.43	FOODEEG_Images\0445.jpg	YN	Left	Yes	0.523310300006415	0	529195	252
1035.64453125	0.523310300006415	taste	choicePhaseStart	3	144	24	foodImage.43	FOODEEG_Images\0445.jpg	YN	Left	Yes	0.523310300006415	0	530251	253
1036.158203125	0	taste	response	3	144	24	foodImage.43	FOODEEG_Images\0445.jpg	YN	Left	Yes	0.523310300006415	0	530514	234
1037.201171875	1	taste	trialStart	3	145	25	foodImage.4	FOODEEG_Images\0065.jpg	NY	Right	Yes	0.505790099996375	0	531048	251
1038.26171875	2	taste	foodImageDisplay	3	145	25	foodImage.4	FOODEEG_Images\0065.jpg	NY	Right	Yes	0.505790099996375	0	531591	252
1040.326171875	0.505790099996375	taste	choicePhaseStart	3	145	25	foodImage.4	FOODEEG_Images\0065.jpg	NY	Right	Yes	0.505790099996375	0	532648	253
1040.822265625	0	taste	response	3	145	25	foodImage.4	FOODEEG_Images\0065.jpg	NY	Right	Yes	0.505790099996375	0	532902	235
1041.865234375	1	health	trialStart	3	146	26	foodImage.93	FOODEEG_Images\0901.jpg	NY	Right	Yes	0.776639899995644	0	533436	251
1042.91015625	2	health	foodImageDisplay	3	146	26	foodImage.93	FOODEEG_Images\0901.jpg	NY	Right	Yes	0.776639899995644	0	533971	252
1044.98046875	0.776639899995644	health	choicePhaseStart	3	146	26	foodImage.93	FOODEEG_Images\0901.jpg	NY	Right	Yes	0.776639899995644	0	535031	253
1045.75	0	health	response	3	146	26	foodImage.93	FOODEEG_Images\0901.jpg	NY	Right	Yes	0.776639899995644	0	535425	235
1046.798828125	1	health	trialStart	3	147	27	foodImage.59	FOODEEG_Images\0607.jpg	NY	Left	No	1.0954322999969	0	535962	251
1047.845703125	2	health	foodImageDisplay	3	147	27	foodImage.59	FOODEEG_Images\0607.jpg	NY	Left	No	1.0954322999969	0	536498	252
1049.91015625	1.0954322999969	health	choicePhaseStart	3	147	27	foodImage.59	FOODEEG_Images\0607.jpg	NY	Left	No	1.0954322999969	0	537555	253
1050.998046875	0	health	response	3	147	27	foodImage.59	FOODEEG_Images\0607.jpg	NY	Left	No	1.0954322999969	0	538112	234
1052.041015625	1	decision	trialStart	3	148	28	foodImage.74	FOODEEG_Images\0752.jpg	NY	Left	No	1.00204789999407	0	538646	251
1053.0859375	2	decision	foodImageDisplay	3	148	28	foodImage.74	FOODEEG_Images\0752.jpg	NY	Left	No	1.00204789999407	0	539181	252
1055.1484375	1.00204789999407	decision	choicePhaseStart	3	148	28	foodImage.74	FOODEEG_Images\0752.jpg	NY	Left	No	1.00204789999407	0	540237	253
1056.142578125	0	decision	response	3	148	28	foodImage.74	FOODEEG_Images\0752.jpg	NY	Left	No	1.00204789999407	0	540746	234
1057.19140625	1	taste	trialStart	3	149	29	foodImage.82	FOODEEG_Images\0805.jpg	NY	Left	No	0.753509400004987	0	541283	251
1058.244140625	2	taste	foodImageDisplay	3	149	29	foodImage.82	FOODEEG_Images\0805.jpg	NY	Left	No	0.753509400004987	0	541822	252
1060.306640625	0.753509400004987	taste	choicePhaseStart	3	149	29	foodImage.82	FOODEEG_Images\0805.jpg	NY	Left	No	0.753509400004987	0	542878	253
1061.0546875	0	taste	response	3	149	29	foodImage.82	FOODEEG_Images\0805.jpg	NY	Left	No	0.753509400004987	0	543261	234
1062.095703125	1	taste	trialStart	3	150	30	foodImage.90	FOODEEG_Images\0890.jpg	YN	Left	Yes	0.820671900000889	0	543794	251
1063.154296875	2	taste	foodImageDisplay	3	150	30	foodImage.90	FOODEEG_Images\0890.jpg	YN	Left	Yes	0.820671900000889	0	544336	252
1065.21875	0.820671900000889	taste	choicePhaseStart	3	150	30	foodImage.90	FOODEEG_Images\0890.jpg	YN	Left	Yes	0.820671900000889	0	545393	253
1066.029296875	0	taste	response	3	150	30	foodImage.90	FOODEEG_Images\0890.jpg	YN	Left	Yes	0.820671900000889	0	545808	234
1067.0703125	1	decision	trialStart	3	151	31	foodImage.21	FOODEEG_Images\0234.jpg	YN	Right	No	0.878750100004254	0	546341	251
1068.126953125	2	decision	foodImageDisplay	3	151	31	foodImage.21	FOODEEG_Images\0234.jpg	YN	Right	No	0.878750100004254	0	546882	252
1070.19140625	0.878750100004254	decision	choicePhaseStart	3	151	31	foodImage.21	FOODEEG_Images\0234.jpg	YN	Right	No	0.878750100004254	0	547939	253
1071.060546875	0	decision	response	3	151	31	foodImage.21	FOODEEG_Images\0234.jpg	YN	Right	No	0.878750100004254	0	548384	235
1072.10546875	1	decision	trialStart	3	152	32	foodImage.90	FOODEEG_Images\0890.jpg	NY	Right	Yes	0.483568800002104	0	548919	251
1073.162109375	2	decision	foodImageDisplay	3	152	32	foodImage.90	FOODEEG_Images\0890.jpg	NY	Right	Yes	0.483568800002104	0	549460	252
1075.2265625	0.483568800002104	decision	choicePhaseStart	3	152	32	foodImage.90	FOODEEG_Images\0890.jpg	NY	Right	Yes	0.483568800002104	0	550517	253
1075.701171875	0	decision	response	3	152	32	foodImage.90	FOODEEG_Images\0890.jpg	NY	Right	Yes	0.483568800002104	0	550760	235
1076.744140625	1	taste	trialStart	3	153	33	foodImage.70	FOODEEG_Images\0705.jpg	YN	Left	Yes	0.543412299994088	0	551294	251
1077.80078125	2	taste	foodImageDisplay	3	153	33	foodImage.70	FOODEEG_Images\0705.jpg	YN	Left	Yes	0.543412299994088	0	551835	252
1079.86328125	0.543412299994088	taste	choicePhaseStart	3	153	33	foodImage.70	FOODEEG_Images\0705.jpg	YN	Left	Yes	0.543412299994088	0	552891	253
1080.396484375	0	taste	response	3	153	33	foodImage.70	FOODEEG_Images\0705.jpg	YN	Left	Yes	0.543412299994088	0	553164	234
1081.439453125	1	health	trialStart	3	154	34	foodImage.89	FOODEEG_Images\0881.jpg	YN	Left	Yes	0.975784000002022	0	553698	251
1082.49609375	2	health	foodImageDisplay	3	154	34	foodImage.89	FOODEEG_Images\0881.jpg	YN	Left	Yes	0.975784000002022	0	554239	252
1084.55859375	0.975784000002022	health	choicePhaseStart	3	154	34	foodImage.89	FOODEEG_Images\0881.jpg	YN	Left	Yes	0.975784000002022	0	555295	253
1085.525390625	0	health	response	3	154	34	foodImage.89	FOODEEG_Images\0881.jpg	YN	Left	Yes	0.975784000002022	0	555790	234
1086.57421875	1	decision	trialStart	3	155	35	foodImage.2	FOODEEG_Images\0028.jpg	NY	Left	No	3.46131169999717	0	556327	251
1087.6171875	2	decision	foodImageDisplay	3	155	35	foodImage.2	FOODEEG_Images\0028.jpg	NY	Left	No	3.46131169999717	0	556861	252
1089.6796875	3.46131169999717	decision	choicePhaseStart	3	155	35	foodImage.2	FOODEEG_Images\0028.jpg	NY	Left	No	3.46131169999717	0	557917	253
1093.1328125	0	decision	response	3	155	35	foodImage.2	FOODEEG_Images\0028.jpg	NY	Left	No	3.46131169999717	0	559685	234
1094.17578125	1	taste	trialStart	3	156	36	foodImage.29	FOODEEG_Images\0278.jpg	NY	Right	Yes	1.16416740000568	0	560219	251
1095.21875	2	taste	foodImageDisplay	3	156	36	foodImage.29	FOODEEG_Images\0278.jpg	NY	Right	Yes	1.16416740000568	0	560753	252
1097.28125	1.16416740000568	taste	choicePhaseStart	3	156	36	foodImage.29	FOODEEG_Images\0278.jpg	NY	Right	Yes	1.16416740000568	0	561809	253
1098.435546875	0	taste	response	3	156	36	foodImage.29	FOODEEG_Images\0278.jpg	NY	Right	Yes	1.16416740000568	0	562400	235
1099.48046875	1	taste	trialStart	3	157	37	foodImage.54	FOODEEG_Images\0560.jpg	NY	Right	Yes	0.499223099999654	0	562935	251
1100.53515625	2	taste	foodImageDisplay	3	157	37	foodImage.54	FOODEEG_Images\0560.jpg	NY	Right	Yes	0.499223099999654	0	563475	252
1102.599609375	0.499223099999654	taste	choicePhaseStart	3	157	37	foodImage.54	FOODEEG_Images\0560.jpg	NY	Right	Yes	0.499223099999654	0	564532	253
1103.091796875	0	taste	response	3	157	37	foodImage.54	FOODEEG_Images\0560.jpg	NY	Right	Yes	0.499223099999654	0	564784	235
1104.1328125	1	decision	trialStart	3	158	38	foodImage.112	FOODEEG_Images\0920.jpg	NY	Left	No	0.613302600002498	0	565317	251
1105.171875	2	decision	foodImageDisplay	3	158	38	foodImage.112	FOODEEG_Images\0920.jpg	NY	Left	No	0.613302600002498	0	565849	252
1107.240234375	0.613302600002498	decision	choicePhaseStart	3	158	38	foodImage.112	FOODEEG_Images\0920.jpg	NY	Left	No	0.613302600002498	0	566908	253
1107.84375	0	decision	response	3	158	38	foodImage.112	FOODEEG_Images\0920.jpg	NY	Left	No	0.613302600002498	0	567217	234
1108.88671875	1	decision	trialStart	3	159	39	foodImage.46	FOODEEG_Images\0479.jpg	YN	Left	Yes	1.59430480000447	0	567751	251
1109.943359375	2	decision	foodImageDisplay	3	159	39	foodImage.46	FOODEEG_Images\0479.jpg	YN	Left	Yes	1.59430480000447	0	568292	252
1112.01171875	1.59430480000447	decision	choicePhaseStart	3	159	39	foodImage.46	FOODEEG_Images\0479.jpg	YN	Left	Yes	1.59430480000447	0	569351	253
1113.595703125	0	decision	response	3	159	39	foodImage.46	FOODEEG_Images\0479.jpg	YN	Left	Yes	1.59430480000447	0	570162	234
1114.640625	1	taste	trialStart	3	160	40	foodImage.103	FOODEEG_Images\0911.jpg	YN	Left	Yes	0.650655500001449	0	570697	251
1115.6796875	2	taste	foodImageDisplay	3	160	40	foodImage.103	FOODEEG_Images\0911.jpg	YN	Left	Yes	0.650655500001449	0	571229	252
1117.74609375	0.650655500001449	taste	choicePhaseStart	3	160	40	foodImage.103	FOODEEG_Images\0911.jpg	YN	Left	Yes	0.650655500001449	0	572287	253
1118.388671875	0	taste	response	3	160	40	foodImage.103	FOODEEG_Images\0911.jpg	YN	Left	Yes	0.650655500001449	0	572616	234
1119.431640625	1	health	trialStart	3	161	41	foodImage.108	FOODEEG_Images\0916.jpg	NY	Left	No	0.619408700003987	0	573150	251
1120.470703125	2	health	foodImageDisplay	3	161	41	foodImage.108	FOODEEG_Images\0916.jpg	NY	Left	No	0.619408700003987	0	573682	252
1122.533203125	0.619408700003987	health	choicePhaseStart	3	161	41	foodImage.108	FOODEEG_Images\0916.jpg	NY	Left	No	0.619408700003987	0	574738	253
1123.146484375	0	health	response	3	161	41	foodImage.108	FOODEEG_Images\0916.jpg	NY	Left	No	0.619408700003987	0	575052	234
1124.19140625	1	decision	trialStart	3	162	42	foodImage.91	FOODEEG_Images\0896.jpg	NY	Right	Yes	0.538640400001896	0	575587	251
1125.259765625	2	decision	foodImageDisplay	3	162	42	foodImage.91	FOODEEG_Images\0896.jpg	NY	Right	Yes	0.538640400001896	0	576134	252
1127.322265625	0.538640400001896	decision	choicePhaseStart	3	162	42	foodImage.91	FOODEEG_Images\0896.jpg	NY	Right	Yes	0.538640400001896	0	577190	253
1127.8515625	0	decision	response	3	162	42	foodImage.91	FOODEEG_Images\0896.jpg	NY	Right	Yes	0.538640400001896	0	577461	235
1128.892578125	1	health	trialStart	3	163	43	foodImage.1	FOODEEG_Images\0004.jpg	YN	Right	No	1.27756840000075	0	577994	251
1129.935546875	2	health	foodImageDisplay	3	163	43	foodImage.1	FOODEEG_Images\0004.jpg	YN	Right	No	1.27756840000075	0	578528	252
1131.998046875	1.27756840000075	health	choicePhaseStart	3	163	43	foodImage.1	FOODEEG_Images\0004.jpg	YN	Right	No	1.27756840000075	0	579584	253
1133.267578125	0	health	response	3	163	43	foodImage.1	FOODEEG_Images\0004.jpg	YN	Right	No	1.27756840000075	0	580234	235
1134.310546875	1	health	trialStart	3	164	44	foodImage.116	FOODEEG_Images\0924.jpg	YN	Right	No	0.485877999999502	0	580768	251
1135.349609375	2	health	foodImageDisplay	3	164	44	foodImage.116	FOODEEG_Images\0924.jpg	YN	Right	No	0.485877999999502	0	581300	252
1137.4140625	0.485877999999502	health	choicePhaseStart	3	164	44	foodImage.116	FOODEEG_Images\0924.jpg	YN	Right	No	0.485877999999502	0	582357	253
1137.890625	0	health	response	3	164	44	foodImage.116	FOODEEG_Images\0924.jpg	YN	Right	No	0.485877999999502	0	582601	235
1138.93359375	1	health	trialStart	3	165	45	foodImage.41	FOODEEG_Images\0409.jpg	NY	Right	Yes	0.609262400001171	0	583135	251
1139.978515625	2	health	foodImageDisplay	3	165	45	foodImage.41	FOODEEG_Images\0409.jpg	NY	Right	Yes	0.609262400001171	0	583670	252
1142.04296875	0.609262400001171	health	choicePhaseStart	3	165	45	foodImage.41	FOODEEG_Images\0409.jpg	NY	Right	Yes	0.609262400001171	0	584727	253
1142.642578125	0	health	response	3	165	45	foodImage.41	FOODEEG_Images\0409.jpg	NY	Right	Yes	0.609262400001171	0	585034	235
1143.68359375	1	health	trialStart	3	166	46	foodImage.53	FOODEEG_Images\0547.jpg	YN	Right	No	0.50088759999926	0	585567	251
1144.7421875	2	health	foodImageDisplay	3	166	46	foodImage.53	FOODEEG_Images\0547.jpg	YN	Right	No	0.50088759999926	0	586109	252
1146.806640625	0.50088759999926	health	choicePhaseStart	3	166	46	foodImage.53	FOODEEG_Images\0547.jpg	YN	Right	No	0.50088759999926	0	587166	253
1147.298828125	0	health	response	3	166	46	foodImage.53	FOODEEG_Images\0547.jpg	YN	Right	No	0.50088759999926	0	587418	235
1148.33984375	1	decision	trialStart	3	167	47	foodImage.105	FOODEEG_Images\0913.jpg	YN	Right	No	1.04798819999996	0	587951	251
1149.37890625	2	decision	foodImageDisplay	3	167	47	foodImage.105	FOODEEG_Images\0913.jpg	YN	Right	No	1.04798819999996	0	588483	252
1151.443359375	1.04798819999996	decision	choicePhaseStart	3	167	47	foodImage.105	FOODEEG_Images\0913.jpg	YN	Right	No	1.04798819999996	0	589540	253
1152.482421875	0	decision	response	3	167	47	foodImage.105	FOODEEG_Images\0913.jpg	YN	Right	No	1.04798819999996	0	590072	235
1153.529296875	1	health	trialStart	3	168	48	foodImage.117	FOODEEG_Images\0925.jpg	YN	Right	No	0.735326599999098	0	590608	251
1154.56640625	2	health	foodImageDisplay	3	168	48	foodImage.117	FOODEEG_Images\0925.jpg	YN	Right	No	0.735326599999098	0	591139	252
1156.63671875	0.735326599999098	health	choicePhaseStart	3	168	48	foodImage.117	FOODEEG_Images\0925.jpg	YN	Right	No	0.735326599999098	0	592199	253
1157.361328125	0	health	response	3	168	48	foodImage.117	FOODEEG_Images\0925.jpg	YN	Right	No	0.735326599999098	0	592570	235
1158.40625	1	taste	trialStart	3	169	49	foodImage.23	FOODEEG_Images\0244.jpg	YN	Right	No	0.873988400002418	0	593105	251
1159.447265625	2	taste	foodImageDisplay	3	169	49	foodImage.23	FOODEEG_Images\0244.jpg	YN	Right	No	0.873988400002418	0	593638	252
1161.51171875	0.873988400002418	taste	choicePhaseStart	3	169	49	foodImage.23	FOODEEG_Images\0244.jpg	YN	Right	No	0.873988400002418	0	594695	253
1162.37890625	0	taste	response	3	169	49	foodImage.23	FOODEEG_Images\0244.jpg	YN	Right	No	0.873988400002418	0	595139	235
1163.421875	1	health	trialStart	3	170	50	foodImage.78	FOODEEG_Images\0787.jpg	YN	Right	No	1.73786300000211	0	595673	251
1164.46484375	2	health	foodImageDisplay	3	170	50	foodImage.78	FOODEEG_Images\0787.jpg	YN	Right	No	1.73786300000211	0	596207	252
1166.529296875	1.73786300000211	health	choicePhaseStart	3	170	50	foodImage.78	FOODEEG_Images\0787.jpg	YN	Right	No	1.73786300000211	0	597264	253
1168.2578125	0	health	response	3	170	50	foodImage.78	FOODEEG_Images\0787.jpg	YN	Right	No	1.73786300000211	0	598149	235
1169.30078125	1	health	trialStart	3	171	51	foodImage.26	FOODEEG_Images\0262.jpg	NY	Right	Yes	0.631587399999262	0	598683	251
1170.33984375	2	health	foodImageDisplay	3	171	51	foodImage.26	FOODEEG_Images\0262.jpg	NY	Right	Yes	0.631587399999262	0	599215	252
1172.41015625	0.631587399999262	health	choicePhaseStart	3	171	51	foodImage.26	FOODEEG_Images\0262.jpg	NY	Right	Yes	0.631587399999262	0	600275	253
1173.033203125	0	health	response	3	171	51	foodImage.26	FOODEEG_Images\0262.jpg	NY	Right	Yes	0.631587399999262	0	600594	235
1174.076171875	1	taste	trialStart	3	172	52	foodImage.17	FOODEEG_Images\0199.jpg	YN	Left	Yes	0.620875699998578	0	601128	251
1175.1171875	2	taste	foodImageDisplay	3	172	52	foodImage.17	FOODEEG_Images\0199.jpg	YN	Left	Yes	0.620875699998578	0	601661	252
1177.181640625	0.620875699998578	taste	choicePhaseStart	3	172	52	foodImage.17	FOODEEG_Images\0199.jpg	YN	Left	Yes	0.620875699998578	0	602718	253
1177.79296875	0	taste	response	3	172	52	foodImage.17	FOODEEG_Images\0199.jpg	YN	Left	Yes	0.620875699998578	0	603031	234
1178.8359375	1	decision	trialStart	3	173	53	foodImage.50	FOODEEG_Images\0529.jpg	NY	Right	Yes	0.595946300003561	0	603565	251
1179.89453125	2	decision	foodImageDisplay	3	173	53	foodImage.50	FOODEEG_Images\0529.jpg	NY	Right	Yes	0.595946300003561	0	604107	252
1181.95703125	0.595946300003561	decision	choicePhaseStart	3	173	53	foodImage.50	FOODEEG_Images\0529.jpg	NY	Right	Yes	0.595946300003561	0	605163	253
1182.544921875	0	decision	response	3	173	53	foodImage.50	FOODEEG_Images\0529.jpg	NY	Right	Yes	0.595946300003561	0	605464	235
1183.591796875	1	decision	trialStart	3	174	54	foodImage.41	FOODEEG_Images\0409.jpg	YN	Left	Yes	0.532677800001693	0	606000	251
1184.638671875	2	decision	foodImageDisplay	3	174	54	foodImage.41	FOODEEG_Images\0409.jpg	YN	Left	Yes	0.532677800001693	0	606536	252
1186.701171875	0.532677800001693	decision	choicePhaseStart	3	174	54	foodImage.41	FOODEEG_Images\0409.jpg	YN	Left	Yes	0.532677800001693	0	607592	253
1187.224609375	0	decision	response	3	174	54	foodImage.41	FOODEEG_Images\0409.jpg	YN	Left	Yes	0.532677800001693	0	607860	234
1188.2734375	1	taste	trialStart	3	175	55	foodImage.53	FOODEEG_Images\0547.jpg	NY	Right	Yes	0.963421599997673	0	608397	251
1189.328125	2	taste	foodImageDisplay	3	175	55	foodImage.53	FOODEEG_Images\0547.jpg	NY	Right	Yes	0.963421599997673	0	608937	252
1191.396484375	0.963421599997673	taste	choicePhaseStart	3	175	55	foodImage.53	FOODEEG_Images\0547.jpg	NY	Right	Yes	0.963421599997673	0	609996	253
1192.353515625	0	taste	response	3	175	55	foodImage.53	FOODEEG_Images\0547.jpg	NY	Right	Yes	0.963421599997673	0	610486	235
1193.40234375	1	health	trialStart	3	176	56	foodImage.67	FOODEEG_Images\0679.jpg	YN	Right	No	1.04641499999707	0	611023	251
1194.4609375	2	health	foodImageDisplay	3	176	56	foodImage.67	FOODEEG_Images\0679.jpg	YN	Right	No	1.04641499999707	0	611565	252
1196.5234375	1.04641499999707	health	choicePhaseStart	3	176	56	foodImage.67	FOODEEG_Images\0679.jpg	YN	Right	No	1.04641499999707	0	612621	253
1197.560546875	0	health	response	3	176	56	foodImage.67	FOODEEG_Images\0679.jpg	YN	Right	No	1.04641499999707	0	613152	235
1198.603515625	1	decision	trialStart	3	177	57	foodImage.15	FOODEEG_Images\0189.jpg	YN	Left	Yes	1.16957620000176	0	613686	251
1199.662109375	2	decision	foodImageDisplay	3	177	57	foodImage.15	FOODEEG_Images\0189.jpg	YN	Left	Yes	1.16957620000176	0	614228	252
1201.724609375	1.16957620000176	decision	choicePhaseStart	3	177	57	foodImage.15	FOODEEG_Images\0189.jpg	YN	Left	Yes	1.16957620000176	0	615284	253
1202.888671875	0	decision	response	3	177	57	foodImage.15	FOODEEG_Images\0189.jpg	YN	Left	Yes	1.16957620000176	0	615880	234
1203.931640625	1	taste	trialStart	3	178	58	foodImage.19	FOODEEG_Images\0225.jpg	NY	Left	No	0.770837099997152	0	616414	251
1204.974609375	2	taste	foodImageDisplay	3	178	58	foodImage.19	FOODEEG_Images\0225.jpg	NY	Left	No	0.770837099997152	0	616948	252
1207.0390625	0.770837099997152	taste	choicePhaseStart	3	178	58	foodImage.19	FOODEEG_Images\0225.jpg	NY	Left	No	0.770837099997152	0	618005	253
1207.80078125	0	taste	response	3	178	58	foodImage.19	FOODEEG_Images\0225.jpg	NY	Left	No	0.770837099997152	0	618395	234
1208.849609375	1	decision	trialStart	3	179	59	foodImage.31	FOODEEG_Images\0294.jpg	NY	Right	Yes	0.504200099996524	0	618932	251
1209.888671875	2	decision	foodImageDisplay	3	179	59	foodImage.31	FOODEEG_Images\0294.jpg	NY	Right	Yes	0.504200099996524	0	619464	252
1211.953125	0.504200099996524	decision	choicePhaseStart	3	179	59	foodImage.31	FOODEEG_Images\0294.jpg	NY	Right	Yes	0.504200099996524	0	620521	253
1212.447265625	0	decision	response	3	179	59	foodImage.31	FOODEEG_Images\0294.jpg	NY	Right	Yes	0.504200099996524	0	620774	235
1213.490234375	1	decision	trialStart	3	180	60	foodImage.55	FOODEEG_Images\0567.jpg	NY	Left	No	1.41674400000193	0	621308	251
1214.548828125	2	decision	foodImageDisplay	3	180	60	foodImage.55	FOODEEG_Images\0567.jpg	NY	Left	No	1.41674400000193	0	621850	252
1216.61328125	1.41674400000193	decision	choicePhaseStart	3	180	60	foodImage.55	FOODEEG_Images\0567.jpg	NY	Left	No	1.41674400000193	0	622907	253
1218.0234375	0	decision	response	3	180	60	foodImage.55	FOODEEG_Images\0567.jpg	NY	Left	No	1.41674400000193	0	623629	234
1220.06640625	117.08984375	n/a	blockEnd	n/a	n/a	n/a	n/a	n/a	n/a	n/a	n/a	n/a	n/a	624675	254
1337.15625	2	n/a	blockStart	4	n/a	n/a	n/a	n/a	n/a	n/a	n/a	n/a	n/a	684625	250
1339.1953125	1	decision	trialStart	4	181	1	foodImage.99	FOODEEG_Images\0907.jpg	YN	Right	No	0.745428100002755	0	685669	251
1340.234375	2	decision	foodImageDisplay	4	181	1	foodImage.99	FOODEEG_Images\0907.jpg	YN	Right	No	0.745428100002755	0	686201	252
1342.298828125	0.745428100002755	decision	choicePhaseStart	4	181	1	foodImage.99	FOODEEG_Images\0907.jpg	YN	Right	No	0.745428100002755	0	687258	253
1343.03515625	0	decision	response	4	181	1	foodImage.99	FOODEEG_Images\0907.jpg	YN	Right	No	0.745428100002755	0	687635	235
1344.078125	1	health	trialStart	4	182	2	foodImage.18	FOODEEG_Images\0202.jpg	YN	Left	Yes	0.669506699996418	0	688169	251
1345.1328125	2	health	foodImageDisplay	4	182	2	foodImage.18	FOODEEG_Images\0202.jpg	YN	Left	Yes	0.669506699996418	0	688709	252
1347.197265625	0.669506699996418	health	choicePhaseStart	4	182	2	foodImage.18	FOODEEG_Images\0202.jpg	YN	Left	Yes	0.669506699996418	0	689766	253
1347.859375	0	health	response	4	182	2	foodImage.18	FOODEEG_Images\0202.jpg	YN	Left	Yes	0.669506699996418	0	690105	234
1348.900390625	1	decision	trialStart	4	183	3	foodImage.77	FOODEEG_Images\0771.jpg	NY	Left	No	0.719273099995917	0	690638	251
1349.943359375	2	decision	foodImageDisplay	4	183	3	foodImage.77	FOODEEG_Images\0771.jpg	NY	Left	No	0.719273099995917	0	691172	252
1352.013671875	0.719273099995917	decision	choicePhaseStart	4	183	3	foodImage.77	FOODEEG_Images\0771.jpg	NY	Left	No	0.719273099995917	0	692232	253
1352.72265625	0	decision	response	4	183	3	foodImage.77	FOODEEG_Images\0771.jpg	NY	Left	No	0.719273099995917	0	692595	234
1353.763671875	1	health	trialStart	4	184	4	foodImage.120	FOODEEG_Images\0928.jpg	NY	Right	Yes	0.515451100000064	0	693128	251
1354.80078125	2	health	foodImageDisplay	4	184	4	foodImage.120	FOODEEG_Images\0928.jpg	NY	Right	Yes	0.515451100000064	0	693659	252
1356.865234375	0.515451100000064	health	choicePhaseStart	4	184	4	foodImage.120	FOODEEG_Images\0928.jpg	NY	Right	Yes	0.515451100000064	0	694716	253
1357.37109375	0	health	response	4	184	4	foodImage.120	FOODEEG_Images\0928.jpg	NY	Right	Yes	0.515451100000064	0	694975	235
1358.4140625	1	taste	trialStart	4	185	5	foodImage.58	FOODEEG_Images\0605.jpg	NY	Right	Yes	0.850661099997524	0	695509	251
1359.47265625	2	taste	foodImageDisplay	4	185	5	foodImage.58	FOODEEG_Images\0605.jpg	NY	Right	Yes	0.850661099997524	0	696051	252
1361.537109375	0.850661099997524	taste	choicePhaseStart	4	185	5	foodImage.58	FOODEEG_Images\0605.jpg	NY	Right	Yes	0.850661099997524	0	697108	253
1362.37890625	0	taste	response	4	185	5	foodImage.58	FOODEEG_Images\0605.jpg	NY	Right	Yes	0.850661099997524	0	697539	235
1363.421875	1	decision	trialStart	4	186	6	foodImage.113	FOODEEG_Images\0921.jpg	NY	Left	No	2.32820569999603	0	698073	251
1364.458984375	2	decision	foodImageDisplay	4	186	6	foodImage.113	FOODEEG_Images\0921.jpg	NY	Left	No	2.32820569999603	0	698604	252
1366.5234375	2.32820569999603	decision	choicePhaseStart	4	186	6	foodImage.113	FOODEEG_Images\0921.jpg	NY	Left	No	2.32820569999603	0	699661	253
1368.841796875	0	decision	response	4	186	6	foodImage.113	FOODEEG_Images\0921.jpg	NY	Left	No	2.32820569999603	0	700848	234
1369.8828125	1	health	trialStart	4	187	7	foodImage.2	FOODEEG_Images\0028.jpg	NY	Left	No	0.845932000003813	0	701381	251
1370.92578125	2	health	foodImageDisplay	4	187	7	foodImage.2	FOODEEG_Images\0028.jpg	NY	Left	No	0.845932000003813	0	701915	252
1372.98828125	0.845932000003813	health	choicePhaseStart	4	187	7	foodImage.2	FOODEEG_Images\0028.jpg	NY	Left	No	0.845932000003813	0	702971	253
1373.826171875	0	health	response	4	187	7	foodImage.2	FOODEEG_Images\0028.jpg	NY	Left	No	0.845932000003813	0	703400	234
1374.8671875	1	taste	trialStart	4	188	8	foodImage.68	FOODEEG_Images\0685.jpg	NY	Right	Yes	0.680973700000322	0	703933	251
1375.947265625	2	taste	foodImageDisplay	4	188	8	foodImage.68	FOODEEG_Images\0685.jpg	NY	Right	Yes	0.680973700000322	0	704486	252
1378.009765625	0.680973700000322	taste	choicePhaseStart	4	188	8	foodImage.68	FOODEEG_Images\0685.jpg	NY	Right	Yes	0.680973700000322	0	705542	253
1378.681640625	0	taste	response	4	188	8	foodImage.68	FOODEEG_Images\0685.jpg	NY	Right	Yes	0.680973700000322	0	705886	235
1379.724609375	1	taste	trialStart	4	189	9	foodImage.2	FOODEEG_Images\0028.jpg	YN	Left	Yes	0.982345000003988	0	706420	251
1380.765625	2	taste	foodImageDisplay	4	189	9	foodImage.2	FOODEEG_Images\0028.jpg	YN	Left	Yes	0.982345000003988	0	706953	252
1382.828125	0.982345000003988	taste	choicePhaseStart	4	189	9	foodImage.2	FOODEEG_Images\0028.jpg	YN	Left	Yes	0.982345000003988	0	708009	253
1383.80078125	0	taste	response	4	189	9	foodImage.2	FOODEEG_Images\0028.jpg	YN	Left	Yes	0.982345000003988	0	708507	234
1384.84375	1	health	trialStart	4	190	10	foodImage.25	FOODEEG_Images\0261.jpg	NY	Right	Yes	0.908314399996016	0	709041	251
1385.88671875	2	health	foodImageDisplay	4	190	10	foodImage.25	FOODEEG_Images\0261.jpg	NY	Right	Yes	0.908314399996016	0	709575	252
1387.94921875	0.908314399996016	health	choicePhaseStart	4	190	10	foodImage.25	FOODEEG_Images\0261.jpg	NY	Right	Yes	0.908314399996016	0	710631	253
1388.849609375	0	health	response	4	190	10	foodImage.25	FOODEEG_Images\0261.jpg	NY	Right	Yes	0.908314399996016	0	711092	235
1389.892578125	1	health	trialStart	4	191	11	foodImage.27	FOODEEG_Images\0263.jpg	NY	Right	Yes	2.0194604999997	0	711626	251
1390.935546875	2	health	foodImageDisplay	4	191	11	foodImage.27	FOODEEG_Images\0263.jpg	NY	Right	Yes	2.0194604999997	0	712160	252
1392.998046875	2.0194604999997	health	choicePhaseStart	4	191	11	foodImage.27	FOODEEG_Images\0263.jpg	NY	Right	Yes	2.0194604999997	0	713216	253
1395.0078125	0	health	response	4	191	11	foodImage.27	FOODEEG_Images\0263.jpg	NY	Right	Yes	2.0194604999997	0	714245	235
1396.052734375	1	decision	trialStart	4	192	12	foodImage.104	FOODEEG_Images\0912.jpg	NY	Right	Yes	1.59696270000131	0	714780	251
1397.08984375	2	decision	foodImageDisplay	4	192	12	foodImage.104	FOODEEG_Images\0912.jpg	NY	Right	Yes	1.59696270000131	0	715311	252
1399.154296875	1.59696270000131	decision	choicePhaseStart	4	192	12	foodImage.104	FOODEEG_Images\0912.jpg	NY	Right	Yes	1.59696270000131	0	716368	253
1400.744140625	0	decision	response	4	192	12	foodImage.104	FOODEEG_Images\0912.jpg	NY	Right	Yes	1.59696270000131	0	717182	235
1401.787109375	1	decision	trialStart	4	193	13	foodImage.53	FOODEEG_Images\0547.jpg	YN	Left	Yes	1.94810780000262	0	717716	251
1402.84375	2	decision	foodImageDisplay	4	193	13	foodImage.53	FOODEEG_Images\0547.jpg	YN	Left	Yes	1.94810780000262	0	718257	252
1404.90625	1.94810780000262	decision	choicePhaseStart	4	193	13	foodImage.53	FOODEEG_Images\0547.jpg	YN	Left	Yes	1.94810780000262	0	719313	253
1406.84765625	0	decision	response	4	193	13	foodImage.53	FOODEEG_Images\0547.jpg	YN	Left	Yes	1.94810780000262	0	720307	234
1407.888671875	1	health	trialStart	4	194	14	foodImage.48	FOODEEG_Images\0494.jpg	NY	Left	No	0.693821100001514	0	720840	251
