onset	duration	trial_type	event_type	block	trial_total	trial_in_block	food_image_code	food_image_path	button_position	resp_position	resp_choice	choice_rt	resp_too_slow	sample	trigger
290.982421875	2	n/a	blockStart	1	n/a	n/a	n/a	n/a	n/a	n/a	n/a	n/a	n/a	148984	250
293.0234375	1	health	trialStart	1	1	1	foodImage.61	FOODEEG_Images\0640.jpg	NY	Right	Yes	1.34797229996184	0	150029	251
294.0703125	2	health	foodImageDisplay	1	1	1	foodImage.61	FOODEEG_Images\0640.jpg	NY	Right	Yes	1.34797229996184	0	150565	252
296.134765625	1.34797229996184	health	choicePhaseStart	1	1	1	foodImage.61	FOODEEG_Images\0640.jpg	NY	Right	Yes	1.34797229996184	0	151622	253
297.4765625	0	health	response	1	1	1	foodImage.61	FOODEEG_Images\0640.jpg	NY	Right	Yes	1.34797229996184	0	152309	235
298.583984375	1	health	trialStart	1	2	2	foodImage.21	FOODEEG_Images\0234.jpg	NY	Right	Yes	0.925229999993462	0	152876	251
299.640625	2	health	foodImageDisplay	1	2	2	foodImage.21	FOODEEG_Images\0234.jpg	NY	Right	Yes	0.925229999993462	0	153417	252
301.705078125	0.925229999993462	health	choicePhaseStart	1	2	2	foodImage.21	FOODEEG_Images\0234.jpg	NY	Right	Yes	0.925229999993462	0	154474	253
302.62109375	0	health	response	1	2	2	foodImage.21	FOODEEG_Images\0234.jpg	NY	Right	Yes	0.925229999993462	0	154943	235
303.673828125	1	decision	trialStart	1	3	3	foodImage.73	FOODEEG_Images\0717.jpg	YN	Left	Yes	1.34857020003255	0	155482	251
304.73046875	2	decision	foodImageDisplay	1	3	3	foodImage.73	FOODEEG_Images\0717.jpg	YN	Left	Yes	1.34857020003255	0	156023	252
306.79296875	1.34857020003255	decision	choicePhaseStart	1	3	3	foodImage.73	FOODEEG_Images\0717.jpg	YN	Left	Yes	1.34857020003255	0	157079	253
308.1328125	0	decision	response	1	3	3	foodImage.73	FOODEEG_Images\0717.jpg	YN	Left	Yes	1.34857020003255	0	157765	234
309.173828125	1	health	trialStart	1	4	4	foodImage.100	FOODEEG_Images\0908.jpg	YN	Left	Yes	1.43657600000734	0	158298	251
310.21484375	2	health	foodImageDisplay	1	4	4	foodImage.100	FOODEEG_Images\0908.jpg	YN	Left	Yes	1.43657600000734	0	158831	252
312.27734375	1.43657600000734	health	choicePhaseStart	1	4	4	foodImage.100	FOODEEG_Images\0908.jpg	YN	Left	Yes	1.43657600000734	0	159887	253
313.70703125	0	health	response	1	4	4	foodImage.100	FOODEEG_Images\0908.jpg	YN	Left	Yes	1.43657600000734	0	160619	234
314.751953125	1	taste	trialStart	1	5	5	foodImage.65	FOODEEG_Images\0658.jpg	YN	Right	No	1.19996240001637	0	161154	251
315.794921875	2	taste	foodImageDisplay	1	5	5	foodImage.65	FOODEEG_Images\0658.jpg	YN	Right	No	1.19996240001637	0	161688	252
317.859375	1.19996240001637	taste	choicePhaseStart	1	5	5	foodImage.65	FOODEEG_Images\0658.jpg	YN	Right	No	1.19996240001637	0	162745	253
319.052734375	0	taste	response	1	5	5	foodImage.65	FOODEEG_Images\0658.jpg	YN	Right	No	1.19996240001637	0	163356	235
320.099609375	1	taste	trialStart	1	6	6	foodImage.54	FOODEEG_Images\0560.jpg	NY	Right	Yes	1.31997529999353	0	163892	251
321.15625	2	taste	foodImageDisplay	1	6	6	foodImage.54	FOODEEG_Images\0560.jpg	NY	Right	Yes	1.31997529999353	0	164433	252
323.21875	1.31997529999353	taste	choicePhaseStart	1	6	6	foodImage.54	FOODEEG_Images\0560.jpg	NY	Right	Yes	1.31997529999353	0	165489	253
324.53125	0	taste	response	1	6	6	foodImage.54	FOODEEG_Images\0560.jpg	NY	Right	Yes	1.31997529999353	0	166161	235
325.576171875	1	decision	trialStart	1	7	7	foodImage.120	FOODEEG_Images\0928.jpg	NY	Left	No	1.60326100001112	0	166696	251
326.6171875	2	decision	foodImageDisplay	1	7	7	foodImage.120	FOODEEG_Images\0928.jpg	NY	Left	No	1.60326100001112	0	167229	252
328.6796875	1.60326100001112	decision	choicePhaseStart	1	7	7	foodImage.120	FOODEEG_Images\0928.jpg	NY	Left	No	1.60326100001112	0	168285	253
330.275390625	0	decision	response	1	7	7	foodImage.120	FOODEEG_Images\0928.jpg	NY	Left	No	1.60326100001112	0	169102	234
331.318359375	1	health	trialStart	1	8	8	foodImage.58	FOODEEG_Images\0605.jpg	NY	Right	Yes	1.1960165000055	0	169636	251
332.376953125	2	health	foodImageDisplay	1	8	8	foodImage.58	FOODEEG_Images\0605.jpg	NY	Right	Yes	1.1960165000055	0	170178	252
334.439453125	1.1960165000055	health	choicePhaseStart	1	8	8	foodImage.58	FOODEEG_Images\0605.jpg	NY	Right	Yes	1.1960165000055	0	171234	253
335.626953125	0	health	response	1	8	8	foodImage.58	FOODEEG_Images\0605.jpg	NY	Right	Yes	1.1960165000055	0	171842	235
336.671875	1	health	trialStart	1	9	9	foodImage.99	FOODEEG_Images\0907.jpg	YN	Right	No	1.32520419999491	0	172377	251
337.708984375	2	health	foodImageDisplay	1	9	9	foodImage.99	FOODEEG_Images\0907.jpg	YN	Right	No	1.32520419999491	0	172908	252
339.7734375	1.32520419999491	health	choicePhaseStart	1	9	9	foodImage.99	FOODEEG_Images\0907.jpg	YN	Right	No	1.32520419999491	0	173965	253
341.091796875	0	health	response	1	9	9	foodImage.99	FOODEEG_Images\0907.jpg	YN	Right	No	1.32520419999491	0	174640	235
342.1328125	1	decision	trialStart	1	10	10	foodImage.70	FOODEEG_Images\0705.jpg	YN	Left	Yes	0.853288599988446	0	175173	251
343.189453125	2	decision	foodImageDisplay	1	10	10	foodImage.70	FOODEEG_Images\0705.jpg	YN	Left	Yes	0.853288599988446	0	175714	252
345.251953125	0.853288599988446	decision	choicePhaseStart	1	10	10	foodImage.70	FOODEEG_Images\0705.jpg	YN	Left	Yes	0.853288599988446	0	176770	253
346.099609375	0	decision	response	1	10	10	foodImage.70	FOODEEG_Images\0705.jpg	YN	Left	Yes	0.853288599988446	0	177204	234
347.140625	1	taste	trialStart	1	11	11	foodImage.44	FOODEEG_Images\0459.jpg	NY	Left	No	1.5023015999468	0	177737	251
348.1875	2	taste	foodImageDisplay	1	11	11	foodImage.44	FOODEEG_Images\0459.jpg	NY	Left	No	1.5023015999468	0	178273	252
350.251953125	1.5023015999468	taste	choicePhaseStart	1	11	11	foodImage.44	FOODEEG_Images\0459.jpg	NY	Left	No	1.5023015999468	0	179330	253
351.748046875	0	taste	response	1	11	11	foodImage.44	FOODEEG_Images\0459.jpg	NY	Left	No	1.5023015999468	0	180096	234
352.7890625	1	taste	trialStart	1	12	12	foodImage.85	FOODEEG_Images\0841.jpg	NY	Right	Yes	1.34058429999277	0	180629	251
353.845703125	2	taste	foodImageDisplay	1	12	12	foodImage.85	FOODEEG_Images\0841.jpg	NY	Right	Yes	1.34058429999277	0	181170	252
355.908203125	1.34058429999277	taste	choicePhaseStart	1	12	12	foodImage.85	FOODEEG_Images\0841.jpg	NY	Right	Yes	1.34058429999277	0	182226	253
357.2421875	0	taste	response	1	12	12	foodImage.85	FOODEEG_Images\0841.jpg	NY	Right	Yes	1.34058429999277	0	182909	235
358.28515625	1	taste	trialStart	1	13	13	foodImage.64	FOODEEG_Images\0647.jpg	NY	Right	Yes	0.837241299974266	0	183443	251
359.341796875	2	taste	foodImageDisplay	1	13	13	foodImage.64	FOODEEG_Images\0647.jpg	NY	Right	Yes	0.837241299974266	0	183984	252
361.404296875	0.837241299974266	taste	choicePhaseStart	1	13	13	foodImage.64	FOODEEG_Images\0647.jpg	NY	Right	Yes	0.837241299974266	0	185040	253
362.234375	0	taste	response	1	13	13	foodImage.64	FOODEEG_Images\0647.jpg	NY	Right	Yes	0.837241299974266	0	185465	235
363.275390625	1	decision	trialStart	1	14	14	foodImage.99	FOODEEG_Images\0907.jpg	NY	Left	No	0.942633900034707	0	185998	251
364.326171875	2	decision	foodImageDisplay	1	14	14	foodImage.99	FOODEEG_Images\0907.jpg	NY	Left	No	0.942633900034707	0	186536	252
366.388671875	0.942633900034707	decision	choicePhaseStart	1	14	14	foodImage.99	FOODEEG_Images\0907.jpg	NY	Left	No	0.942633900034707	0	187592	253
367.322265625	0	decision	response	1	14	14	foodImage.99	FOODEEG_Images\0907.jpg	NY	Left	No	0.942633900034707	0	188070	234
368.3671875	1	taste	trialStart	1	15	15	foodImage.66	FOODEEG_Images\0676.jpg	NY	Right	Yes	1.79314159997739	0	188605	251
369.41796875	2	taste	foodImageDisplay	1	15	15	foodImage.66	FOODEEG_Images\0676.jpg	NY	Right	Yes	1.79314159997739	0	189143	252
371.48046875	1.79314159997739	taste	choicePhaseStart	1	15	15	foodImage.66	FOODEEG_Images\0676.jpg	NY	Right	Yes	1.79314159997739	0	190199	253
373.265625	0	taste	response	1	15	15	foodImage.66	FOODEEG_Images\0676.jpg	NY	Right	Yes	1.79314159997739	0	191113	235
374.306640625	1	decision	trialStart	1	16	16	foodImage.39	FOODEEG_Images\0367.jpg	YN	Right	No	1.6718618000159	0	191646	251
375.345703125	2	decision	foodImageDisplay	1	16	16	foodImage.39	FOODEEG_Images\0367.jpg	YN	Right	No	1.6718618000159	0	192178	252
377.41015625	1.6718618000159	decision	choicePhaseStart	1	16	16	foodImage.39	FOODEEG_Images\0367.jpg	YN	Right	No	1.6718618000159	0	193235	253
379.072265625	0	decision	response	1	16	16	foodImage.39	FOODEEG_Images\0367.jpg	YN	Right	No	1.6718618000159	0	194086	235
380.1171875	1	decision	trialStart	1	17	17	foodImage.30	FOODEEG_Images\0282.jpg	YN	Right	No	2.3242573000025	0	194621	251
381.158203125	2	decision	foodImageDisplay	1	17	17	foodImage.30	FOODEEG_Images\0282.jpg	YN	Right	No	2.3242573000025	0	195154	252
383.220703125	2.3242573000025	decision	choicePhaseStart	1	17	17	foodImage.30	FOODEEG_Images\0282.jpg	YN	Right	No	2.3242573000025	0	196210	253
385.537109375	0	decision	response	1	17	17	foodImage.30	FOODEEG_Images\0282.jpg	YN	Right	No	2.3242573000025	0	197396	235
386.576171875	1	health	trialStart	1	18	18	foodImage.120	FOODEEG_Images\0928.jpg	NY	Left	No	3.38874889997533	0	197928	251
387.615234375	2	health	foodImageDisplay	1	18	18	foodImage.120	FOODEEG_Images\0928.jpg	NY	Left	No	3.38874889997533	0	198460	252
389.677734375	3.38874889997533	health	choicePhaseStart	1	18	18	foodImage.120	FOODEEG_Images\0928.jpg	NY	Left	No	3.38874889997533	0	199516	253
393.056640625	0	health	response	1	18	18	foodImage.120	FOODEEG_Images\0928.jpg	NY	Left	No	3.38874889997533	0	201246	234
394.10546875	1	taste	trialStart	1	19	19	foodImage.40	FOODEEG_Images\0373.jpg	YN	Left	Yes	1.17706039996119	0	201783	251
395.146484375	2	taste	foodImageDisplay	1	19	19	foodImage.40	FOODEEG_Images\0373.jpg	YN	Left	Yes	1.17706039996119	0	202316	252
397.20703125	1.17706039996119	taste	choicePhaseStart	1	19	19	foodImage.40	FOODEEG_Images\0373.jpg	YN	Left	Yes	1.17706039996119	0	203371	253
398.376953125	0	taste	response	1	19	19	foodImage.40	FOODEEG_Images\0373.jpg	YN	Left	Yes	1.17706039996119	0	203970	234
399.41796875	1	health	trialStart	1	20	20	foodImage.80	FOODEEG_Images\0796.jpg	NY	Right	Yes	0.625404600054026	0	204503	251
400.482421875	2	health	foodImageDisplay	1	20	20	foodImage.80	FOODEEG_Images\0796.jpg	NY	Right	Yes	0.625404600054026	0	205048	252
402.544921875	0.625404600054026	health	choicePhaseStart	1	20	20	foodImage.80	FOODEEG_Images\0796.jpg	NY	Right	Yes	0.625404600054026	0	206104	253
403.16015625	0	health	response	1	20	20	foodImage.80	FOODEEG_Images\0796.jpg	NY	Right	Yes	0.625404600054026	0	206419	235
404.201171875	1	taste	trialStart	1	21	21	foodImage.95	FOODEEG_Images\0903.jpg	NY	Left	No	1.36373889999231	0	206952	251
405.240234375	2	taste	foodImageDisplay	1	21	21	foodImage.95	FOODEEG_Images\0903.jpg	NY	Left	No	1.36373889999231	0	207484	252
407.30078125	1.36373889999231	taste	choicePhaseStart	1	21	21	foodImage.95	FOODEEG_Images\0903.jpg	NY	Left	No	1.36373889999231	0	208539	253
408.65625	0	taste	response	1	21	21	foodImage.95	FOODEEG_Images\0903.jpg	NY	Left	No	1.36373889999231	0	209233	234
409.69921875	1	decision	trialStart	1	22	22	foodImage.22	FOODEEG_Images\0236.jpg	NY	Left	No	3.62232640001457	0	209767	251
410.7421875	2	decision	foodImageDisplay	1	22	22	foodImage.22	FOODEEG_Images\0236.jpg	NY	Left	No	3.62232640001457	0	210301	252
412.802734375	3.62232640001457	decision	choicePhaseStart	1	22	22	foodImage.22	FOODEEG_Images\0236.jpg	NY	Left	No	3.62232640001457	0	211356	253
416.416015625	0	decision	response	1	22	22	foodImage.22	FOODEEG_Images\0236.jpg	NY	Left	No	3.62232640001457	0	213206	234
417.458984375	1	health	trialStart	1	23	23	foodImage.66	FOODEEG_Images\0676.jpg	YN	Right	No	1.17286350001814	0	213740	251
418.5	2	health	foodImageDisplay	1	23	23	foodImage.66	FOODEEG_Images\0676.jpg	YN	Right	No	1.17286350001814	0	214273	252
420.5625	1.17286350001814	health	choicePhaseStart	1	23	23	foodImage.66	FOODEEG_Images\0676.jpg	YN	Right	No	1.17286350001814	0	215329	253
421.7265625	0	health	response	1	23	23	foodImage.66	FOODEEG_Images\0676.jpg	YN	Right	No	1.17286350001814	0	215925	235
422.771484375	1	health	trialStart	1	24	24	foodImage.87	FOODEEG_Images\0873.jpg	NY	Right	Yes	0.777671099989675	0	216460	251
423.8515625	2	health	foodImageDisplay	1	24	24	foodImage.87	FOODEEG_Images\0873.jpg	NY	Right	Yes	0.777671099989675	0	217013	252
425.916015625	0.777671099989675	health	choicePhaseStart	1	24	24	foodImage.87	FOODEEG_Images\0873.jpg	NY	Right	Yes	0.777671099989675	0	218070	253
426.6875	0	health	response	1	24	24	foodImage.87	FOODEEG_Images\0873.jpg	NY	Right	Yes	0.777671099989675	0	218465	235
427.73046875	1	taste	trialStart	1	25	25	foodImage.22	FOODEEG_Images\0236.jpg	NY	Left	No	1.30335599998944	0	218999	251
428.771484375	2	taste	foodImageDisplay	1	25	25	foodImage.22	FOODEEG_Images\0236.jpg	NY	Left	No	1.30335599998944	0	219532	252
430.83203125	1.30335599998944	taste	choicePhaseStart	1	25	25	foodImage.22	FOODEEG_Images\0236.jpg	NY	Left	No	1.30335599998944	0	220587	253
432.126953125	0	taste	response	1	25	25	foodImage.22	FOODEEG_Images\0236.jpg	NY	Left	No	1.30335599998944	0	221250	234
433.169921875	1	health	trialStart	1	26	26	foodImage.107	FOODEEG_Images\0915.jpg	YN	Left	Yes	1.08152710000286	0	221784	251
434.208984375	2	health	foodImageDisplay	1	26	26	foodImage.107	FOODEEG_Images\0915.jpg	YN	Left	Yes	1.08152710000286	0	222316	252
436.27734375	1.08152710000286	health	choicePhaseStart	1	26	26	foodImage.107	FOODEEG_Images\0915.jpg	YN	Left	Yes	1.08152710000286	0	223375	253
437.3515625	0	health	response	1	26	26	foodImage.107	FOODEEG_Images\0915.jpg	YN	Left	Yes	1.08152710000286	0	223925	234
438.396484375	1	health	trialStart	1	27	27	foodImage.42	FOODEEG_Images\0438.jpg	NY	Left	No	2.21577030001208	0	224460	251
439.51171875	2	health	foodImageDisplay	1	27	27	foodImage.42	FOODEEG_Images\0438.jpg	NY	Left	No	2.21577030001208	0	225031	252
441.576171875	2.21577030001208	health	choicePhaseStart	1	27	27	foodImage.42	FOODEEG_Images\0438.jpg	NY	Left	No	2.21577030001208	0	226088	253
443.783203125	0	health	response	1	27	27	foodImage.42	FOODEEG_Images\0438.jpg	NY	Left	No	2.21577030001208	0	227218	234
444.828125	1	decision	trialStart	1	28	28	foodImage.58	FOODEEG_Images\0605.jpg	NY	Right	Yes	1.26526079996256	0	227753	251
445.88671875	2	decision	foodImageDisplay	1	28	28	foodImage.58	FOODEEG_Images\0605.jpg	NY	Right	Yes	1.26526079996256	0	228295	252
447.94921875	1.26526079996256	decision	choicePhaseStart	1	28	28	foodImage.58	FOODEEG_Images\0605.jpg	NY	Right	Yes	1.26526079996256	0	229351	253
449.20703125	0	decision	response	1	28	28	foodImage.58	FOODEEG_Images\0605.jpg	NY	Right	Yes	1.26526079996256	0	229995	235
450.25	1	health	trialStart	1	29	29	foodImage.36	FOODEEG_Images\0352.jpg	NY	Left	No	1.95664839999517	0	230529	251
451.314453125	2	health	foodImageDisplay	1	29	29	foodImage.36	FOODEEG_Images\0352.jpg	NY	Left	No	1.95664839999517	0	231074	252
453.376953125	1.95664839999517	health	choicePhaseStart	1	29	29	foodImage.36	FOODEEG_Images\0352.jpg	NY	Left	No	1.95664839999517	0	232130	253
455.326171875	0	health	response	1	29	29	foodImage.36	FOODEEG_Images\0352.jpg	NY	Left	No	1.95664839999517	0	233128	234
456.3671875	1	taste	trialStart	1	30	30	foodImage.76	FOODEEG_Images\0766.jpg	NY	Right	Yes	1.13897460000589	0	233661	251
457.4140625	2	taste	foodImageDisplay	1	30	30	foodImage.76	FOODEEG_Images\0766.jpg	NY	Right	Yes	1.13897460000589	0	234197	252
459.4765625	1.13897460000589	taste	choicePhaseStart	1	30	30	foodImage.76	FOODEEG_Images\0766.jpg	NY	Right	Yes	1.13897460000589	0	235253	253
460.60546875	0	taste	response	1	30	30	foodImage.76	FOODEEG_Images\0766.jpg	NY	Right	Yes	1.13897460000589	0	235831	235
461.646484375	1	decision	trialStart	1	31	31	foodImage.87	FOODEEG_Images\0873.jpg	YN	Left	Yes	1.07593330001691	0	236364	251
462.701171875	2	decision	foodImageDisplay	1	31	31	foodImage.87	FOODEEG_Images\0873.jpg	YN	Left	Yes	1.07593330001691	0	236904	252
464.763671875	1.07593330001691	decision	choicePhaseStart	1	31	31	foodImage.87	FOODEEG_Images\0873.jpg	YN	Left	Yes	1.07593330001691	0	237960	253
465.830078125	0	decision	response	1	31	31	foodImage.87	FOODEEG_Images\0873.jpg	YN	Left	Yes	1.07593330001691	0	238506	234
466.873046875	1	taste	trialStart	1	32	32	foodImage.80	FOODEEG_Images\0796.jpg	NY	Right	Yes	0.950065999990329	0	239040	251
467.9296875	2	taste	foodImageDisplay	1	32	32	foodImage.80	FOODEEG_Images\0796.jpg	NY	Right	Yes	0.950065999990329	0	239581	252
469.9921875	0.950065999990329	taste	choicePhaseStart	1	32	32	foodImage.80	FOODEEG_Images\0796.jpg	NY	Right	Yes	0.950065999990329	0	240637	253
470.93359375	0	taste	response	1	32	32	foodImage.80	FOODEEG_Images\0796.jpg	NY	Right	Yes	0.950065999990329	0	241119	235
471.9765625	1	decision	trialStart	1	33	33	foodImage.10	FOODEEG_Images\0145.jpg	YN	Left	Yes	1.01297890004935	0	241653	251
473.03515625	2	decision	foodImageDisplay	1	33	33	foodImage.10	FOODEEG_Images\0145.jpg	YN	Left	Yes	1.01297890004935	0	242195	252
475.09765625	1.01297890004935	decision	choicePhaseStart	1	33	33	foodImage.10	FOODEEG_Images\0145.jpg	YN	Left	Yes	1.01297890004935	0	243251	253
476.1015625	0	decision	response	1	33	33	foodImage.10	FOODEEG_Images\0145.jpg	YN	Left	Yes	1.01297890004935	0	243765	234
477.142578125	1	decision	trialStart	1	34	34	foodImage.41	FOODEEG_Images\0409.jpg	YN	Left	Yes	0.971034699992742	0	244298	251
478.1953125	2	decision	foodImageDisplay	1	34	34	foodImage.41	FOODEEG_Images\0409.jpg	YN	Left	Yes	0.971034699992742	0	244837	252
480.2578125	0.971034699992742	decision	choicePhaseStart	1	34	34	foodImage.41	FOODEEG_Images\0409.jpg	YN	Left	Yes	0.971034699992742	0	245893	253
481.220703125	0	decision	response	1	34	34	foodImage.41	FOODEEG_Images\0409.jpg	YN	Left	Yes	0.971034699992742	0	246386	234
482.26171875	1	taste	trialStart	1	35	35	foodImage.55	FOODEEG_Images\0567.jpg	NY	Right	Yes	0.987591399985831	0	246919	251
483.33984375	2	taste	foodImageDisplay	1	35	35	foodImage.55	FOODEEG_Images\0567.jpg	NY	Right	Yes	0.987591399985831	0	247471	252
485.40234375	0.987591399985831	taste	choicePhaseStart	1	35	35	foodImage.55	FOODEEG_Images\0567.jpg	NY	Right	Yes	0.987591399985831	0	248527	253
486.380859375	0	taste	response	1	35	35	foodImage.55	FOODEEG_Images\0567.jpg	NY	Right	Yes	0.987591399985831	0	249028	235
487.423828125	1	decision	trialStart	1	36	36	foodImage.16	FOODEEG_Images\0196.jpg	NY	Right	Yes	1.00579399999697	0	249562	251
488.482421875	2	decision	foodImageDisplay	1	36	36	foodImage.16	FOODEEG_Images\0196.jpg	NY	Right	Yes	1.00579399999697	0	250104	252
490.544921875	1.00579399999697	decision	choicePhaseStart	1	36	36	foodImage.16	FOODEEG_Images\0196.jpg	NY	Right	Yes	1.00579399999697	0	251160	253
491.541015625	0	decision	response	1	36	36	foodImage.16	FOODEEG_Images\0196.jpg	NY	Right	Yes	1.00579399999697	0	251670	235
492.58203125	1	health	trialStart	1	37	37	foodImage.5	FOODEEG_Images\0107.jpg	NY	Left	No	1.03620510001201	0	252203	251
493.642578125	2	health	foodImageDisplay	1	37	37	foodImage.5	FOODEEG_Images\0107.jpg	NY	Left	No	1.03620510001201	0	252746	252
495.705078125	1.03620510001201	health	choicePhaseStart	1	37	37	foodImage.5	FOODEEG_Images\0107.jpg	NY	Left	No	1.03620510001201	0	253802	253
496.732421875	0	health	response	1	37	37	foodImage.5	FOODEEG_Images\0107.jpg	NY	Left	No	1.03620510001201	0	254328	234
497.7734375	1	decision	trialStart	1	38	38	foodImage.118	FOODEEG_Images\0926.jpg	YN	Right	No	1.21762919996399	0	254861	251
498.814453125	2	decision	foodImageDisplay	1	38	38	foodImage.118	FOODEEG_Images\0926.jpg	YN	Right	No	1.21762919996399	0	255394	252
500.876953125	1.21762919996399	decision	choicePhaseStart	1	38	38	foodImage.118	FOODEEG_Images\0926.jpg	YN	Right	No	1.21762919996399	0	256450	253
502.083984375	0	decision	response	1	38	38	foodImage.118	FOODEEG_Images\0926.jpg	YN	Right	No	1.21762919996399	0	257068	235
503.125	1	health	trialStart	1	39	39	foodImage.59	FOODEEG_Images\0607.jpg	NY	Left	No	0.937855099968147	0	257601	251
504.171875	2	health	foodImageDisplay	1	39	39	foodImage.59	FOODEEG_Images\0607.jpg	NY	Left	No	0.937855099968147	0	258137	252
506.234375	0.937855099968147	health	choicePhaseStart	1	39	39	foodImage.59	FOODEEG_Images\0607.jpg	NY	Left	No	0.937855099968147	0	259193	253
507.1640625	0	health	response	1	39	39	foodImage.59	FOODEEG_Images\0607.jpg	NY	Left	No	0.937855099968147	0	259669	234
508.20703125	1	health	trialStart	1	40	40	foodImage.112	FOODEEG_Images\0920.jpg	NY	Right	Yes	0.94541859999299	0	260203	251
509.24609375	2	health	foodImageDisplay	1	40	40	foodImage.112	FOODEEG_Images\0920.jpg	NY	Right	Yes	0.94541859999299	0	260735	252
511.30859375	0.94541859999299	health	choicePhaseStart	1	40	40	foodImage.112	FOODEEG_Images\0920.jpg	NY	Right	Yes	0.94541859999299	0	261791	253
512.244140625	0	health	response	1	40	40	foodImage.112	FOODEEG_Images\0920.jpg	NY	Right	Yes	0.94541859999299	0	262270	235
513.287109375	1	decision	trialStart	1	41	41	foodImage.14	FOODEEG_Images\0188.jpg	YN	Right	No	1.03543170000194	0	262804	251
514.34765625	2	decision	foodImageDisplay	1	41	41	foodImage.14	FOODEEG_Images\0188.jpg	YN	Right	No	1.03543170000194	0	263347	252
516.41015625	1.03543170000194	decision	choicePhaseStart	1	41	41	foodImage.14	FOODEEG_Images\0188.jpg	YN	Right	No	1.03543170000194	0	264403	253
517.435546875	0	decision	response	1	41	41	foodImage.14	FOODEEG_Images\0188.jpg	YN	Right	No	1.03543170000194	0	264928	235
518.478515625	1	decision	trialStart	1	42	42	foodImage.91	FOODEEG_Images\0896.jpg	NY	Right	Yes	1.18043849995593	0	265462	251
519.5546875	2	decision	foodImageDisplay	1	42	42	foodImage.91	FOODEEG_Images\0896.jpg	NY	Right	Yes	1.18043849995593	0	266013	252
521.6171875	1.18043849995593	decision	choicePhaseStart	1	42	42	foodImage.91	FOODEEG_Images\0896.jpg	NY	Right	Yes	1.18043849995593	0	267069	253
522.787109375	0	decision	response	1	42	42	foodImage.91	FOODEEG_Images\0896.jpg	NY	Right	Yes	1.18043849995593	0	267668	235
523.83203125	1	health	trialStart	1	43	43	foodImage.49	FOODEEG_Images\0515.jpg	YN	Left	Yes	1.21229070000118	0	268203	251
524.873046875	2	health	foodImageDisplay	1	43	43	foodImage.49	FOODEEG_Images\0515.jpg	YN	Left	Yes	1.21229070000118	0	268736	252
526.935546875	1.21229070000118	health	choicePhaseStart	1	43	43	foodImage.49	FOODEEG_Images\0515.jpg	YN	Left	Yes	1.21229070000118	0	269792	253
528.138671875	0	health	response	1	43	43	foodImage.49	FOODEEG_Images\0515.jpg	YN	Left	Yes	1.21229070000118	0	270408	234
529.1796875	1	taste	trialStart	1	44	44	foodImage.13	FOODEEG_Images\0183.jpg	YN	Left	Yes	0.968604099994991	0	270941	251
530.22265625	2	taste	foodImageDisplay	1	44	44	foodImage.13	FOODEEG_Images\0183.jpg	YN	Left	Yes	0.968604099994991	0	271475	252
532.283203125	0.968604099994991	taste	choicePhaseStart	1	44	44	foodImage.13	FOODEEG_Images\0183.jpg	YN	Left	Yes	0.968604099994991	0	272530	253
533.244140625	0	taste	response	1	44	44	foodImage.13	FOODEEG_Images\0183.jpg	YN	Left	Yes	0.968604099994991	0	273022	234
534.28515625	1	taste	trialStart	1	45	45	foodImage.106	FOODEEG_Images\0914.jpg	NY	Right	Yes	1.81422410003142	0	273555	251
535.341796875	2	taste	foodImageDisplay	1	45	45	foodImage.106	FOODEEG_Images\0914.jpg	NY	Right	Yes	1.81422410003142	0	274096	252
537.404296875	1.81422410003142	taste	choicePhaseStart	1	45	45	foodImage.106	FOODEEG_Images\0914.jpg	NY	Right	Yes	1.81422410003142	0	275152	253
539.2109375	0	taste	response	1	45	45	foodImage.106	FOODEEG_Images\0914.jpg	NY	Right	Yes	1.81422410003142	0	276077	235
540.25390625	1	taste	trialStart	1	46	46	foodImage.50	FOODEEG_Images\0529.jpg	YN	Left	Yes	0.861353099986445	0	276611	251
541.3125	2	taste	foodImageDisplay	1	46	46	foodImage.50	FOODEEG_Images\0529.jpg	YN	Left	Yes	0.861353099986445	0	277153	252
543.375	0.861353099986445	taste	choicePhaseStart	1	46	46	foodImage.50	FOODEEG_Images\0529.jpg	YN	Left	Yes	0.861353099986445	0	278209	253
544.2265625	0	taste	response	1	46	46	foodImage.50	FOODEEG_Images\0529.jpg	YN	Left	Yes	0.861353099986445	0	278645	234
545.26953125	1	decision	trialStart	1	47	47	foodImage.44	FOODEEG_Images\0459.jpg	NY	Right	Yes	1.24578410002869	0	279179	251
546.314453125	2	decision	foodImageDisplay	1	47	47	foodImage.44	FOODEEG_Images\0459.jpg	NY	Right	Yes	1.24578410002869	0	279714	252
548.375	1.24578410002869	decision	choicePhaseStart	1	47	47	foodImage.44	FOODEEG_Images\0459.jpg	NY	Right	Yes	1.24578410002869	0	280769	253
549.611328125	0	decision	response	1	47	47	foodImage.44	FOODEEG_Images\0459.jpg	NY	Right	Yes	1.24578410002869	0	281402	235
550.65234375	1	health	trialStart	1	48	48	foodImage.86	FOODEEG_Images\0844.jpg	NY	Left	No	1.15571690001525	0	281935	251
551.712890625	2	health	foodImageDisplay	1	48	48	foodImage.86	FOODEEG_Images\0844.jpg	NY	Left	No	1.15571690001525	0	282478	252
553.775390625	1.15571690001525	health	choicePhaseStart	1	48	48	foodImage.86	FOODEEG_Images\0844.jpg	NY	Left	No	1.15571690001525	0	283534	253
554.921875	0	health	response	1	48	48	foodImage.86	FOODEEG_Images\0844.jpg	NY	Left	No	1.15571690001525	0	284121	234
555.96484375	1	decision	trialStart	1	49	49	foodImage.79	FOODEEG_Images\0794.jpg	YN	Right	No	1.10908320004819	0	284655	251
557.0078125	2	decision	foodImageDisplay	1	49	49	foodImage.79	FOODEEG_Images\0794.jpg	YN	Right	No	1.10908320004819	0	285189	252
559.0703125	1.10908320004819	decision	choicePhaseStart	1	49	49	foodImage.79	FOODEEG_Images\0794.jpg	YN	Right	No	1.10908320004819	0	286245	253
560.169921875	0	decision	response	1	49	49	foodImage.79	FOODEEG_Images\0794.jpg	YN	Right	No	1.10908320004819	0	286808	235
561.212890625	1	decision	trialStart	1	50	50	foodImage.12	FOODEEG_Images\0181.jpg	YN	Right	No	0.962617599987425	0	287342	251
562.255859375	2	decision	foodImageDisplay	1	50	50	foodImage.12	FOODEEG_Images\0181.jpg	YN	Right	No	0.962617599987425	0	287876	252
564.3203125	0.962617599987425	decision	choicePhaseStart	1	50	50	foodImage.12	FOODEEG_Images\0181.jpg	YN	Right	No	0.962617599987425	0	288933	253
565.2734375	0	decision	response	1	50	50	foodImage.12	FOODEEG_Images\0181.jpg	YN	Right	No	0.962617599987425	0	289421	235
566.314453125	1	health	trialStart	1	51	51	foodImage.55	FOODEEG_Images\0567.jpg	NY	Left	No	1.01668379997136	0	289954	251
567.37109375	2	health	foodImageDisplay	1	51	51	foodImage.55	FOODEEG_Images\0567.jpg	NY	Left	No	1.01668379997136	0	290495	252
569.43359375	1.01668379997136	health	choicePhaseStart	1	51	51	foodImage.55	FOODEEG_Images\0567.jpg	NY	Left	No	1.01668379997136	0	291551	253
570.44140625	0	health	response	1	51	51	foodImage.55	FOODEEG_Images\0567.jpg	NY	Left	No	1.01668379997136	0	292067	234
571.484375	1	taste	trialStart	1	52	52	foodImage.17	FOODEEG_Images\0199.jpg	YN	Right	No	1.15687700000126	0	292601	251
572.52734375	2	taste	foodImageDisplay	1	52	52	foodImage.17	FOODEEG_Images\0199.jpg	YN	Right	No	1.15687700000126	0	293135	252
574.58984375	1.15687700000126	taste	choicePhaseStart	1	52	52	foodImage.17	FOODEEG_Images\0199.jpg	YN	Right	No	1.15687700000126	0	294191	253
575.736328125	0	taste	response	1	52	52	foodImage.17	FOODEEG_Images\0199.jpg	YN	Right	No	1.15687700000126	0	294778	235
576.779296875	1	decision	trialStart	1	53	53	foodImage.5	FOODEEG_Images\0107.jpg	YN	Right	No	1.16641110001365	0	295312	251
577.8359375	2	decision	foodImageDisplay	1	53	53	foodImage.5	FOODEEG_Images\0107.jpg	YN	Right	No	1.16641110001365	0	295853	252
579.8984375	1.16641110001365	decision	choicePhaseStart	1	53	53	foodImage.5	FOODEEG_Images\0107.jpg	YN	Right	No	1.16641110001365	0	296909	253
581.056640625	0	decision	response	1	53	53	foodImage.5	FOODEEG_Images\0107.jpg	YN	Right	No	1.16641110001365	0	297502	235
582.099609375	1	taste	trialStart	1	54	54	foodImage.53	FOODEEG_Images\0547.jpg	YN	Right	No	1.03758199996082	0	298036	251
583.158203125	2	taste	foodImageDisplay	1	54	54	foodImage.53	FOODEEG_Images\0547.jpg	YN	Right	No	1.03758199996082	0	298578	252
585.220703125	1.03758199996082	taste	choicePhaseStart	1	54	54	foodImage.53	FOODEEG_Images\0547.jpg	YN	Right	No	1.03758199996082	0	299634	253
586.248046875	0	taste	response	1	54	54	foodImage.53	FOODEEG_Images\0547.jpg	YN	Right	No	1.03758199996082	0	300160	235
587.291015625	1	taste	trialStart	1	55	55	foodImage.11	FOODEEG_Images\0180.jpg	YN	Right	No	2.41550219996134	0	300694	251
588.333984375	2	taste	foodImageDisplay	1	55	55	foodImage.11	FOODEEG_Images\0180.jpg	YN	Right	No	2.41550219996134	0	301228	252
590.396484375	2.41550219996134	taste	choicePhaseStart	1	55	55	foodImage.11	FOODEEG_Images\0180.jpg	YN	Right	No	2.41550219996134	0	302284	253
592.80078125	0	taste	response	1	55	55	foodImage.11	FOODEEG_Images\0180.jpg	YN	Right	No	2.41550219996134	0	303515	235
593.84375	1	decision	trialStart	1	56	56	foodImage.47	FOODEEG_Images\0488.jpg	YN	Left	Yes	1.48219589999644	0	304049	251
594.90625	2	decision	foodImageDisplay	1	56	56	foodImage.47	FOODEEG_Images\0488.jpg	YN	Left	Yes	1.48219589999644	0	304593	252
596.96875	1.48219589999644	decision	choicePhaseStart	1	56	56	foodImage.47	FOODEEG_Images\0488.jpg	YN	Left	Yes	1.48219589999644	0	305649	253
598.44140625	0	decision	response	1	56	56	foodImage.47	FOODEEG_Images\0488.jpg	YN	Left	Yes	1.48219589999644	0	306403	234
599.484375	1	health	trialStart	1	57	57	foodImage.60	FOODEEG_Images\0614.jpg	NY	Right	Yes	1.15331639995566	0	306937	251
600.552734375	2	health	foodImageDisplay	1	57	57	foodImage.60	FOODEEG_Images\0614.jpg	NY	Right	Yes	1.15331639995566	0	307484	252
602.615234375	1.15331639995566	health	choicePhaseStart	1	57	57	foodImage.60	FOODEEG_Images\0614.jpg	NY	Right	Yes	1.15331639995566	0	308540	253
603.759765625	0	health	response	1	57	57	foodImage.60	FOODEEG_Images\0614.jpg	NY	Right	Yes	1.15331639995566	0	309126	235
604.802734375	1	decision	trialStart	1	58	58	foodImage.2	FOODEEG_Images\0028.jpg	YN	Right	No	0.812987000041176	0	309660	251
605.845703125	2	decision	foodImageDisplay	1	58	58	foodImage.2	FOODEEG_Images\0028.jpg	YN	Right	No	0.812987000041176	0	310194	252
607.908203125	0.812987000041176	decision	choicePhaseStart	1	58	58	foodImage.2	FOODEEG_Images\0028.jpg	YN	Right	No	0.812987000041176	0	311250	253
608.712890625	0	decision	response	1	58	58	foodImage.2	FOODEEG_Images\0028.jpg	YN	Right	No	0.812987000041176	0	311662	235
609.755859375	1	taste	trialStart	1	59	59	foodImage.33	FOODEEG_Images\0329.jpg	NY	Right	Yes	0.956750599958468	0	312196	251
610.798828125	2	taste	foodImageDisplay	1	59	59	foodImage.33	FOODEEG_Images\0329.jpg	NY	Right	Yes	0.956750599958468	0	312730	252
612.861328125	0.956750599958468	taste	choicePhaseStart	1	59	59	foodImage.33	FOODEEG_Images\0329.jpg	NY	Right	Yes	0.956750599958468	0	313786	253
613.80859375	0	taste	response	1	59	59	foodImage.33	FOODEEG_Images\0329.jpg	NY	Right	Yes	0.956750599958468	0	314271	235
614.8515625	1	health	trialStart	1	60	60	foodImage.96	FOODEEG_Images\0904.jpg	YN	Left	Yes	1.79289749998134	0	314805	251
615.888671875	2	health	foodImageDisplay	1	60	60	foodImage.96	FOODEEG_Images\0904.jpg	YN	Left	Yes	1.79289749998134	0	315336	252
617.951171875	1.79289749998134	health	choicePhaseStart	1	60	60	foodImage.96	FOODEEG_Images\0904.jpg	YN	Left	Yes	1.79289749998134	0	316392	253
619.736328125	0	health	response	1	60	60	foodImage.96	FOODEEG_Images\0904.jpg	YN	Left	Yes	1.79289749998134	0	317306	234
621.779296875	7.482421875	n/a	blockEnd	n/a	n/a	n/a	n/a	n/a	n/a	n/a	n/a	n/a	n/a	318352	254
629.26171875	2	n/a	blockStart	2	n/a	n/a	n/a	n/a	n/a	n/a	n/a	n/a	n/a	322183	250
631.294921875	1	decision	trialStart	2	61	1	foodImage.40	FOODEEG_Images\0373.jpg	YN	Right	No	3.23882470000535	0	323224	251
632.337890625	2	decision	foodImageDisplay	2	61	1	foodImage.40	FOODEEG_Images\0373.jpg	YN	Right	No	3.23882470000535	0	323758	252
634.400390625	3.23882470000535	decision	choicePhaseStart	2	61	1	foodImage.40	FOODEEG_Images\0373.jpg	YN	Right	No	3.23882470000535	0	324814	253
637.630859375	0	decision	response	2	61	1	foodImage.40	FOODEEG_Images\0373.jpg	YN	Right	No	3.23882470000535	0	326468	235
638.673828125	1	decision	trialStart	2	62	2	foodImage.100	FOODEEG_Images\0908.jpg	YN	Left	Yes	2.39314980001654	0	327002	251
639.712890625	2	decision	foodImageDisplay	2	62	2	foodImage.100	FOODEEG_Images\0908.jpg	YN	Left	Yes	2.39314980001654	0	327534	252
641.775390625	2.39314980001654	decision	choicePhaseStart	2	62	2	foodImage.100	FOODEEG_Images\0908.jpg	YN	Left	Yes	2.39314980001654	0	328590	253
644.158203125	0	decision	response	2	62	2	foodImage.100	FOODEEG_Images\0908.jpg	YN	Left	Yes	2.39314980001654	0	329810	234
645.203125	1	taste	trialStart	2	63	3	foodImage.59	FOODEEG_Images\0607.jpg	NY	Left	No	1.43179210001836	0	330345	251
646.25	2	taste	foodImageDisplay	2	63	3	foodImage.59	FOODEEG_Images\0607.jpg	NY	Left	No	1.43179210001836	0	330881	252
648.3125	1.43179210001836	taste	choicePhaseStart	2	63	3	foodImage.59	FOODEEG_Images\0607.jpg	NY	Left	No	1.43179210001836	0	331937	253
649.734375	0	taste	response	2	63	3	foodImage.59	FOODEEG_Images\0607.jpg	NY	Left	No	1.43179210001836	0	332665	234
650.77734375	1	decision	trialStart	2	64	4	foodImage.50	FOODEEG_Images\0529.jpg	NY	Right	Yes	0.831921499979217	0	333199	251
651.857421875	2	decision	foodImageDisplay	2	64	4	foodImage.50	FOODEEG_Images\0529.jpg	NY	Right	Yes	0.831921499979217	0	333752	252
653.919921875	0.831921499979217	decision	choicePhaseStart	2	64	4	foodImage.50	FOODEEG_Images\0529.jpg	NY	Right	Yes	0.831921499979217	0	334808	253
654.7421875	0	decision	response	2	64	4	foodImage.50	FOODEEG_Images\0529.jpg	NY	Right	Yes	0.831921499979217	0	335229	235
655.791015625	1	health	trialStart	2	65	5	foodImage.75	FOODEEG_Images\0763.jpg	NY	Right	Yes	0.895894199959002	0	335766	251
656.833984375	2	health	foodImageDisplay	2	65	5	foodImage.75	FOODEEG_Images\0763.jpg	NY	Right	Yes	0.895894199959002	0	336300	252
658.89453125	0.895894199959002	health	choicePhaseStart	2	65	5	foodImage.75	FOODEEG_Images\0763.jpg	NY	Right	Yes	0.895894199959002	0	337355	253
659.78125	0	health	response	2	65	5	foodImage.75	FOODEEG_Images\0763.jpg	NY	Right	Yes	0.895894199959002	0	337809	235
660.82421875	1	health	trialStart	2	66	6	foodImage.46	FOODEEG_Images\0479.jpg	YN	Right	No	0.686297800042666	0	338343	251
661.8828125	2	health	foodImageDisplay	2	66	6	foodImage.46	FOODEEG_Images\0479.jpg	YN	Right	No	0.686297800042666	0	338885	252
663.9453125	0.686297800042666	health	choicePhaseStart	2	66	6	foodImage.46	FOODEEG_Images\0479.jpg	YN	Right	No	0.686297800042666	0	339941	253
664.62109375	0	health	response	2	66	6	foodImage.46	FOODEEG_Images\0479.jpg	YN	Right	No	0.686297800042666	0	340287	235
665.666015625	1	decision	trialStart	2	67	7	foodImage.43	FOODEEG_Images\0445.jpg	YN	Left	Yes	1.312520699983	0	340822	251
666.744140625	2	decision	foodImageDisplay	2	67	7	foodImage.43	FOODEEG_Images\0445.jpg	YN	Left	Yes	1.312520699983	0	341374	252
668.806640625	1.312520699983	decision	choicePhaseStart	2	67	7	foodImage.43	FOODEEG_Images\0445.jpg	YN	Left	Yes	1.312520699983	0	342430	253
670.109375	0	decision	response	2	67	7	foodImage.43	FOODEEG_Images\0445.jpg	YN	Left	Yes	1.312520699983	0	343097	234
671.15234375	1	taste	trialStart	2	68	8	foodImage.36	FOODEEG_Images\0352.jpg	NY	Left	No	2.76251789997332	0	343631	251
672.212890625	2	taste	foodImageDisplay	2	68	8	foodImage.36	FOODEEG_Images\0352.jpg	NY	Left	No	2.76251789997332	0	344174	252
674.275390625	2.76251789997332	taste	choicePhaseStart	2	68	8	foodImage.36	FOODEEG_Images\0352.jpg	NY	Left	No	2.76251789997332	0	345230	253
677.029296875	0	taste	response	2	68	8	foodImage.36	FOODEEG_Images\0352.jpg	NY	Left	No	2.76251789997332	0	346640	234
678.072265625	1	taste	trialStart	2	69	9	foodImage.27	FOODEEG_Images\0263.jpg	NY	Right	Yes	2.78215250000358	0	347174	251
679.115234375	2	taste	foodImageDisplay	2	69	9	foodImage.27	FOODEEG_Images\0263.jpg	NY	Right	Yes	2.78215250000358	0	347708	252
681.17578125	2.78215250000358	taste	choicePhaseStart	2	69	9	foodImage.27	FOODEEG_Images\0263.jpg	NY	Right	Yes	2.78215250000358	0	348763	253
683.94921875	0	taste	response	2	69	9	foodImage.27	FOODEEG_Images\0263.jpg	NY	Right	Yes	2.78215250000358	0	350183	235
684.994140625	1	taste	trialStart	2	70	10	foodImage.86	FOODEEG_Images\0844.jpg	YN	Left	Yes	1.05191879998893	0	350718	251
686.052734375	2	taste	foodImageDisplay	2	70	10	foodImage.86	FOODEEG_Images\0844.jpg	YN	Left	Yes	1.05191879998893	0	351260	252
688.11328125	1.05191879998893	taste	choicePhaseStart	2	70	10	foodImage.86	FOODEEG_Images\0844.jpg	YN	Left	Yes	1.05191879998893	0	352315	253
689.15625	0	taste	response	2	70	10	foodImage.86	FOODEEG_Images\0844.jpg	YN	Left	Yes	1.05191879998893	0	352849	234
690.19921875	1	taste	trialStart	2	71	11	foodImage.118	FOODEEG_Images\0926.jpg	YN	Left	Yes	2.27858959999867	0	353383	251
691.240234375	2	taste	foodImageDisplay	2	71	11	foodImage.118	FOODEEG_Images\0926.jpg	YN	Left	Yes	2.27858959999867	0	353916	252
693.302734375	2.27858959999867	taste	choicePhaseStart	2	71	11	foodImage.118	FOODEEG_Images\0926.jpg	YN	Left	Yes	2.27858959999867	0	354972	253
695.572265625	0	taste	response	2	71	11	foodImage.118	FOODEEG_Images\0926.jpg	YN	Left	Yes	2.27858959999867	0	356134	234
696.615234375	1	taste	trialStart	2	72	12	foodImage.63	FOODEEG_Images\0645.jpg	NY	Right	Yes	0.904202400008217	0	356668	251
697.65625	2	taste	foodImageDisplay	2	72	12	foodImage.63	FOODEEG_Images\0645.jpg	NY	Right	Yes	0.904202400008217	0	357201	252
699.71875	0.904202400008217	taste	choicePhaseStart	2	72	12	foodImage.63	FOODEEG_Images\0645.jpg	NY	Right	Yes	0.904202400008217	0	358257	253
700.61328125	0	taste	response	2	72	12	foodImage.63	FOODEEG_Images\0645.jpg	NY	Right	Yes	0.904202400008217	0	358715	235
701.65234375	1	decision	trialStart	2	73	13	foodImage.103	FOODEEG_Images\0911.jpg	YN	Right	No	1.20546300004935	0	359247	251
702.689453125	2	decision	foodImageDisplay	2	73	13	foodImage.103	FOODEEG_Images\0911.jpg	YN	Right	No	1.20546300004935	0	359778	252
704.751953125	1.20546300004935	decision	choicePhaseStart	2	73	13	foodImage.103	FOODEEG_Images\0911.jpg	YN	Right	No	1.20546300004935	0	360834	253
705.94921875	0	decision	response	2	73	13	foodImage.103	FOODEEG_Images\0911.jpg	YN	Right	No	1.20546300004935	0	361447	235
706.9921875	1	taste	trialStart	2	74	14	foodImage.93	FOODEEG_Images\0901.jpg	NY	Right	Yes	1.02224309998564	0	361981	251
708.03125	2	taste	foodImageDisplay	2	74	14	foodImage.93	FOODEEG_Images\0901.jpg	NY	Right	Yes	1.02224309998564	0	362513	252
710.09375	1.02224309998564	taste	choicePhaseStart	2	74	14	foodImage.93	FOODEEG_Images\0901.jpg	NY	Right	Yes	1.02224309998564	0	363569	253
711.107421875	0	taste	response	2	74	14	foodImage.93	FOODEEG_Images\0901.jpg	NY	Right	Yes	1.02224309998564	0	364088	235
712.15234375	1	decision	trialStart	2	75	15	foodImage.8	FOODEEG_Images\0136.jpg	YN	Right	No	1.19524949998595	0	364623	251
713.1953125	2	decision	foodImageDisplay	2	75	15	foodImage.8	FOODEEG_Images\0136.jpg	YN	Right	No	1.19524949998595	0	365157	252
715.2578125	1.19524949998595	decision	choicePhaseStart	2	75	15	foodImage.8	FOODEEG_Images\0136.jpg	YN	Right	No	1.19524949998595	0	366213	253
716.443359375	0	decision	response	2	75	15	foodImage.8	FOODEEG_Images\0136.jpg	YN	Right	No	1.19524949998595	0	366820	235
717.486328125	1	decision	trialStart	2	76	16	foodImage.101	FOODEEG_Images\0909.jpg	NY	Right	Yes	2.01866669999436	0	367354	251
718.5390625	2	decision	foodImageDisplay	2	76	16	foodImage.101	FOODEEG_Images\0909.jpg	NY	Right	Yes	2.01866669999436	0	367893	252
720.6015625	2.01866669999436	decision	choicePhaseStart	2	76	16	foodImage.101	FOODEEG_Images\0909.jpg	NY	Right	Yes	2.01866669999436	0	368949	253
722.611328125	0	decision	response	2	76	16	foodImage.101	FOODEEG_Images\0909.jpg	NY	Right	Yes	2.01866669999436	0	369978	235
723.654296875	1	decision	trialStart	2	77	17	foodImage.57	FOODEEG_Images\0587.jpg	YN	Left	Yes	1.09166340000229	0	370512	251
724.697265625	2	decision	foodImageDisplay	2	77	17	foodImage.57	FOODEEG_Images\0587.jpg	YN	Left	Yes	1.09166340000229	0	371046	252
726.759765625	1.09166340000229	decision	choicePhaseStart	2	77	17	foodImage.57	FOODEEG_Images\0587.jpg	YN	Left	Yes	1.09166340000229	0	372102	253
727.84375	0	decision	response	2	77	17	foodImage.57	FOODEEG_Images\0587.jpg	YN	Left	Yes	1.09166340000229	0	372657	234
728.884765625	1	health	trialStart	2	78	18	foodImage.68	FOODEEG_Images\0685.jpg	YN	Right	No	1.31853400002001	0	373190	251
729.9609375	2	health	foodImageDisplay	2	78	18	foodImage.68	FOODEEG_Images\0685.jpg	YN	Right	No	1.31853400002001	0	373741	252
732.021484375	1.31853400002001	health	choicePhaseStart	2	78	18	foodImage.68	FOODEEG_Images\0685.jpg	YN	Right	No	1.31853400002001	0	374796	253
733.33203125	0	health	response	2	78	18	foodImage.68	FOODEEG_Images\0685.jpg	YN	Right	No	1.31853400002001	0	375467	235
734.375	1	taste	trialStart	2	79	19	foodImage.119	FOODEEG_Images\0927.jpg	YN	Left	Yes	1.77348009997513	0	376001	251
735.4140625	2	taste	foodImageDisplay	2	79	19	foodImage.119	FOODEEG_Images\0927.jpg	YN	Left	Yes	1.77348009997513	0	376533	252
737.4765625	1.77348009997513	taste	choicePhaseStart	2	79	19	foodImage.119	FOODEEG_Images\0927.jpg	YN	Left	Yes	1.77348009997513	0	377589	253
739.2421875	0	taste	response	2	79	19	foodImage.119	FOODEEG_Images\0927.jpg	YN	Left	Yes	1.77348009997513	0	378493	234
740.28515625	1	taste	trialStart	2	80	20	foodImage.46	FOODEEG_Images\0479.jpg	NY	Left	No	1.69579200004227	0	379027	251
741.341796875	2	taste	foodImageDisplay	2	80	20	foodImage.46	FOODEEG_Images\0479.jpg	NY	Left	No	1.69579200004227	0	379568	252
743.404296875	1.69579200004227	taste	choicePhaseStart	2	80	20	foodImage.46	FOODEEG_Images\0479.jpg	NY	Left	No	1.69579200004227	0	380624	253
745.08984375	0	taste	response	2	80	20	foodImage.46	FOODEEG_Images\0479.jpg	NY	Left	No	1.69579200004227	0	381487	234
746.134765625	1	decision	trialStart	2	81	21	foodImage.25	FOODEEG_Images\0261.jpg	YN	Left	Yes	1.05764509999426	0	382022	251
747.1796875	2	decision	foodImageDisplay	2	81	21	foodImage.25	FOODEEG_Images\0261.jpg	YN	Left	Yes	1.05764509999426	0	382557	252
749.2421875	1.05764509999426	decision	choicePhaseStart	2	81	21	foodImage.25	FOODEEG_Images\0261.jpg	YN	Left	Yes	1.05764509999426	0	383613	253
750.291015625	0	decision	response	2	81	21	foodImage.25	FOODEEG_Images\0261.jpg	YN	Left	Yes	1.05764509999426	0	384150	234
751.33203125	1	decision	trialStart	2	82	22	foodImage.29	FOODEEG_Images\0278.jpg	NY	Left	No	1.92292560002534	0	384683	251
752.376953125	2	decision	foodImageDisplay	2	82	22	foodImage.29	FOODEEG_Images\0278.jpg	NY	Left	No	1.92292560002534	0	385218	252
754.439453125	1.92292560002534	decision	choicePhaseStart	2	82	22	foodImage.29	FOODEEG_Images\0278.jpg	NY	Left	No	1.92292560002534	0	386274	253
756.353515625	0	decision	response	2	82	22	foodImage.29	FOODEEG_Images\0278.jpg	NY	Left	No	1.92292560002534	0	387254	234
757.396484375	1	decision	trialStart	2	83	23	foodImage.23	FOODEEG_Images\0244.jpg	NY	Left	No	1.16116660000989	0	387788	251
758.439453125	2	decision	foodImageDisplay	2	83	23	foodImage.23	FOODEEG_Images\0244.jpg	NY	Left	No	1.16116660000989	0	388322	252
760.505859375	1.16116660000989	decision	choicePhaseStart	2	83	23	foodImage.23	FOODEEG_Images\0244.jpg	NY	Left	No	1.16116660000989	0	389380	253
761.658203125	0	decision	response	2	83	23	foodImage.23	FOODEEG_Images\0244.jpg	NY	Left	No	1.16116660000989	0	389970	234
762.701171875	1	decision	trialStart	2	84	24	foodImage.64	FOODEEG_Images\0647.jpg	YN	Left	Yes	1.05018130003009	0	390504	251
763.76171875	2	decision	foodImageDisplay	2	84	24	foodImage.64	FOODEEG_Images\0647.jpg	YN	Left	Yes	1.05018130003009	0	391047	252
765.82421875	1.05018130003009	decision	choicePhaseStart	2	84	24	foodImage.64	FOODEEG_Images\0647.jpg	YN	Left	Yes	1.05018130003009	0	392103	253
766.865234375	0	decision	response	2	84	24	foodImage.64	FOODEEG_Images\0647.jpg	YN	Left	Yes	1.05018130003009	0	392636	234
767.908203125	1	taste	trialStart	2	85	25	foodImage.92	FOODEEG_Images\0900.jpg	YN	Left	Yes	1.52138029999333	0	393170	251
768.953125	2	taste	foodImageDisplay	2	85	25	foodImage.92	FOODEEG_Images\0900.jpg	YN	Left	Yes	1.52138029999333	0	393705	252
771.017578125	1.52138029999333	taste	choicePhaseStart	2	85	25	foodImage.92	FOODEEG_Images\0900.jpg	YN	Left	Yes	1.52138029999333	0	394762	253
772.529296875	0	taste	response	2	85	25	foodImage.92	FOODEEG_Images\0900.jpg	YN	Left	Yes	1.52138029999333	0	395536	234
773.578125	1	health	trialStart	2	86	26	foodImage.106	FOODEEG_Images\0914.jpg	NY	Right	Yes	3.3081339999917	0	396073	251
774.615234375	2	health	foodImageDisplay	2	86	26	foodImage.106	FOODEEG_Images\0914.jpg	NY	Right	Yes	3.3081339999917	0	396604	252
776.677734375	3.3081339999917	health	choicePhaseStart	2	86	26	foodImage.106	FOODEEG_Images\0914.jpg	NY	Right	Yes	3.3081339999917	0	397660	253
779.9765625	0	health	response	2	86	26	foodImage.106	FOODEEG_Images\0914.jpg	NY	Right	Yes	3.3081339999917	0	399349	235
781.01953125	1	decision	trialStart	2	87	27	foodImage.13	FOODEEG_Images\0183.jpg	NY	Right	Yes	1.38820250000572	0	399883	251
782.064453125	2	decision	foodImageDisplay	2	87	27	foodImage.13	FOODEEG_Images\0183.jpg	NY	Right	Yes	1.38820250000572	0	400418	252
784.126953125	1.38820250000572	decision	choicePhaseStart	2	87	27	foodImage.13	FOODEEG_Images\0183.jpg	NY	Right	Yes	1.38820250000572	0	401474	253
785.505859375	0	decision	response	2	87	27	foodImage.13	FOODEEG_Images\0183.jpg	NY	Right	Yes	1.38820250000572	0	402180	235
786.548828125	1	decision	trialStart	2	88	28	foodImage.35	FOODEEG_Images\0350.jpg	NY	Right	Yes	2.15456430002814	0	402714	251
787.587890625	2	decision	foodImageDisplay	2	88	28	foodImage.35	FOODEEG_Images\0350.jpg	NY	Right	Yes	2.15456430002814	0	403246	252
789.65625	2.15456430002814	decision	choicePhaseStart	2	88	28	foodImage.35	FOODEEG_Images\0350.jpg	NY	Right	Yes	2.15456430002814	0	404305	253
791.80078125	0	decision	response	2	88	28	foodImage.35	FOODEEG_Images\0350.jpg	NY	Right	Yes	2.15456430002814	0	405403	235
792.84375	1	health	trialStart	2	89	29	foodImage.79	FOODEEG_Images\0794.jpg	NY	Right	Yes	1.10945990000619	0	405937	251
793.88671875	2	health	foodImageDisplay	2	89	29	foodImage.79	FOODEEG_Images\0794.jpg	NY	Right	Yes	1.10945990000619	0	406471	252
795.94921875	1.10945990000619	health	choicePhaseStart	2	89	29	foodImage.79	FOODEEG_Images\0794.jpg	NY	Right	Yes	1.10945990000619	0	407527	253
797.048828125	0	health	response	2	89	29	foodImage.79	FOODEEG_Images\0794.jpg	NY	Right	Yes	1.10945990000619	0	408090	235
798.091796875	1	health	trialStart	2	90	30	foodImage.47	FOODEEG_Images\0488.jpg	NY	Left	No	1.18940530001419	0	408624	251
799.1328125	2	health	foodImageDisplay	2	90	30	foodImage.47	FOODEEG_Images\0488.jpg	NY	Left	No	1.18940530001419	0	409157	252
801.1953125	1.18940530001419	health	choicePhaseStart	2	90	30	foodImage.47	FOODEEG_Images\0488.jpg	NY	Left	No	1.18940530001419	0	410213	253
802.376953125	0	health	response	2	90	30	foodImage.47	FOODEEG_Images\0488.jpg	NY	Left	No	1.18940530001419	0	410818	234
803.419921875	1	health	trialStart	2	91	31	foodImage.97	FOODEEG_Images\0905.jpg	YN	Right	No	1.73621750000166	0	411352	251
804.45703125	2	health	foodImageDisplay	2	91	31	foodImage.97	FOODEEG_Images\0905.jpg	YN	Right	No	1.73621750000166	0	411883	252
806.51953125	1.73621750000166	health	choicePhaseStart	2	91	31	foodImage.97	FOODEEG_Images\0905.jpg	YN	Right	No	1.73621750000166	0	412939	253
808.248046875	0	health	response	2	91	31	foodImage.97	FOODEEG_Images\0905.jpg	YN	Right	No	1.73621750000166	0	413824	235
809.291015625	1	health	trialStart	2	92	32	foodImage.95	FOODEEG_Images\0903.jpg	NY	Left	No	1.31368309998652	0	414358	251
810.328125	2	health	foodImageDisplay	2	92	32	foodImage.95	FOODEEG_Images\0903.jpg	NY	Left	No	1.31368309998652	0	414889	252
812.390625	1.31368309998652	health	choicePhaseStart	2	92	32	foodImage.95	FOODEEG_Images\0903.jpg	NY	Left	No	1.31368309998652	0	415945	253
813.6953125	0	health	response	2	92	32	foodImage.95	FOODEEG_Images\0903.jpg	NY	Left	No	1.31368309998652	0	416613	234
814.73828125	1	health	trialStart	2	93	33	foodImage.7	FOODEEG_Images\0116.jpg	YN	Right	No	1.65556449996075	0	417147	251
815.779296875	2	health	foodImageDisplay	2	93	33	foodImage.7	FOODEEG_Images\0116.jpg	YN	Right	No	1.65556449996075	0	417680	252
817.83984375	1.65556449996075	health	choicePhaseStart	2	93	33	foodImage.7	FOODEEG_Images\0116.jpg	YN	Right	No	1.65556449996075	0	418735	253
819.48828125	0	health	response	2	93	33	foodImage.7	FOODEEG_Images\0116.jpg	YN	Right	No	1.65556449996075	0	419579	235
820.529296875	1	taste	trialStart	2	94	34	foodImage.79	FOODEEG_Images\0794.jpg	NY	Right	Yes	1.78052450000541	0	420112	251
821.572265625	2	taste	foodImageDisplay	2	94	34	foodImage.79	FOODEEG_Images\0794.jpg	NY	Right	Yes	1.78052450000541	0	420646	252
823.634765625	1.78052450000541	taste	choicePhaseStart	2	94	34	foodImage.79	FOODEEG_Images\0794.jpg	NY	Right	Yes	1.78052450000541	0	421702	253
825.408203125	0	taste	response	2	94	34	foodImage.79	FOODEEG_Images\0794.jpg	NY	Right	Yes	1.78052450000541	0	422610	235
826.453125	1	taste	trialStart	2	95	35	foodImage.71	FOODEEG_Images\0713.jpg	YN	Left	Yes	1.82736619998468	0	423145	251
827.494140625	2	taste	foodImageDisplay	2	95	35	foodImage.71	FOODEEG_Images\0713.jpg	YN	Left	Yes	1.82736619998468	0	423678	252
829.556640625	1.82736619998468	taste	choicePhaseStart	2	95	35	foodImage.71	FOODEEG_Images\0713.jpg	YN	Left	Yes	1.82736619998468	0	424734	253
831.375	0	taste	response	2	95	35	foodImage.71	FOODEEG_Images\0713.jpg	YN	Left	Yes	1.82736619998468	0	425665	234
832.41796875	1	taste	trialStart	2	96	36	foodImage.94	FOODEEG_Images\0902.jpg	NY	Right	Yes	1.25623769999947	0	426199	251
833.45703125	2	taste	foodImageDisplay	2	96	36	foodImage.94	FOODEEG_Images\0902.jpg	NY	Right	Yes	1.25623769999947	0	426731	252
835.51953125	1.25623769999947	taste	choicePhaseStart	2	96	36	foodImage.94	FOODEEG_Images\0902.jpg	NY	Right	Yes	1.25623769999947	0	427787	253
836.767578125	0	taste	response	2	96	36	foodImage.94	FOODEEG_Images\0902.jpg	NY	Right	Yes	1.25623769999947	0	428426	235
837.810546875	1	taste	trialStart	2	97	37	foodImage.73	FOODEEG_Images\0717.jpg	NY	Right	Yes	1.6447685000021	0	428960	251
838.869140625	2	taste	foodImageDisplay	2	97	37	foodImage.73	FOODEEG_Images\0717.jpg	NY	Right	Yes	1.6447685000021	0	429502	252
840.9296875	1.6447685000021	taste	choicePhaseStart	2	97	37	foodImage.73	FOODEEG_Images\0717.jpg	NY	Right	Yes	1.6447685000021	0	430557	253
842.56640625	0	taste	response	2	97	37	foodImage.73	FOODEEG_Images\0717.jpg	NY	Right	Yes	1.6447685000021	0	431395	235
843.609375	1	health	trialStart	2	98	38	foodImage.67	FOODEEG_Images\0679.jpg	NY	Left	No	1.69612380000763	0	431929	251
844.673828125	2	health	foodImageDisplay	2	98	38	foodImage.67	FOODEEG_Images\0679.jpg	NY	Left	No	1.69612380000763	0	432474	252
846.736328125	1.69612380000763	health	choicePhaseStart	2	98	38	foodImage.67	FOODEEG_Images\0679.jpg	NY	Left	No	1.69612380000763	0	433530	253
848.421875	0	health	response	2	98	38	foodImage.67	FOODEEG_Images\0679.jpg	NY	Left	No	1.69612380000763	0	434393	234
849.46875	1	health	trialStart	2	99	39	foodImage.23	FOODEEG_Images\0244.jpg	NY	Left	No	1.4630654999637	0	434929	251
850.509765625	2	health	foodImageDisplay	2	99	39	foodImage.23	FOODEEG_Images\0244.jpg	NY	Left	No	1.4630654999637	0	435462	252
852.576171875	1.4630654999637	health	choicePhaseStart	2	99	39	foodImage.23	FOODEEG_Images\0244.jpg	NY	Left	No	1.4630654999637	0	436520	253
854.029296875	0	health	response	2	99	39	foodImage.23	FOODEEG_Images\0244.jpg	NY	Left	No	1.4630654999637	0	437264	234
855.07421875	1	decision	trialStart	2	100	40	foodImage.6	FOODEEG_Images\0113.jpg	NY	Left	No	1.2504035999882	0	437799	251
856.1171875	2	decision	foodImageDisplay	2	100	40	foodImage.6	FOODEEG_Images\0113.jpg	NY	Left	No	1.2504035999882	0	438333	252
858.1796875	1.2504035999882	decision	choicePhaseStart	2	100	40	foodImage.6	FOODEEG_Images\0113.jpg	NY	Left	No	1.2504035999882	0	439389	253
859.421875	0	decision	response	2	100	40	foodImage.6	FOODEEG_Images\0113.jpg	NY	Left	No	1.2504035999882	0	440025	234
860.46484375	1	health	trialStart	2	101	41	foodImage.56	FOODEEG_Images\0586.jpg	YN	Left	Yes	4.6201939000166	0	440559	251
861.5078125	2	health	foodImageDisplay	2	101	41	foodImage.56	FOODEEG_Images\0586.jpg	YN	Left	Yes	4.6201939000166	0	441093	252
863.5703125	4.6201939000166	health	choicePhaseStart	2	101	41	foodImage.56	FOODEEG_Images\0586.jpg	YN	Left	Yes	4.6201939000166	0	442149	253
868.181640625	0	health	response	2	101	41	foodImage.56	FOODEEG_Images\0586.jpg	YN	Left	Yes	4.6201939000166	0	444510	234
869.224609375	1	health	trialStart	2	102	42	foodImage.10	FOODEEG_Images\0145.jpg	NY	Right	Yes	1.19874900003197	0	445044	251
870.296875	2	health	foodImageDisplay	2	102	42	foodImage.10	FOODEEG_Images\0145.jpg	NY	Right	Yes	1.19874900003197	0	445593	252
872.359375	1.19874900003197	health	choicePhaseStart	2	102	42	foodImage.10	FOODEEG_Images\0145.jpg	NY	Right	Yes	1.19874900003197	0	446649	253
873.548828125	0	health	response	2	102	42	foodImage.10	FOODEEG_Images\0145.jpg	NY	Right	Yes	1.19874900003197	0	447258	235
874.59375	1	health	trialStart	2	103	43	foodImage.105	FOODEEG_Images\0913.jpg	NY	Right	Yes	0.805745699966792	0	447793	251
875.634765625	2	health	foodImageDisplay	2	103	43	foodImage.105	FOODEEG_Images\0913.jpg	NY	Right	Yes	0.805745699966792	0	448326	252
877.697265625	0.805745699966792	health	choicePhaseStart	2	103	43	foodImage.105	FOODEEG_Images\0913.jpg	NY	Right	Yes	0.805745699966792	0	449382	253
878.494140625	0	health	response	2	103	43	foodImage.105	FOODEEG_Images\0913.jpg	NY	Right	Yes	0.805745699966792	0	449790	235
879.537109375	1	taste	trialStart	2	104	44	foodImage.77	FOODEEG_Images\0771.jpg	NY	Right	Yes	1.44625550002092	0	450324	251
880.5859375	2	taste	foodImageDisplay	2	104	44	foodImage.77	FOODEEG_Images\0771.jpg	NY	Right	Yes	1.44625550002092	0	450861	252
882.6484375	1.44625550002092	taste	choicePhaseStart	2	104	44	foodImage.77	FOODEEG_Images\0771.jpg	NY	Right	Yes	1.44625550002092	0	451917	253
884.0859375	0	taste	response	2	104	44	foodImage.77	FOODEEG_Images\0771.jpg	NY	Right	Yes	1.44625550002092	0	452653	235
885.1328125	1	health	trialStart	2	105	45	foodImage.48	FOODEEG_Images\0494.jpg	NY	Left	No	0.962682000012137	0	453189	251
886.1875	2	health	foodImageDisplay	2	105	45	foodImage.48	FOODEEG_Images\0494.jpg	NY	Left	No	0.962682000012137	0	453729	252
888.25	0.962682000012137	health	choicePhaseStart	2	105	45	foodImage.48	FOODEEG_Images\0494.jpg	NY	Left	No	0.962682000012137	0	454785	253
889.205078125	0	health	response	2	105	45	foodImage.48	FOODEEG_Images\0494.jpg	NY	Left	No	0.962682000012137	0	455274	234
890.248046875	1	decision	trialStart	2	106	46	foodImage.74	FOODEEG_Images\0752.jpg	YN	Left	Yes	1.00934300001245	0	455808	251
891.294921875	2	decision	foodImageDisplay	2	106	46	foodImage.74	FOODEEG_Images\0752.jpg	YN	Left	Yes	1.00934300001245	0	456344	252
893.357421875	1.00934300001245	decision	choicePhaseStart	2	106	46	foodImage.74	FOODEEG_Images\0752.jpg	YN	Left	Yes	1.00934300001245	0	457400	253
894.357421875	0	decision	response	2	106	46	foodImage.74	FOODEEG_Images\0752.jpg	YN	Left	Yes	1.00934300001245	0	457912	234
895.400390625	1	decision	trialStart	2	107	47	foodImage.48	FOODEEG_Images\0494.jpg	NY	Left	No	1.30061729997396	0	458446	251
896.44140625	2	decision	foodImageDisplay	2	107	47	foodImage.48	FOODEEG_Images\0494.jpg	NY	Left	No	1.30061729997396	0	458979	252
898.50390625	1.30061729997396	decision	choicePhaseStart	2	107	47	foodImage.48	FOODEEG_Images\0494.jpg	NY	Left	No	1.30061729997396	0	460035	253
899.796875	0	decision	response	2	107	47	foodImage.48	FOODEEG_Images\0494.jpg	NY	Left	No	1.30061729997396	0	460697	234
900.83984375	1	decision	trialStart	2	108	48	foodImage.54	FOODEEG_Images\0560.jpg	YN	Left	Yes	0.942699700011872	0	461231	251
901.896484375	2	decision	foodImageDisplay	2	108	48	foodImage.54	FOODEEG_Images\0560.jpg	YN	Left	Yes	0.942699700011872	0	461772	252
903.958984375	0.942699700011872	decision	choicePhaseStart	2	108	48	foodImage.54	FOODEEG_Images\0560.jpg	YN	Left	Yes	0.942699700011872	0	462828	253
904.892578125	0	decision	response	2	108	48	foodImage.54	FOODEEG_Images\0560.jpg	YN	Left	Yes	0.942699700011872	0	463306	234
905.931640625	1	taste	trialStart	2	109	49	foodImage.52	FOODEEG_Images\0539.jpg	NY	Right	Yes	2.02480289997766	0	463838	251
906.990234375	2	taste	foodImageDisplay	2	109	49	foodImage.52	FOODEEG_Images\0539.jpg	NY	Right	Yes	2.02480289997766	0	464380	252
909.052734375	2.02480289997766	taste	choicePhaseStart	2	109	49	foodImage.52	FOODEEG_Images\0539.jpg	NY	Right	Yes	2.02480289997766	0	465436	253
911.068359375	0	taste	response	2	109	49	foodImage.52	FOODEEG_Images\0539.jpg	NY	Right	Yes	2.02480289997766	0	466468	235
912.109375	1	decision	trialStart	2	110	50	foodImage.33	FOODEEG_Images\0329.jpg	YN	Left	Yes	1.13527019997127	0	467001	251
913.150390625	2	decision	foodImageDisplay	2	110	50	foodImage.33	FOODEEG_Images\0329.jpg	YN	Left	Yes	1.13527019997127	0	467534	252
915.212890625	1.13527019997127	decision	choicePhaseStart	2	110	50	foodImage.33	FOODEEG_Images\0329.jpg	YN	Left	Yes	1.13527019997127	0	468590	253
916.33984375	0	decision	response	2	110	50	foodImage.33	FOODEEG_Images\0329.jpg	YN	Left	Yes	1.13527019997127	0	469167	234
917.38671875	1	taste	trialStart	2	111	51	foodImage.14	FOODEEG_Images\0188.jpg	NY	Right	Yes	1.56939700001385	0	469703	251
918.4453125	2	taste	foodImageDisplay	2	111	51	foodImage.14	FOODEEG_Images\0188.jpg	NY	Right	Yes	1.56939700001385	0	470245	252
920.5078125	1.56939700001385	taste	choicePhaseStart	2	111	51	foodImage.14	FOODEEG_Images\0188.jpg	NY	Right	Yes	1.56939700001385	0	471301	253
922.068359375	0	taste	response	2	111	51	foodImage.14	FOODEEG_Images\0188.jpg	NY	Right	Yes	1.56939700001385	0	472100	235
923.109375	1	taste	trialStart	2	112	52	foodImage.88	FOODEEG_Images\0878.jpg	YN	Left	Yes	0.97642740001902	0	472633	251
924.166015625	2	taste	foodImageDisplay	2	112	52	foodImage.88	FOODEEG_Images\0878.jpg	YN	Left	Yes	0.97642740001902	0	473174	252
926.228515625	0.97642740001902	taste	choicePhaseStart	2	112	52	foodImage.88	FOODEEG_Images\0878.jpg	YN	Left	Yes	0.97642740001902	0	474230	253
927.1953125	0	taste	response	2	112	52	foodImage.88	FOODEEG_Images\0878.jpg	YN	Left	Yes	0.97642740001902	0	474725	234
928.23828125	1	taste	trialStart	2	113	53	foodImage.1	FOODEEG_Images\0004.jpg	YN	Left	Yes	4.48482099996181	0	475259	251
929.28125	2	taste	foodImageDisplay	2	113	53	foodImage.1	FOODEEG_Images\0004.jpg	YN	Left	Yes	4.48482099996181	0	475793	252
931.34375	4.48482099996181	taste	choicePhaseStart	2	113	53	foodImage.1	FOODEEG_Images\0004.jpg	YN	Left	Yes	4.48482099996181	0	476849	253
935.818359375	0	taste	response	2	113	53	foodImage.1	FOODEEG_Images\0004.jpg	YN	Left	Yes	4.48482099996181	0	479140	234
936.861328125	1	taste	trialStart	2	114	54	foodImage.110	FOODEEG_Images\0918.jpg	YN	Right	No	1.57849069999065	0	479674	251
937.900390625	2	taste	foodImageDisplay	2	114	54	foodImage.110	FOODEEG_Images\0918.jpg	YN	Right	No	1.57849069999065	0	480206	252
939.962890625	1.57849069999065	taste	choicePhaseStart	2	114	54	foodImage.110	FOODEEG_Images\0918.jpg	YN	Right	No	1.57849069999065	0	481262	253
941.53125	0	taste	response	2	114	54	foodImage.110	FOODEEG_Images\0918.jpg	YN	Right	No	1.57849069999065	0	482065	235
942.572265625	1	taste	trialStart	2	115	55	foodImage.112	FOODEEG_Images\0920.jpg	YN	Left	Yes	1.68147239997052	0	482598	251
943.611328125	2	taste	foodImageDisplay	2	115	55	foodImage.112	FOODEEG_Images\0920.jpg	YN	Left	Yes	1.68147239997052	0	483130	252
945.673828125	1.68147239997052	taste	choicePhaseStart	2	115	55	foodImage.112	FOODEEG_Images\0920.jpg	YN	Left	Yes	1.68147239997052	0	484186	253
947.34765625	0	taste	response	2	115	55	foodImage.112	FOODEEG_Images\0920.jpg	YN	Left	Yes	1.68147239997052	0	485043	234
948.392578125	1	decision	trialStart	2	116	56	foodImage.81	FOODEEG_Images\0797.jpg	NY	Right	Yes	0.983270199969411	0	485578	251
949.455078125	2	decision	foodImageDisplay	2	116	56	foodImage.81	FOODEEG_Images\0797.jpg	NY	Right	Yes	0.983270199969411	0	486122	252
951.517578125	0.983270199969411	decision	choicePhaseStart	2	116	56	foodImage.81	FOODEEG_Images\0797.jpg	NY	Right	Yes	0.983270199969411	0	487178	253
952.490234375	0	decision	response	2	116	56	foodImage.81	FOODEEG_Images\0797.jpg	NY	Right	Yes	0.983270199969411	0	487676	235
953.53125	1	taste	trialStart	2	117	57	foodImage.72	FOODEEG_Images\0714.jpg	NY	Right	Yes	1.54687880002894	0	488209	251
954.57421875	2	taste	foodImageDisplay	2	117	57	foodImage.72	FOODEEG_Images\0714.jpg	NY	Right	Yes	1.54687880002894	0	488743	252
956.642578125	1.54687880002894	taste	choicePhaseStart	2	117	57	foodImage.72	FOODEEG_Images\0714.jpg	NY	Right	Yes	1.54687880002894	0	489802	253
958.177734375	0	taste	response	2	117	57	foodImage.72	FOODEEG_Images\0714.jpg	NY	Right	Yes	1.54687880002894	0	490588	235
959.22265625	1	decision	trialStart	2	118	58	foodImage.86	FOODEEG_Images\0844.jpg	YN	Left	Yes	1.47505329997512	0	491123	251
960.28125	2	decision	foodImageDisplay	2	118	58	foodImage.86	FOODEEG_Images\0844.jpg	YN	Left	Yes	1.47505329997512	0	491665	252
962.34375	1.47505329997512	decision	choicePhaseStart	2	118	58	foodImage.86	FOODEEG_Images\0844.jpg	YN	Left	Yes	1.47505329997512	0	492721	253
963.810546875	0	decision	response	2	118	58	foodImage.86	FOODEEG_Images\0844.jpg	YN	Left	Yes	1.47505329997512	0	493472	234
964.857421875	1	decision	trialStart	2	119	59	foodImage.115	FOODEEG_Images\0923.jpg	NY	Left	No	2.39432500000112	0	494008	251
965.8984375	2	decision	foodImageDisplay	2	119	59	foodImage.115	FOODEEG_Images\0923.jpg	NY	Left	No	2.39432500000112	0	494541	252
967.9609375	2.39432500000112	decision	choicePhaseStart	2	119	59	foodImage.115	FOODEEG_Images\0923.jpg	NY	Left	No	2.39432500000112	0	495597	253
970.345703125	0	decision	response	2	119	59	foodImage.115	FOODEEG_Images\0923.jpg	NY	Left	No	2.39432500000112	0	496818	234
971.388671875	1	taste	trialStart	2	120	60	foodImage.41	FOODEEG_Images\0409.jpg	NY	Right	Yes	0.99383009999292	0	497352	251
972.435546875	2	taste	foodImageDisplay	2	120	60	foodImage.41	FOODEEG_Images\0409.jpg	NY	Right	Yes	0.99383009999292	0	497888	252
974.498046875	0.99383009999292	taste	choicePhaseStart	2	120	60	foodImage.41	FOODEEG_Images\0409.jpg	NY	Right	Yes	0.99383009999292	0	498944	253
975.482421875	0	taste	response	2	120	60	foodImage.41	FOODEEG_Images\0409.jpg	NY	Right	Yes	0.99383009999292	0	499448	235
977.5234375	8.533203125	n/a	blockEnd	n/a	n/a	n/a	n/a	n/a	n/a	n/a	n/a	n/a	n/a	500493	254
986.056640625	2	n/a	blockStart	3	n/a	n/a	n/a	n/a	n/a	n/a	n/a	n/a	n/a	504862	250
988.08984375	1	taste	trialStart	3	121	1	foodImage.9	FOODEEG_Images\0138.jpg	YN	Right	No	1.23801430000458	0	505903	251
989.166015625	2	taste	foodImageDisplay	3	121	1	foodImage.9	FOODEEG_Images\0138.jpg	YN	Right	No	1.23801430000458	0	506454	252
991.228515625	1.23801430000458	taste	choicePhaseStart	3	121	1	foodImage.9	FOODEEG_Images\0138.jpg	YN	Right	No	1.23801430000458	0	507510	253
992.45703125	0	taste	response	3	121	1	foodImage.9	FOODEEG_Images\0138.jpg	YN	Right	No	1.23801430000458	0	508139	235
993.5	1	health	trialStart	3	122	2	foodImage.17	FOODEEG_Images\0199.jpg	NY	Left	No	2.00799189996906	0	508673	251
994.5390625	2	health	foodImageDisplay	3	122	2	foodImage.17	FOODEEG_Images\0199.jpg	NY	Left	No	2.00799189996906	0	509205	252
996.6015625	2.00799189996906	health	choicePhaseStart	3	122	2	foodImage.17	FOODEEG_Images\0199.jpg	NY	Left	No	2.00799189996906	0	510261	253
998.6015625	0	health	response	3	122	2	foodImage.17	FOODEEG_Images\0199.jpg	NY	Left	No	2.00799189996906	0	511285	234
999.64453125	1	taste	trialStart	3	123	3	foodImage.57	FOODEEG_Images\0587.jpg	YN	Left	Yes	1.03621819999535	0	511819	251
1000.6875	2	taste	foodImageDisplay	3	123	3	foodImage.57	FOODEEG_Images\0587.jpg	YN	Left	Yes	1.03621819999535	0	512353	252
1002.75	1.03621819999535	taste	choicePhaseStart	3	123	3	foodImage.57	FOODEEG_Images\0587.jpg	YN	Left	Yes	1.03621819999535	0	513409	253
1003.77734375	0	taste	response	3	123	3	foodImage.57	FOODEEG_Images\0587.jpg	YN	Left	Yes	1.03621819999535	0	513935	234
1004.818359375	1	health	trialStart	3	124	4	foodImage.45	FOODEEG_Images\0478.jpg	NY	Right	Yes	1.12318260001484	0	514468	251
1005.865234375	2	health	foodImageDisplay	3	124	4	foodImage.45	FOODEEG_Images\0478.jpg	NY	Right	Yes	1.12318260001484	0	515004	252
1007.927734375	1.12318260001484	health	choicePhaseStart	3	124	4	foodImage.45	FOODEEG_Images\0478.jpg	NY	Right	Yes	1.12318260001484	0	516060	253
1009.041015625	0	health	response	3	124	4	foodImage.45	FOODEEG_Images\0478.jpg	NY	Right	Yes	1.12318260001484	0	516630	235
1010.083984375	1	taste	trialStart	3	125	5	foodImage.91	FOODEEG_Images\0896.jpg	YN	Left	Yes	1.31995470001129	0	517164	251
1011.140625	2	taste	foodImageDisplay	3	125	5	foodImage.91	FOODEEG_Images\0896.jpg	YN	Left	Yes	1.31995470001129	0	517705	252
1013.201171875	1.31995470001129	taste	choicePhaseStart	3	125	5	foodImage.91	FOODEEG_Images\0896.jpg	YN	Left	Yes	1.31995470001129	0	518760	253
1014.51171875	0	taste	response	3	125	5	foodImage.91	FOODEEG_Images\0896.jpg	YN	Left	Yes	1.31995470001129	0	519431	234
1015.5546875	1	taste	trialStart	3	126	6	foodImage.70	FOODEEG_Images\0705.jpg	YN	Left	Yes	1.09210100001656	0	519965	251
1016.61328125	2	taste	foodImageDisplay	3	126	6	foodImage.70	FOODEEG_Images\0705.jpg	YN	Left	Yes	1.09210100001656	0	520507	252
1018.67578125	1.09210100001656	taste	choicePhaseStart	3	126	6	foodImage.70	FOODEEG_Images\0705.jpg	YN	Left	Yes	1.09210100001656	0	521563	253
1019.759765625	0	taste	response	3	126	6	foodImage.70	FOODEEG_Images\0705.jpg	YN	Left	Yes	1.09210100001656	0	522118	234
1020.802734375	1	taste	trialStart	3	127	7	foodImage.32	FOODEEG_Images\0319.jpg	YN	Left	Yes	0.868715199991129	0	522652	251
1021.845703125	2	taste	foodImageDisplay	3	127	7	foodImage.32	FOODEEG_Images\0319.jpg	YN	Left	Yes	0.868715199991129	0	523186	252
1023.908203125	0.868715199991129	taste	choicePhaseStart	3	127	7	foodImage.32	FOODEEG_Images\0319.jpg	YN	Left	Yes	0.868715199991129	0	524242	253
1024.767578125	0	taste	response	3	127	7	foodImage.32	FOODEEG_Images\0319.jpg	YN	Left	Yes	0.868715199991129	0	524682	234
1025.8125	1	taste	trialStart	3	128	8	foodImage.74	FOODEEG_Images\0752.jpg	NY	Right	Yes	1.5697732999688	0	525217	251
1026.85546875	2	taste	foodImageDisplay	3	128	8	foodImage.74	FOODEEG_Images\0752.jpg	NY	Right	Yes	1.5697732999688	0	525751	252
1028.919921875	1.5697732999688	taste	choicePhaseStart	3	128	8	foodImage.74	FOODEEG_Images\0752.jpg	NY	Right	Yes	1.5697732999688	0	526808	253
1030.478515625	0	taste	response	3	128	8	foodImage.74	FOODEEG_Images\0752.jpg	NY	Right	Yes	1.5697732999688	0	527606	235
1031.521484375	1	health	trialStart	3	129	9	foodImage.84	FOODEEG_Images\0830.jpg	YN	Left	Yes	1.34210800001165	0	528140	251
1032.580078125	2	health	foodImageDisplay	3	129	9	foodImage.84	FOODEEG_Images\0830.jpg	YN	Left	Yes	1.34210800001165	0	528682	252
1034.642578125	1.34210800001165	health	choicePhaseStart	3	129	9	foodImage.84	FOODEEG_Images\0830.jpg	YN	Left	Yes	1.34210800001165	0	529738	253
1035.974609375	0	health	response	3	129	9	foodImage.84	FOODEEG_Images\0830.jpg	YN	Left	Yes	1.34210800001165	0	530420	234
1037.01953125	1	taste	trialStart	3	130	10	foodImage.87	FOODEEG_Images\0873.jpg	NY	Right	Yes	1.14093579998007	0	530955	251
1038.076171875	2	taste	foodImageDisplay	3	130	10	foodImage.87	FOODEEG_Images\0873.jpg	NY	Right	Yes	1.14093579998007	0	531496	252
1040.138671875	1.14093579998007	taste	choicePhaseStart	3	130	10	foodImage.87	FOODEEG_Images\0873.jpg	NY	Right	Yes	1.14093579998007	0	532552	253
1041.271484375	0	taste	response	3	130	10	foodImage.87	FOODEEG_Images\0873.jpg	NY	Right	Yes	1.14093579998007	0	533132	235
1042.314453125	1	health	trialStart	3	131	11	foodImage.77	FOODEEG_Images\0771.jpg	NY	Right	Yes	0.932726000028197	0	533666	251
1043.357421875	2	health	foodImageDisplay	3	131	11	foodImage.77	FOODEEG_Images\0771.jpg	NY	Right	Yes	0.932726000028197	0	534200	252
1045.41796875	0.932726000028197	health	choicePhaseStart	3	131	11	foodImage.77	FOODEEG_Images\0771.jpg	NY	Right	Yes	0.932726000028197	0	535255	253
1046.341796875	0	health	response	3	131	11	foodImage.77	FOODEEG_Images\0771.jpg	NY	Right	Yes	0.932726000028197	0	535728	235
1047.38671875	1	health	trialStart	3	132	12	foodImage.101	FOODEEG_Images\0909.jpg	NY	Left	No	1.97662289999425	0	536263	251
1048.423828125	2	health	foodImageDisplay	3	132	12	foodImage.101	FOODEEG_Images\0909.jpg	NY	Left	No	1.97662289999425	0	536794	252
1050.486328125	1.97662289999425	health	choicePhaseStart	3	132	12	foodImage.101	FOODEEG_Images\0909.jpg	NY	Left	No	1.97662289999425	0	537850	253
1052.455078125	0	health	response	3	132	12	foodImage.101	FOODEEG_Images\0909.jpg	NY	Left	No	1.97662289999425	0	538858	234
1053.498046875	1	taste	trialStart	3	133	13	foodImage.7	FOODEEG_Images\0116.jpg	NY	Left	No	1.95909739995841	0	539392	251
1054.537109375	2	taste	foodImageDisplay	3	133	13	foodImage.7	FOODEEG_Images\0116.jpg	NY	Left	No	1.95909739995841	0	539924	252
1056.599609375	1.95909739995841	taste	choicePhaseStart	3	133	13	foodImage.7	FOODEEG_Images\0116.jpg	NY	Left	No	1.95909739995841	0	540980	253
1058.55078125	0	taste	response	3	133	13	foodImage.7	FOODEEG_Images\0116.jpg	NY	Left	No	1.95909739995841	0	541979	234
1059.599609375	1	health	trialStart	3	134	14	foodImage.116	FOODEEG_Images\0924.jpg	YN	Right	No	0.890925600018818	0	542516	251
1060.638671875	2	health	foodImageDisplay	3	134	14	foodImage.116	FOODEEG_Images\0924.jpg	YN	Right	No	0.890925600018818	0	543048	252
1062.703125	0.890925600018818	health	choicePhaseStart	3	134	14	foodImage.116	FOODEEG_Images\0924.jpg	YN	Right	No	0.890925600018818	0	544105	253
1063.58203125	0	health	response	3	134	14	foodImage.116	FOODEEG_Images\0924.jpg	YN	Right	No	0.890925600018818	0	544555	235
1064.625	1	decision	trialStart	3	135	15	foodImage.49	FOODEEG_Images\0515.jpg	YN	Left	Yes	1.18932990002213	0	545089	251
1065.666015625	2	decision	foodImageDisplay	3	135	15	foodImage.49	FOODEEG_Images\0515.jpg	YN	Left	Yes	1.18932990002213	0	545622	252
1067.728515625	1.18932990002213	decision	choicePhaseStart	3	135	15	foodImage.49	FOODEEG_Images\0515.jpg	YN	Left	Yes	1.18932990002213	0	546678	253
1068.91015625	0	decision	response	3	135	15	foodImage.49	FOODEEG_Images\0515.jpg	YN	Left	Yes	1.18932990002213	0	547283	234
1069.953125	1	health	trialStart	3	136	16	foodImage.33	FOODEEG_Images\0329.jpg	YN	Left	Yes	0.80635379999876	0	547817	251
1070.994140625	2	health	foodImageDisplay	3	136	16	foodImage.33	FOODEEG_Images\0329.jpg	YN	Left	Yes	0.80635379999876	0	548350	252
1073.056640625	0.80635379999876	health	choicePhaseStart	3	136	16	foodImage.33	FOODEEG_Images\0329.jpg	YN	Left	Yes	0.80635379999876	0	549406	253
1073.853515625	0	health	response	3	136	16	foodImage.33	FOODEEG_Images\0329.jpg	YN	Left	Yes	0.80635379999876	0	549814	234
1074.8984375	1	taste	trialStart	3	137	17	foodImage.42	FOODEEG_Images\0438.jpg	NY	Right	Yes	1.0577132999897	0	550349	251
1075.990234375	2	taste	foodImageDisplay	3	137	17	foodImage.42	FOODEEG_Images\0438.jpg	NY	Right	Yes	1.0577132999897	0	550908	252
1078.052734375	1.0577132999897	taste	choicePhaseStart	3	137	17	foodImage.42	FOODEEG_Images\0438.jpg	NY	Right	Yes	1.0577132999897	0	551964	253
1079.1015625	0	taste	response	3	137	17	foodImage.42	FOODEEG_Images\0438.jpg	NY	Right	Yes	1.0577132999897	0	552501	235
1080.14453125	1	health	trialStart	3	138	18	foodImage.69	FOODEEG_Images\0693.jpg	YN	Left	Yes	0.961509000044316	0	553035	251
1081.189453125	2	health	foodImageDisplay	3	138	18	foodImage.69	FOODEEG_Images\0693.jpg	YN	Left	Yes	0.961509000044316	0	553570	252
1083.251953125	0.961509000044316	health	choicePhaseStart	3	138	18	foodImage.69	FOODEEG_Images\0693.jpg	YN	Left	Yes	0.961509000044316	0	554626	253
1084.205078125	0	health	response	3	138	18	foodImage.69	FOODEEG_Images\0693.jpg	YN	Left	Yes	0.961509000044316	0	555114	234
1085.25	1	taste	trialStart	3	139	19	foodImage.99	FOODEEG_Images\0907.jpg	NY	Left	No	1.55089239997324	0	555649	251
1086.2890625	2	taste	foodImageDisplay	3	139	19	foodImage.99	FOODEEG_Images\0907.jpg	NY	Left	No	1.55089239997324	0	556181	252
1088.3515625	1.55089239997324	taste	choicePhaseStart	3	139	19	foodImage.99	FOODEEG_Images\0907.jpg	NY	Left	No	1.55089239997324	0	557237	253
1089.892578125	0	taste	response	3	139	19	foodImage.99	FOODEEG_Images\0907.jpg	NY	Left	No	1.55089239997324	0	558026	234
1090.931640625	1	taste	trialStart	3	140	20	foodImage.21	FOODEEG_Images\0234.jpg	NY	Right	Yes	1.19453599996632	0	558558	251
1091.986328125	2	taste	foodImageDisplay	3	140	20	foodImage.21	FOODEEG_Images\0234.jpg	NY	Right	Yes	1.19453599996632	0	559098	252
1094.05078125	1.19453599996632	taste	choicePhaseStart	3	140	20	foodImage.21	FOODEEG_Images\0234.jpg	NY	Right	Yes	1.19453599996632	0	560155	253
1095.236328125	0	taste	response	3	140	20	foodImage.21	FOODEEG_Images\0234.jpg	NY	Right	Yes	1.19453599996632	0	560762	235
1096.279296875	1	decision	trialStart	3	141	21	foodImage.56	FOODEEG_Images\0586.jpg	YN	Left	Yes	1.02233259996865	0	561296	251
1097.322265625	2	decision	foodImageDisplay	3	141	21	foodImage.56	FOODEEG_Images\0586.jpg	YN	Left	Yes	1.02233259996865	0	561830	252
1099.384765625	1.02233259996865	decision	choicePhaseStart	3	141	21	foodImage.56	FOODEEG_Images\0586.jpg	YN	Left	Yes	1.02233259996865	0	562886	253
1100.396484375	0	decision	response	3	141	21	foodImage.56	FOODEEG_Images\0586.jpg	YN	Left	Yes	1.02233259996865	0	563404	234
1101.439453125	1	health	trialStart	3	142	22	foodImage.62	FOODEEG_Images\0644.jpg	NY	Right	Yes	1.45851749996655	0	563938	251
1102.5	2	health	foodImageDisplay	3	142	22	foodImage.62	FOODEEG_Images\0644.jpg	NY	Right	Yes	1.45851749996655	0	564481	252
1104.5625	1.45851749996655	health	choicePhaseStart	3	142	22	foodImage.62	FOODEEG_Images\0644.jpg	NY	Right	Yes	1.45851749996655	0	565537	253
1106.013671875	0	health	response	3	142	22	foodImage.62	FOODEEG_Images\0644.jpg	NY	Right	Yes	1.45851749996655	0	566280	235
1107.0546875	1	health	trialStart	3	143	23	foodImage.71	FOODEEG_Images\0713.jpg	NY	Left	No	0.916690599988215	0	566813	251
1108.09765625	2	health	foodImageDisplay	3	143	23	foodImage.71	FOODEEG_Images\0713.jpg	NY	Left	No	0.916690599988215	0	567347	252
1110.16015625	0.916690599988215	health	choicePhaseStart	3	143	23	foodImage.71	FOODEEG_Images\0713.jpg	NY	Left	No	0.916690599988215	0	568403	253
1111.068359375	0	health	response	3	143	23	foodImage.71	FOODEEG_Images\0713.jpg	NY	Left	No	0.916690599988215	0	568868	234
1112.111328125	1	taste	trialStart	3	144	24	foodImage.20	FOODEEG_Images\0226.jpg	NY	Left	No	1.25819179997779	0	569402	251
1113.154296875	2	taste	foodImageDisplay	3	144	24	foodImage.20	FOODEEG_Images\0226.jpg	NY	Left	No	1.25819179997779	0	569936	252
1115.21875	1.25819179997779	taste	choicePhaseStart	3	144	24	foodImage.20	FOODEEG_Images\0226.jpg	NY	Left	No	1.25819179997779	0	570993	253
1116.46875	0	taste	response	3	144	24	foodImage.20	FOODEEG_Images\0226.jpg	NY	Left	No	1.25819179997779	0	571633	234
1117.51171875	1	taste	trialStart	3	145	25	foodImage.89	FOODEEG_Images\0881.jpg	NY	Right	Yes	1.04638700000942	0	572167	251
1118.568359375	2	taste	foodImageDisplay	3	145	25	foodImage.89	FOODEEG_Images\0881.jpg	NY	Right	Yes	1.04638700000942	0	572708	252
1120.630859375	1.04638700000942	taste	choicePhaseStart	3	145	25	foodImage.89	FOODEEG_Images\0881.jpg	NY	Right	Yes	1.04638700000942	0	573764	253
1121.66796875	0	taste	response	3	145	25	foodImage.89	FOODEEG_Images\0881.jpg	NY	Right	Yes	1.04638700000942	0	574295	235
1122.7109375	1	health	trialStart	3	146	26	foodImage.22	FOODEEG_Images\0236.jpg	NY	Left	No	1.42238130001351	0	574829	251
1123.751953125	2	health	foodImageDisplay	3	146	26	foodImage.22	FOODEEG_Images\0236.jpg	NY	Left	No	1.42238130001351	0	575362	252
1125.814453125	1.42238130001351	health	choicePhaseStart	3	146	26	foodImage.22	FOODEEG_Images\0236.jpg	NY	Left	No	1.42238130001351	0	576418	253
1127.228515625	0	health	response	3	146	26	foodImage.22	FOODEEG_Images\0236.jpg	NY	Left	No	1.42238130001351	0	577142	234
1128.275390625	1	decision	trialStart	3	147	27	foodImage.60	FOODEEG_Images\0614.jpg	NY	Right	Yes	1.47182570002042	0	577678	251
1129.333984375	2	decision	foodImageDisplay	3	147	27	foodImage.60	FOODEEG_Images\0614.jpg	NY	Right	Yes	1.47182570002042	0	578220	252
1131.396484375	1.47182570002042	decision	choicePhaseStart	3	147	27	foodImage.60	FOODEEG_Images\0614.jpg	NY	Right	Yes	1.47182570002042	0	579276	253
1132.859375	0	decision	response	3	147	27	foodImage.60	FOODEEG_Images\0614.jpg	NY	Right	Yes	1.47182570002042	0	580025	235
1133.90234375	1	decision	trialStart	3	148	28	foodImage.21	FOODEEG_Images\0234.jpg	NY	Right	Yes	1.1497494999785	0	580559	251
1134.958984375	2	decision	foodImageDisplay	3	148	28	foodImage.21	FOODEEG_Images\0234.jpg	NY	Right	Yes	1.1497494999785	0	581100	252
1137.021484375	1.1497494999785	decision	choicePhaseStart	3	148	28	foodImage.21	FOODEEG_Images\0234.jpg	NY	Right	Yes	1.1497494999785	0	582156	253
1138.162109375	0	decision	response	3	148	28	foodImage.21	FOODEEG_Images\0234.jpg	NY	Right	Yes	1.1497494999785	0	582740	235
1139.20703125	1	health	trialStart	3	149	29	foodImage.115	FOODEEG_Images\0923.jpg	NY	Right	Yes	2.31099169998197	0	583275	251
1140.24609375	2	health	foodImageDisplay	3	149	29	foodImage.115	FOODEEG_Images\0923.jpg	NY	Right	Yes	2.31099169998197	0	583807	252
1142.30859375	2.31099169998197	health	choicePhaseStart	3	149	29	foodImage.115	FOODEEG_Images\0923.jpg	NY	Right	Yes	2.31099169998197	0	584863	253
1144.611328125	0	health	response	3	149	29	foodImage.115	FOODEEG_Images\0923.jpg	NY	Right	Yes	2.31099169998197	0	586042	235
1145.654296875	1	decision	trialStart	3	150	30	foodImage.38	FOODEEG_Images\0365.jpg	YN	Left	Yes	1.5126600000076	0	586576	251
1146.693359375	2	decision	foodImageDisplay	3	150	30	foodImage.38	FOODEEG_Images\0365.jpg	YN	Left	Yes	1.5126600000076	0	587108	252
1148.755859375	1.5126600000076	decision	choicePhaseStart	3	150	30	foodImage.38	FOODEEG_Images\0365.jpg	YN	Left	Yes	1.5126600000076	0	588164	253
1150.259765625	0	decision	response	3	150	30	foodImage.38	FOODEEG_Images\0365.jpg	YN	Left	Yes	1.5126600000076	0	588934	234
1151.30078125	1	decision	trialStart	3	151	31	foodImage.119	FOODEEG_Images\0927.jpg	YN	Right	No	2.12861590000102	0	589467	251
1152.33984375	2	decision	foodImageDisplay	3	151	31	foodImage.119	FOODEEG_Images\0927.jpg	YN	Right	No	2.12861590000102	0	589999	252
1154.40234375	2.12861590000102	decision	choicePhaseStart	3	151	31	foodImage.119	FOODEEG_Images\0927.jpg	YN	Right	No	2.12861590000102	0	591055	253
1156.521484375	0	decision	response	3	151	31	foodImage.119	FOODEEG_Images\0927.jpg	YN	Right	No	2.12861590000102	0	592140	235
1157.564453125	1	decision	trialStart	3	152	32	foodImage.96	FOODEEG_Images\0904.jpg	NY	Right	Yes	1.64982439996675	0	592674	251
1158.603515625	2	decision	foodImageDisplay	3	152	32	foodImage.96	FOODEEG_Images\0904.jpg	NY	Right	Yes	1.64982439996675	0	593206	252
1160.666015625	1.64982439996675	decision	choicePhaseStart	3	152	32	foodImage.96	FOODEEG_Images\0904.jpg	NY	Right	Yes	1.64982439996675	0	594262	253
1162.306640625	0	decision	response	3	152	32	foodImage.96	FOODEEG_Images\0904.jpg	NY	Right	Yes	1.64982439996675	0	595102	235
1163.349609375	1	decision	trialStart	3	153	33	foodImage.18	FOODEEG_Images\0202.jpg	NY	Right	Yes	1.17516949999845	0	595636	251
1164.404296875	2	decision	foodImageDisplay	3	153	33	foodImage.18	FOODEEG_Images\0202.jpg	NY	Right	Yes	1.17516949999845	0	596176	252
1166.466796875	1.17516949999845	decision	choicePhaseStart	3	153	33	foodImage.18	FOODEEG_Images\0202.jpg	NY	Right	Yes	1.17516949999845	0	597232	253
1167.634765625	0	decision	response	3	153	33	foodImage.18	FOODEEG_Images\0202.jpg	NY	Right	Yes	1.17516949999845	0	597830	235
1168.69921875	1	taste	trialStart	3	154	34	foodImage.100	FOODEEG_Images\0908.jpg	YN	Left	Yes	1.25051230000099	0	598375	251
1169.73828125	2	taste	foodImageDisplay	3	154	34	foodImage.100	FOODEEG_Images\0908.jpg	YN	Left	Yes	1.25051230000099	0	598907	252
1171.798828125	1.25051230000099	taste	choicePhaseStart	3	154	34	foodImage.100	FOODEEG_Images\0908.jpg	YN	Left	Yes	1.25051230000099	0	599962	253
1173.041015625	0	taste	response	3	154	34	foodImage.100	FOODEEG_Images\0908.jpg	YN	Left	Yes	1.25051230000099	0	600598	234
1174.083984375	1	health	trialStart	3	155	35	foodImage.8	FOODEEG_Images\0136.jpg	NY	Left	No	1.38948830001755	0	601132	251
1175.126953125	2	health	foodImageDisplay	3	155	35	foodImage.8	FOODEEG_Images\0136.jpg	NY	Left	No	1.38948830001755	0	601666	252
1177.1875	1.38948830001755	health	choicePhaseStart	3	155	35	foodImage.8	FOODEEG_Images\0136.jpg	NY	Left	No	1.38948830001755	0	602721	253
1178.5703125	0	health	response	3	155	35	foodImage.8	FOODEEG_Images\0136.jpg	NY	Left	No	1.38948830001755	0	603429	234
1179.61328125	1	decision	trialStart	3	156	36	foodImage.28	FOODEEG_Images\0273.jpg	YN	Left	Yes	0.984476200013887	0	603963	251
1180.673828125	2	decision	foodImageDisplay	3	156	36	foodImage.28	FOODEEG_Images\0273.jpg	YN	Left	Yes	0.984476200013887	0	604506	252
1182.73828125	0.984476200013887	decision	choicePhaseStart	3	156	36	foodImage.28	FOODEEG_Images\0273.jpg	YN	Left	Yes	0.984476200013887	0	605563	253
1183.712890625	0	decision	response	3	156	36	foodImage.28	FOODEEG_Images\0273.jpg	YN	Left	Yes	0.984476200013887	0	606062	234
1184.7578125	1	taste	trialStart	3	157	37	foodImage.39	FOODEEG_Images\0367.jpg	YN	Right	No	1.57540600001812	0	606597	251
1185.794921875	2	taste	foodImageDisplay	3	157	37	foodImage.39	FOODEEG_Images\0367.jpg	YN	Right	No	1.57540600001812	0	607128	252
1187.857421875	1.57540600001812	taste	choicePhaseStart	3	157	37	foodImage.39	FOODEEG_Images\0367.jpg	YN	Right	No	1.57540600001812	0	608184	253
1189.42578125	0	taste	response	3	157	37	foodImage.39	FOODEEG_Images\0367.jpg	YN	Right	No	1.57540600001812	0	608987	235
1190.46875	1	taste	trialStart	3	158	38	foodImage.5	FOODEEG_Images\0107.jpg	YN	Left	Yes	3.20415479998337	0	609521	251
1191.548828125	2	taste	foodImageDisplay	3	158	38	foodImage.5	FOODEEG_Images\0107.jpg	YN	Left	Yes	3.20415479998337	0	610074	252
1193.61328125	3.20415479998337	taste	choicePhaseStart	3	158	38	foodImage.5	FOODEEG_Images\0107.jpg	YN	Left	Yes	3.20415479998337	0	611131	253
1196.80859375	0	taste	response	3	158	38	foodImage.5	FOODEEG_Images\0107.jpg	YN	Left	Yes	3.20415479998337	0	612767	234
1197.8515625	1	health	trialStart	3	159	39	foodImage.94	FOODEEG_Images\0902.jpg	YN	Left	Yes	1.99290869996184	0	613301	251
1198.90625	2	health	foodImageDisplay	3	159	39	foodImage.94	FOODEEG_Images\0902.jpg	YN	Left	Yes	1.99290869996184	0	613841	252
1200.96875	1.99290869996184	health	choicePhaseStart	3	159	39	foodImage.94	FOODEEG_Images\0902.jpg	YN	Left	Yes	1.99290869996184	0	614897	253
1202.953125	0	health	response	3	159	39	foodImage.94	FOODEEG_Images\0902.jpg	YN	Left	Yes	1.99290869996184	0	615913	234
1203.99609375	1	health	trialStart	3	160	40	foodImage.4	FOODEEG_Images\0065.jpg	NY	Left	No	1.67550539999502	0	616447	251
1205.056640625	2	health	foodImageDisplay	3	160	40	foodImage.4	FOODEEG_Images\0065.jpg	NY	Left	No	1.67550539999502	0	616990	252
1207.119140625	1.67550539999502	health	choicePhaseStart	3	160	40	foodImage.4	FOODEEG_Images\0065.jpg	NY	Left	No	1.67550539999502	0	618046	253
1208.78515625	0	health	response	3	160	40	foodImage.4	FOODEEG_Images\0065.jpg	NY	Left	No	1.67550539999502	0	618899	234
1209.828125	1	decision	trialStart	3	161	41	foodImage.104	FOODEEG_Images\0912.jpg	YN	Right	No	1.55982059997041	0	619433	251
1210.8671875	2	decision	foodImageDisplay	3	161	41	foodImage.104	FOODEEG_Images\0912.jpg	YN	Right	No	1.55982059997041	0	619965	252
1212.9296875	1.55982059997041	decision	choicePhaseStart	3	161	41	foodImage.104	FOODEEG_Images\0912.jpg	YN	Right	No	1.55982059997041	0	621021	253
1214.48046875	0	decision	response	3	161	41	foodImage.104	FOODEEG_Images\0912.jpg	YN	Right	No	1.55982059997041	0	621815	235
1215.5234375	1	decision	trialStart	3	162	42	foodImage.97	FOODEEG_Images\0905.jpg	YN	Right	No	0.959644899994601	0	622349	251
1216.5625	2	decision	foodImageDisplay	3	162	42	foodImage.97	FOODEEG_Images\0905.jpg	YN	Right	No	0.959644899994601	0	622881	252
1218.625	0.959644899994601	decision	choicePhaseStart	3	162	42	foodImage.97	FOODEEG_Images\0905.jpg	YN	Right	No	0.959644899994601	0	623937	253
1219.576171875	0	decision	response	3	162	42	foodImage.97	FOODEEG_Images\0905.jpg	YN	Right	No	0.959644899994601	0	624424	235
1220.619140625	1	health	trialStart	3	163	43	foodImage.26	FOODEEG_Images\0262.jpg	YN	Left	Yes	0.997208799992222	0	624958	251
1221.66015625	2	health	foodImageDisplay	3	163	43	foodImage.26	FOODEEG_Images\0262.jpg	YN	Left	Yes	0.997208799992222	0	625491	252
1223.72265625	0.997208799992222	health	choicePhaseStart	3	163	43	foodImage.26	FOODEEG_Images\0262.jpg	YN	Left	Yes	0.997208799992222	0	626547	253
1224.7109375	0	health	response	3	163	43	foodImage.26	FOODEEG_Images\0262.jpg	YN	Left	Yes	0.997208799992222	0	627053	234
1225.755859375	1	taste	trialStart	3	164	44	foodImage.102	FOODEEG_Images\0910.jpg	NY	Right	Yes	2.20787580002798	0	627588	251
1226.794921875	2	taste	foodImageDisplay	3	164	44	foodImage.102	FOODEEG_Images\0910.jpg	NY	Right	Yes	2.20787580002798	0	628120	252
1228.857421875	2.20787580002798	taste	choicePhaseStart	3	164	44	foodImage.102	FOODEEG_Images\0910.jpg	NY	Right	Yes	2.20787580002798	0	629176	253
1231.0546875	0	taste	response	3	164	44	foodImage.102	FOODEEG_Images\0910.jpg	NY	Right	Yes	2.20787580002798	0	630301	235
1232.10546875	1	health	trialStart	3	165	45	foodImage.85	FOODEEG_Images\0841.jpg	NY	Left	No	1.11837629997171	0	630839	251
1233.1640625	2	health	foodImageDisplay	3	165	45	foodImage.85	FOODEEG_Images\0841.jpg	NY	Left	No	1.11837629997171	0	631381	252
1235.2265625	1.11837629997171	health	choicePhaseStart	3	165	45	foodImage.85	FOODEEG_Images\0841.jpg	NY	Left	No	1.11837629997171	0	632437	253
1236.3359375	0	health	response	3	165	45	foodImage.85	FOODEEG_Images\0841.jpg	NY	Left	No	1.11837629997171	0	633005	234
1237.37890625	1	taste	trialStart	3	166	46	foodImage.75	FOODEEG_Images\0763.jpg	YN	Left	Yes	1.21054790000198	0	633539	251
1238.421875	2	taste	foodImageDisplay	3	166	46	foodImage.75	FOODEEG_Images\0763.jpg	YN	Left	Yes	1.21054790000198	0	634073	252
1240.484375	1.21054790000198	taste	choicePhaseStart	3	166	46	foodImage.75	FOODEEG_Images\0763.jpg	YN	Left	Yes	1.21054790000198	0	635129	253
1241.6875	0	taste	response	3	166	46	foodImage.75	FOODEEG_Images\0763.jpg	YN	Left	Yes	1.21054790000198	0	635745	234
1242.73046875	1	taste	trialStart	3	167	47	foodImage.81	FOODEEG_Images\0797.jpg	YN	Left	Yes	1.30237250000937	0	636279	251
1243.787109375	2	taste	foodImageDisplay	3	167	47	foodImage.81	FOODEEG_Images\0797.jpg	YN	Left	Yes	1.30237250000937	0	636820	252
1245.849609375	1.30237250000937	taste	choicePhaseStart	3	167	47	foodImage.81	FOODEEG_Images\0797.jpg	YN	Left	Yes	1.30237250000937	0	637876	253
1247.142578125	0	taste	response	3	167	47	foodImage.81	FOODEEG_Images\0797.jpg	YN	Left	Yes	1.30237250000937	0	638538	234
1248.1875	1	health	trialStart	3	168	48	foodImage.108	FOODEEG_Images\0916.jpg	YN	Right	No	0.98232419998385	0	639073	251
1249.2265625	2	health	foodImageDisplay	3	168	48	foodImage.108	FOODEEG_Images\0916.jpg	YN	Right	No	0.98232419998385	0	639605	252
1251.2890625	0.98232419998385	health	choicePhaseStart	3	168	48	foodImage.108	FOODEEG_Images\0916.jpg	YN	Right	No	0.98232419998385	0	640661	253
1252.263671875	0	health	response	3	168	48	foodImage.108	FOODEEG_Images\0916.jpg	YN	Right	No	0.98232419998385	0	641160	235
1253.306640625	1	decision	trialStart	3	169	49	foodImage.32	FOODEEG_Images\0319.jpg	YN	Left	Yes	0.932087200053502	0	641694	251
1254.34765625	2	decision	foodImageDisplay	3	169	49	foodImage.32	FOODEEG_Images\0319.jpg	YN	Left	Yes	0.932087200053502	0	642227	252
1256.412109375	0.932087200053502	decision	choicePhaseStart	3	169	49	foodImage.32	FOODEEG_Images\0319.jpg	YN	Left	Yes	0.932087200053502	0	643284	253
1257.333984375	0	decision	response	3	169	49	foodImage.32	FOODEEG_Images\0319.jpg	YN	Left	Yes	0.932087200053502	0	643756	234
1258.376953125	1	health	trialStart	3	170	50	foodImage.40	FOODEEG_Images\0373.jpg	YN	Right	No	1.15452460001688	0	644290	251
1259.41796875	2	health	foodImageDisplay	3	170	50	foodImage.40	FOODEEG_Images\0373.jpg	YN	Right	No	1.15452460001688	0	644823	252
1261.486328125	1.15452460001688	health	choicePhaseStart	3	170	50	foodImage.40	FOODEEG_Images\0373.jpg	YN	Right	No	1.15452460001688	0	645882	253
1262.630859375	0	health	response	3	170	50	foodImage.40	FOODEEG_Images\0373.jpg	YN	Right	No	1.15452460001688	0	646468	235
1263.6953125	1	decision	trialStart	3	171	51	foodImage.107	FOODEEG_Images\0915.jpg	NY	Right	Yes	1.5231220999849	0	647013	251
1264.732421875	2	decision	foodImageDisplay	3	171	51	foodImage.107	FOODEEG_Images\0915.jpg	NY	Right	Yes	1.5231220999849	0	647544	252
1266.794921875	1.5231220999849	decision	choicePhaseStart	3	171	51	foodImage.107	FOODEEG_Images\0915.jpg	NY	Right	Yes	1.5231220999849	0	648600	253
1268.310546875	0	decision	response	3	171	51	foodImage.107	FOODEEG_Images\0915.jpg	NY	Right	Yes	1.5231220999849	0	649376	235
1269.353515625	1	decision	trialStart	3	172	52	foodImage.26	FOODEEG_Images\0262.jpg	NY	Right	Yes	1.36739299999317	0	649910	251
1270.396484375	2	decision	foodImageDisplay	3	172	52	foodImage.26	FOODEEG_Images\0262.jpg	NY	Right	Yes	1.36739299999317	0	650444	252
1272.462890625	1.36739299999317	decision	choicePhaseStart	3	172	52	foodImage.26	FOODEEG_Images\0262.jpg	NY	Right	Yes	1.36739299999317	0	651502	253
1273.822265625	0	decision	response	3	172	52	foodImage.26	FOODEEG_Images\0262.jpg	NY	Right	Yes	1.36739299999317	0	652198	235
1274.865234375	1	decision	trialStart	3	173	53	foodImage.77	FOODEEG_Images\0771.jpg	YN	Left	Yes	1.29832350002835	0	652732	251
1275.91015625	2	decision	foodImageDisplay	3	173	53	foodImage.77	FOODEEG_Images\0771.jpg	YN	Left	Yes	1.29832350002835	0	653267	252
1277.97265625	1.29832350002835	decision	choicePhaseStart	3	173	53	foodImage.77	FOODEEG_Images\0771.jpg	YN	Left	Yes	1.29832350002835	0	654323	253
1279.26171875	0	decision	response	3	173	53	foodImage.77	FOODEEG_Images\0771.jpg	YN	Left	Yes	1.29832350002835	0	654983	234
1280.3046875	1	health	trialStart	3	174	54	foodImage.119	FOODEEG_Images\0927.jpg	NY	Left	No	1.20166219997918	0	655517	251
1281.341796875	2	health	foodImageDisplay	3	174	54	foodImage.119	FOODEEG_Images\0927.jpg	NY	Left	No	1.20166219997918	0	656048	252
1283.404296875	1.20166219997918	health	choicePhaseStart	3	174	54	foodImage.119	FOODEEG_Images\0927.jpg	NY	Left	No	1.20166219997918	0	657104	253
1284.59765625	0	health	response	3	174	54	foodImage.119	FOODEEG_Images\0927.jpg	NY	Left	No	1.20166219997918	0	657715	234
1285.640625	1	taste	trialStart	3	175	55	foodImage.48	FOODEEG_Images\0494.jpg	NY	Left	No	1.2995954999933	0	658249	251
1286.681640625	2	taste	foodImageDisplay	3	175	55	foodImage.48	FOODEEG_Images\0494.jpg	NY	Left	No	1.2995954999933	0	658782	252
1288.74609375	1.2995954999933	taste	choicePhaseStart	3	175	55	foodImage.48	FOODEEG_Images\0494.jpg	NY	Left	No	1.2995954999933	0	659839	253
1290.037109375	0	taste	response	3	175	55	foodImage.48	FOODEEG_Images\0494.jpg	NY	Left	No	1.2995954999933	0	660500	234
1291.080078125	1	taste	trialStart	3	176	56	foodImage.34	FOODEEG_Images\0339.jpg	YN	Right	No	1.19741860002978	0	661034	251
1292.138671875	2	taste	foodImageDisplay	3	176	56	foodImage.34	FOODEEG_Images\0339.jpg	YN	Right	No	1.19741860002978	0	661576	252
1294.19921875	1.19741860002978	taste	choicePhaseStart	3	176	56	foodImage.34	FOODEEG_Images\0339.jpg	YN	Right	No	1.19741860002978	0	662631	253
1295.388671875	0	taste	response	3	176	56	foodImage.34	FOODEEG_Images\0339.jpg	YN	Right	No	1.19741860002978	0	663240	235
1296.431640625	1	decision	trialStart	3	177	57	foodImage.7	FOODEEG_Images\0116.jpg	YN	Right	No	1.22947389999172	0	663774	251
1297.474609375	2	decision	foodImageDisplay	3	177	57	foodImage.7	FOODEEG_Images\0116.jpg	YN	Right	No	1.22947389999172	0	664308	252
1299.53515625	1.22947389999172	decision	choicePhaseStart	3	177	57	foodImage.7	FOODEEG_Images\0116.jpg	YN	Right	No	1.22947389999172	0	665363	253
1300.7578125	0	decision	response	3	177	57	foodImage.7	FOODEEG_Images\0116.jpg	YN	Right	No	1.22947389999172	0	665989	235
1301.80078125	1	taste	trialStart	3	178	58	foodImage.2	FOODEEG_Images\0028.jpg	YN	Left	Yes	1.51667610002914	0	666523	251
1302.84375	2	taste	foodImageDisplay	3	178	58	foodImage.2	FOODEEG_Images\0028.jpg	YN	Left	Yes	1.51667610002914	0	667057	252
1304.904296875	1.51667610002914	taste	choicePhaseStart	3	178	58	foodImage.2	FOODEEG_Images\0028.jpg	YN	Left	Yes	1.51667610002914	0	668112	253
1306.412109375	0	taste	response	3	178	58	foodImage.2	FOODEEG_Images\0028.jpg	YN	Left	Yes	1.51667610002914	0	668884	234
1307.455078125	1	decision	trialStart	3	179	59	foodImage.111	FOODEEG_Images\0919.jpg	YN	Right	No	1.14264059998095	0	669418	251
1308.49609375	2	decision	foodImageDisplay	3	179	59	foodImage.111	FOODEEG_Images\0919.jpg	YN	Right	No	1.14264059998095	0	669951	252
1310.55859375	1.14264059998095	decision	choicePhaseStart	3	179	59	foodImage.111	FOODEEG_Images\0919.jpg	YN	Right	No	1.14264059998095	0	671007	253
1311.69140625	0	decision	response	3	179	59	foodImage.111	FOODEEG_Images\0919.jpg	YN	Right	No	1.14264059998095	0	671587	235
1312.736328125	1	health	trialStart	3	180	60	foodImage.90	FOODEEG_Images\0890.jpg	YN	Right	No	3.7221568999812	0	672122	251
1313.796875	2	health	foodImageDisplay	3	180	60	foodImage.90	FOODEEG_Images\0890.jpg	YN	Right	No	3.7221568999812	0	672665	252
1315.859375	3.7221568999812	health	choicePhaseStart	3	180	60	foodImage.90	FOODEEG_Images\0890.jpg	YN	Right	No	3.7221568999812	0	673721	253
1319.572265625	0	health	response	3	180	60	foodImage.90	FOODEEG_Images\0890.jpg	YN	Right	No	3.7221568999812	0	675622	235
1321.6171875	10.70703125	n/a	blockEnd	n/a	n/a	n/a	n/a	n/a	n/a	n/a	n/a	n/a	n/a	676669	254
1332.32421875	2	n/a	blockStart	4	n/a	n/a	n/a	n/a	n/a	n/a	n/a	n/a	n/a	682151	250
1334.357421875	1	decision	trialStart	4	181	1	foodImage.78	FOODEEG_Images\0787.jpg	NY	Right	Yes	0.966974599985406	0	683192	251
1335.404296875	2	decision	foodImageDisplay	4	181	1	foodImage.78	FOODEEG_Images\0787.jpg	NY	Right	Yes	0.966974599985406	0	683728	252
1337.46875	0.966974599985406	decision	choicePhaseStart	4	181	1	foodImage.78	FOODEEG_Images\0787.jpg	NY	Right	Yes	0.966974599985406	0	684785	253
1338.427734375	0	decision	response	4	181	1	foodImage.78	FOODEEG_Images\0787.jpg	NY	Right	Yes	0.966974599985406	0	685276	235
1339.46875	1	taste	trialStart	4	182	2	foodImage.82	FOODEEG_Images\0805.jpg	NY	Right	Yes	0.904594800027553	0	685809	251
1340.55078125	2	taste	foodImageDisplay	4	182	2	foodImage.82	FOODEEG_Images\0805.jpg	NY	Right	Yes	0.904594800027553	0	686363	252
1342.61328125	0.904594800027553	taste	choicePhaseStart	4	182	2	foodImage.82	FOODEEG_Images\0805.jpg	NY	Right	Yes	0.904594800027553	0	687419	253
1343.5078125	0	taste	response	4	182	2	foodImage.82	FOODEEG_Images\0805.jpg	NY	Right	Yes	0.904594800027553	0	687877	235
1344.548828125	1	health	trialStart	4	183	3	foodImage.12	FOODEEG_Images\0181.jpg	NY	Left	No	1.30453810002655	0	688410	251
1345.58984375	2	health	foodImageDisplay	4	183	3	foodImage.12	FOODEEG_Images\0181.jpg	NY	Left	No	1.30453810002655	0	688943	252
1347.65234375	1.30453810002655	health	choicePhaseStart	4	183	3	foodImage.12	FOODEEG_Images\0181.jpg	NY	Left	No	1.30453810002655	0	689999	253
1348.947265625	0	health	response	4	183	3	foodImage.12	FOODEEG_Images\0181.jpg	NY	Left	No	1.30453810002655	0	690662	234
1349.990234375	1	decision	trialStart	4	184	4	foodImage.37	FOODEEG_Images\0359.jpg	YN	Left	Yes	1.24631429999135	0	691196	251
1351.03125	2	decision	foodImageDisplay	4	184	4	foodImage.37	FOODEEG_Images\0359.jpg	YN	Left	Yes	1.24631429999135	0	691729	252
1353.09375	1.24631429999135	decision	choicePhaseStart	4	184	4	foodImage.37	FOODEEG_Images\0359.jpg	YN	Left	Yes	1.24631429999135	0	692785	253
1354.330078125	0	decision	response	4	184	4	foodImage.37	FOODEEG_Images\0359.jpg	YN	Left	Yes	1.24631429999135	0	693418	234
1355.373046875	1	taste	trialStart	4	185	5	foodImage.84	FOODEEG_Images\0830.jpg	NY	Right	Yes	0.983348099980503	0	693952	251
1356.4296875	2	taste	foodImageDisplay	4	185	5	foodImage.84	FOODEEG_Images\0830.jpg	NY	Right	Yes	0.983348099980503	0	694493	252
1358.4921875	0.983348099980503	taste	choicePhaseStart	4	185	5	foodImage.84	FOODEEG_Images\0830.jpg	NY	Right	Yes	0.983348099980503	0	695549	253
1359.466796875	0	taste	response	4	185	5	foodImage.84	FOODEEG_Images\0830.jpg	NY	Right	Yes	0.983348099980503	0	696048	235
1360.517578125	1	taste	trialStart	4	186	6	foodImage.69	FOODEEG_Images\0693.jpg	NY	Right	Yes	1.14173229999142	0	696586	251
1361.55859375	2	taste	foodImageDisplay	4	186	6	foodImage.69	FOODEEG_Images\0693.jpg	NY	Right	Yes	1.14173229999142	0	697119	252
1363.62109375	1.14173229999142	taste	choicePhaseStart	4	186	6	foodImage.69	FOODEEG_Images\0693.jpg	NY	Right	Yes	1.14173229999142	0	698175	253
1364.75390625	0	taste	response	4	186	6	foodImage.69	FOODEEG_Images\0693.jpg	NY	Right	Yes	1.14173229999142	0	698755	235
1365.806640625	1	health	trialStart	4	187	7	foodImage.31	FOODEEG_Images\0294.jpg	NY	Left	No	1.00189499999397	0	699294	251
1366.849609375	2	health	foodImageDisplay	4	187	7	foodImage.31	FOODEEG_Images\0294.jpg	NY	Left	No	1.00189499999397	0	699828	252
1368.912109375	1.00189499999397	health	choicePhaseStart	4	187	7	foodImage.31	FOODEEG_Images\0294.jpg	NY	Left	No	1.00189499999397	0	700884	253
1369.90625	0	health	response	4	187	7	foodImage.31	FOODEEG_Images\0294.jpg	NY	Left	No	1.00189499999397	0	701393	234
1370.94921875	1	health	trialStart	4	188	8	foodImage.103	FOODEEG_Images\0911.jpg	YN	Right	No	1.02416340005584	0	701927	251
1372.00390625	2	health	foodImageDisplay	4	188	8	foodImage.103	FOODEEG_Images\0911.jpg	YN	Right	No	1.02416340005584	0	702467	252
1374.06640625	1.02416340005584	health	choicePhaseStart	4	188	8	foodImage.103	FOODEEG_Images\0911.jpg	YN	Right	No	1.02416340005584	0	703523	253
1375.08203125	0	health	response	4	188	8	foodImage.103	FOODEEG_Images\0911.jpg	YN	Right	No	1.02416340005584	0	704043	235
1376.125	1	decision	trialStart	4	189	9	foodImage.114	FOODEEG_Images\0922.jpg	NY	Right	Yes	1.31959539995296	0	704577	251
1377.1640625	2	decision	foodImageDisplay	4	189	9	foodImage.114	FOODEEG_Images\0922.jpg	NY	Right	Yes	1.31959539995296	0	705109	252
1379.228515625	1.31959539995296	decision	choicePhaseStart	4	189	9	foodImage.114	FOODEEG_Images\0922.jpg	NY	Right	Yes	1.31959539995296	0	706166	253
1380.537109375	0	decision	response	4	189	9	foodImage.114	FOODEEG_Images\0922.jpg	NY	Right	Yes	1.31959539995296	0	706836	235
1381.580078125	1	taste	trialStart	4	190	10	foodImage.47	FOODEEG_Images\0488.jpg	YN	Right	No	2.36947800003691	0	707370	251
1382.62109375	2	taste	foodImageDisplay	4	190	10	foodImage.47	FOODEEG_Images\0488.jpg	YN	Right	No	2.36947800003691	0	707903	252
1384.689453125	2.36947800003691	taste	choicePhaseStart	4	190	10	foodImage.47	FOODEEG_Images\0488.jpg	YN	Right	No	2.36947800003691	0	708962	253
1387.048828125	0	taste	response	4	190	10	foodImage.47	FOODEEG_Images\0488.jpg	YN	Right	No	2.36947800003691	0	710170	235
1388.091796875	1	decision	trialStart	4	191	11	foodImage.46	FOODEEG_Images\0479.jpg	NY	Left	No	1.27617839997401	0	710704	251
1389.150390625	2	decision	foodImageDisplay	4	191	11	foodImage.46	FOODEEG_Images\0479.jpg	NY	Left	No	1.27617839997401	0	711246	252
1391.21484375	1.27617839997401	decision	choicePhaseStart	4	191	11	foodImage.46	FOODEEG_Images\0479.jpg	NY	Left	No	1.27617839997401	0	712303	253
1392.48046875	0	decision	response	4	191	11	foodImage.46	FOODEEG_Images\0479.jpg	NY	Left	No	1.27617839997401	0	712951	234
1393.525390625	1	decision	trialStart	4	192	12	foodImage.36	FOODEEG_Images\0352.jpg	YN	Left	Yes	2.62871780002024	0	713486	251
1394.58203125	2	decision	foodImageDisplay	4	192	12	foodImage.36	FOODEEG_Images\0352.jpg	YN	Left	Yes	2.62871780002024	0	714027	252
1396.64453125	2.62871780002024	decision	choicePhaseStart	4	192	12	foodImage.36	FOODEEG_Images\0352.jpg	YN	Left	Yes	2.62871780002024	0	715083	253
1399.265625	0	decision	response	4	192	12	foodImage.36	FOODEEG_Images\0352.jpg	YN	Left	Yes	2.62871780002024	0	716425	234
1400.30859375	1	taste	trialStart	4	193	13	foodImage.83	FOODEEG_Images\0827.jpg	YN	Left	Yes	1.13287219998892	0	716959	251
1401.365234375	2	taste	foodImageDisplay	4	193	13	foodImage.83	FOODEEG_Images\0827.jpg	YN	Left	Yes	1.13287219998892	0	717500	252
1403.427734375	1.13287219998892	taste	choicePhaseStart	4	193	13	foodImage.83	FOODEEG_Images\0827.jpg	YN	Left	Yes	1.13287219998892	0	718556	253
1404.552734375	0	taste	response	4	193	13	foodImage.83	FOODEEG_Images\0827.jpg	YN	Left	Yes	1.13287219998892	0	719132	234
