onset	duration	trial_type	event_type	block	trial_total	trial_in_block	food_image_code	food_image_path	button_position	resp_position	resp_choice	choice_rt	resp_too_slow	sample	trigger
303.673828125	2	n/a	blockStart	1	n/a	n/a	n/a	n/a	n/a	n/a	n/a	n/a	n/a	155482	250
305.7109375	1	health	trialStart	1	1	1	foodImage.3	FOODEEG_Images\0046.jpg	YN	Right	No	1.42342650005594	0	156525	251
306.755859375	2	health	foodImageDisplay	1	1	1	foodImage.3	FOODEEG_Images\0046.jpg	YN	Right	No	1.42342650005594	0	157060	252
308.8203125	1.42342650005594	health	choicePhaseStart	1	1	1	foodImage.3	FOODEEG_Images\0046.jpg	YN	Right	No	1.42342650005594	0	158117	253
310.236328125	0	health	response	1	1	1	foodImage.3	FOODEEG_Images\0046.jpg	YN	Right	No	1.42342650005594	0	158842	235
311.40234375	1	decision	trialStart	1	2	2	foodImage.110	FOODEEG_Images\0918.jpg	YN	Left	Yes	0.952363400021568	0	159439	251
312.443359375	2	decision	foodImageDisplay	1	2	2	foodImage.110	FOODEEG_Images\0918.jpg	YN	Left	Yes	0.952363400021568	0	159972	252
314.5078125	0.952363400021568	decision	choicePhaseStart	1	2	2	foodImage.110	FOODEEG_Images\0918.jpg	YN	Left	Yes	0.952363400021568	0	161029	253
315.453125	0	decision	response	1	2	2	foodImage.110	FOODEEG_Images\0918.jpg	YN	Left	Yes	0.952363400021568	0	161513	234
316.5078125	1	decision	trialStart	1	3	3	foodImage.97	FOODEEG_Images\0905.jpg	NY	Left	No	1.32439909991808	0	162053	251
317.552734375	2	decision	foodImageDisplay	1	3	3	foodImage.97	FOODEEG_Images\0905.jpg	NY	Left	No	1.32439909991808	0	162588	252
319.615234375	1.32439909991808	decision	choicePhaseStart	1	3	3	foodImage.97	FOODEEG_Images\0905.jpg	NY	Left	No	1.32439909991808	0	163644	253
320.931640625	0	decision	response	1	3	3	foodImage.97	FOODEEG_Images\0905.jpg	NY	Left	No	1.32439909991808	0	164318	234
321.9765625	1	decision	trialStart	1	4	4	foodImage.106	FOODEEG_Images\0914.jpg	NY	Right	Yes	0.670185699942522	0	164853	251
323.015625	2	decision	foodImageDisplay	1	4	4	foodImage.106	FOODEEG_Images\0914.jpg	NY	Right	Yes	0.670185699942522	0	165385	252
325.078125	0.670185699942522	decision	choicePhaseStart	1	4	4	foodImage.106	FOODEEG_Images\0914.jpg	NY	Right	Yes	0.670185699942522	0	166441	253
325.740234375	0	decision	response	1	4	4	foodImage.106	FOODEEG_Images\0914.jpg	NY	Right	Yes	0.670185699942522	0	166780	235
326.78515625	1	taste	trialStart	1	5	5	foodImage.76	FOODEEG_Images\0766.jpg	NY	Right	Yes	0.864787200000137	0	167315	251
327.833984375	2	taste	foodImageDisplay	1	5	5	foodImage.76	FOODEEG_Images\0766.jpg	NY	Right	Yes	0.864787200000137	0	167852	252
329.8984375	0.864787200000137	taste	choicePhaseStart	1	5	5	foodImage.76	FOODEEG_Images\0766.jpg	NY	Right	Yes	0.864787200000137	0	168909	253
330.755859375	0	taste	response	1	5	5	foodImage.76	FOODEEG_Images\0766.jpg	NY	Right	Yes	0.864787200000137	0	169348	235
331.80859375	1	taste	trialStart	1	6	6	foodImage.85	FOODEEG_Images\0841.jpg	YN	Left	Yes	0.55251920002047	0	169887	251
332.865234375	2	taste	foodImageDisplay	1	6	6	foodImage.85	FOODEEG_Images\0841.jpg	YN	Left	Yes	0.55251920002047	0	170428	252
334.9296875	0.55251920002047	taste	choicePhaseStart	1	6	6	foodImage.85	FOODEEG_Images\0841.jpg	YN	Left	Yes	0.55251920002047	0	171485	253
335.4765625	0	taste	response	1	6	6	foodImage.85	FOODEEG_Images\0841.jpg	YN	Left	Yes	0.55251920002047	0	171765	234
336.51953125	1	decision	trialStart	1	7	7	foodImage.33	FOODEEG_Images\0329.jpg	NY	Right	Yes	0.580828700098209	0	172299	251
337.560546875	2	decision	foodImageDisplay	1	7	7	foodImage.33	FOODEEG_Images\0329.jpg	NY	Right	Yes	0.580828700098209	0	172832	252
339.623046875	0.580828700098209	decision	choicePhaseStart	1	7	7	foodImage.33	FOODEEG_Images\0329.jpg	NY	Right	Yes	0.580828700098209	0	173888	253
340.1953125	0	decision	response	1	7	7	foodImage.33	FOODEEG_Images\0329.jpg	NY	Right	Yes	0.580828700098209	0	174181	235
341.24609375	1	decision	trialStart	1	8	8	foodImage.112	FOODEEG_Images\0920.jpg	NY	Left	No	0.660531000001356	0	174719	251
342.28515625	2	decision	foodImageDisplay	1	8	8	foodImage.112	FOODEEG_Images\0920.jpg	NY	Left	No	0.660531000001356	0	175251	252
344.349609375	0.660531000001356	decision	choicePhaseStart	1	8	8	foodImage.112	FOODEEG_Images\0920.jpg	NY	Left	No	0.660531000001356	0	176308	253
345.00390625	0	decision	response	1	8	8	foodImage.112	FOODEEG_Images\0920.jpg	NY	Left	No	0.660531000001356	0	176643	234
346.046875	1	health	trialStart	1	9	9	foodImage.116	FOODEEG_Images\0924.jpg	NY	Left	No	1.42744929995388	0	177177	251
347.0859375	2	health	foodImageDisplay	1	9	9	foodImage.116	FOODEEG_Images\0924.jpg	NY	Left	No	1.42744929995388	0	177709	252
349.15234375	1.42744929995388	health	choicePhaseStart	1	9	9	foodImage.116	FOODEEG_Images\0924.jpg	NY	Left	No	1.42744929995388	0	178767	253
350.572265625	0	health	response	1	9	9	foodImage.116	FOODEEG_Images\0924.jpg	NY	Left	No	1.42744929995388	0	179494	234
351.615234375	1	decision	trialStart	1	10	10	foodImage.45	FOODEEG_Images\0478.jpg	YN	Left	Yes	0.863646899932064	0	180028	251
352.66015625	2	decision	foodImageDisplay	1	10	10	foodImage.45	FOODEEG_Images\0478.jpg	YN	Left	Yes	0.863646899932064	0	180563	252
354.724609375	0.863646899932064	decision	choicePhaseStart	1	10	10	foodImage.45	FOODEEG_Images\0478.jpg	YN	Left	Yes	0.863646899932064	0	181620	253
355.580078125	0	decision	response	1	10	10	foodImage.45	FOODEEG_Images\0478.jpg	YN	Left	Yes	0.863646899932064	0	182058	234
356.623046875	1	decision	trialStart	1	11	11	foodImage.5	FOODEEG_Images\0107.jpg	YN	Right	No	0.778058800031431	0	182592	251
357.681640625	2	decision	foodImageDisplay	1	11	11	foodImage.5	FOODEEG_Images\0107.jpg	YN	Right	No	0.778058800031431	0	183134	252
359.744140625	0.778058800031431	decision	choicePhaseStart	1	11	11	foodImage.5	FOODEEG_Images\0107.jpg	YN	Right	No	0.778058800031431	0	184190	253
360.515625	0	decision	response	1	11	11	foodImage.5	FOODEEG_Images\0107.jpg	YN	Right	No	0.778058800031431	0	184585	235
361.560546875	1	health	trialStart	1	12	12	foodImage.77	FOODEEG_Images\0771.jpg	NY	Right	Yes	0.996994300046936	0	185120	251
362.603515625	2	health	foodImageDisplay	1	12	12	foodImage.77	FOODEEG_Images\0771.jpg	NY	Right	Yes	0.996994300046936	0	185654	252
364.66796875	0.996994300046936	health	choicePhaseStart	1	12	12	foodImage.77	FOODEEG_Images\0771.jpg	NY	Right	Yes	0.996994300046936	0	186711	253
365.658203125	0	health	response	1	12	12	foodImage.77	FOODEEG_Images\0771.jpg	NY	Right	Yes	0.996994300046936	0	187218	235
366.701171875	1	taste	trialStart	1	13	13	foodImage.20	FOODEEG_Images\0226.jpg	YN	Left	Yes	0.743122299900278	0	187752	251
367.740234375	2	taste	foodImageDisplay	1	13	13	foodImage.20	FOODEEG_Images\0226.jpg	YN	Left	Yes	0.743122299900278	0	188284	252
369.802734375	0.743122299900278	taste	choicePhaseStart	1	13	13	foodImage.20	FOODEEG_Images\0226.jpg	YN	Left	Yes	0.743122299900278	0	189340	253
370.537109375	0	taste	response	1	13	13	foodImage.20	FOODEEG_Images\0226.jpg	YN	Left	Yes	0.743122299900278	0	189716	234
371.58203125	1	health	trialStart	1	14	14	foodImage.86	FOODEEG_Images\0844.jpg	NY	Right	Yes	0.990626399987377	0	190251	251
372.638671875	2	health	foodImageDisplay	1	14	14	foodImage.86	FOODEEG_Images\0844.jpg	NY	Right	Yes	0.990626399987377	0	190792	252
374.701171875	0.990626399987377	health	choicePhaseStart	1	14	14	foodImage.86	FOODEEG_Images\0844.jpg	NY	Right	Yes	0.990626399987377	0	191848	253
375.68359375	0	health	response	1	14	14	foodImage.86	FOODEEG_Images\0844.jpg	NY	Right	Yes	0.990626399987377	0	192351	235
376.724609375	1	decision	trialStart	1	15	15	foodImage.116	FOODEEG_Images\0924.jpg	NY	Left	No	0.737292000092566	0	192884	251
377.76171875	2	decision	foodImageDisplay	1	15	15	foodImage.116	FOODEEG_Images\0924.jpg	NY	Left	No	0.737292000092566	0	193415	252
379.82421875	0.737292000092566	decision	choicePhaseStart	1	15	15	foodImage.116	FOODEEG_Images\0924.jpg	NY	Left	No	0.737292000092566	0	194471	253
380.552734375	0	decision	response	1	15	15	foodImage.116	FOODEEG_Images\0924.jpg	NY	Left	No	0.737292000092566	0	194844	234
381.595703125	1	decision	trialStart	1	16	16	foodImage.107	FOODEEG_Images\0915.jpg	NY	Left	No	0.449656500015408	0	195378	251
382.634765625	2	decision	foodImageDisplay	1	16	16	foodImage.107	FOODEEG_Images\0915.jpg	NY	Left	No	0.449656500015408	0	195910	252
384.697265625	0.449656500015408	decision	choicePhaseStart	1	16	16	foodImage.107	FOODEEG_Images\0915.jpg	NY	Left	No	0.449656500015408	0	196966	253
385.13671875	0	decision	response	1	16	16	foodImage.107	FOODEEG_Images\0915.jpg	NY	Left	No	0.449656500015408	0	197191	234
386.1796875	1	taste	trialStart	1	17	17	foodImage.29	FOODEEG_Images\0278.jpg	NY	Left	No	0.86353049997706	0	197725	251
387.22265625	2	taste	foodImageDisplay	1	17	17	foodImage.29	FOODEEG_Images\0278.jpg	NY	Left	No	0.86353049997706	0	198259	252
389.291015625	0.86353049997706	taste	choicePhaseStart	1	17	17	foodImage.29	FOODEEG_Images\0278.jpg	NY	Left	No	0.86353049997706	0	199318	253
390.14453125	0	taste	response	1	17	17	foodImage.29	FOODEEG_Images\0278.jpg	NY	Left	No	0.86353049997706	0	199755	234
391.193359375	1	decision	trialStart	1	18	18	foodImage.30	FOODEEG_Images\0282.jpg	YN	Left	Yes	0.975897299940698	0	200292	251
392.236328125	2	decision	foodImageDisplay	1	18	18	foodImage.30	FOODEEG_Images\0282.jpg	YN	Left	Yes	0.975897299940698	0	200826	252
394.298828125	0.975897299940698	decision	choicePhaseStart	1	18	18	foodImage.30	FOODEEG_Images\0282.jpg	YN	Left	Yes	0.975897299940698	0	201882	253
395.265625	0	decision	response	1	18	18	foodImage.30	FOODEEG_Images\0282.jpg	YN	Left	Yes	0.975897299940698	0	202377	234
396.30859375	1	health	trialStart	1	19	19	foodImage.16	FOODEEG_Images\0196.jpg	YN	Left	Yes	1.29986610007472	0	202911	251
397.365234375	2	health	foodImageDisplay	1	19	19	foodImage.16	FOODEEG_Images\0196.jpg	YN	Left	Yes	1.29986610007472	0	203452	252
399.4296875	1.29986610007472	health	choicePhaseStart	1	19	19	foodImage.16	FOODEEG_Images\0196.jpg	YN	Left	Yes	1.29986610007472	0	204509	253
400.720703125	0	health	response	1	19	19	foodImage.16	FOODEEG_Images\0196.jpg	YN	Left	Yes	1.29986610007472	0	205170	234
401.763671875	1	taste	trialStart	1	20	20	foodImage.2	FOODEEG_Images\0028.jpg	YN	Left	Yes	0.906706599984318	0	205704	251
402.8046875	2	taste	foodImageDisplay	1	20	20	foodImage.2	FOODEEG_Images\0028.jpg	YN	Left	Yes	0.906706599984318	0	206237	252
404.869140625	0.906706599984318	taste	choicePhaseStart	1	20	20	foodImage.2	FOODEEG_Images\0028.jpg	YN	Left	Yes	0.906706599984318	0	207294	253
405.76953125	0	taste	response	1	20	20	foodImage.2	FOODEEG_Images\0028.jpg	YN	Left	Yes	0.906706599984318	0	207755	234
406.8125	1	taste	trialStart	1	21	21	foodImage.106	FOODEEG_Images\0914.jpg	YN	Left	Yes	0.679494600044563	0	208289	251
407.8515625	2	taste	foodImageDisplay	1	21	21	foodImage.106	FOODEEG_Images\0914.jpg	YN	Left	Yes	0.679494600044563	0	208821	252
409.9140625	0.679494600044563	taste	choicePhaseStart	1	21	21	foodImage.106	FOODEEG_Images\0914.jpg	YN	Left	Yes	0.679494600044563	0	209877	253
410.583984375	0	taste	response	1	21	21	foodImage.106	FOODEEG_Images\0914.jpg	YN	Left	Yes	0.679494600044563	0	210220	234
411.62890625	1	health	trialStart	1	22	22	foodImage.10	FOODEEG_Images\0145.jpg	YN	Left	Yes	0.660817899974063	0	210755	251
412.685546875	2	health	foodImageDisplay	1	22	22	foodImage.10	FOODEEG_Images\0145.jpg	YN	Left	Yes	0.660817899974063	0	211296	252
414.748046875	0.660817899974063	health	choicePhaseStart	1	22	22	foodImage.10	FOODEEG_Images\0145.jpg	YN	Left	Yes	0.660817899974063	0	212352	253
415.400390625	0	health	response	1	22	22	foodImage.10	FOODEEG_Images\0145.jpg	YN	Left	Yes	0.660817899974063	0	212686	234
416.44921875	1	taste	trialStart	1	23	23	foodImage.71	FOODEEG_Images\0713.jpg	YN	Left	Yes	0.88815719995182	0	213223	251
417.490234375	2	taste	foodImageDisplay	1	23	23	foodImage.71	FOODEEG_Images\0713.jpg	YN	Left	Yes	0.88815719995182	0	213756	252
419.552734375	0.88815719995182	taste	choicePhaseStart	1	23	23	foodImage.71	FOODEEG_Images\0713.jpg	YN	Left	Yes	0.88815719995182	0	214812	253
420.431640625	0	taste	response	1	23	23	foodImage.71	FOODEEG_Images\0713.jpg	YN	Left	Yes	0.88815719995182	0	215262	234
421.474609375	1	decision	trialStart	1	24	24	foodImage.96	FOODEEG_Images\0904.jpg	YN	Right	No	1.24145880003925	0	215796	251
422.513671875	2	decision	foodImageDisplay	1	24	24	foodImage.96	FOODEEG_Images\0904.jpg	YN	Right	No	1.24145880003925	0	216328	252
424.576171875	1.24145880003925	decision	choicePhaseStart	1	24	24	foodImage.96	FOODEEG_Images\0904.jpg	YN	Right	No	1.24145880003925	0	217384	253
425.80859375	0	decision	response	1	24	24	foodImage.96	FOODEEG_Images\0904.jpg	YN	Right	No	1.24145880003925	0	218015	235
426.8515625	1	health	trialStart	1	25	25	foodImage.55	FOODEEG_Images\0567.jpg	YN	Left	Yes	0.919574700063094	0	218549	251
427.908203125	2	health	foodImageDisplay	1	25	25	foodImage.55	FOODEEG_Images\0567.jpg	YN	Left	Yes	0.919574700063094	0	219090	252
429.96875	0.919574700063094	health	choicePhaseStart	1	25	25	foodImage.55	FOODEEG_Images\0567.jpg	YN	Left	Yes	0.919574700063094	0	220145	253
430.87890625	0	health	response	1	25	25	foodImage.55	FOODEEG_Images\0567.jpg	YN	Left	Yes	0.919574700063094	0	220611	234
431.921875	1	taste	trialStart	1	26	26	foodImage.44	FOODEEG_Images\0459.jpg	YN	Left	Yes	0.60119419998955	0	221145	251
432.96875	2	taste	foodImageDisplay	1	26	26	foodImage.44	FOODEEG_Images\0459.jpg	YN	Left	Yes	0.60119419998955	0	221681	252
435.03125	0.60119419998955	taste	choicePhaseStart	1	26	26	foodImage.44	FOODEEG_Images\0459.jpg	YN	Left	Yes	0.60119419998955	0	222737	253
435.623046875	0	taste	response	1	26	26	foodImage.44	FOODEEG_Images\0459.jpg	YN	Left	Yes	0.60119419998955	0	223040	234
436.666015625	1	decision	trialStart	1	27	27	foodImage.64	FOODEEG_Images\0647.jpg	YN	Left	Yes	0.878266500076279	0	223574	251
437.724609375	2	decision	foodImageDisplay	1	27	27	foodImage.64	FOODEEG_Images\0647.jpg	YN	Left	Yes	0.878266500076279	0	224116	252
439.787109375	0.878266500076279	decision	choicePhaseStart	1	27	27	foodImage.64	FOODEEG_Images\0647.jpg	YN	Left	Yes	0.878266500076279	0	225172	253
440.65625	0	decision	response	1	27	27	foodImage.64	FOODEEG_Images\0647.jpg	YN	Left	Yes	0.878266500076279	0	225617	234
441.69921875	1	taste	trialStart	1	28	28	foodImage.59	FOODEEG_Images\0607.jpg	NY	Left	No	1.28031009994447	0	226151	251
442.74609375	2	taste	foodImageDisplay	1	28	28	foodImage.59	FOODEEG_Images\0607.jpg	NY	Left	No	1.28031009994447	0	226687	252
444.80859375	1.28031009994447	taste	choicePhaseStart	1	28	28	foodImage.59	FOODEEG_Images\0607.jpg	NY	Left	No	1.28031009994447	0	227743	253
446.078125	0	taste	response	1	28	28	foodImage.59	FOODEEG_Images\0607.jpg	NY	Left	No	1.28031009994447	0	228393	234
447.12109375	1	decision	trialStart	1	29	29	foodImage.49	FOODEEG_Images\0515.jpg	NY	Right	Yes	0.813419600017369	0	228927	251
448.1640625	2	decision	foodImageDisplay	1	29	29	foodImage.49	FOODEEG_Images\0515.jpg	NY	Right	Yes	0.813419600017369	0	229461	252
450.2265625	0.813419600017369	decision	choicePhaseStart	1	29	29	foodImage.49	FOODEEG_Images\0515.jpg	NY	Right	Yes	0.813419600017369	0	230517	253
451.03125	0	decision	response	1	29	29	foodImage.49	FOODEEG_Images\0515.jpg	NY	Right	Yes	0.813419600017369	0	230929	235
452.072265625	1	health	trialStart	1	30	30	foodImage.117	FOODEEG_Images\0925.jpg	YN	Right	No	0.960556800011545	0	231462	251
453.111328125	2	health	foodImageDisplay	1	30	30	foodImage.117	FOODEEG_Images\0925.jpg	YN	Right	No	0.960556800011545	0	231994	252
455.173828125	0.960556800011545	health	choicePhaseStart	1	30	30	foodImage.117	FOODEEG_Images\0925.jpg	YN	Right	No	0.960556800011545	0	233050	253
456.126953125	0	health	response	1	30	30	foodImage.117	FOODEEG_Images\0925.jpg	YN	Right	No	0.960556800011545	0	233538	235
457.169921875	1	health	trialStart	1	31	31	foodImage.20	FOODEEG_Images\0226.jpg	YN	Left	Yes	1.0077138999477	0	234072	251
458.2109375	2	health	foodImageDisplay	1	31	31	foodImage.20	FOODEEG_Images\0226.jpg	YN	Left	Yes	1.0077138999477	0	234605	252
460.2734375	1.0077138999477	health	choicePhaseStart	1	31	31	foodImage.20	FOODEEG_Images\0226.jpg	YN	Left	Yes	1.0077138999477	0	235661	253
461.271484375	0	health	response	1	31	31	foodImage.20	FOODEEG_Images\0226.jpg	YN	Left	Yes	1.0077138999477	0	236172	234
462.318359375	1	health	trialStart	1	32	32	foodImage.108	FOODEEG_Images\0916.jpg	YN	Right	No	1.89799840003252	0	236708	251
463.357421875	2	health	foodImageDisplay	1	32	32	foodImage.108	FOODEEG_Images\0916.jpg	YN	Right	No	1.89799840003252	0	237240	252
465.419921875	1.89799840003252	health	choicePhaseStart	1	32	32	foodImage.108	FOODEEG_Images\0916.jpg	YN	Right	No	1.89799840003252	0	238296	253
467.310546875	0	health	response	1	32	32	foodImage.108	FOODEEG_Images\0916.jpg	YN	Right	No	1.89799840003252	0	239264	235
468.3515625	1	taste	trialStart	1	33	33	foodImage.23	FOODEEG_Images\0244.jpg	YN	Left	Yes	1.49336590000894	0	239797	251
469.39453125	2	taste	foodImageDisplay	1	33	33	foodImage.23	FOODEEG_Images\0244.jpg	YN	Left	Yes	1.49336590000894	0	240331	252
471.45703125	1.49336590000894	taste	choicePhaseStart	1	33	33	foodImage.23	FOODEEG_Images\0244.jpg	YN	Left	Yes	1.49336590000894	0	241387	253
472.94140625	0	taste	response	1	33	33	foodImage.23	FOODEEG_Images\0244.jpg	YN	Left	Yes	1.49336590000894	0	242147	234
473.98828125	1	taste	trialStart	1	34	34	foodImage.78	FOODEEG_Images\0787.jpg	NY	Right	Yes	0.773201900068671	0	242683	251
475.033203125	2	taste	foodImageDisplay	1	34	34	foodImage.78	FOODEEG_Images\0787.jpg	NY	Right	Yes	0.773201900068671	0	243218	252
477.095703125	0.773201900068671	taste	choicePhaseStart	1	34	34	foodImage.78	FOODEEG_Images\0787.jpg	NY	Right	Yes	0.773201900068671	0	244274	253
477.861328125	0	taste	response	1	34	34	foodImage.78	FOODEEG_Images\0787.jpg	NY	Right	Yes	0.773201900068671	0	244666	235
478.90234375	1	health	trialStart	1	35	35	foodImage.28	FOODEEG_Images\0273.jpg	YN	Left	Yes	1.57310420006979	0	245199	251
479.9453125	2	health	foodImageDisplay	1	35	35	foodImage.28	FOODEEG_Images\0273.jpg	YN	Left	Yes	1.57310420006979	0	245733	252
482.0078125	1.57310420006979	health	choicePhaseStart	1	35	35	foodImage.28	FOODEEG_Images\0273.jpg	YN	Left	Yes	1.57310420006979	0	246789	253
483.57421875	0	health	response	1	35	35	foodImage.28	FOODEEG_Images\0273.jpg	YN	Left	Yes	1.57310420006979	0	247591	234
484.6171875	1	decision	trialStart	1	36	36	foodImage.113	FOODEEG_Images\0921.jpg	YN	Right	No	1.6263132999884	0	248125	251
485.654296875	2	decision	foodImageDisplay	1	36	36	foodImage.113	FOODEEG_Images\0921.jpg	YN	Right	No	1.6263132999884	0	248656	252
487.716796875	1.6263132999884	decision	choicePhaseStart	1	36	36	foodImage.113	FOODEEG_Images\0921.jpg	YN	Right	No	1.6263132999884	0	249712	253
489.333984375	0	decision	response	1	36	36	foodImage.113	FOODEEG_Images\0921.jpg	YN	Right	No	1.6263132999884	0	250540	235
490.376953125	1	health	trialStart	1	37	37	foodImage.78	FOODEEG_Images\0787.jpg	YN	Left	Yes	0.964049699949101	0	251074	251
491.419921875	2	health	foodImageDisplay	1	37	37	foodImage.78	FOODEEG_Images\0787.jpg	YN	Left	Yes	0.964049699949101	0	251608	252
493.482421875	0.964049699949101	health	choicePhaseStart	1	37	37	foodImage.78	FOODEEG_Images\0787.jpg	YN	Left	Yes	0.964049699949101	0	252664	253
494.4375	0	health	response	1	37	37	foodImage.78	FOODEEG_Images\0787.jpg	YN	Left	Yes	0.964049699949101	0	253153	234
495.486328125	1	taste	trialStart	1	38	38	foodImage.46	FOODEEG_Images\0479.jpg	YN	Left	Yes	0.68530789995566	0	253690	251
496.54296875	2	taste	foodImageDisplay	1	38	38	foodImage.46	FOODEEG_Images\0479.jpg	YN	Left	Yes	0.68530789995566	0	254231	252
498.607421875	0.68530789995566	taste	choicePhaseStart	1	38	38	foodImage.46	FOODEEG_Images\0479.jpg	YN	Left	Yes	0.68530789995566	0	255288	253
499.28515625	0	taste	response	1	38	38	foodImage.46	FOODEEG_Images\0479.jpg	YN	Left	Yes	0.68530789995566	0	255635	234
500.328125	1	decision	trialStart	1	39	39	foodImage.4	FOODEEG_Images\0065.jpg	YN	Left	Yes	1.26255119999405	0	256169	251
501.384765625	2	decision	foodImageDisplay	1	39	39	foodImage.4	FOODEEG_Images\0065.jpg	YN	Left	Yes	1.26255119999405	0	256710	252
503.447265625	1.26255119999405	decision	choicePhaseStart	1	39	39	foodImage.4	FOODEEG_Images\0065.jpg	YN	Left	Yes	1.26255119999405	0	257766	253
504.701171875	0	decision	response	1	39	39	foodImage.4	FOODEEG_Images\0065.jpg	YN	Left	Yes	1.26255119999405	0	258408	234
505.744140625	1	taste	trialStart	1	40	40	foodImage.82	FOODEEG_Images\0805.jpg	YN	Right	No	1.48794540006202	0	258942	251
506.80078125	2	taste	foodImageDisplay	1	40	40	foodImage.82	FOODEEG_Images\0805.jpg	YN	Right	No	1.48794540006202	0	259483	252
508.86328125	1.48794540006202	taste	choicePhaseStart	1	40	40	foodImage.82	FOODEEG_Images\0805.jpg	YN	Right	No	1.48794540006202	0	260539	253
510.33984375	0	taste	response	1	40	40	foodImage.82	FOODEEG_Images\0805.jpg	YN	Right	No	1.48794540006202	0	261295	235
511.3828125	1	taste	trialStart	1	41	41	foodImage.51	FOODEEG_Images\0536.jpg	YN	Left	Yes	0.506009300006554	0	261829	251
512.4296875	2	taste	foodImageDisplay	1	41	41	foodImage.51	FOODEEG_Images\0536.jpg	YN	Left	Yes	0.506009300006554	0	262365	252
514.4921875	0.506009300006554	taste	choicePhaseStart	1	41	41	foodImage.51	FOODEEG_Images\0536.jpg	YN	Left	Yes	0.506009300006554	0	263421	253
514.98828125	0	taste	response	1	41	41	foodImage.51	FOODEEG_Images\0536.jpg	YN	Left	Yes	0.506009300006554	0	263675	234
516.03125	1	taste	trialStart	1	42	42	foodImage.32	FOODEEG_Images\0319.jpg	YN	Left	Yes	0.61899440002162	0	264209	251
517.07421875	2	taste	foodImageDisplay	1	42	42	foodImage.32	FOODEEG_Images\0319.jpg	YN	Left	Yes	0.61899440002162	0	264743	252
519.13671875	0.61899440002162	taste	choicePhaseStart	1	42	42	foodImage.32	FOODEEG_Images\0319.jpg	YN	Left	Yes	0.61899440002162	0	265799	253
519.748046875	0	taste	response	1	42	42	foodImage.32	FOODEEG_Images\0319.jpg	YN	Left	Yes	0.61899440002162	0	266112	234
520.791015625	1	taste	trialStart	1	43	43	foodImage.62	FOODEEG_Images\0644.jpg	NY	Right	Yes	0.991985599976033	0	266646	251
521.845703125	2	taste	foodImageDisplay	1	43	43	foodImage.62	FOODEEG_Images\0644.jpg	NY	Right	Yes	0.991985599976033	0	267186	252
523.908203125	0.991985599976033	taste	choicePhaseStart	1	43	43	foodImage.62	FOODEEG_Images\0644.jpg	NY	Right	Yes	0.991985599976033	0	268242	253
524.892578125	0	taste	response	1	43	43	foodImage.62	FOODEEG_Images\0644.jpg	NY	Right	Yes	0.991985599976033	0	268746	235
525.935546875	1	health	trialStart	1	44	44	foodImage.37	FOODEEG_Images\0359.jpg	YN	Left	Yes	0.988966300035827	0	269280	251
526.9765625	2	health	foodImageDisplay	1	44	44	foodImage.37	FOODEEG_Images\0359.jpg	YN	Left	Yes	0.988966300035827	0	269813	252
529.0390625	0.988966300035827	health	choicePhaseStart	1	44	44	foodImage.37	FOODEEG_Images\0359.jpg	YN	Left	Yes	0.988966300035827	0	270869	253
530.01953125	0	health	response	1	44	44	foodImage.37	FOODEEG_Images\0359.jpg	YN	Left	Yes	0.988966300035827	0	271371	234
531.0625	1	decision	trialStart	1	45	45	foodImage.56	FOODEEG_Images\0586.jpg	NY	Left	No	0.885739900055341	0	271905	251
532.10546875	2	decision	foodImageDisplay	1	45	45	foodImage.56	FOODEEG_Images\0586.jpg	NY	Left	No	0.885739900055341	0	272439	252
534.16796875	0.885739900055341	decision	choicePhaseStart	1	45	45	foodImage.56	FOODEEG_Images\0586.jpg	NY	Left	No	0.885739900055341	0	273495	253
535.04296875	0	decision	response	1	45	45	foodImage.56	FOODEEG_Images\0586.jpg	NY	Left	No	0.885739900055341	0	273943	234
536.0859375	1	health	trialStart	1	46	46	foodImage.4	FOODEEG_Images\0065.jpg	YN	Right	No	0.912192099960521	0	274477	251
537.142578125	2	health	foodImageDisplay	1	46	46	foodImage.4	FOODEEG_Images\0065.jpg	YN	Right	No	0.912192099960521	0	275018	252
539.205078125	0.912192099960521	health	choicePhaseStart	1	46	46	foodImage.4	FOODEEG_Images\0065.jpg	YN	Right	No	0.912192099960521	0	276074	253
540.107421875	0	health	response	1	46	46	foodImage.4	FOODEEG_Images\0065.jpg	YN	Right	No	0.912192099960521	0	276536	235
541.1484375	1	health	trialStart	1	47	47	foodImage.1	FOODEEG_Images\0004.jpg	NY	Left	No	1.69326750002801	0	277069	251
542.193359375	2	health	foodImageDisplay	1	47	47	foodImage.1	FOODEEG_Images\0004.jpg	NY	Left	No	1.69326750002801	0	277604	252
544.255859375	1.69326750002801	health	choicePhaseStart	1	47	47	foodImage.1	FOODEEG_Images\0004.jpg	NY	Left	No	1.69326750002801	0	278660	253
545.939453125	0	health	response	1	47	47	foodImage.1	FOODEEG_Images\0004.jpg	NY	Left	No	1.69326750002801	0	279522	234
546.982421875	1	taste	trialStart	1	48	48	foodImage.45	FOODEEG_Images\0478.jpg	YN	Right	No	1.69282039999962	0	280056	251
548.025390625	2	taste	foodImageDisplay	1	48	48	foodImage.45	FOODEEG_Images\0478.jpg	YN	Right	No	1.69282039999962	0	280590	252
550.087890625	1.69282039999962	taste	choicePhaseStart	1	48	48	foodImage.45	FOODEEG_Images\0478.jpg	YN	Right	No	1.69282039999962	0	281646	253
551.771484375	0	taste	response	1	48	48	foodImage.45	FOODEEG_Images\0478.jpg	YN	Right	No	1.69282039999962	0	282508	235
552.8125	1	health	trialStart	1	49	49	foodImage.64	FOODEEG_Images\0647.jpg	NY	Right	Yes	1.15137949993368	0	283041	251
553.87109375	2	health	foodImageDisplay	1	49	49	foodImage.64	FOODEEG_Images\0647.jpg	NY	Right	Yes	1.15137949993368	0	283583	252
555.93359375	1.15137949993368	health	choicePhaseStart	1	49	49	foodImage.64	FOODEEG_Images\0647.jpg	NY	Right	Yes	1.15137949993368	0	284639	253
557.07421875	0	health	response	1	49	49	foodImage.64	FOODEEG_Images\0647.jpg	NY	Right	Yes	1.15137949993368	0	285223	235
558.1171875	1	health	trialStart	1	50	50	foodImage.96	FOODEEG_Images\0904.jpg	YN	Right	No	0.923397700069472	0	285757	251
559.154296875	2	health	foodImageDisplay	1	50	50	foodImage.96	FOODEEG_Images\0904.jpg	YN	Right	No	0.923397700069472	0	286288	252
561.216796875	0.923397700069472	health	choicePhaseStart	1	50	50	foodImage.96	FOODEEG_Images\0904.jpg	YN	Right	No	0.923397700069472	0	287344	253
562.130859375	0	health	response	1	50	50	foodImage.96	FOODEEG_Images\0904.jpg	YN	Right	No	0.923397700069472	0	287812	235
563.173828125	1	taste	trialStart	1	51	51	foodImage.42	FOODEEG_Images\0438.jpg	YN	Left	Yes	1.04315979999956	0	288346	251
564.265625	2	taste	foodImageDisplay	1	51	51	foodImage.42	FOODEEG_Images\0438.jpg	YN	Left	Yes	1.04315979999956	0	288905	252
566.328125	1.04315979999956	taste	choicePhaseStart	1	51	51	foodImage.42	FOODEEG_Images\0438.jpg	YN	Left	Yes	1.04315979999956	0	289961	253
567.36328125	0	taste	response	1	51	51	foodImage.42	FOODEEG_Images\0438.jpg	YN	Left	Yes	1.04315979999956	0	290491	234
568.404296875	1	taste	trialStart	1	52	52	foodImage.39	FOODEEG_Images\0367.jpg	YN	Left	Yes	0.937694399966858	0	291024	251
569.443359375	2	taste	foodImageDisplay	1	52	52	foodImage.39	FOODEEG_Images\0367.jpg	YN	Left	Yes	0.937694399966858	0	291556	252
571.505859375	0.937694399966858	taste	choicePhaseStart	1	52	52	foodImage.39	FOODEEG_Images\0367.jpg	YN	Left	Yes	0.937694399966858	0	292612	253
572.43359375	0	taste	response	1	52	52	foodImage.39	FOODEEG_Images\0367.jpg	YN	Left	Yes	0.937694399966858	0	293087	234
573.4765625	1	health	trialStart	1	53	53	foodImage.41	FOODEEG_Images\0409.jpg	YN	Left	Yes	0.962325200089253	0	293621	251
574.521484375	2	health	foodImageDisplay	1	53	53	foodImage.41	FOODEEG_Images\0409.jpg	YN	Left	Yes	0.962325200089253	0	294156	252
576.583984375	0.962325200089253	health	choicePhaseStart	1	53	53	foodImage.41	FOODEEG_Images\0409.jpg	YN	Left	Yes	0.962325200089253	0	295212	253
577.537109375	0	health	response	1	53	53	foodImage.41	FOODEEG_Images\0409.jpg	YN	Left	Yes	0.962325200089253	0	295700	234
578.580078125	1	decision	trialStart	1	54	54	foodImage.61	FOODEEG_Images\0640.jpg	YN	Right	No	0.654165099957027	0	296234	251
579.623046875	2	decision	foodImageDisplay	1	54	54	foodImage.61	FOODEEG_Images\0640.jpg	YN	Right	No	0.654165099957027	0	296768	252
581.685546875	0.654165099957027	decision	choicePhaseStart	1	54	54	foodImage.61	FOODEEG_Images\0640.jpg	YN	Right	No	0.654165099957027	0	297824	253
582.330078125	0	decision	response	1	54	54	foodImage.61	FOODEEG_Images\0640.jpg	YN	Right	No	0.654165099957027	0	298154	235
583.37109375	1	decision	trialStart	1	55	55	foodImage.60	FOODEEG_Images\0614.jpg	YN	Right	No	1.53391320002265	0	298687	251
584.4296875	2	decision	foodImageDisplay	1	55	55	foodImage.60	FOODEEG_Images\0614.jpg	YN	Right	No	1.53391320002265	0	299229	252
586.4921875	1.53391320002265	decision	choicePhaseStart	1	55	55	foodImage.60	FOODEEG_Images\0614.jpg	YN	Right	No	1.53391320002265	0	300285	253
588.017578125	0	decision	response	1	55	55	foodImage.60	FOODEEG_Images\0614.jpg	YN	Right	No	1.53391320002265	0	301066	235
589.05859375	1	decision	trialStart	1	56	56	foodImage.118	FOODEEG_Images\0926.jpg	NY	Left	No	0.739729899913073	0	301599	251
590.095703125	2	decision	foodImageDisplay	1	56	56	foodImage.118	FOODEEG_Images\0926.jpg	NY	Left	No	0.739729899913073	0	302130	252
592.158203125	0.739729899913073	decision	choicePhaseStart	1	56	56	foodImage.118	FOODEEG_Images\0926.jpg	NY	Left	No	0.739729899913073	0	303186	253
592.888671875	0	decision	response	1	56	56	foodImage.118	FOODEEG_Images\0926.jpg	NY	Left	No	0.739729899913073	0	303560	234
593.931640625	1	health	trialStart	1	57	57	foodImage.84	FOODEEG_Images\0830.jpg	YN	Left	Yes	1.05804469995201	0	304094	251
594.986328125	2	health	foodImageDisplay	1	57	57	foodImage.84	FOODEEG_Images\0830.jpg	YN	Left	Yes	1.05804469995201	0	304634	252
597.048828125	1.05804469995201	health	choicePhaseStart	1	57	57	foodImage.84	FOODEEG_Images\0830.jpg	YN	Left	Yes	1.05804469995201	0	305690	253
598.09765625	0	health	response	1	57	57	foodImage.84	FOODEEG_Images\0830.jpg	YN	Left	Yes	1.05804469995201	0	306227	234
599.140625	1	taste	trialStart	1	58	58	foodImage.33	FOODEEG_Images\0329.jpg	NY	Right	Yes	0.780035499949008	0	306761	251
600.18359375	2	taste	foodImageDisplay	1	58	58	foodImage.33	FOODEEG_Images\0329.jpg	NY	Right	Yes	0.780035499949008	0	307295	252
602.24609375	0.780035499949008	taste	choicePhaseStart	1	58	58	foodImage.33	FOODEEG_Images\0329.jpg	NY	Right	Yes	0.780035499949008	0	308351	253
603.017578125	0	taste	response	1	58	58	foodImage.33	FOODEEG_Images\0329.jpg	NY	Right	Yes	0.780035499949008	0	308746	235
604.060546875	1	decision	trialStart	1	59	59	foodImage.47	FOODEEG_Images\0488.jpg	YN	Left	Yes	1.16580199997406	0	309280	251
605.1015625	2	decision	foodImageDisplay	1	59	59	foodImage.47	FOODEEG_Images\0488.jpg	YN	Left	Yes	1.16580199997406	0	309813	252
607.1640625	1.16580199997406	decision	choicePhaseStart	1	59	59	foodImage.47	FOODEEG_Images\0488.jpg	YN	Left	Yes	1.16580199997406	0	310869	253
608.3203125	0	decision	response	1	59	59	foodImage.47	FOODEEG_Images\0488.jpg	YN	Left	Yes	1.16580199997406	0	311461	234
609.36328125	1	decision	trialStart	1	60	60	foodImage.62	FOODEEG_Images\0644.jpg	YN	Right	No	1.0838778000325	0	311995	251
610.421875	2	decision	foodImageDisplay	1	60	60	foodImage.62	FOODEEG_Images\0644.jpg	YN	Right	No	1.0838778000325	0	312537	252
612.484375	1.0838778000325	decision	choicePhaseStart	1	60	60	foodImage.62	FOODEEG_Images\0644.jpg	YN	Right	No	1.0838778000325	0	313593	253
613.560546875	0	decision	response	1	60	60	foodImage.62	FOODEEG_Images\0644.jpg	YN	Right	No	1.0838778000325	0	314144	235
615.6015625	10.078125	n/a	blockEnd	n/a	n/a	n/a	n/a	n/a	n/a	n/a	n/a	n/a	n/a	315189	254
625.6796875	2	n/a	blockStart	2	n/a	n/a	n/a	n/a	n/a	n/a	n/a	n/a	n/a	320349	250
627.7109375	1	taste	trialStart	2	61	1	foodImage.98	FOODEEG_Images\0906.jpg	YN	Right	No	1.19338349997997	0	321389	251
628.751953125	2	taste	foodImageDisplay	2	61	1	foodImage.98	FOODEEG_Images\0906.jpg	YN	Right	No	1.19338349997997	0	321922	252
630.814453125	1.19338349997997	taste	choicePhaseStart	2	61	1	foodImage.98	FOODEEG_Images\0906.jpg	YN	Right	No	1.19338349997997	0	322978	253
632	0	taste	response	2	61	1	foodImage.98	FOODEEG_Images\0906.jpg	YN	Right	No	1.19338349997997	0	323585	235
633.041015625	1	taste	trialStart	2	62	2	foodImage.22	FOODEEG_Images\0236.jpg	NY	Right	Yes	0.727457599947229	0	324118	251
634.08203125	2	taste	foodImageDisplay	2	62	2	foodImage.22	FOODEEG_Images\0236.jpg	NY	Right	Yes	0.727457599947229	0	324651	252
636.14453125	0.727457599947229	taste	choicePhaseStart	2	62	2	foodImage.22	FOODEEG_Images\0236.jpg	NY	Right	Yes	0.727457599947229	0	325707	253
636.86328125	0	taste	response	2	62	2	foodImage.22	FOODEEG_Images\0236.jpg	NY	Right	Yes	0.727457599947229	0	326075	235
637.90625	1	health	trialStart	2	63	3	foodImage.50	FOODEEG_Images\0529.jpg	NY	Right	Yes	1.16863319999538	0	326609	251
638.962890625	2	health	foodImageDisplay	2	63	3	foodImage.50	FOODEEG_Images\0529.jpg	NY	Right	Yes	1.16863319999538	0	327150	252
641.025390625	1.16863319999538	health	choicePhaseStart	2	63	3	foodImage.50	FOODEEG_Images\0529.jpg	NY	Right	Yes	1.16863319999538	0	328206	253
642.18359375	0	health	response	2	63	3	foodImage.50	FOODEEG_Images\0529.jpg	NY	Right	Yes	1.16863319999538	0	328799	235
643.228515625	1	taste	trialStart	2	64	4	foodImage.11	FOODEEG_Images\0180.jpg	YN	Left	Yes	0.78960489993915	0	329334	251
644.26953125	2	taste	foodImageDisplay	2	64	4	foodImage.11	FOODEEG_Images\0180.jpg	YN	Left	Yes	0.78960489993915	0	329867	252
646.33203125	0.78960489993915	taste	choicePhaseStart	2	64	4	foodImage.11	FOODEEG_Images\0180.jpg	YN	Left	Yes	0.78960489993915	0	330923	253
647.111328125	0	taste	response	2	64	4	foodImage.11	FOODEEG_Images\0180.jpg	YN	Left	Yes	0.78960489993915	0	331322	234
648.154296875	1	taste	trialStart	2	65	5	foodImage.77	FOODEEG_Images\0771.jpg	NY	Right	Yes	1.49885510001332	0	331856	251
649.19921875	2	taste	foodImageDisplay	2	65	5	foodImage.77	FOODEEG_Images\0771.jpg	NY	Right	Yes	1.49885510001332	0	332391	252
651.26171875	1.49885510001332	taste	choicePhaseStart	2	65	5	foodImage.77	FOODEEG_Images\0771.jpg	NY	Right	Yes	1.49885510001332	0	333447	253
652.751953125	0	taste	response	2	65	5	foodImage.77	FOODEEG_Images\0771.jpg	NY	Right	Yes	1.49885510001332	0	334210	235
653.79296875	1	health	trialStart	2	66	6	foodImage.114	FOODEEG_Images\0922.jpg	NY	Left	No	1.68313999997918	0	334743	251
654.830078125	2	health	foodImageDisplay	2	66	6	foodImage.114	FOODEEG_Images\0922.jpg	NY	Left	No	1.68313999997918	0	335274	252
656.892578125	1.68313999997918	health	choicePhaseStart	2	66	6	foodImage.114	FOODEEG_Images\0922.jpg	NY	Left	No	1.68313999997918	0	336330	253
658.56640625	0	health	response	2	66	6	foodImage.114	FOODEEG_Images\0922.jpg	NY	Left	No	1.68313999997918	0	337187	234
659.609375	1	health	trialStart	2	67	7	foodImage.6	FOODEEG_Images\0113.jpg	YN	Right	No	0.786008900031447	0	337721	251
660.65234375	2	health	foodImageDisplay	2	67	7	foodImage.6	FOODEEG_Images\0113.jpg	YN	Right	No	0.786008900031447	0	338255	252
662.71484375	0.786008900031447	health	choicePhaseStart	2	67	7	foodImage.6	FOODEEG_Images\0113.jpg	YN	Right	No	0.786008900031447	0	339311	253
663.494140625	0	health	response	2	67	7	foodImage.6	FOODEEG_Images\0113.jpg	YN	Right	No	0.786008900031447	0	339710	235
664.537109375	1	decision	trialStart	2	68	8	foodImage.13	FOODEEG_Images\0183.jpg	NY	Right	Yes	1.07797739992384	0	340244	251
665.580078125	2	decision	foodImageDisplay	2	68	8	foodImage.13	FOODEEG_Images\0183.jpg	NY	Right	Yes	1.07797739992384	0	340778	252
667.642578125	1.07797739992384	decision	choicePhaseStart	2	68	8	foodImage.13	FOODEEG_Images\0183.jpg	NY	Right	Yes	1.07797739992384	0	341834	253
668.7109375	0	decision	response	2	68	8	foodImage.13	FOODEEG_Images\0183.jpg	NY	Right	Yes	1.07797739992384	0	342381	235
669.75390625	1	decision	trialStart	2	69	9	foodImage.115	FOODEEG_Images\0923.jpg	YN	Right	No	0.809527099947445	0	342915	251
670.791015625	2	decision	foodImageDisplay	2	69	9	foodImage.115	FOODEEG_Images\0923.jpg	YN	Right	No	0.809527099947445	0	343446	252
672.853515625	0.809527099947445	decision	choicePhaseStart	2	69	9	foodImage.115	FOODEEG_Images\0923.jpg	YN	Right	No	0.809527099947445	0	344502	253
673.654296875	0	decision	response	2	69	9	foodImage.115	FOODEEG_Images\0923.jpg	YN	Right	No	0.809527099947445	0	344912	235
674.697265625	1	health	trialStart	2	70	10	foodImage.93	FOODEEG_Images\0901.jpg	NY	Left	No	1.23986000008881	0	345446	251
675.736328125	2	health	foodImageDisplay	2	70	10	foodImage.93	FOODEEG_Images\0901.jpg	NY	Left	No	1.23986000008881	0	345978	252
677.798828125	1.23986000008881	health	choicePhaseStart	2	70	10	foodImage.93	FOODEEG_Images\0901.jpg	NY	Left	No	1.23986000008881	0	347034	253
679.029296875	0	health	response	2	70	10	foodImage.93	FOODEEG_Images\0901.jpg	NY	Left	No	1.23986000008881	0	347664	234
680.072265625	1	taste	trialStart	2	71	11	foodImage.111	FOODEEG_Images\0919.jpg	YN	Right	No	0.864700799924321	0	348198	251
681.111328125	2	taste	foodImageDisplay	2	71	11	foodImage.111	FOODEEG_Images\0919.jpg	YN	Right	No	0.864700799924321	0	348730	252
683.173828125	0.864700799924321	taste	choicePhaseStart	2	71	11	foodImage.111	FOODEEG_Images\0919.jpg	YN	Right	No	0.864700799924321	0	349786	253
684.029296875	0	taste	response	2	71	11	foodImage.111	FOODEEG_Images\0919.jpg	YN	Right	No	0.864700799924321	0	350224	235
685.07421875	1	decision	trialStart	2	72	12	foodImage.16	FOODEEG_Images\0196.jpg	NY	Right	Yes	0.87883909989614	0	350759	251
686.130859375	2	decision	foodImageDisplay	2	72	12	foodImage.16	FOODEEG_Images\0196.jpg	NY	Right	Yes	0.87883909989614	0	351300	252
688.193359375	0.87883909989614	decision	choicePhaseStart	2	72	12	foodImage.16	FOODEEG_Images\0196.jpg	NY	Right	Yes	0.87883909989614	0	352356	253
689.0625	0	decision	response	2	72	12	foodImage.16	FOODEEG_Images\0196.jpg	NY	Right	Yes	0.87883909989614	0	352801	235
690.10546875	1	health	trialStart	2	73	13	foodImage.58	FOODEEG_Images\0605.jpg	YN	Left	Yes	1.25334499997552	0	353335	251
691.162109375	2	health	foodImageDisplay	2	73	13	foodImage.58	FOODEEG_Images\0605.jpg	YN	Left	Yes	1.25334499997552	0	353876	252
693.224609375	1.25334499997552	health	choicePhaseStart	2	73	13	foodImage.58	FOODEEG_Images\0605.jpg	YN	Left	Yes	1.25334499997552	0	354932	253
694.46875	0	health	response	2	73	13	foodImage.58	FOODEEG_Images\0605.jpg	YN	Left	Yes	1.25334499997552	0	355569	234
695.513671875	1	taste	trialStart	2	74	14	foodImage.18	FOODEEG_Images\0202.jpg	YN	Left	Yes	1.12801500002388	0	356104	251
696.56640625	2	taste	foodImageDisplay	2	74	14	foodImage.18	FOODEEG_Images\0202.jpg	YN	Left	Yes	1.12801500002388	0	356643	252
698.62890625	1.12801500002388	taste	choicePhaseStart	2	74	14	foodImage.18	FOODEEG_Images\0202.jpg	YN	Left	Yes	1.12801500002388	0	357699	253
699.75	0	taste	response	2	74	14	foodImage.18	FOODEEG_Images\0202.jpg	YN	Left	Yes	1.12801500002388	0	358273	234
700.791015625	1	health	trialStart	2	75	15	foodImage.95	FOODEEG_Images\0903.jpg	NY	Left	No	1.74666559998877	0	358806	251
701.830078125	2	health	foodImageDisplay	2	75	15	foodImage.95	FOODEEG_Images\0903.jpg	NY	Left	No	1.74666559998877	0	359338	252
703.892578125	1.74666559998877	health	choicePhaseStart	2	75	15	foodImage.95	FOODEEG_Images\0903.jpg	NY	Left	No	1.74666559998877	0	360394	253
705.62890625	0	health	response	2	75	15	foodImage.95	FOODEEG_Images\0903.jpg	NY	Left	No	1.74666559998877	0	361283	234
706.671875	1	taste	trialStart	2	76	16	foodImage.49	FOODEEG_Images\0515.jpg	YN	Left	Yes	0.852204299997538	0	361817	251
707.71484375	2	taste	foodImageDisplay	2	76	16	foodImage.49	FOODEEG_Images\0515.jpg	YN	Left	Yes	0.852204299997538	0	362351	252
709.77734375	0.852204299997538	taste	choicePhaseStart	2	76	16	foodImage.49	FOODEEG_Images\0515.jpg	YN	Left	Yes	0.852204299997538	0	363407	253
710.62109375	0	taste	response	2	76	16	foodImage.49	FOODEEG_Images\0515.jpg	YN	Left	Yes	0.852204299997538	0	363839	234
711.6640625	1	decision	trialStart	2	77	17	foodImage.24	FOODEEG_Images\0250.jpg	YN	Left	Yes	0.878201900050044	0	364373	251
712.705078125	2	decision	foodImageDisplay	2	77	17	foodImage.24	FOODEEG_Images\0250.jpg	YN	Left	Yes	0.878201900050044	0	364906	252
714.767578125	0.878201900050044	decision	choicePhaseStart	2	77	17	foodImage.24	FOODEEG_Images\0250.jpg	YN	Left	Yes	0.878201900050044	0	365962	253
715.63671875	0	decision	response	2	77	17	foodImage.24	FOODEEG_Images\0250.jpg	YN	Left	Yes	0.878201900050044	0	366407	234
716.6796875	1	decision	trialStart	2	78	18	foodImage.108	FOODEEG_Images\0916.jpg	NY	Left	No	0.920844600070268	0	366941	251
717.716796875	2	decision	foodImageDisplay	2	78	18	foodImage.108	FOODEEG_Images\0916.jpg	NY	Left	No	0.920844600070268	0	367472	252
719.78125	0.920844600070268	decision	choicePhaseStart	2	78	18	foodImage.108	FOODEEG_Images\0916.jpg	NY	Left	No	0.920844600070268	0	368529	253
720.693359375	0	decision	response	2	78	18	foodImage.108	FOODEEG_Images\0916.jpg	NY	Left	No	0.920844600070268	0	368996	234
721.734375	1	taste	trialStart	2	79	19	foodImage.119	FOODEEG_Images\0927.jpg	NY	Left	No	1.43321399996057	0	369529	251
722.7734375	2	taste	foodImageDisplay	2	79	19	foodImage.119	FOODEEG_Images\0927.jpg	NY	Left	No	1.43321399996057	0	370061	252
724.8359375	1.43321399996057	taste	choicePhaseStart	2	79	19	foodImage.119	FOODEEG_Images\0927.jpg	NY	Left	No	1.43321399996057	0	371117	253
726.259765625	0	taste	response	2	79	19	foodImage.119	FOODEEG_Images\0927.jpg	NY	Left	No	1.43321399996057	0	371846	234
727.302734375	1	health	trialStart	2	80	20	foodImage.85	FOODEEG_Images\0841.jpg	YN	Left	Yes	0.806364700081758	0	372380	251
728.376953125	2	health	foodImageDisplay	2	80	20	foodImage.85	FOODEEG_Images\0841.jpg	YN	Left	Yes	0.806364700081758	0	372930	252
730.439453125	0.806364700081758	health	choicePhaseStart	2	80	20	foodImage.85	FOODEEG_Images\0841.jpg	YN	Left	Yes	0.806364700081758	0	373986	253
731.236328125	0	health	response	2	80	20	foodImage.85	FOODEEG_Images\0841.jpg	YN	Left	Yes	0.806364700081758	0	374394	234
732.279296875	1	decision	trialStart	2	81	21	foodImage.40	FOODEEG_Images\0373.jpg	NY	Right	Yes	1.39933359995484	0	374928	251
733.3203125	2	decision	foodImageDisplay	2	81	21	foodImage.40	FOODEEG_Images\0373.jpg	NY	Right	Yes	1.39933359995484	0	375461	252
735.3828125	1.39933359995484	decision	choicePhaseStart	2	81	21	foodImage.40	FOODEEG_Images\0373.jpg	NY	Right	Yes	1.39933359995484	0	376517	253
736.771484375	0	decision	response	2	81	21	foodImage.40	FOODEEG_Images\0373.jpg	NY	Right	Yes	1.39933359995484	0	377228	235
737.814453125	1	decision	trialStart	2	82	22	foodImage.104	FOODEEG_Images\0912.jpg	YN	Left	Yes	1.55956650001463	0	377762	251
738.853515625	2	decision	foodImageDisplay	2	82	22	foodImage.104	FOODEEG_Images\0912.jpg	YN	Left	Yes	1.55956650001463	0	378294	252
740.916015625	1.55956650001463	decision	choicePhaseStart	2	82	22	foodImage.104	FOODEEG_Images\0912.jpg	YN	Left	Yes	1.55956650001463	0	379350	253
742.466796875	0	decision	response	2	82	22	foodImage.104	FOODEEG_Images\0912.jpg	YN	Left	Yes	1.55956650001463	0	380144	234
743.509765625	1	taste	trialStart	2	83	23	foodImage.99	FOODEEG_Images\0907.jpg	NY	Left	No	0.738467099959962	0	380678	251
744.548828125	2	taste	foodImageDisplay	2	83	23	foodImage.99	FOODEEG_Images\0907.jpg	NY	Left	No	0.738467099959962	0	381210	252
746.611328125	0.738467099959962	taste	choicePhaseStart	2	83	23	foodImage.99	FOODEEG_Images\0907.jpg	NY	Left	No	0.738467099959962	0	382266	253
747.33984375	0	taste	response	2	83	23	foodImage.99	FOODEEG_Images\0907.jpg	NY	Left	No	0.738467099959962	0	382639	234
748.3828125	1	decision	trialStart	2	84	24	foodImage.83	FOODEEG_Images\0827.jpg	YN	Right	No	1.013149999897	0	383173	251
749.44140625	2	decision	foodImageDisplay	2	84	24	foodImage.83	FOODEEG_Images\0827.jpg	YN	Right	No	1.013149999897	0	383715	252
751.501953125	1.013149999897	decision	choicePhaseStart	2	84	24	foodImage.83	FOODEEG_Images\0827.jpg	YN	Right	No	1.013149999897	0	384770	253
752.5078125	0	decision	response	2	84	24	foodImage.83	FOODEEG_Images\0827.jpg	YN	Right	No	1.013149999897	0	385285	235
753.55078125	1	decision	trialStart	2	85	25	foodImage.67	FOODEEG_Images\0679.jpg	NY	Right	Yes	0.645569499931298	0	385819	251
754.609375	2	decision	foodImageDisplay	2	85	25	foodImage.67	FOODEEG_Images\0679.jpg	NY	Right	Yes	0.645569499931298	0	386361	252
756.669921875	0.645569499931298	decision	choicePhaseStart	2	85	25	foodImage.67	FOODEEG_Images\0679.jpg	NY	Right	Yes	0.645569499931298	0	387416	253
757.306640625	0	decision	response	2	85	25	foodImage.67	FOODEEG_Images\0679.jpg	NY	Right	Yes	0.645569499931298	0	387742	235
758.349609375	1	health	trialStart	2	86	26	foodImage.112	FOODEEG_Images\0920.jpg	NY	Left	No	1.22664330003317	0	388276	251
759.38671875	2	health	foodImageDisplay	2	86	26	foodImage.112	FOODEEG_Images\0920.jpg	NY	Left	No	1.22664330003317	0	388807	252
761.44921875	1.22664330003317	health	choicePhaseStart	2	86	26	foodImage.112	FOODEEG_Images\0920.jpg	NY	Left	No	1.22664330003317	0	389863	253
762.666015625	0	health	response	2	86	26	foodImage.112	FOODEEG_Images\0920.jpg	NY	Left	No	1.22664330003317	0	390486	234
763.708984375	1	taste	trialStart	2	87	27	foodImage.12	FOODEEG_Images\0181.jpg	NY	Left	No	0.779134699958377	0	391020	251
764.75390625	2	taste	foodImageDisplay	2	87	27	foodImage.12	FOODEEG_Images\0181.jpg	NY	Left	No	0.779134699958377	0	391555	252
766.81640625	0.779134699958377	taste	choicePhaseStart	2	87	27	foodImage.12	FOODEEG_Images\0181.jpg	NY	Left	No	0.779134699958377	0	392611	253
767.5859375	0	taste	response	2	87	27	foodImage.12	FOODEEG_Images\0181.jpg	NY	Left	No	0.779134699958377	0	393005	234
768.62890625	1	health	trialStart	2	88	28	foodImage.5	FOODEEG_Images\0107.jpg	NY	Left	No	1.56686230003834	0	393539	251
769.685546875	2	health	foodImageDisplay	2	88	28	foodImage.5	FOODEEG_Images\0107.jpg	NY	Left	No	1.56686230003834	0	394080	252
771.748046875	1.56686230003834	health	choicePhaseStart	2	88	28	foodImage.5	FOODEEG_Images\0107.jpg	NY	Left	No	1.56686230003834	0	395136	253
773.306640625	0	health	response	2	88	28	foodImage.5	FOODEEG_Images\0107.jpg	NY	Left	No	1.56686230003834	0	395934	234
774.34765625	1	health	trialStart	2	89	29	foodImage.110	FOODEEG_Images\0918.jpg	YN	Right	No	2.1792363000568	0	396467	251
775.384765625	2	health	foodImageDisplay	2	89	29	foodImage.110	FOODEEG_Images\0918.jpg	YN	Right	No	2.1792363000568	0	396998	252
777.44921875	2.1792363000568	health	choicePhaseStart	2	89	29	foodImage.110	FOODEEG_Images\0918.jpg	YN	Right	No	2.1792363000568	0	398055	253
779.6171875	0	health	response	2	89	29	foodImage.110	FOODEEG_Images\0918.jpg	YN	Right	No	2.1792363000568	0	399165	235
780.662109375	1	health	trialStart	2	90	30	foodImage.65	FOODEEG_Images\0658.jpg	NY	Right	Yes	2.97356339998078	0	399700	251
781.703125	2	health	foodImageDisplay	2	90	30	foodImage.65	FOODEEG_Images\0658.jpg	NY	Right	Yes	2.97356339998078	0	400233	252
783.765625	2.97356339998078	health	choicePhaseStart	2	90	30	foodImage.65	FOODEEG_Images\0658.jpg	NY	Right	Yes	2.97356339998078	0	401289	253
786.73046875	0	health	response	2	90	30	foodImage.65	FOODEEG_Images\0658.jpg	NY	Right	Yes	2.97356339998078	0	402807	235
787.7734375	1	taste	trialStart	2	91	31	foodImage.9	FOODEEG_Images\0138.jpg	NY	Left	No	1.1256450000219	0	403341	251
788.830078125	2	taste	foodImageDisplay	2	91	31	foodImage.9	FOODEEG_Images\0138.jpg	NY	Left	No	1.1256450000219	0	403882	252
790.892578125	1.1256450000219	taste	choicePhaseStart	2	91	31	foodImage.9	FOODEEG_Images\0138.jpg	NY	Left	No	1.1256450000219	0	404938	253
792.009765625	0	taste	response	2	91	31	foodImage.9	FOODEEG_Images\0138.jpg	NY	Left	No	1.1256450000219	0	405510	234
793.05078125	1	taste	trialStart	2	92	32	foodImage.37	FOODEEG_Images\0359.jpg	NY	Right	Yes	0.766454899916425	0	406043	251
794.09375	2	taste	foodImageDisplay	2	92	32	foodImage.37	FOODEEG_Images\0359.jpg	NY	Right	Yes	0.766454899916425	0	406577	252
796.15625	0.766454899916425	taste	choicePhaseStart	2	92	32	foodImage.37	FOODEEG_Images\0359.jpg	NY	Right	Yes	0.766454899916425	0	407633	253
796.9140625	0	taste	response	2	92	32	foodImage.37	FOODEEG_Images\0359.jpg	NY	Right	Yes	0.766454899916425	0	408021	235
797.95703125	1	taste	trialStart	2	93	33	foodImage.69	FOODEEG_Images\0693.jpg	NY	Right	Yes	1.00450969999656	0	408555	251
799	2	taste	foodImageDisplay	2	93	33	foodImage.69	FOODEEG_Images\0693.jpg	NY	Right	Yes	1.00450969999656	0	409089	252
801.0625	1.00450969999656	taste	choicePhaseStart	2	93	33	foodImage.69	FOODEEG_Images\0693.jpg	NY	Right	Yes	1.00450969999656	0	410145	253
802.056640625	0	taste	response	2	93	33	foodImage.69	FOODEEG_Images\0693.jpg	NY	Right	Yes	1.00450969999656	0	410654	235
803.099609375	1	taste	trialStart	2	94	34	foodImage.74	FOODEEG_Images\0752.jpg	YN	Left	Yes	0.74639419990126	0	411188	251
804.14453125	2	taste	foodImageDisplay	2	94	34	foodImage.74	FOODEEG_Images\0752.jpg	YN	Left	Yes	0.74639419990126	0	411723	252
806.20703125	0.74639419990126	taste	choicePhaseStart	2	94	34	foodImage.74	FOODEEG_Images\0752.jpg	YN	Left	Yes	0.74639419990126	0	412779	253
806.9453125	0	taste	response	2	94	34	foodImage.74	FOODEEG_Images\0752.jpg	YN	Left	Yes	0.74639419990126	0	413157	234
807.98828125	1	decision	trialStart	2	95	35	foodImage.94	FOODEEG_Images\0902.jpg	YN	Right	No	2.12846560007893	0	413691	251
809.025390625	2	decision	foodImageDisplay	2	95	35	foodImage.94	FOODEEG_Images\0902.jpg	YN	Right	No	2.12846560007893	0	414222	252
811.087890625	2.12846560007893	decision	choicePhaseStart	2	95	35	foodImage.94	FOODEEG_Images\0902.jpg	YN	Right	No	2.12846560007893	0	415278	253
813.208984375	0	decision	response	2	95	35	foodImage.94	FOODEEG_Images\0902.jpg	YN	Right	No	2.12846560007893	0	416364	235
814.251953125	1	decision	trialStart	2	96	36	foodImage.98	FOODEEG_Images\0906.jpg	YN	Right	No	0.737780299969018	0	416898	251
815.2890625	2	decision	foodImageDisplay	2	96	36	foodImage.98	FOODEEG_Images\0906.jpg	YN	Right	No	0.737780299969018	0	417429	252
817.3515625	0.737780299969018	decision	choicePhaseStart	2	96	36	foodImage.98	FOODEEG_Images\0906.jpg	YN	Right	No	0.737780299969018	0	418485	253
818.080078125	0	decision	response	2	96	36	foodImage.98	FOODEEG_Images\0906.jpg	YN	Right	No	0.737780299969018	0	418858	235
819.123046875	1	taste	trialStart	2	97	37	foodImage.73	FOODEEG_Images\0717.jpg	NY	Right	Yes	1.67036210000515	0	419392	251
820.181640625	2	taste	foodImageDisplay	2	97	37	foodImage.73	FOODEEG_Images\0717.jpg	NY	Right	Yes	1.67036210000515	0	419934	252
822.244140625	1.67036210000515	taste	choicePhaseStart	2	97	37	foodImage.73	FOODEEG_Images\0717.jpg	NY	Right	Yes	1.67036210000515	0	420990	253
823.904296875	0	taste	response	2	97	37	foodImage.73	FOODEEG_Images\0717.jpg	NY	Right	Yes	1.67036210000515	0	421840	235
824.947265625	1	health	trialStart	2	98	38	foodImage.39	FOODEEG_Images\0367.jpg	NY	Right	Yes	2.15301959996577	0	422374	251
825.986328125	2	health	foodImageDisplay	2	98	38	foodImage.39	FOODEEG_Images\0367.jpg	NY	Right	Yes	2.15301959996577	0	422906	252
828.048828125	2.15301959996577	health	choicePhaseStart	2	98	38	foodImage.39	FOODEEG_Images\0367.jpg	NY	Right	Yes	2.15301959996577	0	423962	253
830.19140625	0	health	response	2	98	38	foodImage.39	FOODEEG_Images\0367.jpg	NY	Right	Yes	2.15301959996577	0	425059	235
831.234375	1	taste	trialStart	2	99	39	foodImage.86	FOODEEG_Images\0844.jpg	YN	Left	Yes	0.940899699926376	0	425593	251
832.29296875	2	taste	foodImageDisplay	2	99	39	foodImage.86	FOODEEG_Images\0844.jpg	YN	Left	Yes	0.940899699926376	0	426135	252
834.35546875	0.940899699926376	taste	choicePhaseStart	2	99	39	foodImage.86	FOODEEG_Images\0844.jpg	YN	Left	Yes	0.940899699926376	0	427191	253
835.287109375	0	taste	response	2	99	39	foodImage.86	FOODEEG_Images\0844.jpg	YN	Left	Yes	0.940899699926376	0	427668	234
836.33203125	1	health	trialStart	2	100	40	foodImage.29	FOODEEG_Images\0278.jpg	YN	Left	Yes	1.75596029998269	0	428203	251
837.373046875	2	health	foodImageDisplay	2	100	40	foodImage.29	FOODEEG_Images\0278.jpg	YN	Left	Yes	1.75596029998269	0	428736	252
839.43359375	1.75596029998269	health	choicePhaseStart	2	100	40	foodImage.29	FOODEEG_Images\0278.jpg	YN	Left	Yes	1.75596029998269	0	429791	253
841.18359375	0	health	response	2	100	40	foodImage.29	FOODEEG_Images\0278.jpg	YN	Left	Yes	1.75596029998269	0	430687	234
842.2265625	1	decision	trialStart	2	101	41	foodImage.72	FOODEEG_Images\0714.jpg	YN	Right	No	1.58997699990869	0	431221	251
843.267578125	2	decision	foodImageDisplay	2	101	41	foodImage.72	FOODEEG_Images\0714.jpg	YN	Right	No	1.58997699990869	0	431754	252
845.330078125	1.58997699990869	decision	choicePhaseStart	2	101	41	foodImage.72	FOODEEG_Images\0714.jpg	YN	Right	No	1.58997699990869	0	432810	253
846.912109375	0	decision	response	2	101	41	foodImage.72	FOODEEG_Images\0714.jpg	YN	Right	No	1.58997699990869	0	433620	235
847.955078125	1	health	trialStart	2	102	42	foodImage.34	FOODEEG_Images\0339.jpg	NY	Left	No	0.656582699972205	0	434154	251
849.009765625	2	health	foodImageDisplay	2	102	42	foodImage.34	FOODEEG_Images\0339.jpg	NY	Left	No	0.656582699972205	0	434694	252
851.072265625	0.656582699972205	health	choicePhaseStart	2	102	42	foodImage.34	FOODEEG_Images\0339.jpg	NY	Left	No	0.656582699972205	0	435750	253
851.71875	0	health	response	2	102	42	foodImage.34	FOODEEG_Images\0339.jpg	NY	Left	No	0.656582699972205	0	436081	234
852.76171875	1	decision	trialStart	2	103	43	foodImage.19	FOODEEG_Images\0225.jpg	YN	Right	No	1.92158269998617	0	436615	251
853.806640625	2	decision	foodImageDisplay	2	103	43	foodImage.19	FOODEEG_Images\0225.jpg	YN	Right	No	1.92158269998617	0	437150	252
855.869140625	1.92158269998617	decision	choicePhaseStart	2	103	43	foodImage.19	FOODEEG_Images\0225.jpg	YN	Right	No	1.92158269998617	0	438206	253
857.783203125	0	decision	response	2	103	43	foodImage.19	FOODEEG_Images\0225.jpg	YN	Right	No	1.92158269998617	0	439186	235
858.828125	1	health	trialStart	2	104	44	foodImage.61	FOODEEG_Images\0640.jpg	YN	Left	Yes	0.787098699947819	0	439721	251
859.869140625	2	health	foodImageDisplay	2	104	44	foodImage.61	FOODEEG_Images\0640.jpg	YN	Left	Yes	0.787098699947819	0	440254	252
861.931640625	0.787098699947819	health	choicePhaseStart	2	104	44	foodImage.61	FOODEEG_Images\0640.jpg	YN	Left	Yes	0.787098699947819	0	441310	253
862.7109375	0	health	response	2	104	44	foodImage.61	FOODEEG_Images\0640.jpg	YN	Left	Yes	0.787098699947819	0	441709	234
863.75390625	1	decision	trialStart	2	105	45	foodImage.22	FOODEEG_Images\0236.jpg	YN	Left	Yes	0.845106099965051	0	442243	251
864.794921875	2	decision	foodImageDisplay	2	105	45	foodImage.22	FOODEEG_Images\0236.jpg	YN	Left	Yes	0.845106099965051	0	442776	252
866.857421875	0.845106099965051	decision	choicePhaseStart	2	105	45	foodImage.22	FOODEEG_Images\0236.jpg	YN	Left	Yes	0.845106099965051	0	443832	253
867.6953125	0	decision	response	2	105	45	foodImage.22	FOODEEG_Images\0236.jpg	YN	Left	Yes	0.845106099965051	0	444261	234
868.73828125	1	health	trialStart	2	106	46	foodImage.47	FOODEEG_Images\0488.jpg	NY	Left	No	1.30926689994521	0	444795	251
869.779296875	2	health	foodImageDisplay	2	106	46	foodImage.47	FOODEEG_Images\0488.jpg	NY	Left	No	1.30926689994521	0	445328	252
871.841796875	1.30926689994521	health	choicePhaseStart	2	106	46	foodImage.47	FOODEEG_Images\0488.jpg	NY	Left	No	1.30926689994521	0	446384	253
873.142578125	0	health	response	2	106	46	foodImage.47	FOODEEG_Images\0488.jpg	NY	Left	No	1.30926689994521	0	447050	234
874.18359375	1	taste	trialStart	2	107	47	foodImage.64	FOODEEG_Images\0647.jpg	NY	Right	Yes	1.41375659999903	0	447583	251
875.2421875	2	taste	foodImageDisplay	2	107	47	foodImage.64	FOODEEG_Images\0647.jpg	NY	Right	Yes	1.41375659999903	0	448125	252
877.3046875	1.41375659999903	taste	choicePhaseStart	2	107	47	foodImage.64	FOODEEG_Images\0647.jpg	NY	Right	Yes	1.41375659999903	0	449181	253
878.7109375	0	taste	response	2	107	47	foodImage.64	FOODEEG_Images\0647.jpg	NY	Right	Yes	1.41375659999903	0	449901	235
879.75390625	1	health	trialStart	2	108	48	foodImage.31	FOODEEG_Images\0294.jpg	YN	Right	No	1.09426859999076	0	450435	251
880.794921875	2	health	foodImageDisplay	2	108	48	foodImage.31	FOODEEG_Images\0294.jpg	YN	Right	No	1.09426859999076	0	450968	252
882.857421875	1.09426859999076	health	choicePhaseStart	2	108	48	foodImage.31	FOODEEG_Images\0294.jpg	YN	Right	No	1.09426859999076	0	452024	253
883.94140625	0	health	response	2	108	48	foodImage.31	FOODEEG_Images\0294.jpg	YN	Right	No	1.09426859999076	0	452579	235
884.984375	1	taste	trialStart	2	109	49	foodImage.72	FOODEEG_Images\0714.jpg	NY	Left	No	1.49943159997929	0	453113	251
886.02734375	2	taste	foodImageDisplay	2	109	49	foodImage.72	FOODEEG_Images\0714.jpg	NY	Left	No	1.49943159997929	0	453647	252
888.08984375	1.49943159997929	taste	choicePhaseStart	2	109	49	foodImage.72	FOODEEG_Images\0714.jpg	NY	Left	No	1.49943159997929	0	454703	253
889.58203125	0	taste	response	2	109	49	foodImage.72	FOODEEG_Images\0714.jpg	NY	Left	No	1.49943159997929	0	455467	234
890.625	1	decision	trialStart	2	110	50	foodImage.99	FOODEEG_Images\0907.jpg	YN	Left	Yes	1.03162450005766	0	456001	251
891.662109375	2	decision	foodImageDisplay	2	110	50	foodImage.99	FOODEEG_Images\0907.jpg	YN	Left	Yes	1.03162450005766	0	456532	252
893.7265625	1.03162450005766	decision	choicePhaseStart	2	110	50	foodImage.99	FOODEEG_Images\0907.jpg	YN	Left	Yes	1.03162450005766	0	457589	253
894.75	0	decision	response	2	110	50	foodImage.99	FOODEEG_Images\0907.jpg	YN	Left	Yes	1.03162450005766	0	458113	234
895.79296875	1	health	trialStart	2	111	51	foodImage.12	FOODEEG_Images\0181.jpg	NY	Right	Yes	1.96512209996581	0	458647	251
896.833984375	2	health	foodImageDisplay	2	111	51	foodImage.12	FOODEEG_Images\0181.jpg	NY	Right	Yes	1.96512209996581	0	459180	252
898.896484375	1.96512209996581	health	choicePhaseStart	2	111	51	foodImage.12	FOODEEG_Images\0181.jpg	NY	Right	Yes	1.96512209996581	0	460236	253
900.853515625	0	health	response	2	111	51	foodImage.12	FOODEEG_Images\0181.jpg	NY	Right	Yes	1.96512209996581	0	461238	235
901.89453125	1	taste	trialStart	2	112	52	foodImage.120	FOODEEG_Images\0928.jpg	YN	Right	No	0.786396099952981	0	461771	251
902.93359375	2	taste	foodImageDisplay	2	112	52	foodImage.120	FOODEEG_Images\0928.jpg	YN	Right	No	0.786396099952981	0	462303	252
904.99609375	0.786396099952981	taste	choicePhaseStart	2	112	52	foodImage.120	FOODEEG_Images\0928.jpg	YN	Right	No	0.786396099952981	0	463359	253
905.7734375	0	taste	response	2	112	52	foodImage.120	FOODEEG_Images\0928.jpg	YN	Right	No	0.786396099952981	0	463757	235
906.81640625	1	taste	trialStart	2	113	53	foodImage.7	FOODEEG_Images\0116.jpg	NY	Right	Yes	0.629085200023837	0	464291	251
907.859375	2	taste	foodImageDisplay	2	113	53	foodImage.7	FOODEEG_Images\0116.jpg	NY	Right	Yes	0.629085200023837	0	464825	252
909.921875	0.629085200023837	taste	choicePhaseStart	2	113	53	foodImage.7	FOODEEG_Images\0116.jpg	NY	Right	Yes	0.629085200023837	0	465881	253
910.541015625	0	taste	response	2	113	53	foodImage.7	FOODEEG_Images\0116.jpg	NY	Right	Yes	0.629085200023837	0	466198	235
911.583984375	1	decision	trialStart	2	114	54	foodImage.42	FOODEEG_Images\0438.jpg	NY	Right	Yes	1.16256600001361	0	466732	251
912.673828125	2	decision	foodImageDisplay	2	114	54	foodImage.42	FOODEEG_Images\0438.jpg	NY	Right	Yes	1.16256600001361	0	467290	252
914.73828125	1.16256600001361	decision	choicePhaseStart	2	114	54	foodImage.42	FOODEEG_Images\0438.jpg	NY	Right	Yes	1.16256600001361	0	468347	253
915.892578125	0	decision	response	2	114	54	foodImage.42	FOODEEG_Images\0438.jpg	NY	Right	Yes	1.16256600001361	0	468938	235
916.9375	1	decision	trialStart	2	115	55	foodImage.78	FOODEEG_Images\0787.jpg	YN	Left	Yes	2.4098450000165	0	469473	251
917.982421875	2	decision	foodImageDisplay	2	115	55	foodImage.78	FOODEEG_Images\0787.jpg	YN	Left	Yes	2.4098450000165	0	470008	252
920.044921875	2.4098450000165	decision	choicePhaseStart	2	115	55	foodImage.78	FOODEEG_Images\0787.jpg	YN	Left	Yes	2.4098450000165	0	471064	253
922.443359375	0	decision	response	2	115	55	foodImage.78	FOODEEG_Images\0787.jpg	YN	Left	Yes	2.4098450000165	0	472292	234
923.486328125	1	taste	trialStart	2	116	56	foodImage.3	FOODEEG_Images\0046.jpg	YN	Left	Yes	0.704010599991307	0	472826	251
924.525390625	2	taste	foodImageDisplay	2	116	56	foodImage.3	FOODEEG_Images\0046.jpg	YN	Left	Yes	0.704010599991307	0	473358	252
926.587890625	0.704010599991307	taste	choicePhaseStart	2	116	56	foodImage.3	FOODEEG_Images\0046.jpg	YN	Left	Yes	0.704010599991307	0	474414	253
927.28515625	0	taste	response	2	116	56	foodImage.3	FOODEEG_Images\0046.jpg	YN	Left	Yes	0.704010599991307	0	474771	234
928.32421875	1	decision	trialStart	2	117	57	foodImage.2	FOODEEG_Images\0028.jpg	NY	Right	Yes	0.897009299951605	0	475303	251
929.365234375	2	decision	foodImageDisplay	2	117	57	foodImage.2	FOODEEG_Images\0028.jpg	NY	Right	Yes	0.897009299951605	0	475836	252
931.427734375	0.897009299951605	decision	choicePhaseStart	2	117	57	foodImage.2	FOODEEG_Images\0028.jpg	NY	Right	Yes	0.897009299951605	0	476892	253
932.31640625	0	decision	response	2	117	57	foodImage.2	FOODEEG_Images\0028.jpg	NY	Right	Yes	0.897009299951605	0	477347	235
933.359375	1	decision	trialStart	2	118	58	foodImage.12	FOODEEG_Images\0181.jpg	YN	Right	No	1.29990380001254	0	477881	251
934.40234375	2	decision	foodImageDisplay	2	118	58	foodImage.12	FOODEEG_Images\0181.jpg	YN	Right	No	1.29990380001254	0	478415	252
936.46484375	1.29990380001254	decision	choicePhaseStart	2	118	58	foodImage.12	FOODEEG_Images\0181.jpg	YN	Right	No	1.29990380001254	0	479471	253
937.755859375	0	decision	response	2	118	58	foodImage.12	FOODEEG_Images\0181.jpg	YN	Right	No	1.29990380001254	0	480132	235
938.798828125	1	health	trialStart	2	119	59	foodImage.32	FOODEEG_Images\0319.jpg	YN	Left	Yes	2.61125539999921	0	480666	251
939.841796875	2	health	foodImageDisplay	2	119	59	foodImage.32	FOODEEG_Images\0319.jpg	YN	Left	Yes	2.61125539999921	0	481200	252
941.904296875	2.61125539999921	health	choicePhaseStart	2	119	59	foodImage.32	FOODEEG_Images\0319.jpg	YN	Left	Yes	2.61125539999921	0	482256	253
944.5078125	0	health	response	2	119	59	foodImage.32	FOODEEG_Images\0319.jpg	YN	Left	Yes	2.61125539999921	0	483589	234
945.55078125	1	taste	trialStart	2	120	60	foodImage.100	FOODEEG_Images\0908.jpg	YN	Right	No	0.897117999964394	0	484123	251
946.58984375	2	taste	foodImageDisplay	2	120	60	foodImage.100	FOODEEG_Images\0908.jpg	YN	Right	No	0.897117999964394	0	484655	252
948.65234375	0.897117999964394	taste	choicePhaseStart	2	120	60	foodImage.100	FOODEEG_Images\0908.jpg	YN	Right	No	0.897117999964394	0	485711	253
949.5390625	0	taste	response	2	120	60	foodImage.100	FOODEEG_Images\0908.jpg	YN	Right	No	0.897117999964394	0	486165	235
951.58203125	36.91796875	n/a	blockEnd	n/a	n/a	n/a	n/a	n/a	n/a	n/a	n/a	n/a	n/a	487211	254
988.5	2	n/a	blockStart	3	n/a	n/a	n/a	n/a	n/a	n/a	n/a	n/a	n/a	506113	250
990.53125	1	taste	trialStart	3	121	1	foodImage.94	FOODEEG_Images\0902.jpg	YN	Right	No	1.15191959997173	0	507153	251
991.587890625	2	taste	foodImageDisplay	3	121	1	foodImage.94	FOODEEG_Images\0902.jpg	YN	Right	No	1.15191959997173	0	507694	252
993.650390625	1.15191959997173	taste	choicePhaseStart	3	121	1	foodImage.94	FOODEEG_Images\0902.jpg	YN	Right	No	1.15191959997173	0	508750	253
994.79296875	0	taste	response	3	121	1	foodImage.94	FOODEEG_Images\0902.jpg	YN	Right	No	1.15191959997173	0	509335	235
995.8359375	1	taste	trialStart	3	122	2	foodImage.91	FOODEEG_Images\0896.jpg	YN	Left	Yes	0.935298399999738	0	509869	251
996.892578125	2	taste	foodImageDisplay	3	122	2	foodImage.91	FOODEEG_Images\0896.jpg	YN	Left	Yes	0.935298399999738	0	510410	252
998.955078125	0.935298399999738	taste	choicePhaseStart	3	122	2	foodImage.91	FOODEEG_Images\0896.jpg	YN	Left	Yes	0.935298399999738	0	511466	253
999.880859375	0	taste	response	3	122	2	foodImage.91	FOODEEG_Images\0896.jpg	YN	Left	Yes	0.935298399999738	0	511940	234
1000.92578125	1	health	trialStart	3	123	3	foodImage.60	FOODEEG_Images\0614.jpg	YN	Left	Yes	0.834046700038016	0	512475	251
1001.984375	2	health	foodImageDisplay	3	123	3	foodImage.60	FOODEEG_Images\0614.jpg	YN	Left	Yes	0.834046700038016	0	513017	252
1004.048828125	0.834046700038016	health	choicePhaseStart	3	123	3	foodImage.60	FOODEEG_Images\0614.jpg	YN	Left	Yes	0.834046700038016	0	514074	253
1004.873046875	0	health	response	3	123	3	foodImage.60	FOODEEG_Images\0614.jpg	YN	Left	Yes	0.834046700038016	0	514496	234
1005.916015625	1	health	trialStart	3	124	4	foodImage.76	FOODEEG_Images\0766.jpg	YN	Left	Yes	0.881773500004783	0	515030	251
1006.958984375	2	health	foodImageDisplay	3	124	4	foodImage.76	FOODEEG_Images\0766.jpg	YN	Left	Yes	0.881773500004783	0	515564	252
1009.021484375	0.881773500004783	health	choicePhaseStart	3	124	4	foodImage.76	FOODEEG_Images\0766.jpg	YN	Left	Yes	0.881773500004783	0	516620	253
1009.896484375	0	health	response	3	124	4	foodImage.76	FOODEEG_Images\0766.jpg	YN	Left	Yes	0.881773500004783	0	517068	234
1010.939453125	1	decision	trialStart	3	125	5	foodImage.90	FOODEEG_Images\0890.jpg	NY	Left	No	1.17529899999499	0	517602	251
1011.99609375	2	decision	foodImageDisplay	3	125	5	foodImage.90	FOODEEG_Images\0890.jpg	NY	Left	No	1.17529899999499	0	518143	252
1014.05859375	1.17529899999499	decision	choicePhaseStart	3	125	5	foodImage.90	FOODEEG_Images\0890.jpg	NY	Left	No	1.17529899999499	0	519199	253
1015.224609375	0	decision	response	3	125	5	foodImage.90	FOODEEG_Images\0890.jpg	NY	Left	No	1.17529899999499	0	519796	234
1016.26953125	1	decision	trialStart	3	126	6	foodImage.6	FOODEEG_Images\0113.jpg	YN	Left	Yes	0.804659400018863	0	520331	251
1017.310546875	2	decision	foodImageDisplay	3	126	6	foodImage.6	FOODEEG_Images\0113.jpg	YN	Left	Yes	0.804659400018863	0	520864	252
1019.373046875	0.804659400018863	decision	choicePhaseStart	3	126	6	foodImage.6	FOODEEG_Images\0113.jpg	YN	Left	Yes	0.804659400018863	0	521920	253
1020.16796875	0	decision	response	3	126	6	foodImage.6	FOODEEG_Images\0113.jpg	YN	Left	Yes	0.804659400018863	0	522327	234
1021.2109375	1	taste	trialStart	3	127	7	foodImage.87	FOODEEG_Images\0873.jpg	YN	Left	Yes	0.823099999921396	0	522861	251
1022.267578125	2	taste	foodImageDisplay	3	127	7	foodImage.87	FOODEEG_Images\0873.jpg	YN	Left	Yes	0.823099999921396	0	523402	252
1024.330078125	0.823099999921396	taste	choicePhaseStart	3	127	7	foodImage.87	FOODEEG_Images\0873.jpg	YN	Left	Yes	0.823099999921396	0	524458	253
1025.14453125	0	taste	response	3	127	7	foodImage.87	FOODEEG_Images\0873.jpg	YN	Left	Yes	0.823099999921396	0	524875	234
1026.1875	1	taste	trialStart	3	128	8	foodImage.36	FOODEEG_Images\0352.jpg	YN	Right	No	1.28889309999067	0	525409	251
1027.2421875	2	taste	foodImageDisplay	3	128	8	foodImage.36	FOODEEG_Images\0352.jpg	YN	Right	No	1.28889309999067	0	525949	252
1029.3046875	1.28889309999067	taste	choicePhaseStart	3	128	8	foodImage.36	FOODEEG_Images\0352.jpg	YN	Right	No	1.28889309999067	0	527005	253
1030.583984375	0	taste	response	3	128	8	foodImage.36	FOODEEG_Images\0352.jpg	YN	Right	No	1.28889309999067	0	527660	235
1031.626953125	1	health	trialStart	3	129	9	foodImage.115	FOODEEG_Images\0923.jpg	NY	Left	No	0.770055899978615	0	528194	251
1032.666015625	2	health	foodImageDisplay	3	129	9	foodImage.115	FOODEEG_Images\0923.jpg	NY	Left	No	0.770055899978615	0	528726	252
1034.728515625	0.770055899978615	health	choicePhaseStart	3	129	9	foodImage.115	FOODEEG_Images\0923.jpg	NY	Left	No	0.770055899978615	0	529782	253
1035.48828125	0	health	response	3	129	9	foodImage.115	FOODEEG_Images\0923.jpg	NY	Left	No	0.770055899978615	0	530171	234
1036.529296875	1	taste	trialStart	3	130	10	foodImage.114	FOODEEG_Images\0922.jpg	NY	Left	No	0.681884499965236	0	530704	251
1037.568359375	2	taste	foodImageDisplay	3	130	10	foodImage.114	FOODEEG_Images\0922.jpg	NY	Left	No	0.681884499965236	0	531236	252
1039.630859375	0.681884499965236	taste	choicePhaseStart	3	130	10	foodImage.114	FOODEEG_Images\0922.jpg	NY	Left	No	0.681884499965236	0	532292	253
1040.3046875	0	taste	response	3	130	10	foodImage.114	FOODEEG_Images\0922.jpg	NY	Left	No	0.681884499965236	0	532637	234
1041.34765625	1	decision	trialStart	3	131	11	foodImage.51	FOODEEG_Images\0536.jpg	YN	Left	Yes	1.35592130001169	0	533171	251
1042.390625	2	decision	foodImageDisplay	3	131	11	foodImage.51	FOODEEG_Images\0536.jpg	YN	Left	Yes	1.35592130001169	0	533705	252
1044.453125	1.35592130001169	decision	choicePhaseStart	3	131	11	foodImage.51	FOODEEG_Images\0536.jpg	YN	Left	Yes	1.35592130001169	0	534761	253
1045.798828125	0	decision	response	3	131	11	foodImage.51	FOODEEG_Images\0536.jpg	YN	Left	Yes	1.35592130001169	0	535450	234
1046.84765625	1	taste	trialStart	3	132	12	foodImage.109	FOODEEG_Images\0917.jpg	YN	Right	No	0.72442600002978	0	535987	251
1047.88671875	2	taste	foodImageDisplay	3	132	12	foodImage.109	FOODEEG_Images\0917.jpg	YN	Right	No	0.72442600002978	0	536519	252
1049.94921875	0.72442600002978	taste	choicePhaseStart	3	132	12	foodImage.109	FOODEEG_Images\0917.jpg	YN	Right	No	0.72442600002978	0	537575	253
1050.6640625	0	taste	response	3	132	12	foodImage.109	FOODEEG_Images\0917.jpg	YN	Right	No	0.72442600002978	0	537941	235
1051.70703125	1	taste	trialStart	3	133	13	foodImage.65	FOODEEG_Images\0658.jpg	NY	Left	No	0.782130300067365	0	538475	251
1052.748046875	2	taste	foodImageDisplay	3	133	13	foodImage.65	FOODEEG_Images\0658.jpg	NY	Left	No	0.782130300067365	0	539008	252
1054.810546875	0.782130300067365	taste	choicePhaseStart	3	133	13	foodImage.65	FOODEEG_Images\0658.jpg	NY	Left	No	0.782130300067365	0	540064	253
1055.583984375	0	taste	response	3	133	13	foodImage.65	FOODEEG_Images\0658.jpg	NY	Left	No	0.782130300067365	0	540460	234
1056.626953125	1	decision	trialStart	3	134	14	foodImage.76	FOODEEG_Images\0766.jpg	NY	Right	Yes	1.01266479992773	0	540994	251
1057.669921875	2	decision	foodImageDisplay	3	134	14	foodImage.76	FOODEEG_Images\0766.jpg	NY	Right	Yes	1.01266479992773	0	541528	252
1059.732421875	1.01266479992773	decision	choicePhaseStart	3	134	14	foodImage.76	FOODEEG_Images\0766.jpg	NY	Right	Yes	1.01266479992773	0	542584	253
1060.734375	0	decision	response	3	134	14	foodImage.76	FOODEEG_Images\0766.jpg	NY	Right	Yes	1.01266479992773	0	543097	235
1061.77734375	1	taste	trialStart	3	135	15	foodImage.24	FOODEEG_Images\0250.jpg	NY	Right	Yes	2.89375410007779	0	543631	251
1062.8203125	2	taste	foodImageDisplay	3	135	15	foodImage.24	FOODEEG_Images\0250.jpg	NY	Right	Yes	2.89375410007779	0	544165	252
1064.8828125	2.89375410007779	taste	choicePhaseStart	3	135	15	foodImage.24	FOODEEG_Images\0250.jpg	NY	Right	Yes	2.89375410007779	0	545221	253
1067.767578125	0	taste	response	3	135	15	foodImage.24	FOODEEG_Images\0250.jpg	NY	Right	Yes	2.89375410007779	0	546698	235
1068.80859375	1	decision	trialStart	3	136	16	foodImage.105	FOODEEG_Images\0913.jpg	NY	Right	Yes	1.06645589997061	0	547231	251
1069.84765625	2	decision	foodImageDisplay	3	136	16	foodImage.105	FOODEEG_Images\0913.jpg	NY	Right	Yes	1.06645589997061	0	547763	252
1071.91015625	1.06645589997061	decision	choicePhaseStart	3	136	16	foodImage.105	FOODEEG_Images\0913.jpg	NY	Right	Yes	1.06645589997061	0	548819	253
1072.966796875	0	decision	response	3	136	16	foodImage.105	FOODEEG_Images\0913.jpg	NY	Right	Yes	1.06645589997061	0	549360	235
1074.009765625	1	health	trialStart	3	137	17	foodImage.45	FOODEEG_Images\0478.jpg	YN	Left	Yes	1.23841280001216	0	549894	251
1075.06640625	2	health	foodImageDisplay	3	137	17	foodImage.45	FOODEEG_Images\0478.jpg	YN	Left	Yes	1.23841280001216	0	550435	252
1077.12890625	1.23841280001216	health	choicePhaseStart	3	137	17	foodImage.45	FOODEEG_Images\0478.jpg	YN	Left	Yes	1.23841280001216	0	551491	253
1078.357421875	0	health	response	3	137	17	foodImage.45	FOODEEG_Images\0478.jpg	YN	Left	Yes	1.23841280001216	0	552120	234
1079.400390625	1	taste	trialStart	3	138	18	foodImage.70	FOODEEG_Images\0705.jpg	YN	Left	Yes	0.646492499974556	0	552654	251
1080.458984375	2	taste	foodImageDisplay	3	138	18	foodImage.70	FOODEEG_Images\0705.jpg	YN	Left	Yes	0.646492499974556	0	553196	252
1082.521484375	0.646492499974556	taste	choicePhaseStart	3	138	18	foodImage.70	FOODEEG_Images\0705.jpg	YN	Left	Yes	0.646492499974556	0	554252	253
1083.158203125	0	taste	response	3	138	18	foodImage.70	FOODEEG_Images\0705.jpg	YN	Left	Yes	0.646492499974556	0	554578	234
1084.201171875	1	taste	trialStart	3	139	19	foodImage.112	FOODEEG_Images\0920.jpg	NY	Left	No	0.583074599970132	0	555112	251
1085.240234375	2	taste	foodImageDisplay	3	139	19	foodImage.112	FOODEEG_Images\0920.jpg	NY	Left	No	0.583074599970132	0	555644	252
1087.302734375	0.583074599970132	taste	choicePhaseStart	3	139	19	foodImage.112	FOODEEG_Images\0920.jpg	NY	Left	No	0.583074599970132	0	556700	253
1087.87890625	0	taste	response	3	139	19	foodImage.112	FOODEEG_Images\0920.jpg	NY	Left	No	0.583074599970132	0	556995	234
1088.919921875	1	decision	trialStart	3	140	20	foodImage.101	FOODEEG_Images\0909.jpg	YN	Right	No	1.36173650005367	0	557528	251
1089.958984375	2	decision	foodImageDisplay	3	140	20	foodImage.101	FOODEEG_Images\0909.jpg	YN	Right	No	1.36173650005367	0	558060	252
1092.021484375	1.36173650005367	decision	choicePhaseStart	3	140	20	foodImage.101	FOODEEG_Images\0909.jpg	YN	Right	No	1.36173650005367	0	559116	253
1093.373046875	0	decision	response	3	140	20	foodImage.101	FOODEEG_Images\0909.jpg	YN	Right	No	1.36173650005367	0	559808	235
1094.41796875	1	decision	trialStart	3	141	21	foodImage.39	FOODEEG_Images\0367.jpg	YN	Left	Yes	0.638051199959591	0	560343	251
1095.45703125	2	decision	foodImageDisplay	3	141	21	foodImage.39	FOODEEG_Images\0367.jpg	YN	Left	Yes	0.638051199959591	0	560875	252
1097.51953125	0.638051199959591	decision	choicePhaseStart	3	141	21	foodImage.39	FOODEEG_Images\0367.jpg	YN	Left	Yes	0.638051199959591	0	561931	253
1098.150390625	0	decision	response	3	141	21	foodImage.39	FOODEEG_Images\0367.jpg	YN	Left	Yes	0.638051199959591	0	562254	234
1099.193359375	1	health	trialStart	3	142	22	foodImage.74	FOODEEG_Images\0752.jpg	YN	Left	Yes	0.804206999950111	0	562788	251
1100.236328125	2	health	foodImageDisplay	3	142	22	foodImage.74	FOODEEG_Images\0752.jpg	YN	Left	Yes	0.804206999950111	0	563322	252
1102.298828125	0.804206999950111	health	choicePhaseStart	3	142	22	foodImage.74	FOODEEG_Images\0752.jpg	YN	Left	Yes	0.804206999950111	0	564378	253
1103.09375	0	health	response	3	142	22	foodImage.74	FOODEEG_Images\0752.jpg	YN	Left	Yes	0.804206999950111	0	564785	234
1104.138671875	1	health	trialStart	3	143	23	foodImage.8	FOODEEG_Images\0136.jpg	NY	Left	No	2.53169870004058	0	565320	251
1105.1796875	2	health	foodImageDisplay	3	143	23	foodImage.8	FOODEEG_Images\0136.jpg	NY	Left	No	2.53169870004058	0	565853	252
1107.2421875	2.53169870004058	health	choicePhaseStart	3	143	23	foodImage.8	FOODEEG_Images\0136.jpg	NY	Left	No	2.53169870004058	0	566909	253
1109.765625	0	health	response	3	143	23	foodImage.8	FOODEEG_Images\0136.jpg	NY	Left	No	2.53169870004058	0	568201	234
1110.814453125	1	health	trialStart	3	144	24	foodImage.46	FOODEEG_Images\0479.jpg	NY	Right	Yes	0.774216999998316	0	568738	251
1111.873046875	2	health	foodImageDisplay	3	144	24	foodImage.46	FOODEEG_Images\0479.jpg	NY	Right	Yes	0.774216999998316	0	569280	252
1113.935546875	0.774216999998316	health	choicePhaseStart	3	144	24	foodImage.46	FOODEEG_Images\0479.jpg	NY	Right	Yes	0.774216999998316	0	570336	253
1114.701171875	0	health	response	3	144	24	foodImage.46	FOODEEG_Images\0479.jpg	NY	Right	Yes	0.774216999998316	0	570728	235
1115.744140625	1	health	trialStart	3	145	25	foodImage.18	FOODEEG_Images\0202.jpg	NY	Right	Yes	1.06212140002754	0	571262	251
1116.80078125	2	health	foodImageDisplay	3	145	25	foodImage.18	FOODEEG_Images\0202.jpg	NY	Right	Yes	1.06212140002754	0	571803	252
1118.86328125	1.06212140002754	health	choicePhaseStart	3	145	25	foodImage.18	FOODEEG_Images\0202.jpg	NY	Right	Yes	1.06212140002754	0	572859	253
1119.916015625	0	health	response	3	145	25	foodImage.18	FOODEEG_Images\0202.jpg	NY	Right	Yes	1.06212140002754	0	573398	235
1120.9609375	1	health	trialStart	3	146	26	foodImage.13	FOODEEG_Images\0183.jpg	YN	Right	No	0.869099700008519	0	573933	251
1122.001953125	2	health	foodImageDisplay	3	146	26	foodImage.13	FOODEEG_Images\0183.jpg	YN	Right	No	0.869099700008519	0	574466	252
1124.064453125	0.869099700008519	health	choicePhaseStart	3	146	26	foodImage.13	FOODEEG_Images\0183.jpg	YN	Right	No	0.869099700008519	0	575522	253
1124.923828125	0	health	response	3	146	26	foodImage.13	FOODEEG_Images\0183.jpg	YN	Right	No	0.869099700008519	0	575962	235
1125.96875	1	decision	trialStart	3	147	27	foodImage.1	FOODEEG_Images\0004.jpg	YN	Left	Yes	1.31003960000817	0	576497	251
1127.009765625	2	decision	foodImageDisplay	3	147	27	foodImage.1	FOODEEG_Images\0004.jpg	YN	Left	Yes	1.31003960000817	0	577030	252
1129.072265625	1.31003960000817	decision	choicePhaseStart	3	147	27	foodImage.1	FOODEEG_Images\0004.jpg	YN	Left	Yes	1.31003960000817	0	578086	253
1130.373046875	0	decision	response	3	147	27	foodImage.1	FOODEEG_Images\0004.jpg	YN	Left	Yes	1.31003960000817	0	578752	234
1131.416015625	1	taste	trialStart	3	148	28	foodImage.8	FOODEEG_Images\0136.jpg	NY	Right	Yes	1.076654399978	0	579286	251
1132.458984375	2	taste	foodImageDisplay	3	148	28	foodImage.8	FOODEEG_Images\0136.jpg	NY	Right	Yes	1.076654399978	0	579820	252
1134.51953125	1.076654399978	taste	choicePhaseStart	3	148	28	foodImage.8	FOODEEG_Images\0136.jpg	NY	Right	Yes	1.076654399978	0	580875	253
1135.587890625	0	taste	response	3	148	28	foodImage.8	FOODEEG_Images\0136.jpg	NY	Right	Yes	1.076654399978	0	581422	235
1136.62890625	1	health	trialStart	3	149	29	foodImage.35	FOODEEG_Images\0350.jpg	NY	Right	Yes	1.34716639993712	0	581955	251
1137.66796875	2	health	foodImageDisplay	3	149	29	foodImage.35	FOODEEG_Images\0350.jpg	NY	Right	Yes	1.34716639993712	0	582487	252
1139.73046875	1.34716639993712	health	choicePhaseStart	3	149	29	foodImage.35	FOODEEG_Images\0350.jpg	NY	Right	Yes	1.34716639993712	0	583543	253
1141.068359375	0	health	response	3	149	29	foodImage.35	FOODEEG_Images\0350.jpg	NY	Right	Yes	1.34716639993712	0	584228	235
1142.109375	1	decision	trialStart	3	150	30	foodImage.87	FOODEEG_Images\0873.jpg	NY	Right	Yes	1.03181080007926	0	584761	251
1143.16796875	2	decision	foodImageDisplay	3	150	30	foodImage.87	FOODEEG_Images\0873.jpg	NY	Right	Yes	1.03181080007926	0	585303	252
1145.23046875	1.03181080007926	decision	choicePhaseStart	3	150	30	foodImage.87	FOODEEG_Images\0873.jpg	NY	Right	Yes	1.03181080007926	0	586359	253
1146.251953125	0	decision	response	3	150	30	foodImage.87	FOODEEG_Images\0873.jpg	NY	Right	Yes	1.03181080007926	0	586882	235
1147.294921875	1	health	trialStart	3	151	31	foodImage.88	FOODEEG_Images\0878.jpg	NY	Left	No	0.863301200093701	0	587416	251
1148.349609375	2	health	foodImageDisplay	3	151	31	foodImage.88	FOODEEG_Images\0878.jpg	NY	Left	No	0.863301200093701	0	587956	252
1150.412109375	0.863301200093701	health	choicePhaseStart	3	151	31	foodImage.88	FOODEEG_Images\0878.jpg	NY	Left	No	0.863301200093701	0	589012	253
1151.267578125	0	health	response	3	151	31	foodImage.88	FOODEEG_Images\0878.jpg	NY	Left	No	0.863301200093701	0	589450	234
1152.310546875	1	health	trialStart	3	152	32	foodImage.17	FOODEEG_Images\0199.jpg	NY	Right	Yes	1.09186000004411	0	589984	251
1153.353515625	2	health	foodImageDisplay	3	152	32	foodImage.17	FOODEEG_Images\0199.jpg	NY	Right	Yes	1.09186000004411	0	590518	252
1155.416015625	1.09186000004411	health	choicePhaseStart	3	152	32	foodImage.17	FOODEEG_Images\0199.jpg	NY	Right	Yes	1.09186000004411	0	591574	253
1156.5	0	health	response	3	152	32	foodImage.17	FOODEEG_Images\0199.jpg	NY	Right	Yes	1.09186000004411	0	592129	235
1157.541015625	1	decision	trialStart	3	153	33	foodImage.8	FOODEEG_Images\0136.jpg	YN	Left	Yes	1.07012580009177	0	592662	251
1158.583984375	2	decision	foodImageDisplay	3	153	33	foodImage.8	FOODEEG_Images\0136.jpg	YN	Left	Yes	1.07012580009177	0	593196	252
1160.646484375	1.07012580009177	decision	choicePhaseStart	3	153	33	foodImage.8	FOODEEG_Images\0136.jpg	YN	Left	Yes	1.07012580009177	0	594252	253
1161.70703125	0	decision	response	3	153	33	foodImage.8	FOODEEG_Images\0136.jpg	YN	Left	Yes	1.07012580009177	0	594795	234
1162.75	1	health	trialStart	3	154	34	foodImage.53	FOODEEG_Images\0547.jpg	YN	Left	Yes	0.830207800026983	0	595329	251
1163.806640625	2	health	foodImageDisplay	3	154	34	foodImage.53	FOODEEG_Images\0547.jpg	YN	Left	Yes	0.830207800026983	0	595870	252
1165.869140625	0.830207800026983	health	choicePhaseStart	3	154	34	foodImage.53	FOODEEG_Images\0547.jpg	YN	Left	Yes	0.830207800026983	0	596926	253
1166.69140625	0	health	response	3	154	34	foodImage.53	FOODEEG_Images\0547.jpg	YN	Left	Yes	0.830207800026983	0	597347	234
1167.734375	1	taste	trialStart	3	155	35	foodImage.57	FOODEEG_Images\0587.jpg	YN	Left	Yes	1.13216479995754	0	597881	251
1168.77734375	2	taste	foodImageDisplay	3	155	35	foodImage.57	FOODEEG_Images\0587.jpg	YN	Left	Yes	1.13216479995754	0	598415	252
1170.83984375	1.13216479995754	taste	choicePhaseStart	3	155	35	foodImage.57	FOODEEG_Images\0587.jpg	YN	Left	Yes	1.13216479995754	0	599471	253
1171.962890625	0	taste	response	3	155	35	foodImage.57	FOODEEG_Images\0587.jpg	YN	Left	Yes	1.13216479995754	0	600046	234
1173.005859375	1	decision	trialStart	3	156	36	foodImage.41	FOODEEG_Images\0409.jpg	YN	Left	Yes	0.786628699977882	0	600580	251
1174.05078125	2	decision	foodImageDisplay	3	156	36	foodImage.41	FOODEEG_Images\0409.jpg	YN	Left	Yes	0.786628699977882	0	601115	252
1176.11328125	0.786628699977882	decision	choicePhaseStart	3	156	36	foodImage.41	FOODEEG_Images\0409.jpg	YN	Left	Yes	0.786628699977882	0	602171	253
1176.890625	0	decision	response	3	156	36	foodImage.41	FOODEEG_Images\0409.jpg	YN	Left	Yes	0.786628699977882	0	602569	234
1177.93359375	1	decision	trialStart	3	157	37	foodImage.11	FOODEEG_Images\0180.jpg	NY	Left	No	0.606518199900165	0	603103	251
1178.974609375	2	decision	foodImageDisplay	3	157	37	foodImage.11	FOODEEG_Images\0180.jpg	NY	Left	No	0.606518199900165	0	603636	252
1181.037109375	0.606518199900165	decision	choicePhaseStart	3	157	37	foodImage.11	FOODEEG_Images\0180.jpg	NY	Left	No	0.606518199900165	0	604692	253
1181.634765625	0	decision	response	3	157	37	foodImage.11	FOODEEG_Images\0180.jpg	NY	Left	No	0.606518199900165	0	604998	234
1182.677734375	1	health	trialStart	3	158	38	foodImage.72	FOODEEG_Images\0714.jpg	NY	Right	Yes	2.0215857999865	0	605532	251
1183.71875	2	health	foodImageDisplay	3	158	38	foodImage.72	FOODEEG_Images\0714.jpg	NY	Right	Yes	2.0215857999865	0	606065	252
1185.78125	2.0215857999865	health	choicePhaseStart	3	158	38	foodImage.72	FOODEEG_Images\0714.jpg	NY	Right	Yes	2.0215857999865	0	607121	253
1187.794921875	0	health	response	3	158	38	foodImage.72	FOODEEG_Images\0714.jpg	NY	Right	Yes	2.0215857999865	0	608152	235
1188.837890625	1	health	trialStart	3	159	39	foodImage.104	FOODEEG_Images\0912.jpg	NY	Left	No	0.673621300025843	0	608686	251
1189.875	2	health	foodImageDisplay	3	159	39	foodImage.104	FOODEEG_Images\0912.jpg	NY	Left	No	0.673621300025843	0	609217	252
1191.9375	0.673621300025843	health	choicePhaseStart	3	159	39	foodImage.104	FOODEEG_Images\0912.jpg	NY	Left	No	0.673621300025843	0	610273	253
1192.6015625	0	health	response	3	159	39	foodImage.104	FOODEEG_Images\0912.jpg	NY	Left	No	0.673621300025843	0	610613	234
1193.64453125	1	decision	trialStart	3	160	40	foodImage.29	FOODEEG_Images\0278.jpg	NY	Left	No	1.13416669995058	0	611147	251
1194.685546875	2	decision	foodImageDisplay	3	160	40	foodImage.29	FOODEEG_Images\0278.jpg	NY	Left	No	1.13416669995058	0	611680	252
1196.748046875	1.13416669995058	decision	choicePhaseStart	3	160	40	foodImage.29	FOODEEG_Images\0278.jpg	NY	Left	No	1.13416669995058	0	612736	253
1197.873046875	0	decision	response	3	160	40	foodImage.29	FOODEEG_Images\0278.jpg	NY	Left	No	1.13416669995058	0	613312	234
1198.91796875	1	taste	trialStart	3	161	41	foodImage.21	FOODEEG_Images\0234.jpg	YN	Left	Yes	2.0746009000577	0	613847	251
1199.9765625	2	taste	foodImageDisplay	3	161	41	foodImage.21	FOODEEG_Images\0234.jpg	YN	Left	Yes	2.0746009000577	0	614389	252
1202.0390625	2.0746009000577	taste	choicePhaseStart	3	161	41	foodImage.21	FOODEEG_Images\0234.jpg	YN	Left	Yes	2.0746009000577	0	615445	253
1204.10546875	0	taste	response	3	161	41	foodImage.21	FOODEEG_Images\0234.jpg	YN	Left	Yes	2.0746009000577	0	616503	234
1205.154296875	1	decision	trialStart	3	162	42	foodImage.66	FOODEEG_Images\0676.jpg	NY	Right	Yes	3.08722569991369	0	617040	251
1206.1953125	2	decision	foodImageDisplay	3	162	42	foodImage.66	FOODEEG_Images\0676.jpg	NY	Right	Yes	3.08722569991369	0	617573	252
1208.2578125	3.08722569991369	decision	choicePhaseStart	3	162	42	foodImage.66	FOODEEG_Images\0676.jpg	NY	Right	Yes	3.08722569991369	0	618629	253
1211.337890625	0	decision	response	3	162	42	foodImage.66	FOODEEG_Images\0676.jpg	NY	Right	Yes	3.08722569991369	0	620206	235
1212.380859375	1	taste	trialStart	3	163	43	foodImage.107	FOODEEG_Images\0915.jpg	YN	Right	No	1.01662379992194	0	620740	251
1213.419921875	2	taste	foodImageDisplay	3	163	43	foodImage.107	FOODEEG_Images\0915.jpg	YN	Right	No	1.01662379992194	0	621272	252
1215.48046875	1.01662379992194	taste	choicePhaseStart	3	163	43	foodImage.107	FOODEEG_Images\0915.jpg	YN	Right	No	1.01662379992194	0	622327	253
1216.48828125	0	taste	response	3	163	43	foodImage.107	FOODEEG_Images\0915.jpg	YN	Right	No	1.01662379992194	0	622843	235
1217.533203125	1	decision	trialStart	3	164	44	foodImage.36	FOODEEG_Images\0352.jpg	YN	Right	No	2.70821650000289	0	623378	251
1218.591796875	2	decision	foodImageDisplay	3	164	44	foodImage.36	FOODEEG_Images\0352.jpg	YN	Right	No	2.70821650000289	0	623920	252
1220.654296875	2.70821650000289	decision	choicePhaseStart	3	164	44	foodImage.36	FOODEEG_Images\0352.jpg	YN	Right	No	2.70821650000289	0	624976	253
1223.353515625	0	decision	response	3	164	44	foodImage.36	FOODEEG_Images\0352.jpg	YN	Right	No	2.70821650000289	0	626358	235
1224.396484375	1	taste	trialStart	3	165	45	foodImage.19	FOODEEG_Images\0225.jpg	YN	Right	No	0.724486300023273	0	626892	251
1225.439453125	2	taste	foodImageDisplay	3	165	45	foodImage.19	FOODEEG_Images\0225.jpg	YN	Right	No	0.724486300023273	0	627426	252
1227.501953125	0.724486300023273	taste	choicePhaseStart	3	165	45	foodImage.19	FOODEEG_Images\0225.jpg	YN	Right	No	0.724486300023273	0	628482	253
1228.216796875	0	taste	response	3	165	45	foodImage.19	FOODEEG_Images\0225.jpg	YN	Right	No	0.724486300023273	0	628848	235
1229.259765625	1	taste	trialStart	3	166	46	foodImage.30	FOODEEG_Images\0282.jpg	NY	Right	Yes	1.58893169998191	0	629382	251
1230.302734375	2	taste	foodImageDisplay	3	166	46	foodImage.30	FOODEEG_Images\0282.jpg	NY	Right	Yes	1.58893169998191	0	629916	252
1232.36328125	1.58893169998191	taste	choicePhaseStart	3	166	46	foodImage.30	FOODEEG_Images\0282.jpg	NY	Right	Yes	1.58893169998191	0	630971	253
1233.943359375	0	taste	response	3	166	46	foodImage.30	FOODEEG_Images\0282.jpg	NY	Right	Yes	1.58893169998191	0	631780	235
1234.98828125	1	taste	trialStart	3	167	47	foodImage.60	FOODEEG_Images\0614.jpg	NY	Left	No	1.38774709997233	0	632315	251
1236.046875	2	taste	foodImageDisplay	3	167	47	foodImage.60	FOODEEG_Images\0614.jpg	NY	Left	No	1.38774709997233	0	632857	252
1238.107421875	1.38774709997233	taste	choicePhaseStart	3	167	47	foodImage.60	FOODEEG_Images\0614.jpg	NY	Left	No	1.38774709997233	0	633912	253
1239.48828125	0	taste	response	3	167	47	foodImage.60	FOODEEG_Images\0614.jpg	NY	Left	No	1.38774709997233	0	634619	234
1240.533203125	1	taste	trialStart	3	168	48	foodImage.56	FOODEEG_Images\0586.jpg	NY	Left	No	0.858388900058344	0	635154	251
1241.576171875	2	taste	foodImageDisplay	3	168	48	foodImage.56	FOODEEG_Images\0586.jpg	NY	Left	No	0.858388900058344	0	635688	252
1243.638671875	0.858388900058344	taste	choicePhaseStart	3	168	48	foodImage.56	FOODEEG_Images\0586.jpg	NY	Left	No	0.858388900058344	0	636744	253
1244.48828125	0	taste	response	3	168	48	foodImage.56	FOODEEG_Images\0586.jpg	NY	Left	No	0.858388900058344	0	637179	234
1245.53125	1	decision	trialStart	3	169	49	foodImage.58	FOODEEG_Images\0605.jpg	NY	Left	No	0.884924500016496	0	637713	251
1246.58984375	2	decision	foodImageDisplay	3	169	49	foodImage.58	FOODEEG_Images\0605.jpg	NY	Left	No	0.884924500016496	0	638255	252
1248.65234375	0.884924500016496	decision	choicePhaseStart	3	169	49	foodImage.58	FOODEEG_Images\0605.jpg	NY	Left	No	0.884924500016496	0	639311	253
1249.52734375	0	decision	response	3	169	49	foodImage.58	FOODEEG_Images\0605.jpg	NY	Left	No	0.884924500016496	0	639759	234
1250.5703125	1	taste	trialStart	3	170	50	foodImage.41	FOODEEG_Images\0409.jpg	YN	Left	Yes	1.1470819999231	0	640293	251
1251.615234375	2	taste	foodImageDisplay	3	170	50	foodImage.41	FOODEEG_Images\0409.jpg	YN	Left	Yes	1.1470819999231	0	640828	252
1253.677734375	1.1470819999231	taste	choicePhaseStart	3	170	50	foodImage.41	FOODEEG_Images\0409.jpg	YN	Left	Yes	1.1470819999231	0	641884	253
1254.814453125	0	taste	response	3	170	50	foodImage.41	FOODEEG_Images\0409.jpg	YN	Left	Yes	1.1470819999231	0	642466	234
1255.859375	1	decision	trialStart	3	171	51	foodImage.55	FOODEEG_Images\0567.jpg	NY	Left	No	1.39656470005866	0	643001	251
1256.916015625	2	decision	foodImageDisplay	3	171	51	foodImage.55	FOODEEG_Images\0567.jpg	NY	Left	No	1.39656470005866	0	643542	252
1258.978515625	1.39656470005866	decision	choicePhaseStart	3	171	51	foodImage.55	FOODEEG_Images\0567.jpg	NY	Left	No	1.39656470005866	0	644598	253
1260.3671875	0	decision	response	3	171	51	foodImage.55	FOODEEG_Images\0567.jpg	NY	Left	No	1.39656470005866	0	645309	234
1261.408203125	1	decision	trialStart	3	172	52	foodImage.71	FOODEEG_Images\0713.jpg	NY	Left	No	1.82304679998197	0	645842	251
1262.451171875	2	decision	foodImageDisplay	3	172	52	foodImage.71	FOODEEG_Images\0713.jpg	NY	Left	No	1.82304679998197	0	646376	252
1264.513671875	1.82304679998197	decision	choicePhaseStart	3	172	52	foodImage.71	FOODEEG_Images\0713.jpg	NY	Left	No	1.82304679998197	0	647432	253
1266.326171875	0	decision	response	3	172	52	foodImage.71	FOODEEG_Images\0713.jpg	NY	Left	No	1.82304679998197	0	648360	234
1267.37109375	1	decision	trialStart	3	173	53	foodImage.23	FOODEEG_Images\0244.jpg	YN	Left	Yes	1.34384339989629	0	648895	251
1268.41015625	2	decision	foodImageDisplay	3	173	53	foodImage.23	FOODEEG_Images\0244.jpg	YN	Left	Yes	1.34384339989629	0	649427	252
1270.47265625	1.34384339989629	decision	choicePhaseStart	3	173	53	foodImage.23	FOODEEG_Images\0244.jpg	YN	Left	Yes	1.34384339989629	0	650483	253
1271.806640625	0	decision	response	3	173	53	foodImage.23	FOODEEG_Images\0244.jpg	YN	Left	Yes	1.34384339989629	0	651166	234
1272.849609375	1	health	trialStart	3	174	54	foodImage.33	FOODEEG_Images\0329.jpg	NY	Right	Yes	1.30984379991423	0	651700	251
1273.890625	2	health	foodImageDisplay	3	174	54	foodImage.33	FOODEEG_Images\0329.jpg	NY	Right	Yes	1.30984379991423	0	652233	252
1275.953125	1.30984379991423	health	choicePhaseStart	3	174	54	foodImage.33	FOODEEG_Images\0329.jpg	NY	Right	Yes	1.30984379991423	0	653289	253
1277.25390625	0	health	response	3	174	54	foodImage.33	FOODEEG_Images\0329.jpg	NY	Right	Yes	1.30984379991423	0	653955	235
1278.298828125	1	health	trialStart	3	175	55	foodImage.44	FOODEEG_Images\0459.jpg	YN	Left	Yes	0.943072100053541	0	654490	251
1279.34375	2	health	foodImageDisplay	3	175	55	foodImage.44	FOODEEG_Images\0459.jpg	YN	Left	Yes	0.943072100053541	0	655025	252
1281.40625	0.943072100053541	health	choicePhaseStart	3	175	55	foodImage.44	FOODEEG_Images\0459.jpg	YN	Left	Yes	0.943072100053541	0	656081	253
1282.341796875	0	health	response	3	175	55	foodImage.44	FOODEEG_Images\0459.jpg	YN	Left	Yes	0.943072100053541	0	656560	234
1283.384765625	1	decision	trialStart	3	176	56	foodImage.91	FOODEEG_Images\0896.jpg	YN	Left	Yes	1.44927480001934	0	657094	251
1284.44140625	2	decision	foodImageDisplay	3	176	56	foodImage.91	FOODEEG_Images\0896.jpg	YN	Left	Yes	1.44927480001934	0	657635	252
1286.50390625	1.44927480001934	decision	choicePhaseStart	3	176	56	foodImage.91	FOODEEG_Images\0896.jpg	YN	Left	Yes	1.44927480001934	0	658691	253
1287.94140625	0	decision	response	3	176	56	foodImage.91	FOODEEG_Images\0896.jpg	YN	Left	Yes	1.44927480001934	0	659427	234
1288.984375	1	decision	trialStart	3	177	57	foodImage.114	FOODEEG_Images\0922.jpg	YN	Right	No	0.936404300038703	0	659961	251
1290.0234375	2	decision	foodImageDisplay	3	177	57	foodImage.114	FOODEEG_Images\0922.jpg	YN	Right	No	0.936404300038703	0	660493	252
1292.0859375	0.936404300038703	decision	choicePhaseStart	3	177	57	foodImage.114	FOODEEG_Images\0922.jpg	YN	Right	No	0.936404300038703	0	661549	253
1293.013671875	0	decision	response	3	177	57	foodImage.114	FOODEEG_Images\0922.jpg	YN	Right	No	0.936404300038703	0	662024	235
1294.056640625	1	decision	trialStart	3	178	58	foodImage.7	FOODEEG_Images\0116.jpg	YN	Left	Yes	1.07877020002343	0	662558	251
1295.09765625	2	decision	foodImageDisplay	3	178	58	foodImage.7	FOODEEG_Images\0116.jpg	YN	Left	Yes	1.07877020002343	0	663091	252
1297.16015625	1.07877020002343	decision	choicePhaseStart	3	178	58	foodImage.7	FOODEEG_Images\0116.jpg	YN	Left	Yes	1.07877020002343	0	664147	253
1298.23046875	0	decision	response	3	178	58	foodImage.7	FOODEEG_Images\0116.jpg	YN	Left	Yes	1.07877020002343	0	664695	234
1299.2734375	1	decision	trialStart	3	179	59	foodImage.100	FOODEEG_Images\0908.jpg	YN	Right	No	1.44958800007589	0	665229	251
1300.310546875	2	decision	foodImageDisplay	3	179	59	foodImage.100	FOODEEG_Images\0908.jpg	YN	Right	No	1.44958800007589	0	665760	252
1302.373046875	1.44958800007589	decision	choicePhaseStart	3	179	59	foodImage.100	FOODEEG_Images\0908.jpg	YN	Right	No	1.44958800007589	0	666816	253
1303.814453125	0	decision	response	3	179	59	foodImage.100	FOODEEG_Images\0908.jpg	YN	Right	No	1.44958800007589	0	667554	235
1304.857421875	1	health	trialStart	3	180	60	foodImage.92	FOODEEG_Images\0900.jpg	YN	Right	No	1.69753820006736	0	668088	251
1305.89453125	2	health	foodImageDisplay	3	180	60	foodImage.92	FOODEEG_Images\0900.jpg	YN	Right	No	1.69753820006736	0	668619	252
1307.95703125	1.69753820006736	health	choicePhaseStart	3	180	60	foodImage.92	FOODEEG_Images\0900.jpg	YN	Right	No	1.69753820006736	0	669675	253
1309.64453125	0	health	response	3	180	60	foodImage.92	FOODEEG_Images\0900.jpg	YN	Right	No	1.69753820006736	0	670539	235
1311.6875	20.9296875	n/a	blockEnd	n/a	n/a	n/a	n/a	n/a	n/a	n/a	n/a	n/a	n/a	671585	254
1332.6171875	2	n/a	blockStart	4	n/a	n/a	n/a	n/a	n/a	n/a	n/a	n/a	n/a	682301	250
1334.650390625	1	decision	trialStart	4	181	1	foodImage.17	FOODEEG_Images\0199.jpg	YN	Left	Yes	0.827471600030549	0	683342	251
1335.69140625	2	decision	foodImageDisplay	4	181	1	foodImage.17	FOODEEG_Images\0199.jpg	YN	Left	Yes	0.827471600030549	0	683875	252
1337.75390625	0.827471600030549	decision	choicePhaseStart	4	181	1	foodImage.17	FOODEEG_Images\0199.jpg	YN	Left	Yes	0.827471600030549	0	684931	253
1338.572265625	0	decision	response	4	181	1	foodImage.17	FOODEEG_Images\0199.jpg	YN	Left	Yes	0.827471600030549	0	685350	234
1339.6171875	1	health	trialStart	4	182	2	foodImage.113	FOODEEG_Images\0921.jpg	YN	Right	No	0.870740599930286	0	685885	251
1340.654296875	2	health	foodImageDisplay	4	182	2	foodImage.113	FOODEEG_Images\0921.jpg	YN	Right	No	0.870740599930286	0	686416	252
1342.716796875	0.870740599930286	health	choicePhaseStart	4	182	2	foodImage.113	FOODEEG_Images\0921.jpg	YN	Right	No	0.870740599930286	0	687472	253
1343.580078125	0	health	response	4	182	2	foodImage.113	FOODEEG_Images\0921.jpg	YN	Right	No	0.870740599930286	0	687914	235
1344.623046875	1	decision	trialStart	4	183	3	foodImage.103	FOODEEG_Images\0911.jpg	YN	Right	No	0.633567399927415	0	688448	251
1345.66015625	2	decision	foodImageDisplay	4	183	3	foodImage.103	FOODEEG_Images\0911.jpg	YN	Right	No	0.633567399927415	0	688979	252
1347.72265625	0.633567399927415	decision	choicePhaseStart	4	183	3	foodImage.103	FOODEEG_Images\0911.jpg	YN	Right	No	0.633567399927415	0	690035	253
1348.34765625	0	decision	response	4	183	3	foodImage.103	FOODEEG_Images\0911.jpg	YN	Right	No	0.633567399927415	0	690355	235
1349.390625	1	health	trialStart	4	184	4	foodImage.14	FOODEEG_Images\0188.jpg	YN	Left	Yes	1.7554651000537	0	690889	251
1350.44921875	2	health	foodImageDisplay	4	184	4	foodImage.14	FOODEEG_Images\0188.jpg	YN	Left	Yes	1.7554651000537	0	691431	252
1352.51171875	1.7554651000537	health	choicePhaseStart	4	184	4	foodImage.14	FOODEEG_Images\0188.jpg	YN	Left	Yes	1.7554651000537	0	692487	253
1354.259765625	0	health	response	4	184	4	foodImage.14	FOODEEG_Images\0188.jpg	YN	Left	Yes	1.7554651000537	0	693382	234
1355.302734375	1	health	trialStart	4	185	5	foodImage.70	FOODEEG_Images\0705.jpg	NY	Right	Yes	0.662165299989283	0	693916	251
1356.359375	2	health	foodImageDisplay	4	185	5	foodImage.70	FOODEEG_Images\0705.jpg	NY	Right	Yes	0.662165299989283	0	694457	252
1358.421875	0.662165299989283	health	choicePhaseStart	4	185	5	foodImage.70	FOODEEG_Images\0705.jpg	NY	Right	Yes	0.662165299989283	0	695513	253
1359.076171875	0	health	response	4	185	5	foodImage.70	FOODEEG_Images\0705.jpg	NY	Right	Yes	0.662165299989283	0	695848	235
1360.119140625	1	health	trialStart	4	186	6	foodImage.38	FOODEEG_Images\0365.jpg	NY	Right	Yes	0.839868900016882	0	696382	251
1361.158203125	2	health	foodImageDisplay	4	186	6	foodImage.38	FOODEEG_Images\0365.jpg	NY	Right	Yes	0.839868900016882	0	696914	252
1363.21875	0.839868900016882	health	choicePhaseStart	4	186	6	foodImage.38	FOODEEG_Images\0365.jpg	NY	Right	Yes	0.839868900016882	0	697969	253
1364.05078125	0	health	response	4	186	6	foodImage.38	FOODEEG_Images\0365.jpg	NY	Right	Yes	0.839868900016882	0	698395	235
1365.09375	1	taste	trialStart	4	187	7	foodImage.5	FOODEEG_Images\0107.jpg	NY	Right	Yes	1.06930799991824	0	698929	251
1366.15234375	2	taste	foodImageDisplay	4	187	7	foodImage.5	FOODEEG_Images\0107.jpg	NY	Right	Yes	1.06930799991824	0	699471	252
1368.21484375	1.06930799991824	taste	choicePhaseStart	4	187	7	foodImage.5	FOODEEG_Images\0107.jpg	NY	Right	Yes	1.06930799991824	0	700527	253
1369.275390625	0	taste	response	4	187	7	foodImage.5	FOODEEG_Images\0107.jpg	NY	Right	Yes	1.06930799991824	0	701070	235
1370.32421875	1	decision	trialStart	4	188	8	foodImage.65	FOODEEG_Images\0658.jpg	NY	Left	No	0.999991100048646	0	701607	251
1371.365234375	2	decision	foodImageDisplay	4	188	8	foodImage.65	FOODEEG_Images\0658.jpg	NY	Left	No	0.999991100048646	0	702140	252
1373.427734375	0.999991100048646	decision	choicePhaseStart	4	188	8	foodImage.65	FOODEEG_Images\0658.jpg	NY	Left	No	0.999991100048646	0	703196	253
1374.41796875	0	decision	response	4	188	8	foodImage.65	FOODEEG_Images\0658.jpg	NY	Left	No	0.999991100048646	0	703703	234
1375.462890625	1	taste	trialStart	4	189	9	foodImage.43	FOODEEG_Images\0445.jpg	NY	Right	Yes	1.90125840005931	0	704238	251
1376.51953125	2	taste	foodImageDisplay	4	189	9	foodImage.43	FOODEEG_Images\0445.jpg	NY	Right	Yes	1.90125840005931	0	704779	252
1378.58203125	1.90125840005931	taste	choicePhaseStart	4	189	9	foodImage.43	FOODEEG_Images\0445.jpg	NY	Right	Yes	1.90125840005931	0	705835	253
1380.474609375	0	taste	response	4	189	9	foodImage.43	FOODEEG_Images\0445.jpg	NY	Right	Yes	1.90125840005931	0	706804	235
1381.517578125	1	decision	trialStart	4	190	10	foodImage.48	FOODEEG_Images\0494.jpg	YN	Right	No	1.47648459998891	0	707338	251
1382.55859375	2	decision	foodImageDisplay	4	190	10	foodImage.48	FOODEEG_Images\0494.jpg	YN	Right	No	1.47648459998891	0	707871	252
1384.623046875	1.47648459998891	decision	choicePhaseStart	4	190	10	foodImage.48	FOODEEG_Images\0494.jpg	YN	Right	No	1.47648459998891	0	708928	253
1386.08984375	0	decision	response	4	190	10	foodImage.48	FOODEEG_Images\0494.jpg	YN	Right	No	1.47648459998891	0	709679	235
1387.134765625	1	taste	trialStart	4	191	11	foodImage.4	FOODEEG_Images\0065.jpg	NY	Right	Yes	1.21150449989364	0	710214	251
1388.193359375	2	taste	foodImageDisplay	4	191	11	foodImage.4	FOODEEG_Images\0065.jpg	NY	Right	Yes	1.21150449989364	0	710756	252
1390.255859375	1.21150449989364	taste	choicePhaseStart	4	191	11	foodImage.4	FOODEEG_Images\0065.jpg	NY	Right	Yes	1.21150449989364	0	711812	253
1391.458984375	0	taste	response	4	191	11	foodImage.4	FOODEEG_Images\0065.jpg	NY	Right	Yes	1.21150449989364	0	712428	235
1392.5	1	taste	trialStart	4	192	12	foodImage.104	FOODEEG_Images\0912.jpg	YN	Left	Yes	1.65793019998819	0	712961	251
1393.5390625	2	taste	foodImageDisplay	4	192	12	foodImage.104	FOODEEG_Images\0912.jpg	YN	Left	Yes	1.65793019998819	0	713493	252
1395.599609375	1.65793019998819	taste	choicePhaseStart	4	192	12	foodImage.104	FOODEEG_Images\0912.jpg	YN	Left	Yes	1.65793019998819	0	714548	253
1397.25	0	taste	response	4	192	12	foodImage.104	FOODEEG_Images\0912.jpg	YN	Left	Yes	1.65793019998819	0	715393	234
1398.296875	1	decision	trialStart	4	193	13	foodImage.44	FOODEEG_Images\0459.jpg	YN	Left	Yes	1.03677160001826	0	715929	251
1399.34375	2	decision	foodImageDisplay	4	193	13	foodImage.44	FOODEEG_Images\0459.jpg	YN	Left	Yes	1.03677160001826	0	716465	252
1401.40625	1.03677160001826	decision	choicePhaseStart	4	193	13	foodImage.44	FOODEEG_Images\0459.jpg	YN	Left	Yes	1.03677160001826	0	717521	253
1402.43359375	0	decision	response	4	193	13	foodImage.44	FOODEEG_Images\0459.jpg	YN	Left	Yes	1.03677160001826	0	718047	234
1403.4765625	1	taste	trialStart	4	194	14	foodImage.13	FOODEEG_Images\0183.jpg	NY	Right	Yes	1.93511489999946	0	718581	251
1404.5234375	2	taste	foodImageDisplay	4	194	14	foodImage.13	FOODEEG_Images\0183.jpg	NY	Right	Yes	1.93511489999946	0	719117	252
1406.5859375	1.93511489999946	taste	choicePhaseStart	4	194	14	foodImage.13	FOODEEG_Images\0183.jpg	NY	Right	Yes	1.93511489999946	0	720173	253
1408.513671875	0	taste	response	4	194	14	foodImage.13	FOODEEG_Images\0183.jpg	NY	Right	Yes	1.93511489999946	0	721160	235
