onset	duration	trial_type	event_type	block	trial_total	trial_in_block	food_image_code	food_image_path	button_position	resp_position	resp_choice	choice_rt	resp_too_slow	sample	trigger
366.736328125	2	n/a	blockStart	1	n/a	n/a	n/a	n/a	n/a	n/a	n/a	n/a	n/a	187770	250
368.7734375	1	taste	trialStart	1	1	1	foodImage.59	FOODEEG_Images\0607.jpg	NY	Left	No	3.21886999998242	0	188813	251
369.828125	2	taste	foodImageDisplay	1	1	1	foodImage.59	FOODEEG_Images\0607.jpg	NY	Left	No	3.21886999998242	0	189353	252
371.892578125	3.21886999998242	taste	choicePhaseStart	1	1	1	foodImage.59	FOODEEG_Images\0607.jpg	NY	Left	No	3.21886999998242	0	190410	253
375.103515625	0	taste	response	1	1	1	foodImage.59	FOODEEG_Images\0607.jpg	NY	Left	No	3.21886999998242	0	192054	234
376.189453125	1	decision	trialStart	1	2	2	foodImage.34	FOODEEG_Images\0339.jpg	YN	Left	Yes	1.1318489999976	0	192610	251
377.248046875	2	decision	foodImageDisplay	1	2	2	foodImage.34	FOODEEG_Images\0339.jpg	YN	Left	Yes	1.1318489999976	0	193152	252
379.3125	1.1318489999976	decision	choicePhaseStart	1	2	2	foodImage.34	FOODEEG_Images\0339.jpg	YN	Left	Yes	1.1318489999976	0	194209	253
380.439453125	0	decision	response	1	2	2	foodImage.34	FOODEEG_Images\0339.jpg	YN	Left	Yes	1.1318489999976	0	194786	234
381.5	1	taste	trialStart	1	3	3	foodImage.98	FOODEEG_Images\0906.jpg	NY	Right	Yes	2.48029370000586	0	195329	251
382.5390625	2	taste	foodImageDisplay	1	3	3	foodImage.98	FOODEEG_Images\0906.jpg	NY	Right	Yes	2.48029370000586	0	195861	252
384.607421875	2.48029370000586	taste	choicePhaseStart	1	3	3	foodImage.98	FOODEEG_Images\0906.jpg	NY	Right	Yes	2.48029370000586	0	196920	253
387.078125	0	taste	response	1	3	3	foodImage.98	FOODEEG_Images\0906.jpg	NY	Right	Yes	2.48029370000586	0	198185	235
388.12109375	1	decision	trialStart	1	4	4	foodImage.52	FOODEEG_Images\0539.jpg	NY	Right	Yes	1.20779210003093	0	198719	251
389.177734375	2	decision	foodImageDisplay	1	4	4	foodImage.52	FOODEEG_Images\0539.jpg	NY	Right	Yes	1.20779210003093	0	199260	252
391.240234375	1.20779210003093	decision	choicePhaseStart	1	4	4	foodImage.52	FOODEEG_Images\0539.jpg	NY	Right	Yes	1.20779210003093	0	200316	253
392.439453125	0	decision	response	1	4	4	foodImage.52	FOODEEG_Images\0539.jpg	NY	Right	Yes	1.20779210003093	0	200930	235
393.484375	1	decision	trialStart	1	5	5	foodImage.82	FOODEEG_Images\0805.jpg	YN	Left	Yes	0.908143900102004	0	201465	251
394.544921875	2	decision	foodImageDisplay	1	5	5	foodImage.82	FOODEEG_Images\0805.jpg	YN	Left	Yes	0.908143900102004	0	202008	252
396.611328125	0.908143900102004	decision	choicePhaseStart	1	5	5	foodImage.82	FOODEEG_Images\0805.jpg	YN	Left	Yes	0.908143900102004	0	203066	253
397.51171875	0	decision	response	1	5	5	foodImage.82	FOODEEG_Images\0805.jpg	YN	Left	Yes	0.908143900102004	0	203527	234
398.5625	1	decision	trialStart	1	6	6	foodImage.6	FOODEEG_Images\0113.jpg	YN	Right	No	1.81945819989778	0	204065	251
399.60546875	2	decision	foodImageDisplay	1	6	6	foodImage.6	FOODEEG_Images\0113.jpg	YN	Right	No	1.81945819989778	0	204599	252
401.673828125	1.81945819989778	decision	choicePhaseStart	1	6	6	foodImage.6	FOODEEG_Images\0113.jpg	YN	Right	No	1.81945819989778	0	205658	253
403.486328125	0	decision	response	1	6	6	foodImage.6	FOODEEG_Images\0113.jpg	YN	Right	No	1.81945819989778	0	206586	235
404.53125	1	taste	trialStart	1	7	7	foodImage.22	FOODEEG_Images\0236.jpg	NY	Right	Yes	1.63499920000322	0	207121	251
405.572265625	2	taste	foodImageDisplay	1	7	7	foodImage.22	FOODEEG_Images\0236.jpg	NY	Right	Yes	1.63499920000322	0	207654	252
407.634765625	1.63499920000322	taste	choicePhaseStart	1	7	7	foodImage.22	FOODEEG_Images\0236.jpg	NY	Right	Yes	1.63499920000322	0	208710	253
409.26171875	0	taste	response	1	7	7	foodImage.22	FOODEEG_Images\0236.jpg	NY	Right	Yes	1.63499920000322	0	209543	235
410.3046875	1	health	trialStart	1	8	8	foodImage.28	FOODEEG_Images\0273.jpg	NY	Right	Yes	1.12530749989673	0	210077	251
411.345703125	2	health	foodImageDisplay	1	8	8	foodImage.28	FOODEEG_Images\0273.jpg	NY	Right	Yes	1.12530749989673	0	210610	252
413.408203125	1.12530749989673	health	choicePhaseStart	1	8	8	foodImage.28	FOODEEG_Images\0273.jpg	NY	Right	Yes	1.12530749989673	0	211666	253
414.52734375	0	health	response	1	8	8	foodImage.28	FOODEEG_Images\0273.jpg	NY	Right	Yes	1.12530749989673	0	212239	235
415.572265625	1	taste	trialStart	1	9	9	foodImage.118	FOODEEG_Images\0926.jpg	YN	Left	Yes	1.08420759998262	0	212774	251
416.611328125	2	taste	foodImageDisplay	1	9	9	foodImage.118	FOODEEG_Images\0926.jpg	YN	Left	Yes	1.08420759998262	0	213306	252
418.673828125	1.08420759998262	taste	choicePhaseStart	1	9	9	foodImage.118	FOODEEG_Images\0926.jpg	YN	Left	Yes	1.08420759998262	0	214362	253
419.75	0	taste	response	1	9	9	foodImage.118	FOODEEG_Images\0926.jpg	YN	Left	Yes	1.08420759998262	0	214913	234
420.791015625	1	health	trialStart	1	10	10	foodImage.90	FOODEEG_Images\0890.jpg	YN	Left	Yes	1.15627779997885	0	215446	251
421.849609375	2	health	foodImageDisplay	1	10	10	foodImage.90	FOODEEG_Images\0890.jpg	YN	Left	Yes	1.15627779997885	0	215988	252
423.912109375	1.15627779997885	health	choicePhaseStart	1	10	10	foodImage.90	FOODEEG_Images\0890.jpg	YN	Left	Yes	1.15627779997885	0	217044	253
425.0625	0	health	response	1	10	10	foodImage.90	FOODEEG_Images\0890.jpg	YN	Left	Yes	1.15627779997885	0	217633	234
426.10546875	1	health	trialStart	1	11	11	foodImage.83	FOODEEG_Images\0827.jpg	NY	Right	Yes	1.05081030004658	0	218167	251
427.1640625	2	health	foodImageDisplay	1	11	11	foodImage.83	FOODEEG_Images\0827.jpg	NY	Right	Yes	1.05081030004658	0	218709	252
429.2265625	1.05081030004658	health	choicePhaseStart	1	11	11	foodImage.83	FOODEEG_Images\0827.jpg	NY	Right	Yes	1.05081030004658	0	219765	253
430.26953125	0	health	response	1	11	11	foodImage.83	FOODEEG_Images\0827.jpg	NY	Right	Yes	1.05081030004658	0	220299	235
431.310546875	1	decision	trialStart	1	12	12	foodImage.103	FOODEEG_Images\0911.jpg	YN	Left	Yes	0.993991199880838	0	220832	251
432.34765625	2	decision	foodImageDisplay	1	12	12	foodImage.103	FOODEEG_Images\0911.jpg	YN	Left	Yes	0.993991199880838	0	221363	252
434.412109375	0.993991199880838	decision	choicePhaseStart	1	12	12	foodImage.103	FOODEEG_Images\0911.jpg	YN	Left	Yes	0.993991199880838	0	222420	253
435.396484375	0	decision	response	1	12	12	foodImage.103	FOODEEG_Images\0911.jpg	YN	Left	Yes	0.993991199880838	0	222924	234
436.4375	1	taste	trialStart	1	13	13	foodImage.35	FOODEEG_Images\0350.jpg	YN	Left	Yes	0.744768799981102	0	223457	251
437.474609375	2	taste	foodImageDisplay	1	13	13	foodImage.35	FOODEEG_Images\0350.jpg	YN	Left	Yes	0.744768799981102	0	223988	252
439.541015625	0.744768799981102	taste	choicePhaseStart	1	13	13	foodImage.35	FOODEEG_Images\0350.jpg	YN	Left	Yes	0.744768799981102	0	225046	253
440.27734375	0	taste	response	1	13	13	foodImage.35	FOODEEG_Images\0350.jpg	YN	Left	Yes	0.744768799981102	0	225423	234
441.318359375	1	health	trialStart	1	14	14	foodImage.102	FOODEEG_Images\0910.jpg	NY	Right	Yes	1.16344840009697	0	225956	251
442.357421875	2	health	foodImageDisplay	1	14	14	foodImage.102	FOODEEG_Images\0910.jpg	NY	Right	Yes	1.16344840009697	0	226488	252
444.41796875	1.16344840009697	health	choicePhaseStart	1	14	14	foodImage.102	FOODEEG_Images\0910.jpg	NY	Right	Yes	1.16344840009697	0	227543	253
445.572265625	0	health	response	1	14	14	foodImage.102	FOODEEG_Images\0910.jpg	NY	Right	Yes	1.16344840009697	0	228134	235
446.615234375	1	decision	trialStart	1	15	15	foodImage.55	FOODEEG_Images\0567.jpg	YN	Left	Yes	0.950808800058439	0	228668	251
447.6875	2	decision	foodImageDisplay	1	15	15	foodImage.55	FOODEEG_Images\0567.jpg	YN	Left	Yes	0.950808800058439	0	229217	252
449.751953125	0.950808800058439	decision	choicePhaseStart	1	15	15	foodImage.55	FOODEEG_Images\0567.jpg	YN	Left	Yes	0.950808800058439	0	230274	253
450.69140625	0	decision	response	1	15	15	foodImage.55	FOODEEG_Images\0567.jpg	YN	Left	Yes	0.950808800058439	0	230755	234
451.734375	1	health	trialStart	1	16	16	foodImage.98	FOODEEG_Images\0906.jpg	YN	Left	Yes	2.17557419999503	0	231289	251
452.7734375	2	health	foodImageDisplay	1	16	16	foodImage.98	FOODEEG_Images\0906.jpg	YN	Left	Yes	2.17557419999503	0	231821	252
454.837890625	2.17557419999503	health	choicePhaseStart	1	16	16	foodImage.98	FOODEEG_Images\0906.jpg	YN	Left	Yes	2.17557419999503	0	232878	253
457.00390625	0	health	response	1	16	16	foodImage.98	FOODEEG_Images\0906.jpg	YN	Left	Yes	2.17557419999503	0	233987	234
458.048828125	1	decision	trialStart	1	17	17	foodImage.28	FOODEEG_Images\0273.jpg	NY	Right	Yes	1.2268453000579	0	234522	251
459.103515625	2	decision	foodImageDisplay	1	17	17	foodImage.28	FOODEEG_Images\0273.jpg	NY	Right	Yes	1.2268453000579	0	235062	252
461.169921875	1.2268453000579	decision	choicePhaseStart	1	17	17	foodImage.28	FOODEEG_Images\0273.jpg	NY	Right	Yes	1.2268453000579	0	236120	253
462.388671875	0	decision	response	1	17	17	foodImage.28	FOODEEG_Images\0273.jpg	NY	Right	Yes	1.2268453000579	0	236744	235
463.431640625	1	decision	trialStart	1	18	18	foodImage.96	FOODEEG_Images\0904.jpg	NY	Right	Yes	2.25853900006041	0	237278	251
464.46875	2	decision	foodImageDisplay	1	18	18	foodImage.96	FOODEEG_Images\0904.jpg	NY	Right	Yes	2.25853900006041	0	237809	252
466.53125	2.25853900006041	decision	choicePhaseStart	1	18	18	foodImage.96	FOODEEG_Images\0904.jpg	NY	Right	Yes	2.25853900006041	0	238865	253
468.779296875	0	decision	response	1	18	18	foodImage.96	FOODEEG_Images\0904.jpg	NY	Right	Yes	2.25853900006041	0	240016	235
469.822265625	1	taste	trialStart	1	19	19	foodImage.52	FOODEEG_Images\0539.jpg	NY	Right	Yes	1.40309219993651	0	240550	251
470.880859375	2	taste	foodImageDisplay	1	19	19	foodImage.52	FOODEEG_Images\0539.jpg	NY	Right	Yes	1.40309219993651	0	241092	252
472.9453125	1.40309219993651	taste	choicePhaseStart	1	19	19	foodImage.52	FOODEEG_Images\0539.jpg	NY	Right	Yes	1.40309219993651	0	242149	253
474.33984375	0	taste	response	1	19	19	foodImage.52	FOODEEG_Images\0539.jpg	NY	Right	Yes	1.40309219993651	0	242863	235
475.3828125	1	decision	trialStart	1	20	20	foodImage.116	FOODEEG_Images\0924.jpg	NY	Left	No	1.31060350011103	0	243397	251
476.421875	2	decision	foodImageDisplay	1	20	20	foodImage.116	FOODEEG_Images\0924.jpg	NY	Left	No	1.31060350011103	0	243929	252
478.486328125	1.31060350011103	decision	choicePhaseStart	1	20	20	foodImage.116	FOODEEG_Images\0924.jpg	NY	Left	No	1.31060350011103	0	244986	253
479.787109375	0	decision	response	1	20	20	foodImage.116	FOODEEG_Images\0924.jpg	NY	Left	No	1.31060350011103	0	245652	234
480.830078125	1	health	trialStart	1	21	21	foodImage.31	FOODEEG_Images\0294.jpg	YN	Right	No	1.10865920013748	0	246186	251
481.888671875	2	health	foodImageDisplay	1	21	21	foodImage.31	FOODEEG_Images\0294.jpg	YN	Right	No	1.10865920013748	0	246728	252
483.951171875	1.10865920013748	health	choicePhaseStart	1	21	21	foodImage.31	FOODEEG_Images\0294.jpg	YN	Right	No	1.10865920013748	0	247784	253
485.05078125	0	health	response	1	21	21	foodImage.31	FOODEEG_Images\0294.jpg	YN	Right	No	1.10865920013748	0	248347	235
486.099609375	1	taste	trialStart	1	22	22	foodImage.12	FOODEEG_Images\0181.jpg	NY	Right	Yes	1.2478019001428	0	248884	251
487.142578125	2	taste	foodImageDisplay	1	22	22	foodImage.12	FOODEEG_Images\0181.jpg	NY	Right	Yes	1.2478019001428	0	249418	252
489.205078125	1.2478019001428	taste	choicePhaseStart	1	22	22	foodImage.12	FOODEEG_Images\0181.jpg	NY	Right	Yes	1.2478019001428	0	250474	253
490.443359375	0	taste	response	1	22	22	foodImage.12	FOODEEG_Images\0181.jpg	NY	Right	Yes	1.2478019001428	0	251108	235
491.486328125	1	health	trialStart	1	23	23	foodImage.35	FOODEEG_Images\0350.jpg	YN	Left	Yes	1.74635550007224	0	251642	251
492.525390625	2	health	foodImageDisplay	1	23	23	foodImage.35	FOODEEG_Images\0350.jpg	YN	Left	Yes	1.74635550007224	0	252174	252
494.5859375	1.74635550007224	health	choicePhaseStart	1	23	23	foodImage.35	FOODEEG_Images\0350.jpg	YN	Left	Yes	1.74635550007224	0	253229	253
496.322265625	0	health	response	1	23	23	foodImage.35	FOODEEG_Images\0350.jpg	YN	Left	Yes	1.74635550007224	0	254118	234
497.3671875	1	health	trialStart	1	24	24	foodImage.15	FOODEEG_Images\0189.jpg	YN	Right	No	0.883930800016969	0	254653	251
498.4453125	2	health	foodImageDisplay	1	24	24	foodImage.15	FOODEEG_Images\0189.jpg	YN	Right	No	0.883930800016969	0	255205	252
500.509765625	0.883930800016969	health	choicePhaseStart	1	24	24	foodImage.15	FOODEEG_Images\0189.jpg	YN	Right	No	0.883930800016969	0	256262	253
501.38671875	0	health	response	1	24	24	foodImage.15	FOODEEG_Images\0189.jpg	YN	Right	No	0.883930800016969	0	256711	235
502.431640625	1	taste	trialStart	1	25	25	foodImage.39	FOODEEG_Images\0367.jpg	YN	Right	No	1.88597039994784	0	257246	251
503.470703125	2	taste	foodImageDisplay	1	25	25	foodImage.39	FOODEEG_Images\0367.jpg	YN	Right	No	1.88597039994784	0	257778	252
505.533203125	1.88597039994784	taste	choicePhaseStart	1	25	25	foodImage.39	FOODEEG_Images\0367.jpg	YN	Right	No	1.88597039994784	0	258834	253
507.41015625	0	taste	response	1	25	25	foodImage.39	FOODEEG_Images\0367.jpg	YN	Right	No	1.88597039994784	0	259795	235
508.453125	1	decision	trialStart	1	26	26	foodImage.76	FOODEEG_Images\0766.jpg	YN	Left	Yes	1.03670200007036	0	260329	251
509.51953125	2	decision	foodImageDisplay	1	26	26	foodImage.76	FOODEEG_Images\0766.jpg	YN	Left	Yes	1.03670200007036	0	260875	252
511.58203125	1.03670200007036	decision	choicePhaseStart	1	26	26	foodImage.76	FOODEEG_Images\0766.jpg	YN	Left	Yes	1.03670200007036	0	261931	253
512.609375	0	decision	response	1	26	26	foodImage.76	FOODEEG_Images\0766.jpg	YN	Left	Yes	1.03670200007036	0	262457	234
513.65234375	1	taste	trialStart	1	27	27	foodImage.72	FOODEEG_Images\0714.jpg	NY	Right	Yes	0.798164299922064	0	262991	251
514.6953125	2	taste	foodImageDisplay	1	27	27	foodImage.72	FOODEEG_Images\0714.jpg	NY	Right	Yes	0.798164299922064	0	263525	252
516.7578125	0.798164299922064	taste	choicePhaseStart	1	27	27	foodImage.72	FOODEEG_Images\0714.jpg	NY	Right	Yes	0.798164299922064	0	264581	253
517.544921875	0	taste	response	1	27	27	foodImage.72	FOODEEG_Images\0714.jpg	NY	Right	Yes	0.798164299922064	0	264984	235
518.58984375	1	taste	trialStart	1	28	28	foodImage.116	FOODEEG_Images\0924.jpg	NY	Right	Yes	1.58288070000708	0	265519	251
519.62890625	2	taste	foodImageDisplay	1	28	28	foodImage.116	FOODEEG_Images\0924.jpg	NY	Right	Yes	1.58288070000708	0	266051	252
521.69140625	1.58288070000708	taste	choicePhaseStart	1	28	28	foodImage.116	FOODEEG_Images\0924.jpg	NY	Right	Yes	1.58288070000708	0	267107	253
523.265625	0	taste	response	1	28	28	foodImage.116	FOODEEG_Images\0924.jpg	NY	Right	Yes	1.58288070000708	0	267913	235
524.310546875	1	health	trialStart	1	29	29	foodImage.3	FOODEEG_Images\0046.jpg	NY	Left	No	0.683118500048295	0	268448	251
525.353515625	2	health	foodImageDisplay	1	29	29	foodImage.3	FOODEEG_Images\0046.jpg	NY	Left	No	0.683118500048295	0	268982	252
527.421875	0.683118500048295	health	choicePhaseStart	1	29	29	foodImage.3	FOODEEG_Images\0046.jpg	NY	Left	No	0.683118500048295	0	270041	253
528.09765625	0	health	response	1	29	29	foodImage.3	FOODEEG_Images\0046.jpg	NY	Left	No	0.683118500048295	0	270387	234
529.14453125	1	health	trialStart	1	30	30	foodImage.79	FOODEEG_Images\0794.jpg	YN	Left	Yes	1.38426259998232	0	270923	251
530.1875	2	health	foodImageDisplay	1	30	30	foodImage.79	FOODEEG_Images\0794.jpg	YN	Left	Yes	1.38426259998232	0	271457	252
532.25	1.38426259998232	health	choicePhaseStart	1	30	30	foodImage.79	FOODEEG_Images\0794.jpg	YN	Left	Yes	1.38426259998232	0	272513	253
533.625	0	health	response	1	30	30	foodImage.79	FOODEEG_Images\0794.jpg	YN	Left	Yes	1.38426259998232	0	273217	234
534.66796875	1	health	trialStart	1	31	31	foodImage.87	FOODEEG_Images\0873.jpg	YN	Left	Yes	1.26625839993358	0	273751	251
535.728515625	2	health	foodImageDisplay	1	31	31	foodImage.87	FOODEEG_Images\0873.jpg	YN	Left	Yes	1.26625839993358	0	274294	252
537.791015625	1.26625839993358	health	choicePhaseStart	1	31	31	foodImage.87	FOODEEG_Images\0873.jpg	YN	Left	Yes	1.26625839993358	0	275350	253
539.048828125	0	health	response	1	31	31	foodImage.87	FOODEEG_Images\0873.jpg	YN	Left	Yes	1.26625839993358	0	275994	234
540.09375	1	health	trialStart	1	32	32	foodImage.32	FOODEEG_Images\0319.jpg	NY	Right	Yes	2.44261489994824	0	276529	251
541.13671875	2	health	foodImageDisplay	1	32	32	foodImage.32	FOODEEG_Images\0319.jpg	NY	Right	Yes	2.44261489994824	0	277063	252
543.19921875	2.44261489994824	health	choicePhaseStart	1	32	32	foodImage.32	FOODEEG_Images\0319.jpg	NY	Right	Yes	2.44261489994824	0	278119	253
545.6328125	0	health	response	1	32	32	foodImage.32	FOODEEG_Images\0319.jpg	NY	Right	Yes	2.44261489994824	0	279365	235
546.67578125	1	health	trialStart	1	33	33	foodImage.118	FOODEEG_Images\0926.jpg	YN	Left	Yes	1.41417800006457	0	279899	251
547.716796875	2	health	foodImageDisplay	1	33	33	foodImage.118	FOODEEG_Images\0926.jpg	YN	Left	Yes	1.41417800006457	0	280432	252
549.779296875	1.41417800006457	health	choicePhaseStart	1	33	33	foodImage.118	FOODEEG_Images\0926.jpg	YN	Left	Yes	1.41417800006457	0	281488	253
551.18359375	0	health	response	1	33	33	foodImage.118	FOODEEG_Images\0926.jpg	YN	Left	Yes	1.41417800006457	0	282207	234
552.228515625	1	health	trialStart	1	34	34	foodImage.9	FOODEEG_Images\0138.jpg	YN	Right	No	0.825599599862471	0	282742	251
553.2890625	2	health	foodImageDisplay	1	34	34	foodImage.9	FOODEEG_Images\0138.jpg	YN	Right	No	0.825599599862471	0	283285	252
555.3515625	0.825599599862471	health	choicePhaseStart	1	34	34	foodImage.9	FOODEEG_Images\0138.jpg	YN	Right	No	0.825599599862471	0	284341	253
556.16796875	0	health	response	1	34	34	foodImage.9	FOODEEG_Images\0138.jpg	YN	Right	No	0.825599599862471	0	284759	235
557.212890625	1	health	trialStart	1	35	35	foodImage.100	FOODEEG_Images\0908.jpg	YN	Left	Yes	2.34853690001182	0	285294	251
558.25390625	2	health	foodImageDisplay	1	35	35	foodImage.100	FOODEEG_Images\0908.jpg	YN	Left	Yes	2.34853690001182	0	285827	252
560.31640625	2.34853690001182	health	choicePhaseStart	1	35	35	foodImage.100	FOODEEG_Images\0908.jpg	YN	Left	Yes	2.34853690001182	0	286883	253
562.65625	0	health	response	1	35	35	foodImage.100	FOODEEG_Images\0908.jpg	YN	Left	Yes	2.34853690001182	0	288081	234
563.72265625	1	decision	trialStart	1	36	36	foodImage.53	FOODEEG_Images\0547.jpg	NY	Right	Yes	0.82127229985781	0	288627	251
564.779296875	2	decision	foodImageDisplay	1	36	36	foodImage.53	FOODEEG_Images\0547.jpg	NY	Right	Yes	0.82127229985781	0	289168	252
566.84375	0.82127229985781	decision	choicePhaseStart	1	36	36	foodImage.53	FOODEEG_Images\0547.jpg	NY	Right	Yes	0.82127229985781	0	290225	253
567.65625	0	decision	response	1	36	36	foodImage.53	FOODEEG_Images\0547.jpg	NY	Right	Yes	0.82127229985781	0	290641	235
568.69921875	1	health	trialStart	1	37	37	foodImage.26	FOODEEG_Images\0262.jpg	NY	Right	Yes	0.919416599906981	0	291175	251
569.763671875	2	health	foodImageDisplay	1	37	37	foodImage.26	FOODEEG_Images\0262.jpg	NY	Right	Yes	0.919416599906981	0	291720	252
571.826171875	0.919416599906981	health	choicePhaseStart	1	37	37	foodImage.26	FOODEEG_Images\0262.jpg	NY	Right	Yes	0.919416599906981	0	292776	253
572.736328125	0	health	response	1	37	37	foodImage.26	FOODEEG_Images\0262.jpg	NY	Right	Yes	0.919416599906981	0	293242	235
573.78125	1	health	trialStart	1	38	38	foodImage.33	FOODEEG_Images\0329.jpg	YN	Left	Yes	0.722002499969676	0	293777	251
574.822265625	2	health	foodImageDisplay	1	38	38	foodImage.33	FOODEEG_Images\0329.jpg	YN	Left	Yes	0.722002499969676	0	294310	252
576.88671875	0.722002499969676	health	choicePhaseStart	1	38	38	foodImage.33	FOODEEG_Images\0329.jpg	YN	Left	Yes	0.722002499969676	0	295367	253
577.599609375	0	health	response	1	38	38	foodImage.33	FOODEEG_Images\0329.jpg	YN	Left	Yes	0.722002499969676	0	295732	234
578.642578125	1	decision	trialStart	1	39	39	foodImage.47	FOODEEG_Images\0488.jpg	YN	Left	Yes	2.49481799989007	0	296266	251
579.69140625	2	decision	foodImageDisplay	1	39	39	foodImage.47	FOODEEG_Images\0488.jpg	YN	Left	Yes	2.49481799989007	0	296803	252
581.759765625	2.49481799989007	decision	choicePhaseStart	1	39	39	foodImage.47	FOODEEG_Images\0488.jpg	YN	Left	Yes	2.49481799989007	0	297862	253
584.248046875	0	decision	response	1	39	39	foodImage.47	FOODEEG_Images\0488.jpg	YN	Left	Yes	2.49481799989007	0	299136	234
585.2890625	1	decision	trialStart	1	40	40	foodImage.90	FOODEEG_Images\0890.jpg	NY	Right	Yes	1.55803690012544	0	299669	251
586.345703125	2	decision	foodImageDisplay	1	40	40	foodImage.90	FOODEEG_Images\0890.jpg	NY	Right	Yes	1.55803690012544	0	300210	252
588.41015625	1.55803690012544	decision	choicePhaseStart	1	40	40	foodImage.90	FOODEEG_Images\0890.jpg	NY	Right	Yes	1.55803690012544	0	301267	253
589.958984375	0	decision	response	1	40	40	foodImage.90	FOODEEG_Images\0890.jpg	NY	Right	Yes	1.55803690012544	0	302060	235
591.001953125	1	decision	trialStart	1	41	41	foodImage.110	FOODEEG_Images\0918.jpg	YN	Left	Yes	2.21190729993396	0	302594	251
592.0390625	2	decision	foodImageDisplay	1	41	41	foodImage.110	FOODEEG_Images\0918.jpg	YN	Left	Yes	2.21190729993396	0	303125	252
594.1015625	2.21190729993396	decision	choicePhaseStart	1	41	41	foodImage.110	FOODEEG_Images\0918.jpg	YN	Left	Yes	2.21190729993396	0	304181	253
596.302734375	0	decision	response	1	41	41	foodImage.110	FOODEEG_Images\0918.jpg	YN	Left	Yes	2.21190729993396	0	305308	234
597.34375	1	health	trialStart	1	42	42	foodImage.59	FOODEEG_Images\0607.jpg	YN	Right	No	1.26824870007113	0	305841	251
598.388671875	2	health	foodImageDisplay	1	42	42	foodImage.59	FOODEEG_Images\0607.jpg	YN	Right	No	1.26824870007113	0	306376	252
600.451171875	1.26824870007113	health	choicePhaseStart	1	42	42	foodImage.59	FOODEEG_Images\0607.jpg	YN	Right	No	1.26824870007113	0	307432	253
601.7109375	0	health	response	1	42	42	foodImage.59	FOODEEG_Images\0607.jpg	YN	Right	No	1.26824870007113	0	308077	235
602.75390625	1	health	trialStart	1	43	43	foodImage.46	FOODEEG_Images\0479.jpg	YN	Left	Yes	1.22013959987089	0	308611	251
603.8125	2	health	foodImageDisplay	1	43	43	foodImage.46	FOODEEG_Images\0479.jpg	YN	Left	Yes	1.22013959987089	0	309153	252
605.875	1.22013959987089	health	choicePhaseStart	1	43	43	foodImage.46	FOODEEG_Images\0479.jpg	YN	Left	Yes	1.22013959987089	0	310209	253
607.0859375	0	health	response	1	43	43	foodImage.46	FOODEEG_Images\0479.jpg	YN	Left	Yes	1.22013959987089	0	310829	234
608.126953125	1	health	trialStart	1	44	44	foodImage.34	FOODEEG_Images\0339.jpg	YN	Right	No	0.674976999871433	0	311362	251
609.18359375	2	health	foodImageDisplay	1	44	44	foodImage.34	FOODEEG_Images\0339.jpg	YN	Right	No	0.674976999871433	0	311903	252
611.244140625	0.674976999871433	health	choicePhaseStart	1	44	44	foodImage.34	FOODEEG_Images\0339.jpg	YN	Right	No	0.674976999871433	0	312958	253
611.91015625	0	health	response	1	44	44	foodImage.34	FOODEEG_Images\0339.jpg	YN	Right	No	0.674976999871433	0	313299	235
612.958984375	1	decision	trialStart	1	45	45	foodImage.36	FOODEEG_Images\0352.jpg	YN	Left	Yes	2.90519779990427	0	313836	251
614.02734375	2	decision	foodImageDisplay	1	45	45	foodImage.36	FOODEEG_Images\0352.jpg	YN	Left	Yes	2.90519779990427	0	314383	252
616.09375	2.90519779990427	decision	choicePhaseStart	1	45	45	foodImage.36	FOODEEG_Images\0352.jpg	YN	Left	Yes	2.90519779990427	0	315441	253
618.990234375	0	decision	response	1	45	45	foodImage.36	FOODEEG_Images\0352.jpg	YN	Left	Yes	2.90519779990427	0	316924	234
620.033203125	1	decision	trialStart	1	46	46	foodImage.72	FOODEEG_Images\0714.jpg	YN	Left	Yes	1.99881420005113	0	317458	251
621.08203125	2	decision	foodImageDisplay	1	46	46	foodImage.72	FOODEEG_Images\0714.jpg	YN	Left	Yes	1.99881420005113	0	317995	252
623.142578125	1.99881420005113	decision	choicePhaseStart	1	46	46	foodImage.72	FOODEEG_Images\0714.jpg	YN	Left	Yes	1.99881420005113	0	319050	253
625.1328125	0	decision	response	1	46	46	foodImage.72	FOODEEG_Images\0714.jpg	YN	Left	Yes	1.99881420005113	0	320069	234
626.177734375	1	health	trialStart	1	47	47	foodImage.103	FOODEEG_Images\0911.jpg	YN	Left	Yes	1.40991299995221	0	320604	251
627.21484375	2	health	foodImageDisplay	1	47	47	foodImage.103	FOODEEG_Images\0911.jpg	YN	Left	Yes	1.40991299995221	0	321135	252
629.27734375	1.40991299995221	health	choicePhaseStart	1	47	47	foodImage.103	FOODEEG_Images\0911.jpg	YN	Left	Yes	1.40991299995221	0	322191	253
630.677734375	0	health	response	1	47	47	foodImage.103	FOODEEG_Images\0911.jpg	YN	Left	Yes	1.40991299995221	0	322908	234
631.720703125	1	health	trialStart	1	48	48	foodImage.13	FOODEEG_Images\0183.jpg	YN	Left	Yes	0.717938699992374	0	323442	251
632.76171875	2	health	foodImageDisplay	1	48	48	foodImage.13	FOODEEG_Images\0183.jpg	YN	Left	Yes	0.717938699992374	0	323975	252
634.82421875	0.717938699992374	health	choicePhaseStart	1	48	48	foodImage.13	FOODEEG_Images\0183.jpg	YN	Left	Yes	0.717938699992374	0	325031	253
635.533203125	0	health	response	1	48	48	foodImage.13	FOODEEG_Images\0183.jpg	YN	Left	Yes	0.717938699992374	0	325394	234
636.57421875	1	decision	trialStart	1	49	49	foodImage.50	FOODEEG_Images\0529.jpg	NY	Right	Yes	0.919323700014502	0	325927	251
637.6328125	2	decision	foodImageDisplay	1	49	49	foodImage.50	FOODEEG_Images\0529.jpg	NY	Right	Yes	0.919323700014502	0	326469	252
639.6953125	0.919323700014502	decision	choicePhaseStart	1	49	49	foodImage.50	FOODEEG_Images\0529.jpg	NY	Right	Yes	0.919323700014502	0	327525	253
640.60546875	0	decision	response	1	49	49	foodImage.50	FOODEEG_Images\0529.jpg	NY	Right	Yes	0.919323700014502	0	327991	235
641.646484375	1	decision	trialStart	1	50	50	foodImage.24	FOODEEG_Images\0250.jpg	NY	Right	Yes	0.841642300132662	0	328524	251
642.697265625	2	decision	foodImageDisplay	1	50	50	foodImage.24	FOODEEG_Images\0250.jpg	NY	Right	Yes	0.841642300132662	0	329062	252
644.76171875	0.841642300132662	decision	choicePhaseStart	1	50	50	foodImage.24	FOODEEG_Images\0250.jpg	NY	Right	Yes	0.841642300132662	0	330119	253
645.595703125	0	decision	response	1	50	50	foodImage.24	FOODEEG_Images\0250.jpg	NY	Right	Yes	0.841642300132662	0	330546	235
646.640625	1	decision	trialStart	1	51	51	foodImage.101	FOODEEG_Images\0909.jpg	YN	Left	Yes	1.69519999995828	0	331081	251
647.6796875	2	decision	foodImageDisplay	1	51	51	foodImage.101	FOODEEG_Images\0909.jpg	YN	Left	Yes	1.69519999995828	0	331613	252
649.7421875	1.69519999995828	decision	choicePhaseStart	1	51	51	foodImage.101	FOODEEG_Images\0909.jpg	YN	Left	Yes	1.69519999995828	0	332669	253
651.427734375	0	decision	response	1	51	51	foodImage.101	FOODEEG_Images\0909.jpg	YN	Left	Yes	1.69519999995828	0	333532	234
652.46875	1	taste	trialStart	1	52	52	foodImage.86	FOODEEG_Images\0844.jpg	YN	Left	Yes	2.49690539995208	0	334065	251
653.525390625	2	taste	foodImageDisplay	1	52	52	foodImage.86	FOODEEG_Images\0844.jpg	YN	Left	Yes	2.49690539995208	0	334606	252
655.58984375	2.49690539995208	taste	choicePhaseStart	1	52	52	foodImage.86	FOODEEG_Images\0844.jpg	YN	Left	Yes	2.49690539995208	0	335663	253
658.076171875	0	taste	response	1	52	52	foodImage.86	FOODEEG_Images\0844.jpg	YN	Left	Yes	2.49690539995208	0	336936	234
659.126953125	1	decision	trialStart	1	53	53	foodImage.80	FOODEEG_Images\0796.jpg	YN	Left	Yes	0.893873700173572	0	337474	251
660.18359375	2	decision	foodImageDisplay	1	53	53	foodImage.80	FOODEEG_Images\0796.jpg	YN	Left	Yes	0.893873700173572	0	338015	252
662.248046875	0.893873700173572	decision	choicePhaseStart	1	53	53	foodImage.80	FOODEEG_Images\0796.jpg	YN	Left	Yes	0.893873700173572	0	339072	253
663.1328125	0	decision	response	1	53	53	foodImage.80	FOODEEG_Images\0796.jpg	YN	Left	Yes	0.893873700173572	0	339525	234
664.18359375	1	taste	trialStart	1	54	54	foodImage.85	FOODEEG_Images\0841.jpg	NY	Right	Yes	0.795146899996325	0	340063	251
665.265625	2	taste	foodImageDisplay	1	54	54	foodImage.85	FOODEEG_Images\0841.jpg	NY	Right	Yes	0.795146899996325	0	340617	252
667.330078125	0.795146899996325	taste	choicePhaseStart	1	54	54	foodImage.85	FOODEEG_Images\0841.jpg	NY	Right	Yes	0.795146899996325	0	341674	253
668.115234375	0	taste	response	1	54	54	foodImage.85	FOODEEG_Images\0841.jpg	NY	Right	Yes	0.795146899996325	0	342076	235
669.16015625	1	taste	trialStart	1	55	55	foodImage.33	FOODEEG_Images\0329.jpg	YN	Left	Yes	2.56279919994995	0	342611	251
670.203125	2	taste	foodImageDisplay	1	55	55	foodImage.33	FOODEEG_Images\0329.jpg	YN	Left	Yes	2.56279919994995	0	343145	252
672.265625	2.56279919994995	taste	choicePhaseStart	1	55	55	foodImage.33	FOODEEG_Images\0329.jpg	YN	Left	Yes	2.56279919994995	0	344201	253
674.8203125	0	taste	response	1	55	55	foodImage.33	FOODEEG_Images\0329.jpg	YN	Left	Yes	2.56279919994995	0	345509	234
675.86328125	1	decision	trialStart	1	56	56	foodImage.11	FOODEEG_Images\0180.jpg	NY	Right	Yes	1.72232679999433	0	346043	251
676.90625	2	decision	foodImageDisplay	1	56	56	foodImage.11	FOODEEG_Images\0180.jpg	NY	Right	Yes	1.72232679999433	0	346577	252
678.970703125	1.72232679999433	decision	choicePhaseStart	1	56	56	foodImage.11	FOODEEG_Images\0180.jpg	NY	Right	Yes	1.72232679999433	0	347634	253
680.68359375	0	decision	response	1	56	56	foodImage.11	FOODEEG_Images\0180.jpg	NY	Right	Yes	1.72232679999433	0	348511	235
681.724609375	1	health	trialStart	1	57	57	foodImage.89	FOODEEG_Images\0881.jpg	NY	Right	Yes	0.944959900109097	0	349044	251
682.796875	2	health	foodImageDisplay	1	57	57	foodImage.89	FOODEEG_Images\0881.jpg	NY	Right	Yes	0.944959900109097	0	349593	252
684.859375	0.944959900109097	health	choicePhaseStart	1	57	57	foodImage.89	FOODEEG_Images\0881.jpg	NY	Right	Yes	0.944959900109097	0	350649	253
685.794921875	0	health	response	1	57	57	foodImage.89	FOODEEG_Images\0881.jpg	NY	Right	Yes	0.944959900109097	0	351128	235
686.84375	1	decision	trialStart	1	58	58	foodImage.91	FOODEEG_Images\0896.jpg	YN	Left	Yes	2.3353951999452	0	351665	251
687.90234375	2	decision	foodImageDisplay	1	58	58	foodImage.91	FOODEEG_Images\0896.jpg	YN	Left	Yes	2.3353951999452	0	352207	252
689.96484375	2.3353951999452	decision	choicePhaseStart	1	58	58	foodImage.91	FOODEEG_Images\0896.jpg	YN	Left	Yes	2.3353951999452	0	353263	253
692.291015625	0	decision	response	1	58	58	foodImage.91	FOODEEG_Images\0896.jpg	YN	Left	Yes	2.3353951999452	0	354454	234
693.34765625	1	health	trialStart	1	59	59	foodImage.39	FOODEEG_Images\0367.jpg	NY	Left	No	1.01847740006633	0	354995	251
694.384765625	2	health	foodImageDisplay	1	59	59	foodImage.39	FOODEEG_Images\0367.jpg	NY	Left	No	1.01847740006633	0	355526	252
696.44921875	1.01847740006633	health	choicePhaseStart	1	59	59	foodImage.39	FOODEEG_Images\0367.jpg	NY	Left	No	1.01847740006633	0	356583	253
697.458984375	0	health	response	1	59	59	foodImage.39	FOODEEG_Images\0367.jpg	NY	Left	No	1.01847740006633	0	357100	234
698.505859375	1	taste	trialStart	1	60	60	foodImage.19	FOODEEG_Images\0225.jpg	NY	Right	Yes	1.22519439994358	0	357636	251
699.548828125	2	taste	foodImageDisplay	1	60	60	foodImage.19	FOODEEG_Images\0225.jpg	NY	Right	Yes	1.22519439994358	0	358170	252
701.611328125	1.22519439994358	taste	choicePhaseStart	1	60	60	foodImage.19	FOODEEG_Images\0225.jpg	NY	Right	Yes	1.22519439994358	0	359226	253
702.826171875	0	taste	response	1	60	60	foodImage.19	FOODEEG_Images\0225.jpg	NY	Right	Yes	1.22519439994358	0	359848	235
704.87109375	14.923828125	n/a	blockEnd	n/a	n/a	n/a	n/a	n/a	n/a	n/a	n/a	n/a	n/a	360895	254
719.794921875	2	n/a	blockStart	2	n/a	n/a	n/a	n/a	n/a	n/a	n/a	n/a	n/a	368536	250
721.828125	1	health	trialStart	2	61	1	foodImage.24	FOODEEG_Images\0250.jpg	NY	Right	Yes	0.842723699985072	0	369577	251
722.87109375	2	health	foodImageDisplay	2	61	1	foodImage.24	FOODEEG_Images\0250.jpg	NY	Right	Yes	0.842723699985072	0	370111	252
724.935546875	0.842723699985072	health	choicePhaseStart	2	61	1	foodImage.24	FOODEEG_Images\0250.jpg	NY	Right	Yes	0.842723699985072	0	371168	253
725.76953125	0	health	response	2	61	1	foodImage.24	FOODEEG_Images\0250.jpg	NY	Right	Yes	0.842723699985072	0	371595	235
726.810546875	1	taste	trialStart	2	62	2	foodImage.36	FOODEEG_Images\0352.jpg	YN	Left	Yes	1.02766649983823	0	372128	251
727.87890625	2	taste	foodImageDisplay	2	62	2	foodImage.36	FOODEEG_Images\0352.jpg	YN	Left	Yes	1.02766649983823	0	372675	252
729.943359375	1.02766649983823	taste	choicePhaseStart	2	62	2	foodImage.36	FOODEEG_Images\0352.jpg	YN	Left	Yes	1.02766649983823	0	373732	253
730.9609375	0	taste	response	2	62	2	foodImage.36	FOODEEG_Images\0352.jpg	YN	Left	Yes	1.02766649983823	0	374253	234
732.00390625	1	taste	trialStart	2	63	3	foodImage.94	FOODEEG_Images\0902.jpg	YN	Left	Yes	0.871911500114948	0	374787	251
733.04296875	2	taste	foodImageDisplay	2	63	3	foodImage.94	FOODEEG_Images\0902.jpg	YN	Left	Yes	0.871911500114948	0	375319	252
735.107421875	0.871911500114948	taste	choicePhaseStart	2	63	3	foodImage.94	FOODEEG_Images\0902.jpg	YN	Left	Yes	0.871911500114948	0	376376	253
735.96875	0	taste	response	2	63	3	foodImage.94	FOODEEG_Images\0902.jpg	YN	Left	Yes	0.871911500114948	0	376817	234
737.01171875	1	decision	trialStart	2	64	4	foodImage.65	FOODEEG_Images\0658.jpg	NY	Left	No	1.19783349987119	0	377351	251
738.052734375	2	decision	foodImageDisplay	2	64	4	foodImage.65	FOODEEG_Images\0658.jpg	NY	Left	No	1.19783349987119	0	377884	252
740.1171875	1.19783349987119	decision	choicePhaseStart	2	64	4	foodImage.65	FOODEEG_Images\0658.jpg	NY	Left	No	1.19783349987119	0	378941	253
741.3046875	0	decision	response	2	64	4	foodImage.65	FOODEEG_Images\0658.jpg	NY	Left	No	1.19783349987119	0	379549	234
742.349609375	1	health	trialStart	2	65	5	foodImage.117	FOODEEG_Images\0925.jpg	YN	Left	Yes	1.59656460001133	0	380084	251
743.3984375	2	health	foodImageDisplay	2	65	5	foodImage.117	FOODEEG_Images\0925.jpg	YN	Left	Yes	1.59656460001133	0	380621	252
745.4609375	1.59656460001133	health	choicePhaseStart	2	65	5	foodImage.117	FOODEEG_Images\0925.jpg	YN	Left	Yes	1.59656460001133	0	381677	253
747.048828125	0	health	response	2	65	5	foodImage.117	FOODEEG_Images\0925.jpg	YN	Left	Yes	1.59656460001133	0	382490	234
748.091796875	1	health	trialStart	2	66	6	foodImage.74	FOODEEG_Images\0752.jpg	YN	Left	Yes	0.86511699995026	0	383024	251
749.134765625	2	health	foodImageDisplay	2	66	6	foodImage.74	FOODEEG_Images\0752.jpg	YN	Left	Yes	0.86511699995026	0	383558	252
751.197265625	0.86511699995026	health	choicePhaseStart	2	66	6	foodImage.74	FOODEEG_Images\0752.jpg	YN	Left	Yes	0.86511699995026	0	384614	253
752.056640625	0	health	response	2	66	6	foodImage.74	FOODEEG_Images\0752.jpg	YN	Left	Yes	0.86511699995026	0	385054	234
753.099609375	1	health	trialStart	2	67	7	foodImage.60	FOODEEG_Images\0614.jpg	NY	Right	Yes	2.03691360005178	0	385588	251
754.158203125	2	health	foodImageDisplay	2	67	7	foodImage.60	FOODEEG_Images\0614.jpg	NY	Right	Yes	2.03691360005178	0	386130	252
756.220703125	2.03691360005178	health	choicePhaseStart	2	67	7	foodImage.60	FOODEEG_Images\0614.jpg	NY	Right	Yes	2.03691360005178	0	387186	253
758.248046875	0	health	response	2	67	7	foodImage.60	FOODEEG_Images\0614.jpg	NY	Right	Yes	2.03691360005178	0	388224	235
759.291015625	1	health	trialStart	2	68	8	foodImage.88	FOODEEG_Images\0878.jpg	YN	Right	No	3.4996396000497	0	388758	251
760.34765625	2	health	foodImageDisplay	2	68	8	foodImage.88	FOODEEG_Images\0878.jpg	YN	Right	No	3.4996396000497	0	389299	252
762.4140625	3.4996396000497	health	choicePhaseStart	2	68	8	foodImage.88	FOODEEG_Images\0878.jpg	YN	Right	No	3.4996396000497	0	390357	253
765.904296875	0	health	response	2	68	8	foodImage.88	FOODEEG_Images\0878.jpg	YN	Right	No	3.4996396000497	0	392144	235
766.9453125	1	taste	trialStart	2	69	9	foodImage.31	FOODEEG_Images\0294.jpg	NY	Right	Yes	2.44079830008559	0	392677	251
767.986328125	2	taste	foodImageDisplay	2	69	9	foodImage.31	FOODEEG_Images\0294.jpg	NY	Right	Yes	2.44079830008559	0	393210	252
770.048828125	2.44079830008559	taste	choicePhaseStart	2	69	9	foodImage.31	FOODEEG_Images\0294.jpg	NY	Right	Yes	2.44079830008559	0	394266	253
772.48046875	0	taste	response	2	69	9	foodImage.31	FOODEEG_Images\0294.jpg	NY	Right	Yes	2.44079830008559	0	395511	235
773.525390625	1	health	trialStart	2	70	10	foodImage.37	FOODEEG_Images\0359.jpg	YN	Left	Yes	1.31029510009103	0	396046	251
774.564453125	2	health	foodImageDisplay	2	70	10	foodImage.37	FOODEEG_Images\0359.jpg	YN	Left	Yes	1.31029510009103	0	396578	252
776.626953125	1.31029510009103	health	choicePhaseStart	2	70	10	foodImage.37	FOODEEG_Images\0359.jpg	YN	Left	Yes	1.31029510009103	0	397634	253
777.927734375	0	health	response	2	70	10	foodImage.37	FOODEEG_Images\0359.jpg	YN	Left	Yes	1.31029510009103	0	398300	234
778.974609375	1	health	trialStart	2	71	11	foodImage.10	FOODEEG_Images\0145.jpg	NY	Right	Yes	3.12160869990475	0	398836	251
780.033203125	2	health	foodImageDisplay	2	71	11	foodImage.10	FOODEEG_Images\0145.jpg	NY	Right	Yes	3.12160869990475	0	399378	252
782.095703125	3.12160869990475	health	choicePhaseStart	2	71	11	foodImage.10	FOODEEG_Images\0145.jpg	NY	Right	Yes	3.12160869990475	0	400434	253
785.20703125	0	health	response	2	71	11	foodImage.10	FOODEEG_Images\0145.jpg	NY	Right	Yes	3.12160869990475	0	402027	235
786.251953125	1	health	trialStart	2	72	12	foodImage.5	FOODEEG_Images\0107.jpg	YN	Right	No	1.00573710002936	0	402562	251
787.306640625	2	health	foodImageDisplay	2	72	12	foodImage.5	FOODEEG_Images\0107.jpg	YN	Right	No	1.00573710002936	0	403102	252
789.37109375	1.00573710002936	health	choicePhaseStart	2	72	12	foodImage.5	FOODEEG_Images\0107.jpg	YN	Right	No	1.00573710002936	0	404159	253
790.3671875	0	health	response	2	72	12	foodImage.5	FOODEEG_Images\0107.jpg	YN	Right	No	1.00573710002936	0	404669	235
791.41015625	1	decision	trialStart	2	73	13	foodImage.113	FOODEEG_Images\0921.jpg	NY	Right	Yes	0.98706079996191	0	405203	251
792.44921875	2	decision	foodImageDisplay	2	73	13	foodImage.113	FOODEEG_Images\0921.jpg	NY	Right	Yes	0.98706079996191	0	405735	252
794.517578125	0.98706079996191	decision	choicePhaseStart	2	73	13	foodImage.113	FOODEEG_Images\0921.jpg	NY	Right	Yes	0.98706079996191	0	406794	253
795.494140625	0	decision	response	2	73	13	foodImage.113	FOODEEG_Images\0921.jpg	NY	Right	Yes	0.98706079996191	0	407294	235
796.5390625	1	decision	trialStart	2	74	14	foodImage.68	FOODEEG_Images\0685.jpg	YN	Left	Yes	1.2003546000924	0	407829	251
797.6171875	2	decision	foodImageDisplay	2	74	14	foodImage.68	FOODEEG_Images\0685.jpg	YN	Left	Yes	1.2003546000924	0	408381	252
799.685546875	1.2003546000924	decision	choicePhaseStart	2	74	14	foodImage.68	FOODEEG_Images\0685.jpg	YN	Left	Yes	1.2003546000924	0	409440	253
800.87890625	0	decision	response	2	74	14	foodImage.68	FOODEEG_Images\0685.jpg	YN	Left	Yes	1.2003546000924	0	410051	234
801.921875	1	decision	trialStart	2	75	15	foodImage.69	FOODEEG_Images\0693.jpg	YN	Left	Yes	0.705316900042817	0	410585	251
802.966796875	2	decision	foodImageDisplay	2	75	15	foodImage.69	FOODEEG_Images\0693.jpg	YN	Left	Yes	0.705316900042817	0	411120	252
805.029296875	0.705316900042817	decision	choicePhaseStart	2	75	15	foodImage.69	FOODEEG_Images\0693.jpg	YN	Left	Yes	0.705316900042817	0	412176	253
805.7265625	0	decision	response	2	75	15	foodImage.69	FOODEEG_Images\0693.jpg	YN	Left	Yes	0.705316900042817	0	412533	234
806.76953125	1	health	trialStart	2	76	16	foodImage.22	FOODEEG_Images\0236.jpg	YN	Left	Yes	0.941115899942815	0	413067	251
807.810546875	2	health	foodImageDisplay	2	76	16	foodImage.22	FOODEEG_Images\0236.jpg	YN	Left	Yes	0.941115899942815	0	413600	252
809.875	0.941115899942815	health	choicePhaseStart	2	76	16	foodImage.22	FOODEEG_Images\0236.jpg	YN	Left	Yes	0.941115899942815	0	414657	253
810.806640625	0	health	response	2	76	16	foodImage.22	FOODEEG_Images\0236.jpg	YN	Left	Yes	0.941115899942815	0	415134	234
811.85546875	1	taste	trialStart	2	77	17	foodImage.84	FOODEEG_Images\0830.jpg	YN	Left	Yes	1.03974060015753	0	415671	251
812.912109375	2	taste	foodImageDisplay	2	77	17	foodImage.84	FOODEEG_Images\0830.jpg	YN	Left	Yes	1.03974060015753	0	416212	252
814.9765625	1.03974060015753	taste	choicePhaseStart	2	77	17	foodImage.84	FOODEEG_Images\0830.jpg	YN	Left	Yes	1.03974060015753	0	417269	253
816.005859375	0	taste	response	2	77	17	foodImage.84	FOODEEG_Images\0830.jpg	YN	Left	Yes	1.03974060015753	0	417796	234
817.048828125	1	taste	trialStart	2	78	18	foodImage.54	FOODEEG_Images\0560.jpg	NY	Right	Yes	0.889613599982113	0	418330	251
818.109375	2	taste	foodImageDisplay	2	78	18	foodImage.54	FOODEEG_Images\0560.jpg	NY	Right	Yes	0.889613599982113	0	418873	252
820.173828125	0.889613599982113	taste	choicePhaseStart	2	78	18	foodImage.54	FOODEEG_Images\0560.jpg	NY	Right	Yes	0.889613599982113	0	419930	253
821.0546875	0	taste	response	2	78	18	foodImage.54	FOODEEG_Images\0560.jpg	NY	Right	Yes	0.889613599982113	0	420381	235
822.09765625	1	health	trialStart	2	79	19	foodImage.50	FOODEEG_Images\0529.jpg	NY	Right	Yes	0.796438900055364	0	420915	251
823.15625	2	health	foodImageDisplay	2	79	19	foodImage.50	FOODEEG_Images\0529.jpg	NY	Right	Yes	0.796438900055364	0	421457	252
825.21875	0.796438900055364	health	choicePhaseStart	2	79	19	foodImage.50	FOODEEG_Images\0529.jpg	NY	Right	Yes	0.796438900055364	0	422513	253
826.005859375	0	health	response	2	79	19	foodImage.50	FOODEEG_Images\0529.jpg	NY	Right	Yes	0.796438900055364	0	422916	235
827.048828125	1	decision	trialStart	2	80	20	foodImage.16	FOODEEG_Images\0196.jpg	NY	Right	Yes	0.856188300065696	0	423450	251
828.111328125	2	decision	foodImageDisplay	2	80	20	foodImage.16	FOODEEG_Images\0196.jpg	NY	Right	Yes	0.856188300065696	0	423994	252
830.17578125	0.856188300065696	decision	choicePhaseStart	2	80	20	foodImage.16	FOODEEG_Images\0196.jpg	NY	Right	Yes	0.856188300065696	0	425051	253
831.021484375	0	decision	response	2	80	20	foodImage.16	FOODEEG_Images\0196.jpg	NY	Right	Yes	0.856188300065696	0	425484	235
832.06640625	1	taste	trialStart	2	81	21	foodImage.67	FOODEEG_Images\0679.jpg	YN	Left	Yes	0.763344299979508	0	426019	251
833.125	2	taste	foodImageDisplay	2	81	21	foodImage.67	FOODEEG_Images\0679.jpg	YN	Left	Yes	0.763344299979508	0	426561	252
835.1875	0.763344299979508	taste	choicePhaseStart	2	81	21	foodImage.67	FOODEEG_Images\0679.jpg	YN	Left	Yes	0.763344299979508	0	427617	253
835.94140625	0	taste	response	2	81	21	foodImage.67	FOODEEG_Images\0679.jpg	YN	Left	Yes	0.763344299979508	0	428003	234
836.984375	1	decision	trialStart	2	82	22	foodImage.92	FOODEEG_Images\0900.jpg	YN	Left	Yes	1.87208400014788	0	428537	251
838.0234375	2	decision	foodImageDisplay	2	82	22	foodImage.92	FOODEEG_Images\0900.jpg	YN	Left	Yes	1.87208400014788	0	429069	252
840.0859375	1.87208400014788	decision	choicePhaseStart	2	82	22	foodImage.92	FOODEEG_Images\0900.jpg	YN	Left	Yes	1.87208400014788	0	430125	253
841.94921875	0	decision	response	2	82	22	foodImage.92	FOODEEG_Images\0900.jpg	YN	Left	Yes	1.87208400014788	0	431079	234
842.9921875	1	taste	trialStart	2	83	23	foodImage.11	FOODEEG_Images\0180.jpg	YN	Left	Yes	0.98049659980461	0	431613	251
844.04296875	2	taste	foodImageDisplay	2	83	23	foodImage.11	FOODEEG_Images\0180.jpg	YN	Left	Yes	0.98049659980461	0	432151	252
846.10546875	0.98049659980461	taste	choicePhaseStart	2	83	23	foodImage.11	FOODEEG_Images\0180.jpg	YN	Left	Yes	0.98049659980461	0	433207	253
847.076171875	0	taste	response	2	83	23	foodImage.11	FOODEEG_Images\0180.jpg	YN	Left	Yes	0.98049659980461	0	433704	234
848.12109375	1	health	trialStart	2	84	24	foodImage.99	FOODEEG_Images\0907.jpg	YN	Left	Yes	0.607983199879527	0	434239	251
849.158203125	2	health	foodImageDisplay	2	84	24	foodImage.99	FOODEEG_Images\0907.jpg	YN	Left	Yes	0.607983199879527	0	434770	252
851.220703125	0.607983199879527	health	choicePhaseStart	2	84	24	foodImage.99	FOODEEG_Images\0907.jpg	YN	Left	Yes	0.607983199879527	0	435826	253
851.8203125	0	health	response	2	84	24	foodImage.99	FOODEEG_Images\0907.jpg	YN	Left	Yes	0.607983199879527	0	436133	234
852.86328125	1	decision	trialStart	2	85	25	foodImage.20	FOODEEG_Images\0226.jpg	YN	Left	Yes	1.45288469991647	0	436667	251
853.90625	2	decision	foodImageDisplay	2	85	25	foodImage.20	FOODEEG_Images\0226.jpg	YN	Left	Yes	1.45288469991647	0	437201	252
855.96875	1.45288469991647	decision	choicePhaseStart	2	85	25	foodImage.20	FOODEEG_Images\0226.jpg	YN	Left	Yes	1.45288469991647	0	438257	253
857.412109375	0	decision	response	2	85	25	foodImage.20	FOODEEG_Images\0226.jpg	YN	Left	Yes	1.45288469991647	0	438996	234
858.455078125	1	health	trialStart	2	86	26	foodImage.86	FOODEEG_Images\0844.jpg	YN	Right	No	4.77466360013932	0	439530	251
859.51171875	2	health	foodImageDisplay	2	86	26	foodImage.86	FOODEEG_Images\0844.jpg	YN	Right	No	4.77466360013932	0	440071	252
861.576171875	4.77466360013932	health	choicePhaseStart	2	86	26	foodImage.86	FOODEEG_Images\0844.jpg	YN	Right	No	4.77466360013932	0	441128	253
866.33984375	0	health	response	2	86	26	foodImage.86	FOODEEG_Images\0844.jpg	YN	Right	No	4.77466360013932	0	443567	235
867.384765625	1	decision	trialStart	2	87	27	foodImage.98	FOODEEG_Images\0906.jpg	NY	Right	Yes	1.22439530002885	0	444102	251
868.423828125	2	decision	foodImageDisplay	2	87	27	foodImage.98	FOODEEG_Images\0906.jpg	NY	Right	Yes	1.22439530002885	0	444634	252
870.4921875	1.22439530002885	decision	choicePhaseStart	2	87	27	foodImage.98	FOODEEG_Images\0906.jpg	NY	Right	Yes	1.22439530002885	0	445693	253
871.70703125	0	decision	response	2	87	27	foodImage.98	FOODEEG_Images\0906.jpg	NY	Right	Yes	1.22439530002885	0	446315	235
872.748046875	1	taste	trialStart	2	88	28	foodImage.89	FOODEEG_Images\0881.jpg	YN	Left	Yes	0.916188099887222	0	446848	251
873.8046875	2	taste	foodImageDisplay	2	88	28	foodImage.89	FOODEEG_Images\0881.jpg	YN	Left	Yes	0.916188099887222	0	447389	252
875.869140625	0.916188099887222	taste	choicePhaseStart	2	88	28	foodImage.89	FOODEEG_Images\0881.jpg	YN	Left	Yes	0.916188099887222	0	448446	253
876.779296875	0	taste	response	2	88	28	foodImage.89	FOODEEG_Images\0881.jpg	YN	Left	Yes	0.916188099887222	0	448912	234
877.822265625	1	health	trialStart	2	89	29	foodImage.72	FOODEEG_Images\0714.jpg	NY	Right	Yes	1.12620599986985	0	449446	251
878.865234375	2	health	foodImageDisplay	2	89	29	foodImage.72	FOODEEG_Images\0714.jpg	NY	Right	Yes	1.12620599986985	0	449980	252
880.927734375	1.12620599986985	health	choicePhaseStart	2	89	29	foodImage.72	FOODEEG_Images\0714.jpg	NY	Right	Yes	1.12620599986985	0	451036	253
882.04296875	0	health	response	2	89	29	foodImage.72	FOODEEG_Images\0714.jpg	NY	Right	Yes	1.12620599986985	0	451607	235
883.083984375	1	decision	trialStart	2	90	30	foodImage.3	FOODEEG_Images\0046.jpg	NY	Right	Yes	1.59777339990251	0	452140	251
884.126953125	2	decision	foodImageDisplay	2	90	30	foodImage.3	FOODEEG_Images\0046.jpg	NY	Right	Yes	1.59777339990251	0	452674	252
886.189453125	1.59777339990251	decision	choicePhaseStart	2	90	30	foodImage.3	FOODEEG_Images\0046.jpg	NY	Right	Yes	1.59777339990251	0	453730	253
887.779296875	0	decision	response	2	90	30	foodImage.3	FOODEEG_Images\0046.jpg	NY	Right	Yes	1.59777339990251	0	454544	235
888.8203125	1	decision	trialStart	2	91	31	foodImage.21	FOODEEG_Images\0234.jpg	YN	Left	Yes	0.718341200146824	0	455077	251
889.87890625	2	decision	foodImageDisplay	2	91	31	foodImage.21	FOODEEG_Images\0234.jpg	YN	Left	Yes	0.718341200146824	0	455619	252
891.94140625	0.718341200146824	decision	choicePhaseStart	2	91	31	foodImage.21	FOODEEG_Images\0234.jpg	YN	Left	Yes	0.718341200146824	0	456675	253
892.650390625	0	decision	response	2	91	31	foodImage.21	FOODEEG_Images\0234.jpg	YN	Left	Yes	0.718341200146824	0	457038	234
893.69140625	1	decision	trialStart	2	92	32	foodImage.118	FOODEEG_Images\0926.jpg	YN	Left	Yes	1.10886809998192	0	457571	251
894.728515625	2	decision	foodImageDisplay	2	92	32	foodImage.118	FOODEEG_Images\0926.jpg	YN	Left	Yes	1.10886809998192	0	458102	252
896.791015625	1.10886809998192	decision	choicePhaseStart	2	92	32	foodImage.118	FOODEEG_Images\0926.jpg	YN	Left	Yes	1.10886809998192	0	459158	253
897.890625	0	decision	response	2	92	32	foodImage.118	FOODEEG_Images\0926.jpg	YN	Left	Yes	1.10886809998192	0	459721	234
898.931640625	1	health	trialStart	2	93	33	foodImage.78	FOODEEG_Images\0787.jpg	YN	Left	Yes	1.63440330000594	0	460254	251
899.9765625	2	health	foodImageDisplay	2	93	33	foodImage.78	FOODEEG_Images\0787.jpg	YN	Left	Yes	1.63440330000594	0	460789	252
902.04296875	1.63440330000594	health	choicePhaseStart	2	93	33	foodImage.78	FOODEEG_Images\0787.jpg	YN	Left	Yes	1.63440330000594	0	461847	253
903.666015625	0	health	response	2	93	33	foodImage.78	FOODEEG_Images\0787.jpg	YN	Left	Yes	1.63440330000594	0	462678	234
904.708984375	1	decision	trialStart	2	94	34	foodImage.97	FOODEEG_Images\0905.jpg	NY	Right	Yes	1.05245580011979	0	463212	251
905.74609375	2	decision	foodImageDisplay	2	94	34	foodImage.97	FOODEEG_Images\0905.jpg	NY	Right	Yes	1.05245580011979	0	463743	252
907.80859375	1.05245580011979	decision	choicePhaseStart	2	94	34	foodImage.97	FOODEEG_Images\0905.jpg	NY	Right	Yes	1.05245580011979	0	464799	253
908.849609375	0	decision	response	2	94	34	foodImage.97	FOODEEG_Images\0905.jpg	NY	Right	Yes	1.05245580011979	0	465332	235
909.890625	1	decision	trialStart	2	95	35	foodImage.88	FOODEEG_Images\0878.jpg	YN	Left	Yes	0.771384699968621	0	465865	251
910.947265625	2	decision	foodImageDisplay	2	95	35	foodImage.88	FOODEEG_Images\0878.jpg	YN	Left	Yes	0.771384699968621	0	466406	252
913.013671875	0.771384699968621	decision	choicePhaseStart	2	95	35	foodImage.88	FOODEEG_Images\0878.jpg	YN	Left	Yes	0.771384699968621	0	467464	253
913.77734375	0	decision	response	2	95	35	foodImage.88	FOODEEG_Images\0878.jpg	YN	Left	Yes	0.771384699968621	0	467855	234
914.8203125	1	health	trialStart	2	96	36	foodImage.40	FOODEEG_Images\0373.jpg	NY	Left	No	1.68182890000753	0	468389	251
915.859375	2	health	foodImageDisplay	2	96	36	foodImage.40	FOODEEG_Images\0373.jpg	NY	Left	No	1.68182890000753	0	468921	252
917.921875	1.68182890000753	health	choicePhaseStart	2	96	36	foodImage.40	FOODEEG_Images\0373.jpg	NY	Left	No	1.68182890000753	0	469977	253
919.59375	0	health	response	2	96	36	foodImage.40	FOODEEG_Images\0373.jpg	NY	Left	No	1.68182890000753	0	470833	234
920.640625	1	decision	trialStart	2	97	37	foodImage.44	FOODEEG_Images\0459.jpg	NY	Right	Yes	1.94263330008835	0	471369	251
921.685546875	2	decision	foodImageDisplay	2	97	37	foodImage.44	FOODEEG_Images\0459.jpg	NY	Right	Yes	1.94263330008835	0	471904	252
923.75	1.94263330008835	decision	choicePhaseStart	2	97	37	foodImage.44	FOODEEG_Images\0459.jpg	NY	Right	Yes	1.94263330008835	0	472961	253
925.681640625	0	decision	response	2	97	37	foodImage.44	FOODEEG_Images\0459.jpg	NY	Right	Yes	1.94263330008835	0	473950	235
926.724609375	1	taste	trialStart	2	98	38	foodImage.61	FOODEEG_Images\0640.jpg	YN	Left	Yes	1.74970110016875	0	474484	251
927.767578125	2	taste	foodImageDisplay	2	98	38	foodImage.61	FOODEEG_Images\0640.jpg	YN	Left	Yes	1.74970110016875	0	475018	252
929.830078125	1.74970110016875	taste	choicePhaseStart	2	98	38	foodImage.61	FOODEEG_Images\0640.jpg	YN	Left	Yes	1.74970110016875	0	476074	253
931.5703125	0	taste	response	2	98	38	foodImage.61	FOODEEG_Images\0640.jpg	YN	Left	Yes	1.74970110016875	0	476965	234
932.61328125	1	health	trialStart	2	99	39	foodImage.53	FOODEEG_Images\0547.jpg	NY	Left	No	1.68990869983099	0	477499	251
933.673828125	2	health	foodImageDisplay	2	99	39	foodImage.53	FOODEEG_Images\0547.jpg	NY	Left	No	1.68990869983099	0	478042	252
935.736328125	1.68990869983099	health	choicePhaseStart	2	99	39	foodImage.53	FOODEEG_Images\0547.jpg	NY	Left	No	1.68990869983099	0	479098	253
937.41796875	0	health	response	2	99	39	foodImage.53	FOODEEG_Images\0547.jpg	NY	Left	No	1.68990869983099	0	479959	234
938.4609375	1	taste	trialStart	2	100	40	foodImage.75	FOODEEG_Images\0763.jpg	NY	Right	Yes	0.929557800060138	0	480493	251
939.5078125	2	taste	foodImageDisplay	2	100	40	foodImage.75	FOODEEG_Images\0763.jpg	NY	Right	Yes	0.929557800060138	0	481029	252
941.5703125	0.929557800060138	taste	choicePhaseStart	2	100	40	foodImage.75	FOODEEG_Images\0763.jpg	NY	Right	Yes	0.929557800060138	0	482085	253
942.490234375	0	taste	response	2	100	40	foodImage.75	FOODEEG_Images\0763.jpg	NY	Right	Yes	0.929557800060138	0	482556	235
943.533203125	1	decision	trialStart	2	101	41	foodImage.45	FOODEEG_Images\0478.jpg	YN	Left	Yes	1.11189819988795	0	483090	251
944.580078125	2	decision	foodImageDisplay	2	101	41	foodImage.45	FOODEEG_Images\0478.jpg	YN	Left	Yes	1.11189819988795	0	483626	252
946.642578125	1.11189819988795	decision	choicePhaseStart	2	101	41	foodImage.45	FOODEEG_Images\0478.jpg	YN	Left	Yes	1.11189819988795	0	484682	253
947.744140625	0	decision	response	2	101	41	foodImage.45	FOODEEG_Images\0478.jpg	YN	Left	Yes	1.11189819988795	0	485246	234
948.787109375	1	health	trialStart	2	102	42	foodImage.54	FOODEEG_Images\0560.jpg	YN	Left	Yes	1.37180159986019	0	485780	251
949.84765625	2	health	foodImageDisplay	2	102	42	foodImage.54	FOODEEG_Images\0560.jpg	YN	Left	Yes	1.37180159986019	0	486323	252
951.91015625	1.37180159986019	health	choicePhaseStart	2	102	42	foodImage.54	FOODEEG_Images\0560.jpg	YN	Left	Yes	1.37180159986019	0	487379	253
953.2734375	0	health	response	2	102	42	foodImage.54	FOODEEG_Images\0560.jpg	YN	Left	Yes	1.37180159986019	0	488077	234
954.31640625	1	decision	trialStart	2	103	43	foodImage.74	FOODEEG_Images\0752.jpg	NY	Right	Yes	1.37111670011654	0	488611	251
955.359375	2	decision	foodImageDisplay	2	103	43	foodImage.74	FOODEEG_Images\0752.jpg	NY	Right	Yes	1.37111670011654	0	489145	252
957.421875	1.37111670011654	decision	choicePhaseStart	2	103	43	foodImage.74	FOODEEG_Images\0752.jpg	NY	Right	Yes	1.37111670011654	0	490201	253
958.78515625	0	decision	response	2	103	43	foodImage.74	FOODEEG_Images\0752.jpg	NY	Right	Yes	1.37111670011654	0	490899	235
959.828125	1	decision	trialStart	2	104	44	foodImage.95	FOODEEG_Images\0903.jpg	YN	Left	Yes	1.16657979995944	0	491433	251
960.8671875	2	decision	foodImageDisplay	2	104	44	foodImage.95	FOODEEG_Images\0903.jpg	YN	Left	Yes	1.16657979995944	0	491965	252
962.9296875	1.16657979995944	decision	choicePhaseStart	2	104	44	foodImage.95	FOODEEG_Images\0903.jpg	YN	Left	Yes	1.16657979995944	0	493021	253
964.087890625	0	decision	response	2	104	44	foodImage.95	FOODEEG_Images\0903.jpg	YN	Left	Yes	1.16657979995944	0	493614	234
965.12890625	1	decision	trialStart	2	105	45	foodImage.51	FOODEEG_Images\0536.jpg	YN	Left	Yes	0.749848400009796	0	494147	251
966.173828125	2	decision	foodImageDisplay	2	105	45	foodImage.51	FOODEEG_Images\0536.jpg	YN	Left	Yes	0.749848400009796	0	494682	252
968.236328125	0.749848400009796	decision	choicePhaseStart	2	105	45	foodImage.51	FOODEEG_Images\0536.jpg	YN	Left	Yes	0.749848400009796	0	495738	253
968.9765625	0	decision	response	2	105	45	foodImage.51	FOODEEG_Images\0536.jpg	YN	Left	Yes	0.749848400009796	0	496117	234
970.01953125	1	taste	trialStart	2	106	46	foodImage.46	FOODEEG_Images\0479.jpg	NY	Right	Yes	0.90710710012354	0	496651	251
971.080078125	2	taste	foodImageDisplay	2	106	46	foodImage.46	FOODEEG_Images\0479.jpg	NY	Right	Yes	0.90710710012354	0	497194	252
973.142578125	0.90710710012354	taste	choicePhaseStart	2	106	46	foodImage.46	FOODEEG_Images\0479.jpg	NY	Right	Yes	0.90710710012354	0	498250	253
974.0390625	0	taste	response	2	106	46	foodImage.46	FOODEEG_Images\0479.jpg	NY	Right	Yes	0.90710710012354	0	498709	235
975.087890625	1	taste	trialStart	2	107	47	foodImage.64	FOODEEG_Images\0647.jpg	YN	Left	Yes	0.70568159990944	0	499246	251
976.154296875	2	taste	foodImageDisplay	2	107	47	foodImage.64	FOODEEG_Images\0647.jpg	YN	Left	Yes	0.70568159990944	0	499792	252
978.21484375	0.70568159990944	taste	choicePhaseStart	2	107	47	foodImage.64	FOODEEG_Images\0647.jpg	YN	Left	Yes	0.70568159990944	0	500847	253
978.912109375	0	taste	response	2	107	47	foodImage.64	FOODEEG_Images\0647.jpg	YN	Left	Yes	0.70568159990944	0	501204	234
979.955078125	1	taste	trialStart	2	108	48	foodImage.6	FOODEEG_Images\0113.jpg	YN	Left	Yes	0.756572199985385	0	501738	251
980.998046875	2	taste	foodImageDisplay	2	108	48	foodImage.6	FOODEEG_Images\0113.jpg	YN	Left	Yes	0.756572199985385	0	502272	252
983.060546875	0.756572199985385	taste	choicePhaseStart	2	108	48	foodImage.6	FOODEEG_Images\0113.jpg	YN	Left	Yes	0.756572199985385	0	503328	253
983.806640625	0	taste	response	2	108	48	foodImage.6	FOODEEG_Images\0113.jpg	YN	Left	Yes	0.756572199985385	0	503710	234
984.849609375	1	taste	trialStart	2	109	49	foodImage.9	FOODEEG_Images\0138.jpg	YN	Left	Yes	1.50749749992974	0	504244	251
985.91015625	2	taste	foodImageDisplay	2	109	49	foodImage.9	FOODEEG_Images\0138.jpg	YN	Left	Yes	1.50749749992974	0	504787	252
987.97265625	1.50749749992974	taste	choicePhaseStart	2	109	49	foodImage.9	FOODEEG_Images\0138.jpg	YN	Left	Yes	1.50749749992974	0	505843	253
989.470703125	0	taste	response	2	109	49	foodImage.9	FOODEEG_Images\0138.jpg	YN	Left	Yes	1.50749749992974	0	506610	234
990.515625	1	taste	trialStart	2	110	50	foodImage.63	FOODEEG_Images\0645.jpg	YN	Left	Yes	1.24338300013915	0	507145	251
991.556640625	2	taste	foodImageDisplay	2	110	50	foodImage.63	FOODEEG_Images\0645.jpg	YN	Left	Yes	1.24338300013915	0	507678	252
993.62109375	1.24338300013915	taste	choicePhaseStart	2	110	50	foodImage.63	FOODEEG_Images\0645.jpg	YN	Left	Yes	1.24338300013915	0	508735	253
994.85546875	0	taste	response	2	110	50	foodImage.63	FOODEEG_Images\0645.jpg	YN	Left	Yes	1.24338300013915	0	509367	234
995.8984375	1	health	trialStart	2	111	51	foodImage.80	FOODEEG_Images\0796.jpg	NY	Right	Yes	0.810208700131625	0	509901	251
996.958984375	2	health	foodImageDisplay	2	111	51	foodImage.80	FOODEEG_Images\0796.jpg	NY	Right	Yes	0.810208700131625	0	510444	252
999.021484375	0.810208700131625	health	choicePhaseStart	2	111	51	foodImage.80	FOODEEG_Images\0796.jpg	NY	Right	Yes	0.810208700131625	0	511500	253
999.822265625	0	health	response	2	111	51	foodImage.80	FOODEEG_Images\0796.jpg	NY	Right	Yes	0.810208700131625	0	511910	235
1000.8671875	1	decision	trialStart	2	112	52	foodImage.26	FOODEEG_Images\0262.jpg	YN	Left	Yes	1.11968679982238	0	512445	251
1001.91015625	2	decision	foodImageDisplay	2	112	52	foodImage.26	FOODEEG_Images\0262.jpg	YN	Left	Yes	1.11968679982238	0	512979	252
1003.9765625	1.11968679982238	decision	choicePhaseStart	2	112	52	foodImage.26	FOODEEG_Images\0262.jpg	YN	Left	Yes	1.11968679982238	0	514037	253
1005.0859375	0	decision	response	2	112	52	foodImage.26	FOODEEG_Images\0262.jpg	YN	Left	Yes	1.11968679982238	0	514605	234
1006.12890625	1	taste	trialStart	2	113	53	foodImage.56	FOODEEG_Images\0586.jpg	YN	Left	Yes	0.980266900034621	0	515139	251
1007.171875	2	taste	foodImageDisplay	2	113	53	foodImage.56	FOODEEG_Images\0586.jpg	YN	Left	Yes	0.980266900034621	0	515673	252
1009.236328125	0.980266900034621	taste	choicePhaseStart	2	113	53	foodImage.56	FOODEEG_Images\0586.jpg	YN	Left	Yes	0.980266900034621	0	516730	253
1010.20703125	0	taste	response	2	113	53	foodImage.56	FOODEEG_Images\0586.jpg	YN	Left	Yes	0.980266900034621	0	517227	234
1011.25	1	taste	trialStart	2	114	54	foodImage.96	FOODEEG_Images\0904.jpg	YN	Left	Yes	1.83716850006022	0	517761	251
1012.291015625	2	taste	foodImageDisplay	2	114	54	foodImage.96	FOODEEG_Images\0904.jpg	YN	Left	Yes	1.83716850006022	0	518294	252
1014.35546875	1.83716850006022	taste	choicePhaseStart	2	114	54	foodImage.96	FOODEEG_Images\0904.jpg	YN	Left	Yes	1.83716850006022	0	519351	253
1016.181640625	0	taste	response	2	114	54	foodImage.96	FOODEEG_Images\0904.jpg	YN	Left	Yes	1.83716850006022	0	520286	234
1017.224609375	1	health	trialStart	2	115	55	foodImage.51	FOODEEG_Images\0536.jpg	YN	Left	Yes	0.78075350006111	0	520820	251
1018.267578125	2	health	foodImageDisplay	2	115	55	foodImage.51	FOODEEG_Images\0536.jpg	YN	Left	Yes	0.78075350006111	0	521354	252
1020.33203125	0.78075350006111	health	choicePhaseStart	2	115	55	foodImage.51	FOODEEG_Images\0536.jpg	YN	Left	Yes	0.78075350006111	0	522411	253
1021.1015625	0	health	response	2	115	55	foodImage.51	FOODEEG_Images\0536.jpg	YN	Left	Yes	0.78075350006111	0	522805	234
1022.146484375	1	taste	trialStart	2	116	56	foodImage.93	FOODEEG_Images\0901.jpg	NY	Right	Yes	0.75831689988263	0	523340	251
1023.185546875	2	taste	foodImageDisplay	2	116	56	foodImage.93	FOODEEG_Images\0901.jpg	NY	Right	Yes	0.75831689988263	0	523872	252
1025.248046875	0.75831689988263	taste	choicePhaseStart	2	116	56	foodImage.93	FOODEEG_Images\0901.jpg	NY	Right	Yes	0.75831689988263	0	524928	253
1025.998046875	0	taste	response	2	116	56	foodImage.93	FOODEEG_Images\0901.jpg	NY	Right	Yes	0.75831689988263	0	525312	235
1027.041015625	1	health	trialStart	2	117	57	foodImage.106	FOODEEG_Images\0914.jpg	YN	Left	Yes	1.57610700000077	0	525846	251
1028.080078125	2	health	foodImageDisplay	2	117	57	foodImage.106	FOODEEG_Images\0914.jpg	YN	Left	Yes	1.57610700000077	0	526378	252
1030.142578125	1.57610700000077	health	choicePhaseStart	2	117	57	foodImage.106	FOODEEG_Images\0914.jpg	YN	Left	Yes	1.57610700000077	0	527434	253
1031.708984375	0	health	response	2	117	57	foodImage.106	FOODEEG_Images\0914.jpg	YN	Left	Yes	1.57610700000077	0	528236	234
1032.751953125	1	taste	trialStart	2	118	58	foodImage.109	FOODEEG_Images\0917.jpg	YN	Left	Yes	1.14611990004778	0	528770	251
1033.791015625	2	taste	foodImageDisplay	2	118	58	foodImage.109	FOODEEG_Images\0917.jpg	YN	Left	Yes	1.14611990004778	0	529302	252
1035.853515625	1.14611990004778	taste	choicePhaseStart	2	118	58	foodImage.109	FOODEEG_Images\0917.jpg	YN	Left	Yes	1.14611990004778	0	530358	253
1036.990234375	0	taste	response	2	118	58	foodImage.109	FOODEEG_Images\0917.jpg	YN	Left	Yes	1.14611990004778	0	530940	234
1038.033203125	1	decision	trialStart	2	119	59	foodImage.81	FOODEEG_Images\0797.jpg	YN	Left	Yes	0.757783300010487	0	531474	251
1039.08984375	2	decision	foodImageDisplay	2	119	59	foodImage.81	FOODEEG_Images\0797.jpg	YN	Left	Yes	0.757783300010487	0	532015	252
1041.154296875	0.757783300010487	decision	choicePhaseStart	2	119	59	foodImage.81	FOODEEG_Images\0797.jpg	YN	Left	Yes	0.757783300010487	0	533072	253
1041.90234375	0	decision	response	2	119	59	foodImage.81	FOODEEG_Images\0797.jpg	YN	Left	Yes	0.757783300010487	0	533455	234
1042.9453125	1	decision	trialStart	2	120	60	foodImage.49	FOODEEG_Images\0515.jpg	YN	Left	Yes	0.689672200009227	0	533989	251
1043.98828125	2	decision	foodImageDisplay	2	120	60	foodImage.49	FOODEEG_Images\0515.jpg	YN	Left	Yes	0.689672200009227	0	534523	252
1046.052734375	0.689672200009227	decision	choicePhaseStart	2	120	60	foodImage.49	FOODEEG_Images\0515.jpg	YN	Left	Yes	0.689672200009227	0	535580	253
1046.732421875	0	decision	response	2	120	60	foodImage.49	FOODEEG_Images\0515.jpg	YN	Left	Yes	0.689672200009227	0	535928	234
1048.775390625	12.0546875	n/a	blockEnd	n/a	n/a	n/a	n/a	n/a	n/a	n/a	n/a	n/a	n/a	536974	254
1060.830078125	2	n/a	blockStart	3	n/a	n/a	n/a	n/a	n/a	n/a	n/a	n/a	n/a	543146	250
1062.865234375	1	taste	trialStart	3	121	1	foodImage.28	FOODEEG_Images\0273.jpg	YN	Left	Yes	0.822778300149366	0	544188	251
1063.93359375	2	taste	foodImageDisplay	3	121	1	foodImage.28	FOODEEG_Images\0273.jpg	YN	Left	Yes	0.822778300149366	0	544735	252
1065.998046875	0.822778300149366	taste	choicePhaseStart	3	121	1	foodImage.28	FOODEEG_Images\0273.jpg	YN	Left	Yes	0.822778300149366	0	545792	253
1066.8125	0	taste	response	3	121	1	foodImage.28	FOODEEG_Images\0273.jpg	YN	Left	Yes	0.822778300149366	0	546209	234
1067.857421875	1	health	trialStart	3	122	2	foodImage.73	FOODEEG_Images\0717.jpg	YN	Left	Yes	1.81215699994937	0	546744	251
1068.9140625	2	health	foodImageDisplay	3	122	2	foodImage.73	FOODEEG_Images\0717.jpg	YN	Left	Yes	1.81215699994937	0	547285	252
1070.978515625	1.81215699994937	health	choicePhaseStart	3	122	2	foodImage.73	FOODEEG_Images\0717.jpg	YN	Left	Yes	1.81215699994937	0	548342	253
1072.779296875	0	health	response	3	122	2	foodImage.73	FOODEEG_Images\0717.jpg	YN	Left	Yes	1.81215699994937	0	549264	234
1073.8203125	1	health	trialStart	3	123	3	foodImage.23	FOODEEG_Images\0244.jpg	YN	Left	Yes	0.593520900001749	0	549797	251
1074.861328125	2	health	foodImageDisplay	3	123	3	foodImage.23	FOODEEG_Images\0244.jpg	YN	Left	Yes	0.593520900001749	0	550330	252
1076.923828125	0.593520900001749	health	choicePhaseStart	3	123	3	foodImage.23	FOODEEG_Images\0244.jpg	YN	Left	Yes	0.593520900001749	0	551386	253
1077.5078125	0	health	response	3	123	3	foodImage.23	FOODEEG_Images\0244.jpg	YN	Left	Yes	0.593520900001749	0	551685	234
1078.552734375	1	health	trialStart	3	124	4	foodImage.12	FOODEEG_Images\0181.jpg	YN	Left	Yes	1.07595139998011	0	552220	251
1079.59375	2	health	foodImageDisplay	3	124	4	foodImage.12	FOODEEG_Images\0181.jpg	YN	Left	Yes	1.07595139998011	0	552753	252
1081.65625	1.07595139998011	health	choicePhaseStart	3	124	4	foodImage.12	FOODEEG_Images\0181.jpg	YN	Left	Yes	1.07595139998011	0	553809	253
1082.724609375	0	health	response	3	124	4	foodImage.12	FOODEEG_Images\0181.jpg	YN	Left	Yes	1.07595139998011	0	554356	234
1083.763671875	1	taste	trialStart	3	125	5	foodImage.41	FOODEEG_Images\0409.jpg	YN	Left	Yes	1.1809665998444	0	554888	251
1084.810546875	2	taste	foodImageDisplay	3	125	5	foodImage.41	FOODEEG_Images\0409.jpg	YN	Left	Yes	1.1809665998444	0	555424	252
1086.87109375	1.1809665998444	taste	choicePhaseStart	3	125	5	foodImage.41	FOODEEG_Images\0409.jpg	YN	Left	Yes	1.1809665998444	0	556479	253
1088.04296875	0	taste	response	3	125	5	foodImage.41	FOODEEG_Images\0409.jpg	YN	Left	Yes	1.1809665998444	0	557079	234
1089.0859375	1	health	trialStart	3	126	6	foodImage.29	FOODEEG_Images\0278.jpg	YN	Left	Yes	0.546789899934083	0	557613	251
1090.126953125	2	health	foodImageDisplay	3	126	6	foodImage.29	FOODEEG_Images\0278.jpg	YN	Left	Yes	0.546789899934083	0	558146	252
1092.19140625	0.546789899934083	health	choicePhaseStart	3	126	6	foodImage.29	FOODEEG_Images\0278.jpg	YN	Left	Yes	0.546789899934083	0	559203	253
1092.73046875	0	health	response	3	126	6	foodImage.29	FOODEEG_Images\0278.jpg	YN	Left	Yes	0.546789899934083	0	559479	234
1093.7734375	1	taste	trialStart	3	127	7	foodImage.82	FOODEEG_Images\0805.jpg	NY	Right	Yes	1.53198669990525	0	560013	251
1094.826171875	2	taste	foodImageDisplay	3	127	7	foodImage.82	FOODEEG_Images\0805.jpg	NY	Right	Yes	1.53198669990525	0	560552	252
1096.888671875	1.53198669990525	taste	choicePhaseStart	3	127	7	foodImage.82	FOODEEG_Images\0805.jpg	NY	Right	Yes	1.53198669990525	0	561608	253
1098.41015625	0	taste	response	3	127	7	foodImage.82	FOODEEG_Images\0805.jpg	NY	Right	Yes	1.53198669990525	0	562387	235
1099.453125	1	decision	trialStart	3	128	8	foodImage.64	FOODEEG_Images\0647.jpg	NY	Right	Yes	1.90784269990399	0	562921	251
1100.537109375	2	decision	foodImageDisplay	3	128	8	foodImage.64	FOODEEG_Images\0647.jpg	NY	Right	Yes	1.90784269990399	0	563476	252
1102.599609375	1.90784269990399	decision	choicePhaseStart	3	128	8	foodImage.64	FOODEEG_Images\0647.jpg	NY	Right	Yes	1.90784269990399	0	564532	253
1104.498046875	0	decision	response	3	128	8	foodImage.64	FOODEEG_Images\0647.jpg	NY	Right	Yes	1.90784269990399	0	565504	235
1105.54296875	1	health	trialStart	3	129	9	foodImage.42	FOODEEG_Images\0438.jpg	NY	Right	Yes	1.7845568000339	0	566039	251
1106.634765625	2	health	foodImageDisplay	3	129	9	foodImage.42	FOODEEG_Images\0438.jpg	NY	Right	Yes	1.7845568000339	0	566598	252
1108.69921875	1.7845568000339	health	choicePhaseStart	3	129	9	foodImage.42	FOODEEG_Images\0438.jpg	NY	Right	Yes	1.7845568000339	0	567655	253
1110.474609375	0	health	response	3	129	9	foodImage.42	FOODEEG_Images\0438.jpg	NY	Right	Yes	1.7845568000339	0	568564	235
1111.51953125	1	decision	trialStart	3	130	10	foodImage.115	FOODEEG_Images\0923.jpg	YN	Left	Yes	2.11856050021015	0	569099	251
1112.55859375	2	decision	foodImageDisplay	3	130	10	foodImage.115	FOODEEG_Images\0923.jpg	YN	Left	Yes	2.11856050021015	0	569631	252
1114.62109375	2.11856050021015	decision	choicePhaseStart	3	130	10	foodImage.115	FOODEEG_Images\0923.jpg	YN	Left	Yes	2.11856050021015	0	570687	253
1116.73046875	0	decision	response	3	130	10	foodImage.115	FOODEEG_Images\0923.jpg	YN	Left	Yes	2.11856050021015	0	571767	234
1117.76953125	1	health	trialStart	3	131	11	foodImage.108	FOODEEG_Images\0916.jpg	NY	Right	Yes	1.19684760016389	0	572299	251
1118.806640625	2	health	foodImageDisplay	3	131	11	foodImage.108	FOODEEG_Images\0916.jpg	NY	Right	Yes	1.19684760016389	0	572830	252
1120.87109375	1.19684760016389	health	choicePhaseStart	3	131	11	foodImage.108	FOODEEG_Images\0916.jpg	NY	Right	Yes	1.19684760016389	0	573887	253
1122.05859375	0	health	response	3	131	11	foodImage.108	FOODEEG_Images\0916.jpg	NY	Right	Yes	1.19684760016389	0	574495	235
1123.099609375	1	health	trialStart	3	132	12	foodImage.76	FOODEEG_Images\0766.jpg	NY	Right	Yes	1.04673129995354	0	575028	251
1124.142578125	2	health	foodImageDisplay	3	132	12	foodImage.76	FOODEEG_Images\0766.jpg	NY	Right	Yes	1.04673129995354	0	575562	252
1126.205078125	1.04673129995354	health	choicePhaseStart	3	132	12	foodImage.76	FOODEEG_Images\0766.jpg	NY	Right	Yes	1.04673129995354	0	576618	253
1127.2421875	0	health	response	3	132	12	foodImage.76	FOODEEG_Images\0766.jpg	NY	Right	Yes	1.04673129995354	0	577149	235
1128.28515625	1	decision	trialStart	3	133	13	foodImage.56	FOODEEG_Images\0586.jpg	NY	Right	Yes	2.60111490008421	0	577683	251
1129.328125	2	decision	foodImageDisplay	3	133	13	foodImage.56	FOODEEG_Images\0586.jpg	NY	Right	Yes	2.60111490008421	0	578217	252
1131.39453125	2.60111490008421	decision	choicePhaseStart	3	133	13	foodImage.56	FOODEEG_Images\0586.jpg	NY	Right	Yes	2.60111490008421	0	579275	253
1133.986328125	0	decision	response	3	133	13	foodImage.56	FOODEEG_Images\0586.jpg	NY	Right	Yes	2.60111490008421	0	580602	235
1135.025390625	1	decision	trialStart	3	134	14	foodImage.106	FOODEEG_Images\0914.jpg	NY	Right	Yes	1.43854639981873	0	581134	251
1136.0625	2	decision	foodImageDisplay	3	134	14	foodImage.106	FOODEEG_Images\0914.jpg	NY	Right	Yes	1.43854639981873	0	581665	252
1138.125	1.43854639981873	decision	choicePhaseStart	3	134	14	foodImage.106	FOODEEG_Images\0914.jpg	NY	Right	Yes	1.43854639981873	0	582721	253
1139.5546875	0	decision	response	3	134	14	foodImage.106	FOODEEG_Images\0914.jpg	NY	Right	Yes	1.43854639981873	0	583453	235
1140.59765625	1	decision	trialStart	3	135	15	foodImage.33	FOODEEG_Images\0329.jpg	NY	Right	Yes	1.78723519993946	0	583987	251
1141.638671875	2	decision	foodImageDisplay	3	135	15	foodImage.33	FOODEEG_Images\0329.jpg	NY	Right	Yes	1.78723519993946	0	584520	252
1143.703125	1.78723519993946	decision	choicePhaseStart	3	135	15	foodImage.33	FOODEEG_Images\0329.jpg	NY	Right	Yes	1.78723519993946	0	585577	253
1145.482421875	0	decision	response	3	135	15	foodImage.33	FOODEEG_Images\0329.jpg	NY	Right	Yes	1.78723519993946	0	586488	235
1146.525390625	1	decision	trialStart	3	136	16	foodImage.120	FOODEEG_Images\0928.jpg	YN	Left	Yes	2.15458430000581	0	587022	251
1147.580078125	2	decision	foodImageDisplay	3	136	16	foodImage.120	FOODEEG_Images\0928.jpg	YN	Left	Yes	2.15458430000581	0	587562	252
1149.64453125	2.15458430000581	decision	choicePhaseStart	3	136	16	foodImage.120	FOODEEG_Images\0928.jpg	YN	Left	Yes	2.15458430000581	0	588619	253
1151.79296875	0	decision	response	3	136	16	foodImage.120	FOODEEG_Images\0928.jpg	YN	Left	Yes	2.15458430000581	0	589719	234
1152.8359375	1	health	trialStart	3	137	17	foodImage.116	FOODEEG_Images\0924.jpg	YN	Left	Yes	2.90323169995099	0	590253	251
1153.884765625	2	health	foodImageDisplay	3	137	17	foodImage.116	FOODEEG_Images\0924.jpg	YN	Left	Yes	2.90323169995099	0	590790	252
1155.947265625	2.90323169995099	health	choicePhaseStart	3	137	17	foodImage.116	FOODEEG_Images\0924.jpg	YN	Left	Yes	2.90323169995099	0	591846	253
1158.841796875	0	health	response	3	137	17	foodImage.116	FOODEEG_Images\0924.jpg	YN	Left	Yes	2.90323169995099	0	593328	234
1159.884765625	1	taste	trialStart	3	138	18	foodImage.102	FOODEEG_Images\0910.jpg	NY	Right	Yes	1.14424100005999	0	593862	251
1160.923828125	2	taste	foodImageDisplay	3	138	18	foodImage.102	FOODEEG_Images\0910.jpg	NY	Right	Yes	1.14424100005999	0	594394	252
1162.986328125	1.14424100005999	taste	choicePhaseStart	3	138	18	foodImage.102	FOODEEG_Images\0910.jpg	NY	Right	Yes	1.14424100005999	0	595450	253
1164.12109375	0	taste	response	3	138	18	foodImage.102	FOODEEG_Images\0910.jpg	NY	Right	Yes	1.14424100005999	0	596031	235
1165.16015625	1	health	trialStart	3	139	19	foodImage.81	FOODEEG_Images\0797.jpg	NY	Right	Yes	1.76923460001126	0	596563	251
1166.216796875	2	health	foodImageDisplay	3	139	19	foodImage.81	FOODEEG_Images\0797.jpg	NY	Right	Yes	1.76923460001126	0	597104	252
1168.28125	1.76923460001126	health	choicePhaseStart	3	139	19	foodImage.81	FOODEEG_Images\0797.jpg	NY	Right	Yes	1.76923460001126	0	598161	253
1170.041015625	0	health	response	3	139	19	foodImage.81	FOODEEG_Images\0797.jpg	NY	Right	Yes	1.76923460001126	0	599062	235
1171.08203125	1	health	trialStart	3	140	20	foodImage.77	FOODEEG_Images\0771.jpg	NY	Right	Yes	0.868832499952987	0	599595	251
1172.126953125	2	health	foodImageDisplay	3	140	20	foodImage.77	FOODEEG_Images\0771.jpg	NY	Right	Yes	0.868832499952987	0	600130	252
1174.1875	0.868832499952987	health	choicePhaseStart	3	140	20	foodImage.77	FOODEEG_Images\0771.jpg	NY	Right	Yes	0.868832499952987	0	601185	253
1175.048828125	0	health	response	3	140	20	foodImage.77	FOODEEG_Images\0771.jpg	NY	Right	Yes	0.868832499952987	0	601626	235
1176.091796875	1	taste	trialStart	3	141	21	foodImage.14	FOODEEG_Images\0188.jpg	NY	Right	Yes	0.947896299883723	0	602160	251
1177.150390625	2	taste	foodImageDisplay	3	141	21	foodImage.14	FOODEEG_Images\0188.jpg	NY	Right	Yes	0.947896299883723	0	602702	252
1179.212890625	0.947896299883723	taste	choicePhaseStart	3	141	21	foodImage.14	FOODEEG_Images\0188.jpg	NY	Right	Yes	0.947896299883723	0	603758	253
1180.15234375	0	taste	response	3	141	21	foodImage.14	FOODEEG_Images\0188.jpg	NY	Right	Yes	0.947896299883723	0	604239	235
1181.193359375	1	taste	trialStart	3	142	22	foodImage.120	FOODEEG_Images\0928.jpg	NY	Right	Yes	1.79966220003553	0	604772	251
1182.23046875	2	taste	foodImageDisplay	3	142	22	foodImage.120	FOODEEG_Images\0928.jpg	NY	Right	Yes	1.79966220003553	0	605303	252
1184.298828125	1.79966220003553	taste	choicePhaseStart	3	142	22	foodImage.120	FOODEEG_Images\0928.jpg	NY	Right	Yes	1.79966220003553	0	606362	253
1186.087890625	0	taste	response	3	142	22	foodImage.120	FOODEEG_Images\0928.jpg	NY	Right	Yes	1.79966220003553	0	607278	235
1187.130859375	1	decision	trialStart	3	143	23	foodImage.15	FOODEEG_Images\0189.jpg	YN	Right	No	1.02814459986985	0	607812	251
1188.19140625	2	decision	foodImageDisplay	3	143	23	foodImage.15	FOODEEG_Images\0189.jpg	YN	Right	No	1.02814459986985	0	608355	252
1190.251953125	1.02814459986985	decision	choicePhaseStart	3	143	23	foodImage.15	FOODEEG_Images\0189.jpg	YN	Right	No	1.02814459986985	0	609410	253
1191.271484375	0	decision	response	3	143	23	foodImage.15	FOODEEG_Images\0189.jpg	YN	Right	No	1.02814459986985	0	609932	235
1192.3125	1	decision	trialStart	3	144	24	foodImage.78	FOODEEG_Images\0787.jpg	NY	Right	Yes	2.38206680002622	0	610465	251
1193.35546875	2	decision	foodImageDisplay	3	144	24	foodImage.78	FOODEEG_Images\0787.jpg	NY	Right	Yes	2.38206680002622	0	610999	252
1195.41796875	2.38206680002622	decision	choicePhaseStart	3	144	24	foodImage.78	FOODEEG_Images\0787.jpg	NY	Right	Yes	2.38206680002622	0	612055	253
1197.791015625	0	decision	response	3	144	24	foodImage.78	FOODEEG_Images\0787.jpg	NY	Right	Yes	2.38206680002622	0	613270	235
1198.8359375	1	health	trialStart	3	145	25	foodImage.92	FOODEEG_Images\0900.jpg	YN	Left	Yes	1.66178180021234	0	613805	251
1199.876953125	2	health	foodImageDisplay	3	145	25	foodImage.92	FOODEEG_Images\0900.jpg	YN	Left	Yes	1.66178180021234	0	614338	252
1201.939453125	1.66178180021234	health	choicePhaseStart	3	145	25	foodImage.92	FOODEEG_Images\0900.jpg	YN	Left	Yes	1.66178180021234	0	615394	253
1203.591796875	0	health	response	3	145	25	foodImage.92	FOODEEG_Images\0900.jpg	YN	Left	Yes	1.66178180021234	0	616240	234
1204.640625	1	health	trialStart	3	146	26	foodImage.14	FOODEEG_Images\0188.jpg	NY	Right	Yes	0.736483900109306	0	616777	251
1205.697265625	2	health	foodImageDisplay	3	146	26	foodImage.14	FOODEEG_Images\0188.jpg	NY	Right	Yes	0.736483900109306	0	617318	252
1207.759765625	0.736483900109306	health	choicePhaseStart	3	146	26	foodImage.14	FOODEEG_Images\0188.jpg	NY	Right	Yes	0.736483900109306	0	618374	253
1208.486328125	0	health	response	3	146	26	foodImage.14	FOODEEG_Images\0188.jpg	NY	Right	Yes	0.736483900109306	0	618746	235
1209.52734375	1	health	trialStart	3	147	27	foodImage.49	FOODEEG_Images\0515.jpg	YN	Left	Yes	1.60720730014145	0	619279	251
1210.568359375	2	health	foodImageDisplay	3	147	27	foodImage.49	FOODEEG_Images\0515.jpg	YN	Left	Yes	1.60720730014145	0	619812	252
1212.6328125	1.60720730014145	health	choicePhaseStart	3	147	27	foodImage.49	FOODEEG_Images\0515.jpg	YN	Left	Yes	1.60720730014145	0	620869	253
1214.23046875	0	health	response	3	147	27	foodImage.49	FOODEEG_Images\0515.jpg	YN	Left	Yes	1.60720730014145	0	621687	234
1215.271484375	1	decision	trialStart	3	148	28	foodImage.107	FOODEEG_Images\0915.jpg	NY	Right	Yes	0.780560099985451	0	622220	251
1216.30859375	2	decision	foodImageDisplay	3	148	28	foodImage.107	FOODEEG_Images\0915.jpg	NY	Right	Yes	0.780560099985451	0	622751	252
1218.37109375	0.780560099985451	decision	choicePhaseStart	3	148	28	foodImage.107	FOODEEG_Images\0915.jpg	NY	Right	Yes	0.780560099985451	0	623807	253
1219.142578125	0	decision	response	3	148	28	foodImage.107	FOODEEG_Images\0915.jpg	NY	Right	Yes	0.780560099985451	0	624202	235
1220.185546875	1	decision	trialStart	3	149	29	foodImage.93	FOODEEG_Images\0901.jpg	YN	Left	Yes	1.08632480003871	0	624736	251
1221.224609375	2	decision	foodImageDisplay	3	149	29	foodImage.93	FOODEEG_Images\0901.jpg	YN	Left	Yes	1.08632480003871	0	625268	252
1223.296875	1.08632480003871	decision	choicePhaseStart	3	149	29	foodImage.93	FOODEEG_Images\0901.jpg	YN	Left	Yes	1.08632480003871	0	626329	253
1224.373046875	0	decision	response	3	149	29	foodImage.93	FOODEEG_Images\0901.jpg	YN	Left	Yes	1.08632480003871	0	626880	234
1225.423828125	1	taste	trialStart	3	150	30	foodImage.90	FOODEEG_Images\0890.jpg	NY	Right	Yes	1.55452680005692	0	627418	251
1226.49609375	2	taste	foodImageDisplay	3	150	30	foodImage.90	FOODEEG_Images\0890.jpg	NY	Right	Yes	1.55452680005692	0	627967	252
1228.556640625	1.55452680005692	taste	choicePhaseStart	3	150	30	foodImage.90	FOODEEG_Images\0890.jpg	NY	Right	Yes	1.55452680005692	0	629022	253
1230.1015625	0	taste	response	3	150	30	foodImage.90	FOODEEG_Images\0890.jpg	NY	Right	Yes	1.55452680005692	0	629813	235
1231.146484375	1	health	trialStart	3	151	31	foodImage.17	FOODEEG_Images\0199.jpg	NY	Right	Yes	0.748633800074458	0	630348	251
1232.1875	2	health	foodImageDisplay	3	151	31	foodImage.17	FOODEEG_Images\0199.jpg	NY	Right	Yes	0.748633800074458	0	630881	252
1234.25	0.748633800074458	health	choicePhaseStart	3	151	31	foodImage.17	FOODEEG_Images\0199.jpg	NY	Right	Yes	0.748633800074458	0	631937	253
1234.990234375	0	health	response	3	151	31	foodImage.17	FOODEEG_Images\0199.jpg	NY	Right	Yes	0.748633800074458	0	632316	235
1236.033203125	1	health	trialStart	3	152	32	foodImage.1	FOODEEG_Images\0004.jpg	YN	Right	No	1.45286089996807	0	632850	251
1237.076171875	2	health	foodImageDisplay	3	152	32	foodImage.1	FOODEEG_Images\0004.jpg	YN	Right	No	1.45286089996807	0	633384	252
1239.13671875	1.45286089996807	health	choicePhaseStart	3	152	32	foodImage.1	FOODEEG_Images\0004.jpg	YN	Right	No	1.45286089996807	0	634439	253
1240.58203125	0	health	response	3	152	32	foodImage.1	FOODEEG_Images\0004.jpg	YN	Right	No	1.45286089996807	0	635179	235
1241.62109375	1	taste	trialStart	3	153	33	foodImage.99	FOODEEG_Images\0907.jpg	YN	Left	Yes	1.02104669995606	0	635711	251
1242.658203125	2	taste	foodImageDisplay	3	153	33	foodImage.99	FOODEEG_Images\0907.jpg	YN	Left	Yes	1.02104669995606	0	636242	252
1244.720703125	1.02104669995606	taste	choicePhaseStart	3	153	33	foodImage.99	FOODEEG_Images\0907.jpg	YN	Left	Yes	1.02104669995606	0	637298	253
1245.734375	0	taste	response	3	153	33	foodImage.99	FOODEEG_Images\0907.jpg	YN	Left	Yes	1.02104669995606	0	637817	234
1246.775390625	1	decision	trialStart	3	154	34	foodImage.54	FOODEEG_Images\0560.jpg	NY	Right	Yes	1.70146719994955	0	638350	251
1247.833984375	2	decision	foodImageDisplay	3	154	34	foodImage.54	FOODEEG_Images\0560.jpg	NY	Right	Yes	1.70146719994955	0	638892	252
1249.896484375	1.70146719994955	decision	choicePhaseStart	3	154	34	foodImage.54	FOODEEG_Images\0560.jpg	NY	Right	Yes	1.70146719994955	0	639948	253
1251.58984375	0	decision	response	3	154	34	foodImage.54	FOODEEG_Images\0560.jpg	NY	Right	Yes	1.70146719994955	0	640815	235
1252.630859375	1	health	trialStart	3	155	35	foodImage.44	FOODEEG_Images\0459.jpg	NY	Right	Yes	0.828809200087562	0	641348	251
1253.67578125	2	health	foodImageDisplay	3	155	35	foodImage.44	FOODEEG_Images\0459.jpg	NY	Right	Yes	0.828809200087562	0	641883	252
1255.73828125	0.828809200087562	health	choicePhaseStart	3	155	35	foodImage.44	FOODEEG_Images\0459.jpg	NY	Right	Yes	0.828809200087562	0	642939	253
1256.556640625	0	health	response	3	155	35	foodImage.44	FOODEEG_Images\0459.jpg	NY	Right	Yes	0.828809200087562	0	643358	235
1257.599609375	1	health	trialStart	3	156	36	foodImage.45	FOODEEG_Images\0478.jpg	NY	Right	Yes	1.45058740000241	0	643892	251
1258.646484375	2	health	foodImageDisplay	3	156	36	foodImage.45	FOODEEG_Images\0478.jpg	NY	Right	Yes	1.45058740000241	0	644428	252
1260.708984375	1.45058740000241	health	choicePhaseStart	3	156	36	foodImage.45	FOODEEG_Images\0478.jpg	NY	Right	Yes	1.45058740000241	0	645484	253
1262.1484375	0	health	response	3	156	36	foodImage.45	FOODEEG_Images\0478.jpg	NY	Right	Yes	1.45058740000241	0	646221	235
1263.19140625	1	health	trialStart	3	157	37	foodImage.70	FOODEEG_Images\0705.jpg	YN	Left	Yes	2.22669200017117	0	646755	251
1264.251953125	2	health	foodImageDisplay	3	157	37	foodImage.70	FOODEEG_Images\0705.jpg	YN	Left	Yes	2.22669200017117	0	647298	252
1266.314453125	2.22669200017117	health	choicePhaseStart	3	157	37	foodImage.70	FOODEEG_Images\0705.jpg	YN	Left	Yes	2.22669200017117	0	648354	253
1268.53125	0	health	response	3	157	37	foodImage.70	FOODEEG_Images\0705.jpg	YN	Left	Yes	2.22669200017117	0	649489	234
1269.576171875	1	health	trialStart	3	158	38	foodImage.67	FOODEEG_Images\0679.jpg	YN	Left	Yes	1.25458629988134	0	650024	251
1270.6328125	2	health	foodImageDisplay	3	158	38	foodImage.67	FOODEEG_Images\0679.jpg	YN	Left	Yes	1.25458629988134	0	650565	252
1272.6953125	1.25458629988134	health	choicePhaseStart	3	158	38	foodImage.67	FOODEEG_Images\0679.jpg	YN	Left	Yes	1.25458629988134	0	651621	253
1273.939453125	0	health	response	3	158	38	foodImage.67	FOODEEG_Images\0679.jpg	YN	Left	Yes	1.25458629988134	0	652258	234
1274.982421875	1	decision	trialStart	3	159	39	foodImage.42	FOODEEG_Images\0438.jpg	NY	Right	Yes	1.17047840007581	0	652792	251
1276.068359375	2	decision	foodImageDisplay	3	159	39	foodImage.42	FOODEEG_Images\0438.jpg	NY	Right	Yes	1.17047840007581	0	653348	252
1278.130859375	1.17047840007581	decision	choicePhaseStart	3	159	39	foodImage.42	FOODEEG_Images\0438.jpg	NY	Right	Yes	1.17047840007581	0	654404	253
1279.29296875	0	decision	response	3	159	39	foodImage.42	FOODEEG_Images\0438.jpg	NY	Right	Yes	1.17047840007581	0	654999	235
1280.3359375	1	health	trialStart	3	160	40	foodImage.95	FOODEEG_Images\0903.jpg	YN	Right	No	0.881445300066844	0	655533	251
1281.373046875	2	health	foodImageDisplay	3	160	40	foodImage.95	FOODEEG_Images\0903.jpg	YN	Right	No	0.881445300066844	0	656064	252
1283.435546875	0.881445300066844	health	choicePhaseStart	3	160	40	foodImage.95	FOODEEG_Images\0903.jpg	YN	Right	No	0.881445300066844	0	657120	253
1284.30859375	0	health	response	3	160	40	foodImage.95	FOODEEG_Images\0903.jpg	YN	Right	No	0.881445300066844	0	657567	235
1285.3515625	1	health	trialStart	3	161	41	foodImage.16	FOODEEG_Images\0196.jpg	YN	Left	Yes	2.33076140005141	0	658101	251
1286.41015625	2	health	foodImageDisplay	3	161	41	foodImage.16	FOODEEG_Images\0196.jpg	YN	Left	Yes	2.33076140005141	0	658643	252
1288.47265625	2.33076140005141	health	choicePhaseStart	3	161	41	foodImage.16	FOODEEG_Images\0196.jpg	YN	Left	Yes	2.33076140005141	0	659699	253
1290.794921875	0	health	response	3	161	41	foodImage.16	FOODEEG_Images\0196.jpg	YN	Left	Yes	2.33076140005141	0	660888	234
1291.8359375	1	decision	trialStart	3	162	42	foodImage.43	FOODEEG_Images\0445.jpg	NY	Right	Yes	0.910645200172439	0	661421	251
1292.89453125	2	decision	foodImageDisplay	3	162	42	foodImage.43	FOODEEG_Images\0445.jpg	NY	Right	Yes	0.910645200172439	0	661963	252
1294.95703125	0.910645200172439	decision	choicePhaseStart	3	162	42	foodImage.43	FOODEEG_Images\0445.jpg	NY	Right	Yes	0.910645200172439	0	663019	253
1295.859375	0	decision	response	3	162	42	foodImage.43	FOODEEG_Images\0445.jpg	NY	Right	Yes	0.910645200172439	0	663481	235
1296.900390625	1	decision	trialStart	3	163	43	foodImage.83	FOODEEG_Images\0827.jpg	YN	Left	Yes	0.814452899852768	0	664014	251
1297.955078125	2	decision	foodImageDisplay	3	163	43	foodImage.83	FOODEEG_Images\0827.jpg	YN	Left	Yes	0.814452899852768	0	664554	252
1300.01953125	0.814452899852768	decision	choicePhaseStart	3	163	43	foodImage.83	FOODEEG_Images\0827.jpg	YN	Left	Yes	0.814452899852768	0	665611	253
1300.828125	0	decision	response	3	163	43	foodImage.83	FOODEEG_Images\0827.jpg	YN	Left	Yes	0.814452899852768	0	666025	234
1301.8671875	1	taste	trialStart	3	164	44	foodImage.58	FOODEEG_Images\0605.jpg	YN	Left	Yes	1.00729290000163	0	666557	251
1302.923828125	2	taste	foodImageDisplay	3	164	44	foodImage.58	FOODEEG_Images\0605.jpg	YN	Left	Yes	1.00729290000163	0	667098	252
1304.98828125	1.00729290000163	taste	choicePhaseStart	3	164	44	foodImage.58	FOODEEG_Images\0605.jpg	YN	Left	Yes	1.00729290000163	0	668155	253
1305.98828125	0	taste	response	3	164	44	foodImage.58	FOODEEG_Images\0605.jpg	YN	Left	Yes	1.00729290000163	0	668667	234
1307.03125	1	health	trialStart	3	165	45	foodImage.36	FOODEEG_Images\0352.jpg	YN	Left	Yes	2.11671440000646	0	669201	251
1308.087890625	2	health	foodImageDisplay	3	165	45	foodImage.36	FOODEEG_Images\0352.jpg	YN	Left	Yes	2.11671440000646	0	669742	252
1310.15234375	2.11671440000646	health	choicePhaseStart	3	165	45	foodImage.36	FOODEEG_Images\0352.jpg	YN	Left	Yes	2.11671440000646	0	670799	253
1312.2578125	0	health	response	3	165	45	foodImage.36	FOODEEG_Images\0352.jpg	YN	Left	Yes	2.11671440000646	0	671877	234
1313.302734375	1	decision	trialStart	3	166	46	foodImage.19	FOODEEG_Images\0225.jpg	YN	Left	Yes	1.85947160003707	0	672412	251
1314.345703125	2	decision	foodImageDisplay	3	166	46	foodImage.19	FOODEEG_Images\0225.jpg	YN	Left	Yes	1.85947160003707	0	672946	252
1316.408203125	1.85947160003707	decision	choicePhaseStart	3	166	46	foodImage.19	FOODEEG_Images\0225.jpg	YN	Left	Yes	1.85947160003707	0	674002	253
1318.2578125	0	decision	response	3	166	46	foodImage.19	FOODEEG_Images\0225.jpg	YN	Left	Yes	1.85947160003707	0	674949	234
1319.302734375	1	taste	trialStart	3	167	47	foodImage.87	FOODEEG_Images\0873.jpg	YN	Left	Yes	0.890569900162518	0	675484	251
1320.361328125	2	taste	foodImageDisplay	3	167	47	foodImage.87	FOODEEG_Images\0873.jpg	YN	Left	Yes	0.890569900162518	0	676026	252
1322.423828125	0.890569900162518	taste	choicePhaseStart	3	167	47	foodImage.87	FOODEEG_Images\0873.jpg	YN	Left	Yes	0.890569900162518	0	677082	253
1323.306640625	0	taste	response	3	167	47	foodImage.87	FOODEEG_Images\0873.jpg	YN	Left	Yes	0.890569900162518	0	677534	234
1324.349609375	1	decision	trialStart	3	168	48	foodImage.59	FOODEEG_Images\0607.jpg	YN	Right	No	0.700811500195414	0	678068	251
1325.39453125	2	decision	foodImageDisplay	3	168	48	foodImage.59	FOODEEG_Images\0607.jpg	YN	Right	No	0.700811500195414	0	678603	252
1327.4609375	0.700811500195414	decision	choicePhaseStart	3	168	48	foodImage.59	FOODEEG_Images\0607.jpg	YN	Right	No	0.700811500195414	0	679661	253
1328.154296875	0	decision	response	3	168	48	foodImage.59	FOODEEG_Images\0607.jpg	YN	Right	No	0.700811500195414	0	680016	235
1329.197265625	1	decision	trialStart	3	169	49	foodImage.89	FOODEEG_Images\0881.jpg	YN	Left	Yes	1.77289319992997	0	680550	251
1330.251953125	2	decision	foodImageDisplay	3	169	49	foodImage.89	FOODEEG_Images\0881.jpg	YN	Left	Yes	1.77289319992997	0	681090	252
1332.314453125	1.77289319992997	decision	choicePhaseStart	3	169	49	foodImage.89	FOODEEG_Images\0881.jpg	YN	Left	Yes	1.77289319992997	0	682146	253
1334.08203125	0	decision	response	3	169	49	foodImage.89	FOODEEG_Images\0881.jpg	YN	Left	Yes	1.77289319992997	0	683051	234
1335.125	1	health	trialStart	3	170	50	foodImage.113	FOODEEG_Images\0921.jpg	YN	Left	Yes	0.61966779991053	0	683585	251
1336.166015625	2	health	foodImageDisplay	3	170	50	foodImage.113	FOODEEG_Images\0921.jpg	YN	Left	Yes	0.61966779991053	0	684118	252
1338.228515625	0.61966779991053	health	choicePhaseStart	3	170	50	foodImage.113	FOODEEG_Images\0921.jpg	YN	Left	Yes	0.61966779991053	0	685174	253
1338.841796875	0	health	response	3	170	50	foodImage.113	FOODEEG_Images\0921.jpg	YN	Left	Yes	0.61966779991053	0	685488	234
1339.884765625	1	decision	trialStart	3	171	51	foodImage.46	FOODEEG_Images\0479.jpg	NY	Right	Yes	1.27090909983963	0	686022	251
1340.943359375	2	decision	foodImageDisplay	3	171	51	foodImage.46	FOODEEG_Images\0479.jpg	NY	Right	Yes	1.27090909983963	0	686564	252
1343.00390625	1.27090909983963	decision	choicePhaseStart	3	171	51	foodImage.46	FOODEEG_Images\0479.jpg	NY	Right	Yes	1.27090909983963	0	687619	253
1344.265625	0	decision	response	3	171	51	foodImage.46	FOODEEG_Images\0479.jpg	NY	Right	Yes	1.27090909983963	0	688265	235
1345.30859375	1	taste	trialStart	3	172	52	foodImage.100	FOODEEG_Images\0908.jpg	NY	Right	Yes	1.43082829983905	0	688799	251
1346.34765625	2	taste	foodImageDisplay	3	172	52	foodImage.100	FOODEEG_Images\0908.jpg	NY	Right	Yes	1.43082829983905	0	689331	252
1348.412109375	1.43082829983905	taste	choicePhaseStart	3	172	52	foodImage.100	FOODEEG_Images\0908.jpg	NY	Right	Yes	1.43082829983905	0	690388	253
1349.83203125	0	taste	response	3	172	52	foodImage.100	FOODEEG_Images\0908.jpg	NY	Right	Yes	1.43082829983905	0	691115	235
1350.876953125	1	taste	trialStart	3	173	53	foodImage.119	FOODEEG_Images\0927.jpg	NY	Right	Yes	1.4468083998654	0	691650	251
1351.916015625	2	taste	foodImageDisplay	3	173	53	foodImage.119	FOODEEG_Images\0927.jpg	NY	Right	Yes	1.4468083998654	0	692182	252
1353.98046875	1.4468083998654	taste	choicePhaseStart	3	173	53	foodImage.119	FOODEEG_Images\0927.jpg	NY	Right	Yes	1.4468083998654	0	693239	253
1355.41796875	0	taste	response	3	173	53	foodImage.119	FOODEEG_Images\0927.jpg	NY	Right	Yes	1.4468083998654	0	693975	235
1356.4609375	1	decision	trialStart	3	174	54	foodImage.2	FOODEEG_Images\0028.jpg	NY	Right	Yes	0.915088400011882	0	694509	251
1357.5234375	2	decision	foodImageDisplay	3	174	54	foodImage.2	FOODEEG_Images\0028.jpg	NY	Right	Yes	0.915088400011882	0	695053	252
1359.58984375	0.915088400011882	decision	choicePhaseStart	3	174	54	foodImage.2	FOODEEG_Images\0028.jpg	NY	Right	Yes	0.915088400011882	0	696111	253
1360.49609375	0	decision	response	3	174	54	foodImage.2	FOODEEG_Images\0028.jpg	NY	Right	Yes	0.915088400011882	0	696575	235
1361.541015625	1	taste	trialStart	3	175	55	foodImage.53	FOODEEG_Images\0547.jpg	NY	Right	Yes	1.1526818999555	0	697110	251
1362.623046875	2	taste	foodImageDisplay	3	175	55	foodImage.53	FOODEEG_Images\0547.jpg	NY	Right	Yes	1.1526818999555	0	697664	252
1364.689453125	1.1526818999555	taste	choicePhaseStart	3	175	55	foodImage.53	FOODEEG_Images\0547.jpg	NY	Right	Yes	1.1526818999555	0	698722	253
1365.83203125	0	taste	response	3	175	55	foodImage.53	FOODEEG_Images\0547.jpg	NY	Right	Yes	1.1526818999555	0	699307	235
1366.876953125	1	taste	trialStart	3	176	56	foodImage.3	FOODEEG_Images\0046.jpg	NY	Right	Yes	1.59470889996737	0	699842	251
1367.919921875	2	taste	foodImageDisplay	3	176	56	foodImage.3	FOODEEG_Images\0046.jpg	NY	Right	Yes	1.59470889996737	0	700376	252
1369.982421875	1.59470889996737	taste	choicePhaseStart	3	176	56	foodImage.3	FOODEEG_Images\0046.jpg	NY	Right	Yes	1.59470889996737	0	701432	253
1371.568359375	0	taste	response	3	176	56	foodImage.3	FOODEEG_Images\0046.jpg	NY	Right	Yes	1.59470889996737	0	702244	235
1372.611328125	1	health	trialStart	3	177	57	foodImage.19	FOODEEG_Images\0225.jpg	NY	Right	Yes	1.09461280005053	0	702778	251
1373.65625	2	health	foodImageDisplay	3	177	57	foodImage.19	FOODEEG_Images\0225.jpg	NY	Right	Yes	1.09461280005053	0	703313	252
1375.72265625	1.09461280005053	health	choicePhaseStart	3	177	57	foodImage.19	FOODEEG_Images\0225.jpg	NY	Right	Yes	1.09461280005053	0	704371	253
1376.80859375	0	health	response	3	177	57	foodImage.19	FOODEEG_Images\0225.jpg	NY	Right	Yes	1.09461280005053	0	704927	235
1377.849609375	1	decision	trialStart	3	178	58	foodImage.32	FOODEEG_Images\0319.jpg	NY	Right	Yes	2.15516919991933	0	705460	251
1378.89453125	2	decision	foodImageDisplay	3	178	58	foodImage.32	FOODEEG_Images\0319.jpg	NY	Right	Yes	2.15516919991933	0	705995	252
1380.95703125	2.15516919991933	decision	choicePhaseStart	3	178	58	foodImage.32	FOODEEG_Images\0319.jpg	NY	Right	Yes	2.15516919991933	0	707051	253
1383.103515625	0	decision	response	3	178	58	foodImage.32	FOODEEG_Images\0319.jpg	NY	Right	Yes	2.15516919991933	0	708150	235
1384.146484375	1	taste	trialStart	3	179	59	foodImage.71	FOODEEG_Images\0713.jpg	YN	Left	Yes	0.774197999853641	0	708684	251
1385.189453125	2	taste	foodImageDisplay	3	179	59	foodImage.71	FOODEEG_Images\0713.jpg	YN	Left	Yes	0.774197999853641	0	709218	252
1387.251953125	0.774197999853641	taste	choicePhaseStart	3	179	59	foodImage.71	FOODEEG_Images\0713.jpg	YN	Left	Yes	0.774197999853641	0	710274	253
1388.015625	0	taste	response	3	179	59	foodImage.71	FOODEEG_Images\0713.jpg	YN	Left	Yes	0.774197999853641	0	710665	234
1389.05859375	1	health	trialStart	3	180	60	foodImage.27	FOODEEG_Images\0263.jpg	NY	Right	Yes	1.02820519986562	0	711199	251
1390.1015625	2	health	foodImageDisplay	3	180	60	foodImage.27	FOODEEG_Images\0263.jpg	NY	Right	Yes	1.02820519986562	0	711733	252
1392.166015625	1.02820519986562	health	choicePhaseStart	3	180	60	foodImage.27	FOODEEG_Images\0263.jpg	NY	Right	Yes	1.02820519986562	0	712790	253
1393.18359375	0	health	response	3	180	60	foodImage.27	FOODEEG_Images\0263.jpg	NY	Right	Yes	1.02820519986562	0	713311	235
1395.228515625	13.732421875	n/a	blockEnd	n/a	n/a	n/a	n/a	n/a	n/a	n/a	n/a	n/a	n/a	714358	254
1408.9609375	2	n/a	blockStart	4	n/a	n/a	n/a	n/a	n/a	n/a	n/a	n/a	n/a	721389	250
1410.994140625	1	decision	trialStart	4	181	1	foodImage.40	FOODEEG_Images\0373.jpg	YN	Left	Yes	0.976579299895093	0	722430	251
1412.037109375	2	decision	foodImageDisplay	4	181	1	foodImage.40	FOODEEG_Images\0373.jpg	YN	Left	Yes	0.976579299895093	0	722964	252
1414.099609375	0.976579299895093	decision	choicePhaseStart	4	181	1	foodImage.40	FOODEEG_Images\0373.jpg	YN	Left	Yes	0.976579299895093	0	724020	253
1415.0703125	0	decision	response	4	181	1	foodImage.40	FOODEEG_Images\0373.jpg	YN	Left	Yes	0.976579299895093	0	724517	234
1416.115234375	1	health	trialStart	4	182	2	foodImage.110	FOODEEG_Images\0918.jpg	YN	Right	No	2.91779690003023	0	725052	251
1417.154296875	2	health	foodImageDisplay	4	182	2	foodImage.110	FOODEEG_Images\0918.jpg	YN	Right	No	2.91779690003023	0	725584	252
1419.21875	2.91779690003023	health	choicePhaseStart	4	182	2	foodImage.110	FOODEEG_Images\0918.jpg	YN	Right	No	2.91779690003023	0	726641	253
1422.126953125	0	health	response	4	182	2	foodImage.110	FOODEEG_Images\0918.jpg	YN	Right	No	2.91779690003023	0	728130	235
1423.169921875	1	taste	trialStart	4	183	3	foodImage.49	FOODEEG_Images\0515.jpg	YN	Left	Yes	0.979124699952081	0	728664	251
1424.212890625	2	taste	foodImageDisplay	4	183	3	foodImage.49	FOODEEG_Images\0515.jpg	YN	Left	Yes	0.979124699952081	0	729198	252
1426.27734375	0.979124699952081	taste	choicePhaseStart	4	183	3	foodImage.49	FOODEEG_Images\0515.jpg	YN	Left	Yes	0.979124699952081	0	730255	253
1427.24609375	0	taste	response	4	183	3	foodImage.49	FOODEEG_Images\0515.jpg	YN	Left	Yes	0.979124699952081	0	730751	234
1428.2890625	1	taste	trialStart	4	184	4	foodImage.15	FOODEEG_Images\0189.jpg	NY	Left	No	1.07560839992948	0	731285	251
1429.345703125	2	taste	foodImageDisplay	4	184	4	foodImage.15	FOODEEG_Images\0189.jpg	NY	Left	No	1.07560839992948	0	731826	252
1431.412109375	1.07560839992948	taste	choicePhaseStart	4	184	4	foodImage.15	FOODEEG_Images\0189.jpg	NY	Left	No	1.07560839992948	0	732884	253
1432.478515625	0	taste	response	4	184	4	foodImage.15	FOODEEG_Images\0189.jpg	NY	Left	No	1.07560839992948	0	733430	234
1433.5234375	1	taste	trialStart	4	185	5	foodImage.45	FOODEEG_Images\0478.jpg	NY	Right	Yes	2.05593739985488	0	733965	251
1434.56640625	2	taste	foodImageDisplay	4	185	5	foodImage.45	FOODEEG_Images\0478.jpg	NY	Right	Yes	2.05593739985488	0	734499	252
1436.630859375	2.05593739985488	taste	choicePhaseStart	4	185	5	foodImage.45	FOODEEG_Images\0478.jpg	NY	Right	Yes	2.05593739985488	0	735556	253
1438.677734375	0	taste	response	4	185	5	foodImage.45	FOODEEG_Images\0478.jpg	NY	Right	Yes	2.05593739985488	0	736604	235
1439.720703125	1	decision	trialStart	4	186	6	foodImage.100	FOODEEG_Images\0908.jpg	YN	Left	Yes	2.17624630010687	0	737138	251
1440.7578125	2	decision	foodImageDisplay	4	186	6	foodImage.100	FOODEEG_Images\0908.jpg	YN	Left	Yes	2.17624630010687	0	737669	252
1442.822265625	2.17624630010687	decision	choicePhaseStart	4	186	6	foodImage.100	FOODEEG_Images\0908.jpg	YN	Left	Yes	2.17624630010687	0	738726	253
1444.990234375	0	decision	response	4	186	6	foodImage.100	FOODEEG_Images\0908.jpg	YN	Left	Yes	2.17624630010687	0	739836	234
1446.033203125	1	decision	trialStart	4	187	7	foodImage.7	FOODEEG_Images\0116.jpg	NY	Right	Yes	1.23065399983898	0	740370	251
1447.07421875	2	decision	foodImageDisplay	4	187	7	foodImage.7	FOODEEG_Images\0116.jpg	NY	Right	Yes	1.23065399983898	0	740903	252
1449.13671875	1.23065399983898	decision	choicePhaseStart	4	187	7	foodImage.7	FOODEEG_Images\0116.jpg	NY	Right	Yes	1.23065399983898	0	741959	253
1450.357421875	0	decision	response	4	187	7	foodImage.7	FOODEEG_Images\0116.jpg	NY	Right	Yes	1.23065399983898	0	742584	235
1451.400390625	1	health	trialStart	4	188	8	foodImage.75	FOODEEG_Images\0763.jpg	YN	Left	Yes	0.688901500077918	0	743118	251
1452.4453125	2	health	foodImageDisplay	4	188	8	foodImage.75	FOODEEG_Images\0763.jpg	YN	Left	Yes	0.688901500077918	0	743653	252
1454.509765625	0.688901500077918	health	choicePhaseStart	4	188	8	foodImage.75	FOODEEG_Images\0763.jpg	YN	Left	Yes	0.688901500077918	0	744710	253
1455.189453125	0	health	response	4	188	8	foodImage.75	FOODEEG_Images\0763.jpg	YN	Left	Yes	0.688901500077918	0	745058	234
1456.232421875	1	health	trialStart	4	189	9	foodImage.65	FOODEEG_Images\0658.jpg	YN	Right	No	1.61897649988532	0	745592	251
1457.283203125	2	health	foodImageDisplay	4	189	9	foodImage.65	FOODEEG_Images\0658.jpg	YN	Right	No	1.61897649988532	0	746130	252
1459.34765625	1.61897649988532	health	choicePhaseStart	4	189	9	foodImage.65	FOODEEG_Images\0658.jpg	YN	Right	No	1.61897649988532	0	747187	253
1460.95703125	0	health	response	4	189	9	foodImage.65	FOODEEG_Images\0658.jpg	YN	Right	No	1.61897649988532	0	748011	235
1461.998046875	1	taste	trialStart	4	190	10	foodImage.78	FOODEEG_Images\0787.jpg	YN	Left	Yes	0.599237299989909	0	748544	251
1463.046875	2	taste	foodImageDisplay	4	190	10	foodImage.78	FOODEEG_Images\0787.jpg	YN	Left	Yes	0.599237299989909	0	749081	252
1465.111328125	0.599237299989909	taste	choicePhaseStart	4	190	10	foodImage.78	FOODEEG_Images\0787.jpg	YN	Left	Yes	0.599237299989909	0	750138	253
1465.701171875	0	taste	response	4	190	10	foodImage.78	FOODEEG_Images\0787.jpg	YN	Left	Yes	0.599237299989909	0	750440	234
1466.75	1	decision	trialStart	4	191	11	foodImage.13	FOODEEG_Images\0183.jpg	NY	Right	Yes	1.05076880007982	0	750977	251
1467.79296875	2	decision	foodImageDisplay	4	191	11	foodImage.13	FOODEEG_Images\0183.jpg	NY	Right	Yes	1.05076880007982	0	751511	252
1469.859375	1.05076880007982	decision	choicePhaseStart	4	191	11	foodImage.13	FOODEEG_Images\0183.jpg	NY	Right	Yes	1.05076880007982	0	752569	253
1470.900390625	0	decision	response	4	191	11	foodImage.13	FOODEEG_Images\0183.jpg	NY	Right	Yes	1.05076880007982	0	753102	235
1471.94140625	1	taste	trialStart	4	192	12	foodImage.91	FOODEEG_Images\0896.jpg	NY	Right	Yes	1.12717270012945	0	753635	251
1472.998046875	2	taste	foodImageDisplay	4	192	12	foodImage.91	FOODEEG_Images\0896.jpg	NY	Right	Yes	1.12717270012945	0	754176	252
1475.0625	1.12717270012945	taste	choicePhaseStart	4	192	12	foodImage.91	FOODEEG_Images\0896.jpg	NY	Right	Yes	1.12717270012945	0	755233	253
1476.1796875	0	taste	response	4	192	12	foodImage.91	FOODEEG_Images\0896.jpg	NY	Right	Yes	1.12717270012945	0	755805	235
