onset	duration	trial_type	event_type	block	trial_total	trial_in_block	food_image_code	food_image_path	button_position	resp_position	resp_choice	choice_rt	resp_too_slow	sample	trigger
283.1328125	2	n/a	blockStart	1	n/a	n/a	n/a	n/a	n/a	n/a	n/a	n/a	n/a	144965	250
285.171875	1	health	trialStart	1	1	1	foodImage.107	FOODEEG_Images\0915.jpg	YN	Right	No	1.19863140000962	0	146009	251
286.21484375	2	health	foodImageDisplay	1	1	1	foodImage.107	FOODEEG_Images\0915.jpg	YN	Right	No	1.19863140000962	0	146543	252
288.28125	1.19863140000962	health	choicePhaseStart	1	1	1	foodImage.107	FOODEEG_Images\0915.jpg	YN	Right	No	1.19863140000962	0	147601	253
289.47265625	0	health	response	1	1	1	foodImage.107	FOODEEG_Images\0915.jpg	YN	Right	No	1.19863140000962	0	148211	235
290.57421875	1	taste	trialStart	1	2	2	foodImage.3	FOODEEG_Images\0046.jpg	YN	Left	Yes	0.675476799951866	0	148775	251
291.619140625	2	taste	foodImageDisplay	1	2	2	foodImage.3	FOODEEG_Images\0046.jpg	YN	Left	Yes	0.675476799951866	0	149310	252
293.685546875	0.675476799951866	taste	choicePhaseStart	1	2	2	foodImage.3	FOODEEG_Images\0046.jpg	YN	Left	Yes	0.675476799951866	0	150368	253
294.3515625	0	taste	response	1	2	2	foodImage.3	FOODEEG_Images\0046.jpg	YN	Left	Yes	0.675476799951866	0	150709	234
295.412109375	1	decision	trialStart	1	3	3	foodImage.63	FOODEEG_Images\0645.jpg	YN	Left	Yes	0.999095099978149	0	151252	251
296.45703125	2	decision	foodImageDisplay	1	3	3	foodImage.63	FOODEEG_Images\0645.jpg	YN	Left	Yes	0.999095099978149	0	151787	252
298.521484375	0.999095099978149	decision	choicePhaseStart	1	3	3	foodImage.63	FOODEEG_Images\0645.jpg	YN	Left	Yes	0.999095099978149	0	152844	253
299.51171875	0	decision	response	1	3	3	foodImage.63	FOODEEG_Images\0645.jpg	YN	Left	Yes	0.999095099978149	0	153351	234
300.5546875	1	decision	trialStart	1	4	4	foodImage.70	FOODEEG_Images\0705.jpg	YN	Right	No	1.57035329996143	0	153885	251
301.61328125	2	decision	foodImageDisplay	1	4	4	foodImage.70	FOODEEG_Images\0705.jpg	YN	Right	No	1.57035329996143	0	154427	252
303.677734375	1.57035329996143	decision	choicePhaseStart	1	4	4	foodImage.70	FOODEEG_Images\0705.jpg	YN	Right	No	1.57035329996143	0	155484	253
305.240234375	0	decision	response	1	4	4	foodImage.70	FOODEEG_Images\0705.jpg	YN	Right	No	1.57035329996143	0	156284	235
306.283203125	1	decision	trialStart	1	5	5	foodImage.91	FOODEEG_Images\0896.jpg	NY	Left	No	1.31749459996354	0	156818	251
307.34375	2	decision	foodImageDisplay	1	5	5	foodImage.91	FOODEEG_Images\0896.jpg	NY	Left	No	1.31749459996354	0	157361	252
309.408203125	1.31749459996354	decision	choicePhaseStart	1	5	5	foodImage.91	FOODEEG_Images\0896.jpg	NY	Left	No	1.31749459996354	0	158418	253
310.71875	0	decision	response	1	5	5	foodImage.91	FOODEEG_Images\0896.jpg	NY	Left	No	1.31749459996354	0	159089	234
311.767578125	1	taste	trialStart	1	6	6	foodImage.36	FOODEEG_Images\0352.jpg	YN	Left	Yes	0.945683300029486	0	159626	251
312.828125	2	taste	foodImageDisplay	1	6	6	foodImage.36	FOODEEG_Images\0352.jpg	YN	Left	Yes	0.945683300029486	0	160169	252
314.892578125	0.945683300029486	taste	choicePhaseStart	1	6	6	foodImage.36	FOODEEG_Images\0352.jpg	YN	Left	Yes	0.945683300029486	0	161226	253
315.83203125	0	taste	response	1	6	6	foodImage.36	FOODEEG_Images\0352.jpg	YN	Left	Yes	0.945683300029486	0	161707	234
316.875	1	health	trialStart	1	7	7	foodImage.101	FOODEEG_Images\0909.jpg	YN	Right	No	0.942442199913785	0	162241	251
317.9140625	2	health	foodImageDisplay	1	7	7	foodImage.101	FOODEEG_Images\0909.jpg	YN	Right	No	0.942442199913785	0	162773	252
319.9765625	0.942442199913785	health	choicePhaseStart	1	7	7	foodImage.101	FOODEEG_Images\0909.jpg	YN	Right	No	0.942442199913785	0	163829	253
320.91015625	0	health	response	1	7	7	foodImage.101	FOODEEG_Images\0909.jpg	YN	Right	No	0.942442199913785	0	164307	235
321.955078125	1	health	trialStart	1	8	8	foodImage.46	FOODEEG_Images\0479.jpg	YN	Left	Yes	0.783917299937457	0	164842	251
323.01171875	2	health	foodImageDisplay	1	8	8	foodImage.46	FOODEEG_Images\0479.jpg	YN	Left	Yes	0.783917299937457	0	165383	252
325.080078125	0.783917299937457	health	choicePhaseStart	1	8	8	foodImage.46	FOODEEG_Images\0479.jpg	YN	Left	Yes	0.783917299937457	0	166442	253
325.85546875	0	health	response	1	8	8	foodImage.46	FOODEEG_Images\0479.jpg	YN	Left	Yes	0.783917299937457	0	166839	234
326.8984375	1	decision	trialStart	1	9	9	foodImage.67	FOODEEG_Images\0679.jpg	YN	Left	Yes	0.74224450008478	0	167373	251
327.958984375	2	decision	foodImageDisplay	1	9	9	foodImage.67	FOODEEG_Images\0679.jpg	YN	Left	Yes	0.74224450008478	0	167916	252
330.025390625	0.74224450008478	decision	choicePhaseStart	1	9	9	foodImage.67	FOODEEG_Images\0679.jpg	YN	Left	Yes	0.74224450008478	0	168974	253
330.7578125	0	decision	response	1	9	9	foodImage.67	FOODEEG_Images\0679.jpg	YN	Left	Yes	0.74224450008478	0	169349	234
331.80859375	1	taste	trialStart	1	10	10	foodImage.54	FOODEEG_Images\0560.jpg	NY	Right	Yes	2.53255160001572	0	169887	251
332.865234375	2	taste	foodImageDisplay	1	10	10	foodImage.54	FOODEEG_Images\0560.jpg	NY	Right	Yes	2.53255160001572	0	170428	252
334.9296875	2.53255160001572	taste	choicePhaseStart	1	10	10	foodImage.54	FOODEEG_Images\0560.jpg	NY	Right	Yes	2.53255160001572	0	171485	253
337.455078125	0	taste	response	1	10	10	foodImage.54	FOODEEG_Images\0560.jpg	NY	Right	Yes	2.53255160001572	0	172778	235
338.49609375	1	decision	trialStart	1	11	11	foodImage.32	FOODEEG_Images\0319.jpg	NY	Right	Yes	0.79536210000515	0	173311	251
339.5390625	2	decision	foodImageDisplay	1	11	11	foodImage.32	FOODEEG_Images\0319.jpg	NY	Right	Yes	0.79536210000515	0	173845	252
341.603515625	0.79536210000515	decision	choicePhaseStart	1	11	11	foodImage.32	FOODEEG_Images\0319.jpg	NY	Right	Yes	0.79536210000515	0	174902	253
342.392578125	0	decision	response	1	11	11	foodImage.32	FOODEEG_Images\0319.jpg	NY	Right	Yes	0.79536210000515	0	175306	235
343.43359375	1	decision	trialStart	1	12	12	foodImage.19	FOODEEG_Images\0225.jpg	NY	Right	Yes	0.818803800037131	0	175839	251
344.4765625	2	decision	foodImageDisplay	1	12	12	foodImage.19	FOODEEG_Images\0225.jpg	NY	Right	Yes	0.818803800037131	0	176373	252
346.5390625	0.818803800037131	decision	choicePhaseStart	1	12	12	foodImage.19	FOODEEG_Images\0225.jpg	NY	Right	Yes	0.818803800037131	0	177429	253
347.349609375	0	decision	response	1	12	12	foodImage.19	FOODEEG_Images\0225.jpg	NY	Right	Yes	0.818803800037131	0	177844	235
348.392578125	1	health	trialStart	1	13	13	foodImage.79	FOODEEG_Images\0794.jpg	YN	Left	Yes	1.25903079996351	0	178378	251
349.435546875	2	health	foodImageDisplay	1	13	13	foodImage.79	FOODEEG_Images\0794.jpg	YN	Left	Yes	1.25903079996351	0	178912	252
351.5	1.25903079996351	health	choicePhaseStart	1	13	13	foodImage.79	FOODEEG_Images\0794.jpg	YN	Left	Yes	1.25903079996351	0	179969	253
352.75	0	health	response	1	13	13	foodImage.79	FOODEEG_Images\0794.jpg	YN	Left	Yes	1.25903079996351	0	180609	234
353.791015625	1	decision	trialStart	1	14	14	foodImage.50	FOODEEG_Images\0529.jpg	NY	Left	No	1.36199609993491	0	181142	251
354.8515625	2	decision	foodImageDisplay	1	14	14	foodImage.50	FOODEEG_Images\0529.jpg	NY	Left	No	1.36199609993491	0	181685	252
356.9140625	1.36199609993491	decision	choicePhaseStart	1	14	14	foodImage.50	FOODEEG_Images\0529.jpg	NY	Left	No	1.36199609993491	0	182741	253
358.26953125	0	decision	response	1	14	14	foodImage.50	FOODEEG_Images\0529.jpg	NY	Left	No	1.36199609993491	0	183435	234
359.310546875	1	taste	trialStart	1	15	15	foodImage.65	FOODEEG_Images\0658.jpg	NY	Left	No	0.853917000000365	0	183968	251
360.3515625	2	taste	foodImageDisplay	1	15	15	foodImage.65	FOODEEG_Images\0658.jpg	NY	Left	No	0.853917000000365	0	184501	252
362.421875	0.853917000000365	taste	choicePhaseStart	1	15	15	foodImage.65	FOODEEG_Images\0658.jpg	NY	Left	No	0.853917000000365	0	185561	253
363.26953125	0	taste	response	1	15	15	foodImage.65	FOODEEG_Images\0658.jpg	NY	Left	No	0.853917000000365	0	185995	234
364.30859375	1	health	trialStart	1	16	16	foodImage.98	FOODEEG_Images\0906.jpg	YN	Right	No	1.29724450001959	0	186527	251
365.34765625	2	health	foodImageDisplay	1	16	16	foodImage.98	FOODEEG_Images\0906.jpg	YN	Right	No	1.29724450001959	0	187059	252
367.412109375	1.29724450001959	health	choicePhaseStart	1	16	16	foodImage.98	FOODEEG_Images\0906.jpg	YN	Right	No	1.29724450001959	0	188116	253
368.701171875	0	health	response	1	16	16	foodImage.98	FOODEEG_Images\0906.jpg	YN	Right	No	1.29724450001959	0	188776	235
369.7421875	1	health	trialStart	1	17	17	foodImage.15	FOODEEG_Images\0189.jpg	NY	Left	No	1.49973869998939	0	189309	251
370.802734375	2	health	foodImageDisplay	1	17	17	foodImage.15	FOODEEG_Images\0189.jpg	NY	Left	No	1.49973869998939	0	189852	252
372.8671875	1.49973869998939	health	choicePhaseStart	1	17	17	foodImage.15	FOODEEG_Images\0189.jpg	NY	Left	No	1.49973869998939	0	190909	253
374.357421875	0	health	response	1	17	17	foodImage.15	FOODEEG_Images\0189.jpg	NY	Left	No	1.49973869998939	0	191672	234
375.396484375	1	health	trialStart	1	18	18	foodImage.70	FOODEEG_Images\0705.jpg	YN	Left	Yes	1.22269940003753	0	192204	251
376.453125	2	health	foodImageDisplay	1	18	18	foodImage.70	FOODEEG_Images\0705.jpg	YN	Left	Yes	1.22269940003753	0	192745	252
378.51953125	1.22269940003753	health	choicePhaseStart	1	18	18	foodImage.70	FOODEEG_Images\0705.jpg	YN	Left	Yes	1.22269940003753	0	193803	253
379.732421875	0	health	response	1	18	18	foodImage.70	FOODEEG_Images\0705.jpg	YN	Left	Yes	1.22269940003753	0	194424	234
380.775390625	1	taste	trialStart	1	19	19	foodImage.117	FOODEEG_Images\0925.jpg	NY	Left	No	0.8704996999586	0	194958	251
381.814453125	2	taste	foodImageDisplay	1	19	19	foodImage.117	FOODEEG_Images\0925.jpg	NY	Left	No	0.8704996999586	0	195490	252
383.87890625	0.8704996999586	taste	choicePhaseStart	1	19	19	foodImage.117	FOODEEG_Images\0925.jpg	NY	Left	No	0.8704996999586	0	196547	253
384.740234375	0	taste	response	1	19	19	foodImage.117	FOODEEG_Images\0925.jpg	NY	Left	No	0.8704996999586	0	196988	234
385.78125	1	decision	trialStart	1	20	20	foodImage.52	FOODEEG_Images\0539.jpg	NY	Right	Yes	0.962150700041093	0	197521	251
386.841796875	2	decision	foodImageDisplay	1	20	20	foodImage.52	FOODEEG_Images\0539.jpg	NY	Right	Yes	0.962150700041093	0	198064	252
388.908203125	0.962150700041093	decision	choicePhaseStart	1	20	20	foodImage.52	FOODEEG_Images\0539.jpg	NY	Right	Yes	0.962150700041093	0	199122	253
389.859375	0	decision	response	1	20	20	foodImage.52	FOODEEG_Images\0539.jpg	NY	Right	Yes	0.962150700041093	0	199609	235
390.900390625	1	health	trialStart	1	21	21	foodImage.30	FOODEEG_Images\0282.jpg	NY	Right	Yes	0.864275799947791	0	200142	251
391.94140625	2	health	foodImageDisplay	1	21	21	foodImage.30	FOODEEG_Images\0282.jpg	NY	Right	Yes	0.864275799947791	0	200675	252
394.00390625	0.864275799947791	health	choicePhaseStart	1	21	21	foodImage.30	FOODEEG_Images\0282.jpg	NY	Right	Yes	0.864275799947791	0	201731	253
394.859375	0	health	response	1	21	21	foodImage.30	FOODEEG_Images\0282.jpg	NY	Right	Yes	0.864275799947791	0	202169	235
395.90625	1	decision	trialStart	1	22	22	foodImage.79	FOODEEG_Images\0794.jpg	NY	Right	Yes	0.776669799932279	0	202705	251
396.94921875	2	decision	foodImageDisplay	1	22	22	foodImage.79	FOODEEG_Images\0794.jpg	NY	Right	Yes	0.776669799932279	0	203239	252
399.01171875	0.776669799932279	decision	choicePhaseStart	1	22	22	foodImage.79	FOODEEG_Images\0794.jpg	NY	Right	Yes	0.776669799932279	0	204295	253
399.779296875	0	decision	response	1	22	22	foodImage.79	FOODEEG_Images\0794.jpg	NY	Right	Yes	0.776669799932279	0	204688	235
400.822265625	1	health	trialStart	1	23	23	foodImage.12	FOODEEG_Images\0181.jpg	YN	Left	Yes	1.63352349994238	0	205222	251
401.8671875	2	health	foodImageDisplay	1	23	23	foodImage.12	FOODEEG_Images\0181.jpg	YN	Left	Yes	1.63352349994238	0	205757	252
403.931640625	1.63352349994238	health	choicePhaseStart	1	23	23	foodImage.12	FOODEEG_Images\0181.jpg	YN	Left	Yes	1.63352349994238	0	206814	253
405.556640625	0	health	response	1	23	23	foodImage.12	FOODEEG_Images\0181.jpg	YN	Left	Yes	1.63352349994238	0	207646	234
406.59765625	1	health	trialStart	1	24	24	foodImage.59	FOODEEG_Images\0607.jpg	YN	Right	No	1.13755790004507	0	208179	251
407.64453125	2	health	foodImageDisplay	1	24	24	foodImage.59	FOODEEG_Images\0607.jpg	YN	Right	No	1.13755790004507	0	208715	252
409.70703125	1.13755790004507	health	choicePhaseStart	1	24	24	foodImage.59	FOODEEG_Images\0607.jpg	YN	Right	No	1.13755790004507	0	209771	253
410.8359375	0	health	response	1	24	24	foodImage.59	FOODEEG_Images\0607.jpg	YN	Right	No	1.13755790004507	0	210349	235
411.87890625	1	taste	trialStart	1	25	25	foodImage.26	FOODEEG_Images\0262.jpg	YN	Left	Yes	1.08250099990983	0	210883	251
412.921875	2	taste	foodImageDisplay	1	25	25	foodImage.26	FOODEEG_Images\0262.jpg	YN	Left	Yes	1.08250099990983	0	211417	252
414.986328125	1.08250099990983	taste	choicePhaseStart	1	25	25	foodImage.26	FOODEEG_Images\0262.jpg	YN	Left	Yes	1.08250099990983	0	212474	253
416.05859375	0	taste	response	1	25	25	foodImage.26	FOODEEG_Images\0262.jpg	YN	Left	Yes	1.08250099990983	0	213023	234
417.1015625	1	decision	trialStart	1	26	26	foodImage.23	FOODEEG_Images\0244.jpg	NY	Right	Yes	0.785419399966486	0	213557	251
418.14453125	2	decision	foodImageDisplay	1	26	26	foodImage.23	FOODEEG_Images\0244.jpg	NY	Right	Yes	0.785419399966486	0	214091	252
420.208984375	0.785419399966486	decision	choicePhaseStart	1	26	26	foodImage.23	FOODEEG_Images\0244.jpg	NY	Right	Yes	0.785419399966486	0	215148	253
420.986328125	0	decision	response	1	26	26	foodImage.23	FOODEEG_Images\0244.jpg	NY	Right	Yes	0.785419399966486	0	215546	235
422.03125	1	taste	trialStart	1	27	27	foodImage.118	FOODEEG_Images\0926.jpg	NY	Left	No	0.783550300053321	0	216081	251
423.068359375	2	taste	foodImageDisplay	1	27	27	foodImage.118	FOODEEG_Images\0926.jpg	NY	Left	No	0.783550300053321	0	216612	252
425.1328125	0.783550300053321	taste	choicePhaseStart	1	27	27	foodImage.118	FOODEEG_Images\0926.jpg	NY	Left	No	0.783550300053321	0	217669	253
425.90625	0	taste	response	1	27	27	foodImage.118	FOODEEG_Images\0926.jpg	NY	Left	No	0.783550300053321	0	218065	234
426.953125	1	decision	trialStart	1	28	28	foodImage.44	FOODEEG_Images\0459.jpg	YN	Left	Yes	0.939529299968854	0	218601	251
428.001953125	2	decision	foodImageDisplay	1	28	28	foodImage.44	FOODEEG_Images\0459.jpg	YN	Left	Yes	0.939529299968854	0	219138	252
430.064453125	0.939529299968854	decision	choicePhaseStart	1	28	28	foodImage.44	FOODEEG_Images\0459.jpg	YN	Left	Yes	0.939529299968854	0	220194	253
430.994140625	0	decision	response	1	28	28	foodImage.44	FOODEEG_Images\0459.jpg	YN	Left	Yes	0.939529299968854	0	220670	234
432.03515625	1	decision	trialStart	1	29	29	foodImage.68	FOODEEG_Images\0685.jpg	NY	Right	Yes	0.768593200016767	0	221203	251
433.11328125	2	decision	foodImageDisplay	1	29	29	foodImage.68	FOODEEG_Images\0685.jpg	NY	Right	Yes	0.768593200016767	0	221755	252
435.1796875	0.768593200016767	decision	choicePhaseStart	1	29	29	foodImage.68	FOODEEG_Images\0685.jpg	NY	Right	Yes	0.768593200016767	0	222813	253
435.9375	0	decision	response	1	29	29	foodImage.68	FOODEEG_Images\0685.jpg	NY	Right	Yes	0.768593200016767	0	223201	235
436.982421875	1	decision	trialStart	1	30	30	foodImage.86	FOODEEG_Images\0844.jpg	YN	Left	Yes	0.813897100044414	0	223736	251
438.037109375	2	decision	foodImageDisplay	1	30	30	foodImage.86	FOODEEG_Images\0844.jpg	YN	Left	Yes	0.813897100044414	0	224276	252
440.1015625	0.813897100044414	decision	choicePhaseStart	1	30	30	foodImage.86	FOODEEG_Images\0844.jpg	YN	Left	Yes	0.813897100044414	0	225333	253
440.90625	0	decision	response	1	30	30	foodImage.86	FOODEEG_Images\0844.jpg	YN	Left	Yes	0.813897100044414	0	225745	234
441.947265625	1	taste	trialStart	1	31	31	foodImage.74	FOODEEG_Images\0752.jpg	YN	Left	Yes	0.604411000036635	0	226278	251
442.990234375	2	taste	foodImageDisplay	1	31	31	foodImage.74	FOODEEG_Images\0752.jpg	YN	Left	Yes	0.604411000036635	0	226812	252
445.0546875	0.604411000036635	taste	choicePhaseStart	1	31	31	foodImage.74	FOODEEG_Images\0752.jpg	YN	Left	Yes	0.604411000036635	0	227869	253
445.650390625	0	taste	response	1	31	31	foodImage.74	FOODEEG_Images\0752.jpg	YN	Left	Yes	0.604411000036635	0	228174	234
446.693359375	1	taste	trialStart	1	32	32	foodImage.47	FOODEEG_Images\0488.jpg	YN	Left	Yes	0.726266799960285	0	228708	251
447.734375	2	taste	foodImageDisplay	1	32	32	foodImage.47	FOODEEG_Images\0488.jpg	YN	Left	Yes	0.726266799960285	0	229241	252
449.796875	0.726266799960285	taste	choicePhaseStart	1	32	32	foodImage.47	FOODEEG_Images\0488.jpg	YN	Left	Yes	0.726266799960285	0	230297	253
450.513671875	0	taste	response	1	32	32	foodImage.47	FOODEEG_Images\0488.jpg	YN	Left	Yes	0.726266799960285	0	230664	234
451.556640625	1	health	trialStart	1	33	33	foodImage.112	FOODEEG_Images\0920.jpg	YN	Right	No	0.676563800079748	0	231198	251
452.59765625	2	health	foodImageDisplay	1	33	33	foodImage.112	FOODEEG_Images\0920.jpg	YN	Right	No	0.676563800079748	0	231731	252
454.66015625	0.676563800079748	health	choicePhaseStart	1	33	33	foodImage.112	FOODEEG_Images\0920.jpg	YN	Right	No	0.676563800079748	0	232787	253
455.330078125	0	health	response	1	33	33	foodImage.112	FOODEEG_Images\0920.jpg	YN	Right	No	0.676563800079748	0	233130	235
456.37109375	1	decision	trialStart	1	34	34	foodImage.5	FOODEEG_Images\0107.jpg	YN	Left	Yes	1.21428950002883	0	233663	251
457.4453125	2	decision	foodImageDisplay	1	34	34	foodImage.5	FOODEEG_Images\0107.jpg	YN	Left	Yes	1.21428950002883	0	234213	252
459.515625	1.21428950002883	decision	choicePhaseStart	1	34	34	foodImage.5	FOODEEG_Images\0107.jpg	YN	Left	Yes	1.21428950002883	0	235273	253
460.720703125	0	decision	response	1	34	34	foodImage.5	FOODEEG_Images\0107.jpg	YN	Left	Yes	1.21428950002883	0	235890	234
461.763671875	1	decision	trialStart	1	35	35	foodImage.90	FOODEEG_Images\0890.jpg	NY	Right	Yes	1.48179039999377	0	236424	251
462.818359375	2	decision	foodImageDisplay	1	35	35	foodImage.90	FOODEEG_Images\0890.jpg	NY	Right	Yes	1.48179039999377	0	236964	252
464.880859375	1.48179039999377	decision	choicePhaseStart	1	35	35	foodImage.90	FOODEEG_Images\0890.jpg	NY	Right	Yes	1.48179039999377	0	238020	253
466.353515625	0	decision	response	1	35	35	foodImage.90	FOODEEG_Images\0890.jpg	NY	Right	Yes	1.48179039999377	0	238774	235
467.396484375	1	health	trialStart	1	36	36	foodImage.52	FOODEEG_Images\0539.jpg	YN	Left	Yes	1.22891489998437	0	239308	251
468.453125	2	health	foodImageDisplay	1	36	36	foodImage.52	FOODEEG_Images\0539.jpg	YN	Left	Yes	1.22891489998437	0	239849	252
470.517578125	1.22891489998437	health	choicePhaseStart	1	36	36	foodImage.52	FOODEEG_Images\0539.jpg	YN	Left	Yes	1.22891489998437	0	240906	253
471.736328125	0	health	response	1	36	36	foodImage.52	FOODEEG_Images\0539.jpg	YN	Left	Yes	1.22891489998437	0	241530	234
472.779296875	1	health	trialStart	1	37	37	foodImage.33	FOODEEG_Images\0329.jpg	YN	Left	Yes	0.74196779995691	0	242064	251
473.822265625	2	health	foodImageDisplay	1	37	37	foodImage.33	FOODEEG_Images\0329.jpg	YN	Left	Yes	0.74196779995691	0	242598	252
475.884765625	0.74196779995691	health	choicePhaseStart	1	37	37	foodImage.33	FOODEEG_Images\0329.jpg	YN	Left	Yes	0.74196779995691	0	243654	253
476.6171875	0	health	response	1	37	37	foodImage.33	FOODEEG_Images\0329.jpg	YN	Left	Yes	0.74196779995691	0	244029	234
477.66015625	1	taste	trialStart	1	38	38	foodImage.113	FOODEEG_Images\0921.jpg	NY	Right	Yes	0.679067999939434	0	244563	251
478.69921875	2	taste	foodImageDisplay	1	38	38	foodImage.113	FOODEEG_Images\0921.jpg	NY	Right	Yes	0.679067999939434	0	245095	252
480.763671875	0.679067999939434	taste	choicePhaseStart	1	38	38	foodImage.113	FOODEEG_Images\0921.jpg	NY	Right	Yes	0.679067999939434	0	246152	253
481.431640625	0	taste	response	1	38	38	foodImage.113	FOODEEG_Images\0921.jpg	NY	Right	Yes	0.679067999939434	0	246494	235
482.474609375	1	taste	trialStart	1	39	39	foodImage.52	FOODEEG_Images\0539.jpg	YN	Left	Yes	1.31677649996709	0	247028	251
483.533203125	2	taste	foodImageDisplay	1	39	39	foodImage.52	FOODEEG_Images\0539.jpg	YN	Left	Yes	1.31677649996709	0	247570	252
485.59765625	1.31677649996709	taste	choicePhaseStart	1	39	39	foodImage.52	FOODEEG_Images\0539.jpg	YN	Left	Yes	1.31677649996709	0	248627	253
486.904296875	0	taste	response	1	39	39	foodImage.52	FOODEEG_Images\0539.jpg	YN	Left	Yes	1.31677649996709	0	249296	234
487.943359375	1	taste	trialStart	1	40	40	foodImage.102	FOODEEG_Images\0910.jpg	YN	Right	No	0.722758700023405	0	249828	251
488.982421875	2	taste	foodImageDisplay	1	40	40	foodImage.102	FOODEEG_Images\0910.jpg	YN	Right	No	0.722758700023405	0	250360	252
491.044921875	0.722758700023405	taste	choicePhaseStart	1	40	40	foodImage.102	FOODEEG_Images\0910.jpg	YN	Right	No	0.722758700023405	0	251416	253
491.759765625	0	taste	response	1	40	40	foodImage.102	FOODEEG_Images\0910.jpg	YN	Right	No	0.722758700023405	0	251782	235
492.80078125	1	decision	trialStart	1	41	41	foodImage.64	FOODEEG_Images\0647.jpg	YN	Left	Yes	0.81989720009733	0	252315	251
493.861328125	2	decision	foodImageDisplay	1	41	41	foodImage.64	FOODEEG_Images\0647.jpg	YN	Left	Yes	0.81989720009733	0	252858	252
495.92578125	0.81989720009733	decision	choicePhaseStart	1	41	41	foodImage.64	FOODEEG_Images\0647.jpg	YN	Left	Yes	0.81989720009733	0	253915	253
496.736328125	0	decision	response	1	41	41	foodImage.64	FOODEEG_Images\0647.jpg	YN	Left	Yes	0.81989720009733	0	254330	234
497.779296875	1	decision	trialStart	1	42	42	foodImage.61	FOODEEG_Images\0640.jpg	YN	Left	Yes	0.704856500029564	0	254864	251
498.82421875	2	decision	foodImageDisplay	1	42	42	foodImage.61	FOODEEG_Images\0640.jpg	YN	Left	Yes	0.704856500029564	0	255399	252
500.88671875	0.704856500029564	decision	choicePhaseStart	1	42	42	foodImage.61	FOODEEG_Images\0640.jpg	YN	Left	Yes	0.704856500029564	0	256455	253
501.583984375	0	decision	response	1	42	42	foodImage.61	FOODEEG_Images\0640.jpg	YN	Left	Yes	0.704856500029564	0	256812	234
502.62890625	1	taste	trialStart	1	43	43	foodImage.37	FOODEEG_Images\0359.jpg	YN	Right	No	2.17042450001463	0	257347	251
503.671875	2	taste	foodImageDisplay	1	43	43	foodImage.37	FOODEEG_Images\0359.jpg	YN	Right	No	2.17042450001463	0	257881	252
505.734375	2.17042450001463	taste	choicePhaseStart	1	43	43	foodImage.37	FOODEEG_Images\0359.jpg	YN	Right	No	2.17042450001463	0	258937	253
507.896484375	0	taste	response	1	43	43	foodImage.37	FOODEEG_Images\0359.jpg	YN	Right	No	2.17042450001463	0	260044	235
508.9375	1	health	trialStart	1	44	44	foodImage.119	FOODEEG_Images\0927.jpg	NY	Left	No	0.866240700008348	0	260577	251
509.978515625	2	health	foodImageDisplay	1	44	44	foodImage.119	FOODEEG_Images\0927.jpg	NY	Left	No	0.866240700008348	0	261110	252
512.04296875	0.866240700008348	health	choicePhaseStart	1	44	44	foodImage.119	FOODEEG_Images\0927.jpg	NY	Left	No	0.866240700008348	0	262167	253
512.904296875	0	health	response	1	44	44	foodImage.119	FOODEEG_Images\0927.jpg	NY	Left	No	0.866240700008348	0	262608	234
513.9453125	1	taste	trialStart	1	45	45	foodImage.94	FOODEEG_Images\0902.jpg	YN	Right	No	1.38400640001055	0	263141	251
514.984375	2	taste	foodImageDisplay	1	45	45	foodImage.94	FOODEEG_Images\0902.jpg	YN	Right	No	1.38400640001055	0	263673	252
517.048828125	1.38400640001055	taste	choicePhaseStart	1	45	45	foodImage.94	FOODEEG_Images\0902.jpg	YN	Right	No	1.38400640001055	0	264730	253
518.423828125	0	taste	response	1	45	45	foodImage.94	FOODEEG_Images\0902.jpg	YN	Right	No	1.38400640001055	0	265434	235
519.462890625	1	taste	trialStart	1	46	46	foodImage.104	FOODEEG_Images\0912.jpg	YN	Left	Yes	1.12084440002218	0	265966	251
520.501953125	2	taste	foodImageDisplay	1	46	46	foodImage.104	FOODEEG_Images\0912.jpg	YN	Left	Yes	1.12084440002218	0	266498	252
522.56640625	1.12084440002218	taste	choicePhaseStart	1	46	46	foodImage.104	FOODEEG_Images\0912.jpg	YN	Left	Yes	1.12084440002218	0	267555	253
523.6796875	0	taste	response	1	46	46	foodImage.104	FOODEEG_Images\0912.jpg	YN	Left	Yes	1.12084440002218	0	268125	234
524.720703125	1	health	trialStart	1	47	47	foodImage.34	FOODEEG_Images\0339.jpg	NY	Left	No	1.31045719992835	0	268658	251
525.78125	2	health	foodImageDisplay	1	47	47	foodImage.34	FOODEEG_Images\0339.jpg	NY	Left	No	1.31045719992835	0	269201	252
527.849609375	1.31045719992835	health	choicePhaseStart	1	47	47	foodImage.34	FOODEEG_Images\0339.jpg	NY	Left	No	1.31045719992835	0	270260	253
529.150390625	0	health	response	1	47	47	foodImage.34	FOODEEG_Images\0339.jpg	NY	Left	No	1.31045719992835	0	270926	234
530.193359375	1	health	trialStart	1	48	48	foodImage.29	FOODEEG_Images\0278.jpg	YN	Left	Yes	1.20569889992476	0	271460	251
531.244140625	2	health	foodImageDisplay	1	48	48	foodImage.29	FOODEEG_Images\0278.jpg	YN	Left	Yes	1.20569889992476	0	271998	252
533.3046875	1.20569889992476	health	choicePhaseStart	1	48	48	foodImage.29	FOODEEG_Images\0278.jpg	YN	Left	Yes	1.20569889992476	0	273053	253
534.501953125	0	health	response	1	48	48	foodImage.29	FOODEEG_Images\0278.jpg	YN	Left	Yes	1.20569889992476	0	273666	234
535.544921875	1	taste	trialStart	1	49	49	foodImage.68	FOODEEG_Images\0685.jpg	YN	Left	Yes	0.906645999988541	0	274200	251
536.62109375	2	taste	foodImageDisplay	1	49	49	foodImage.68	FOODEEG_Images\0685.jpg	YN	Left	Yes	0.906645999988541	0	274751	252
538.685546875	0.906645999988541	taste	choicePhaseStart	1	49	49	foodImage.68	FOODEEG_Images\0685.jpg	YN	Left	Yes	0.906645999988541	0	275808	253
539.58203125	0	taste	response	1	49	49	foodImage.68	FOODEEG_Images\0685.jpg	YN	Left	Yes	0.906645999988541	0	276267	234
540.625	1	taste	trialStart	1	50	50	foodImage.15	FOODEEG_Images\0189.jpg	YN	Left	Yes	0.794294000021182	0	276801	251
541.693359375	2	taste	foodImageDisplay	1	50	50	foodImage.15	FOODEEG_Images\0189.jpg	YN	Left	Yes	0.794294000021182	0	277348	252
543.7578125	0.794294000021182	taste	choicePhaseStart	1	50	50	foodImage.15	FOODEEG_Images\0189.jpg	YN	Left	Yes	0.794294000021182	0	278405	253
544.54296875	0	taste	response	1	50	50	foodImage.15	FOODEEG_Images\0189.jpg	YN	Left	Yes	0.794294000021182	0	278807	234
545.5859375	1	health	trialStart	1	51	51	foodImage.16	FOODEEG_Images\0196.jpg	NY	Right	Yes	0.876564900041558	0	279341	251
546.642578125	2	health	foodImageDisplay	1	51	51	foodImage.16	FOODEEG_Images\0196.jpg	NY	Right	Yes	0.876564900041558	0	279882	252
548.70703125	0.876564900041558	health	choicePhaseStart	1	51	51	foodImage.16	FOODEEG_Images\0196.jpg	NY	Right	Yes	0.876564900041558	0	280939	253
549.57421875	0	health	response	1	51	51	foodImage.16	FOODEEG_Images\0196.jpg	NY	Right	Yes	0.876564900041558	0	281383	235
550.6171875	1	health	trialStart	1	52	52	foodImage.77	FOODEEG_Images\0771.jpg	YN	Left	Yes	1.02725490008015	0	281917	251
551.66015625	2	health	foodImageDisplay	1	52	52	foodImage.77	FOODEEG_Images\0771.jpg	YN	Left	Yes	1.02725490008015	0	282451	252
553.724609375	1.02725490008015	health	choicePhaseStart	1	52	52	foodImage.77	FOODEEG_Images\0771.jpg	YN	Left	Yes	1.02725490008015	0	283508	253
554.7421875	0	health	response	1	52	52	foodImage.77	FOODEEG_Images\0771.jpg	YN	Left	Yes	1.02725490008015	0	284029	234
555.78515625	1	taste	trialStart	1	53	53	foodImage.63	FOODEEG_Images\0645.jpg	YN	Left	Yes	0.789444900001399	0	284563	251
556.826171875	2	taste	foodImageDisplay	1	53	53	foodImage.63	FOODEEG_Images\0645.jpg	YN	Left	Yes	0.789444900001399	0	285096	252
558.888671875	0.789444900001399	taste	choicePhaseStart	1	53	53	foodImage.63	FOODEEG_Images\0645.jpg	YN	Left	Yes	0.789444900001399	0	286152	253
559.669921875	0	taste	response	1	53	53	foodImage.63	FOODEEG_Images\0645.jpg	YN	Left	Yes	0.789444900001399	0	286552	234
560.708984375	1	health	trialStart	1	54	54	foodImage.60	FOODEEG_Images\0614.jpg	YN	Left	Yes	0.863460500026122	0	287084	251
561.765625	2	health	foodImageDisplay	1	54	54	foodImage.60	FOODEEG_Images\0614.jpg	YN	Left	Yes	0.863460500026122	0	287625	252
563.830078125	0.863460500026122	health	choicePhaseStart	1	54	54	foodImage.60	FOODEEG_Images\0614.jpg	YN	Left	Yes	0.863460500026122	0	288682	253
564.685546875	0	health	response	1	54	54	foodImage.60	FOODEEG_Images\0614.jpg	YN	Left	Yes	0.863460500026122	0	289120	234
565.724609375	1	taste	trialStart	1	55	55	foodImage.115	FOODEEG_Images\0923.jpg	YN	Right	No	0.802072099992074	0	289652	251
566.765625	2	taste	foodImageDisplay	1	55	55	foodImage.115	FOODEEG_Images\0923.jpg	YN	Right	No	0.802072099992074	0	290185	252
568.828125	0.802072099992074	taste	choicePhaseStart	1	55	55	foodImage.115	FOODEEG_Images\0923.jpg	YN	Right	No	0.802072099992074	0	291241	253
569.62109375	0	taste	response	1	55	55	foodImage.115	FOODEEG_Images\0923.jpg	YN	Right	No	0.802072099992074	0	291647	235
570.662109375	1	health	trialStart	1	56	56	foodImage.25	FOODEEG_Images\0261.jpg	YN	Left	Yes	0.652437699958682	0	292180	251
571.705078125	2	health	foodImageDisplay	1	56	56	foodImage.25	FOODEEG_Images\0261.jpg	YN	Left	Yes	0.652437699958682	0	292714	252
573.76953125	0.652437699958682	health	choicePhaseStart	1	56	56	foodImage.25	FOODEEG_Images\0261.jpg	YN	Left	Yes	0.652437699958682	0	293771	253
574.412109375	0	health	response	1	56	56	foodImage.25	FOODEEG_Images\0261.jpg	YN	Left	Yes	0.652437699958682	0	294100	234
575.455078125	1	health	trialStart	1	57	57	foodImage.100	FOODEEG_Images\0908.jpg	NY	Right	Yes	1.07083610002883	0	294634	251
576.49609375	2	health	foodImageDisplay	1	57	57	foodImage.100	FOODEEG_Images\0908.jpg	NY	Right	Yes	1.07083610002883	0	295167	252
578.55859375	1.07083610002883	health	choicePhaseStart	1	57	57	foodImage.100	FOODEEG_Images\0908.jpg	NY	Right	Yes	1.07083610002883	0	296223	253
579.62109375	0	health	response	1	57	57	foodImage.100	FOODEEG_Images\0908.jpg	NY	Right	Yes	1.07083610002883	0	296767	235
580.662109375	1	health	trialStart	1	58	58	foodImage.48	FOODEEG_Images\0494.jpg	NY	Right	Yes	0.917230100021698	0	297300	251
581.705078125	2	health	foodImageDisplay	1	58	58	foodImage.48	FOODEEG_Images\0494.jpg	NY	Right	Yes	0.917230100021698	0	297834	252
583.76953125	0.917230100021698	health	choicePhaseStart	1	58	58	foodImage.48	FOODEEG_Images\0494.jpg	NY	Right	Yes	0.917230100021698	0	298891	253
584.67578125	0	health	response	1	58	58	foodImage.48	FOODEEG_Images\0494.jpg	NY	Right	Yes	0.917230100021698	0	299355	235
585.72265625	1	health	trialStart	1	59	59	foodImage.21	FOODEEG_Images\0234.jpg	YN	Left	Yes	0.939304400002584	0	299891	251
586.779296875	2	health	foodImageDisplay	1	59	59	foodImage.21	FOODEEG_Images\0234.jpg	YN	Left	Yes	0.939304400002584	0	300432	252
588.84765625	0.939304400002584	health	choicePhaseStart	1	59	59	foodImage.21	FOODEEG_Images\0234.jpg	YN	Left	Yes	0.939304400002584	0	301491	253
589.78125	0	health	response	1	59	59	foodImage.21	FOODEEG_Images\0234.jpg	YN	Left	Yes	0.939304400002584	0	301969	234
590.822265625	1	taste	trialStart	1	60	60	foodImage.2	FOODEEG_Images\0028.jpg	YN	Left	Yes	0.869593299925327	0	302502	251
591.86328125	2	taste	foodImageDisplay	1	60	60	foodImage.2	FOODEEG_Images\0028.jpg	YN	Left	Yes	0.869593299925327	0	303035	252
593.927734375	0.869593299925327	taste	choicePhaseStart	1	60	60	foodImage.2	FOODEEG_Images\0028.jpg	YN	Left	Yes	0.869593299925327	0	304092	253
594.787109375	0	taste	response	1	60	60	foodImage.2	FOODEEG_Images\0028.jpg	YN	Left	Yes	0.869593299925327	0	304532	234
596.830078125	13.615234375	n/a	blockEnd	n/a	n/a	n/a	n/a	n/a	n/a	n/a	n/a	n/a	n/a	305578	254
610.4453125	2	n/a	blockStart	2	n/a	n/a	n/a	n/a	n/a	n/a	n/a	n/a	n/a	312549	250
612.4765625	1	decision	trialStart	2	61	1	foodImage.106	FOODEEG_Images\0914.jpg	NY	Left	No	1.19622169993818	0	313589	251
613.521484375	2	decision	foodImageDisplay	2	61	1	foodImage.106	FOODEEG_Images\0914.jpg	NY	Left	No	1.19622169993818	0	314124	252
615.583984375	1.19622169993818	decision	choicePhaseStart	2	61	1	foodImage.106	FOODEEG_Images\0914.jpg	NY	Left	No	1.19622169993818	0	315180	253
616.771484375	0	decision	response	2	61	1	foodImage.106	FOODEEG_Images\0914.jpg	NY	Left	No	1.19622169993818	0	315788	234
617.810546875	1	health	trialStart	2	62	2	foodImage.117	FOODEEG_Images\0925.jpg	NY	Left	No	1.20060240000021	0	316320	251
618.84765625	2	health	foodImageDisplay	2	62	2	foodImage.117	FOODEEG_Images\0925.jpg	NY	Left	No	1.20060240000021	0	316851	252
620.916015625	1.20060240000021	health	choicePhaseStart	2	62	2	foodImage.117	FOODEEG_Images\0925.jpg	NY	Left	No	1.20060240000021	0	317910	253
622.107421875	0	health	response	2	62	2	foodImage.117	FOODEEG_Images\0925.jpg	NY	Left	No	1.20060240000021	0	318520	234
623.150390625	1	taste	trialStart	2	63	3	foodImage.48	FOODEEG_Images\0494.jpg	NY	Right	Yes	0.95055389998015	0	319054	251
624.19140625	2	taste	foodImageDisplay	2	63	3	foodImage.48	FOODEEG_Images\0494.jpg	NY	Right	Yes	0.95055389998015	0	319587	252
626.25390625	0.95055389998015	taste	choicePhaseStart	2	63	3	foodImage.48	FOODEEG_Images\0494.jpg	NY	Right	Yes	0.95055389998015	0	320643	253
627.1953125	0	taste	response	2	63	3	foodImage.48	FOODEEG_Images\0494.jpg	NY	Right	Yes	0.95055389998015	0	321125	235
628.236328125	1	health	trialStart	2	64	4	foodImage.6	FOODEEG_Images\0113.jpg	NY	Left	No	0.837472200044431	0	321658	251
629.27734375	2	health	foodImageDisplay	2	64	4	foodImage.6	FOODEEG_Images\0113.jpg	NY	Left	No	0.837472200044431	0	322191	252
631.341796875	0.837472200044431	health	choicePhaseStart	2	64	4	foodImage.6	FOODEEG_Images\0113.jpg	NY	Left	No	0.837472200044431	0	323248	253
632.169921875	0	health	response	2	64	4	foodImage.6	FOODEEG_Images\0113.jpg	NY	Left	No	0.837472200044431	0	323672	234
633.212890625	1	taste	trialStart	2	65	5	foodImage.23	FOODEEG_Images\0244.jpg	YN	Left	Yes	1.05352600000333	0	324206	251
634.25390625	2	taste	foodImageDisplay	2	65	5	foodImage.23	FOODEEG_Images\0244.jpg	YN	Left	Yes	1.05352600000333	0	324739	252
636.318359375	1.05352600000333	taste	choicePhaseStart	2	65	5	foodImage.23	FOODEEG_Images\0244.jpg	YN	Left	Yes	1.05352600000333	0	325796	253
637.36328125	0	taste	response	2	65	5	foodImage.23	FOODEEG_Images\0244.jpg	YN	Left	Yes	1.05352600000333	0	326331	234
638.40625	1	taste	trialStart	2	66	6	foodImage.69	FOODEEG_Images\0693.jpg	NY	Right	Yes	1.61763679992873	0	326865	251
639.44921875	2	taste	foodImageDisplay	2	66	6	foodImage.69	FOODEEG_Images\0693.jpg	NY	Right	Yes	1.61763679992873	0	327399	252
641.513671875	1.61763679992873	taste	choicePhaseStart	2	66	6	foodImage.69	FOODEEG_Images\0693.jpg	NY	Right	Yes	1.61763679992873	0	328456	253
643.123046875	0	taste	response	2	66	6	foodImage.69	FOODEEG_Images\0693.jpg	NY	Right	Yes	1.61763679992873	0	329280	235
644.1640625	1	taste	trialStart	2	67	7	foodImage.8	FOODEEG_Images\0136.jpg	NY	Right	Yes	1.29580819990952	0	329813	251
645.203125	2	taste	foodImageDisplay	2	67	7	foodImage.8	FOODEEG_Images\0136.jpg	NY	Right	Yes	1.29580819990952	0	330345	252
647.267578125	1.29580819990952	taste	choicePhaseStart	2	67	7	foodImage.8	FOODEEG_Images\0136.jpg	NY	Right	Yes	1.29580819990952	0	331402	253
648.552734375	0	taste	response	2	67	7	foodImage.8	FOODEEG_Images\0136.jpg	NY	Right	Yes	1.29580819990952	0	332060	235
649.59765625	1	decision	trialStart	2	68	8	foodImage.104	FOODEEG_Images\0912.jpg	NY	Right	Yes	0.837392000015825	0	332595	251
650.638671875	2	decision	foodImageDisplay	2	68	8	foodImage.104	FOODEEG_Images\0912.jpg	NY	Right	Yes	0.837392000015825	0	333128	252
652.703125	0.837392000015825	decision	choicePhaseStart	2	68	8	foodImage.104	FOODEEG_Images\0912.jpg	NY	Right	Yes	0.837392000015825	0	334185	253
653.529296875	0	decision	response	2	68	8	foodImage.104	FOODEEG_Images\0912.jpg	NY	Right	Yes	0.837392000015825	0	334608	235
654.57421875	1	decision	trialStart	2	69	9	foodImage.112	FOODEEG_Images\0920.jpg	YN	Right	No	0.86980179999955	0	335143	251
655.61328125	2	decision	foodImageDisplay	2	69	9	foodImage.112	FOODEEG_Images\0920.jpg	YN	Right	No	0.86980179999955	0	335675	252
657.677734375	0.86980179999955	decision	choicePhaseStart	2	69	9	foodImage.112	FOODEEG_Images\0920.jpg	YN	Right	No	0.86980179999955	0	336732	253
658.537109375	0	decision	response	2	69	9	foodImage.112	FOODEEG_Images\0920.jpg	YN	Right	No	0.86980179999955	0	337172	235
659.578125	1	decision	trialStart	2	70	10	foodImage.28	FOODEEG_Images\0273.jpg	YN	Left	Yes	0.622171800001524	0	337705	251
660.62109375	2	decision	foodImageDisplay	2	70	10	foodImage.28	FOODEEG_Images\0273.jpg	YN	Left	Yes	0.622171800001524	0	338239	252
662.68359375	0.622171800001524	decision	choicePhaseStart	2	70	10	foodImage.28	FOODEEG_Images\0273.jpg	YN	Left	Yes	0.622171800001524	0	339295	253
663.296875	0	decision	response	2	70	10	foodImage.28	FOODEEG_Images\0273.jpg	YN	Left	Yes	0.622171800001524	0	339609	234
664.33984375	1	decision	trialStart	2	71	11	foodImage.101	FOODEEG_Images\0909.jpg	NY	Left	No	0.704787499969825	0	340143	251
665.37890625	2	decision	foodImageDisplay	2	71	11	foodImage.101	FOODEEG_Images\0909.jpg	NY	Left	No	0.704787499969825	0	340675	252
667.44140625	0.704787499969825	decision	choicePhaseStart	2	71	11	foodImage.101	FOODEEG_Images\0909.jpg	NY	Left	No	0.704787499969825	0	341731	253
668.13671875	0	decision	response	2	71	11	foodImage.101	FOODEEG_Images\0909.jpg	NY	Left	No	0.704787499969825	0	342087	234
669.177734375	1	taste	trialStart	2	72	12	foodImage.10	FOODEEG_Images\0145.jpg	YN	Left	Yes	0.79410800000187	0	342620	251
670.23828125	2	taste	foodImageDisplay	2	72	12	foodImage.10	FOODEEG_Images\0145.jpg	YN	Left	Yes	0.79410800000187	0	343163	252
672.302734375	0.79410800000187	taste	choicePhaseStart	2	72	12	foodImage.10	FOODEEG_Images\0145.jpg	YN	Left	Yes	0.79410800000187	0	344220	253
673.08984375	0	taste	response	2	72	12	foodImage.10	FOODEEG_Images\0145.jpg	YN	Left	Yes	0.79410800000187	0	344623	234
674.13671875	1	taste	trialStart	2	73	13	foodImage.25	FOODEEG_Images\0261.jpg	YN	Left	Yes	1.07981250004377	0	345159	251
675.185546875	2	taste	foodImageDisplay	2	73	13	foodImage.25	FOODEEG_Images\0261.jpg	YN	Left	Yes	1.07981250004377	0	345696	252
677.25	1.07981250004377	taste	choicePhaseStart	2	73	13	foodImage.25	FOODEEG_Images\0261.jpg	YN	Left	Yes	1.07981250004377	0	346753	253
678.3203125	0	taste	response	2	73	13	foodImage.25	FOODEEG_Images\0261.jpg	YN	Left	Yes	1.07981250004377	0	347301	234
679.36328125	1	health	trialStart	2	74	14	foodImage.65	FOODEEG_Images\0658.jpg	YN	Right	No	2.25383369997144	0	347835	251
680.404296875	2	health	foodImageDisplay	2	74	14	foodImage.65	FOODEEG_Images\0658.jpg	YN	Right	No	2.25383369997144	0	348368	252
682.46875	2.25383369997144	health	choicePhaseStart	2	74	14	foodImage.65	FOODEEG_Images\0658.jpg	YN	Right	No	2.25383369997144	0	349425	253
684.712890625	0	health	response	2	74	14	foodImage.65	FOODEEG_Images\0658.jpg	YN	Right	No	2.25383369997144	0	350574	235
685.75390625	1	decision	trialStart	2	75	15	foodImage.94	FOODEEG_Images\0902.jpg	YN	Right	No	1.10475079994649	0	351107	251
686.79296875	2	decision	foodImageDisplay	2	75	15	foodImage.94	FOODEEG_Images\0902.jpg	YN	Right	No	1.10475079994649	0	351639	252
688.857421875	1.10475079994649	decision	choicePhaseStart	2	75	15	foodImage.94	FOODEEG_Images\0902.jpg	YN	Right	No	1.10475079994649	0	352696	253
689.953125	0	decision	response	2	75	15	foodImage.94	FOODEEG_Images\0902.jpg	YN	Right	No	1.10475079994649	0	353257	235
690.994140625	1	taste	trialStart	2	76	16	foodImage.28	FOODEEG_Images\0273.jpg	YN	Left	Yes	0.644743800046854	0	353790	251
692.03515625	2	taste	foodImageDisplay	2	76	16	foodImage.28	FOODEEG_Images\0273.jpg	YN	Left	Yes	0.644743800046854	0	354323	252
694.099609375	0.644743800046854	taste	choicePhaseStart	2	76	16	foodImage.28	FOODEEG_Images\0273.jpg	YN	Left	Yes	0.644743800046854	0	355380	253
694.736328125	0	taste	response	2	76	16	foodImage.28	FOODEEG_Images\0273.jpg	YN	Left	Yes	0.644743800046854	0	355706	234
695.77734375	1	taste	trialStart	2	77	17	foodImage.114	FOODEEG_Images\0922.jpg	YN	Right	No	0.668812499963678	0	356239	251
696.81640625	2	taste	foodImageDisplay	2	77	17	foodImage.114	FOODEEG_Images\0922.jpg	YN	Right	No	0.668812499963678	0	356771	252
698.880859375	0.668812499963678	taste	choicePhaseStart	2	77	17	foodImage.114	FOODEEG_Images\0922.jpg	YN	Right	No	0.668812499963678	0	357828	253
699.544921875	0	taste	response	2	77	17	foodImage.114	FOODEEG_Images\0922.jpg	YN	Right	No	0.668812499963678	0	358168	235
700.587890625	1	health	trialStart	2	78	18	foodImage.116	FOODEEG_Images\0924.jpg	NY	Left	No	1.06846939993557	0	358702	251
701.626953125	2	health	foodImageDisplay	2	78	18	foodImage.116	FOODEEG_Images\0924.jpg	NY	Left	No	1.06846939993557	0	359234	252
703.693359375	1.06846939993557	health	choicePhaseStart	2	78	18	foodImage.116	FOODEEG_Images\0924.jpg	NY	Left	No	1.06846939993557	0	360292	253
704.751953125	0	health	response	2	78	18	foodImage.116	FOODEEG_Images\0924.jpg	NY	Left	No	1.06846939993557	0	360834	234
705.794921875	1	taste	trialStart	2	79	19	foodImage.75	FOODEEG_Images\0763.jpg	YN	Left	Yes	0.795688300044276	0	361368	251
706.83984375	2	taste	foodImageDisplay	2	79	19	foodImage.75	FOODEEG_Images\0763.jpg	YN	Left	Yes	0.795688300044276	0	361903	252
708.908203125	0.795688300044276	taste	choicePhaseStart	2	79	19	foodImage.75	FOODEEG_Images\0763.jpg	YN	Left	Yes	0.795688300044276	0	362962	253
709.6953125	0	taste	response	2	79	19	foodImage.75	FOODEEG_Images\0763.jpg	YN	Left	Yes	0.795688300044276	0	363365	234
710.736328125	1	decision	trialStart	2	80	20	foodImage.120	FOODEEG_Images\0928.jpg	YN	Right	No	0.943280600011349	0	363898	251
711.77734375	2	decision	foodImageDisplay	2	80	20	foodImage.120	FOODEEG_Images\0928.jpg	YN	Right	No	0.943280600011349	0	364431	252
713.841796875	0.943280600011349	decision	choicePhaseStart	2	80	20	foodImage.120	FOODEEG_Images\0928.jpg	YN	Right	No	0.943280600011349	0	365488	253
714.775390625	0	decision	response	2	80	20	foodImage.120	FOODEEG_Images\0928.jpg	YN	Right	No	0.943280600011349	0	365966	235
715.82421875	1	taste	trialStart	2	81	21	foodImage.67	FOODEEG_Images\0679.jpg	NY	Right	Yes	0.652858200017363	0	366503	251
716.884765625	2	taste	foodImageDisplay	2	81	21	foodImage.67	FOODEEG_Images\0679.jpg	NY	Right	Yes	0.652858200017363	0	367046	252
718.947265625	0.652858200017363	taste	choicePhaseStart	2	81	21	foodImage.67	FOODEEG_Images\0679.jpg	NY	Right	Yes	0.652858200017363	0	368102	253
719.591796875	0	taste	response	2	81	21	foodImage.67	FOODEEG_Images\0679.jpg	NY	Right	Yes	0.652858200017363	0	368432	235
720.6328125	1	health	trialStart	2	82	22	foodImage.55	FOODEEG_Images\0567.jpg	NY	Right	Yes	0.910466400091536	0	368965	251
721.689453125	2	health	foodImageDisplay	2	82	22	foodImage.55	FOODEEG_Images\0567.jpg	NY	Right	Yes	0.910466400091536	0	369506	252
723.75390625	0.910466400091536	health	choicePhaseStart	2	82	22	foodImage.55	FOODEEG_Images\0567.jpg	NY	Right	Yes	0.910466400091536	0	370563	253
724.654296875	0	health	response	2	82	22	foodImage.55	FOODEEG_Images\0567.jpg	NY	Right	Yes	0.910466400091536	0	371024	235
725.697265625	1	taste	trialStart	2	83	23	foodImage.90	FOODEEG_Images\0890.jpg	YN	Left	Yes	0.662758199963719	0	371558	251
726.755859375	2	taste	foodImageDisplay	2	83	23	foodImage.90	FOODEEG_Images\0890.jpg	YN	Left	Yes	0.662758199963719	0	372100	252
728.818359375	0.662758199963719	taste	choicePhaseStart	2	83	23	foodImage.90	FOODEEG_Images\0890.jpg	YN	Left	Yes	0.662758199963719	0	373156	253
729.470703125	0	taste	response	2	83	23	foodImage.90	FOODEEG_Images\0890.jpg	YN	Left	Yes	0.662758199963719	0	373490	234
730.51171875	1	health	trialStart	2	84	24	foodImage.7	FOODEEG_Images\0116.jpg	YN	Right	No	0.863588199950755	0	374023	251
731.5546875	2	health	foodImageDisplay	2	84	24	foodImage.7	FOODEEG_Images\0116.jpg	YN	Right	No	0.863588199950755	0	374557	252
733.6171875	0.863588199950755	health	choicePhaseStart	2	84	24	foodImage.7	FOODEEG_Images\0116.jpg	YN	Right	No	0.863588199950755	0	375613	253
734.470703125	0	health	response	2	84	24	foodImage.7	FOODEEG_Images\0116.jpg	YN	Right	No	0.863588199950755	0	376050	235
735.51171875	1	health	trialStart	2	85	25	foodImage.74	FOODEEG_Images\0752.jpg	YN	Left	Yes	1.11743630003184	0	376583	251
736.5546875	2	health	foodImageDisplay	2	85	25	foodImage.74	FOODEEG_Images\0752.jpg	YN	Left	Yes	1.11743630003184	0	377117	252
738.625	1.11743630003184	health	choicePhaseStart	2	85	25	foodImage.74	FOODEEG_Images\0752.jpg	YN	Left	Yes	1.11743630003184	0	378177	253
739.734375	0	health	response	2	85	25	foodImage.74	FOODEEG_Images\0752.jpg	YN	Left	Yes	1.11743630003184	0	378745	234
740.775390625	1	health	trialStart	2	86	26	foodImage.13	FOODEEG_Images\0183.jpg	YN	Left	Yes	0.687262500054203	0	379278	251
741.81640625	2	health	foodImageDisplay	2	86	26	foodImage.13	FOODEEG_Images\0183.jpg	YN	Left	Yes	0.687262500054203	0	379811	252
743.880859375	0.687262500054203	health	choicePhaseStart	2	86	26	foodImage.13	FOODEEG_Images\0183.jpg	YN	Left	Yes	0.687262500054203	0	380868	253
744.55859375	0	health	response	2	86	26	foodImage.13	FOODEEG_Images\0183.jpg	YN	Left	Yes	0.687262500054203	0	381215	234
745.6015625	1	taste	trialStart	2	87	27	foodImage.82	FOODEEG_Images\0805.jpg	NY	Right	Yes	0.82854270003736	0	381749	251
746.65625	2	taste	foodImageDisplay	2	87	27	foodImage.82	FOODEEG_Images\0805.jpg	NY	Right	Yes	0.82854270003736	0	382289	252
748.72265625	0.82854270003736	taste	choicePhaseStart	2	87	27	foodImage.82	FOODEEG_Images\0805.jpg	NY	Right	Yes	0.82854270003736	0	383347	253
749.54296875	0	taste	response	2	87	27	foodImage.82	FOODEEG_Images\0805.jpg	NY	Right	Yes	0.82854270003736	0	383767	235
750.5859375	1	decision	trialStart	2	88	28	foodImage.105	FOODEEG_Images\0913.jpg	YN	Right	No	0.782044200110249	0	384301	251
751.6328125	2	decision	foodImageDisplay	2	88	28	foodImage.105	FOODEEG_Images\0913.jpg	YN	Right	No	0.782044200110249	0	384837	252
753.697265625	0.782044200110249	decision	choicePhaseStart	2	88	28	foodImage.105	FOODEEG_Images\0913.jpg	YN	Right	No	0.782044200110249	0	385894	253
754.470703125	0	decision	response	2	88	28	foodImage.105	FOODEEG_Images\0913.jpg	YN	Right	No	0.782044200110249	0	386290	235
755.509765625	1	health	trialStart	2	89	29	foodImage.93	FOODEEG_Images\0901.jpg	NY	Left	No	0.593407899956219	0	386822	251
756.548828125	2	health	foodImageDisplay	2	89	29	foodImage.93	FOODEEG_Images\0901.jpg	NY	Left	No	0.593407899956219	0	387354	252
758.61328125	0.593407899956219	health	choicePhaseStart	2	89	29	foodImage.93	FOODEEG_Images\0901.jpg	NY	Left	No	0.593407899956219	0	388411	253
759.197265625	0	health	response	2	89	29	foodImage.93	FOODEEG_Images\0901.jpg	NY	Left	No	0.593407899956219	0	388710	234
760.240234375	1	health	trialStart	2	90	30	foodImage.94	FOODEEG_Images\0902.jpg	YN	Right	No	0.725202800007537	0	389244	251
761.279296875	2	health	foodImageDisplay	2	90	30	foodImage.94	FOODEEG_Images\0902.jpg	YN	Right	No	0.725202800007537	0	389776	252
763.34375	0.725202800007537	health	choicePhaseStart	2	90	30	foodImage.94	FOODEEG_Images\0902.jpg	YN	Right	No	0.725202800007537	0	390833	253
764.0625	0	health	response	2	90	30	foodImage.94	FOODEEG_Images\0902.jpg	YN	Right	No	0.725202800007537	0	391201	235
765.10546875	1	health	trialStart	2	91	31	foodImage.19	FOODEEG_Images\0225.jpg	NY	Right	Yes	0.921189500018954	0	391735	251
766.1484375	2	health	foodImageDisplay	2	91	31	foodImage.19	FOODEEG_Images\0225.jpg	NY	Right	Yes	0.921189500018954	0	392269	252
768.212890625	0.921189500018954	health	choicePhaseStart	2	91	31	foodImage.19	FOODEEG_Images\0225.jpg	NY	Right	Yes	0.921189500018954	0	393326	253
769.125	0	health	response	2	91	31	foodImage.19	FOODEEG_Images\0225.jpg	NY	Right	Yes	0.921189500018954	0	393793	235
770.16796875	1	decision	trialStart	2	92	32	foodImage.87	FOODEEG_Images\0873.jpg	YN	Left	Yes	0.886670199921355	0	394327	251
771.228515625	2	decision	foodImageDisplay	2	92	32	foodImage.87	FOODEEG_Images\0873.jpg	YN	Left	Yes	0.886670199921355	0	394870	252
773.29296875	0.886670199921355	decision	choicePhaseStart	2	92	32	foodImage.87	FOODEEG_Images\0873.jpg	YN	Left	Yes	0.886670199921355	0	395927	253
774.173828125	0	decision	response	2	92	32	foodImage.87	FOODEEG_Images\0873.jpg	YN	Left	Yes	0.886670199921355	0	396378	234
775.21484375	1	decision	trialStart	2	93	33	foodImage.78	FOODEEG_Images\0787.jpg	YN	Left	Yes	1.04107270005625	0	396911	251
776.259765625	2	decision	foodImageDisplay	2	93	33	foodImage.78	FOODEEG_Images\0787.jpg	YN	Left	Yes	1.04107270005625	0	397446	252
778.322265625	1.04107270005625	decision	choicePhaseStart	2	93	33	foodImage.78	FOODEEG_Images\0787.jpg	YN	Left	Yes	1.04107270005625	0	398502	253
779.357421875	0	decision	response	2	93	33	foodImage.78	FOODEEG_Images\0787.jpg	YN	Left	Yes	1.04107270005625	0	399032	234
780.400390625	1	decision	trialStart	2	94	34	foodImage.100	FOODEEG_Images\0908.jpg	NY	Right	Yes	0.695013000047766	0	399566	251
781.439453125	2	decision	foodImageDisplay	2	94	34	foodImage.100	FOODEEG_Images\0908.jpg	NY	Right	Yes	0.695013000047766	0	400098	252
783.501953125	0.695013000047766	decision	choicePhaseStart	2	94	34	foodImage.100	FOODEEG_Images\0908.jpg	NY	Right	Yes	0.695013000047766	0	401154	253
784.1875	0	decision	response	2	94	34	foodImage.100	FOODEEG_Images\0908.jpg	NY	Right	Yes	0.695013000047766	0	401505	235
785.232421875	1	decision	trialStart	2	95	35	foodImage.18	FOODEEG_Images\0202.jpg	YN	Left	Yes	0.667498199967667	0	402040	251
786.291015625	2	decision	foodImageDisplay	2	95	35	foodImage.18	FOODEEG_Images\0202.jpg	YN	Left	Yes	0.667498199967667	0	402582	252
788.353515625	0.667498199967667	decision	choicePhaseStart	2	95	35	foodImage.18	FOODEEG_Images\0202.jpg	YN	Left	Yes	0.667498199967667	0	403638	253
789.01171875	0	decision	response	2	95	35	foodImage.18	FOODEEG_Images\0202.jpg	YN	Left	Yes	0.667498199967667	0	403975	234
790.0546875	1	decision	trialStart	2	96	36	foodImage.111	FOODEEG_Images\0919.jpg	YN	Right	No	0.845240999944508	0	404509	251
791.095703125	2	decision	foodImageDisplay	2	96	36	foodImage.111	FOODEEG_Images\0919.jpg	YN	Right	No	0.845240999944508	0	405042	252
793.16015625	0.845240999944508	decision	choicePhaseStart	2	96	36	foodImage.111	FOODEEG_Images\0919.jpg	YN	Right	No	0.845240999944508	0	406099	253
793.99609375	0	decision	response	2	96	36	foodImage.111	FOODEEG_Images\0919.jpg	YN	Right	No	0.845240999944508	0	406527	235
795.0390625	1	decision	trialStart	2	97	37	foodImage.1	FOODEEG_Images\0004.jpg	YN	Left	Yes	0.850955399917439	0	407061	251
796.08203125	2	decision	foodImageDisplay	2	97	37	foodImage.1	FOODEEG_Images\0004.jpg	YN	Left	Yes	0.850955399917439	0	407595	252
798.146484375	0.850955399917439	decision	choicePhaseStart	2	97	37	foodImage.1	FOODEEG_Images\0004.jpg	YN	Left	Yes	0.850955399917439	0	408652	253
798.98828125	0	decision	response	2	97	37	foodImage.1	FOODEEG_Images\0004.jpg	YN	Left	Yes	0.850955399917439	0	409083	234
800.029296875	1	taste	trialStart	2	98	38	foodImage.9	FOODEEG_Images\0138.jpg	YN	Left	Yes	0.910555099952035	0	409616	251
801.083984375	2	taste	foodImageDisplay	2	98	38	foodImage.9	FOODEEG_Images\0138.jpg	YN	Left	Yes	0.910555099952035	0	410156	252
803.1484375	0.910555099952035	taste	choicePhaseStart	2	98	38	foodImage.9	FOODEEG_Images\0138.jpg	YN	Left	Yes	0.910555099952035	0	411213	253
804.052734375	0	taste	response	2	98	38	foodImage.9	FOODEEG_Images\0138.jpg	YN	Left	Yes	0.910555099952035	0	411676	234
805.091796875	1	health	trialStart	2	99	39	foodImage.5	FOODEEG_Images\0107.jpg	YN	Right	No	0.799109900020994	0	412208	251
806.150390625	2	health	foodImageDisplay	2	99	39	foodImage.5	FOODEEG_Images\0107.jpg	YN	Right	No	0.799109900020994	0	412750	252
808.21484375	0.799109900020994	health	choicePhaseStart	2	99	39	foodImage.5	FOODEEG_Images\0107.jpg	YN	Right	No	0.799109900020994	0	413807	253
809.00390625	0	health	response	2	99	39	foodImage.5	FOODEEG_Images\0107.jpg	YN	Right	No	0.799109900020994	0	414211	235
810.044921875	1	health	trialStart	2	100	40	foodImage.102	FOODEEG_Images\0910.jpg	NY	Left	No	0.993225899990648	0	414744	251
811.0859375	2	health	foodImageDisplay	2	100	40	foodImage.102	FOODEEG_Images\0910.jpg	NY	Left	No	0.993225899990648	0	415277	252
813.1484375	0.993225899990648	health	choicePhaseStart	2	100	40	foodImage.102	FOODEEG_Images\0910.jpg	NY	Left	No	0.993225899990648	0	416333	253
814.130859375	0	health	response	2	100	40	foodImage.102	FOODEEG_Images\0910.jpg	NY	Left	No	0.993225899990648	0	416836	234
815.173828125	1	health	trialStart	2	101	41	foodImage.109	FOODEEG_Images\0917.jpg	NY	Left	No	1.17693319998216	0	417370	251
816.21484375	2	health	foodImageDisplay	2	101	41	foodImage.109	FOODEEG_Images\0917.jpg	NY	Left	No	1.17693319998216	0	417903	252
818.283203125	1.17693319998216	health	choicePhaseStart	2	101	41	foodImage.109	FOODEEG_Images\0917.jpg	NY	Left	No	1.17693319998216	0	418962	253
819.451171875	0	health	response	2	101	41	foodImage.109	FOODEEG_Images\0917.jpg	NY	Left	No	1.17693319998216	0	419560	234
820.5	1	decision	trialStart	2	102	42	foodImage.38	FOODEEG_Images\0365.jpg	YN	Left	Yes	0.779099500039592	0	420097	251
821.5390625	2	decision	foodImageDisplay	2	102	42	foodImage.38	FOODEEG_Images\0365.jpg	YN	Left	Yes	0.779099500039592	0	420629	252
823.607421875	0.779099500039592	decision	choicePhaseStart	2	102	42	foodImage.38	FOODEEG_Images\0365.jpg	YN	Left	Yes	0.779099500039592	0	421688	253
824.37890625	0	decision	response	2	102	42	foodImage.38	FOODEEG_Images\0365.jpg	YN	Left	Yes	0.779099500039592	0	422083	234
825.421875	1	health	trialStart	2	103	43	foodImage.11	FOODEEG_Images\0180.jpg	YN	Left	Yes	1.18931789998896	0	422617	251
826.46484375	2	health	foodImageDisplay	2	103	43	foodImage.11	FOODEEG_Images\0180.jpg	YN	Left	Yes	1.18931789998896	0	423151	252
828.52734375	1.18931789998896	health	choicePhaseStart	2	103	43	foodImage.11	FOODEEG_Images\0180.jpg	YN	Left	Yes	1.18931789998896	0	424207	253
829.70703125	0	health	response	2	103	43	foodImage.11	FOODEEG_Images\0180.jpg	YN	Left	Yes	1.18931789998896	0	424811	234
830.748046875	1	taste	trialStart	2	104	44	foodImage.77	FOODEEG_Images\0771.jpg	YN	Left	Yes	0.82149370003026	0	425344	251
831.79296875	2	taste	foodImageDisplay	2	104	44	foodImage.77	FOODEEG_Images\0771.jpg	YN	Left	Yes	0.82149370003026	0	425879	252
833.85546875	0.82149370003026	taste	choicePhaseStart	2	104	44	foodImage.77	FOODEEG_Images\0771.jpg	YN	Left	Yes	0.82149370003026	0	426935	253
834.666015625	0	taste	response	2	104	44	foodImage.77	FOODEEG_Images\0771.jpg	YN	Left	Yes	0.82149370003026	0	427350	234
835.708984375	1	health	trialStart	2	105	45	foodImage.76	FOODEEG_Images\0766.jpg	YN	Left	Yes	0.693019299884327	0	427884	251
836.755859375	2	health	foodImageDisplay	2	105	45	foodImage.76	FOODEEG_Images\0766.jpg	YN	Left	Yes	0.693019299884327	0	428420	252
838.818359375	0.693019299884327	health	choicePhaseStart	2	105	45	foodImage.76	FOODEEG_Images\0766.jpg	YN	Left	Yes	0.693019299884327	0	429476	253
839.505859375	0	health	response	2	105	45	foodImage.76	FOODEEG_Images\0766.jpg	YN	Left	Yes	0.693019299884327	0	429828	234
840.560546875	1	taste	trialStart	2	106	46	foodImage.42	FOODEEG_Images\0438.jpg	NY	Right	Yes	0.803460700088181	0	430368	251
841.6796875	2	taste	foodImageDisplay	2	106	46	foodImage.42	FOODEEG_Images\0438.jpg	NY	Right	Yes	0.803460700088181	0	430941	252
843.744140625	0.803460700088181	taste	choicePhaseStart	2	106	46	foodImage.42	FOODEEG_Images\0438.jpg	NY	Right	Yes	0.803460700088181	0	431998	253
844.5390625	0	taste	response	2	106	46	foodImage.42	FOODEEG_Images\0438.jpg	NY	Right	Yes	0.803460700088181	0	432405	235
845.58203125	1	taste	trialStart	2	107	47	foodImage.116	FOODEEG_Images\0924.jpg	YN	Right	No	0.807829400058836	0	432939	251
846.62109375	2	taste	foodImageDisplay	2	107	47	foodImage.116	FOODEEG_Images\0924.jpg	YN	Right	No	0.807829400058836	0	433471	252
848.68359375	0.807829400058836	taste	choicePhaseStart	2	107	47	foodImage.116	FOODEEG_Images\0924.jpg	YN	Right	No	0.807829400058836	0	434527	253
849.482421875	0	taste	response	2	107	47	foodImage.116	FOODEEG_Images\0924.jpg	YN	Right	No	0.807829400058836	0	434936	235
850.525390625	1	health	trialStart	2	108	48	foodImage.78	FOODEEG_Images\0787.jpg	NY	Right	Yes	1.36271749995649	0	435470	251
851.578125	2	health	foodImageDisplay	2	108	48	foodImage.78	FOODEEG_Images\0787.jpg	NY	Right	Yes	1.36271749995649	0	436009	252
853.640625	1.36271749995649	health	choicePhaseStart	2	108	48	foodImage.78	FOODEEG_Images\0787.jpg	NY	Right	Yes	1.36271749995649	0	437065	253
854.994140625	0	health	response	2	108	48	foodImage.78	FOODEEG_Images\0787.jpg	NY	Right	Yes	1.36271749995649	0	437758	235
856.037109375	1	taste	trialStart	2	109	49	foodImage.22	FOODEEG_Images\0236.jpg	NY	Right	Yes	1.28863840003032	0	438292	251
857.076171875	2	taste	foodImageDisplay	2	109	49	foodImage.22	FOODEEG_Images\0236.jpg	NY	Right	Yes	1.28863840003032	0	438824	252
859.138671875	1.28863840003032	taste	choicePhaseStart	2	109	49	foodImage.22	FOODEEG_Images\0236.jpg	NY	Right	Yes	1.28863840003032	0	439880	253
860.41796875	0	taste	response	2	109	49	foodImage.22	FOODEEG_Images\0236.jpg	NY	Right	Yes	1.28863840003032	0	440535	235
861.4609375	1	decision	trialStart	2	110	50	foodImage.43	FOODEEG_Images\0445.jpg	YN	Left	Yes	0.922568600042723	0	441069	251
862.517578125	2	decision	foodImageDisplay	2	110	50	foodImage.43	FOODEEG_Images\0445.jpg	YN	Left	Yes	0.922568600042723	0	441610	252
864.583984375	0.922568600042723	decision	choicePhaseStart	2	110	50	foodImage.43	FOODEEG_Images\0445.jpg	YN	Left	Yes	0.922568600042723	0	442668	253
865.498046875	0	decision	response	2	110	50	foodImage.43	FOODEEG_Images\0445.jpg	YN	Left	Yes	0.922568600042723	0	443136	234
866.541015625	1	decision	trialStart	2	111	51	foodImage.10	FOODEEG_Images\0145.jpg	YN	Left	Yes	0.814051599940285	0	443670	251
867.59765625	2	decision	foodImageDisplay	2	111	51	foodImage.10	FOODEEG_Images\0145.jpg	YN	Left	Yes	0.814051599940285	0	444211	252
869.662109375	0.814051599940285	decision	choicePhaseStart	2	111	51	foodImage.10	FOODEEG_Images\0145.jpg	YN	Left	Yes	0.814051599940285	0	445268	253
870.46484375	0	decision	response	2	111	51	foodImage.10	FOODEEG_Images\0145.jpg	YN	Left	Yes	0.814051599940285	0	445679	234
871.5078125	1	taste	trialStart	2	112	52	foodImage.61	FOODEEG_Images\0640.jpg	YN	Left	Yes	0.595594999962486	0	446213	251
872.55078125	2	taste	foodImageDisplay	2	112	52	foodImage.61	FOODEEG_Images\0640.jpg	YN	Left	Yes	0.595594999962486	0	446747	252
874.615234375	0.595594999962486	taste	choicePhaseStart	2	112	52	foodImage.61	FOODEEG_Images\0640.jpg	YN	Left	Yes	0.595594999962486	0	447804	253
875.201171875	0	taste	response	2	112	52	foodImage.61	FOODEEG_Images\0640.jpg	YN	Left	Yes	0.595594999962486	0	448104	234
876.2421875	1	decision	trialStart	2	113	53	foodImage.26	FOODEEG_Images\0262.jpg	YN	Left	Yes	0.827362100011669	0	448637	251
877.283203125	2	decision	foodImageDisplay	2	113	53	foodImage.26	FOODEEG_Images\0262.jpg	YN	Left	Yes	0.827362100011669	0	449170	252
879.34765625	0.827362100011669	decision	choicePhaseStart	2	113	53	foodImage.26	FOODEEG_Images\0262.jpg	YN	Left	Yes	0.827362100011669	0	450227	253
880.16796875	0	decision	response	2	113	53	foodImage.26	FOODEEG_Images\0262.jpg	YN	Left	Yes	0.827362100011669	0	450647	234
881.2109375	1	health	trialStart	2	114	54	foodImage.81	FOODEEG_Images\0797.jpg	YN	Left	Yes	1.145105100004	0	451181	251
882.265625	2	health	foodImageDisplay	2	114	54	foodImage.81	FOODEEG_Images\0797.jpg	YN	Left	Yes	1.145105100004	0	451721	252
884.328125	1.145105100004	health	choicePhaseStart	2	114	54	foodImage.81	FOODEEG_Images\0797.jpg	YN	Left	Yes	1.145105100004	0	452777	253
885.46484375	0	health	response	2	114	54	foodImage.81	FOODEEG_Images\0797.jpg	YN	Left	Yes	1.145105100004	0	453359	234
886.505859375	1	taste	trialStart	2	115	55	foodImage.27	FOODEEG_Images\0263.jpg	NY	Left	No	1.83860229991842	0	453892	251
887.548828125	2	taste	foodImageDisplay	2	115	55	foodImage.27	FOODEEG_Images\0263.jpg	NY	Left	No	1.83860229991842	0	454426	252
889.611328125	1.83860229991842	taste	choicePhaseStart	2	115	55	foodImage.27	FOODEEG_Images\0263.jpg	NY	Left	No	1.83860229991842	0	455482	253
891.439453125	0	taste	response	2	115	55	foodImage.27	FOODEEG_Images\0263.jpg	NY	Left	No	1.83860229991842	0	456418	234
892.48046875	1	taste	trialStart	2	116	56	foodImage.97	FOODEEG_Images\0905.jpg	YN	Right	No	0.675064100068994	0	456951	251
893.51953125	2	taste	foodImageDisplay	2	116	56	foodImage.97	FOODEEG_Images\0905.jpg	YN	Right	No	0.675064100068994	0	457483	252
895.58203125	0.675064100068994	taste	choicePhaseStart	2	116	56	foodImage.97	FOODEEG_Images\0905.jpg	YN	Right	No	0.675064100068994	0	458539	253
896.248046875	0	taste	response	2	116	56	foodImage.97	FOODEEG_Images\0905.jpg	YN	Right	No	0.675064100068994	0	458880	235
897.2890625	1	taste	trialStart	2	117	57	foodImage.119	FOODEEG_Images\0927.jpg	YN	Right	No	0.764928200049326	0	459413	251
898.326171875	2	taste	foodImageDisplay	2	117	57	foodImage.119	FOODEEG_Images\0927.jpg	YN	Right	No	0.764928200049326	0	459944	252
900.388671875	0.764928200049326	taste	choicePhaseStart	2	117	57	foodImage.119	FOODEEG_Images\0927.jpg	YN	Right	No	0.764928200049326	0	461000	253
901.14453125	0	taste	response	2	117	57	foodImage.119	FOODEEG_Images\0927.jpg	YN	Right	No	0.764928200049326	0	461387	235
902.1875	1	health	trialStart	2	118	58	foodImage.17	FOODEEG_Images\0199.jpg	NY	Right	Yes	0.716366099892184	0	461921	251
903.23046875	2	health	foodImageDisplay	2	118	58	foodImage.17	FOODEEG_Images\0199.jpg	NY	Right	Yes	0.716366099892184	0	462455	252
905.29296875	0.716366099892184	health	choicePhaseStart	2	118	58	foodImage.17	FOODEEG_Images\0199.jpg	NY	Right	Yes	0.716366099892184	0	463511	253
906	0	health	response	2	118	58	foodImage.17	FOODEEG_Images\0199.jpg	NY	Right	Yes	0.716366099892184	0	463873	235
907.04296875	1	health	trialStart	2	119	59	foodImage.24	FOODEEG_Images\0250.jpg	YN	Left	Yes	0.803972400026396	0	464407	251
908.0859375	2	health	foodImageDisplay	2	119	59	foodImage.24	FOODEEG_Images\0250.jpg	YN	Left	Yes	0.803972400026396	0	464941	252
910.1484375	0.803972400026396	health	choicePhaseStart	2	119	59	foodImage.24	FOODEEG_Images\0250.jpg	YN	Left	Yes	0.803972400026396	0	465997	253
910.943359375	0	health	response	2	119	59	foodImage.24	FOODEEG_Images\0250.jpg	YN	Left	Yes	0.803972400026396	0	466404	234
911.986328125	1	decision	trialStart	2	120	60	foodImage.7	FOODEEG_Images\0116.jpg	NY	Right	Yes	0.774598599993624	0	466938	251
913.029296875	2	decision	foodImageDisplay	2	120	60	foodImage.7	FOODEEG_Images\0116.jpg	NY	Right	Yes	0.774598599993624	0	467472	252
915.099609375	0.774598599993624	decision	choicePhaseStart	2	120	60	foodImage.7	FOODEEG_Images\0116.jpg	NY	Right	Yes	0.774598599993624	0	468532	253
915.86328125	0	decision	response	2	120	60	foodImage.7	FOODEEG_Images\0116.jpg	NY	Right	Yes	0.774598599993624	0	468923	235
917.912109375	6.798828125	n/a	blockEnd	n/a	n/a	n/a	n/a	n/a	n/a	n/a	n/a	n/a	n/a	469972	254
924.7109375	2	n/a	blockStart	3	n/a	n/a	n/a	n/a	n/a	n/a	n/a	n/a	n/a	473453	250
926.74609375	1	health	trialStart	3	121	1	foodImage.43	FOODEEG_Images\0445.jpg	YN	Left	Yes	0.743062200024724	0	474495	251
927.80078125	2	health	foodImageDisplay	3	121	1	foodImage.43	FOODEEG_Images\0445.jpg	YN	Left	Yes	0.743062200024724	0	475035	252
929.865234375	0.743062200024724	health	choicePhaseStart	3	121	1	foodImage.43	FOODEEG_Images\0445.jpg	YN	Left	Yes	0.743062200024724	0	476092	253
930.599609375	0	health	response	3	121	1	foodImage.43	FOODEEG_Images\0445.jpg	YN	Left	Yes	0.743062200024724	0	476468	234
931.638671875	1	decision	trialStart	3	122	2	foodImage.45	FOODEEG_Images\0478.jpg	NY	Right	Yes	0.588559500058182	0	477000	251
932.68359375	2	decision	foodImageDisplay	3	122	2	foodImage.45	FOODEEG_Images\0478.jpg	NY	Right	Yes	0.588559500058182	0	477535	252
934.748046875	0.588559500058182	decision	choicePhaseStart	3	122	2	foodImage.45	FOODEEG_Images\0478.jpg	NY	Right	Yes	0.588559500058182	0	478592	253
935.326171875	0	decision	response	3	122	2	foodImage.45	FOODEEG_Images\0478.jpg	NY	Right	Yes	0.588559500058182	0	478888	235
936.369140625	1	decision	trialStart	3	123	3	foodImage.30	FOODEEG_Images\0282.jpg	YN	Left	Yes	0.724826400051825	0	479422	251
937.41015625	2	decision	foodImageDisplay	3	123	3	foodImage.30	FOODEEG_Images\0282.jpg	YN	Left	Yes	0.724826400051825	0	479955	252
939.474609375	0.724826400051825	decision	choicePhaseStart	3	123	3	foodImage.30	FOODEEG_Images\0282.jpg	YN	Left	Yes	0.724826400051825	0	481012	253
940.19140625	0	decision	response	3	123	3	foodImage.30	FOODEEG_Images\0282.jpg	YN	Left	Yes	0.724826400051825	0	481379	234
941.234375	1	health	trialStart	3	124	4	foodImage.92	FOODEEG_Images\0900.jpg	YN	Right	No	0.575447499984875	0	481913	251
942.271484375	2	health	foodImageDisplay	3	124	4	foodImage.92	FOODEEG_Images\0900.jpg	YN	Right	No	0.575447499984875	0	482444	252
944.3359375	0.575447499984875	health	choicePhaseStart	3	124	4	foodImage.92	FOODEEG_Images\0900.jpg	YN	Right	No	0.575447499984875	0	483501	253
944.90234375	0	health	response	3	124	4	foodImage.92	FOODEEG_Images\0900.jpg	YN	Right	No	0.575447499984875	0	483791	235
945.94140625	1	health	trialStart	3	125	5	foodImage.50	FOODEEG_Images\0529.jpg	NY	Right	Yes	1.08195470005739	0	484323	251
946.998046875	2	health	foodImageDisplay	3	125	5	foodImage.50	FOODEEG_Images\0529.jpg	NY	Right	Yes	1.08195470005739	0	484864	252
949.0625	1.08195470005739	health	choicePhaseStart	3	125	5	foodImage.50	FOODEEG_Images\0529.jpg	NY	Right	Yes	1.08195470005739	0	485921	253
950.134765625	0	health	response	3	125	5	foodImage.50	FOODEEG_Images\0529.jpg	NY	Right	Yes	1.08195470005739	0	486470	235
951.17578125	1	health	trialStart	3	126	6	foodImage.64	FOODEEG_Images\0647.jpg	YN	Left	Yes	0.802720199921168	0	487003	251
952.236328125	2	health	foodImageDisplay	3	126	6	foodImage.64	FOODEEG_Images\0647.jpg	YN	Left	Yes	0.802720199921168	0	487546	252
954.298828125	0.802720199921168	health	choicePhaseStart	3	126	6	foodImage.64	FOODEEG_Images\0647.jpg	YN	Left	Yes	0.802720199921168	0	488602	253
955.09375	0	health	response	3	126	6	foodImage.64	FOODEEG_Images\0647.jpg	YN	Left	Yes	0.802720199921168	0	489009	234
956.142578125	1	health	trialStart	3	127	7	foodImage.103	FOODEEG_Images\0911.jpg	YN	Right	No	1.35556079994421	0	489546	251
957.1796875	2	health	foodImageDisplay	3	127	7	foodImage.103	FOODEEG_Images\0911.jpg	YN	Right	No	1.35556079994421	0	490077	252
959.244140625	1.35556079994421	health	choicePhaseStart	3	127	7	foodImage.103	FOODEEG_Images\0911.jpg	YN	Right	No	1.35556079994421	0	491134	253
960.58984375	0	health	response	3	127	7	foodImage.103	FOODEEG_Images\0911.jpg	YN	Right	No	1.35556079994421	0	491823	235
961.6328125	1	decision	trialStart	3	128	8	foodImage.69	FOODEEG_Images\0693.jpg	NY	Right	Yes	0.843629200011492	0	492357	251
962.67578125	2	decision	foodImageDisplay	3	128	8	foodImage.69	FOODEEG_Images\0693.jpg	NY	Right	Yes	0.843629200011492	0	492891	252
964.73828125	0.843629200011492	decision	choicePhaseStart	3	128	8	foodImage.69	FOODEEG_Images\0693.jpg	NY	Right	Yes	0.843629200011492	0	493947	253
965.57421875	0	decision	response	3	128	8	foodImage.69	FOODEEG_Images\0693.jpg	NY	Right	Yes	0.843629200011492	0	494375	235
966.6171875	1	taste	trialStart	3	129	9	foodImage.39	FOODEEG_Images\0367.jpg	NY	Right	Yes	0.819272699998692	0	494909	251
967.658203125	2	taste	foodImageDisplay	3	129	9	foodImage.39	FOODEEG_Images\0367.jpg	NY	Right	Yes	0.819272699998692	0	495442	252
969.720703125	0.819272699998692	taste	choicePhaseStart	3	129	9	foodImage.39	FOODEEG_Images\0367.jpg	NY	Right	Yes	0.819272699998692	0	496498	253
970.533203125	0	taste	response	3	129	9	foodImage.39	FOODEEG_Images\0367.jpg	NY	Right	Yes	0.819272699998692	0	496914	235
971.580078125	1	health	trialStart	3	130	10	foodImage.68	FOODEEG_Images\0685.jpg	YN	Left	Yes	0.872114199912176	0	497450	251
972.654296875	2	health	foodImageDisplay	3	130	10	foodImage.68	FOODEEG_Images\0685.jpg	YN	Left	Yes	0.872114199912176	0	498000	252
974.71875	0.872114199912176	health	choicePhaseStart	3	130	10	foodImage.68	FOODEEG_Images\0685.jpg	YN	Left	Yes	0.872114199912176	0	499057	253
975.580078125	0	health	response	3	130	10	foodImage.68	FOODEEG_Images\0685.jpg	YN	Left	Yes	0.872114199912176	0	499498	234
976.623046875	1	health	trialStart	3	131	11	foodImage.73	FOODEEG_Images\0717.jpg	YN	Right	No	1.08069670002442	0	500032	251
977.681640625	2	health	foodImageDisplay	3	131	11	foodImage.73	FOODEEG_Images\0717.jpg	YN	Right	No	1.08069670002442	0	500574	252
979.75	1.08069670002442	health	choicePhaseStart	3	131	11	foodImage.73	FOODEEG_Images\0717.jpg	YN	Right	No	1.08069670002442	0	501633	253
980.8203125	0	health	response	3	131	11	foodImage.73	FOODEEG_Images\0717.jpg	YN	Right	No	1.08069670002442	0	502181	235
981.861328125	1	taste	trialStart	3	132	12	foodImage.12	FOODEEG_Images\0181.jpg	YN	Left	Yes	1.31746799999382	0	502714	251
982.90234375	2	taste	foodImageDisplay	3	132	12	foodImage.12	FOODEEG_Images\0181.jpg	YN	Left	Yes	1.31746799999382	0	503247	252
984.96484375	1.31746799999382	taste	choicePhaseStart	3	132	12	foodImage.12	FOODEEG_Images\0181.jpg	YN	Left	Yes	1.31746799999382	0	504303	253
986.27734375	0	taste	response	3	132	12	foodImage.12	FOODEEG_Images\0181.jpg	YN	Left	Yes	1.31746799999382	0	504975	234
987.318359375	1	health	trialStart	3	133	13	foodImage.20	FOODEEG_Images\0226.jpg	YN	Right	No	1.7523270000238	0	505508	251
988.3671875	2	health	foodImageDisplay	3	133	13	foodImage.20	FOODEEG_Images\0226.jpg	YN	Right	No	1.7523270000238	0	506045	252
990.4296875	1.7523270000238	health	choicePhaseStart	3	133	13	foodImage.20	FOODEEG_Images\0226.jpg	YN	Right	No	1.7523270000238	0	507101	253
992.171875	0	health	response	3	133	13	foodImage.20	FOODEEG_Images\0226.jpg	YN	Right	No	1.7523270000238	0	507993	235
993.21484375	1	health	trialStart	3	134	14	foodImage.72	FOODEEG_Images\0714.jpg	NY	Right	Yes	0.829482699977234	0	508527	251
994.255859375	2	health	foodImageDisplay	3	134	14	foodImage.72	FOODEEG_Images\0714.jpg	NY	Right	Yes	0.829482699977234	0	509060	252
996.3203125	0.829482699977234	health	choicePhaseStart	3	134	14	foodImage.72	FOODEEG_Images\0714.jpg	NY	Right	Yes	0.829482699977234	0	510117	253
997.140625	0	health	response	3	134	14	foodImage.72	FOODEEG_Images\0714.jpg	NY	Right	Yes	0.829482699977234	0	510537	235
998.18359375	1	taste	trialStart	3	135	15	foodImage.50	FOODEEG_Images\0529.jpg	NY	Left	No	1.09187200001907	0	511071	251
999.23828125	2	taste	foodImageDisplay	3	135	15	foodImage.50	FOODEEG_Images\0529.jpg	NY	Left	No	1.09187200001907	0	511611	252
1001.302734375	1.09187200001907	taste	choicePhaseStart	3	135	15	foodImage.50	FOODEEG_Images\0529.jpg	NY	Left	No	1.09187200001907	0	512668	253
1002.388671875	0	taste	response	3	135	15	foodImage.50	FOODEEG_Images\0529.jpg	NY	Left	No	1.09187200001907	0	513224	234
1003.4296875	1	taste	trialStart	3	136	16	foodImage.33	FOODEEG_Images\0329.jpg	NY	Right	Yes	0.622322499984875	0	513757	251
1004.470703125	2	taste	foodImageDisplay	3	136	16	foodImage.33	FOODEEG_Images\0329.jpg	NY	Right	Yes	0.622322499984875	0	514290	252
1006.53515625	0.622322499984875	taste	choicePhaseStart	3	136	16	foodImage.33	FOODEEG_Images\0329.jpg	NY	Right	Yes	0.622322499984875	0	515347	253
1007.1484375	0	taste	response	3	136	16	foodImage.33	FOODEEG_Images\0329.jpg	NY	Right	Yes	0.622322499984875	0	515661	235
1008.189453125	1	health	trialStart	3	137	17	foodImage.118	FOODEEG_Images\0926.jpg	NY	Left	No	1.09717480000108	0	516194	251
1009.228515625	2	health	foodImageDisplay	3	137	17	foodImage.118	FOODEEG_Images\0926.jpg	NY	Left	No	1.09717480000108	0	516726	252
1011.291015625	1.09717480000108	health	choicePhaseStart	3	137	17	foodImage.118	FOODEEG_Images\0926.jpg	NY	Left	No	1.09717480000108	0	517782	253
1012.37890625	0	health	response	3	137	17	foodImage.118	FOODEEG_Images\0926.jpg	NY	Left	No	1.09717480000108	0	518339	234
1013.419921875	1	taste	trialStart	3	138	18	foodImage.16	FOODEEG_Images\0196.jpg	NY	Right	Yes	0.865654799970798	0	518872	251
1014.4765625	2	taste	foodImageDisplay	3	138	18	foodImage.16	FOODEEG_Images\0196.jpg	NY	Right	Yes	0.865654799970798	0	519413	252
1016.5390625	0.865654799970798	taste	choicePhaseStart	3	138	18	foodImage.16	FOODEEG_Images\0196.jpg	NY	Right	Yes	0.865654799970798	0	520469	253
1017.396484375	0	taste	response	3	138	18	foodImage.16	FOODEEG_Images\0196.jpg	NY	Right	Yes	0.865654799970798	0	520908	235
1018.4375	1	taste	trialStart	3	139	19	foodImage.88	FOODEEG_Images\0878.jpg	NY	Right	Yes	0.598604900063947	0	521441	251
1019.494140625	2	taste	foodImageDisplay	3	139	19	foodImage.88	FOODEEG_Images\0878.jpg	NY	Right	Yes	0.598604900063947	0	521982	252
1021.55859375	0.598604900063947	taste	choicePhaseStart	3	139	19	foodImage.88	FOODEEG_Images\0878.jpg	NY	Right	Yes	0.598604900063947	0	523039	253
1022.146484375	0	taste	response	3	139	19	foodImage.88	FOODEEG_Images\0878.jpg	NY	Right	Yes	0.598604900063947	0	523340	235
1023.193359375	1	taste	trialStart	3	140	20	foodImage.17	FOODEEG_Images\0199.jpg	NY	Right	Yes	0.994132100022398	0	523876	251
1024.234375	2	taste	foodImageDisplay	3	140	20	foodImage.17	FOODEEG_Images\0199.jpg	NY	Right	Yes	0.994132100022398	0	524409	252
1026.298828125	0.994132100022398	taste	choicePhaseStart	3	140	20	foodImage.17	FOODEEG_Images\0199.jpg	NY	Right	Yes	0.994132100022398	0	525466	253
1027.283203125	0	taste	response	3	140	20	foodImage.17	FOODEEG_Images\0199.jpg	NY	Right	Yes	0.994132100022398	0	525970	235
1028.32421875	1	decision	trialStart	3	141	21	foodImage.113	FOODEEG_Images\0921.jpg	NY	Right	Yes	1.05015480006114	0	526503	251
1029.36328125	2	decision	foodImageDisplay	3	141	21	foodImage.113	FOODEEG_Images\0921.jpg	NY	Right	Yes	1.05015480006114	0	527035	252
1031.42578125	1.05015480006114	decision	choicePhaseStart	3	141	21	foodImage.113	FOODEEG_Images\0921.jpg	NY	Right	Yes	1.05015480006114	0	528091	253
1032.466796875	0	decision	response	3	141	21	foodImage.113	FOODEEG_Images\0921.jpg	NY	Right	Yes	1.05015480006114	0	528624	235
1033.51171875	1	health	trialStart	3	142	22	foodImage.87	FOODEEG_Images\0873.jpg	NY	Right	Yes	0.696479600039311	0	529159	251
1034.572265625	2	health	foodImageDisplay	3	142	22	foodImage.87	FOODEEG_Images\0873.jpg	NY	Right	Yes	0.696479600039311	0	529702	252
1036.63671875	0.696479600039311	health	choicePhaseStart	3	142	22	foodImage.87	FOODEEG_Images\0873.jpg	NY	Right	Yes	0.696479600039311	0	530759	253
1037.322265625	0	health	response	3	142	22	foodImage.87	FOODEEG_Images\0873.jpg	NY	Right	Yes	0.696479600039311	0	531110	235
1038.365234375	1	decision	trialStart	3	143	23	foodImage.96	FOODEEG_Images\0904.jpg	YN	Right	No	1.15108539990615	0	531644	251
1039.404296875	2	decision	foodImageDisplay	3	143	23	foodImage.96	FOODEEG_Images\0904.jpg	YN	Right	No	1.15108539990615	0	532176	252
1041.46875	1.15108539990615	decision	choicePhaseStart	3	143	23	foodImage.96	FOODEEG_Images\0904.jpg	YN	Right	No	1.15108539990615	0	533233	253
1042.611328125	0	decision	response	3	143	23	foodImage.96	FOODEEG_Images\0904.jpg	YN	Right	No	1.15108539990615	0	533818	235
1043.65625	1	taste	trialStart	3	144	24	foodImage.70	FOODEEG_Images\0705.jpg	YN	Left	Yes	0.665782599942759	0	534353	251
1044.71484375	2	taste	foodImageDisplay	3	144	24	foodImage.70	FOODEEG_Images\0705.jpg	YN	Left	Yes	0.665782599942759	0	534895	252
1046.77734375	0.665782599942759	taste	choicePhaseStart	3	144	24	foodImage.70	FOODEEG_Images\0705.jpg	YN	Left	Yes	0.665782599942759	0	535951	253
1047.43359375	0	taste	response	3	144	24	foodImage.70	FOODEEG_Images\0705.jpg	YN	Left	Yes	0.665782599942759	0	536287	234
1048.4765625	1	decision	trialStart	3	145	25	foodImage.3	FOODEEG_Images\0046.jpg	YN	Left	Yes	1.29600140010007	0	536821	251
1049.51953125	2	decision	foodImageDisplay	3	145	25	foodImage.3	FOODEEG_Images\0046.jpg	YN	Left	Yes	1.29600140010007	0	537355	252
1051.587890625	1.29600140010007	decision	choicePhaseStart	3	145	25	foodImage.3	FOODEEG_Images\0046.jpg	YN	Left	Yes	1.29600140010007	0	538414	253
1052.875	0	decision	response	3	145	25	foodImage.3	FOODEEG_Images\0046.jpg	YN	Left	Yes	1.29600140010007	0	539073	234
1053.91796875	1	taste	trialStart	3	146	26	foodImage.44	FOODEEG_Images\0459.jpg	NY	Right	Yes	0.735949199995957	0	539607	251
1054.962890625	2	taste	foodImageDisplay	3	146	26	foodImage.44	FOODEEG_Images\0459.jpg	NY	Right	Yes	0.735949199995957	0	540142	252
1057.02734375	0.735949199995957	taste	choicePhaseStart	3	146	26	foodImage.44	FOODEEG_Images\0459.jpg	NY	Right	Yes	0.735949199995957	0	541199	253
1057.75390625	0	taste	response	3	146	26	foodImage.44	FOODEEG_Images\0459.jpg	NY	Right	Yes	0.735949199995957	0	541571	235
1058.796875	1	health	trialStart	3	147	27	foodImage.104	FOODEEG_Images\0912.jpg	NY	Right	Yes	0.688073100056499	0	542105	251
1059.833984375	2	health	foodImageDisplay	3	147	27	foodImage.104	FOODEEG_Images\0912.jpg	NY	Right	Yes	0.688073100056499	0	542636	252
1061.8984375	0.688073100056499	health	choicePhaseStart	3	147	27	foodImage.104	FOODEEG_Images\0912.jpg	NY	Right	Yes	0.688073100056499	0	543693	253
1062.578125	0	health	response	3	147	27	foodImage.104	FOODEEG_Images\0912.jpg	NY	Right	Yes	0.688073100056499	0	544041	235
1063.62109375	1	health	trialStart	3	148	28	foodImage.35	FOODEEG_Images\0350.jpg	YN	Right	No	1.22024649998639	0	544575	251
1064.662109375	2	health	foodImageDisplay	3	148	28	foodImage.35	FOODEEG_Images\0350.jpg	YN	Right	No	1.22024649998639	0	545108	252
1066.7265625	1.22024649998639	health	choicePhaseStart	3	148	28	foodImage.35	FOODEEG_Images\0350.jpg	YN	Right	No	1.22024649998639	0	546165	253
1067.9375	0	health	response	3	148	28	foodImage.35	FOODEEG_Images\0350.jpg	YN	Right	No	1.22024649998639	0	546785	235
1068.98046875	1	taste	trialStart	3	149	29	foodImage.20	FOODEEG_Images\0226.jpg	YN	Right	No	1.40356150001753	0	547319	251
1070.0234375	2	taste	foodImageDisplay	3	149	29	foodImage.20	FOODEEG_Images\0226.jpg	YN	Right	No	1.40356150001753	0	547853	252
1072.087890625	1.40356150001753	taste	choicePhaseStart	3	149	29	foodImage.20	FOODEEG_Images\0226.jpg	YN	Right	No	1.40356150001753	0	548910	253
1073.482421875	0	taste	response	3	149	29	foodImage.20	FOODEEG_Images\0226.jpg	YN	Right	No	1.40356150001753	0	549624	235
1074.525390625	1	decision	trialStart	3	150	30	foodImage.12	FOODEEG_Images\0181.jpg	NY	Right	Yes	1.03664959990419	0	550158	251
1075.56640625	2	decision	foodImageDisplay	3	150	30	foodImage.12	FOODEEG_Images\0181.jpg	NY	Right	Yes	1.03664959990419	0	550691	252
1077.62890625	1.03664959990419	decision	choicePhaseStart	3	150	30	foodImage.12	FOODEEG_Images\0181.jpg	NY	Right	Yes	1.03664959990419	0	551747	253
1078.65625	0	decision	response	3	150	30	foodImage.12	FOODEEG_Images\0181.jpg	NY	Right	Yes	1.03664959990419	0	552273	235
1079.703125	1	health	trialStart	3	151	31	foodImage.120	FOODEEG_Images\0928.jpg	YN	Right	No	0.948050000006333	0	552809	251
1080.740234375	2	health	foodImageDisplay	3	151	31	foodImage.120	FOODEEG_Images\0928.jpg	YN	Right	No	0.948050000006333	0	553340	252
1082.806640625	0.948050000006333	health	choicePhaseStart	3	151	31	foodImage.120	FOODEEG_Images\0928.jpg	YN	Right	No	0.948050000006333	0	554398	253
1083.744140625	0	health	response	3	151	31	foodImage.120	FOODEEG_Images\0928.jpg	YN	Right	No	0.948050000006333	0	554878	235
1084.78515625	1	decision	trialStart	3	152	32	foodImage.57	FOODEEG_Images\0587.jpg	YN	Left	Yes	1.05869269999675	0	555411	251
1085.830078125	2	decision	foodImageDisplay	3	152	32	foodImage.57	FOODEEG_Images\0587.jpg	YN	Left	Yes	1.05869269999675	0	555946	252
1087.896484375	1.05869269999675	decision	choicePhaseStart	3	152	32	foodImage.57	FOODEEG_Images\0587.jpg	YN	Left	Yes	1.05869269999675	0	557004	253
1088.9453125	0	decision	response	3	152	32	foodImage.57	FOODEEG_Images\0587.jpg	YN	Left	Yes	1.05869269999675	0	557541	234
1089.98828125	1	health	trialStart	3	153	33	foodImage.51	FOODEEG_Images\0536.jpg	NY	Left	No	0.894874399993569	0	558075	251
1091.037109375	2	health	foodImageDisplay	3	153	33	foodImage.51	FOODEEG_Images\0536.jpg	NY	Left	No	0.894874399993569	0	558612	252
1093.10546875	0.894874399993569	health	choicePhaseStart	3	153	33	foodImage.51	FOODEEG_Images\0536.jpg	NY	Left	No	0.894874399993569	0	559671	253
1093.9921875	0	health	response	3	153	33	foodImage.51	FOODEEG_Images\0536.jpg	NY	Left	No	0.894874399993569	0	560125	234
1095.03515625	1	health	trialStart	3	154	34	foodImage.85	FOODEEG_Images\0841.jpg	NY	Left	No	1.19919770001434	0	560659	251
1096.095703125	2	health	foodImageDisplay	3	154	34	foodImage.85	FOODEEG_Images\0841.jpg	NY	Left	No	1.19919770001434	0	561202	252
1098.158203125	1.19919770001434	health	choicePhaseStart	3	154	34	foodImage.85	FOODEEG_Images\0841.jpg	NY	Left	No	1.19919770001434	0	562258	253
1099.3515625	0	health	response	3	154	34	foodImage.85	FOODEEG_Images\0841.jpg	NY	Left	No	1.19919770001434	0	562869	234
1100.392578125	1	decision	trialStart	3	155	35	foodImage.55	FOODEEG_Images\0567.jpg	NY	Right	Yes	0.943350099958479	0	563402	251
1101.451171875	2	decision	foodImageDisplay	3	155	35	foodImage.55	FOODEEG_Images\0567.jpg	NY	Right	Yes	0.943350099958479	0	563944	252
1103.513671875	0.943350099958479	decision	choicePhaseStart	3	155	35	foodImage.55	FOODEEG_Images\0567.jpg	NY	Right	Yes	0.943350099958479	0	565000	253
1104.44921875	0	decision	response	3	155	35	foodImage.55	FOODEEG_Images\0567.jpg	NY	Right	Yes	0.943350099958479	0	565479	235
1105.48828125	1	taste	trialStart	3	156	36	foodImage.71	FOODEEG_Images\0713.jpg	YN	Left	Yes	0.717636700021103	0	566011	251
1106.53125	2	taste	foodImageDisplay	3	156	36	foodImage.71	FOODEEG_Images\0713.jpg	YN	Left	Yes	0.717636700021103	0	566545	252
1108.595703125	0.717636700021103	taste	choicePhaseStart	3	156	36	foodImage.71	FOODEEG_Images\0713.jpg	YN	Left	Yes	0.717636700021103	0	567602	253
1109.3046875	0	taste	response	3	156	36	foodImage.71	FOODEEG_Images\0713.jpg	YN	Left	Yes	0.717636700021103	0	567965	234
1110.34765625	1	decision	trialStart	3	157	37	foodImage.108	FOODEEG_Images\0916.jpg	YN	Right	No	0.806212200084701	0	568499	251
1111.38671875	2	decision	foodImageDisplay	3	157	37	foodImage.108	FOODEEG_Images\0916.jpg	YN	Right	No	0.806212200084701	0	569031	252
1113.451171875	0.806212200084701	decision	choicePhaseStart	3	157	37	foodImage.108	FOODEEG_Images\0916.jpg	YN	Right	No	0.806212200084701	0	570088	253
1114.248046875	0	decision	response	3	157	37	foodImage.108	FOODEEG_Images\0916.jpg	YN	Right	No	0.806212200084701	0	570496	235
1115.287109375	1	health	trialStart	3	158	38	foodImage.56	FOODEEG_Images\0586.jpg	NY	Right	Yes	1.2143025000114	0	571028	251
1116.330078125	2	health	foodImageDisplay	3	158	38	foodImage.56	FOODEEG_Images\0586.jpg	NY	Right	Yes	1.2143025000114	0	571562	252
1118.39453125	1.2143025000114	health	choicePhaseStart	3	158	38	foodImage.56	FOODEEG_Images\0586.jpg	NY	Right	Yes	1.2143025000114	0	572619	253
1119.599609375	0	health	response	3	158	38	foodImage.56	FOODEEG_Images\0586.jpg	NY	Right	Yes	1.2143025000114	0	573236	235
1120.640625	1	decision	trialStart	3	159	39	foodImage.58	FOODEEG_Images\0605.jpg	YN	Left	Yes	1.02223240002058	0	573769	251
1121.69921875	2	decision	foodImageDisplay	3	159	39	foodImage.58	FOODEEG_Images\0605.jpg	YN	Left	Yes	1.02223240002058	0	574311	252
1123.763671875	1.02223240002058	decision	choicePhaseStart	3	159	39	foodImage.58	FOODEEG_Images\0605.jpg	YN	Left	Yes	1.02223240002058	0	575368	253
1124.775390625	0	decision	response	3	159	39	foodImage.58	FOODEEG_Images\0605.jpg	YN	Left	Yes	1.02223240002058	0	575886	234
1125.814453125	1	decision	trialStart	3	160	40	foodImage.89	FOODEEG_Images\0881.jpg	YN	Left	Yes	0.960590100032277	0	576418	251
1126.87109375	2	decision	foodImageDisplay	3	160	40	foodImage.89	FOODEEG_Images\0881.jpg	YN	Left	Yes	0.960590100032277	0	576959	252
1128.935546875	0.960590100032277	decision	choicePhaseStart	3	160	40	foodImage.89	FOODEEG_Images\0881.jpg	YN	Left	Yes	0.960590100032277	0	578016	253
1129.88671875	0	decision	response	3	160	40	foodImage.89	FOODEEG_Images\0881.jpg	YN	Left	Yes	0.960590100032277	0	578503	234
1130.9296875	1	decision	trialStart	3	161	41	foodImage.34	FOODEEG_Images\0339.jpg	YN	Left	Yes	0.603776999982074	0	579037	251
1131.986328125	2	decision	foodImageDisplay	3	161	41	foodImage.34	FOODEEG_Images\0339.jpg	YN	Left	Yes	0.603776999982074	0	579578	252
1134.048828125	0.603776999982074	decision	choicePhaseStart	3	161	41	foodImage.34	FOODEEG_Images\0339.jpg	YN	Left	Yes	0.603776999982074	0	580634	253
1134.646484375	0	decision	response	3	161	41	foodImage.34	FOODEEG_Images\0339.jpg	YN	Left	Yes	0.603776999982074	0	580940	234
1135.685546875	1	taste	trialStart	3	162	42	foodImage.107	FOODEEG_Images\0915.jpg	NY	Right	Yes	1.24269830004778	0	581472	251
1136.724609375	2	taste	foodImageDisplay	3	162	42	foodImage.107	FOODEEG_Images\0915.jpg	NY	Right	Yes	1.24269830004778	0	582004	252
1138.7890625	1.24269830004778	taste	choicePhaseStart	3	162	42	foodImage.107	FOODEEG_Images\0915.jpg	NY	Right	Yes	1.24269830004778	0	583061	253
1140.021484375	0	taste	response	3	162	42	foodImage.107	FOODEEG_Images\0915.jpg	NY	Right	Yes	1.24269830004778	0	583692	235
1141.064453125	1	decision	trialStart	3	163	43	foodImage.13	FOODEEG_Images\0183.jpg	NY	Right	Yes	0.881152199930511	0	584226	251
1142.10546875	2	decision	foodImageDisplay	3	163	43	foodImage.13	FOODEEG_Images\0183.jpg	NY	Right	Yes	0.881152199930511	0	584759	252
1144.173828125	0.881152199930511	decision	choicePhaseStart	3	163	43	foodImage.13	FOODEEG_Images\0183.jpg	NY	Right	Yes	0.881152199930511	0	585818	253
1145.046875	0	decision	response	3	163	43	foodImage.13	FOODEEG_Images\0183.jpg	NY	Right	Yes	0.881152199930511	0	586265	235
1146.087890625	1	decision	trialStart	3	164	44	foodImage.97	FOODEEG_Images\0905.jpg	YN	Right	No	0.727806800045073	0	586798	251
1147.126953125	2	decision	foodImageDisplay	3	164	44	foodImage.97	FOODEEG_Images\0905.jpg	YN	Right	No	0.727806800045073	0	587330	252
1149.19140625	0.727806800045073	decision	choicePhaseStart	3	164	44	foodImage.97	FOODEEG_Images\0905.jpg	YN	Right	No	0.727806800045073	0	588387	253
1149.91015625	0	decision	response	3	164	44	foodImage.97	FOODEEG_Images\0905.jpg	YN	Right	No	0.727806800045073	0	588755	235
1150.953125	1	decision	trialStart	3	165	45	foodImage.14	FOODEEG_Images\0188.jpg	YN	Left	Yes	1.02898409997579	0	589289	251
1152.01171875	2	decision	foodImageDisplay	3	165	45	foodImage.14	FOODEEG_Images\0188.jpg	YN	Left	Yes	1.02898409997579	0	589831	252
1154.076171875	1.02898409997579	decision	choicePhaseStart	3	165	45	foodImage.14	FOODEEG_Images\0188.jpg	YN	Left	Yes	1.02898409997579	0	590888	253
1155.09375	0	decision	response	3	165	45	foodImage.14	FOODEEG_Images\0188.jpg	YN	Left	Yes	1.02898409997579	0	591409	234
1156.134765625	1	taste	trialStart	3	166	46	foodImage.55	FOODEEG_Images\0567.jpg	NY	Right	Yes	0.601994899916463	0	591942	251
1157.203125	2	taste	foodImageDisplay	3	166	46	foodImage.55	FOODEEG_Images\0567.jpg	NY	Right	Yes	0.601994899916463	0	592489	252
1159.267578125	0.601994899916463	taste	choicePhaseStart	3	166	46	foodImage.55	FOODEEG_Images\0567.jpg	NY	Right	Yes	0.601994899916463	0	593546	253
1159.861328125	0	taste	response	3	166	46	foodImage.55	FOODEEG_Images\0567.jpg	NY	Right	Yes	0.601994899916463	0	593850	235
1160.90625	1	health	trialStart	3	167	47	foodImage.23	FOODEEG_Images\0244.jpg	NY	Right	Yes	1.64593340002466	0	594385	251
1161.9453125	2	health	foodImageDisplay	3	167	47	foodImage.23	FOODEEG_Images\0244.jpg	NY	Right	Yes	1.64593340002466	0	594917	252
1164.009765625	1.64593340002466	health	choicePhaseStart	3	167	47	foodImage.23	FOODEEG_Images\0244.jpg	NY	Right	Yes	1.64593340002466	0	595974	253
1165.646484375	0	health	response	3	167	47	foodImage.23	FOODEEG_Images\0244.jpg	NY	Right	Yes	1.64593340002466	0	596812	235
1166.6875	1	taste	trialStart	3	168	48	foodImage.89	FOODEEG_Images\0881.jpg	NY	Right	Yes	0.888160699978471	0	597345	251
1167.7421875	2	taste	foodImageDisplay	3	168	48	foodImage.89	FOODEEG_Images\0881.jpg	NY	Right	Yes	0.888160699978471	0	597885	252
1169.8046875	0.888160699978471	taste	choicePhaseStart	3	168	48	foodImage.89	FOODEEG_Images\0881.jpg	NY	Right	Yes	0.888160699978471	0	598941	253
1170.685546875	0	taste	response	3	168	48	foodImage.89	FOODEEG_Images\0881.jpg	NY	Right	Yes	0.888160699978471	0	599392	235
1171.73046875	1	taste	trialStart	3	169	49	foodImage.1	FOODEEG_Images\0004.jpg	NY	Right	Yes	0.783040800015442	0	599927	251
1172.76953125	2	taste	foodImageDisplay	3	169	49	foodImage.1	FOODEEG_Images\0004.jpg	NY	Right	Yes	0.783040800015442	0	600459	252
1174.83203125	0.783040800015442	taste	choicePhaseStart	3	169	49	foodImage.1	FOODEEG_Images\0004.jpg	NY	Right	Yes	0.783040800015442	0	601515	253
1175.60546875	0	taste	response	3	169	49	foodImage.1	FOODEEG_Images\0004.jpg	NY	Right	Yes	0.783040800015442	0	601911	235
1176.64453125	1	health	trialStart	3	170	50	foodImage.28	FOODEEG_Images\0273.jpg	NY	Right	Yes	0.752531600068323	0	602443	251
1177.6875	2	health	foodImageDisplay	3	170	50	foodImage.28	FOODEEG_Images\0273.jpg	NY	Right	Yes	0.752531600068323	0	602977	252
1179.75	0.752531600068323	health	choicePhaseStart	3	170	50	foodImage.28	FOODEEG_Images\0273.jpg	NY	Right	Yes	0.752531600068323	0	604033	253
1180.4921875	0	health	response	3	170	50	foodImage.28	FOODEEG_Images\0273.jpg	NY	Right	Yes	0.752531600068323	0	604413	235
1181.53515625	1	decision	trialStart	3	171	51	foodImage.53	FOODEEG_Images\0547.jpg	NY	Left	No	1.54421199997887	0	604947	251
1182.58984375	2	decision	foodImageDisplay	3	171	51	foodImage.53	FOODEEG_Images\0547.jpg	NY	Left	No	1.54421199997887	0	605487	252
1184.654296875	1.54421199997887	decision	choicePhaseStart	3	171	51	foodImage.53	FOODEEG_Images\0547.jpg	NY	Left	No	1.54421199997887	0	606544	253
1186.189453125	0	decision	response	3	171	51	foodImage.53	FOODEEG_Images\0547.jpg	NY	Left	No	1.54421199997887	0	607330	234
1187.232421875	1	decision	trialStart	3	172	52	foodImage.33	FOODEEG_Images\0329.jpg	YN	Left	Yes	0.797556399949826	0	607864	251
1188.2734375	2	decision	foodImageDisplay	3	172	52	foodImage.33	FOODEEG_Images\0329.jpg	YN	Left	Yes	0.797556399949826	0	608397	252
1190.337890625	0.797556399949826	decision	choicePhaseStart	3	172	52	foodImage.33	FOODEEG_Images\0329.jpg	YN	Left	Yes	0.797556399949826	0	609454	253
1191.125	0	decision	response	3	172	52	foodImage.33	FOODEEG_Images\0329.jpg	YN	Left	Yes	0.797556399949826	0	609857	234
1192.166015625	1	taste	trialStart	3	173	53	foodImage.59	FOODEEG_Images\0607.jpg	YN	Right	No	1.22331079992	0	610390	251
1193.216796875	2	taste	foodImageDisplay	3	173	53	foodImage.59	FOODEEG_Images\0607.jpg	YN	Right	No	1.22331079992	0	610928	252
1195.279296875	1.22331079992	taste	choicePhaseStart	3	173	53	foodImage.59	FOODEEG_Images\0607.jpg	YN	Right	No	1.22331079992	0	611984	253
1196.4921875	0	taste	response	3	173	53	foodImage.59	FOODEEG_Images\0607.jpg	YN	Right	No	1.22331079992	0	612605	235
1197.53515625	1	taste	trialStart	3	174	54	foodImage.80	FOODEEG_Images\0796.jpg	NY	Right	Yes	0.923529800027609	0	613139	251
1198.595703125	2	taste	foodImageDisplay	3	174	54	foodImage.80	FOODEEG_Images\0796.jpg	NY	Right	Yes	0.923529800027609	0	613682	252
1200.658203125	0.923529800027609	taste	choicePhaseStart	3	174	54	foodImage.80	FOODEEG_Images\0796.jpg	NY	Right	Yes	0.923529800027609	0	614738	253
1201.572265625	0	taste	response	3	174	54	foodImage.80	FOODEEG_Images\0796.jpg	NY	Right	Yes	0.923529800027609	0	615206	235
1202.615234375	1	health	trialStart	3	175	55	foodImage.97	FOODEEG_Images\0905.jpg	NY	Left	No	1.85921499994583	0	615740	251
1203.654296875	2	health	foodImageDisplay	3	175	55	foodImage.97	FOODEEG_Images\0905.jpg	NY	Left	No	1.85921499994583	0	616272	252
1205.72265625	1.85921499994583	health	choicePhaseStart	3	175	55	foodImage.97	FOODEEG_Images\0905.jpg	NY	Left	No	1.85921499994583	0	617331	253
1207.572265625	0	health	response	3	175	55	foodImage.97	FOODEEG_Images\0905.jpg	NY	Left	No	1.85921499994583	0	618278	234
1208.615234375	1	decision	trialStart	3	176	56	foodImage.88	FOODEEG_Images\0878.jpg	YN	Left	Yes	1.20749360008631	0	618812	251
1209.669921875	2	decision	foodImageDisplay	3	176	56	foodImage.88	FOODEEG_Images\0878.jpg	YN	Left	Yes	1.20749360008631	0	619352	252
1211.734375	1.20749360008631	decision	choicePhaseStart	3	176	56	foodImage.88	FOODEEG_Images\0878.jpg	YN	Left	Yes	1.20749360008631	0	620409	253
1212.931640625	0	decision	response	3	176	56	foodImage.88	FOODEEG_Images\0878.jpg	YN	Left	Yes	1.20749360008631	0	621022	234
1213.97265625	1	health	trialStart	3	177	57	foodImage.3	FOODEEG_Images\0046.jpg	YN	Right	No	0.953096400015056	0	621555	251
1215.013671875	2	health	foodImageDisplay	3	177	57	foodImage.3	FOODEEG_Images\0046.jpg	YN	Right	No	0.953096400015056	0	622088	252
1217.076171875	0.953096400015056	health	choicePhaseStart	3	177	57	foodImage.3	FOODEEG_Images\0046.jpg	YN	Right	No	0.953096400015056	0	623144	253
1218.01953125	0	health	response	3	177	57	foodImage.3	FOODEEG_Images\0046.jpg	YN	Right	No	0.953096400015056	0	623627	235
1219.05859375	1	decision	trialStart	3	178	58	foodImage.102	FOODEEG_Images\0910.jpg	NY	Left	No	1.11702869995497	0	624159	251
1220.09765625	2	decision	foodImageDisplay	3	178	58	foodImage.102	FOODEEG_Images\0910.jpg	NY	Left	No	1.11702869995497	0	624691	252
1222.16015625	1.11702869995497	decision	choicePhaseStart	3	178	58	foodImage.102	FOODEEG_Images\0910.jpg	NY	Left	No	1.11702869995497	0	625747	253
1223.267578125	0	decision	response	3	178	58	foodImage.102	FOODEEG_Images\0910.jpg	NY	Left	No	1.11702869995497	0	626314	234
1224.310546875	1	taste	trialStart	3	179	59	foodImage.14	FOODEEG_Images\0188.jpg	YN	Left	Yes	0.782347199972719	0	626848	251
1225.3671875	2	taste	foodImageDisplay	3	179	59	foodImage.14	FOODEEG_Images\0188.jpg	YN	Left	Yes	0.782347199972719	0	627389	252
1227.431640625	0.782347199972719	taste	choicePhaseStart	3	179	59	foodImage.14	FOODEEG_Images\0188.jpg	YN	Left	Yes	0.782347199972719	0	628446	253
1228.203125	0	taste	response	3	179	59	foodImage.14	FOODEEG_Images\0188.jpg	YN	Left	Yes	0.782347199972719	0	628841	234
1229.24609375	1	decision	trialStart	3	180	60	foodImage.29	FOODEEG_Images\0278.jpg	NY	Right	Yes	2.43065090000164	0	629375	251
1230.287109375	2	decision	foodImageDisplay	3	180	60	foodImage.29	FOODEEG_Images\0278.jpg	NY	Right	Yes	2.43065090000164	0	629908	252
1232.349609375	2.43065090000164	decision	choicePhaseStart	3	180	60	foodImage.29	FOODEEG_Images\0278.jpg	NY	Right	Yes	2.43065090000164	0	630964	253
1234.771484375	0	decision	response	3	180	60	foodImage.29	FOODEEG_Images\0278.jpg	NY	Right	Yes	2.43065090000164	0	632204	235
1236.8125	11.814453125	n/a	blockEnd	n/a	n/a	n/a	n/a	n/a	n/a	n/a	n/a	n/a	n/a	633249	254
1248.626953125	2	n/a	blockStart	4	n/a	n/a	n/a	n/a	n/a	n/a	n/a	n/a	n/a	639298	250
1250.66015625	1	decision	trialStart	4	181	1	foodImage.115	FOODEEG_Images\0923.jpg	NY	Left	No	0.781464600004256	0	640339	251
1251.697265625	2	decision	foodImageDisplay	4	181	1	foodImage.115	FOODEEG_Images\0923.jpg	NY	Left	No	0.781464600004256	0	640870	252
1253.7578125	0.781464600004256	decision	choicePhaseStart	4	181	1	foodImage.115	FOODEEG_Images\0923.jpg	NY	Left	No	0.781464600004256	0	641925	253
1254.529296875	0	decision	response	4	181	1	foodImage.115	FOODEEG_Images\0923.jpg	NY	Left	No	0.781464600004256	0	642320	234
1255.5703125	1	taste	trialStart	4	182	2	foodImage.101	FOODEEG_Images\0909.jpg	NY	Left	No	0.763702699914575	0	642853	251
1256.609375	2	taste	foodImageDisplay	4	182	2	foodImage.101	FOODEEG_Images\0909.jpg	NY	Left	No	0.763702699914575	0	643385	252
1258.671875	0.763702699914575	taste	choicePhaseStart	4	182	2	foodImage.101	FOODEEG_Images\0909.jpg	NY	Left	No	0.763702699914575	0	644441	253
1259.42578125	0	taste	response	4	182	2	foodImage.101	FOODEEG_Images\0909.jpg	NY	Left	No	0.763702699914575	0	644827	234
1260.46875	1	decision	trialStart	4	183	3	foodImage.16	FOODEEG_Images\0196.jpg	YN	Left	Yes	0.685417799977586	0	645361	251
1261.525390625	2	decision	foodImageDisplay	4	183	3	foodImage.16	FOODEEG_Images\0196.jpg	YN	Left	Yes	0.685417799977586	0	645902	252
1263.58984375	0.685417799977586	decision	choicePhaseStart	4	183	3	foodImage.16	FOODEEG_Images\0196.jpg	YN	Left	Yes	0.685417799977586	0	646959	253
1264.265625	0	decision	response	4	183	3	foodImage.16	FOODEEG_Images\0196.jpg	YN	Left	Yes	0.685417799977586	0	647305	234
1265.3046875	1	taste	trialStart	4	184	4	foodImage.96	FOODEEG_Images\0904.jpg	NY	Left	No	1.00336490001064	0	647837	251
1266.34375	2	taste	foodImageDisplay	4	184	4	foodImage.96	FOODEEG_Images\0904.jpg	NY	Left	No	1.00336490001064	0	648369	252
1268.408203125	1.00336490001064	taste	choicePhaseStart	4	184	4	foodImage.96	FOODEEG_Images\0904.jpg	NY	Left	No	1.00336490001064	0	649426	253
1269.40234375	0	taste	response	4	184	4	foodImage.96	FOODEEG_Images\0904.jpg	NY	Left	No	1.00336490001064	0	649935	234
1270.443359375	1	decision	trialStart	4	185	5	foodImage.66	FOODEEG_Images\0676.jpg	YN	Left	Yes	0.861052100080997	0	650468	251
1271.484375	2	decision	foodImageDisplay	4	185	5	foodImage.66	FOODEEG_Images\0676.jpg	YN	Left	Yes	0.861052100080997	0	651001	252
1273.548828125	0.861052100080997	decision	choicePhaseStart	4	185	5	foodImage.66	FOODEEG_Images\0676.jpg	YN	Left	Yes	0.861052100080997	0	652058	253
1274.40234375	0	decision	response	4	185	5	foodImage.66	FOODEEG_Images\0676.jpg	YN	Left	Yes	0.861052100080997	0	652495	234
1275.44140625	1	decision	trialStart	4	186	6	foodImage.24	FOODEEG_Images\0250.jpg	YN	Left	Yes	0.670580700039864	0	653027	251
1276.484375	2	decision	foodImageDisplay	4	186	6	foodImage.24	FOODEEG_Images\0250.jpg	YN	Left	Yes	0.670580700039864	0	653561	252
1278.546875	0.670580700039864	decision	choicePhaseStart	4	186	6	foodImage.24	FOODEEG_Images\0250.jpg	YN	Left	Yes	0.670580700039864	0	654617	253
1279.208984375	0	decision	response	4	186	6	foodImage.24	FOODEEG_Images\0250.jpg	YN	Left	Yes	0.670580700039864	0	654956	234
1280.251953125	1	taste	trialStart	4	187	7	foodImage.11	FOODEEG_Images\0180.jpg	YN	Left	Yes	0.697892699972726	0	655490	251
1281.294921875	2	taste	foodImageDisplay	4	187	7	foodImage.11	FOODEEG_Images\0180.jpg	YN	Left	Yes	0.697892699972726	0	656024	252
1283.359375	0.697892699972726	taste	choicePhaseStart	4	187	7	foodImage.11	FOODEEG_Images\0180.jpg	YN	Left	Yes	0.697892699972726	0	657081	253
1284.048828125	0	taste	response	4	187	7	foodImage.11	FOODEEG_Images\0180.jpg	YN	Left	Yes	0.697892699972726	0	657434	234
1285.091796875	1	taste	trialStart	4	188	8	foodImage.21	FOODEEG_Images\0234.jpg	NY	Right	Yes	0.798600400099531	0	657968	251
1286.15234375	2	taste	foodImageDisplay	4	188	8	foodImage.21	FOODEEG_Images\0234.jpg	NY	Right	Yes	0.798600400099531	0	658511	252
1288.220703125	0.798600400099531	taste	choicePhaseStart	4	188	8	foodImage.21	FOODEEG_Images\0234.jpg	NY	Right	Yes	0.798600400099531	0	659570	253
1289.0078125	0	taste	response	4	188	8	foodImage.21	FOODEEG_Images\0234.jpg	NY	Right	Yes	0.798600400099531	0	659973	235
1290.05078125	1	taste	trialStart	4	189	9	foodImage.31	FOODEEG_Images\0294.jpg	YN	Left	Yes	1.42724479991011	0	660507	251
1291.10546875	2	taste	foodImageDisplay	4	189	9	foodImage.31	FOODEEG_Images\0294.jpg	YN	Left	Yes	1.42724479991011	0	661047	252
1293.171875	1.42724479991011	taste	choicePhaseStart	4	189	9	foodImage.31	FOODEEG_Images\0294.jpg	YN	Left	Yes	1.42724479991011	0	662105	253
1294.59375	0	taste	response	4	189	9	foodImage.31	FOODEEG_Images\0294.jpg	YN	Left	Yes	1.42724479991011	0	662833	234
1295.6328125	1	taste	trialStart	4	190	10	foodImage.105	FOODEEG_Images\0913.jpg	YN	Right	No	1.59437179996166	0	663365	251
1296.671875	2	taste	foodImageDisplay	4	190	10	foodImage.105	FOODEEG_Images\0913.jpg	YN	Right	No	1.59437179996166	0	663897	252
1298.734375	1.59437179996166	taste	choicePhaseStart	4	190	10	foodImage.105	FOODEEG_Images\0913.jpg	YN	Right	No	1.59437179996166	0	664953	253
1300.3203125	0	taste	response	4	190	10	foodImage.105	FOODEEG_Images\0913.jpg	YN	Right	No	1.59437179996166	0	665765	235
1301.36328125	1	health	trialStart	4	191	11	foodImage.106	FOODEEG_Images\0914.jpg	NY	Left	No	0.98607619991526	0	666299	251
1302.40234375	2	health	foodImageDisplay	4	191	11	foodImage.106	FOODEEG_Images\0914.jpg	NY	Left	No	0.98607619991526	0	666831	252
1304.470703125	0.98607619991526	health	choicePhaseStart	4	191	11	foodImage.106	FOODEEG_Images\0914.jpg	NY	Left	No	0.98607619991526	0	667890	253
1305.44921875	0	health	response	4	191	11	foodImage.106	FOODEEG_Images\0914.jpg	NY	Left	No	0.98607619991526	0	668391	234
1306.4921875	1	health	trialStart	4	192	12	foodImage.53	FOODEEG_Images\0547.jpg	YN	Right	No	1.19446300005075	0	668925	251
1307.552734375	2	health	foodImageDisplay	4	192	12	foodImage.53	FOODEEG_Images\0547.jpg	YN	Right	No	1.19446300005075	0	669468	252
1309.615234375	1.19446300005075	health	choicePhaseStart	4	192	12	foodImage.53	FOODEEG_Images\0547.jpg	YN	Right	No	1.19446300005075	0	670524	253
1310.80078125	0	health	response	4	192	12	foodImage.53	FOODEEG_Images\0547.jpg	YN	Right	No	1.19446300005075	0	671131	235
1311.84375	1	health	trialStart	4	193	13	foodImage.82	FOODEEG_Images\0805.jpg	NY	Right	Yes	0.84861930005718	0	671665	251
