onset	duration	trial_type	event_type	block	trial_total	trial_in_block	food_image_code	food_image_path	button_position	resp_position	resp_choice	choice_rt	resp_too_slow	sample	trigger
312.888671875	2	n/a	blockStart	1	n/a	n/a	n/a	n/a	n/a	n/a	n/a	n/a	n/a	160200	250
314.9296875	1	health	trialStart	1	1	1	foodImage.86	FOODEEG_Images\0844.jpg	NY	Left	No	1.90327370003797	0	161245	251
316	2	health	foodImageDisplay	1	1	1	foodImage.86	FOODEEG_Images\0844.jpg	NY	Left	No	1.90327370003797	0	161793	252
318.064453125	1.90327370003797	health	choicePhaseStart	1	1	1	foodImage.86	FOODEEG_Images\0844.jpg	NY	Left	No	1.90327370003797	0	162850	253
319.9609375	0	health	response	1	1	1	foodImage.86	FOODEEG_Images\0844.jpg	NY	Left	No	1.90327370003797	0	163821	234
321.078125	1	taste	trialStart	1	2	2	foodImage.55	FOODEEG_Images\0567.jpg	NY	Right	Yes	1.5586617999943	0	164393	251
322.138671875	2	taste	foodImageDisplay	1	2	2	foodImage.55	FOODEEG_Images\0567.jpg	NY	Right	Yes	1.5586617999943	0	164936	252
324.203125	1.5586617999943	taste	choicePhaseStart	1	2	2	foodImage.55	FOODEEG_Images\0567.jpg	NY	Right	Yes	1.5586617999943	0	165993	253
325.75390625	0	taste	response	1	2	2	foodImage.55	FOODEEG_Images\0567.jpg	NY	Right	Yes	1.5586617999943	0	166787	235
326.806640625	1	taste	trialStart	1	3	3	foodImage.68	FOODEEG_Images\0685.jpg	YN	Left	Yes	1.48992680001538	0	167326	251
327.88671875	2	taste	foodImageDisplay	1	3	3	foodImage.68	FOODEEG_Images\0685.jpg	YN	Left	Yes	1.48992680001538	0	167879	252
329.951171875	1.48992680001538	taste	choicePhaseStart	1	3	3	foodImage.68	FOODEEG_Images\0685.jpg	YN	Left	Yes	1.48992680001538	0	168936	253
331.431640625	0	taste	response	1	3	3	foodImage.68	FOODEEG_Images\0685.jpg	YN	Left	Yes	1.48992680001538	0	169694	234
332.4765625	1	decision	trialStart	1	4	4	foodImage.15	FOODEEG_Images\0189.jpg	NY	Right	Yes	1.01677240000572	0	170229	251
333.53515625	2	decision	foodImageDisplay	1	4	4	foodImage.15	FOODEEG_Images\0189.jpg	NY	Right	Yes	1.01677240000572	0	170771	252
335.599609375	1.01677240000572	decision	choicePhaseStart	1	4	4	foodImage.15	FOODEEG_Images\0189.jpg	NY	Right	Yes	1.01677240000572	0	171828	253
336.607421875	0	decision	response	1	4	4	foodImage.15	FOODEEG_Images\0189.jpg	NY	Right	Yes	1.01677240000572	0	172344	235
337.65234375	1	health	trialStart	1	5	5	foodImage.13	FOODEEG_Images\0183.jpg	NY	Right	Yes	1.73889819998294	0	172879	251
338.69921875	2	health	foodImageDisplay	1	5	5	foodImage.13	FOODEEG_Images\0183.jpg	NY	Right	Yes	1.73889819998294	0	173415	252
340.765625	1.73889819998294	health	choicePhaseStart	1	5	5	foodImage.13	FOODEEG_Images\0183.jpg	NY	Right	Yes	1.73889819998294	0	174473	253
342.49609375	0	health	response	1	5	5	foodImage.13	FOODEEG_Images\0183.jpg	NY	Right	Yes	1.73889819998294	0	175359	235
343.548828125	1	decision	trialStart	1	6	6	foodImage.41	FOODEEG_Images\0409.jpg	NY	Right	Yes	1.54480070003774	0	175898	251
344.59765625	2	decision	foodImageDisplay	1	6	6	foodImage.41	FOODEEG_Images\0409.jpg	NY	Right	Yes	1.54480070003774	0	176435	252
346.662109375	1.54480070003774	decision	choicePhaseStart	1	6	6	foodImage.41	FOODEEG_Images\0409.jpg	NY	Right	Yes	1.54480070003774	0	177492	253
348.19921875	0	decision	response	1	6	6	foodImage.41	FOODEEG_Images\0409.jpg	NY	Right	Yes	1.54480070003774	0	178279	235
349.259765625	1	decision	trialStart	1	7	7	foodImage.46	FOODEEG_Images\0479.jpg	YN	Right	No	2.07555690000299	0	178822	251
350.31640625	2	decision	foodImageDisplay	1	7	7	foodImage.46	FOODEEG_Images\0479.jpg	YN	Right	No	2.07555690000299	0	179363	252
352.380859375	2.07555690000299	decision	choicePhaseStart	1	7	7	foodImage.46	FOODEEG_Images\0479.jpg	YN	Right	No	2.07555690000299	0	180420	253
354.44921875	0	decision	response	1	7	7	foodImage.46	FOODEEG_Images\0479.jpg	YN	Right	No	2.07555690000299	0	181479	235
355.4921875	1	health	trialStart	1	8	8	foodImage.94	FOODEEG_Images\0902.jpg	YN	Right	No	2.83021610009018	0	182013	251
356.533203125	2	health	foodImageDisplay	1	8	8	foodImage.94	FOODEEG_Images\0902.jpg	YN	Right	No	2.83021610009018	0	182546	252
358.59765625	2.83021610009018	health	choicePhaseStart	1	8	8	foodImage.94	FOODEEG_Images\0902.jpg	YN	Right	No	2.83021610009018	0	183603	253
361.423828125	0	health	response	1	8	8	foodImage.94	FOODEEG_Images\0902.jpg	YN	Right	No	2.83021610009018	0	185050	235
362.466796875	1	taste	trialStart	1	9	9	foodImage.91	FOODEEG_Images\0896.jpg	YN	Left	Yes	1.53835629997775	0	185584	251
363.5234375	2	taste	foodImageDisplay	1	9	9	foodImage.91	FOODEEG_Images\0896.jpg	YN	Left	Yes	1.53835629997775	0	186125	252
365.58984375	1.53835629997775	taste	choicePhaseStart	1	9	9	foodImage.91	FOODEEG_Images\0896.jpg	YN	Left	Yes	1.53835629997775	0	187183	253
367.119140625	0	taste	response	1	9	9	foodImage.91	FOODEEG_Images\0896.jpg	YN	Left	Yes	1.53835629997775	0	187966	234
368.162109375	1	health	trialStart	1	10	10	foodImage.49	FOODEEG_Images\0515.jpg	NY	Left	No	4.0996354999952	0	188500	251
369.205078125	2	health	foodImageDisplay	1	10	10	foodImage.49	FOODEEG_Images\0515.jpg	NY	Left	No	4.0996354999952	0	189034	252
371.26953125	4.0996354999952	health	choicePhaseStart	1	10	10	foodImage.49	FOODEEG_Images\0515.jpg	NY	Left	No	4.0996354999952	0	190091	253
375.359375	0	health	response	1	10	10	foodImage.49	FOODEEG_Images\0515.jpg	NY	Left	No	4.0996354999952	0	192185	234
376.400390625	1	decision	trialStart	1	11	11	foodImage.55	FOODEEG_Images\0567.jpg	YN	Left	Yes	2.00310189998709	0	192718	251
377.45703125	2	decision	foodImageDisplay	1	11	11	foodImage.55	FOODEEG_Images\0567.jpg	YN	Left	Yes	2.00310189998709	0	193259	252
379.5234375	2.00310189998709	decision	choicePhaseStart	1	11	11	foodImage.55	FOODEEG_Images\0567.jpg	YN	Left	Yes	2.00310189998709	0	194317	253
381.51953125	0	decision	response	1	11	11	foodImage.55	FOODEEG_Images\0567.jpg	YN	Left	Yes	2.00310189998709	0	195339	234
382.5625	1	health	trialStart	1	12	12	foodImage.91	FOODEEG_Images\0896.jpg	NY	Left	No	2.9022668999387	0	195873	251
383.619140625	2	health	foodImageDisplay	1	12	12	foodImage.91	FOODEEG_Images\0896.jpg	NY	Left	No	2.9022668999387	0	196414	252
385.685546875	2.9022668999387	health	choicePhaseStart	1	12	12	foodImage.91	FOODEEG_Images\0896.jpg	NY	Left	No	2.9022668999387	0	197472	253
388.58203125	0	health	response	1	12	12	foodImage.91	FOODEEG_Images\0896.jpg	NY	Left	No	2.9022668999387	0	198955	234
389.626953125	1	health	trialStart	1	13	13	foodImage.116	FOODEEG_Images\0924.jpg	YN	Right	No	4.14150869997684	0	199490	251
390.681640625	2	health	foodImageDisplay	1	13	13	foodImage.116	FOODEEG_Images\0924.jpg	YN	Right	No	4.14150869997684	0	200030	252
392.74609375	4.14150869997684	health	choicePhaseStart	1	13	13	foodImage.116	FOODEEG_Images\0924.jpg	YN	Right	No	4.14150869997684	0	201087	253
396.876953125	0	health	response	1	13	13	foodImage.116	FOODEEG_Images\0924.jpg	YN	Right	No	4.14150869997684	0	203202	235
397.921875	1	taste	trialStart	1	14	14	foodImage.50	FOODEEG_Images\0529.jpg	NY	Left	No	1.74157330009621	0	203737	251
398.9765625	2	taste	foodImageDisplay	1	14	14	foodImage.50	FOODEEG_Images\0529.jpg	NY	Left	No	1.74157330009621	0	204277	252
401.041015625	1.74157330009621	taste	choicePhaseStart	1	14	14	foodImage.50	FOODEEG_Images\0529.jpg	NY	Left	No	1.74157330009621	0	205334	253
402.7734375	0	taste	response	1	14	14	foodImage.50	FOODEEG_Images\0529.jpg	NY	Left	No	1.74157330009621	0	206221	234
403.818359375	1	taste	trialStart	1	15	15	foodImage.114	FOODEEG_Images\0922.jpg	NY	Left	No	2.89464419998694	0	206756	251
404.857421875	2	taste	foodImageDisplay	1	15	15	foodImage.114	FOODEEG_Images\0922.jpg	NY	Left	No	2.89464419998694	0	207288	252
406.919921875	2.89464419998694	taste	choicePhaseStart	1	15	15	foodImage.114	FOODEEG_Images\0922.jpg	NY	Left	No	2.89464419998694	0	208344	253
409.8046875	0	taste	response	1	15	15	foodImage.114	FOODEEG_Images\0922.jpg	NY	Left	No	2.89464419998694	0	209821	234
410.849609375	1	decision	trialStart	1	16	16	foodImage.47	FOODEEG_Images\0488.jpg	YN	Left	Yes	1.66462930000853	0	210356	251
411.890625	2	decision	foodImageDisplay	1	16	16	foodImage.47	FOODEEG_Images\0488.jpg	YN	Left	Yes	1.66462930000853	0	210889	252
413.955078125	1.66462930000853	decision	choicePhaseStart	1	16	16	foodImage.47	FOODEEG_Images\0488.jpg	YN	Left	Yes	1.66462930000853	0	211946	253
415.61328125	0	decision	response	1	16	16	foodImage.47	FOODEEG_Images\0488.jpg	YN	Left	Yes	1.66462930000853	0	212795	234
416.654296875	1	health	trialStart	1	17	17	foodImage.51	FOODEEG_Images\0536.jpg	YN	Right	No	1.61777639994398	0	213328	251
417.701171875	2	health	foodImageDisplay	1	17	17	foodImage.51	FOODEEG_Images\0536.jpg	YN	Right	No	1.61777639994398	0	213864	252
419.763671875	1.61777639994398	health	choicePhaseStart	1	17	17	foodImage.51	FOODEEG_Images\0536.jpg	YN	Right	No	1.61777639994398	0	214920	253
421.373046875	0	health	response	1	17	17	foodImage.51	FOODEEG_Images\0536.jpg	YN	Right	No	1.61777639994398	0	215744	235
422.416015625	1	health	trialStart	1	18	18	foodImage.42	FOODEEG_Images\0438.jpg	NY	Right	Yes	3.00653289991897	0	216278	251
423.50390625	2	health	foodImageDisplay	1	18	18	foodImage.42	FOODEEG_Images\0438.jpg	NY	Right	Yes	3.00653289991897	0	216835	252
425.56640625	3.00653289991897	health	choicePhaseStart	1	18	18	foodImage.42	FOODEEG_Images\0438.jpg	NY	Right	Yes	3.00653289991897	0	217891	253
428.564453125	0	health	response	1	18	18	foodImage.42	FOODEEG_Images\0438.jpg	NY	Right	Yes	3.00653289991897	0	219426	235
429.607421875	1	decision	trialStart	1	19	19	foodImage.106	FOODEEG_Images\0914.jpg	YN	Left	Yes	1.82496459991671	0	219960	251
430.646484375	2	decision	foodImageDisplay	1	19	19	foodImage.106	FOODEEG_Images\0914.jpg	YN	Left	Yes	1.82496459991671	0	220492	252
432.708984375	1.82496459991671	decision	choicePhaseStart	1	19	19	foodImage.106	FOODEEG_Images\0914.jpg	YN	Left	Yes	1.82496459991671	0	221548	253
434.5234375	0	decision	response	1	19	19	foodImage.106	FOODEEG_Images\0914.jpg	YN	Left	Yes	1.82496459991671	0	222477	234
435.568359375	1	taste	trialStart	1	20	20	foodImage.21	FOODEEG_Images\0234.jpg	YN	Left	Yes	1.93638820003252	0	223012	251
436.646484375	2	taste	foodImageDisplay	1	20	20	foodImage.21	FOODEEG_Images\0234.jpg	YN	Left	Yes	1.93638820003252	0	223564	252
438.708984375	1.93638820003252	taste	choicePhaseStart	1	20	20	foodImage.21	FOODEEG_Images\0234.jpg	YN	Left	Yes	1.93638820003252	0	224620	253
440.63671875	0	taste	response	1	20	20	foodImage.21	FOODEEG_Images\0234.jpg	YN	Left	Yes	1.93638820003252	0	225607	234
441.6796875	1	decision	trialStart	1	21	21	foodImage.97	FOODEEG_Images\0905.jpg	NY	Left	No	2.27110180002637	0	226141	251
442.71875	2	decision	foodImageDisplay	1	21	21	foodImage.97	FOODEEG_Images\0905.jpg	NY	Left	No	2.27110180002637	0	226673	252
444.783203125	2.27110180002637	decision	choicePhaseStart	1	21	21	foodImage.97	FOODEEG_Images\0905.jpg	NY	Left	No	2.27110180002637	0	227730	253
447.044921875	0	decision	response	1	21	21	foodImage.97	FOODEEG_Images\0905.jpg	NY	Left	No	2.27110180002637	0	228888	234
448.0859375	1	decision	trialStart	1	22	22	foodImage.64	FOODEEG_Images\0647.jpg	NY	Right	Yes	1.25109459995292	0	229421	251
449.142578125	2	decision	foodImageDisplay	1	22	22	foodImage.64	FOODEEG_Images\0647.jpg	NY	Right	Yes	1.25109459995292	0	229962	252
451.20703125	1.25109459995292	decision	choicePhaseStart	1	22	22	foodImage.64	FOODEEG_Images\0647.jpg	NY	Right	Yes	1.25109459995292	0	231019	253
452.451171875	0	decision	response	1	22	22	foodImage.64	FOODEEG_Images\0647.jpg	NY	Right	Yes	1.25109459995292	0	231656	235
453.498046875	1	decision	trialStart	1	23	23	foodImage.77	FOODEEG_Images\0771.jpg	YN	Left	Yes	1.5297230000142	0	232192	251
454.541015625	2	decision	foodImageDisplay	1	23	23	foodImage.77	FOODEEG_Images\0771.jpg	YN	Left	Yes	1.5297230000142	0	232726	252
456.603515625	1.5297230000142	decision	choicePhaseStart	1	23	23	foodImage.77	FOODEEG_Images\0771.jpg	YN	Left	Yes	1.5297230000142	0	233782	253
458.123046875	0	decision	response	1	23	23	foodImage.77	FOODEEG_Images\0771.jpg	YN	Left	Yes	1.5297230000142	0	234560	234
459.169921875	1	health	trialStart	1	24	24	foodImage.82	FOODEEG_Images\0805.jpg	NY	Right	Yes	1.46956880006474	0	235096	251
460.240234375	2	health	foodImageDisplay	1	24	24	foodImage.82	FOODEEG_Images\0805.jpg	NY	Right	Yes	1.46956880006474	0	235644	252
462.302734375	1.46956880006474	health	choicePhaseStart	1	24	24	foodImage.82	FOODEEG_Images\0805.jpg	NY	Right	Yes	1.46956880006474	0	236700	253
463.763671875	0	health	response	1	24	24	foodImage.82	FOODEEG_Images\0805.jpg	NY	Right	Yes	1.46956880006474	0	237448	235
464.806640625	1	decision	trialStart	1	25	25	foodImage.43	FOODEEG_Images\0445.jpg	NY	Right	Yes	2.22796619997825	0	237982	251
465.865234375	2	decision	foodImageDisplay	1	25	25	foodImage.43	FOODEEG_Images\0445.jpg	NY	Right	Yes	2.22796619997825	0	238524	252
467.935546875	2.22796619997825	decision	choicePhaseStart	1	25	25	foodImage.43	FOODEEG_Images\0445.jpg	NY	Right	Yes	2.22796619997825	0	239584	253
470.15625	0	decision	response	1	25	25	foodImage.43	FOODEEG_Images\0445.jpg	NY	Right	Yes	2.22796619997825	0	240721	235
471.197265625	1	decision	trialStart	1	26	26	foodImage.74	FOODEEG_Images\0752.jpg	YN	Right	No	2.657189700054	0	241254	251
472.244140625	2	decision	foodImageDisplay	1	26	26	foodImage.74	FOODEEG_Images\0752.jpg	YN	Right	No	2.657189700054	0	241790	252
474.306640625	2.657189700054	decision	choicePhaseStart	1	26	26	foodImage.74	FOODEEG_Images\0752.jpg	YN	Right	No	2.657189700054	0	242846	253
476.955078125	0	decision	response	1	26	26	foodImage.74	FOODEEG_Images\0752.jpg	YN	Right	No	2.657189700054	0	244202	235
477.998046875	1	decision	trialStart	1	27	27	foodImage.21	FOODEEG_Images\0234.jpg	YN	Left	Yes	1.70445730001666	0	244736	251
479.052734375	2	decision	foodImageDisplay	1	27	27	foodImage.21	FOODEEG_Images\0234.jpg	YN	Left	Yes	1.70445730001666	0	245276	252
481.115234375	1.70445730001666	decision	choicePhaseStart	1	27	27	foodImage.21	FOODEEG_Images\0234.jpg	YN	Left	Yes	1.70445730001666	0	246332	253
482.810546875	0	decision	response	1	27	27	foodImage.21	FOODEEG_Images\0234.jpg	YN	Left	Yes	1.70445730001666	0	247200	234
483.85546875	1	health	trialStart	1	28	28	foodImage.41	FOODEEG_Images\0409.jpg	NY	Right	Yes	1.47467660007533	0	247735	251
484.9140625	2	health	foodImageDisplay	1	28	28	foodImage.41	FOODEEG_Images\0409.jpg	NY	Right	Yes	1.47467660007533	0	248277	252
486.9765625	1.47467660007533	health	choicePhaseStart	1	28	28	foodImage.41	FOODEEG_Images\0409.jpg	NY	Right	Yes	1.47467660007533	0	249333	253
488.443359375	0	health	response	1	28	28	foodImage.41	FOODEEG_Images\0409.jpg	NY	Right	Yes	1.47467660007533	0	250084	235
489.486328125	1	decision	trialStart	1	29	29	foodImage.108	FOODEEG_Images\0916.jpg	YN	Right	No	2.49594340007752	0	250618	251
490.5390625	2	decision	foodImageDisplay	1	29	29	foodImage.108	FOODEEG_Images\0916.jpg	YN	Right	No	2.49594340007752	0	251157	252
492.603515625	2.49594340007752	decision	choicePhaseStart	1	29	29	foodImage.108	FOODEEG_Images\0916.jpg	YN	Right	No	2.49594340007752	0	252214	253
495.08984375	0	decision	response	1	29	29	foodImage.108	FOODEEG_Images\0916.jpg	YN	Right	No	2.49594340007752	0	253487	235
496.1328125	1	decision	trialStart	1	30	30	foodImage.78	FOODEEG_Images\0787.jpg	NY	Right	Yes	1.92070250003599	0	254021	251
497.1796875	2	decision	foodImageDisplay	1	30	30	foodImage.78	FOODEEG_Images\0787.jpg	NY	Right	Yes	1.92070250003599	0	254557	252
499.2421875	1.92070250003599	decision	choicePhaseStart	1	30	30	foodImage.78	FOODEEG_Images\0787.jpg	NY	Right	Yes	1.92070250003599	0	255613	253
501.154296875	0	decision	response	1	30	30	foodImage.78	FOODEEG_Images\0787.jpg	NY	Right	Yes	1.92070250003599	0	256592	235
502.1953125	1	decision	trialStart	1	31	31	foodImage.70	FOODEEG_Images\0705.jpg	YN	Left	Yes	1.23981229995843	0	257125	251
503.251953125	2	decision	foodImageDisplay	1	31	31	foodImage.70	FOODEEG_Images\0705.jpg	YN	Left	Yes	1.23981229995843	0	257666	252
505.322265625	1.23981229995843	decision	choicePhaseStart	1	31	31	foodImage.70	FOODEEG_Images\0705.jpg	YN	Left	Yes	1.23981229995843	0	258726	253
506.552734375	0	decision	response	1	31	31	foodImage.70	FOODEEG_Images\0705.jpg	YN	Left	Yes	1.23981229995843	0	259356	234
507.59765625	1	health	trialStart	1	32	32	foodImage.120	FOODEEG_Images\0928.jpg	NY	Right	Yes	1.92059610004071	0	259891	251
508.63671875	2	health	foodImageDisplay	1	32	32	foodImage.120	FOODEEG_Images\0928.jpg	NY	Right	Yes	1.92059610004071	0	260423	252
510.69921875	1.92059610004071	health	choicePhaseStart	1	32	32	foodImage.120	FOODEEG_Images\0928.jpg	NY	Right	Yes	1.92059610004071	0	261479	253
512.609375	0	health	response	1	32	32	foodImage.120	FOODEEG_Images\0928.jpg	NY	Right	Yes	1.92059610004071	0	262457	235
513.658203125	1	taste	trialStart	1	33	33	foodImage.97	FOODEEG_Images\0905.jpg	YN	Right	No	2.71681809995789	0	262994	251
514.697265625	2	taste	foodImageDisplay	1	33	33	foodImage.97	FOODEEG_Images\0905.jpg	YN	Right	No	2.71681809995789	0	263526	252
516.765625	2.71681809995789	taste	choicePhaseStart	1	33	33	foodImage.97	FOODEEG_Images\0905.jpg	YN	Right	No	2.71681809995789	0	264585	253
519.47265625	0	taste	response	1	33	33	foodImage.97	FOODEEG_Images\0905.jpg	YN	Right	No	2.71681809995789	0	265971	235
520.521484375	1	decision	trialStart	1	34	34	foodImage.99	FOODEEG_Images\0907.jpg	YN	Right	No	3.13937610003632	0	266508	251
521.55859375	2	decision	foodImageDisplay	1	34	34	foodImage.99	FOODEEG_Images\0907.jpg	YN	Right	No	3.13937610003632	0	267039	252
523.623046875	3.13937610003632	decision	choicePhaseStart	1	34	34	foodImage.99	FOODEEG_Images\0907.jpg	YN	Right	No	3.13937610003632	0	268096	253
526.75390625	0	decision	response	1	34	34	foodImage.99	FOODEEG_Images\0907.jpg	YN	Right	No	3.13937610003632	0	269699	235
527.796875	1	decision	trialStart	1	35	35	foodImage.8	FOODEEG_Images\0136.jpg	YN	Left	Yes	1.10680459998548	0	270233	251
528.83984375	2	decision	foodImageDisplay	1	35	35	foodImage.8	FOODEEG_Images\0136.jpg	YN	Left	Yes	1.10680459998548	0	270767	252
530.90234375	1.10680459998548	decision	choicePhaseStart	1	35	35	foodImage.8	FOODEEG_Images\0136.jpg	YN	Left	Yes	1.10680459998548	0	271823	253
532	0	decision	response	1	35	35	foodImage.8	FOODEEG_Images\0136.jpg	YN	Left	Yes	1.10680459998548	0	272385	234
533.044921875	1	health	trialStart	1	36	36	foodImage.64	FOODEEG_Images\0647.jpg	NY	Right	Yes	2.16467840003315	0	272920	251
534.103515625	2	health	foodImageDisplay	1	36	36	foodImage.64	FOODEEG_Images\0647.jpg	NY	Right	Yes	2.16467840003315	0	273462	252
536.166015625	2.16467840003315	health	choicePhaseStart	1	36	36	foodImage.64	FOODEEG_Images\0647.jpg	NY	Right	Yes	2.16467840003315	0	274518	253
538.3203125	0	health	response	1	36	36	foodImage.64	FOODEEG_Images\0647.jpg	NY	Right	Yes	2.16467840003315	0	275621	235
539.369140625	1	taste	trialStart	1	37	37	foodImage.54	FOODEEG_Images\0560.jpg	NY	Right	Yes	1.08042379992548	0	276158	251
540.42578125	2	taste	foodImageDisplay	1	37	37	foodImage.54	FOODEEG_Images\0560.jpg	NY	Right	Yes	1.08042379992548	0	276699	252
542.490234375	1.08042379992548	taste	choicePhaseStart	1	37	37	foodImage.54	FOODEEG_Images\0560.jpg	NY	Right	Yes	1.08042379992548	0	277756	253
543.560546875	0	taste	response	1	37	37	foodImage.54	FOODEEG_Images\0560.jpg	NY	Right	Yes	1.08042379992548	0	278304	235
544.603515625	1	decision	trialStart	1	38	38	foodImage.50	FOODEEG_Images\0529.jpg	YN	Right	No	1.58884710003622	0	278838	251
545.662109375	2	decision	foodImageDisplay	1	38	38	foodImage.50	FOODEEG_Images\0529.jpg	YN	Right	No	1.58884710003622	0	279380	252
547.724609375	1.58884710003622	decision	choicePhaseStart	1	38	38	foodImage.50	FOODEEG_Images\0529.jpg	YN	Right	No	1.58884710003622	0	280436	253
549.3046875	0	decision	response	1	38	38	foodImage.50	FOODEEG_Images\0529.jpg	YN	Right	No	1.58884710003622	0	281245	235
550.349609375	1	health	trialStart	1	39	39	foodImage.100	FOODEEG_Images\0908.jpg	YN	Left	Yes	1.49325509998016	0	281780	251
551.388671875	2	health	foodImageDisplay	1	39	39	foodImage.100	FOODEEG_Images\0908.jpg	YN	Left	Yes	1.49325509998016	0	282312	252
553.451171875	1.49325509998016	health	choicePhaseStart	1	39	39	foodImage.100	FOODEEG_Images\0908.jpg	YN	Left	Yes	1.49325509998016	0	283368	253
554.935546875	0	health	response	1	39	39	foodImage.100	FOODEEG_Images\0908.jpg	YN	Left	Yes	1.49325509998016	0	284128	234
555.978515625	1	health	trialStart	1	40	40	foodImage.19	FOODEEG_Images\0225.jpg	YN	Left	Yes	1.64925430004951	0	284662	251
557.0234375	2	health	foodImageDisplay	1	40	40	foodImage.19	FOODEEG_Images\0225.jpg	YN	Left	Yes	1.64925430004951	0	285197	252
559.087890625	1.64925430004951	health	choicePhaseStart	1	40	40	foodImage.19	FOODEEG_Images\0225.jpg	YN	Left	Yes	1.64925430004951	0	286254	253
560.728515625	0	health	response	1	40	40	foodImage.19	FOODEEG_Images\0225.jpg	YN	Left	Yes	1.64925430004951	0	287094	234
561.771484375	1	taste	trialStart	1	41	41	foodImage.64	FOODEEG_Images\0647.jpg	YN	Left	Yes	1.87411470001098	0	287628	251
562.830078125	2	taste	foodImageDisplay	1	41	41	foodImage.64	FOODEEG_Images\0647.jpg	YN	Left	Yes	1.87411470001098	0	288170	252
564.89453125	1.87411470001098	taste	choicePhaseStart	1	41	41	foodImage.64	FOODEEG_Images\0647.jpg	YN	Left	Yes	1.87411470001098	0	289227	253
566.759765625	0	taste	response	1	41	41	foodImage.64	FOODEEG_Images\0647.jpg	YN	Left	Yes	1.87411470001098	0	290182	234
567.802734375	1	health	trialStart	1	42	42	foodImage.104	FOODEEG_Images\0912.jpg	YN	Right	No	1.56669410003815	0	290716	251
568.841796875	2	health	foodImageDisplay	1	42	42	foodImage.104	FOODEEG_Images\0912.jpg	YN	Right	No	1.56669410003815	0	291248	252
570.90625	1.56669410003815	health	choicePhaseStart	1	42	42	foodImage.104	FOODEEG_Images\0912.jpg	YN	Right	No	1.56669410003815	0	292305	253
572.462890625	0	health	response	1	42	42	foodImage.104	FOODEEG_Images\0912.jpg	YN	Right	No	1.56669410003815	0	293102	235
573.505859375	1	decision	trialStart	1	43	43	foodImage.94	FOODEEG_Images\0902.jpg	NY	Right	Yes	1.98412909999024	0	293636	251
574.544921875	2	decision	foodImageDisplay	1	43	43	foodImage.94	FOODEEG_Images\0902.jpg	NY	Right	Yes	1.98412909999024	0	294168	252
576.607421875	1.98412909999024	decision	choicePhaseStart	1	43	43	foodImage.94	FOODEEG_Images\0902.jpg	NY	Right	Yes	1.98412909999024	0	295224	253
578.583984375	0	decision	response	1	43	43	foodImage.94	FOODEEG_Images\0902.jpg	NY	Right	Yes	1.98412909999024	0	296236	235
579.626953125	1	decision	trialStart	1	44	44	foodImage.86	FOODEEG_Images\0844.jpg	NY	Right	Yes	1.31747230002657	0	296770	251
580.685546875	2	decision	foodImageDisplay	1	44	44	foodImage.86	FOODEEG_Images\0844.jpg	NY	Right	Yes	1.31747230002657	0	297312	252
582.75390625	1.31747230002657	decision	choicePhaseStart	1	44	44	foodImage.86	FOODEEG_Images\0844.jpg	NY	Right	Yes	1.31747230002657	0	298371	253
584.0625	0	decision	response	1	44	44	foodImage.86	FOODEEG_Images\0844.jpg	NY	Right	Yes	1.31747230002657	0	299041	235
585.10546875	1	decision	trialStart	1	45	45	foodImage.75	FOODEEG_Images\0763.jpg	NY	Right	Yes	0.771568999974988	0	299575	251
586.1484375	2	decision	foodImageDisplay	1	45	45	foodImage.75	FOODEEG_Images\0763.jpg	NY	Right	Yes	0.771568999974988	0	300109	252
588.212890625	0.771568999974988	decision	choicePhaseStart	1	45	45	foodImage.75	FOODEEG_Images\0763.jpg	NY	Right	Yes	0.771568999974988	0	301166	253
588.974609375	0	decision	response	1	45	45	foodImage.75	FOODEEG_Images\0763.jpg	NY	Right	Yes	0.771568999974988	0	301556	235
590.017578125	1	decision	trialStart	1	46	46	foodImage.17	FOODEEG_Images\0199.jpg	NY	Right	Yes	0.685227900044993	0	302090	251
591.05859375	2	decision	foodImageDisplay	1	46	46	foodImage.17	FOODEEG_Images\0199.jpg	NY	Right	Yes	0.685227900044993	0	302623	252
593.123046875	0.685227900044993	decision	choicePhaseStart	1	46	46	foodImage.17	FOODEEG_Images\0199.jpg	NY	Right	Yes	0.685227900044993	0	303680	253
593.798828125	0	decision	response	1	46	46	foodImage.17	FOODEEG_Images\0199.jpg	NY	Right	Yes	0.685227900044993	0	304026	235
594.841796875	1	decision	trialStart	1	47	47	foodImage.6	FOODEEG_Images\0113.jpg	NY	Right	Yes	0.841402999940328	0	304560	251
595.8828125	2	decision	foodImageDisplay	1	47	47	foodImage.6	FOODEEG_Images\0113.jpg	NY	Right	Yes	0.841402999940328	0	305093	252
597.94921875	0.841402999940328	decision	choicePhaseStart	1	47	47	foodImage.6	FOODEEG_Images\0113.jpg	NY	Right	Yes	0.841402999940328	0	306151	253
598.783203125	0	decision	response	1	47	47	foodImage.6	FOODEEG_Images\0113.jpg	NY	Right	Yes	0.841402999940328	0	306578	235
599.826171875	1	decision	trialStart	1	48	48	foodImage.105	FOODEEG_Images\0913.jpg	NY	Right	Yes	2.67881940002553	0	307112	251
600.865234375	2	decision	foodImageDisplay	1	48	48	foodImage.105	FOODEEG_Images\0913.jpg	NY	Right	Yes	2.67881940002553	0	307644	252
602.927734375	2.67881940002553	decision	choicePhaseStart	1	48	48	foodImage.105	FOODEEG_Images\0913.jpg	NY	Right	Yes	2.67881940002553	0	308700	253
605.59765625	0	decision	response	1	48	48	foodImage.105	FOODEEG_Images\0913.jpg	NY	Right	Yes	2.67881940002553	0	310067	235
606.640625	1	taste	trialStart	1	49	49	foodImage.40	FOODEEG_Images\0373.jpg	YN	Left	Yes	1.09706070006359	0	310601	251
607.681640625	2	taste	foodImageDisplay	1	49	49	foodImage.40	FOODEEG_Images\0373.jpg	YN	Left	Yes	1.09706070006359	0	311134	252
609.75	1.09706070006359	taste	choicePhaseStart	1	49	49	foodImage.40	FOODEEG_Images\0373.jpg	YN	Left	Yes	1.09706070006359	0	312193	253
610.837890625	0	taste	response	1	49	49	foodImage.40	FOODEEG_Images\0373.jpg	YN	Left	Yes	1.09706070006359	0	312750	234
611.880859375	1	health	trialStart	1	50	50	foodImage.54	FOODEEG_Images\0560.jpg	YN	Left	Yes	1.44498109992128	0	313284	251
612.939453125	2	health	foodImageDisplay	1	50	50	foodImage.54	FOODEEG_Images\0560.jpg	YN	Left	Yes	1.44498109992128	0	313826	252
615.001953125	1.44498109992128	health	choicePhaseStart	1	50	50	foodImage.54	FOODEEG_Images\0560.jpg	YN	Left	Yes	1.44498109992128	0	314882	253
616.4375	0	health	response	1	50	50	foodImage.54	FOODEEG_Images\0560.jpg	YN	Left	Yes	1.44498109992128	0	315617	234
617.484375	1	decision	trialStart	1	51	51	foodImage.98	FOODEEG_Images\0906.jpg	YN	Left	Yes	1.66406229999848	0	316153	251
618.5234375	2	decision	foodImageDisplay	1	51	51	foodImage.98	FOODEEG_Images\0906.jpg	YN	Left	Yes	1.66406229999848	0	316685	252
620.587890625	1.66406229999848	decision	choicePhaseStart	1	51	51	foodImage.98	FOODEEG_Images\0906.jpg	YN	Left	Yes	1.66406229999848	0	317742	253
622.24609375	0	decision	response	1	51	51	foodImage.98	FOODEEG_Images\0906.jpg	YN	Left	Yes	1.66406229999848	0	318591	234
623.287109375	1	decision	trialStart	1	52	52	foodImage.90	FOODEEG_Images\0890.jpg	YN	Left	Yes	1.23091949999798	0	319124	251
624.357421875	2	decision	foodImageDisplay	1	52	52	foodImage.90	FOODEEG_Images\0890.jpg	YN	Left	Yes	1.23091949999798	0	319672	252
626.423828125	1.23091949999798	decision	choicePhaseStart	1	52	52	foodImage.90	FOODEEG_Images\0890.jpg	YN	Left	Yes	1.23091949999798	0	320730	253
627.64453125	0	decision	response	1	52	52	foodImage.90	FOODEEG_Images\0890.jpg	YN	Left	Yes	1.23091949999798	0	321355	234
628.6875	1	decision	trialStart	1	53	53	foodImage.29	FOODEEG_Images\0278.jpg	NY	Right	Yes	1.23938070004806	0	321889	251
629.73046875	2	decision	foodImageDisplay	1	53	53	foodImage.29	FOODEEG_Images\0278.jpg	NY	Right	Yes	1.23938070004806	0	322423	252
631.798828125	1.23938070004806	decision	choicePhaseStart	1	53	53	foodImage.29	FOODEEG_Images\0278.jpg	NY	Right	Yes	1.23938070004806	0	323482	253
633.029296875	0	decision	response	1	53	53	foodImage.29	FOODEEG_Images\0278.jpg	NY	Right	Yes	1.23938070004806	0	324112	235
634.076171875	1	decision	trialStart	1	54	54	foodImage.11	FOODEEG_Images\0180.jpg	YN	Left	Yes	1.19711069995537	0	324648	251
635.119140625	2	decision	foodImageDisplay	1	54	54	foodImage.11	FOODEEG_Images\0180.jpg	YN	Left	Yes	1.19711069995537	0	325182	252
637.19140625	1.19711069995537	decision	choicePhaseStart	1	54	54	foodImage.11	FOODEEG_Images\0180.jpg	YN	Left	Yes	1.19711069995537	0	326243	253
638.380859375	0	decision	response	1	54	54	foodImage.11	FOODEEG_Images\0180.jpg	YN	Left	Yes	1.19711069995537	0	326852	234
639.423828125	1	taste	trialStart	1	55	55	foodImage.41	FOODEEG_Images\0409.jpg	NY	Right	Yes	1.2161524000112	0	327386	251
640.470703125	2	taste	foodImageDisplay	1	55	55	foodImage.41	FOODEEG_Images\0409.jpg	NY	Right	Yes	1.2161524000112	0	327922	252
642.533203125	1.2161524000112	taste	choicePhaseStart	1	55	55	foodImage.41	FOODEEG_Images\0409.jpg	NY	Right	Yes	1.2161524000112	0	328978	253
643.740234375	0	taste	response	1	55	55	foodImage.41	FOODEEG_Images\0409.jpg	NY	Right	Yes	1.2161524000112	0	329596	235
644.783203125	1	taste	trialStart	1	56	56	foodImage.72	FOODEEG_Images\0714.jpg	YN	Right	No	1.09061359998304	0	330130	251
645.826171875	2	taste	foodImageDisplay	1	56	56	foodImage.72	FOODEEG_Images\0714.jpg	YN	Right	No	1.09061359998304	0	330664	252
647.890625	1.09061359998304	taste	choicePhaseStart	1	56	56	foodImage.72	FOODEEG_Images\0714.jpg	YN	Right	No	1.09061359998304	0	331721	253
648.97265625	0	taste	response	1	56	56	foodImage.72	FOODEEG_Images\0714.jpg	YN	Right	No	1.09061359998304	0	332275	235
650.015625	1	decision	trialStart	1	57	57	foodImage.69	FOODEEG_Images\0693.jpg	YN	Left	Yes	0.875600600033067	0	332809	251
651.05859375	2	decision	foodImageDisplay	1	57	57	foodImage.69	FOODEEG_Images\0693.jpg	YN	Left	Yes	0.875600600033067	0	333343	252
653.12109375	0.875600600033067	decision	choicePhaseStart	1	57	57	foodImage.69	FOODEEG_Images\0693.jpg	YN	Left	Yes	0.875600600033067	0	334399	253
653.98828125	0	decision	response	1	57	57	foodImage.69	FOODEEG_Images\0693.jpg	YN	Left	Yes	0.875600600033067	0	334843	234
655.03125	1	taste	trialStart	1	58	58	foodImage.116	FOODEEG_Images\0924.jpg	YN	Left	Yes	1.92092720000073	0	335377	251
656.0703125	2	taste	foodImageDisplay	1	58	58	foodImage.116	FOODEEG_Images\0924.jpg	YN	Left	Yes	1.92092720000073	0	335909	252
658.1328125	1.92092720000073	taste	choicePhaseStart	1	58	58	foodImage.116	FOODEEG_Images\0924.jpg	YN	Left	Yes	1.92092720000073	0	336965	253
660.04296875	0	taste	response	1	58	58	foodImage.116	FOODEEG_Images\0924.jpg	YN	Left	Yes	1.92092720000073	0	337943	234
661.087890625	1	taste	trialStart	1	59	59	foodImage.39	FOODEEG_Images\0367.jpg	NY	Right	Yes	1.24060310004279	0	338478	251
662.125	2	taste	foodImageDisplay	1	59	59	foodImage.39	FOODEEG_Images\0367.jpg	NY	Right	Yes	1.24060310004279	0	339009	252
664.1875	1.24060310004279	taste	choicePhaseStart	1	59	59	foodImage.39	FOODEEG_Images\0367.jpg	NY	Right	Yes	1.24060310004279	0	340065	253
665.419921875	0	taste	response	1	59	59	foodImage.39	FOODEEG_Images\0367.jpg	NY	Right	Yes	1.24060310004279	0	340696	235
666.462890625	1	taste	trialStart	1	60	60	foodImage.10	FOODEEG_Images\0145.jpg	NY	Right	Yes	0.746340500074439	0	341230	251
667.5234375	2	taste	foodImageDisplay	1	60	60	foodImage.10	FOODEEG_Images\0145.jpg	NY	Right	Yes	0.746340500074439	0	341773	252
669.5859375	0.746340500074439	taste	choicePhaseStart	1	60	60	foodImage.10	FOODEEG_Images\0145.jpg	NY	Right	Yes	0.746340500074439	0	342829	253
670.322265625	0	taste	response	1	60	60	foodImage.10	FOODEEG_Images\0145.jpg	NY	Right	Yes	0.746340500074439	0	343206	235
672.373046875	21.18359375	n/a	blockEnd	n/a	n/a	n/a	n/a	n/a	n/a	n/a	n/a	n/a	n/a	344256	254
693.556640625	2	n/a	blockStart	2	n/a	n/a	n/a	n/a	n/a	n/a	n/a	n/a	n/a	355102	250
695.591796875	1	decision	trialStart	2	61	1	foodImage.56	FOODEEG_Images\0586.jpg	NY	Right	Yes	1.09037940006237	0	356144	251
696.640625	2	decision	foodImageDisplay	2	61	1	foodImage.56	FOODEEG_Images\0586.jpg	NY	Right	Yes	1.09037940006237	0	356681	252
698.703125	1.09037940006237	decision	choicePhaseStart	2	61	1	foodImage.56	FOODEEG_Images\0586.jpg	NY	Right	Yes	1.09037940006237	0	357737	253
699.787109375	0	decision	response	2	61	1	foodImage.56	FOODEEG_Images\0586.jpg	NY	Right	Yes	1.09037940006237	0	358292	235
700.828125	1	taste	trialStart	2	62	2	foodImage.76	FOODEEG_Images\0766.jpg	NY	Right	Yes	1.17803489998914	0	358825	251
701.873046875	2	taste	foodImageDisplay	2	62	2	foodImage.76	FOODEEG_Images\0766.jpg	NY	Right	Yes	1.17803489998914	0	359360	252
703.9375	1.17803489998914	taste	choicePhaseStart	2	62	2	foodImage.76	FOODEEG_Images\0766.jpg	NY	Right	Yes	1.17803489998914	0	360417	253
705.10546875	0	taste	response	2	62	2	foodImage.76	FOODEEG_Images\0766.jpg	NY	Right	Yes	1.17803489998914	0	361015	235
706.150390625	1	decision	trialStart	2	63	3	foodImage.53	FOODEEG_Images\0547.jpg	YN	Left	Yes	1.0433355999412	0	361550	251
707.208984375	2	decision	foodImageDisplay	2	63	3	foodImage.53	FOODEEG_Images\0547.jpg	YN	Left	Yes	1.0433355999412	0	362092	252
709.271484375	1.0433355999412	decision	choicePhaseStart	2	63	3	foodImage.53	FOODEEG_Images\0547.jpg	YN	Left	Yes	1.0433355999412	0	363148	253
710.306640625	0	decision	response	2	63	3	foodImage.53	FOODEEG_Images\0547.jpg	YN	Left	Yes	1.0433355999412	0	363678	234
711.349609375	1	health	trialStart	2	64	4	foodImage.113	FOODEEG_Images\0921.jpg	YN	Left	Yes	2.39228120003827	0	364212	251
712.38671875	2	health	foodImageDisplay	2	64	4	foodImage.113	FOODEEG_Images\0921.jpg	YN	Left	Yes	2.39228120003827	0	364743	252
714.451171875	2.39228120003827	health	choicePhaseStart	2	64	4	foodImage.113	FOODEEG_Images\0921.jpg	YN	Left	Yes	2.39228120003827	0	365800	253
716.833984375	0	health	response	2	64	4	foodImage.113	FOODEEG_Images\0921.jpg	YN	Left	Yes	2.39228120003827	0	367020	234
717.876953125	1	decision	trialStart	2	65	5	foodImage.58	FOODEEG_Images\0605.jpg	NY	Right	Yes	1.02571199997328	0	367554	251
718.9375	2	decision	foodImageDisplay	2	65	5	foodImage.58	FOODEEG_Images\0605.jpg	NY	Right	Yes	1.02571199997328	0	368097	252
721	1.02571199997328	decision	choicePhaseStart	2	65	5	foodImage.58	FOODEEG_Images\0605.jpg	NY	Right	Yes	1.02571199997328	0	369153	253
722.017578125	0	decision	response	2	65	5	foodImage.58	FOODEEG_Images\0605.jpg	NY	Right	Yes	1.02571199997328	0	369674	235
723.060546875	1	decision	trialStart	2	66	6	foodImage.61	FOODEEG_Images\0640.jpg	NY	Right	Yes	1.17926470004022	0	370208	251
724.1015625	2	decision	foodImageDisplay	2	66	6	foodImage.61	FOODEEG_Images\0640.jpg	NY	Right	Yes	1.17926470004022	0	370741	252
726.166015625	1.17926470004022	decision	choicePhaseStart	2	66	6	foodImage.61	FOODEEG_Images\0640.jpg	NY	Right	Yes	1.17926470004022	0	371798	253
727.337890625	0	decision	response	2	66	6	foodImage.61	FOODEEG_Images\0640.jpg	NY	Right	Yes	1.17926470004022	0	372398	235
728.37890625	1	taste	trialStart	2	67	7	foodImage.119	FOODEEG_Images\0927.jpg	NY	Left	No	1.83379469998181	0	372931	251
729.41796875	2	taste	foodImageDisplay	2	67	7	foodImage.119	FOODEEG_Images\0927.jpg	NY	Left	No	1.83379469998181	0	373463	252
731.48046875	1.83379469998181	taste	choicePhaseStart	2	67	7	foodImage.119	FOODEEG_Images\0927.jpg	NY	Left	No	1.83379469998181	0	374519	253
733.3046875	0	taste	response	2	67	7	foodImage.119	FOODEEG_Images\0927.jpg	NY	Left	No	1.83379469998181	0	375453	234
734.34765625	1	health	trialStart	2	68	8	foodImage.22	FOODEEG_Images\0236.jpg	NY	Right	Yes	1.38927510008216	0	375987	251
735.390625	2	health	foodImageDisplay	2	68	8	foodImage.22	FOODEEG_Images\0236.jpg	NY	Right	Yes	1.38927510008216	0	376521	252
737.453125	1.38927510008216	health	choicePhaseStart	2	68	8	foodImage.22	FOODEEG_Images\0236.jpg	NY	Right	Yes	1.38927510008216	0	377577	253
738.83203125	0	health	response	2	68	8	foodImage.22	FOODEEG_Images\0236.jpg	NY	Right	Yes	1.38927510008216	0	378283	235
739.876953125	1	taste	trialStart	2	69	9	foodImage.85	FOODEEG_Images\0841.jpg	YN	Left	Yes	1.32178580004256	0	378818	251
740.9375	2	taste	foodImageDisplay	2	69	9	foodImage.85	FOODEEG_Images\0841.jpg	YN	Left	Yes	1.32178580004256	0	379361	252
743.001953125	1.32178580004256	taste	choicePhaseStart	2	69	9	foodImage.85	FOODEEG_Images\0841.jpg	YN	Left	Yes	1.32178580004256	0	380418	253
744.3125	0	taste	response	2	69	9	foodImage.85	FOODEEG_Images\0841.jpg	YN	Left	Yes	1.32178580004256	0	381089	234
745.357421875	1	decision	trialStart	2	70	10	foodImage.93	FOODEEG_Images\0901.jpg	YN	Right	No	1.72176880005281	0	381624	251
746.400390625	2	decision	foodImageDisplay	2	70	10	foodImage.93	FOODEEG_Images\0901.jpg	YN	Right	No	1.72176880005281	0	382158	252
748.462890625	1.72176880005281	decision	choicePhaseStart	2	70	10	foodImage.93	FOODEEG_Images\0901.jpg	YN	Right	No	1.72176880005281	0	383214	253
750.17578125	0	decision	response	2	70	10	foodImage.93	FOODEEG_Images\0901.jpg	YN	Right	No	1.72176880005281	0	384091	235
751.21875	1	taste	trialStart	2	71	11	foodImage.13	FOODEEG_Images\0183.jpg	YN	Left	Yes	1.35109260003082	0	384625	251
752.263671875	2	taste	foodImageDisplay	2	71	11	foodImage.13	FOODEEG_Images\0183.jpg	YN	Left	Yes	1.35109260003082	0	385160	252
754.330078125	1.35109260003082	taste	choicePhaseStart	2	71	11	foodImage.13	FOODEEG_Images\0183.jpg	YN	Left	Yes	1.35109260003082	0	386218	253
755.671875	0	taste	response	2	71	11	foodImage.13	FOODEEG_Images\0183.jpg	YN	Left	Yes	1.35109260003082	0	386905	234
756.716796875	1	health	trialStart	2	72	12	foodImage.43	FOODEEG_Images\0445.jpg	NY	Right	Yes	1.24603699997533	0	387440	251
757.771484375	2	health	foodImageDisplay	2	72	12	foodImage.43	FOODEEG_Images\0445.jpg	NY	Right	Yes	1.24603699997533	0	387980	252
759.8359375	1.24603699997533	health	choicePhaseStart	2	72	12	foodImage.43	FOODEEG_Images\0445.jpg	NY	Right	Yes	1.24603699997533	0	389037	253
761.072265625	0	health	response	2	72	12	foodImage.43	FOODEEG_Images\0445.jpg	NY	Right	Yes	1.24603699997533	0	389670	235
762.115234375	1	health	trialStart	2	73	13	foodImage.35	FOODEEG_Images\0350.jpg	NY	Right	Yes	2.34758049994707	0	390204	251
763.169921875	2	health	foodImageDisplay	2	73	13	foodImage.35	FOODEEG_Images\0350.jpg	NY	Right	Yes	2.34758049994707	0	390744	252
765.236328125	2.34758049994707	health	choicePhaseStart	2	73	13	foodImage.35	FOODEEG_Images\0350.jpg	NY	Right	Yes	2.34758049994707	0	391802	253
767.576171875	0	health	response	2	73	13	foodImage.35	FOODEEG_Images\0350.jpg	NY	Right	Yes	2.34758049994707	0	393000	235
768.6171875	1	taste	trialStart	2	74	14	foodImage.26	FOODEEG_Images\0262.jpg	YN	Right	No	1.21998929989059	0	393533	251
769.662109375	2	taste	foodImageDisplay	2	74	14	foodImage.26	FOODEEG_Images\0262.jpg	YN	Right	No	1.21998929989059	0	394068	252
771.732421875	1.21998929989059	taste	choicePhaseStart	2	74	14	foodImage.26	FOODEEG_Images\0262.jpg	YN	Right	No	1.21998929989059	0	395128	253
772.943359375	0	taste	response	2	74	14	foodImage.26	FOODEEG_Images\0262.jpg	YN	Right	No	1.21998929989059	0	395748	235
773.986328125	1	taste	trialStart	2	75	15	foodImage.30	FOODEEG_Images\0282.jpg	NY	Right	Yes	2.14036780002061	0	396282	251
775.03515625	2	taste	foodImageDisplay	2	75	15	foodImage.30	FOODEEG_Images\0282.jpg	NY	Right	Yes	2.14036780002061	0	396819	252
777.099609375	2.14036780002061	taste	choicePhaseStart	2	75	15	foodImage.30	FOODEEG_Images\0282.jpg	NY	Right	Yes	2.14036780002061	0	397876	253
779.23046875	0	taste	response	2	75	15	foodImage.30	FOODEEG_Images\0282.jpg	NY	Right	Yes	2.14036780002061	0	398967	235
780.2734375	1	taste	trialStart	2	76	16	foodImage.80	FOODEEG_Images\0796.jpg	NY	Right	Yes	0.926859600003809	0	399501	251
781.330078125	2	taste	foodImageDisplay	2	76	16	foodImage.80	FOODEEG_Images\0796.jpg	NY	Right	Yes	0.926859600003809	0	400042	252
783.392578125	0.926859600003809	taste	choicePhaseStart	2	76	16	foodImage.80	FOODEEG_Images\0796.jpg	NY	Right	Yes	0.926859600003809	0	401098	253
784.310546875	0	taste	response	2	76	16	foodImage.80	FOODEEG_Images\0796.jpg	NY	Right	Yes	0.926859600003809	0	401568	235
785.353515625	1	decision	trialStart	2	77	17	foodImage.28	FOODEEG_Images\0273.jpg	NY	Left	No	1.97464600007515	0	402102	251
786.39453125	2	decision	foodImageDisplay	2	77	17	foodImage.28	FOODEEG_Images\0273.jpg	NY	Left	No	1.97464600007515	0	402635	252
788.45703125	1.97464600007515	decision	choicePhaseStart	2	77	17	foodImage.28	FOODEEG_Images\0273.jpg	NY	Left	No	1.97464600007515	0	403691	253
790.421875	0	decision	response	2	77	17	foodImage.28	FOODEEG_Images\0273.jpg	NY	Left	No	1.97464600007515	0	404697	234
791.482421875	1	decision	trialStart	2	78	18	foodImage.109	FOODEEG_Images\0917.jpg	YN	Right	No	1.08735130005516	0	405240	251
792.53515625	2	decision	foodImageDisplay	2	78	18	foodImage.109	FOODEEG_Images\0917.jpg	YN	Right	No	1.08735130005516	0	405779	252
794.6015625	1.08735130005516	decision	choicePhaseStart	2	78	18	foodImage.109	FOODEEG_Images\0917.jpg	YN	Right	No	1.08735130005516	0	406837	253
795.677734375	0	decision	response	2	78	18	foodImage.109	FOODEEG_Images\0917.jpg	YN	Right	No	1.08735130005516	0	407388	235
796.720703125	1	health	trialStart	2	79	19	foodImage.46	FOODEEG_Images\0479.jpg	YN	Right	No	2.33322750008665	0	407922	251
797.779296875	2	health	foodImageDisplay	2	79	19	foodImage.46	FOODEEG_Images\0479.jpg	YN	Right	No	2.33322750008665	0	408464	252
799.841796875	2.33322750008665	health	choicePhaseStart	2	79	19	foodImage.46	FOODEEG_Images\0479.jpg	YN	Right	No	2.33322750008665	0	409520	253
802.166015625	0	health	response	2	79	19	foodImage.46	FOODEEG_Images\0479.jpg	YN	Right	No	2.33322750008665	0	410710	235
803.208984375	1	health	trialStart	2	80	20	foodImage.39	FOODEEG_Images\0367.jpg	NY	Left	No	1.34517719992436	0	411244	251
804.248046875	2	health	foodImageDisplay	2	80	20	foodImage.39	FOODEEG_Images\0367.jpg	NY	Left	No	1.34517719992436	0	411776	252
806.314453125	1.34517719992436	health	choicePhaseStart	2	80	20	foodImage.39	FOODEEG_Images\0367.jpg	NY	Left	No	1.34517719992436	0	412834	253
807.654296875	0	health	response	2	80	20	foodImage.39	FOODEEG_Images\0367.jpg	NY	Left	No	1.34517719992436	0	413520	234
808.697265625	1	taste	trialStart	2	81	21	foodImage.1	FOODEEG_Images\0004.jpg	NY	Right	Yes	1.37189159996342	0	414054	251
809.73828125	2	taste	foodImageDisplay	2	81	21	foodImage.1	FOODEEG_Images\0004.jpg	NY	Right	Yes	1.37189159996342	0	414587	252
811.802734375	1.37189159996342	taste	choicePhaseStart	2	81	21	foodImage.1	FOODEEG_Images\0004.jpg	NY	Right	Yes	1.37189159996342	0	415644	253
813.166015625	0	taste	response	2	81	21	foodImage.1	FOODEEG_Images\0004.jpg	NY	Right	Yes	1.37189159996342	0	416342	235
814.208984375	1	decision	trialStart	2	82	22	foodImage.120	FOODEEG_Images\0928.jpg	NY	Right	Yes	1.97771380003542	0	416876	251
815.24609375	2	decision	foodImageDisplay	2	82	22	foodImage.120	FOODEEG_Images\0928.jpg	NY	Right	Yes	1.97771380003542	0	417407	252
817.30859375	1.97771380003542	decision	choicePhaseStart	2	82	22	foodImage.120	FOODEEG_Images\0928.jpg	NY	Right	Yes	1.97771380003542	0	418463	253
819.27734375	0	decision	response	2	82	22	foodImage.120	FOODEEG_Images\0928.jpg	NY	Right	Yes	1.97771380003542	0	419471	235
820.326171875	1	decision	trialStart	2	83	23	foodImage.83	FOODEEG_Images\0827.jpg	YN	Left	Yes	0.953443100093864	0	420008	251
821.390625	2	decision	foodImageDisplay	2	83	23	foodImage.83	FOODEEG_Images\0827.jpg	YN	Left	Yes	0.953443100093864	0	420553	252
823.458984375	0.953443100093864	decision	choicePhaseStart	2	83	23	foodImage.83	FOODEEG_Images\0827.jpg	YN	Left	Yes	0.953443100093864	0	421612	253
824.404296875	0	decision	response	2	83	23	foodImage.83	FOODEEG_Images\0827.jpg	YN	Left	Yes	0.953443100093864	0	422096	234
825.44921875	1	taste	trialStart	2	84	24	foodImage.108	FOODEEG_Images\0916.jpg	YN	Right	No	0.926298100035638	0	422631	251
826.48828125	2	taste	foodImageDisplay	2	84	24	foodImage.108	FOODEEG_Images\0916.jpg	YN	Right	No	0.926298100035638	0	423163	252
828.552734375	0.926298100035638	taste	choicePhaseStart	2	84	24	foodImage.108	FOODEEG_Images\0916.jpg	YN	Right	No	0.926298100035638	0	424220	253
829.46875	0	taste	response	2	84	24	foodImage.108	FOODEEG_Images\0916.jpg	YN	Right	No	0.926298100035638	0	424689	235
830.51171875	1	decision	trialStart	2	85	25	foodImage.116	FOODEEG_Images\0924.jpg	NY	Left	No	1.03158080007415	0	425223	251
831.55078125	2	decision	foodImageDisplay	2	85	25	foodImage.116	FOODEEG_Images\0924.jpg	NY	Left	No	1.03158080007415	0	425755	252
833.615234375	1.03158080007415	decision	choicePhaseStart	2	85	25	foodImage.116	FOODEEG_Images\0924.jpg	NY	Left	No	1.03158080007415	0	426812	253
834.63671875	0	decision	response	2	85	25	foodImage.116	FOODEEG_Images\0924.jpg	NY	Left	No	1.03158080007415	0	427335	234
835.681640625	1	decision	trialStart	2	86	26	foodImage.3	FOODEEG_Images\0046.jpg	YN	Left	Yes	0.801597999990918	0	427870	251
836.724609375	2	decision	foodImageDisplay	2	86	26	foodImage.3	FOODEEG_Images\0046.jpg	YN	Left	Yes	0.801597999990918	0	428404	252
838.7890625	0.801597999990918	decision	choicePhaseStart	2	86	26	foodImage.3	FOODEEG_Images\0046.jpg	YN	Left	Yes	0.801597999990918	0	429461	253
839.580078125	0	decision	response	2	86	26	foodImage.3	FOODEEG_Images\0046.jpg	YN	Left	Yes	0.801597999990918	0	429866	234
840.623046875	1	decision	trialStart	2	87	27	foodImage.104	FOODEEG_Images\0912.jpg	NY	Right	Yes	0.874442200060003	0	430400	251
841.66015625	2	decision	foodImageDisplay	2	87	27	foodImage.104	FOODEEG_Images\0912.jpg	NY	Right	Yes	0.874442200060003	0	430931	252
843.724609375	0.874442200060003	decision	choicePhaseStart	2	87	27	foodImage.104	FOODEEG_Images\0912.jpg	NY	Right	Yes	0.874442200060003	0	431988	253
844.587890625	0	decision	response	2	87	27	foodImage.104	FOODEEG_Images\0912.jpg	NY	Right	Yes	0.874442200060003	0	432430	235
845.63671875	1	taste	trialStart	2	88	28	foodImage.5	FOODEEG_Images\0107.jpg	YN	Left	Yes	1.19586710003205	0	432967	251
846.697265625	2	taste	foodImageDisplay	2	88	28	foodImage.5	FOODEEG_Images\0107.jpg	YN	Left	Yes	1.19586710003205	0	433510	252
848.76171875	1.19586710003205	taste	choicePhaseStart	2	88	28	foodImage.5	FOODEEG_Images\0107.jpg	YN	Left	Yes	1.19586710003205	0	434567	253
849.947265625	0	taste	response	2	88	28	foodImage.5	FOODEEG_Images\0107.jpg	YN	Left	Yes	1.19586710003205	0	435174	234
850.9921875	1	taste	trialStart	2	89	29	foodImage.105	FOODEEG_Images\0913.jpg	NY	Left	No	1.33782269991934	0	435709	251
852.029296875	2	taste	foodImageDisplay	2	89	29	foodImage.105	FOODEEG_Images\0913.jpg	NY	Left	No	1.33782269991934	0	436240	252
854.091796875	1.33782269991934	taste	choicePhaseStart	2	89	29	foodImage.105	FOODEEG_Images\0913.jpg	NY	Left	No	1.33782269991934	0	437296	253
855.419921875	0	taste	response	2	89	29	foodImage.105	FOODEEG_Images\0913.jpg	NY	Left	No	1.33782269991934	0	437976	234
856.462890625	1	taste	trialStart	2	90	30	foodImage.118	FOODEEG_Images\0926.jpg	YN	Right	No	1.24025859998073	0	438510	251
857.501953125	2	taste	foodImageDisplay	2	90	30	foodImage.118	FOODEEG_Images\0926.jpg	YN	Right	No	1.24025859998073	0	439042	252
859.564453125	1.24025859998073	taste	choicePhaseStart	2	90	30	foodImage.118	FOODEEG_Images\0926.jpg	YN	Right	No	1.24025859998073	0	440098	253
860.796875	0	taste	response	2	90	30	foodImage.118	FOODEEG_Images\0926.jpg	YN	Right	No	1.24025859998073	0	440729	235
861.83984375	1	health	trialStart	2	91	31	foodImage.25	FOODEEG_Images\0261.jpg	NY	Right	Yes	1.52247590001207	0	441263	251
862.8828125	2	health	foodImageDisplay	2	91	31	foodImage.25	FOODEEG_Images\0261.jpg	NY	Right	Yes	1.52247590001207	0	441797	252
864.9453125	1.52247590001207	health	choicePhaseStart	2	91	31	foodImage.25	FOODEEG_Images\0261.jpg	NY	Right	Yes	1.52247590001207	0	442853	253
866.458984375	0	health	response	2	91	31	foodImage.25	FOODEEG_Images\0261.jpg	NY	Right	Yes	1.52247590001207	0	443628	235
867.501953125	1	decision	trialStart	2	92	32	foodImage.52	FOODEEG_Images\0539.jpg	NY	Right	Yes	1.17544989997987	0	444162	251
868.55859375	2	decision	foodImageDisplay	2	92	32	foodImage.52	FOODEEG_Images\0539.jpg	NY	Right	Yes	1.17544989997987	0	444703	252
870.62109375	1.17544989997987	decision	choicePhaseStart	2	92	32	foodImage.52	FOODEEG_Images\0539.jpg	NY	Right	Yes	1.17544989997987	0	445759	253
871.787109375	0	decision	response	2	92	32	foodImage.52	FOODEEG_Images\0539.jpg	NY	Right	Yes	1.17544989997987	0	446356	235
872.83203125	1	decision	trialStart	2	93	33	foodImage.60	FOODEEG_Images\0614.jpg	YN	Left	Yes	1.1345949000679	0	446891	251
873.88671875	2	decision	foodImageDisplay	2	93	33	foodImage.60	FOODEEG_Images\0614.jpg	YN	Left	Yes	1.1345949000679	0	447431	252
875.951171875	1.1345949000679	decision	choicePhaseStart	2	93	33	foodImage.60	FOODEEG_Images\0614.jpg	YN	Left	Yes	1.1345949000679	0	448488	253
877.07421875	0	decision	response	2	93	33	foodImage.60	FOODEEG_Images\0614.jpg	YN	Left	Yes	1.1345949000679	0	449063	234
878.123046875	1	health	trialStart	2	94	34	foodImage.78	FOODEEG_Images\0787.jpg	YN	Left	Yes	1.24507300008554	0	449600	251
879.16796875	2	health	foodImageDisplay	2	94	34	foodImage.78	FOODEEG_Images\0787.jpg	YN	Left	Yes	1.24507300008554	0	450135	252
881.232421875	1.24507300008554	health	choicePhaseStart	2	94	34	foodImage.78	FOODEEG_Images\0787.jpg	YN	Left	Yes	1.24507300008554	0	451192	253
882.466796875	0	health	response	2	94	34	foodImage.78	FOODEEG_Images\0787.jpg	YN	Left	Yes	1.24507300008554	0	451824	234
883.509765625	1	health	trialStart	2	95	35	foodImage.88	FOODEEG_Images\0878.jpg	NY	Right	Yes	1.15312829997856	0	452358	251
884.564453125	2	health	foodImageDisplay	2	95	35	foodImage.88	FOODEEG_Images\0878.jpg	NY	Right	Yes	1.15312829997856	0	452898	252
886.626953125	1.15312829997856	health	choicePhaseStart	2	95	35	foodImage.88	FOODEEG_Images\0878.jpg	NY	Right	Yes	1.15312829997856	0	453954	253
887.771484375	0	health	response	2	95	35	foodImage.88	FOODEEG_Images\0878.jpg	NY	Right	Yes	1.15312829997856	0	454540	235
888.8125	1	taste	trialStart	2	96	36	foodImage.75	FOODEEG_Images\0763.jpg	YN	Left	Yes	1.11603330005892	0	455073	251
889.857421875	2	taste	foodImageDisplay	2	96	36	foodImage.75	FOODEEG_Images\0763.jpg	YN	Left	Yes	1.11603330005892	0	455608	252
891.919921875	1.11603330005892	taste	choicePhaseStart	2	96	36	foodImage.75	FOODEEG_Images\0763.jpg	YN	Left	Yes	1.11603330005892	0	456664	253
893.02734375	0	taste	response	2	96	36	foodImage.75	FOODEEG_Images\0763.jpg	YN	Left	Yes	1.11603330005892	0	457231	234
894.072265625	1	health	trialStart	2	97	37	foodImage.102	FOODEEG_Images\0910.jpg	YN	Left	Yes	3.52331939991564	0	457766	251
895.11328125	2	health	foodImageDisplay	2	97	37	foodImage.102	FOODEEG_Images\0910.jpg	YN	Left	Yes	3.52331939991564	0	458299	252
897.177734375	3.52331939991564	health	choicePhaseStart	2	97	37	foodImage.102	FOODEEG_Images\0910.jpg	YN	Left	Yes	3.52331939991564	0	459356	253
900.69140625	0	health	response	2	97	37	foodImage.102	FOODEEG_Images\0910.jpg	YN	Left	Yes	3.52331939991564	0	461155	234
901.736328125	1	decision	trialStart	2	98	38	foodImage.113	FOODEEG_Images\0921.jpg	NY	Left	No	1.19612810004037	0	461690	251
902.775390625	2	decision	foodImageDisplay	2	98	38	foodImage.113	FOODEEG_Images\0921.jpg	NY	Left	No	1.19612810004037	0	462222	252
904.83984375	1.19612810004037	decision	choicePhaseStart	2	98	38	foodImage.113	FOODEEG_Images\0921.jpg	NY	Left	No	1.19612810004037	0	463279	253
906.025390625	0	decision	response	2	98	38	foodImage.113	FOODEEG_Images\0921.jpg	NY	Left	No	1.19612810004037	0	463886	234
907.068359375	1	taste	trialStart	2	99	39	foodImage.81	FOODEEG_Images\0797.jpg	NY	Left	No	0.72247229993809	0	464420	251
908.12890625	2	taste	foodImageDisplay	2	99	39	foodImage.81	FOODEEG_Images\0797.jpg	NY	Left	No	0.72247229993809	0	464963	252
910.193359375	0.72247229993809	taste	choicePhaseStart	2	99	39	foodImage.81	FOODEEG_Images\0797.jpg	NY	Left	No	0.72247229993809	0	466020	253
910.90625	0	taste	response	2	99	39	foodImage.81	FOODEEG_Images\0797.jpg	NY	Left	No	0.72247229993809	0	466385	234
911.951171875	1	health	trialStart	2	100	40	foodImage.2	FOODEEG_Images\0028.jpg	NY	Left	No	1.41154080000706	0	466920	251
912.9921875	2	health	foodImageDisplay	2	100	40	foodImage.2	FOODEEG_Images\0028.jpg	NY	Left	No	1.41154080000706	0	467453	252
915.056640625	1.41154080000706	health	choicePhaseStart	2	100	40	foodImage.2	FOODEEG_Images\0028.jpg	NY	Left	No	1.41154080000706	0	468510	253
916.45703125	0	health	response	2	100	40	foodImage.2	FOODEEG_Images\0028.jpg	NY	Left	No	1.41154080000706	0	469227	234
917.501953125	1	taste	trialStart	2	101	41	foodImage.120	FOODEEG_Images\0928.jpg	NY	Right	Yes	1.38804629992228	0	469762	251
918.5390625	2	taste	foodImageDisplay	2	101	41	foodImage.120	FOODEEG_Images\0928.jpg	NY	Right	Yes	1.38804629992228	0	470293	252
920.607421875	1.38804629992228	taste	choicePhaseStart	2	101	41	foodImage.120	FOODEEG_Images\0928.jpg	NY	Right	Yes	1.38804629992228	0	471352	253
921.986328125	0	taste	response	2	101	41	foodImage.120	FOODEEG_Images\0928.jpg	NY	Right	Yes	1.38804629992228	0	472058	235
923.029296875	1	taste	trialStart	2	102	42	foodImage.96	FOODEEG_Images\0904.jpg	NY	Right	Yes	2.06450570002198	0	472592	251
924.06640625	2	taste	foodImageDisplay	2	102	42	foodImage.96	FOODEEG_Images\0904.jpg	NY	Right	Yes	2.06450570002198	0	473123	252
926.130859375	2.06450570002198	taste	choicePhaseStart	2	102	42	foodImage.96	FOODEEG_Images\0904.jpg	NY	Right	Yes	2.06450570002198	0	474180	253
928.185546875	0	taste	response	2	102	42	foodImage.96	FOODEEG_Images\0904.jpg	NY	Right	Yes	2.06450570002198	0	475232	235
929.228515625	1	decision	trialStart	2	103	43	foodImage.115	FOODEEG_Images\0923.jpg	YN	Right	No	1.15074300009292	0	475766	251
930.26953125	2	decision	foodImageDisplay	2	103	43	foodImage.115	FOODEEG_Images\0923.jpg	YN	Right	No	1.15074300009292	0	476299	252
932.33203125	1.15074300009292	decision	choicePhaseStart	2	103	43	foodImage.115	FOODEEG_Images\0923.jpg	YN	Right	No	1.15074300009292	0	477355	253
933.47265625	0	decision	response	2	103	43	foodImage.115	FOODEEG_Images\0923.jpg	YN	Right	No	1.15074300009292	0	477939	235
934.515625	1	health	trialStart	2	104	44	foodImage.74	FOODEEG_Images\0752.jpg	NY	Right	Yes	1.674611800001	0	478473	251
935.560546875	2	health	foodImageDisplay	2	104	44	foodImage.74	FOODEEG_Images\0752.jpg	NY	Right	Yes	1.674611800001	0	479008	252
937.623046875	1.674611800001	health	choicePhaseStart	2	104	44	foodImage.74	FOODEEG_Images\0752.jpg	NY	Right	Yes	1.674611800001	0	480064	253
939.2890625	0	health	response	2	104	44	foodImage.74	FOODEEG_Images\0752.jpg	NY	Right	Yes	1.674611800001	0	480917	235
940.33203125	1	taste	trialStart	2	105	45	foodImage.89	FOODEEG_Images\0881.jpg	NY	Right	Yes	0.988157199928537	0	481451	251
941.390625	2	taste	foodImageDisplay	2	105	45	foodImage.89	FOODEEG_Images\0881.jpg	NY	Right	Yes	0.988157199928537	0	481993	252
943.455078125	0.988157199928537	taste	choicePhaseStart	2	105	45	foodImage.89	FOODEEG_Images\0881.jpg	NY	Right	Yes	0.988157199928537	0	483050	253
944.431640625	0	taste	response	2	105	45	foodImage.89	FOODEEG_Images\0881.jpg	NY	Right	Yes	0.988157199928537	0	483550	235
945.478515625	1	health	trialStart	2	106	46	foodImage.30	FOODEEG_Images\0282.jpg	YN	Left	Yes	2.01781160000246	0	484086	251
946.51953125	2	health	foodImageDisplay	2	106	46	foodImage.30	FOODEEG_Images\0282.jpg	YN	Left	Yes	2.01781160000246	0	484619	252
948.583984375	2.01781160000246	health	choicePhaseStart	2	106	46	foodImage.30	FOODEEG_Images\0282.jpg	YN	Left	Yes	2.01781160000246	0	485676	253
950.591796875	0	health	response	2	106	46	foodImage.30	FOODEEG_Images\0282.jpg	YN	Left	Yes	2.01781160000246	0	486704	234
951.634765625	1	taste	trialStart	2	107	47	foodImage.28	FOODEEG_Images\0273.jpg	YN	Right	No	2.34877389995381	0	487238	251
952.677734375	2	taste	foodImageDisplay	2	107	47	foodImage.28	FOODEEG_Images\0273.jpg	YN	Right	No	2.34877389995381	0	487772	252
954.740234375	2.34877389995381	taste	choicePhaseStart	2	107	47	foodImage.28	FOODEEG_Images\0273.jpg	YN	Right	No	2.34877389995381	0	488828	253
957.080078125	0	taste	response	2	107	47	foodImage.28	FOODEEG_Images\0273.jpg	YN	Right	No	2.34877389995381	0	490026	235
958.12109375	1	taste	trialStart	2	108	48	foodImage.83	FOODEEG_Images\0827.jpg	YN	Left	Yes	1.24384170002304	0	490559	251
959.1796875	2	taste	foodImageDisplay	2	108	48	foodImage.83	FOODEEG_Images\0827.jpg	YN	Left	Yes	1.24384170002304	0	491101	252
961.244140625	1.24384170002304	taste	choicePhaseStart	2	108	48	foodImage.83	FOODEEG_Images\0827.jpg	YN	Left	Yes	1.24384170002304	0	492158	253
962.48046875	0	taste	response	2	108	48	foodImage.83	FOODEEG_Images\0827.jpg	YN	Left	Yes	1.24384170002304	0	492791	234
963.5234375	1	health	trialStart	2	109	49	foodImage.36	FOODEEG_Images\0352.jpg	NY	Right	Yes	1.33209719997831	0	493325	251
964.58203125	2	health	foodImageDisplay	2	109	49	foodImage.36	FOODEEG_Images\0352.jpg	NY	Right	Yes	1.33209719997831	0	493867	252
966.64453125	1.33209719997831	health	choicePhaseStart	2	109	49	foodImage.36	FOODEEG_Images\0352.jpg	NY	Right	Yes	1.33209719997831	0	494923	253
967.966796875	0	health	response	2	109	49	foodImage.36	FOODEEG_Images\0352.jpg	NY	Right	Yes	1.33209719997831	0	495600	235
969.009765625	1	decision	trialStart	2	110	50	foodImage.33	FOODEEG_Images\0329.jpg	NY	Right	Yes	0.860335999983363	0	496134	251
970.0546875	2	decision	foodImageDisplay	2	110	50	foodImage.33	FOODEEG_Images\0329.jpg	NY	Right	Yes	0.860335999983363	0	496669	252
972.1171875	0.860335999983363	decision	choicePhaseStart	2	110	50	foodImage.33	FOODEEG_Images\0329.jpg	NY	Right	Yes	0.860335999983363	0	497725	253
972.966796875	0	decision	response	2	110	50	foodImage.33	FOODEEG_Images\0329.jpg	NY	Right	Yes	0.860335999983363	0	498160	235
974.009765625	1	decision	trialStart	2	111	51	foodImage.66	FOODEEG_Images\0676.jpg	YN	Left	Yes	1.29574420000426	0	498694	251
975.07421875	2	decision	foodImageDisplay	2	111	51	foodImage.66	FOODEEG_Images\0676.jpg	YN	Left	Yes	1.29574420000426	0	499239	252
977.13671875	1.29574420000426	decision	choicePhaseStart	2	111	51	foodImage.66	FOODEEG_Images\0676.jpg	YN	Left	Yes	1.29574420000426	0	500295	253
978.423828125	0	decision	response	2	111	51	foodImage.66	FOODEEG_Images\0676.jpg	YN	Left	Yes	1.29574420000426	0	500954	234
979.466796875	1	taste	trialStart	2	112	52	foodImage.99	FOODEEG_Images\0907.jpg	YN	Right	No	1.90667759999633	0	501488	251
980.505859375	2	taste	foodImageDisplay	2	112	52	foodImage.99	FOODEEG_Images\0907.jpg	YN	Right	No	1.90667759999633	0	502020	252
982.57421875	1.90667759999633	taste	choicePhaseStart	2	112	52	foodImage.99	FOODEEG_Images\0907.jpg	YN	Right	No	1.90667759999633	0	503079	253
984.470703125	0	taste	response	2	112	52	foodImage.99	FOODEEG_Images\0907.jpg	YN	Right	No	1.90667759999633	0	504050	235
985.515625	1	health	trialStart	2	113	53	foodImage.103	FOODEEG_Images\0911.jpg	NY	Left	No	2.01111650001258	0	504585	251
986.556640625	2	health	foodImageDisplay	2	113	53	foodImage.103	FOODEEG_Images\0911.jpg	NY	Left	No	2.01111650001258	0	505118	252
988.62109375	2.01111650001258	health	choicePhaseStart	2	113	53	foodImage.103	FOODEEG_Images\0911.jpg	NY	Left	No	2.01111650001258	0	506175	253
990.623046875	0	health	response	2	113	53	foodImage.103	FOODEEG_Images\0911.jpg	NY	Left	No	2.01111650001258	0	507200	234
991.666015625	1	health	trialStart	2	114	54	foodImage.58	FOODEEG_Images\0605.jpg	YN	Left	Yes	1.18107260006946	0	507734	251
992.724609375	2	health	foodImageDisplay	2	114	54	foodImage.58	FOODEEG_Images\0605.jpg	YN	Left	Yes	1.18107260006946	0	508276	252
994.787109375	1.18107260006946	health	choicePhaseStart	2	114	54	foodImage.58	FOODEEG_Images\0605.jpg	YN	Left	Yes	1.18107260006946	0	509332	253
995.958984375	0	health	response	2	114	54	foodImage.58	FOODEEG_Images\0605.jpg	YN	Left	Yes	1.18107260006946	0	509932	234
997.001953125	1	decision	trialStart	2	115	55	foodImage.25	FOODEEG_Images\0261.jpg	YN	Left	Yes	1.29194749996532	0	510466	251
998.04296875	2	decision	foodImageDisplay	2	115	55	foodImage.25	FOODEEG_Images\0261.jpg	YN	Left	Yes	1.29194749996532	0	510999	252
1000.107421875	1.29194749996532	decision	choicePhaseStart	2	115	55	foodImage.25	FOODEEG_Images\0261.jpg	YN	Left	Yes	1.29194749996532	0	512056	253
1001.390625	0	decision	response	2	115	55	foodImage.25	FOODEEG_Images\0261.jpg	YN	Left	Yes	1.29194749996532	0	512713	234
1002.439453125	1	decision	trialStart	2	116	56	foodImage.111	FOODEEG_Images\0919.jpg	NY	Left	No	1.54562700004317	0	513250	251
1003.478515625	2	decision	foodImageDisplay	2	116	56	foodImage.111	FOODEEG_Images\0919.jpg	NY	Left	No	1.54562700004317	0	513782	252
1005.541015625	1.54562700004317	decision	choicePhaseStart	2	116	56	foodImage.111	FOODEEG_Images\0919.jpg	NY	Left	No	1.54562700004317	0	514838	253
1007.078125	0	decision	response	2	116	56	foodImage.111	FOODEEG_Images\0919.jpg	NY	Left	No	1.54562700004317	0	515625	234
1008.126953125	1	health	trialStart	2	117	57	foodImage.31	FOODEEG_Images\0294.jpg	YN	Left	Yes	1.79753420001362	0	516162	251
1009.169921875	2	health	foodImageDisplay	2	117	57	foodImage.31	FOODEEG_Images\0294.jpg	YN	Left	Yes	1.79753420001362	0	516696	252
1011.234375	1.79753420001362	health	choicePhaseStart	2	117	57	foodImage.31	FOODEEG_Images\0294.jpg	YN	Left	Yes	1.79753420001362	0	517753	253
1013.021484375	0	health	response	2	117	57	foodImage.31	FOODEEG_Images\0294.jpg	YN	Left	Yes	1.79753420001362	0	518668	234
1014.06640625	1	health	trialStart	2	118	58	foodImage.117	FOODEEG_Images\0925.jpg	YN	Left	Yes	3.6461844999576	0	519203	251
1015.10546875	2	health	foodImageDisplay	2	118	58	foodImage.117	FOODEEG_Images\0925.jpg	YN	Left	Yes	3.6461844999576	0	519735	252
1017.169921875	3.6461844999576	health	choicePhaseStart	2	118	58	foodImage.117	FOODEEG_Images\0925.jpg	YN	Left	Yes	3.6461844999576	0	520792	253
1020.8046875	0	health	response	2	118	58	foodImage.117	FOODEEG_Images\0925.jpg	YN	Left	Yes	3.6461844999576	0	522653	234
1021.84765625	1	taste	trialStart	2	119	59	foodImage.106	FOODEEG_Images\0914.jpg	YN	Left	Yes	1.43742710002698	0	523187	251
1022.888671875	2	taste	foodImageDisplay	2	119	59	foodImage.106	FOODEEG_Images\0914.jpg	YN	Left	Yes	1.43742710002698	0	523720	252
1024.953125	1.43742710002698	taste	choicePhaseStart	2	119	59	foodImage.106	FOODEEG_Images\0914.jpg	YN	Left	Yes	1.43742710002698	0	524777	253
1026.380859375	0	taste	response	2	119	59	foodImage.106	FOODEEG_Images\0914.jpg	YN	Left	Yes	1.43742710002698	0	525508	234
1027.423828125	1	decision	trialStart	2	120	60	foodImage.112	FOODEEG_Images\0920.jpg	YN	Left	Yes	2.06859280006029	0	526042	251
1028.46484375	2	decision	foodImageDisplay	2	120	60	foodImage.112	FOODEEG_Images\0920.jpg	YN	Left	Yes	2.06859280006029	0	526575	252
1030.52734375	2.06859280006029	decision	choicePhaseStart	2	120	60	foodImage.112	FOODEEG_Images\0920.jpg	YN	Left	Yes	2.06859280006029	0	527631	253
1032.58984375	0	decision	response	2	120	60	foodImage.112	FOODEEG_Images\0920.jpg	YN	Left	Yes	2.06859280006029	0	528687	234
1034.630859375	35.1171875	n/a	blockEnd	n/a	n/a	n/a	n/a	n/a	n/a	n/a	n/a	n/a	n/a	529732	254
1069.748046875	2	n/a	blockStart	3	n/a	n/a	n/a	n/a	n/a	n/a	n/a	n/a	n/a	547712	250
1071.779296875	1	taste	trialStart	3	121	1	foodImage.48	FOODEEG_Images\0494.jpg	NY	Right	Yes	1.39613230002578	0	548752	251
1072.82421875	2	taste	foodImageDisplay	3	121	1	foodImage.48	FOODEEG_Images\0494.jpg	NY	Right	Yes	1.39613230002578	0	549287	252
1074.888671875	1.39613230002578	taste	choicePhaseStart	3	121	1	foodImage.48	FOODEEG_Images\0494.jpg	NY	Right	Yes	1.39613230002578	0	550344	253
1076.275390625	0	taste	response	3	121	1	foodImage.48	FOODEEG_Images\0494.jpg	NY	Right	Yes	1.39613230002578	0	551054	235
1077.32421875	1	health	trialStart	3	122	2	foodImage.89	FOODEEG_Images\0881.jpg	YN	Left	Yes	1.39166710001882	0	551591	251
1078.380859375	2	health	foodImageDisplay	3	122	2	foodImage.89	FOODEEG_Images\0881.jpg	YN	Left	Yes	1.39166710001882	0	552132	252
1080.4453125	1.39166710001882	health	choicePhaseStart	3	122	2	foodImage.89	FOODEEG_Images\0881.jpg	YN	Left	Yes	1.39166710001882	0	553189	253
1081.828125	0	health	response	3	122	2	foodImage.89	FOODEEG_Images\0881.jpg	YN	Left	Yes	1.39166710001882	0	553897	234
1082.875	1	decision	trialStart	3	123	3	foodImage.18	FOODEEG_Images\0202.jpg	YN	Right	No	0.973616300034337	0	554433	251
1083.93359375	2	decision	foodImageDisplay	3	123	3	foodImage.18	FOODEEG_Images\0202.jpg	YN	Right	No	0.973616300034337	0	554975	252
1085.998046875	0.973616300034337	decision	choicePhaseStart	3	123	3	foodImage.18	FOODEEG_Images\0202.jpg	YN	Right	No	0.973616300034337	0	556032	253
1086.962890625	0	decision	response	3	123	3	foodImage.18	FOODEEG_Images\0202.jpg	YN	Right	No	0.973616300034337	0	556526	235
1088.005859375	1	decision	trialStart	3	124	4	foodImage.63	FOODEEG_Images\0645.jpg	YN	Left	Yes	0.693819600041024	0	557060	251
1089.048828125	2	decision	foodImageDisplay	3	124	4	foodImage.63	FOODEEG_Images\0645.jpg	YN	Left	Yes	0.693819600041024	0	557594	252
1091.119140625	0.693819600041024	decision	choicePhaseStart	3	124	4	foodImage.63	FOODEEG_Images\0645.jpg	YN	Left	Yes	0.693819600041024	0	558654	253
1091.802734375	0	decision	response	3	124	4	foodImage.63	FOODEEG_Images\0645.jpg	YN	Left	Yes	0.693819600041024	0	559004	234
1092.845703125	1	health	trialStart	3	125	5	foodImage.18	FOODEEG_Images\0202.jpg	NY	Right	Yes	0.705961500061676	0	559538	251
1093.90625	2	health	foodImageDisplay	3	125	5	foodImage.18	FOODEEG_Images\0202.jpg	NY	Right	Yes	0.705961500061676	0	560081	252
1095.970703125	0.705961500061676	health	choicePhaseStart	3	125	5	foodImage.18	FOODEEG_Images\0202.jpg	NY	Right	Yes	0.705961500061676	0	561138	253
1096.666015625	0	health	response	3	125	5	foodImage.18	FOODEEG_Images\0202.jpg	NY	Right	Yes	0.705961500061676	0	561494	235
1097.708984375	1	taste	trialStart	3	126	6	foodImage.66	FOODEEG_Images\0676.jpg	NY	Right	Yes	1.14363790000789	0	562028	251
1098.75	2	taste	foodImageDisplay	3	126	6	foodImage.66	FOODEEG_Images\0676.jpg	NY	Right	Yes	1.14363790000789	0	562561	252
1100.8125	1.14363790000789	taste	choicePhaseStart	3	126	6	foodImage.66	FOODEEG_Images\0676.jpg	NY	Right	Yes	1.14363790000789	0	563617	253
1101.947265625	0	taste	response	3	126	6	foodImage.66	FOODEEG_Images\0676.jpg	NY	Right	Yes	1.14363790000789	0	564198	235
1102.98828125	1	taste	trialStart	3	127	7	foodImage.49	FOODEEG_Images\0515.jpg	NY	Right	Yes	1.09364639990963	0	564731	251
1104.029296875	2	taste	foodImageDisplay	3	127	7	foodImage.49	FOODEEG_Images\0515.jpg	NY	Right	Yes	1.09364639990963	0	565264	252
1106.09375	1.09364639990963	taste	choicePhaseStart	3	127	7	foodImage.49	FOODEEG_Images\0515.jpg	NY	Right	Yes	1.09364639990963	0	566321	253
1107.177734375	0	taste	response	3	127	7	foodImage.49	FOODEEG_Images\0515.jpg	NY	Right	Yes	1.09364639990963	0	566876	235
1108.220703125	1	taste	trialStart	3	128	8	foodImage.3	FOODEEG_Images\0046.jpg	YN	Left	Yes	0.862030899967067	0	567410	251
1109.263671875	2	taste	foodImageDisplay	3	128	8	foodImage.3	FOODEEG_Images\0046.jpg	YN	Left	Yes	0.862030899967067	0	567944	252
1111.326171875	0.862030899967067	taste	choicePhaseStart	3	128	8	foodImage.3	FOODEEG_Images\0046.jpg	YN	Left	Yes	0.862030899967067	0	569000	253
1112.177734375	0	taste	response	3	128	8	foodImage.3	FOODEEG_Images\0046.jpg	YN	Left	Yes	0.862030899967067	0	569436	234
1113.220703125	1	health	trialStart	3	129	9	foodImage.53	FOODEEG_Images\0547.jpg	YN	Right	No	1.32510300003923	0	569970	251
1114.27734375	2	health	foodImageDisplay	3	129	9	foodImage.53	FOODEEG_Images\0547.jpg	YN	Right	No	1.32510300003923	0	570511	252
1116.341796875	1.32510300003923	health	choicePhaseStart	3	129	9	foodImage.53	FOODEEG_Images\0547.jpg	YN	Right	No	1.32510300003923	0	571568	253
1117.658203125	0	health	response	3	129	9	foodImage.53	FOODEEG_Images\0547.jpg	YN	Right	No	1.32510300003923	0	572242	235
1118.701171875	1	decision	trialStart	3	130	10	foodImage.48	FOODEEG_Images\0494.jpg	NY	Right	Yes	0.837117400020361	0	572776	251
1119.7421875	2	decision	foodImageDisplay	3	130	10	foodImage.48	FOODEEG_Images\0494.jpg	NY	Right	Yes	0.837117400020361	0	573309	252
1121.8046875	0.837117400020361	decision	choicePhaseStart	3	130	10	foodImage.48	FOODEEG_Images\0494.jpg	NY	Right	Yes	0.837117400020361	0	574365	253
1122.6328125	0	decision	response	3	130	10	foodImage.48	FOODEEG_Images\0494.jpg	NY	Right	Yes	0.837117400020361	0	574789	235
1123.6796875	1	taste	trialStart	3	131	11	foodImage.65	FOODEEG_Images\0658.jpg	YN	Left	Yes	1.51139300002251	0	575325	251
1124.724609375	2	taste	foodImageDisplay	3	131	11	foodImage.65	FOODEEG_Images\0658.jpg	YN	Left	Yes	1.51139300002251	0	575860	252
1126.787109375	1.51139300002251	taste	choicePhaseStart	3	131	11	foodImage.65	FOODEEG_Images\0658.jpg	YN	Left	Yes	1.51139300002251	0	576916	253
1128.2890625	0	taste	response	3	131	11	foodImage.65	FOODEEG_Images\0658.jpg	YN	Left	Yes	1.51139300002251	0	577685	234
1129.333984375	1	decision	trialStart	3	132	12	foodImage.22	FOODEEG_Images\0236.jpg	NY	Right	Yes	0.909485899959691	0	578220	251
1130.375	2	decision	foodImageDisplay	3	132	12	foodImage.22	FOODEEG_Images\0236.jpg	NY	Right	Yes	0.909485899959691	0	578753	252
1132.4375	0.909485899959691	decision	choicePhaseStart	3	132	12	foodImage.22	FOODEEG_Images\0236.jpg	NY	Right	Yes	0.909485899959691	0	579809	253
1133.337890625	0	decision	response	3	132	12	foodImage.22	FOODEEG_Images\0236.jpg	NY	Right	Yes	0.909485899959691	0	580270	235
1134.37890625	1	health	trialStart	3	133	13	foodImage.65	FOODEEG_Images\0658.jpg	YN	Right	No	1.46273859997746	0	580803	251
1135.419921875	2	health	foodImageDisplay	3	133	13	foodImage.65	FOODEEG_Images\0658.jpg	YN	Right	No	1.46273859997746	0	581336	252
1137.484375	1.46273859997746	health	choicePhaseStart	3	133	13	foodImage.65	FOODEEG_Images\0658.jpg	YN	Right	No	1.46273859997746	0	582393	253
1138.9375	0	health	response	3	133	13	foodImage.65	FOODEEG_Images\0658.jpg	YN	Right	No	1.46273859997746	0	583137	235
1139.98046875	1	decision	trialStart	3	134	14	foodImage.67	FOODEEG_Images\0679.jpg	YN	Left	Yes	1.08861860004254	0	583671	251
1141.041015625	2	decision	foodImageDisplay	3	134	14	foodImage.67	FOODEEG_Images\0679.jpg	YN	Left	Yes	1.08861860004254	0	584214	252
1143.10546875	1.08861860004254	decision	choicePhaseStart	3	134	14	foodImage.67	FOODEEG_Images\0679.jpg	YN	Left	Yes	1.08861860004254	0	585271	253
1144.185546875	0	decision	response	3	134	14	foodImage.67	FOODEEG_Images\0679.jpg	YN	Left	Yes	1.08861860004254	0	585824	234
1145.2265625	1	health	trialStart	3	135	15	foodImage.81	FOODEEG_Images\0797.jpg	YN	Left	Yes	1.24853719992097	0	586357	251
1146.28125	2	health	foodImageDisplay	3	135	15	foodImage.81	FOODEEG_Images\0797.jpg	YN	Left	Yes	1.24853719992097	0	586897	252
1148.345703125	1.24853719992097	health	choicePhaseStart	3	135	15	foodImage.81	FOODEEG_Images\0797.jpg	YN	Left	Yes	1.24853719992097	0	587954	253
1149.583984375	0	health	response	3	135	15	foodImage.81	FOODEEG_Images\0797.jpg	YN	Left	Yes	1.24853719992097	0	588588	234
1150.626953125	1	health	trialStart	3	136	16	foodImage.69	FOODEEG_Images\0693.jpg	NY	Right	Yes	0.935448999982327	0	589122	251
1151.689453125	2	health	foodImageDisplay	3	136	16	foodImage.69	FOODEEG_Images\0693.jpg	NY	Right	Yes	0.935448999982327	0	589666	252
1153.75390625	0.935448999982327	health	choicePhaseStart	3	136	16	foodImage.69	FOODEEG_Images\0693.jpg	NY	Right	Yes	0.935448999982327	0	590723	253
1154.6796875	0	health	response	3	136	16	foodImage.69	FOODEEG_Images\0693.jpg	NY	Right	Yes	0.935448999982327	0	591197	235
1155.724609375	1	health	trialStart	3	137	17	foodImage.32	FOODEEG_Images\0319.jpg	YN	Left	Yes	2.88980170001741	0	591732	251
1156.767578125	2	health	foodImageDisplay	3	137	17	foodImage.32	FOODEEG_Images\0319.jpg	YN	Left	Yes	2.88980170001741	0	592266	252
1158.83203125	2.88980170001741	health	choicePhaseStart	3	137	17	foodImage.32	FOODEEG_Images\0319.jpg	YN	Left	Yes	2.88980170001741	0	593323	253
1161.712890625	0	health	response	3	137	17	foodImage.32	FOODEEG_Images\0319.jpg	YN	Left	Yes	2.88980170001741	0	594798	234
1162.755859375	1	taste	trialStart	3	138	18	foodImage.67	FOODEEG_Images\0679.jpg	NY	Right	Yes	1.63513319997583	0	595332	251
1163.8125	2	taste	foodImageDisplay	3	138	18	foodImage.67	FOODEEG_Images\0679.jpg	NY	Right	Yes	1.63513319997583	0	595873	252
1165.876953125	1.63513319997583	taste	choicePhaseStart	3	138	18	foodImage.67	FOODEEG_Images\0679.jpg	NY	Right	Yes	1.63513319997583	0	596930	253
1167.50390625	0	taste	response	3	138	18	foodImage.67	FOODEEG_Images\0679.jpg	NY	Right	Yes	1.63513319997583	0	597763	235
1168.546875	1	health	trialStart	3	139	19	foodImage.56	FOODEEG_Images\0586.jpg	YN	Right	No	1.94084980001207	0	598297	251
1169.58984375	2	health	foodImageDisplay	3	139	19	foodImage.56	FOODEEG_Images\0586.jpg	YN	Right	No	1.94084980001207	0	598831	252
1171.65234375	1.94084980001207	health	choicePhaseStart	3	139	19	foodImage.56	FOODEEG_Images\0586.jpg	YN	Right	No	1.94084980001207	0	599887	253
1173.583984375	0	health	response	3	139	19	foodImage.56	FOODEEG_Images\0586.jpg	YN	Right	No	1.94084980001207	0	600876	235
1174.625	1	taste	trialStart	3	140	20	foodImage.35	FOODEEG_Images\0350.jpg	NY	Right	Yes	1.36236869997811	0	601409	251
1175.662109375	2	taste	foodImageDisplay	3	140	20	foodImage.35	FOODEEG_Images\0350.jpg	NY	Right	Yes	1.36236869997811	0	601940	252
1177.7265625	1.36236869997811	taste	choicePhaseStart	3	140	20	foodImage.35	FOODEEG_Images\0350.jpg	NY	Right	Yes	1.36236869997811	0	602997	253
1179.080078125	0	taste	response	3	140	20	foodImage.35	FOODEEG_Images\0350.jpg	NY	Right	Yes	1.36236869997811	0	603690	235
1180.123046875	1	decision	trialStart	3	141	21	foodImage.7	FOODEEG_Images\0116.jpg	YN	Left	Yes	0.874731699936092	0	604224	251
1181.166015625	2	decision	foodImageDisplay	3	141	21	foodImage.7	FOODEEG_Images\0116.jpg	YN	Left	Yes	0.874731699936092	0	604758	252
1183.23046875	0.874731699936092	decision	choicePhaseStart	3	141	21	foodImage.7	FOODEEG_Images\0116.jpg	YN	Left	Yes	0.874731699936092	0	605815	253
1184.095703125	0	decision	response	3	141	21	foodImage.7	FOODEEG_Images\0116.jpg	YN	Left	Yes	0.874731699936092	0	606258	234
1185.138671875	1	decision	trialStart	3	142	22	foodImage.107	FOODEEG_Images\0915.jpg	YN	Left	Yes	1.04180030000862	0	606792	251
1186.17578125	2	decision	foodImageDisplay	3	142	22	foodImage.107	FOODEEG_Images\0915.jpg	YN	Left	Yes	1.04180030000862	0	607323	252
1188.240234375	1.04180030000862	decision	choicePhaseStart	3	142	22	foodImage.107	FOODEEG_Images\0915.jpg	YN	Left	Yes	1.04180030000862	0	608380	253
1189.271484375	0	decision	response	3	142	22	foodImage.107	FOODEEG_Images\0915.jpg	YN	Left	Yes	1.04180030000862	0	608908	234
1190.314453125	1	taste	trialStart	3	143	23	foodImage.33	FOODEEG_Images\0329.jpg	YN	Left	Yes	1.26740469993092	0	609442	251
1191.357421875	2	taste	foodImageDisplay	3	143	23	foodImage.33	FOODEEG_Images\0329.jpg	YN	Left	Yes	1.26740469993092	0	609976	252
1193.419921875	1.26740469993092	taste	choicePhaseStart	3	143	23	foodImage.33	FOODEEG_Images\0329.jpg	YN	Left	Yes	1.26740469993092	0	611032	253
1194.6796875	0	taste	response	3	143	23	foodImage.33	FOODEEG_Images\0329.jpg	YN	Left	Yes	1.26740469993092	0	611677	234
1195.72265625	1	decision	trialStart	3	144	24	foodImage.103	FOODEEG_Images\0911.jpg	YN	Right	No	1.51111119997222	0	612211	251
1196.76171875	2	decision	foodImageDisplay	3	144	24	foodImage.103	FOODEEG_Images\0911.jpg	YN	Right	No	1.51111119997222	0	612743	252
1198.82421875	1.51111119997222	decision	choicePhaseStart	3	144	24	foodImage.103	FOODEEG_Images\0911.jpg	YN	Right	No	1.51111119997222	0	613799	253
1200.326171875	0	decision	response	3	144	24	foodImage.103	FOODEEG_Images\0911.jpg	YN	Right	No	1.51111119997222	0	614568	235
1201.37109375	1	taste	trialStart	3	145	25	foodImage.43	FOODEEG_Images\0445.jpg	NY	Right	Yes	1.60958950000349	0	615103	251
1202.4296875	2	taste	foodImageDisplay	3	145	25	foodImage.43	FOODEEG_Images\0445.jpg	NY	Right	Yes	1.60958950000349	0	615645	252
1204.494140625	1.60958950000349	taste	choicePhaseStart	3	145	25	foodImage.43	FOODEEG_Images\0445.jpg	NY	Right	Yes	1.60958950000349	0	616702	253
1206.09375	0	taste	response	3	145	25	foodImage.43	FOODEEG_Images\0445.jpg	NY	Right	Yes	1.60958950000349	0	617521	235
1207.140625	1	health	trialStart	3	146	26	foodImage.112	FOODEEG_Images\0920.jpg	YN	Left	Yes	1.63445000001229	0	618057	251
1208.1796875	2	health	foodImageDisplay	3	146	26	foodImage.112	FOODEEG_Images\0920.jpg	YN	Left	Yes	1.63445000001229	0	618589	252
1210.244140625	1.63445000001229	health	choicePhaseStart	3	146	26	foodImage.112	FOODEEG_Images\0920.jpg	YN	Left	Yes	1.63445000001229	0	619646	253
1211.869140625	0	health	response	3	146	26	foodImage.112	FOODEEG_Images\0920.jpg	YN	Left	Yes	1.63445000001229	0	620478	234
1212.9140625	1	health	trialStart	3	147	27	foodImage.76	FOODEEG_Images\0766.jpg	NY	Right	Yes	0.854195300024003	0	621013	251
1213.958984375	2	health	foodImageDisplay	3	147	27	foodImage.76	FOODEEG_Images\0766.jpg	NY	Right	Yes	0.854195300024003	0	621548	252
1216.025390625	0.854195300024003	health	choicePhaseStart	3	147	27	foodImage.76	FOODEEG_Images\0766.jpg	NY	Right	Yes	0.854195300024003	0	622606	253
1216.87109375	0	health	response	3	147	27	foodImage.76	FOODEEG_Images\0766.jpg	NY	Right	Yes	0.854195300024003	0	623039	235
1217.9140625	1	health	trialStart	3	148	28	foodImage.109	FOODEEG_Images\0917.jpg	NY	Left	No	1.17654399992898	0	623573	251
1218.951171875	2	health	foodImageDisplay	3	148	28	foodImage.109	FOODEEG_Images\0917.jpg	NY	Left	No	1.17654399992898	0	624104	252
1221.013671875	1.17654399992898	health	choicePhaseStart	3	148	28	foodImage.109	FOODEEG_Images\0917.jpg	NY	Left	No	1.17654399992898	0	625160	253
1222.181640625	0	health	response	3	148	28	foodImage.109	FOODEEG_Images\0917.jpg	NY	Left	No	1.17654399992898	0	625758	234
1223.224609375	1	taste	trialStart	3	149	29	foodImage.20	FOODEEG_Images\0226.jpg	YN	Left	Yes	1.35903440008406	0	626292	251
1224.265625	2	taste	foodImageDisplay	3	149	29	foodImage.20	FOODEEG_Images\0226.jpg	YN	Left	Yes	1.35903440008406	0	626825	252
1226.328125	1.35903440008406	taste	choicePhaseStart	3	149	29	foodImage.20	FOODEEG_Images\0226.jpg	YN	Left	Yes	1.35903440008406	0	627881	253
1227.677734375	0	taste	response	3	149	29	foodImage.20	FOODEEG_Images\0226.jpg	YN	Left	Yes	1.35903440008406	0	628572	234
1228.71875	1	health	trialStart	3	150	30	foodImage.23	FOODEEG_Images\0244.jpg	NY	Right	Yes	1.57484380004462	0	629105	251
1229.76171875	2	health	foodImageDisplay	3	150	30	foodImage.23	FOODEEG_Images\0244.jpg	NY	Right	Yes	1.57484380004462	0	629639	252
1231.82421875	1.57484380004462	health	choicePhaseStart	3	150	30	foodImage.23	FOODEEG_Images\0244.jpg	NY	Right	Yes	1.57484380004462	0	630695	253
1233.388671875	0	health	response	3	150	30	foodImage.23	FOODEEG_Images\0244.jpg	NY	Right	Yes	1.57484380004462	0	631496	235
1234.439453125	1	health	trialStart	3	151	31	foodImage.45	FOODEEG_Images\0478.jpg	YN	Left	Yes	1.2081685999874	0	632034	251
1235.486328125	2	health	foodImageDisplay	3	151	31	foodImage.45	FOODEEG_Images\0478.jpg	YN	Left	Yes	1.2081685999874	0	632570	252
1237.55078125	1.2081685999874	health	choicePhaseStart	3	151	31	foodImage.45	FOODEEG_Images\0478.jpg	YN	Left	Yes	1.2081685999874	0	633627	253
1238.75	0	health	response	3	151	31	foodImage.45	FOODEEG_Images\0478.jpg	YN	Left	Yes	1.2081685999874	0	634241	234
1239.794921875	1	taste	trialStart	3	152	32	foodImage.86	FOODEEG_Images\0844.jpg	YN	Left	Yes	0.907993500004523	0	634776	251
1240.8515625	2	taste	foodImageDisplay	3	152	32	foodImage.86	FOODEEG_Images\0844.jpg	YN	Left	Yes	0.907993500004523	0	635317	252
1242.9140625	0.907993500004523	taste	choicePhaseStart	3	152	32	foodImage.86	FOODEEG_Images\0844.jpg	YN	Left	Yes	0.907993500004523	0	636373	253
1243.8125	0	taste	response	3	152	32	foodImage.86	FOODEEG_Images\0844.jpg	YN	Left	Yes	0.907993500004523	0	636833	234
1244.85546875	1	health	trialStart	3	153	33	foodImage.105	FOODEEG_Images\0913.jpg	YN	Left	Yes	1.68124929990154	0	637367	251
1245.892578125	2	health	foodImageDisplay	3	153	33	foodImage.105	FOODEEG_Images\0913.jpg	YN	Left	Yes	1.68124929990154	0	637898	252
1247.95703125	1.68124929990154	health	choicePhaseStart	3	153	33	foodImage.105	FOODEEG_Images\0913.jpg	YN	Left	Yes	1.68124929990154	0	638955	253
1249.62890625	0	health	response	3	153	33	foodImage.105	FOODEEG_Images\0913.jpg	YN	Left	Yes	1.68124929990154	0	639811	234
1250.671875	1	health	trialStart	3	154	34	foodImage.3	FOODEEG_Images\0046.jpg	NY	Left	No	1.26283899997361	0	640345	251
1251.712890625	2	health	foodImageDisplay	3	154	34	foodImage.3	FOODEEG_Images\0046.jpg	NY	Left	No	1.26283899997361	0	640878	252
1253.775390625	1.26283899997361	health	choicePhaseStart	3	154	34	foodImage.3	FOODEEG_Images\0046.jpg	NY	Left	No	1.26283899997361	0	641934	253
1255.029296875	0	health	response	3	154	34	foodImage.3	FOODEEG_Images\0046.jpg	NY	Left	No	1.26283899997361	0	642576	234
1256.076171875	1	health	trialStart	3	155	35	foodImage.48	FOODEEG_Images\0494.jpg	YN	Right	No	2.24234629992861	0	643112	251
1257.1171875	2	health	foodImageDisplay	3	155	35	foodImage.48	FOODEEG_Images\0494.jpg	YN	Right	No	2.24234629992861	0	643645	252
1259.1796875	2.24234629992861	health	choicePhaseStart	3	155	35	foodImage.48	FOODEEG_Images\0494.jpg	YN	Right	No	2.24234629992861	0	644701	253
1261.412109375	0	health	response	3	155	35	foodImage.48	FOODEEG_Images\0494.jpg	YN	Right	No	2.24234629992861	0	645844	235
1262.45703125	1	decision	trialStart	3	156	36	foodImage.62	FOODEEG_Images\0644.jpg	YN	Left	Yes	0.861249399953522	0	646379	251
1263.521484375	2	decision	foodImageDisplay	3	156	36	foodImage.62	FOODEEG_Images\0644.jpg	YN	Left	Yes	0.861249399953522	0	646924	252
1265.583984375	0.861249399953522	decision	choicePhaseStart	3	156	36	foodImage.62	FOODEEG_Images\0644.jpg	YN	Left	Yes	0.861249399953522	0	647980	253
1266.435546875	0	decision	response	3	156	36	foodImage.62	FOODEEG_Images\0644.jpg	YN	Left	Yes	0.861249399953522	0	648416	234
1267.478515625	1	health	trialStart	3	157	37	foodImage.111	FOODEEG_Images\0919.jpg	NY	Right	Yes	1.81643759994768	0	648950	251
1268.517578125	2	health	foodImageDisplay	3	157	37	foodImage.111	FOODEEG_Images\0919.jpg	NY	Right	Yes	1.81643759994768	0	649482	252
1270.580078125	1.81643759994768	health	choicePhaseStart	3	157	37	foodImage.111	FOODEEG_Images\0919.jpg	NY	Right	Yes	1.81643759994768	0	650538	253
1272.388671875	0	health	response	3	157	37	foodImage.111	FOODEEG_Images\0919.jpg	NY	Right	Yes	1.81643759994768	0	651464	235
1273.431640625	1	decision	trialStart	3	158	38	foodImage.39	FOODEEG_Images\0367.jpg	YN	Left	Yes	1.51697839994449	0	651998	251
1274.486328125	2	decision	foodImageDisplay	3	158	38	foodImage.39	FOODEEG_Images\0367.jpg	YN	Left	Yes	1.51697839994449	0	652538	252
1276.55078125	1.51697839994449	decision	choicePhaseStart	3	158	38	foodImage.39	FOODEEG_Images\0367.jpg	YN	Left	Yes	1.51697839994449	0	653595	253
1278.060546875	0	decision	response	3	158	38	foodImage.39	FOODEEG_Images\0367.jpg	YN	Left	Yes	1.51697839994449	0	654368	234
1279.1015625	1	taste	trialStart	3	159	39	foodImage.46	FOODEEG_Images\0479.jpg	NY	Left	No	1.97629769996274	0	654901	251
1280.158203125	2	taste	foodImageDisplay	3	159	39	foodImage.46	FOODEEG_Images\0479.jpg	NY	Left	No	1.97629769996274	0	655442	252
1282.220703125	1.97629769996274	taste	choicePhaseStart	3	159	39	foodImage.46	FOODEEG_Images\0479.jpg	NY	Left	No	1.97629769996274	0	656498	253
1284.1875	0	taste	response	3	159	39	foodImage.46	FOODEEG_Images\0479.jpg	NY	Left	No	1.97629769996274	0	657505	234
1285.23046875	1	decision	trialStart	3	160	40	foodImage.71	FOODEEG_Images\0713.jpg	YN	Left	Yes	1.13588680000976	0	658039	251
1286.275390625	2	decision	foodImageDisplay	3	160	40	foodImage.71	FOODEEG_Images\0713.jpg	YN	Left	Yes	1.13588680000976	0	658574	252
1288.337890625	1.13588680000976	decision	choicePhaseStart	3	160	40	foodImage.71	FOODEEG_Images\0713.jpg	YN	Left	Yes	1.13588680000976	0	659630	253
1289.466796875	0	decision	response	3	160	40	foodImage.71	FOODEEG_Images\0713.jpg	YN	Left	Yes	1.13588680000976	0	660208	234
1290.51171875	1	taste	trialStart	3	161	41	foodImage.62	FOODEEG_Images\0644.jpg	NY	Right	Yes	0.915705899940804	0	660743	251
1291.5703125	2	taste	foodImageDisplay	3	161	41	foodImage.62	FOODEEG_Images\0644.jpg	NY	Right	Yes	0.915705899940804	0	661285	252
1293.6328125	0.915705899940804	taste	choicePhaseStart	3	161	41	foodImage.62	FOODEEG_Images\0644.jpg	NY	Right	Yes	0.915705899940804	0	662341	253
1294.5390625	0	taste	response	3	161	41	foodImage.62	FOODEEG_Images\0644.jpg	NY	Right	Yes	0.915705899940804	0	662805	235
1295.583984375	1	decision	trialStart	3	162	42	foodImage.5	FOODEEG_Images\0107.jpg	YN	Left	Yes	0.947190900100395	0	663340	251
1296.6640625	2	decision	foodImageDisplay	3	162	42	foodImage.5	FOODEEG_Images\0107.jpg	YN	Left	Yes	0.947190900100395	0	663893	252
1298.728515625	0.947190900100395	decision	choicePhaseStart	3	162	42	foodImage.5	FOODEEG_Images\0107.jpg	YN	Left	Yes	0.947190900100395	0	664950	253
1299.666015625	0	decision	response	3	162	42	foodImage.5	FOODEEG_Images\0107.jpg	YN	Left	Yes	0.947190900100395	0	665430	234
1300.708984375	1	health	trialStart	3	163	43	foodImage.83	FOODEEG_Images\0827.jpg	YN	Left	Yes	1.75593189999927	0	665964	251
1301.767578125	2	health	foodImageDisplay	3	163	43	foodImage.83	FOODEEG_Images\0827.jpg	YN	Left	Yes	1.75593189999927	0	666506	252
1303.83203125	1.75593189999927	health	choicePhaseStart	3	163	43	foodImage.83	FOODEEG_Images\0827.jpg	YN	Left	Yes	1.75593189999927	0	667563	253
1305.578125	0	health	response	3	163	43	foodImage.83	FOODEEG_Images\0827.jpg	YN	Left	Yes	1.75593189999927	0	668457	234
1306.62109375	1	decision	trialStart	3	164	44	foodImage.44	FOODEEG_Images\0459.jpg	YN	Left	Yes	0.924558600061573	0	668991	251
1307.66796875	2	decision	foodImageDisplay	3	164	44	foodImage.44	FOODEEG_Images\0459.jpg	YN	Left	Yes	0.924558600061573	0	669527	252
1309.732421875	0.924558600061573	decision	choicePhaseStart	3	164	44	foodImage.44	FOODEEG_Images\0459.jpg	YN	Left	Yes	0.924558600061573	0	670584	253
1310.650390625	0	decision	response	3	164	44	foodImage.44	FOODEEG_Images\0459.jpg	YN	Left	Yes	0.924558600061573	0	671054	234
1311.6953125	1	decision	trialStart	3	165	45	foodImage.42	FOODEEG_Images\0438.jpg	YN	Left	Yes	1.42937220004387	0	671589	251
1312.78125	2	decision	foodImageDisplay	3	165	45	foodImage.42	FOODEEG_Images\0438.jpg	YN	Left	Yes	1.42937220004387	0	672145	252
1314.84765625	1.42937220004387	decision	choicePhaseStart	3	165	45	foodImage.42	FOODEEG_Images\0438.jpg	YN	Left	Yes	1.42937220004387	0	673203	253
1316.265625	0	decision	response	3	165	45	foodImage.42	FOODEEG_Images\0438.jpg	YN	Left	Yes	1.42937220004387	0	673929	234
1317.30859375	1	decision	trialStart	3	166	46	foodImage.19	FOODEEG_Images\0225.jpg	YN	Left	Yes	0.895359799964353	0	674463	251
1318.35546875	2	decision	foodImageDisplay	3	166	46	foodImage.19	FOODEEG_Images\0225.jpg	YN	Left	Yes	0.895359799964353	0	674999	252
1320.419921875	0.895359799964353	decision	choicePhaseStart	3	166	46	foodImage.19	FOODEEG_Images\0225.jpg	YN	Left	Yes	0.895359799964353	0	676056	253
1321.306640625	0	decision	response	3	166	46	foodImage.19	FOODEEG_Images\0225.jpg	YN	Left	Yes	0.895359799964353	0	676510	234
1322.34765625	1	decision	trialStart	3	167	47	foodImage.49	FOODEEG_Images\0515.jpg	NY	Right	Yes	1.0930165000027	0	677043	251
1323.388671875	2	decision	foodImageDisplay	3	167	47	foodImage.49	FOODEEG_Images\0515.jpg	NY	Right	Yes	1.0930165000027	0	677576	252
1325.455078125	1.0930165000027	decision	choicePhaseStart	3	167	47	foodImage.49	FOODEEG_Images\0515.jpg	NY	Right	Yes	1.0930165000027	0	678634	253
1326.537109375	0	decision	response	3	167	47	foodImage.49	FOODEEG_Images\0515.jpg	NY	Right	Yes	1.0930165000027	0	679188	235
1327.580078125	1	taste	trialStart	3	168	48	foodImage.78	FOODEEG_Images\0787.jpg	YN	Left	Yes	1.00873520004097	0	679722	251
1328.625	2	taste	foodImageDisplay	3	168	48	foodImage.78	FOODEEG_Images\0787.jpg	YN	Left	Yes	1.00873520004097	0	680257	252
1330.689453125	1.00873520004097	taste	choicePhaseStart	3	168	48	foodImage.78	FOODEEG_Images\0787.jpg	YN	Left	Yes	1.00873520004097	0	681314	253
1331.689453125	0	taste	response	3	168	48	foodImage.78	FOODEEG_Images\0787.jpg	YN	Left	Yes	1.00873520004097	0	681826	234
1332.732421875	1	health	trialStart	3	169	49	foodImage.92	FOODEEG_Images\0900.jpg	YN	Right	No	1.53071920003276	0	682360	251
1333.775390625	2	health	foodImageDisplay	3	169	49	foodImage.92	FOODEEG_Images\0900.jpg	YN	Right	No	1.53071920003276	0	682894	252
1335.83984375	1.53071920003276	health	choicePhaseStart	3	169	49	foodImage.92	FOODEEG_Images\0900.jpg	YN	Right	No	1.53071920003276	0	683951	253
1337.361328125	0	health	response	3	169	49	foodImage.92	FOODEEG_Images\0900.jpg	YN	Right	No	1.53071920003276	0	684730	235
1338.404296875	1	decision	trialStart	3	170	50	foodImage.30	FOODEEG_Images\0282.jpg	NY	Right	Yes	1.70925069996156	0	685264	251
1339.4453125	2	decision	foodImageDisplay	3	170	50	foodImage.30	FOODEEG_Images\0282.jpg	NY	Right	Yes	1.70925069996156	0	685797	252
1341.509765625	1.70925069996156	decision	choicePhaseStart	3	170	50	foodImage.30	FOODEEG_Images\0282.jpg	NY	Right	Yes	1.70925069996156	0	686854	253
1343.208984375	0	decision	response	3	170	50	foodImage.30	FOODEEG_Images\0282.jpg	NY	Right	Yes	1.70925069996156	0	687724	235
1344.25390625	1	decision	trialStart	3	171	51	foodImage.34	FOODEEG_Images\0339.jpg	YN	Left	Yes	1.25864360004198	0	688259	251
1345.30859375	2	decision	foodImageDisplay	3	171	51	foodImage.34	FOODEEG_Images\0339.jpg	YN	Left	Yes	1.25864360004198	0	688799	252
1347.373046875	1.25864360004198	decision	choicePhaseStart	3	171	51	foodImage.34	FOODEEG_Images\0339.jpg	YN	Left	Yes	1.25864360004198	0	689856	253
1348.625	0	decision	response	3	171	51	foodImage.34	FOODEEG_Images\0339.jpg	YN	Left	Yes	1.25864360004198	0	690497	234
1349.666015625	1	health	trialStart	3	172	52	foodImage.44	FOODEEG_Images\0459.jpg	YN	Left	Yes	1.19604920002166	0	691030	251
1350.712890625	2	health	foodImageDisplay	3	172	52	foodImage.44	FOODEEG_Images\0459.jpg	YN	Left	Yes	1.19604920002166	0	691566	252
1352.78125	1.19604920002166	health	choicePhaseStart	3	172	52	foodImage.44	FOODEEG_Images\0459.jpg	YN	Left	Yes	1.19604920002166	0	692625	253
1353.96875	0	health	response	3	172	52	foodImage.44	FOODEEG_Images\0459.jpg	YN	Left	Yes	1.19604920002166	0	693233	234
1355.01171875	1	taste	trialStart	3	173	53	foodImage.27	FOODEEG_Images\0263.jpg	NY	Right	Yes	0.875263799913228	0	693767	251
1356.0546875	2	taste	foodImageDisplay	3	173	53	foodImage.27	FOODEEG_Images\0263.jpg	NY	Right	Yes	0.875263799913228	0	694301	252
1358.1171875	0.875263799913228	taste	choicePhaseStart	3	173	53	foodImage.27	FOODEEG_Images\0263.jpg	NY	Right	Yes	0.875263799913228	0	695357	253
1358.984375	0	taste	response	3	173	53	foodImage.27	FOODEEG_Images\0263.jpg	NY	Right	Yes	0.875263799913228	0	695801	235
1360.03515625	1	decision	trialStart	3	174	54	foodImage.85	FOODEEG_Images\0841.jpg	NY	Right	Yes	0.909460599999875	0	696339	251
1361.091796875	2	decision	foodImageDisplay	3	174	54	foodImage.85	FOODEEG_Images\0841.jpg	NY	Right	Yes	0.909460599999875	0	696880	252
1363.15625	0.909460599999875	decision	choicePhaseStart	3	174	54	foodImage.85	FOODEEG_Images\0841.jpg	NY	Right	Yes	0.909460599999875	0	697937	253
1364.056640625	0	decision	response	3	174	54	foodImage.85	FOODEEG_Images\0841.jpg	NY	Right	Yes	0.909460599999875	0	698398	235
1365.099609375	1	decision	trialStart	3	175	55	foodImage.10	FOODEEG_Images\0145.jpg	NY	Right	Yes	1.0034558000043	0	698932	251
1366.158203125	2	decision	foodImageDisplay	3	175	55	foodImage.10	FOODEEG_Images\0145.jpg	NY	Right	Yes	1.0034558000043	0	699474	252
1368.220703125	1.0034558000043	decision	choicePhaseStart	3	175	55	foodImage.10	FOODEEG_Images\0145.jpg	NY	Right	Yes	1.0034558000043	0	700530	253
1369.216796875	0	decision	response	3	175	55	foodImage.10	FOODEEG_Images\0145.jpg	NY	Right	Yes	1.0034558000043	0	701040	235
1370.259765625	1	health	trialStart	3	176	56	foodImage.79	FOODEEG_Images\0794.jpg	NY	Right	Yes	1.17470309999771	0	701574	251
1371.3046875	2	health	foodImageDisplay	3	176	56	foodImage.79	FOODEEG_Images\0794.jpg	NY	Right	Yes	1.17470309999771	0	702109	252
1373.37109375	1.17470309999771	health	choicePhaseStart	3	176	56	foodImage.79	FOODEEG_Images\0794.jpg	NY	Right	Yes	1.17470309999771	0	703167	253
1374.53515625	0	health	response	3	176	56	foodImage.79	FOODEEG_Images\0794.jpg	NY	Right	Yes	1.17470309999771	0	703763	235
1375.580078125	1	taste	trialStart	3	177	57	foodImage.82	FOODEEG_Images\0805.jpg	NY	Right	Yes	2.11263690004125	0	704298	251
1376.634765625	2	taste	foodImageDisplay	3	177	57	foodImage.82	FOODEEG_Images\0805.jpg	NY	Right	Yes	2.11263690004125	0	704838	252
1378.697265625	2.11263690004125	taste	choicePhaseStart	3	177	57	foodImage.82	FOODEEG_Images\0805.jpg	NY	Right	Yes	2.11263690004125	0	705894	253
1380.798828125	0	taste	response	3	177	57	foodImage.82	FOODEEG_Images\0805.jpg	NY	Right	Yes	2.11263690004125	0	706970	235
1381.841796875	1	health	trialStart	3	178	58	foodImage.40	FOODEEG_Images\0373.jpg	YN	Right	No	1.67678789992351	0	707504	251
1382.890625	2	health	foodImageDisplay	3	178	58	foodImage.40	FOODEEG_Images\0373.jpg	YN	Right	No	1.67678789992351	0	708041	252
1384.955078125	1.67678789992351	health	choicePhaseStart	3	178	58	foodImage.40	FOODEEG_Images\0373.jpg	YN	Right	No	1.67678789992351	0	709098	253
1386.623046875	0	health	response	3	178	58	foodImage.40	FOODEEG_Images\0373.jpg	YN	Right	No	1.67678789992351	0	709952	235
1387.66796875	1	taste	trialStart	3	179	59	foodImage.51	FOODEEG_Images\0536.jpg	YN	Left	Yes	1.38401869998779	0	710487	251
1388.712890625	2	taste	foodImageDisplay	3	179	59	foodImage.51	FOODEEG_Images\0536.jpg	YN	Left	Yes	1.38401869998779	0	711022	252
1390.77734375	1.38401869998779	taste	choicePhaseStart	3	179	59	foodImage.51	FOODEEG_Images\0536.jpg	YN	Left	Yes	1.38401869998779	0	712079	253
1392.150390625	0	taste	response	3	179	59	foodImage.51	FOODEEG_Images\0536.jpg	YN	Left	Yes	1.38401869998779	0	712782	234
1393.193359375	1	health	trialStart	3	180	60	foodImage.99	FOODEEG_Images\0907.jpg	YN	Right	No	1.40354880003724	0	713316	251
1394.23046875	2	health	foodImageDisplay	3	180	60	foodImage.99	FOODEEG_Images\0907.jpg	YN	Right	No	1.40354880003724	0	713847	252
1396.29296875	1.40354880003724	health	choicePhaseStart	3	180	60	foodImage.99	FOODEEG_Images\0907.jpg	YN	Right	No	1.40354880003724	0	714903	253
1397.6875	0	health	response	3	180	60	foodImage.99	FOODEEG_Images\0907.jpg	YN	Right	No	1.40354880003724	0	715617	235
1399.73046875	63.005859375	n/a	blockEnd	n/a	n/a	n/a	n/a	n/a	n/a	n/a	n/a	n/a	n/a	716663	254
1462.736328125	2	n/a	blockStart	4	n/a	n/a	n/a	n/a	n/a	n/a	n/a	n/a	n/a	748922	250
1464.767578125	1	health	trialStart	4	181	1	foodImage.20	FOODEEG_Images\0226.jpg	YN	Left	Yes	1.08300979994237	0	749962	251
1465.810546875	2	health	foodImageDisplay	4	181	1	foodImage.20	FOODEEG_Images\0226.jpg	YN	Left	Yes	1.08300979994237	0	750496	252
1467.873046875	1.08300979994237	health	choicePhaseStart	4	181	1	foodImage.20	FOODEEG_Images\0226.jpg	YN	Left	Yes	1.08300979994237	0	751552	253
1468.94921875	0	health	response	4	181	1	foodImage.20	FOODEEG_Images\0226.jpg	YN	Left	Yes	1.08300979994237	0	752103	234
1469.990234375	1	health	trialStart	4	182	2	foodImage.38	FOODEEG_Images\0365.jpg	NY	Right	Yes	0.967814499977976	0	752636	251
1471.029296875	2	health	foodImageDisplay	4	182	2	foodImage.38	FOODEEG_Images\0365.jpg	NY	Right	Yes	0.967814499977976	0	753168	252
1473.09375	0.967814499977976	health	choicePhaseStart	4	182	2	foodImage.38	FOODEEG_Images\0365.jpg	NY	Right	Yes	0.967814499977976	0	754225	253
1474.052734375	0	health	response	4	182	2	foodImage.38	FOODEEG_Images\0365.jpg	NY	Right	Yes	0.967814499977976	0	754716	235
1475.095703125	1	decision	trialStart	4	183	3	foodImage.73	FOODEEG_Images\0717.jpg	NY	Right	Yes	0.916305299964733	0	755250	251
1476.15234375	2	decision	foodImageDisplay	4	183	3	foodImage.73	FOODEEG_Images\0717.jpg	NY	Right	Yes	0.916305299964733	0	755791	252
1478.216796875	0.916305299964733	decision	choicePhaseStart	4	183	3	foodImage.73	FOODEEG_Images\0717.jpg	NY	Right	Yes	0.916305299964733	0	756848	253
1479.123046875	0	decision	response	4	183	3	foodImage.73	FOODEEG_Images\0717.jpg	NY	Right	Yes	0.916305299964733	0	757312	235
1480.16796875	1	taste	trialStart	4	184	4	foodImage.56	FOODEEG_Images\0586.jpg	YN	Left	Yes	1.02601020003203	0	757847	251
1481.2109375	2	taste	foodImageDisplay	4	184	4	foodImage.56	FOODEEG_Images\0586.jpg	YN	Left	Yes	1.02601020003203	0	758381	252
1483.275390625	1.02601020003203	taste	choicePhaseStart	4	184	4	foodImage.56	FOODEEG_Images\0586.jpg	YN	Left	Yes	1.02601020003203	0	759438	253
1484.291015625	0	taste	response	4	184	4	foodImage.56	FOODEEG_Images\0586.jpg	YN	Left	Yes	1.02601020003203	0	759958	234
1485.3359375	1	decision	trialStart	4	185	5	foodImage.81	FOODEEG_Images\0797.jpg	NY	Left	No	1.06832379999105	0	760493	251
1486.39453125	2	decision	foodImageDisplay	4	185	5	foodImage.81	FOODEEG_Images\0797.jpg	NY	Left	No	1.06832379999105	0	761035	252
1488.45703125	1.06832379999105	decision	choicePhaseStart	4	185	5	foodImage.81	FOODEEG_Images\0797.jpg	NY	Left	No	1.06832379999105	0	762091	253
1489.515625	0	decision	response	4	185	5	foodImage.81	FOODEEG_Images\0797.jpg	NY	Left	No	1.06832379999105	0	762633	234
1490.556640625	1	health	trialStart	4	186	6	foodImage.4	FOODEEG_Images\0065.jpg	YN	Left	Yes	1.65028570010327	0	763166	251
1491.611328125	2	health	foodImageDisplay	4	186	6	foodImage.4	FOODEEG_Images\0065.jpg	YN	Left	Yes	1.65028570010327	0	763706	252
1493.67578125	1.65028570010327	health	choicePhaseStart	4	186	6	foodImage.4	FOODEEG_Images\0065.jpg	YN	Left	Yes	1.65028570010327	0	764763	253
1495.314453125	0	health	response	4	186	6	foodImage.4	FOODEEG_Images\0065.jpg	YN	Left	Yes	1.65028570010327	0	765602	234
1496.357421875	1	health	trialStart	4	187	7	foodImage.27	FOODEEG_Images\0263.jpg	YN	Left	Yes	0.948304599965923	0	766136	251
1497.400390625	2	health	foodImageDisplay	4	187	7	foodImage.27	FOODEEG_Images\0263.jpg	YN	Left	Yes	0.948304599965923	0	766670	252
1499.46484375	0.948304599965923	health	choicePhaseStart	4	187	7	foodImage.27	FOODEEG_Images\0263.jpg	YN	Left	Yes	0.948304599965923	0	767727	253
1500.40234375	0	health	response	4	187	7	foodImage.27	FOODEEG_Images\0263.jpg	YN	Left	Yes	0.948304599965923	0	768207	234
1501.4453125	1	taste	trialStart	4	188	8	foodImage.88	FOODEEG_Images\0878.jpg	NY	Right	Yes	0.825648300000466	0	768741	251
1502.5	2	taste	foodImageDisplay	4	188	8	foodImage.88	FOODEEG_Images\0878.jpg	NY	Right	Yes	0.825648300000466	0	769281	252
1504.5625	0.825648300000466	taste	choicePhaseStart	4	188	8	foodImage.88	FOODEEG_Images\0878.jpg	NY	Right	Yes	0.825648300000466	0	770337	253
1505.37890625	0	taste	response	4	188	8	foodImage.88	FOODEEG_Images\0878.jpg	NY	Right	Yes	0.825648300000466	0	770755	235
1506.421875	1	taste	trialStart	4	189	9	foodImage.44	FOODEEG_Images\0459.jpg	YN	Left	Yes	0.887392799952067	0	771289	251
1507.484375	2	taste	foodImageDisplay	4	189	9	foodImage.44	FOODEEG_Images\0459.jpg	YN	Left	Yes	0.887392799952067	0	771833	252
1509.548828125	0.887392799952067	taste	choicePhaseStart	4	189	9	foodImage.44	FOODEEG_Images\0459.jpg	YN	Left	Yes	0.887392799952067	0	772890	253
1510.42578125	0	taste	response	4	189	9	foodImage.44	FOODEEG_Images\0459.jpg	YN	Left	Yes	0.887392799952067	0	773339	234
1511.474609375	1	taste	trialStart	4	190	10	foodImage.109	FOODEEG_Images\0917.jpg	YN	Right	No	0.763437199988402	0	773876	251
1512.513671875	2	taste	foodImageDisplay	4	190	10	foodImage.109	FOODEEG_Images\0917.jpg	YN	Right	No	0.763437199988402	0	774408	252
1514.576171875	0.763437199988402	taste	choicePhaseStart	4	190	10	foodImage.109	FOODEEG_Images\0917.jpg	YN	Right	No	0.763437199988402	0	775464	253
1515.330078125	0	taste	response	4	190	10	foodImage.109	FOODEEG_Images\0917.jpg	YN	Right	No	0.763437199988402	0	775850	235
1516.373046875	1	health	trialStart	4	191	11	foodImage.12	FOODEEG_Images\0181.jpg	NY	Right	Yes	2.03840510000009	0	776384	251
1517.416015625	2	health	foodImageDisplay	4	191	11	foodImage.12	FOODEEG_Images\0181.jpg	NY	Right	Yes	2.03840510000009	0	776918	252
1519.478515625	2.03840510000009	health	choicePhaseStart	4	191	11	foodImage.12	FOODEEG_Images\0181.jpg	NY	Right	Yes	2.03840510000009	0	777974	253
1521.505859375	0	health	response	4	191	11	foodImage.12	FOODEEG_Images\0181.jpg	NY	Right	Yes	2.03840510000009	0	779012	235
1522.548828125	1	health	trialStart	4	192	12	foodImage.77	FOODEEG_Images\0771.jpg	NY	Right	Yes	1.11632320005447	0	779546	251
1523.591796875	2	health	foodImageDisplay	4	192	12	foodImage.77	FOODEEG_Images\0771.jpg	NY	Right	Yes	1.11632320005447	0	780080	252
1525.654296875	1.11632320005447	health	choicePhaseStart	4	192	12	foodImage.77	FOODEEG_Images\0771.jpg	NY	Right	Yes	1.11632320005447	0	781136	253
1526.76171875	0	health	response	4	192	12	foodImage.77	FOODEEG_Images\0771.jpg	NY	Right	Yes	1.11632320005447	0	781703	235
1527.8046875	1	decision	trialStart	4	193	13	foodImage.79	FOODEEG_Images\0794.jpg	NY	Left	No	2.07852159999311	0	782237	251
1528.845703125	2	decision	foodImageDisplay	4	193	13	foodImage.79	FOODEEG_Images\0794.jpg	NY	Left	No	2.07852159999311	0	782770	252
1530.91015625	2.07852159999311	decision	choicePhaseStart	4	193	13	foodImage.79	FOODEEG_Images\0794.jpg	NY	Left	No	2.07852159999311	0	783827	253
1532.978515625	0	decision	response	4	193	13	foodImage.79	FOODEEG_Images\0794.jpg	NY	Left	No	2.07852159999311	0	784886	234
1534.021484375	1	health	trialStart	4	194	14	foodImage.68	FOODEEG_Images\0685.jpg	YN	Left	Yes	1.53459659998771	0	785420	251
1535.1015625	2	health	foodImageDisplay	4	194	14	foodImage.68	FOODEEG_Images\0685.jpg	YN	Left	Yes	1.53459659998771	0	785973	252
1537.1640625	1.53459659998771	health	choicePhaseStart	4	194	14	foodImage.68	FOODEEG_Images\0685.jpg	YN	Left	Yes	1.53459659998771	0	787029	253
