onset	duration	trial_type	event_type	block	trial_total	trial_in_block	food_image_code	food_image_path	button_position	resp_position	resp_choice	choice_rt	resp_too_slow	sample	trigger
296.611328125	2	n/a	blockStart	1	n/a	n/a	n/a	n/a	n/a	n/a	n/a	n/a	n/a	151866	250
298.6484375	1	taste	trialStart	1	1	1	foodImage.31	FOODEEG_Images\0294.jpg	NY	Right	Yes	0.75044150010217	0	152909	251
299.697265625	2	taste	foodImageDisplay	1	1	1	foodImage.31	FOODEEG_Images\0294.jpg	NY	Right	Yes	0.75044150010217	0	153446	252
301.76171875	0.75044150010217	taste	choicePhaseStart	1	1	1	foodImage.31	FOODEEG_Images\0294.jpg	NY	Right	Yes	0.75044150010217	0	154503	253
302.5078125	0	taste	response	1	1	1	foodImage.31	FOODEEG_Images\0294.jpg	NY	Right	Yes	0.75044150010217	0	154885	235
303.609375	1	health	trialStart	1	2	2	foodImage.23	FOODEEG_Images\0244.jpg	NY	Right	Yes	0.552271299995482	0	155449	251
304.65234375	2	health	foodImageDisplay	1	2	2	foodImage.23	FOODEEG_Images\0244.jpg	NY	Right	Yes	0.552271299995482	0	155983	252
306.71484375	0.552271299995482	health	choicePhaseStart	1	2	2	foodImage.23	FOODEEG_Images\0244.jpg	NY	Right	Yes	0.552271299995482	0	157039	253
307.2578125	0	health	response	1	2	2	foodImage.23	FOODEEG_Images\0244.jpg	NY	Right	Yes	0.552271299995482	0	157317	235
308.310546875	1	decision	trialStart	1	3	3	foodImage.44	FOODEEG_Images\0459.jpg	NY	Right	Yes	0.917770800064318	0	157856	251
309.359375	2	decision	foodImageDisplay	1	3	3	foodImage.44	FOODEEG_Images\0459.jpg	NY	Right	Yes	0.917770800064318	0	158393	252
311.421875	0.917770800064318	decision	choicePhaseStart	1	3	3	foodImage.44	FOODEEG_Images\0459.jpg	NY	Right	Yes	0.917770800064318	0	159449	253
312.330078125	0	decision	response	1	3	3	foodImage.44	FOODEEG_Images\0459.jpg	NY	Right	Yes	0.917770800064318	0	159914	235
313.376953125	1	taste	trialStart	1	4	4	foodImage.104	FOODEEG_Images\0912.jpg	NY	Left	No	0.685969299986027	0	160450	251
314.421875	2	taste	foodImageDisplay	1	4	4	foodImage.104	FOODEEG_Images\0912.jpg	NY	Left	No	0.685969299986027	0	160985	252
316.484375	0.685969299986027	taste	choicePhaseStart	1	4	4	foodImage.104	FOODEEG_Images\0912.jpg	NY	Left	No	0.685969299986027	0	162041	253
317.162109375	0	taste	response	1	4	4	foodImage.104	FOODEEG_Images\0912.jpg	NY	Left	No	0.685969299986027	0	162388	234
318.205078125	1	decision	trialStart	1	5	5	foodImage.110	FOODEEG_Images\0918.jpg	NY	Left	No	1.311814900022	0	162922	251
319.248046875	2	decision	foodImageDisplay	1	5	5	foodImage.110	FOODEEG_Images\0918.jpg	NY	Left	No	1.311814900022	0	163456	252
321.3125	1.311814900022	decision	choicePhaseStart	1	5	5	foodImage.110	FOODEEG_Images\0918.jpg	NY	Left	No	1.311814900022	0	164513	253
322.6171875	0	decision	response	1	5	5	foodImage.110	FOODEEG_Images\0918.jpg	NY	Left	No	1.311814900022	0	165181	234
323.66796875	1	taste	trialStart	1	6	6	foodImage.17	FOODEEG_Images\0199.jpg	NY	Left	No	1.05901159998029	0	165719	251
324.712890625	2	taste	foodImageDisplay	1	6	6	foodImage.17	FOODEEG_Images\0199.jpg	NY	Left	No	1.05901159998029	0	166254	252
326.775390625	1.05901159998029	taste	choicePhaseStart	1	6	6	foodImage.17	FOODEEG_Images\0199.jpg	NY	Left	No	1.05901159998029	0	167310	253
327.826171875	0	taste	response	1	6	6	foodImage.17	FOODEEG_Images\0199.jpg	NY	Left	No	1.05901159998029	0	167848	234
328.869140625	1	decision	trialStart	1	7	7	foodImage.4	FOODEEG_Images\0065.jpg	NY	Right	Yes	0.563582999981008	0	168382	251
329.927734375	2	decision	foodImageDisplay	1	7	7	foodImage.4	FOODEEG_Images\0065.jpg	NY	Right	Yes	0.563582999981008	0	168924	252
331.990234375	0.563582999981008	decision	choicePhaseStart	1	7	7	foodImage.4	FOODEEG_Images\0065.jpg	NY	Right	Yes	0.563582999981008	0	169980	253
332.544921875	0	decision	response	1	7	7	foodImage.4	FOODEEG_Images\0065.jpg	NY	Right	Yes	0.563582999981008	0	170264	235
333.595703125	1	taste	trialStart	1	8	8	foodImage.48	FOODEEG_Images\0494.jpg	NY	Right	Yes	0.909520599991083	0	170802	251
334.63671875	2	taste	foodImageDisplay	1	8	8	foodImage.48	FOODEEG_Images\0494.jpg	NY	Right	Yes	0.909520599991083	0	171335	252
336.701171875	0.909520599991083	taste	choicePhaseStart	1	8	8	foodImage.48	FOODEEG_Images\0494.jpg	NY	Right	Yes	0.909520599991083	0	172392	253
337.6015625	0	taste	response	1	8	8	foodImage.48	FOODEEG_Images\0494.jpg	NY	Right	Yes	0.909520599991083	0	172853	235
338.64453125	1	decision	trialStart	1	9	9	foodImage.89	FOODEEG_Images\0881.jpg	NY	Left	No	0.576567400014028	0	173387	251
339.69921875	2	decision	foodImageDisplay	1	9	9	foodImage.89	FOODEEG_Images\0881.jpg	NY	Left	No	0.576567400014028	0	173927	252
341.76171875	0.576567400014028	decision	choicePhaseStart	1	9	9	foodImage.89	FOODEEG_Images\0881.jpg	NY	Left	No	0.576567400014028	0	174983	253
342.330078125	0	decision	response	1	9	9	foodImage.89	FOODEEG_Images\0881.jpg	NY	Left	No	0.576567400014028	0	175274	234
343.369140625	1	health	trialStart	1	10	10	foodImage.118	FOODEEG_Images\0926.jpg	YN	Right	No	1.25371090008412	0	175806	251
344.40625	2	health	foodImageDisplay	1	10	10	foodImage.118	FOODEEG_Images\0926.jpg	YN	Right	No	1.25371090008412	0	176337	252
346.466796875	1.25371090008412	health	choicePhaseStart	1	10	10	foodImage.118	FOODEEG_Images\0926.jpg	YN	Right	No	1.25371090008412	0	177392	253
347.712890625	0	health	response	1	10	10	foodImage.118	FOODEEG_Images\0926.jpg	YN	Right	No	1.25371090008412	0	178030	235
348.75390625	1	taste	trialStart	1	11	11	foodImage.83	FOODEEG_Images\0827.jpg	YN	Left	Yes	0.778026400017552	0	178563	251
349.806640625	2	taste	foodImageDisplay	1	11	11	foodImage.83	FOODEEG_Images\0827.jpg	YN	Left	Yes	0.778026400017552	0	179102	252
351.87109375	0.778026400017552	taste	choicePhaseStart	1	11	11	foodImage.83	FOODEEG_Images\0827.jpg	YN	Left	Yes	0.778026400017552	0	180159	253
352.640625	0	taste	response	1	11	11	foodImage.83	FOODEEG_Images\0827.jpg	YN	Left	Yes	0.778026400017552	0	180553	234
353.681640625	1	health	trialStart	1	12	12	foodImage.29	FOODEEG_Images\0278.jpg	YN	Left	Yes	0.807713399990462	0	181086	251
354.72265625	2	health	foodImageDisplay	1	12	12	foodImage.29	FOODEEG_Images\0278.jpg	YN	Left	Yes	0.807713399990462	0	181619	252
356.78515625	0.807713399990462	health	choicePhaseStart	1	12	12	foodImage.29	FOODEEG_Images\0278.jpg	YN	Left	Yes	0.807713399990462	0	182675	253
357.583984375	0	health	response	1	12	12	foodImage.29	FOODEEG_Images\0278.jpg	YN	Left	Yes	0.807713399990462	0	183084	234
358.6328125	1	health	trialStart	1	13	13	foodImage.19	FOODEEG_Images\0225.jpg	YN	Left	Yes	0.660131799988449	0	183621	251
359.677734375	2	health	foodImageDisplay	1	13	13	foodImage.19	FOODEEG_Images\0225.jpg	YN	Left	Yes	0.660131799988449	0	184156	252
361.740234375	0.660131799988449	health	choicePhaseStart	1	13	13	foodImage.19	FOODEEG_Images\0225.jpg	YN	Left	Yes	0.660131799988449	0	185212	253
362.392578125	0	health	response	1	13	13	foodImage.19	FOODEEG_Images\0225.jpg	YN	Left	Yes	0.660131799988449	0	185546	234
363.43359375	1	taste	trialStart	1	14	14	foodImage.11	FOODEEG_Images\0180.jpg	YN	Left	Yes	1.00670809997246	0	186079	251
364.474609375	2	taste	foodImageDisplay	1	14	14	foodImage.11	FOODEEG_Images\0180.jpg	YN	Left	Yes	1.00670809997246	0	186612	252
366.537109375	1.00670809997246	taste	choicePhaseStart	1	14	14	foodImage.11	FOODEEG_Images\0180.jpg	YN	Left	Yes	1.00670809997246	0	187668	253
367.53515625	0	taste	response	1	14	14	foodImage.11	FOODEEG_Images\0180.jpg	YN	Left	Yes	1.00670809997246	0	188179	234
368.583984375	1	decision	trialStart	1	15	15	foodImage.67	FOODEEG_Images\0679.jpg	NY	Left	No	0.931266999919899	0	188716	251
369.638671875	2	decision	foodImageDisplay	1	15	15	foodImage.67	FOODEEG_Images\0679.jpg	NY	Left	No	0.931266999919899	0	189256	252
371.701171875	0.931266999919899	decision	choicePhaseStart	1	15	15	foodImage.67	FOODEEG_Images\0679.jpg	NY	Left	No	0.931266999919899	0	190312	253
372.623046875	0	decision	response	1	15	15	foodImage.67	FOODEEG_Images\0679.jpg	NY	Left	No	0.931266999919899	0	190784	234
373.671875	1	decision	trialStart	1	16	16	foodImage.100	FOODEEG_Images\0908.jpg	YN	Right	No	0.897779399994761	0	191321	251
374.7109375	2	decision	foodImageDisplay	1	16	16	foodImage.100	FOODEEG_Images\0908.jpg	YN	Right	No	0.897779399994761	0	191853	252
376.7734375	0.897779399994761	decision	choicePhaseStart	1	16	16	foodImage.100	FOODEEG_Images\0908.jpg	YN	Right	No	0.897779399994761	0	192909	253
377.6640625	0	decision	response	1	16	16	foodImage.100	FOODEEG_Images\0908.jpg	YN	Right	No	0.897779399994761	0	193365	235
378.7109375	1	decision	trialStart	1	17	17	foodImage.116	FOODEEG_Images\0924.jpg	YN	Right	No	0.670234899967909	0	193901	251
379.748046875	2	decision	foodImageDisplay	1	17	17	foodImage.116	FOODEEG_Images\0924.jpg	YN	Right	No	0.670234899967909	0	194432	252
381.810546875	0.670234899967909	decision	choicePhaseStart	1	17	17	foodImage.116	FOODEEG_Images\0924.jpg	YN	Right	No	0.670234899967909	0	195488	253
382.470703125	0	decision	response	1	17	17	foodImage.116	FOODEEG_Images\0924.jpg	YN	Right	No	0.670234899967909	0	195826	235
383.509765625	1	decision	trialStart	1	18	18	foodImage.118	FOODEEG_Images\0926.jpg	NY	Left	No	0.870083799934946	0	196358	251
384.546875	2	decision	foodImageDisplay	1	18	18	foodImage.118	FOODEEG_Images\0926.jpg	NY	Left	No	0.870083799934946	0	196889	252
386.609375	0.870083799934946	decision	choicePhaseStart	1	18	18	foodImage.118	FOODEEG_Images\0926.jpg	NY	Left	No	0.870083799934946	0	197945	253
387.470703125	0	decision	response	1	18	18	foodImage.118	FOODEEG_Images\0926.jpg	NY	Left	No	0.870083799934946	0	198386	234
388.513671875	1	health	trialStart	1	19	19	foodImage.1	FOODEEG_Images\0004.jpg	NY	Left	No	0.868053700076416	0	198920	251
389.556640625	2	health	foodImageDisplay	1	19	19	foodImage.1	FOODEEG_Images\0004.jpg	NY	Left	No	0.868053700076416	0	199454	252
391.619140625	0.868053700076416	health	choicePhaseStart	1	19	19	foodImage.1	FOODEEG_Images\0004.jpg	NY	Left	No	0.868053700076416	0	200510	253
392.478515625	0	health	response	1	19	19	foodImage.1	FOODEEG_Images\0004.jpg	NY	Left	No	0.868053700076416	0	200950	234
393.52734375	1	taste	trialStart	1	20	20	foodImage.6	FOODEEG_Images\0113.jpg	YN	Left	Yes	0.75387190002948	0	201487	251
394.568359375	2	taste	foodImageDisplay	1	20	20	foodImage.6	FOODEEG_Images\0113.jpg	YN	Left	Yes	0.75387190002948	0	202020	252
396.630859375	0.75387190002948	taste	choicePhaseStart	1	20	20	foodImage.6	FOODEEG_Images\0113.jpg	YN	Left	Yes	0.75387190002948	0	203076	253
397.375	0	taste	response	1	20	20	foodImage.6	FOODEEG_Images\0113.jpg	YN	Left	Yes	0.75387190002948	0	203457	234
398.4140625	1	decision	trialStart	1	21	21	foodImage.73	FOODEEG_Images\0717.jpg	NY	Right	Yes	0.813342900015414	0	203989	251
399.46875	2	decision	foodImageDisplay	1	21	21	foodImage.73	FOODEEG_Images\0717.jpg	NY	Right	Yes	0.813342900015414	0	204529	252
401.53125	0.813342900015414	decision	choicePhaseStart	1	21	21	foodImage.73	FOODEEG_Images\0717.jpg	NY	Right	Yes	0.813342900015414	0	205585	253
402.333984375	0	decision	response	1	21	21	foodImage.73	FOODEEG_Images\0717.jpg	NY	Right	Yes	0.813342900015414	0	205996	235
403.373046875	1	decision	trialStart	1	22	22	foodImage.10	FOODEEG_Images\0145.jpg	NY	Right	Yes	0.974959199898876	0	206528	251
404.42578125	2	decision	foodImageDisplay	1	22	22	foodImage.10	FOODEEG_Images\0145.jpg	NY	Right	Yes	0.974959199898876	0	207067	252
406.48828125	0.974959199898876	decision	choicePhaseStart	1	22	22	foodImage.10	FOODEEG_Images\0145.jpg	NY	Right	Yes	0.974959199898876	0	208123	253
407.455078125	0	decision	response	1	22	22	foodImage.10	FOODEEG_Images\0145.jpg	NY	Right	Yes	0.974959199898876	0	208618	235
408.494140625	1	health	trialStart	1	23	23	foodImage.7	FOODEEG_Images\0116.jpg	YN	Right	No	0.925134600023739	0	209150	251
409.533203125	2	health	foodImageDisplay	1	23	23	foodImage.7	FOODEEG_Images\0116.jpg	YN	Right	No	0.925134600023739	0	209682	252
411.595703125	0.925134600023739	health	choicePhaseStart	1	23	23	foodImage.7	FOODEEG_Images\0116.jpg	YN	Right	No	0.925134600023739	0	210738	253
412.509765625	0	health	response	1	23	23	foodImage.7	FOODEEG_Images\0116.jpg	YN	Right	No	0.925134600023739	0	211206	235
413.548828125	1	health	trialStart	1	24	24	foodImage.100	FOODEEG_Images\0908.jpg	YN	Left	Yes	1.02327999996487	0	211738	251
414.5859375	2	health	foodImageDisplay	1	24	24	foodImage.100	FOODEEG_Images\0908.jpg	YN	Left	Yes	1.02327999996487	0	212269	252
416.646484375	1.02327999996487	health	choicePhaseStart	1	24	24	foodImage.100	FOODEEG_Images\0908.jpg	YN	Left	Yes	1.02327999996487	0	213324	253
417.662109375	0	health	response	1	24	24	foodImage.100	FOODEEG_Images\0908.jpg	YN	Left	Yes	1.02327999996487	0	213844	234
418.701171875	1	decision	trialStart	1	25	25	foodImage.99	FOODEEG_Images\0907.jpg	NY	Right	Yes	1.56609530001879	0	214376	251
419.73828125	2	decision	foodImageDisplay	1	25	25	foodImage.99	FOODEEG_Images\0907.jpg	NY	Right	Yes	1.56609530001879	0	214907	252
421.80078125	1.56609530001879	decision	choicePhaseStart	1	25	25	foodImage.99	FOODEEG_Images\0907.jpg	NY	Right	Yes	1.56609530001879	0	215963	253
423.357421875	0	decision	response	1	25	25	foodImage.99	FOODEEG_Images\0907.jpg	NY	Right	Yes	1.56609530001879	0	216760	235
424.400390625	1	decision	trialStart	1	26	26	foodImage.2	FOODEEG_Images\0028.jpg	NY	Right	Yes	1.09321829990949	0	217294	251
425.44140625	2	decision	foodImageDisplay	1	26	26	foodImage.2	FOODEEG_Images\0028.jpg	NY	Right	Yes	1.09321829990949	0	217827	252
427.50390625	1.09321829990949	decision	choicePhaseStart	1	26	26	foodImage.2	FOODEEG_Images\0028.jpg	NY	Right	Yes	1.09321829990949	0	218883	253
428.58984375	0	decision	response	1	26	26	foodImage.2	FOODEEG_Images\0028.jpg	NY	Right	Yes	1.09321829990949	0	219439	235
429.63671875	1	taste	trialStart	1	27	27	foodImage.117	FOODEEG_Images\0925.jpg	YN	Right	No	0.805005599977449	0	219975	251
430.673828125	2	taste	foodImageDisplay	1	27	27	foodImage.117	FOODEEG_Images\0925.jpg	YN	Right	No	0.805005599977449	0	220506	252
432.736328125	0.805005599977449	taste	choicePhaseStart	1	27	27	foodImage.117	FOODEEG_Images\0925.jpg	YN	Right	No	0.805005599977449	0	221562	253
433.533203125	0	taste	response	1	27	27	foodImage.117	FOODEEG_Images\0925.jpg	YN	Right	No	0.805005599977449	0	221970	235
434.58203125	1	health	trialStart	1	28	28	foodImage.27	FOODEEG_Images\0263.jpg	NY	Right	Yes	1.2397737998981	0	222507	251
435.623046875	2	health	foodImageDisplay	1	28	28	foodImage.27	FOODEEG_Images\0263.jpg	NY	Right	Yes	1.2397737998981	0	223040	252
437.685546875	1.2397737998981	health	choicePhaseStart	1	28	28	foodImage.27	FOODEEG_Images\0263.jpg	NY	Right	Yes	1.2397737998981	0	224096	253
438.91796875	0	health	response	1	28	28	foodImage.27	FOODEEG_Images\0263.jpg	NY	Right	Yes	1.2397737998981	0	224727	235
439.96484375	1	taste	trialStart	1	29	29	foodImage.94	FOODEEG_Images\0902.jpg	NY	Left	No	0.66508479998447	0	225263	251
441.005859375	2	taste	foodImageDisplay	1	29	29	foodImage.94	FOODEEG_Images\0902.jpg	NY	Left	No	0.66508479998447	0	225796	252
443.068359375	0.66508479998447	taste	choicePhaseStart	1	29	29	foodImage.94	FOODEEG_Images\0902.jpg	NY	Left	No	0.66508479998447	0	226852	253
443.724609375	0	taste	response	1	29	29	foodImage.94	FOODEEG_Images\0902.jpg	NY	Left	No	0.66508479998447	0	227188	234
444.767578125	1	taste	trialStart	1	30	30	foodImage.47	FOODEEG_Images\0488.jpg	YN	Left	Yes	0.762193800066598	0	227722	251
445.8125	2	taste	foodImageDisplay	1	30	30	foodImage.47	FOODEEG_Images\0488.jpg	YN	Left	Yes	0.762193800066598	0	228257	252
447.875	0.762193800066598	taste	choicePhaseStart	1	30	30	foodImage.47	FOODEEG_Images\0488.jpg	YN	Left	Yes	0.762193800066598	0	229313	253
448.62890625	0	taste	response	1	30	30	foodImage.47	FOODEEG_Images\0488.jpg	YN	Left	Yes	0.762193800066598	0	229699	234
449.677734375	1	decision	trialStart	1	31	31	foodImage.103	FOODEEG_Images\0911.jpg	NY	Left	No	1.10053469997365	0	230236	251
450.71484375	2	decision	foodImageDisplay	1	31	31	foodImage.103	FOODEEG_Images\0911.jpg	NY	Left	No	1.10053469997365	0	230767	252
452.77734375	1.10053469997365	decision	choicePhaseStart	1	31	31	foodImage.103	FOODEEG_Images\0911.jpg	NY	Left	No	1.10053469997365	0	231823	253
453.869140625	0	decision	response	1	31	31	foodImage.103	FOODEEG_Images\0911.jpg	NY	Left	No	1.10053469997365	0	232382	234
454.916015625	1	decision	trialStart	1	32	32	foodImage.64	FOODEEG_Images\0647.jpg	NY	Right	Yes	0.743191999965347	0	232918	251
455.9765625	2	decision	foodImageDisplay	1	32	32	foodImage.64	FOODEEG_Images\0647.jpg	NY	Right	Yes	0.743191999965347	0	233461	252
458.0390625	0.743191999965347	decision	choicePhaseStart	1	32	32	foodImage.64	FOODEEG_Images\0647.jpg	NY	Right	Yes	0.743191999965347	0	234517	253
458.771484375	0	decision	response	1	32	32	foodImage.64	FOODEEG_Images\0647.jpg	NY	Right	Yes	0.743191999965347	0	234892	235
459.810546875	1	taste	trialStart	1	33	33	foodImage.84	FOODEEG_Images\0830.jpg	YN	Left	Yes	0.735176300047897	0	235424	251
460.865234375	2	taste	foodImageDisplay	1	33	33	foodImage.84	FOODEEG_Images\0830.jpg	YN	Left	Yes	0.735176300047897	0	235964	252
462.927734375	0.735176300047897	taste	choicePhaseStart	1	33	33	foodImage.84	FOODEEG_Images\0830.jpg	YN	Left	Yes	0.735176300047897	0	237020	253
463.65234375	0	taste	response	1	33	33	foodImage.84	FOODEEG_Images\0830.jpg	YN	Left	Yes	0.735176300047897	0	237391	234
464.69140625	1	health	trialStart	1	34	34	foodImage.18	FOODEEG_Images\0202.jpg	NY	Right	Yes	1.17546729999594	0	237923	251
465.744140625	2	health	foodImageDisplay	1	34	34	foodImage.18	FOODEEG_Images\0202.jpg	NY	Right	Yes	1.17546729999594	0	238462	252
467.806640625	1.17546729999594	health	choicePhaseStart	1	34	34	foodImage.18	FOODEEG_Images\0202.jpg	NY	Right	Yes	1.17546729999594	0	239518	253
468.97265625	0	health	response	1	34	34	foodImage.18	FOODEEG_Images\0202.jpg	NY	Right	Yes	1.17546729999594	0	240115	235
470.009765625	1	decision	trialStart	1	35	35	foodImage.84	FOODEEG_Images\0830.jpg	NY	Right	Yes	0.759701400063932	0	240646	251
471.064453125	2	decision	foodImageDisplay	1	35	35	foodImage.84	FOODEEG_Images\0830.jpg	NY	Right	Yes	0.759701400063932	0	241186	252
473.126953125	0.759701400063932	decision	choicePhaseStart	1	35	35	foodImage.84	FOODEEG_Images\0830.jpg	NY	Right	Yes	0.759701400063932	0	242242	253
473.875	0	decision	response	1	35	35	foodImage.84	FOODEEG_Images\0830.jpg	NY	Right	Yes	0.759701400063932	0	242625	235
474.9140625	1	health	trialStart	1	36	36	foodImage.48	FOODEEG_Images\0494.jpg	NY	Left	No	1.37267840001732	0	243157	251
475.955078125	2	health	foodImageDisplay	1	36	36	foodImage.48	FOODEEG_Images\0494.jpg	NY	Left	No	1.37267840001732	0	243690	252
478.015625	1.37267840001732	health	choicePhaseStart	1	36	36	foodImage.48	FOODEEG_Images\0494.jpg	NY	Left	No	1.37267840001732	0	244745	253
479.37890625	0	health	response	1	36	36	foodImage.48	FOODEEG_Images\0494.jpg	NY	Left	No	1.37267840001732	0	245443	234
480.41796875	1	taste	trialStart	1	37	37	foodImage.101	FOODEEG_Images\0909.jpg	NY	Left	No	0.799435699940659	0	245975	251
481.455078125	2	taste	foodImageDisplay	1	37	37	foodImage.101	FOODEEG_Images\0909.jpg	NY	Left	No	0.799435699940659	0	246506	252
483.517578125	0.799435699940659	taste	choicePhaseStart	1	37	37	foodImage.101	FOODEEG_Images\0909.jpg	NY	Left	No	0.799435699940659	0	247562	253
484.306640625	0	taste	response	1	37	37	foodImage.101	FOODEEG_Images\0909.jpg	NY	Left	No	0.799435699940659	0	247966	234
485.345703125	1	taste	trialStart	1	38	38	foodImage.90	FOODEEG_Images\0890.jpg	YN	Left	Yes	0.766293099964969	0	248498	251
486.400390625	2	taste	foodImageDisplay	1	38	38	foodImage.90	FOODEEG_Images\0890.jpg	YN	Left	Yes	0.766293099964969	0	249038	252
488.462890625	0.766293099964969	taste	choicePhaseStart	1	38	38	foodImage.90	FOODEEG_Images\0890.jpg	YN	Left	Yes	0.766293099964969	0	250094	253
489.21875	0	taste	response	1	38	38	foodImage.90	FOODEEG_Images\0890.jpg	YN	Left	Yes	0.766293099964969	0	250481	234
490.26171875	1	decision	trialStart	1	39	39	foodImage.39	FOODEEG_Images\0367.jpg	NY	Right	Yes	0.738226699992083	0	251015	251
491.298828125	2	decision	foodImageDisplay	1	39	39	foodImage.39	FOODEEG_Images\0367.jpg	NY	Right	Yes	0.738226699992083	0	251546	252
493.361328125	0.738226699992083	decision	choicePhaseStart	1	39	39	foodImage.39	FOODEEG_Images\0367.jpg	NY	Right	Yes	0.738226699992083	0	252602	253
494.08984375	0	decision	response	1	39	39	foodImage.39	FOODEEG_Images\0367.jpg	NY	Right	Yes	0.738226699992083	0	252975	235
495.138671875	1	taste	trialStart	1	40	40	foodImage.10	FOODEEG_Images\0145.jpg	NY	Right	Yes	0.799728499958292	0	253512	251
496.197265625	2	taste	foodImageDisplay	1	40	40	foodImage.10	FOODEEG_Images\0145.jpg	NY	Right	Yes	0.799728499958292	0	254054	252
498.259765625	0.799728499958292	taste	choicePhaseStart	1	40	40	foodImage.10	FOODEEG_Images\0145.jpg	NY	Right	Yes	0.799728499958292	0	255110	253
499.05078125	0	taste	response	1	40	40	foodImage.10	FOODEEG_Images\0145.jpg	NY	Right	Yes	0.799728499958292	0	255515	235
500.099609375	1	taste	trialStart	1	41	41	foodImage.35	FOODEEG_Images\0350.jpg	NY	Left	No	0.690742499893531	0	256052	251
501.138671875	2	taste	foodImageDisplay	1	41	41	foodImage.35	FOODEEG_Images\0350.jpg	NY	Left	No	0.690742499893531	0	256584	252
503.201171875	0.690742499893531	taste	choicePhaseStart	1	41	41	foodImage.35	FOODEEG_Images\0350.jpg	NY	Left	No	0.690742499893531	0	257640	253
503.8828125	0	taste	response	1	41	41	foodImage.35	FOODEEG_Images\0350.jpg	NY	Left	No	0.690742499893531	0	257989	234
504.927734375	1	taste	trialStart	1	42	42	foodImage.118	FOODEEG_Images\0926.jpg	NY	Left	No	0.585064300103113	0	258524	251
505.96484375	2	taste	foodImageDisplay	1	42	42	foodImage.118	FOODEEG_Images\0926.jpg	NY	Left	No	0.585064300103113	0	259055	252
508.033203125	0.585064300103113	taste	choicePhaseStart	1	42	42	foodImage.118	FOODEEG_Images\0926.jpg	NY	Left	No	0.585064300103113	0	260114	253
508.611328125	0	taste	response	1	42	42	foodImage.118	FOODEEG_Images\0926.jpg	NY	Left	No	0.585064300103113	0	260410	234
509.654296875	1	decision	trialStart	1	43	43	foodImage.6	FOODEEG_Images\0113.jpg	NY	Right	Yes	1.09502080001403	0	260944	251
510.701171875	2	decision	foodImageDisplay	1	43	43	foodImage.6	FOODEEG_Images\0113.jpg	NY	Right	Yes	1.09502080001403	0	261480	252
512.763671875	1.09502080001403	decision	choicePhaseStart	1	43	43	foodImage.6	FOODEEG_Images\0113.jpg	NY	Right	Yes	1.09502080001403	0	262536	253
513.849609375	0	decision	response	1	43	43	foodImage.6	FOODEEG_Images\0113.jpg	NY	Right	Yes	1.09502080001403	0	263092	235
514.896484375	1	taste	trialStart	1	44	44	foodImage.25	FOODEEG_Images\0261.jpg	YN	Right	No	1.00134519999847	0	263628	251
515.9375	2	taste	foodImageDisplay	1	44	44	foodImage.25	FOODEEG_Images\0261.jpg	YN	Right	No	1.00134519999847	0	264161	252
518	1.00134519999847	taste	choicePhaseStart	1	44	44	foodImage.25	FOODEEG_Images\0261.jpg	YN	Right	No	1.00134519999847	0	265217	253
518.994140625	0	taste	response	1	44	44	foodImage.25	FOODEEG_Images\0261.jpg	YN	Right	No	1.00134519999847	0	265726	235
520.041015625	1	health	trialStart	1	45	45	foodImage.13	FOODEEG_Images\0183.jpg	NY	Right	Yes	0.993702300009318	0	266262	251
521.08203125	2	health	foodImageDisplay	1	45	45	foodImage.13	FOODEEG_Images\0183.jpg	NY	Right	Yes	0.993702300009318	0	266795	252
523.14453125	0.993702300009318	health	choicePhaseStart	1	45	45	foodImage.13	FOODEEG_Images\0183.jpg	NY	Right	Yes	0.993702300009318	0	267851	253
524.12890625	0	health	response	1	45	45	foodImage.13	FOODEEG_Images\0183.jpg	NY	Right	Yes	0.993702300009318	0	268355	235
525.171875	1	decision	trialStart	1	46	46	foodImage.104	FOODEEG_Images\0912.jpg	NY	Left	No	0.57039959996473	0	268889	251
526.208984375	2	decision	foodImageDisplay	1	46	46	foodImage.104	FOODEEG_Images\0912.jpg	NY	Left	No	0.57039959996473	0	269420	252
528.271484375	0.57039959996473	decision	choicePhaseStart	1	46	46	foodImage.104	FOODEEG_Images\0912.jpg	NY	Left	No	0.57039959996473	0	270476	253
528.833984375	0	decision	response	1	46	46	foodImage.104	FOODEEG_Images\0912.jpg	NY	Left	No	0.57039959996473	0	270764	234
529.880859375	1	health	trialStart	1	47	47	foodImage.114	FOODEEG_Images\0922.jpg	YN	Left	Yes	0.981423199991696	0	271300	251
530.91796875	2	health	foodImageDisplay	1	47	47	foodImage.114	FOODEEG_Images\0922.jpg	YN	Left	Yes	0.981423199991696	0	271831	252
532.98046875	0.981423199991696	health	choicePhaseStart	1	47	47	foodImage.114	FOODEEG_Images\0922.jpg	YN	Left	Yes	0.981423199991696	0	272887	253
533.953125	0	health	response	1	47	47	foodImage.114	FOODEEG_Images\0922.jpg	YN	Left	Yes	0.981423199991696	0	273385	234
534.994140625	1	decision	trialStart	1	48	48	foodImage.98	FOODEEG_Images\0906.jpg	NY	Left	No	0.831772600067779	0	273918	251
536.044921875	2	decision	foodImageDisplay	1	48	48	foodImage.98	FOODEEG_Images\0906.jpg	NY	Left	No	0.831772600067779	0	274456	252
538.107421875	0.831772600067779	decision	choicePhaseStart	1	48	48	foodImage.98	FOODEEG_Images\0906.jpg	NY	Left	No	0.831772600067779	0	275512	253
538.9296875	0	decision	response	1	48	48	foodImage.98	FOODEEG_Images\0906.jpg	NY	Left	No	0.831772600067779	0	275933	234
539.970703125	1	decision	trialStart	1	49	49	foodImage.47	FOODEEG_Images\0488.jpg	YN	Left	Yes	0.774347599945031	0	276466	251
541.01171875	2	decision	foodImageDisplay	1	49	49	foodImage.47	FOODEEG_Images\0488.jpg	YN	Left	Yes	0.774347599945031	0	276999	252
543.07421875	0.774347599945031	decision	choicePhaseStart	1	49	49	foodImage.47	FOODEEG_Images\0488.jpg	YN	Left	Yes	0.774347599945031	0	278055	253
543.83984375	0	decision	response	1	49	49	foodImage.47	FOODEEG_Images\0488.jpg	YN	Left	Yes	0.774347599945031	0	278447	234
544.8828125	1	health	trialStart	1	50	50	foodImage.67	FOODEEG_Images\0679.jpg	YN	Left	Yes	0.789980900008231	0	278981	251
545.94140625	2	health	foodImageDisplay	1	50	50	foodImage.67	FOODEEG_Images\0679.jpg	YN	Left	Yes	0.789980900008231	0	279523	252
548.00390625	0.789980900008231	health	choicePhaseStart	1	50	50	foodImage.67	FOODEEG_Images\0679.jpg	YN	Left	Yes	0.789980900008231	0	280579	253
548.78515625	0	health	response	1	50	50	foodImage.67	FOODEEG_Images\0679.jpg	YN	Left	Yes	0.789980900008231	0	280979	234
549.828125	1	decision	trialStart	1	51	51	foodImage.87	FOODEEG_Images\0873.jpg	NY	Left	No	0.681015499983914	0	281513	251
550.888671875	2	decision	foodImageDisplay	1	51	51	foodImage.87	FOODEEG_Images\0873.jpg	NY	Left	No	0.681015499983914	0	282056	252
552.953125	0.681015499983914	decision	choicePhaseStart	1	51	51	foodImage.87	FOODEEG_Images\0873.jpg	NY	Left	No	0.681015499983914	0	283113	253
553.625	0	decision	response	1	51	51	foodImage.87	FOODEEG_Images\0873.jpg	NY	Left	No	0.681015499983914	0	283457	234
554.66796875	1	decision	trialStart	1	52	52	foodImage.25	FOODEEG_Images\0261.jpg	NY	Left	No	1.10889580007643	0	283991	251
555.708984375	2	decision	foodImageDisplay	1	52	52	foodImage.25	FOODEEG_Images\0261.jpg	NY	Left	No	1.10889580007643	0	284524	252
557.771484375	1.10889580007643	decision	choicePhaseStart	1	52	52	foodImage.25	FOODEEG_Images\0261.jpg	NY	Left	No	1.10889580007643	0	285580	253
558.873046875	0	decision	response	1	52	52	foodImage.25	FOODEEG_Images\0261.jpg	NY	Left	No	1.10889580007643	0	286144	234
559.9140625	1	decision	trialStart	1	53	53	foodImage.36	FOODEEG_Images\0352.jpg	YN	Left	Yes	0.648315099999309	0	286677	251
560.970703125	2	decision	foodImageDisplay	1	53	53	foodImage.36	FOODEEG_Images\0352.jpg	YN	Left	Yes	0.648315099999309	0	287218	252
563.033203125	0.648315099999309	decision	choicePhaseStart	1	53	53	foodImage.36	FOODEEG_Images\0352.jpg	YN	Left	Yes	0.648315099999309	0	288274	253
563.671875	0	decision	response	1	53	53	foodImage.36	FOODEEG_Images\0352.jpg	YN	Left	Yes	0.648315099999309	0	288601	234
564.71484375	1	decision	trialStart	1	54	54	foodImage.120	FOODEEG_Images\0928.jpg	NY	Left	No	1.05961819994263	0	289135	251
565.75390625	2	decision	foodImageDisplay	1	54	54	foodImage.120	FOODEEG_Images\0928.jpg	NY	Left	No	1.05961819994263	0	289667	252
567.822265625	1.05961819994263	decision	choicePhaseStart	1	54	54	foodImage.120	FOODEEG_Images\0928.jpg	NY	Left	No	1.05961819994263	0	290726	253
568.873046875	0	decision	response	1	54	54	foodImage.120	FOODEEG_Images\0928.jpg	NY	Left	No	1.05961819994263	0	291264	234
569.9140625	1	health	trialStart	1	55	55	foodImage.87	FOODEEG_Images\0873.jpg	NY	Right	Yes	0.985017700004391	0	291797	251
570.97265625	2	health	foodImageDisplay	1	55	55	foodImage.87	FOODEEG_Images\0873.jpg	NY	Right	Yes	0.985017700004391	0	292339	252
573.0390625	0.985017700004391	health	choicePhaseStart	1	55	55	foodImage.87	FOODEEG_Images\0873.jpg	NY	Right	Yes	0.985017700004391	0	293397	253
574.015625	0	health	response	1	55	55	foodImage.87	FOODEEG_Images\0873.jpg	NY	Right	Yes	0.985017700004391	0	293897	235
575.05859375	1	taste	trialStart	1	56	56	foodImage.56	FOODEEG_Images\0586.jpg	YN	Right	No	2.02046620007604	0	294431	251
576.109375	2	taste	foodImageDisplay	1	56	56	foodImage.56	FOODEEG_Images\0586.jpg	YN	Right	No	2.02046620007604	0	294969	252
578.171875	2.02046620007604	taste	choicePhaseStart	1	56	56	foodImage.56	FOODEEG_Images\0586.jpg	YN	Right	No	2.02046620007604	0	296025	253
580.18359375	0	taste	response	1	56	56	foodImage.56	FOODEEG_Images\0586.jpg	YN	Right	No	2.02046620007604	0	297055	235
581.23046875	1	health	trialStart	1	57	57	foodImage.120	FOODEEG_Images\0928.jpg	NY	Right	Yes	1.26150490005966	0	297591	251
582.267578125	2	health	foodImageDisplay	1	57	57	foodImage.120	FOODEEG_Images\0928.jpg	NY	Right	Yes	1.26150490005966	0	298122	252
584.330078125	1.26150490005966	health	choicePhaseStart	1	57	57	foodImage.120	FOODEEG_Images\0928.jpg	NY	Right	Yes	1.26150490005966	0	299178	253
585.583984375	0	health	response	1	57	57	foodImage.120	FOODEEG_Images\0928.jpg	NY	Right	Yes	1.26150490005966	0	299820	235
586.630859375	1	health	trialStart	1	58	58	foodImage.14	FOODEEG_Images\0188.jpg	NY	Left	No	0.817457600031048	0	300356	251
587.6875	2	health	foodImageDisplay	1	58	58	foodImage.14	FOODEEG_Images\0188.jpg	NY	Left	No	0.817457600031048	0	300897	252
589.75	0.817457600031048	health	choicePhaseStart	1	58	58	foodImage.14	FOODEEG_Images\0188.jpg	NY	Left	No	0.817457600031048	0	301953	253
590.55859375	0	health	response	1	58	58	foodImage.14	FOODEEG_Images\0188.jpg	NY	Left	No	0.817457600031048	0	302367	234
591.6015625	1	taste	trialStart	1	59	59	foodImage.113	FOODEEG_Images\0921.jpg	YN	Right	No	1.1144278999418	0	302901	251
592.646484375	2	taste	foodImageDisplay	1	59	59	foodImage.113	FOODEEG_Images\0921.jpg	YN	Right	No	1.1144278999418	0	303436	252
594.708984375	1.1144278999418	taste	choicePhaseStart	1	59	59	foodImage.113	FOODEEG_Images\0921.jpg	YN	Right	No	1.1144278999418	0	304492	253
595.814453125	0	taste	response	1	59	59	foodImage.113	FOODEEG_Images\0921.jpg	YN	Right	No	1.1144278999418	0	305058	235
596.857421875	1	health	trialStart	1	60	60	foodImage.70	FOODEEG_Images\0705.jpg	YN	Left	Yes	1.07901159999892	0	305592	251
597.9140625	2	health	foodImageDisplay	1	60	60	foodImage.70	FOODEEG_Images\0705.jpg	YN	Left	Yes	1.07901159999892	0	306133	252
599.9765625	1.07901159999892	health	choicePhaseStart	1	60	60	foodImage.70	FOODEEG_Images\0705.jpg	YN	Left	Yes	1.07901159999892	0	307189	253
601.046875	0	health	response	1	60	60	foodImage.70	FOODEEG_Images\0705.jpg	YN	Left	Yes	1.07901159999892	0	307737	234
603.087890625	11.53515625	n/a	blockEnd	n/a	n/a	n/a	n/a	n/a	n/a	n/a	n/a	n/a	n/a	308782	254
614.623046875	2	n/a	blockStart	2	n/a	n/a	n/a	n/a	n/a	n/a	n/a	n/a	n/a	314688	250
616.662109375	1	decision	trialStart	2	61	1	foodImage.26	FOODEEG_Images\0262.jpg	YN	Right	No	1.05444009997882	0	315732	251
617.705078125	2	decision	foodImageDisplay	2	61	1	foodImage.26	FOODEEG_Images\0262.jpg	YN	Right	No	1.05444009997882	0	316266	252
619.767578125	1.05444009997882	decision	choicePhaseStart	2	61	1	foodImage.26	FOODEEG_Images\0262.jpg	YN	Right	No	1.05444009997882	0	317322	253
620.814453125	0	decision	response	2	61	1	foodImage.26	FOODEEG_Images\0262.jpg	YN	Right	No	1.05444009997882	0	317858	235
621.857421875	1	decision	trialStart	2	62	2	foodImage.72	FOODEEG_Images\0714.jpg	YN	Left	Yes	0.588688699994236	0	318392	251
622.8984375	2	decision	foodImageDisplay	2	62	2	foodImage.72	FOODEEG_Images\0714.jpg	YN	Left	Yes	0.588688699994236	0	318925	252
624.962890625	0.588688699994236	decision	choicePhaseStart	2	62	2	foodImage.72	FOODEEG_Images\0714.jpg	YN	Left	Yes	0.588688699994236	0	319982	253
625.541015625	0	decision	response	2	62	2	foodImage.72	FOODEEG_Images\0714.jpg	YN	Left	Yes	0.588688699994236	0	320278	234
626.58984375	1	health	trialStart	2	63	3	foodImage.28	FOODEEG_Images\0273.jpg	NY	Right	Yes	0.89296289999038	0	320815	251
627.642578125	2	health	foodImageDisplay	2	63	3	foodImage.28	FOODEEG_Images\0273.jpg	NY	Right	Yes	0.89296289999038	0	321354	252
629.705078125	0.89296289999038	health	choicePhaseStart	2	63	3	foodImage.28	FOODEEG_Images\0273.jpg	NY	Right	Yes	0.89296289999038	0	322410	253
630.58984375	0	health	response	2	63	3	foodImage.28	FOODEEG_Images\0273.jpg	NY	Right	Yes	0.89296289999038	0	322863	235
631.638671875	1	decision	trialStart	2	64	4	foodImage.65	FOODEEG_Images\0658.jpg	YN	Left	Yes	0.552155899931677	0	323400	251
632.693359375	2	decision	foodImageDisplay	2	64	4	foodImage.65	FOODEEG_Images\0658.jpg	YN	Left	Yes	0.552155899931677	0	323940	252
634.7578125	0.552155899931677	decision	choicePhaseStart	2	64	4	foodImage.65	FOODEEG_Images\0658.jpg	YN	Left	Yes	0.552155899931677	0	324997	253
635.30078125	0	decision	response	2	64	4	foodImage.65	FOODEEG_Images\0658.jpg	YN	Left	Yes	0.552155899931677	0	325275	234
636.34375	1	decision	trialStart	2	65	5	foodImage.46	FOODEEG_Images\0479.jpg	NY	Left	No	0.877148000057787	0	325809	251
637.40234375	2	decision	foodImageDisplay	2	65	5	foodImage.46	FOODEEG_Images\0479.jpg	NY	Left	No	0.877148000057787	0	326351	252
639.46484375	0.877148000057787	decision	choicePhaseStart	2	65	5	foodImage.46	FOODEEG_Images\0479.jpg	NY	Left	No	0.877148000057787	0	327407	253
640.333984375	0	decision	response	2	65	5	foodImage.46	FOODEEG_Images\0479.jpg	NY	Left	No	0.877148000057787	0	327852	234
641.375	1	taste	trialStart	2	66	6	foodImage.40	FOODEEG_Images\0373.jpg	NY	Right	Yes	0.645399599918164	0	328385	251
642.41796875	2	taste	foodImageDisplay	2	66	6	foodImage.40	FOODEEG_Images\0373.jpg	NY	Right	Yes	0.645399599918164	0	328919	252
644.48046875	0.645399599918164	taste	choicePhaseStart	2	66	6	foodImage.40	FOODEEG_Images\0373.jpg	NY	Right	Yes	0.645399599918164	0	329975	253
645.1171875	0	taste	response	2	66	6	foodImage.40	FOODEEG_Images\0373.jpg	NY	Right	Yes	0.645399599918164	0	330301	235
646.16015625	1	decision	trialStart	2	67	7	foodImage.45	FOODEEG_Images\0478.jpg	NY	Right	Yes	0.706877299933694	0	330835	251
647.220703125	2	decision	foodImageDisplay	2	67	7	foodImage.45	FOODEEG_Images\0478.jpg	NY	Right	Yes	0.706877299933694	0	331378	252
649.283203125	0.706877299933694	decision	choicePhaseStart	2	67	7	foodImage.45	FOODEEG_Images\0478.jpg	NY	Right	Yes	0.706877299933694	0	332434	253
649.98046875	0	decision	response	2	67	7	foodImage.45	FOODEEG_Images\0478.jpg	NY	Right	Yes	0.706877299933694	0	332791	235
651.0234375	1	health	trialStart	2	68	8	foodImage.10	FOODEEG_Images\0145.jpg	NY	Right	Yes	0.758078899933025	0	333325	251
652.080078125	2	health	foodImageDisplay	2	68	8	foodImage.10	FOODEEG_Images\0145.jpg	NY	Right	Yes	0.758078899933025	0	333866	252
654.142578125	0.758078899933025	health	choicePhaseStart	2	68	8	foodImage.10	FOODEEG_Images\0145.jpg	NY	Right	Yes	0.758078899933025	0	334922	253
654.892578125	0	health	response	2	68	8	foodImage.10	FOODEEG_Images\0145.jpg	NY	Right	Yes	0.758078899933025	0	335306	235
655.935546875	1	taste	trialStart	2	69	9	foodImage.5	FOODEEG_Images\0107.jpg	NY	Right	Yes	0.786111299996264	0	335840	251
656.994140625	2	taste	foodImageDisplay	2	69	9	foodImage.5	FOODEEG_Images\0107.jpg	NY	Right	Yes	0.786111299996264	0	336382	252
659.05859375	0.786111299996264	taste	choicePhaseStart	2	69	9	foodImage.5	FOODEEG_Images\0107.jpg	NY	Right	Yes	0.786111299996264	0	337439	253
659.8359375	0	taste	response	2	69	9	foodImage.5	FOODEEG_Images\0107.jpg	NY	Right	Yes	0.786111299996264	0	337837	235
660.88671875	1	decision	trialStart	2	70	10	foodImage.80	FOODEEG_Images\0796.jpg	NY	Right	Yes	0.79227589990478	0	338375	251
661.943359375	2	decision	foodImageDisplay	2	70	10	foodImage.80	FOODEEG_Images\0796.jpg	NY	Right	Yes	0.79227589990478	0	338916	252
664.005859375	0.79227589990478	decision	choicePhaseStart	2	70	10	foodImage.80	FOODEEG_Images\0796.jpg	NY	Right	Yes	0.79227589990478	0	339972	253
664.7890625	0	decision	response	2	70	10	foodImage.80	FOODEEG_Images\0796.jpg	NY	Right	Yes	0.79227589990478	0	340373	235
665.83203125	1	health	trialStart	2	71	11	foodImage.89	FOODEEG_Images\0881.jpg	YN	Left	Yes	0.768552499939688	0	340907	251
666.88671875	2	health	foodImageDisplay	2	71	11	foodImage.89	FOODEEG_Images\0881.jpg	YN	Left	Yes	0.768552499939688	0	341447	252
668.94921875	0.768552499939688	health	choicePhaseStart	2	71	11	foodImage.89	FOODEEG_Images\0881.jpg	YN	Left	Yes	0.768552499939688	0	342503	253
669.708984375	0	health	response	2	71	11	foodImage.89	FOODEEG_Images\0881.jpg	YN	Left	Yes	0.768552499939688	0	342892	234
670.75	1	taste	trialStart	2	72	12	foodImage.43	FOODEEG_Images\0445.jpg	YN	Left	Yes	0.966464800061658	0	343425	251
671.806640625	2	taste	foodImageDisplay	2	72	12	foodImage.43	FOODEEG_Images\0445.jpg	YN	Left	Yes	0.966464800061658	0	343966	252
673.869140625	0.966464800061658	taste	choicePhaseStart	2	72	12	foodImage.43	FOODEEG_Images\0445.jpg	YN	Left	Yes	0.966464800061658	0	345022	253
674.828125	0	taste	response	2	72	12	foodImage.43	FOODEEG_Images\0445.jpg	YN	Left	Yes	0.966464800061658	0	345513	234
675.875	1	taste	trialStart	2	73	13	foodImage.76	FOODEEG_Images\0766.jpg	NY	Right	Yes	0.770703300018795	0	346049	251
676.923828125	2	taste	foodImageDisplay	2	73	13	foodImage.76	FOODEEG_Images\0766.jpg	NY	Right	Yes	0.770703300018795	0	346586	252
678.986328125	0.770703300018795	taste	choicePhaseStart	2	73	13	foodImage.76	FOODEEG_Images\0766.jpg	NY	Right	Yes	0.770703300018795	0	347642	253
679.748046875	0	taste	response	2	73	13	foodImage.76	FOODEEG_Images\0766.jpg	NY	Right	Yes	0.770703300018795	0	348032	235
680.794921875	1	decision	trialStart	2	74	14	foodImage.21	FOODEEG_Images\0234.jpg	NY	Right	Yes	0.845449999906123	0	348568	251
681.865234375	2	decision	foodImageDisplay	2	74	14	foodImage.21	FOODEEG_Images\0234.jpg	NY	Right	Yes	0.845449999906123	0	349116	252
683.927734375	0.845449999906123	decision	choicePhaseStart	2	74	14	foodImage.21	FOODEEG_Images\0234.jpg	NY	Right	Yes	0.845449999906123	0	350172	253
684.763671875	0	decision	response	2	74	14	foodImage.21	FOODEEG_Images\0234.jpg	NY	Right	Yes	0.845449999906123	0	350600	235
685.8046875	1	health	trialStart	2	75	15	foodImage.38	FOODEEG_Images\0365.jpg	YN	Left	Yes	0.793614599970169	0	351133	251
686.841796875	2	health	foodImageDisplay	2	75	15	foodImage.38	FOODEEG_Images\0365.jpg	YN	Left	Yes	0.793614599970169	0	351664	252
688.904296875	0.793614599970169	health	choicePhaseStart	2	75	15	foodImage.38	FOODEEG_Images\0365.jpg	YN	Left	Yes	0.793614599970169	0	352720	253
689.69140625	0	health	response	2	75	15	foodImage.38	FOODEEG_Images\0365.jpg	YN	Left	Yes	0.793614599970169	0	353123	234
690.732421875	1	taste	trialStart	2	76	16	foodImage.23	FOODEEG_Images\0244.jpg	NY	Left	No	1.18332730000839	0	353656	251
691.7734375	2	taste	foodImageDisplay	2	76	16	foodImage.23	FOODEEG_Images\0244.jpg	NY	Left	No	1.18332730000839	0	354189	252
693.8359375	1.18332730000839	taste	choicePhaseStart	2	76	16	foodImage.23	FOODEEG_Images\0244.jpg	NY	Left	No	1.18332730000839	0	355245	253
695.01171875	0	taste	response	2	76	16	foodImage.23	FOODEEG_Images\0244.jpg	NY	Left	No	1.18332730000839	0	355847	234
696.0625	1	health	trialStart	2	77	17	foodImage.45	FOODEEG_Images\0478.jpg	NY	Right	Yes	0.752842199988663	0	356385	251
697.107421875	2	health	foodImageDisplay	2	77	17	foodImage.45	FOODEEG_Images\0478.jpg	NY	Right	Yes	0.752842199988663	0	356920	252
699.169921875	0.752842199988663	health	choicePhaseStart	2	77	17	foodImage.45	FOODEEG_Images\0478.jpg	NY	Right	Yes	0.752842199988663	0	357976	253
699.9140625	0	health	response	2	77	17	foodImage.45	FOODEEG_Images\0478.jpg	NY	Right	Yes	0.752842199988663	0	358357	235
700.95703125	1	decision	trialStart	2	78	18	foodImage.30	FOODEEG_Images\0282.jpg	YN	Left	Yes	0.607756800018251	0	358891	251
702.00390625	2	decision	foodImageDisplay	2	78	18	foodImage.30	FOODEEG_Images\0282.jpg	YN	Left	Yes	0.607756800018251	0	359427	252
704.06640625	0.607756800018251	decision	choicePhaseStart	2	78	18	foodImage.30	FOODEEG_Images\0282.jpg	YN	Left	Yes	0.607756800018251	0	360483	253
704.666015625	0	decision	response	2	78	18	foodImage.30	FOODEEG_Images\0282.jpg	YN	Left	Yes	0.607756800018251	0	360790	234
705.708984375	1	taste	trialStart	2	79	19	foodImage.32	FOODEEG_Images\0319.jpg	YN	Left	Yes	0.811661599902436	0	361324	251
706.75390625	2	taste	foodImageDisplay	2	79	19	foodImage.32	FOODEEG_Images\0319.jpg	YN	Left	Yes	0.811661599902436	0	361859	252
708.81640625	0.811661599902436	taste	choicePhaseStart	2	79	19	foodImage.32	FOODEEG_Images\0319.jpg	YN	Left	Yes	0.811661599902436	0	362915	253
709.619140625	0	taste	response	2	79	19	foodImage.32	FOODEEG_Images\0319.jpg	YN	Left	Yes	0.811661599902436	0	363326	234
710.66796875	1	taste	trialStart	2	80	20	foodImage.27	FOODEEG_Images\0263.jpg	NY	Left	No	1.15277549996972	0	363863	251
711.7109375	2	taste	foodImageDisplay	2	80	20	foodImage.27	FOODEEG_Images\0263.jpg	NY	Left	No	1.15277549996972	0	364397	252
713.77734375	1.15277549996972	taste	choicePhaseStart	2	80	20	foodImage.27	FOODEEG_Images\0263.jpg	NY	Left	No	1.15277549996972	0	365455	253
714.921875	0	taste	response	2	80	20	foodImage.27	FOODEEG_Images\0263.jpg	NY	Left	No	1.15277549996972	0	366041	234
715.970703125	1	health	trialStart	2	81	21	foodImage.97	FOODEEG_Images\0905.jpg	NY	Left	No	1.19607170007657	0	366578	251
717.0078125	2	health	foodImageDisplay	2	81	21	foodImage.97	FOODEEG_Images\0905.jpg	NY	Left	No	1.19607170007657	0	367109	252
719.0703125	1.19607170007657	health	choicePhaseStart	2	81	21	foodImage.97	FOODEEG_Images\0905.jpg	NY	Left	No	1.19607170007657	0	368165	253
720.2578125	0	health	response	2	81	21	foodImage.97	FOODEEG_Images\0905.jpg	NY	Left	No	1.19607170007657	0	368773	234
721.30078125	1	health	trialStart	2	82	22	foodImage.63	FOODEEG_Images\0645.jpg	YN	Left	Yes	0.679518400109373	0	369307	251
722.341796875	2	health	foodImageDisplay	2	82	22	foodImage.63	FOODEEG_Images\0645.jpg	YN	Left	Yes	0.679518400109373	0	369840	252
724.404296875	0.679518400109373	health	choicePhaseStart	2	82	22	foodImage.63	FOODEEG_Images\0645.jpg	YN	Left	Yes	0.679518400109373	0	370896	253
725.07421875	0	health	response	2	82	22	foodImage.63	FOODEEG_Images\0645.jpg	YN	Left	Yes	0.679518400109373	0	371239	234
726.12109375	1	health	trialStart	2	83	23	foodImage.44	FOODEEG_Images\0459.jpg	YN	Left	Yes	0.696590000065044	0	371775	251
727.171875	2	health	foodImageDisplay	2	83	23	foodImage.44	FOODEEG_Images\0459.jpg	YN	Left	Yes	0.696590000065044	0	372313	252
729.234375	0.696590000065044	health	choicePhaseStart	2	83	23	foodImage.44	FOODEEG_Images\0459.jpg	YN	Left	Yes	0.696590000065044	0	373369	253
729.921875	0	health	response	2	83	23	foodImage.44	FOODEEG_Images\0459.jpg	YN	Left	Yes	0.696590000065044	0	373721	234
730.96875	1	health	trialStart	2	84	24	foodImage.115	FOODEEG_Images\0923.jpg	NY	Right	Yes	0.982562000048347	0	374257	251
732.005859375	2	health	foodImageDisplay	2	84	24	foodImage.115	FOODEEG_Images\0923.jpg	NY	Right	Yes	0.982562000048347	0	374788	252
734.068359375	0.982562000048347	health	choicePhaseStart	2	84	24	foodImage.115	FOODEEG_Images\0923.jpg	NY	Right	Yes	0.982562000048347	0	375844	253
735.041015625	0	health	response	2	84	24	foodImage.115	FOODEEG_Images\0923.jpg	NY	Right	Yes	0.982562000048347	0	376342	235
736.083984375	1	decision	trialStart	2	85	25	foodImage.78	FOODEEG_Images\0787.jpg	NY	Left	No	1.63683600001968	0	376876	251
737.126953125	2	decision	foodImageDisplay	2	85	25	foodImage.78	FOODEEG_Images\0787.jpg	NY	Left	No	1.63683600001968	0	377410	252
739.189453125	1.63683600001968	decision	choicePhaseStart	2	85	25	foodImage.78	FOODEEG_Images\0787.jpg	NY	Left	No	1.63683600001968	0	378466	253
740.81640625	0	decision	response	2	85	25	foodImage.78	FOODEEG_Images\0787.jpg	NY	Left	No	1.63683600001968	0	379299	234
741.859375	1	taste	trialStart	2	86	26	foodImage.33	FOODEEG_Images\0329.jpg	NY	Right	Yes	0.870474499999546	0	379833	251
742.90234375	2	taste	foodImageDisplay	2	86	26	foodImage.33	FOODEEG_Images\0329.jpg	NY	Right	Yes	0.870474499999546	0	380367	252
744.96484375	0.870474499999546	taste	choicePhaseStart	2	86	26	foodImage.33	FOODEEG_Images\0329.jpg	NY	Right	Yes	0.870474499999546	0	381423	253
745.82421875	0	taste	response	2	86	26	foodImage.33	FOODEEG_Images\0329.jpg	NY	Right	Yes	0.870474499999546	0	381863	235
746.869140625	1	health	trialStart	2	87	27	foodImage.102	FOODEEG_Images\0910.jpg	YN	Left	Yes	0.766523099970073	0	382398	251
747.90625	2	health	foodImageDisplay	2	87	27	foodImage.102	FOODEEG_Images\0910.jpg	YN	Left	Yes	0.766523099970073	0	382929	252
749.96875	0.766523099970073	health	choicePhaseStart	2	87	27	foodImage.102	FOODEEG_Images\0910.jpg	YN	Left	Yes	0.766523099970073	0	383985	253
750.728515625	0	health	response	2	87	27	foodImage.102	FOODEEG_Images\0910.jpg	YN	Left	Yes	0.766523099970073	0	384374	234
751.771484375	1	health	trialStart	2	88	28	foodImage.52	FOODEEG_Images\0539.jpg	YN	Left	Yes	0.707632899982855	0	384908	251
752.830078125	2	health	foodImageDisplay	2	88	28	foodImage.52	FOODEEG_Images\0539.jpg	YN	Left	Yes	0.707632899982855	0	385450	252
754.892578125	0.707632899982855	health	choicePhaseStart	2	88	28	foodImage.52	FOODEEG_Images\0539.jpg	YN	Left	Yes	0.707632899982855	0	386506	253
755.591796875	0	health	response	2	88	28	foodImage.52	FOODEEG_Images\0539.jpg	YN	Left	Yes	0.707632899982855	0	386864	234
756.634765625	1	taste	trialStart	2	89	29	foodImage.7	FOODEEG_Images\0116.jpg	YN	Left	Yes	0.624932699953206	0	387398	251
757.681640625	2	taste	foodImageDisplay	2	89	29	foodImage.7	FOODEEG_Images\0116.jpg	YN	Left	Yes	0.624932699953206	0	387934	252
759.744140625	0.624932699953206	taste	choicePhaseStart	2	89	29	foodImage.7	FOODEEG_Images\0116.jpg	YN	Left	Yes	0.624932699953206	0	388990	253
760.361328125	0	taste	response	2	89	29	foodImage.7	FOODEEG_Images\0116.jpg	YN	Left	Yes	0.624932699953206	0	389306	234
761.42578125	1	health	trialStart	2	90	30	foodImage.79	FOODEEG_Images\0794.jpg	NY	Right	Yes	0.777617799933068	0	389851	251
762.474609375	2	health	foodImageDisplay	2	90	30	foodImage.79	FOODEEG_Images\0794.jpg	NY	Right	Yes	0.777617799933068	0	390388	252
764.537109375	0.777617799933068	health	choicePhaseStart	2	90	30	foodImage.79	FOODEEG_Images\0794.jpg	NY	Right	Yes	0.777617799933068	0	391444	253
765.3046875	0	health	response	2	90	30	foodImage.79	FOODEEG_Images\0794.jpg	NY	Right	Yes	0.777617799933068	0	391837	235
766.345703125	1	health	trialStart	2	91	31	foodImage.107	FOODEEG_Images\0915.jpg	YN	Left	Yes	1.15528149995953	0	392370	251
767.390625	2	health	foodImageDisplay	2	91	31	foodImage.107	FOODEEG_Images\0915.jpg	YN	Left	Yes	1.15528149995953	0	392905	252
769.453125	1.15528149995953	health	choicePhaseStart	2	91	31	foodImage.107	FOODEEG_Images\0915.jpg	YN	Left	Yes	1.15528149995953	0	393961	253
770.599609375	0	health	response	2	91	31	foodImage.107	FOODEEG_Images\0915.jpg	YN	Left	Yes	1.15528149995953	0	394548	234
771.642578125	1	health	trialStart	2	92	32	foodImage.64	FOODEEG_Images\0647.jpg	YN	Left	Yes	0.796697999932803	0	395082	251
772.701171875	2	health	foodImageDisplay	2	92	32	foodImage.64	FOODEEG_Images\0647.jpg	YN	Left	Yes	0.796697999932803	0	395624	252
774.763671875	0.796697999932803	health	choicePhaseStart	2	92	32	foodImage.64	FOODEEG_Images\0647.jpg	YN	Left	Yes	0.796697999932803	0	396680	253
775.552734375	0	health	response	2	92	32	foodImage.64	FOODEEG_Images\0647.jpg	YN	Left	Yes	0.796697999932803	0	397084	234
776.59375	1	taste	trialStart	2	93	33	foodImage.9	FOODEEG_Images\0138.jpg	NY	Right	Yes	0.648150600027293	0	397617	251
777.650390625	2	taste	foodImageDisplay	2	93	33	foodImage.9	FOODEEG_Images\0138.jpg	NY	Right	Yes	0.648150600027293	0	398158	252
779.712890625	0.648150600027293	taste	choicePhaseStart	2	93	33	foodImage.9	FOODEEG_Images\0138.jpg	NY	Right	Yes	0.648150600027293	0	399214	253
780.3515625	0	taste	response	2	93	33	foodImage.9	FOODEEG_Images\0138.jpg	NY	Right	Yes	0.648150600027293	0	399541	235
781.400390625	1	taste	trialStart	2	94	34	foodImage.115	FOODEEG_Images\0923.jpg	YN	Right	No	0.771831899997778	0	400078	251
782.4375	2	taste	foodImageDisplay	2	94	34	foodImage.115	FOODEEG_Images\0923.jpg	YN	Right	No	0.771831899997778	0	400609	252
784.5	0.771831899997778	taste	choicePhaseStart	2	94	34	foodImage.115	FOODEEG_Images\0923.jpg	YN	Right	No	0.771831899997778	0	401665	253
785.263671875	0	taste	response	2	94	34	foodImage.115	FOODEEG_Images\0923.jpg	YN	Right	No	0.771831899997778	0	402056	235
786.306640625	1	decision	trialStart	2	95	35	foodImage.119	FOODEEG_Images\0927.jpg	NY	Left	No	0.894705999991857	0	402590	251
787.345703125	2	decision	foodImageDisplay	2	95	35	foodImage.119	FOODEEG_Images\0927.jpg	NY	Left	No	0.894705999991857	0	403122	252
789.408203125	0.894705999991857	decision	choicePhaseStart	2	95	35	foodImage.119	FOODEEG_Images\0927.jpg	NY	Left	No	0.894705999991857	0	404178	253
790.294921875	0	decision	response	2	95	35	foodImage.119	FOODEEG_Images\0927.jpg	NY	Left	No	0.894705999991857	0	404632	234
791.337890625	1	taste	trialStart	2	96	36	foodImage.74	FOODEEG_Images\0752.jpg	YN	Left	Yes	0.619995899964124	0	405166	251
792.38671875	2	taste	foodImageDisplay	2	96	36	foodImage.74	FOODEEG_Images\0752.jpg	YN	Left	Yes	0.619995899964124	0	405703	252
794.451171875	0.619995899964124	taste	choicePhaseStart	2	96	36	foodImage.74	FOODEEG_Images\0752.jpg	YN	Left	Yes	0.619995899964124	0	406760	253
795.0625	0	taste	response	2	96	36	foodImage.74	FOODEEG_Images\0752.jpg	YN	Left	Yes	0.619995899964124	0	407073	234
796.10546875	1	health	trialStart	2	97	37	foodImage.43	FOODEEG_Images\0445.jpg	NY	Right	Yes	2.35507219994906	0	407607	251
797.171875	2	health	foodImageDisplay	2	97	37	foodImage.43	FOODEEG_Images\0445.jpg	NY	Right	Yes	2.35507219994906	0	408153	252
799.234375	2.35507219994906	health	choicePhaseStart	2	97	37	foodImage.43	FOODEEG_Images\0445.jpg	NY	Right	Yes	2.35507219994906	0	409209	253
801.58203125	0	health	response	2	97	37	foodImage.43	FOODEEG_Images\0445.jpg	NY	Right	Yes	2.35507219994906	0	410411	235
802.6328125	1	health	trialStart	2	98	38	foodImage.54	FOODEEG_Images\0560.jpg	NY	Right	Yes	0.718865900067613	0	410949	251
803.689453125	2	health	foodImageDisplay	2	98	38	foodImage.54	FOODEEG_Images\0560.jpg	NY	Right	Yes	0.718865900067613	0	411490	252
805.751953125	0.718865900067613	health	choicePhaseStart	2	98	38	foodImage.54	FOODEEG_Images\0560.jpg	NY	Right	Yes	0.718865900067613	0	412546	253
806.462890625	0	health	response	2	98	38	foodImage.54	FOODEEG_Images\0560.jpg	NY	Right	Yes	0.718865900067613	0	412910	235
807.50390625	1	decision	trialStart	2	99	39	foodImage.81	FOODEEG_Images\0797.jpg	YN	Right	No	1.29881589999422	0	413443	251
808.55859375	2	decision	foodImageDisplay	2	99	39	foodImage.81	FOODEEG_Images\0797.jpg	YN	Right	No	1.29881589999422	0	413983	252
810.62109375	1.29881589999422	decision	choicePhaseStart	2	99	39	foodImage.81	FOODEEG_Images\0797.jpg	YN	Right	No	1.29881589999422	0	415039	253
811.91015625	0	decision	response	2	99	39	foodImage.81	FOODEEG_Images\0797.jpg	YN	Right	No	1.29881589999422	0	415699	235
812.955078125	1	health	trialStart	2	100	40	foodImage.40	FOODEEG_Images\0373.jpg	NY	Left	No	1.17955960007384	0	416234	251
813.99609375	2	health	foodImageDisplay	2	100	40	foodImage.40	FOODEEG_Images\0373.jpg	NY	Left	No	1.17955960007384	0	416767	252
816.05859375	1.17955960007384	health	choicePhaseStart	2	100	40	foodImage.40	FOODEEG_Images\0373.jpg	NY	Left	No	1.17955960007384	0	417823	253
817.23046875	0	health	response	2	100	40	foodImage.40	FOODEEG_Images\0373.jpg	NY	Left	No	1.17955960007384	0	418423	234
818.2734375	1	health	trialStart	2	101	41	foodImage.22	FOODEEG_Images\0236.jpg	NY	Right	Yes	1.19443090003915	0	418957	251
819.314453125	2	health	foodImageDisplay	2	101	41	foodImage.22	FOODEEG_Images\0236.jpg	NY	Right	Yes	1.19443090003915	0	419490	252
821.380859375	1.19443090003915	health	choicePhaseStart	2	101	41	foodImage.22	FOODEEG_Images\0236.jpg	NY	Right	Yes	1.19443090003915	0	420548	253
822.56640625	0	health	response	2	101	41	foodImage.22	FOODEEG_Images\0236.jpg	NY	Right	Yes	1.19443090003915	0	421155	235
823.61328125	1	decision	trialStart	2	102	42	foodImage.7	FOODEEG_Images\0116.jpg	YN	Left	Yes	0.792279999936	0	421691	251
824.65625	2	decision	foodImageDisplay	2	102	42	foodImage.7	FOODEEG_Images\0116.jpg	YN	Left	Yes	0.792279999936	0	422225	252
826.71875	0.792279999936	decision	choicePhaseStart	2	102	42	foodImage.7	FOODEEG_Images\0116.jpg	YN	Left	Yes	0.792279999936	0	423281	253
827.501953125	0	decision	response	2	102	42	foodImage.7	FOODEEG_Images\0116.jpg	YN	Left	Yes	0.792279999936	0	423682	234
828.544921875	1	decision	trialStart	2	103	43	foodImage.56	FOODEEG_Images\0586.jpg	NY	Right	Yes	0.731372599955648	0	424216	251
829.587890625	2	decision	foodImageDisplay	2	103	43	foodImage.56	FOODEEG_Images\0586.jpg	NY	Right	Yes	0.731372599955648	0	424750	252
831.650390625	0.731372599955648	decision	choicePhaseStart	2	103	43	foodImage.56	FOODEEG_Images\0586.jpg	NY	Right	Yes	0.731372599955648	0	425806	253
832.373046875	0	decision	response	2	103	43	foodImage.56	FOODEEG_Images\0586.jpg	NY	Right	Yes	0.731372599955648	0	426176	235
833.416015625	1	taste	trialStart	2	104	44	foodImage.66	FOODEEG_Images\0676.jpg	YN	Left	Yes	0.783299900009297	0	426710	251
834.45703125	2	taste	foodImageDisplay	2	104	44	foodImage.66	FOODEEG_Images\0676.jpg	YN	Left	Yes	0.783299900009297	0	427243	252
836.51953125	0.783299900009297	taste	choicePhaseStart	2	104	44	foodImage.66	FOODEEG_Images\0676.jpg	YN	Left	Yes	0.783299900009297	0	428299	253
837.294921875	0	taste	response	2	104	44	foodImage.66	FOODEEG_Images\0676.jpg	YN	Left	Yes	0.783299900009297	0	428696	234
838.3359375	1	taste	trialStart	2	105	45	foodImage.103	FOODEEG_Images\0911.jpg	NY	Left	No	0.834288600017317	0	429229	251
839.373046875	2	taste	foodImageDisplay	2	105	45	foodImage.103	FOODEEG_Images\0911.jpg	NY	Left	No	0.834288600017317	0	429760	252
841.435546875	0.834288600017317	taste	choicePhaseStart	2	105	45	foodImage.103	FOODEEG_Images\0911.jpg	NY	Left	No	0.834288600017317	0	430816	253
842.26171875	0	taste	response	2	105	45	foodImage.103	FOODEEG_Images\0911.jpg	NY	Left	No	0.834288600017317	0	431239	234
843.302734375	1	decision	trialStart	2	106	46	foodImage.85	FOODEEG_Images\0841.jpg	NY	Left	No	0.65021989995148	0	431772	251
844.357421875	2	decision	foodImageDisplay	2	106	46	foodImage.85	FOODEEG_Images\0841.jpg	NY	Left	No	0.65021989995148	0	432312	252
846.419921875	0.65021989995148	decision	choicePhaseStart	2	106	46	foodImage.85	FOODEEG_Images\0841.jpg	NY	Left	No	0.65021989995148	0	433368	253
847.060546875	0	decision	response	2	106	46	foodImage.85	FOODEEG_Images\0841.jpg	NY	Left	No	0.65021989995148	0	433696	234
848.10546875	1	taste	trialStart	2	107	47	foodImage.53	FOODEEG_Images\0547.jpg	YN	Left	Yes	0.714714500005357	0	434231	251
849.1640625	2	taste	foodImageDisplay	2	107	47	foodImage.53	FOODEEG_Images\0547.jpg	YN	Left	Yes	0.714714500005357	0	434773	252
851.2265625	0.714714500005357	taste	choicePhaseStart	2	107	47	foodImage.53	FOODEEG_Images\0547.jpg	YN	Left	Yes	0.714714500005357	0	435829	253
851.93359375	0	taste	response	2	107	47	foodImage.53	FOODEEG_Images\0547.jpg	YN	Left	Yes	0.714714500005357	0	436191	234
852.9765625	1	decision	trialStart	2	108	48	foodImage.12	FOODEEG_Images\0181.jpg	NY	Right	Yes	0.676680499920622	0	436725	251
854.01953125	2	decision	foodImageDisplay	2	108	48	foodImage.12	FOODEEG_Images\0181.jpg	NY	Right	Yes	0.676680499920622	0	437259	252
856.08203125	0.676680499920622	decision	choicePhaseStart	2	108	48	foodImage.12	FOODEEG_Images\0181.jpg	NY	Right	Yes	0.676680499920622	0	438315	253
856.748046875	0	decision	response	2	108	48	foodImage.12	FOODEEG_Images\0181.jpg	NY	Right	Yes	0.676680499920622	0	438656	235
857.796875	1	health	trialStart	2	109	49	foodImage.16	FOODEEG_Images\0196.jpg	YN	Left	Yes	0.821242599980906	0	439193	251
858.865234375	2	health	foodImageDisplay	2	109	49	foodImage.16	FOODEEG_Images\0196.jpg	YN	Left	Yes	0.821242599980906	0	439740	252
860.927734375	0.821242599980906	health	choicePhaseStart	2	109	49	foodImage.16	FOODEEG_Images\0196.jpg	YN	Left	Yes	0.821242599980906	0	440796	253
861.740234375	0	health	response	2	109	49	foodImage.16	FOODEEG_Images\0196.jpg	YN	Left	Yes	0.821242599980906	0	441212	234
862.7890625	1	taste	trialStart	2	110	50	foodImage.69	FOODEEG_Images\0693.jpg	YN	Left	Yes	0.764468100038357	0	441749	251
863.841796875	2	taste	foodImageDisplay	2	110	50	foodImage.69	FOODEEG_Images\0693.jpg	YN	Left	Yes	0.764468100038357	0	442288	252
865.904296875	0.764468100038357	taste	choicePhaseStart	2	110	50	foodImage.69	FOODEEG_Images\0693.jpg	YN	Left	Yes	0.764468100038357	0	443344	253
866.66015625	0	taste	response	2	110	50	foodImage.69	FOODEEG_Images\0693.jpg	YN	Left	Yes	0.764468100038357	0	443731	234
867.703125	1	taste	trialStart	2	111	51	foodImage.110	FOODEEG_Images\0918.jpg	YN	Right	No	1.15500849997625	0	444265	251
868.740234375	2	taste	foodImageDisplay	2	111	51	foodImage.110	FOODEEG_Images\0918.jpg	YN	Right	No	1.15500849997625	0	444796	252
870.802734375	1.15500849997625	taste	choicePhaseStart	2	111	51	foodImage.110	FOODEEG_Images\0918.jpg	YN	Right	No	1.15500849997625	0	445852	253
871.94921875	0	taste	response	2	111	51	foodImage.110	FOODEEG_Images\0918.jpg	YN	Right	No	1.15500849997625	0	446439	235
872.9921875	1	decision	trialStart	2	112	52	foodImage.75	FOODEEG_Images\0763.jpg	YN	Left	Yes	0.809426499996334	0	446973	251
874.03515625	2	decision	foodImageDisplay	2	112	52	foodImage.75	FOODEEG_Images\0763.jpg	YN	Left	Yes	0.809426499996334	0	447507	252
876.09765625	0.809426499996334	decision	choicePhaseStart	2	112	52	foodImage.75	FOODEEG_Images\0763.jpg	YN	Left	Yes	0.809426499996334	0	448563	253
876.900390625	0	decision	response	2	112	52	foodImage.75	FOODEEG_Images\0763.jpg	YN	Left	Yes	0.809426499996334	0	448974	234
877.951171875	1	decision	trialStart	2	113	53	foodImage.52	FOODEEG_Images\0539.jpg	NY	Left	No	1.24642860004678	0	449512	251
879.0078125	2	decision	foodImageDisplay	2	113	53	foodImage.52	FOODEEG_Images\0539.jpg	NY	Left	No	1.24642860004678	0	450053	252
881.0703125	1.24642860004678	decision	choicePhaseStart	2	113	53	foodImage.52	FOODEEG_Images\0539.jpg	NY	Left	No	1.24642860004678	0	451109	253
882.30859375	0	decision	response	2	113	53	foodImage.52	FOODEEG_Images\0539.jpg	NY	Left	No	1.24642860004678	0	451743	234
883.3515625	1	decision	trialStart	2	114	54	foodImage.53	FOODEEG_Images\0547.jpg	NY	Right	Yes	0.67072450008709	0	452277	251
884.408203125	2	decision	foodImageDisplay	2	114	54	foodImage.53	FOODEEG_Images\0547.jpg	NY	Right	Yes	0.67072450008709	0	452818	252
886.46875	0.67072450008709	decision	choicePhaseStart	2	114	54	foodImage.53	FOODEEG_Images\0547.jpg	NY	Right	Yes	0.67072450008709	0	453873	253
887.130859375	0	decision	response	2	114	54	foodImage.53	FOODEEG_Images\0547.jpg	NY	Right	Yes	0.67072450008709	0	454212	235
888.173828125	1	decision	trialStart	2	115	55	foodImage.37	FOODEEG_Images\0359.jpg	NY	Left	No	0.785436800098978	0	454746	251
889.228515625	2	decision	foodImageDisplay	2	115	55	foodImage.37	FOODEEG_Images\0359.jpg	NY	Left	No	0.785436800098978	0	455286	252
891.291015625	0.785436800098978	decision	choicePhaseStart	2	115	55	foodImage.37	FOODEEG_Images\0359.jpg	NY	Left	No	0.785436800098978	0	456342	253
892.068359375	0	decision	response	2	115	55	foodImage.37	FOODEEG_Images\0359.jpg	NY	Left	No	0.785436800098978	0	456740	234
893.109375	1	decision	trialStart	2	116	56	foodImage.18	FOODEEG_Images\0202.jpg	NY	Right	Yes	0.760077200015076	0	457273	251
894.166015625	2	decision	foodImageDisplay	2	116	56	foodImage.18	FOODEEG_Images\0202.jpg	NY	Right	Yes	0.760077200015076	0	457814	252
896.228515625	0.760077200015076	decision	choicePhaseStart	2	116	56	foodImage.18	FOODEEG_Images\0202.jpg	NY	Right	Yes	0.760077200015076	0	458870	253
896.978515625	0	decision	response	2	116	56	foodImage.18	FOODEEG_Images\0202.jpg	NY	Right	Yes	0.760077200015076	0	459254	235
898.0234375	1	health	trialStart	2	117	57	foodImage.2	FOODEEG_Images\0028.jpg	YN	Right	No	0.907602299936116	0	459789	251
899.064453125	2	health	foodImageDisplay	2	117	57	foodImage.2	FOODEEG_Images\0028.jpg	YN	Right	No	0.907602299936116	0	460322	252
901.126953125	0.907602299936116	health	choicePhaseStart	2	117	57	foodImage.2	FOODEEG_Images\0028.jpg	YN	Right	No	0.907602299936116	0	461378	253
902.02734375	0	health	response	2	117	57	foodImage.2	FOODEEG_Images\0028.jpg	YN	Right	No	0.907602299936116	0	461839	235
903.076171875	1	health	trialStart	2	118	58	foodImage.106	FOODEEG_Images\0914.jpg	NY	Right	Yes	1.41826489998493	0	462376	251
904.11328125	2	health	foodImageDisplay	2	118	58	foodImage.106	FOODEEG_Images\0914.jpg	NY	Right	Yes	1.41826489998493	0	462907	252
906.17578125	1.41826489998493	health	choicePhaseStart	2	118	58	foodImage.106	FOODEEG_Images\0914.jpg	NY	Right	Yes	1.41826489998493	0	463963	253
907.5859375	0	health	response	2	118	58	foodImage.106	FOODEEG_Images\0914.jpg	NY	Right	Yes	1.41826489998493	0	464685	235
908.62890625	1	taste	trialStart	2	119	59	foodImage.70	FOODEEG_Images\0705.jpg	YN	Left	Yes	0.660704700043425	0	465219	251
909.6875	2	taste	foodImageDisplay	2	119	59	foodImage.70	FOODEEG_Images\0705.jpg	YN	Left	Yes	0.660704700043425	0	465761	252
911.75	0.660704700043425	taste	choicePhaseStart	2	119	59	foodImage.70	FOODEEG_Images\0705.jpg	YN	Left	Yes	0.660704700043425	0	466817	253
912.40234375	0	taste	response	2	119	59	foodImage.70	FOODEEG_Images\0705.jpg	YN	Left	Yes	0.660704700043425	0	467151	234
913.4453125	1	taste	trialStart	2	120	60	foodImage.21	FOODEEG_Images\0234.jpg	YN	Left	Yes	0.815598999965005	0	467685	251
914.5078125	2	taste	foodImageDisplay	2	120	60	foodImage.21	FOODEEG_Images\0234.jpg	YN	Left	Yes	0.815598999965005	0	468229	252
916.572265625	0.815598999965005	taste	choicePhaseStart	2	120	60	foodImage.21	FOODEEG_Images\0234.jpg	YN	Left	Yes	0.815598999965005	0	469286	253
917.37890625	0	taste	response	2	120	60	foodImage.21	FOODEEG_Images\0234.jpg	YN	Left	Yes	0.815598999965005	0	469699	234
919.421875	11.94140625	n/a	blockEnd	n/a	n/a	n/a	n/a	n/a	n/a	n/a	n/a	n/a	n/a	470745	254
931.36328125	2	n/a	blockStart	3	n/a	n/a	n/a	n/a	n/a	n/a	n/a	n/a	n/a	476859	250
933.396484375	1	decision	trialStart	3	121	1	foodImage.90	FOODEEG_Images\0890.jpg	NY	Right	Yes	0.73058980004862	0	477900	251
934.455078125	2	decision	foodImageDisplay	3	121	1	foodImage.90	FOODEEG_Images\0890.jpg	NY	Right	Yes	0.73058980004862	0	478442	252
936.51953125	0.73058980004862	decision	choicePhaseStart	3	121	1	foodImage.90	FOODEEG_Images\0890.jpg	NY	Right	Yes	0.73058980004862	0	479499	253
937.2421875	0	decision	response	3	121	1	foodImage.90	FOODEEG_Images\0890.jpg	NY	Right	Yes	0.73058980004862	0	479869	235
938.28515625	1	taste	trialStart	3	122	2	foodImage.80	FOODEEG_Images\0796.jpg	NY	Right	Yes	0.697208300000057	0	480403	251
939.33984375	2	taste	foodImageDisplay	3	122	2	foodImage.80	FOODEEG_Images\0796.jpg	NY	Right	Yes	0.697208300000057	0	480943	252
941.400390625	0.697208300000057	taste	choicePhaseStart	3	122	2	foodImage.80	FOODEEG_Images\0796.jpg	NY	Right	Yes	0.697208300000057	0	481998	253
942.08984375	0	taste	response	3	122	2	foodImage.80	FOODEEG_Images\0796.jpg	NY	Right	Yes	0.697208300000057	0	482351	235
943.142578125	1	taste	trialStart	3	123	3	foodImage.34	FOODEEG_Images\0339.jpg	YN	Left	Yes	0.723856600001454	0	482890	251
944.201171875	2	taste	foodImageDisplay	3	123	3	foodImage.34	FOODEEG_Images\0339.jpg	YN	Left	Yes	0.723856600001454	0	483432	252
946.263671875	0.723856600001454	taste	choicePhaseStart	3	123	3	foodImage.34	FOODEEG_Images\0339.jpg	YN	Left	Yes	0.723856600001454	0	484488	253
946.9765625	0	taste	response	3	123	3	foodImage.34	FOODEEG_Images\0339.jpg	YN	Left	Yes	0.723856600001454	0	484853	234
948.017578125	1	health	trialStart	3	124	4	foodImage.84	FOODEEG_Images\0830.jpg	YN	Left	Yes	0.641258600051515	0	485386	251
949.07421875	2	health	foodImageDisplay	3	124	4	foodImage.84	FOODEEG_Images\0830.jpg	YN	Left	Yes	0.641258600051515	0	485927	252
951.13671875	0.641258600051515	health	choicePhaseStart	3	124	4	foodImage.84	FOODEEG_Images\0830.jpg	YN	Left	Yes	0.641258600051515	0	486983	253
951.76953125	0	health	response	3	124	4	foodImage.84	FOODEEG_Images\0830.jpg	YN	Left	Yes	0.641258600051515	0	487307	234
952.810546875	1	decision	trialStart	3	125	5	foodImage.93	FOODEEG_Images\0901.jpg	YN	Right	No	0.560207200003788	0	487840	251
953.8515625	2	decision	foodImageDisplay	3	125	5	foodImage.93	FOODEEG_Images\0901.jpg	YN	Right	No	0.560207200003788	0	488373	252
955.912109375	0.560207200003788	decision	choicePhaseStart	3	125	5	foodImage.93	FOODEEG_Images\0901.jpg	YN	Right	No	0.560207200003788	0	489428	253
956.46484375	0	decision	response	3	125	5	foodImage.93	FOODEEG_Images\0901.jpg	YN	Right	No	0.560207200003788	0	489711	235
957.5078125	1	decision	trialStart	3	126	6	foodImage.107	FOODEEG_Images\0915.jpg	YN	Right	No	0.649371100007556	0	490245	251
958.544921875	2	decision	foodImageDisplay	3	126	6	foodImage.107	FOODEEG_Images\0915.jpg	YN	Right	No	0.649371100007556	0	490776	252
960.607421875	0.649371100007556	decision	choicePhaseStart	3	126	6	foodImage.107	FOODEEG_Images\0915.jpg	YN	Right	No	0.649371100007556	0	491832	253
961.248046875	0	decision	response	3	126	6	foodImage.107	FOODEEG_Images\0915.jpg	YN	Right	No	0.649371100007556	0	492160	235
962.298828125	1	health	trialStart	3	127	7	foodImage.42	FOODEEG_Images\0438.jpg	YN	Left	Yes	0.663778099929914	0	492698	251
963.38671875	2	health	foodImageDisplay	3	127	7	foodImage.42	FOODEEG_Images\0438.jpg	YN	Left	Yes	0.663778099929914	0	493255	252
965.44921875	0.663778099929914	health	choicePhaseStart	3	127	7	foodImage.42	FOODEEG_Images\0438.jpg	YN	Left	Yes	0.663778099929914	0	494311	253
966.103515625	0	health	response	3	127	7	foodImage.42	FOODEEG_Images\0438.jpg	YN	Left	Yes	0.663778099929914	0	494646	234
967.146484375	1	decision	trialStart	3	128	8	foodImage.97	FOODEEG_Images\0905.jpg	YN	Right	No	0.728506100014783	0	495180	251
968.185546875	2	decision	foodImageDisplay	3	128	8	foodImage.97	FOODEEG_Images\0905.jpg	YN	Right	No	0.728506100014783	0	495712	252
970.248046875	0.728506100014783	decision	choicePhaseStart	3	128	8	foodImage.97	FOODEEG_Images\0905.jpg	YN	Right	No	0.728506100014783	0	496768	253
970.96875	0	decision	response	3	128	8	foodImage.97	FOODEEG_Images\0905.jpg	YN	Right	No	0.728506100014783	0	497137	235
972.009765625	1	decision	trialStart	3	129	9	foodImage.70	FOODEEG_Images\0705.jpg	YN	Left	Yes	1.12584370002151	0	497670	251
973.0703125	2	decision	foodImageDisplay	3	129	9	foodImage.70	FOODEEG_Images\0705.jpg	YN	Left	Yes	1.12584370002151	0	498213	252
975.1328125	1.12584370002151	decision	choicePhaseStart	3	129	9	foodImage.70	FOODEEG_Images\0705.jpg	YN	Left	Yes	1.12584370002151	0	499269	253
976.248046875	0	decision	response	3	129	9	foodImage.70	FOODEEG_Images\0705.jpg	YN	Left	Yes	1.12584370002151	0	499840	234
977.294921875	1	health	trialStart	3	130	10	foodImage.35	FOODEEG_Images\0350.jpg	NY	Right	Yes	1.57624680001754	0	500376	251
978.353515625	2	health	foodImageDisplay	3	130	10	foodImage.35	FOODEEG_Images\0350.jpg	NY	Right	Yes	1.57624680001754	0	500918	252
980.416015625	1.57624680001754	health	choicePhaseStart	3	130	10	foodImage.35	FOODEEG_Images\0350.jpg	NY	Right	Yes	1.57624680001754	0	501974	253
981.984375	0	health	response	3	130	10	foodImage.35	FOODEEG_Images\0350.jpg	NY	Right	Yes	1.57624680001754	0	502777	235
983.03125	1	decision	trialStart	3	131	11	foodImage.31	FOODEEG_Images\0294.jpg	YN	Left	Yes	0.759055800037459	0	503313	251
984.07421875	2	decision	foodImageDisplay	3	131	11	foodImage.31	FOODEEG_Images\0294.jpg	YN	Left	Yes	0.759055800037459	0	503847	252
986.13671875	0.759055800037459	decision	choicePhaseStart	3	131	11	foodImage.31	FOODEEG_Images\0294.jpg	YN	Left	Yes	0.759055800037459	0	504903	253
986.88671875	0	decision	response	3	131	11	foodImage.31	FOODEEG_Images\0294.jpg	YN	Left	Yes	0.759055800037459	0	505287	234
987.931640625	1	taste	trialStart	3	132	12	foodImage.67	FOODEEG_Images\0679.jpg	NY	Right	Yes	0.751953599974513	0	505822	251
988.986328125	2	taste	foodImageDisplay	3	132	12	foodImage.67	FOODEEG_Images\0679.jpg	NY	Right	Yes	0.751953599974513	0	506362	252
991.048828125	0.751953599974513	taste	choicePhaseStart	3	132	12	foodImage.67	FOODEEG_Images\0679.jpg	NY	Right	Yes	0.751953599974513	0	507418	253
991.791015625	0	taste	response	3	132	12	foodImage.67	FOODEEG_Images\0679.jpg	NY	Right	Yes	0.751953599974513	0	507798	235
992.833984375	1	decision	trialStart	3	133	13	foodImage.28	FOODEEG_Images\0273.jpg	YN	Right	No	0.823232099995948	0	508332	251
993.875	2	decision	foodImageDisplay	3	133	13	foodImage.28	FOODEEG_Images\0273.jpg	YN	Right	No	0.823232099995948	0	508865	252
995.9375	0.823232099995948	decision	choicePhaseStart	3	133	13	foodImage.28	FOODEEG_Images\0273.jpg	YN	Right	No	0.823232099995948	0	509921	253
996.751953125	0	decision	response	3	133	13	foodImage.28	FOODEEG_Images\0273.jpg	YN	Right	No	0.823232099995948	0	510338	235
997.79296875	1	decision	trialStart	3	134	14	foodImage.35	FOODEEG_Images\0350.jpg	NY	Left	No	0.673888399964198	0	510871	251
998.83203125	2	decision	foodImageDisplay	3	134	14	foodImage.35	FOODEEG_Images\0350.jpg	NY	Left	No	0.673888399964198	0	511403	252
1000.89453125	0.673888399964198	decision	choicePhaseStart	3	134	14	foodImage.35	FOODEEG_Images\0350.jpg	NY	Left	No	0.673888399964198	0	512459	253
1001.55859375	0	decision	response	3	134	14	foodImage.35	FOODEEG_Images\0350.jpg	NY	Left	No	0.673888399964198	0	512799	234
1002.6015625	1	taste	trialStart	3	135	15	foodImage.62	FOODEEG_Images\0644.jpg	YN	Left	Yes	1.13174620002974	0	513333	251
1003.66015625	2	taste	foodImageDisplay	3	135	15	foodImage.62	FOODEEG_Images\0644.jpg	YN	Left	Yes	1.13174620002974	0	513875	252
1005.72265625	1.13174620002974	taste	choicePhaseStart	3	135	15	foodImage.62	FOODEEG_Images\0644.jpg	YN	Left	Yes	1.13174620002974	0	514931	253
1006.845703125	0	taste	response	3	135	15	foodImage.62	FOODEEG_Images\0644.jpg	YN	Left	Yes	1.13174620002974	0	515506	234
1007.888671875	1	decision	trialStart	3	136	16	foodImage.20	FOODEEG_Images\0226.jpg	YN	Right	No	0.632262300001457	0	516040	251
1008.927734375	2	decision	foodImageDisplay	3	136	16	foodImage.20	FOODEEG_Images\0226.jpg	YN	Right	No	0.632262300001457	0	516572	252
1010.990234375	0.632262300001457	decision	choicePhaseStart	3	136	16	foodImage.20	FOODEEG_Images\0226.jpg	YN	Right	No	0.632262300001457	0	517628	253
1011.615234375	0	decision	response	3	136	16	foodImage.20	FOODEEG_Images\0226.jpg	YN	Right	No	0.632262300001457	0	517948	235
1012.658203125	1	health	trialStart	3	137	17	foodImage.41	FOODEEG_Images\0409.jpg	YN	Left	Yes	0.672255999990739	0	518482	251
1013.705078125	2	health	foodImageDisplay	3	137	17	foodImage.41	FOODEEG_Images\0409.jpg	YN	Left	Yes	0.672255999990739	0	519018	252
1015.767578125	0.672255999990739	health	choicePhaseStart	3	137	17	foodImage.41	FOODEEG_Images\0409.jpg	YN	Left	Yes	0.672255999990739	0	520074	253
1016.4296875	0	health	response	3	137	17	foodImage.41	FOODEEG_Images\0409.jpg	YN	Left	Yes	0.672255999990739	0	520413	234
1017.47265625	1	taste	trialStart	3	138	18	foodImage.116	FOODEEG_Images\0924.jpg	NY	Left	No	1.21810749999713	0	520947	251
1018.51171875	2	taste	foodImageDisplay	3	138	18	foodImage.116	FOODEEG_Images\0924.jpg	NY	Left	No	1.21810749999713	0	521479	252
1020.57421875	1.21810749999713	taste	choicePhaseStart	3	138	18	foodImage.116	FOODEEG_Images\0924.jpg	NY	Left	No	1.21810749999713	0	522535	253
1021.78125	0	taste	response	3	138	18	foodImage.116	FOODEEG_Images\0924.jpg	NY	Left	No	1.21810749999713	0	523153	234
1022.82421875	1	health	trialStart	3	139	19	foodImage.90	FOODEEG_Images\0890.jpg	YN	Left	Yes	0.780175799969584	0	523687	251
1023.8828125	2	health	foodImageDisplay	3	139	19	foodImage.90	FOODEEG_Images\0890.jpg	YN	Left	Yes	0.780175799969584	0	524229	252
1025.9453125	0.780175799969584	health	choicePhaseStart	3	139	19	foodImage.90	FOODEEG_Images\0890.jpg	YN	Left	Yes	0.780175799969584	0	525285	253
1026.71875	0	health	response	3	139	19	foodImage.90	FOODEEG_Images\0890.jpg	YN	Left	Yes	0.780175799969584	0	525681	234
1027.763671875	1	decision	trialStart	3	140	20	foodImage.33	FOODEEG_Images\0329.jpg	NY	Right	Yes	0.817390999989584	0	526216	251
1028.806640625	2	decision	foodImageDisplay	3	140	20	foodImage.33	FOODEEG_Images\0329.jpg	NY	Right	Yes	0.817390999989584	0	526750	252
1030.87109375	0.817390999989584	decision	choicePhaseStart	3	140	20	foodImage.33	FOODEEG_Images\0329.jpg	NY	Right	Yes	0.817390999989584	0	527807	253
1031.677734375	0	decision	response	3	140	20	foodImage.33	FOODEEG_Images\0329.jpg	NY	Right	Yes	0.817390999989584	0	528220	235
1032.720703125	1	taste	trialStart	3	141	21	foodImage.96	FOODEEG_Images\0904.jpg	NY	Right	Yes	1.37708140001632	0	528754	251
1033.759765625	2	taste	foodImageDisplay	3	141	21	foodImage.96	FOODEEG_Images\0904.jpg	NY	Right	Yes	1.37708140001632	0	529286	252
1035.822265625	1.37708140001632	taste	choicePhaseStart	3	141	21	foodImage.96	FOODEEG_Images\0904.jpg	NY	Right	Yes	1.37708140001632	0	530342	253
1037.189453125	0	taste	response	3	141	21	foodImage.96	FOODEEG_Images\0904.jpg	NY	Right	Yes	1.37708140001632	0	531042	235
1038.236328125	1	health	trialStart	3	142	22	foodImage.12	FOODEEG_Images\0181.jpg	YN	Left	Yes	0.68270429992117	0	531578	251
1039.27734375	2	health	foodImageDisplay	3	142	22	foodImage.12	FOODEEG_Images\0181.jpg	YN	Left	Yes	0.68270429992117	0	532111	252
1041.337890625	0.68270429992117	health	choicePhaseStart	3	142	22	foodImage.12	FOODEEG_Images\0181.jpg	YN	Left	Yes	0.68270429992117	0	533166	253
1042.013671875	0	health	response	3	142	22	foodImage.12	FOODEEG_Images\0181.jpg	YN	Left	Yes	0.68270429992117	0	533512	234
1043.056640625	1	decision	trialStart	3	143	23	foodImage.117	FOODEEG_Images\0925.jpg	YN	Right	No	1.21751489990856	0	534046	251
1044.095703125	2	decision	foodImageDisplay	3	143	23	foodImage.117	FOODEEG_Images\0925.jpg	YN	Right	No	1.21751489990856	0	534578	252
1046.158203125	1.21751489990856	decision	choicePhaseStart	3	143	23	foodImage.117	FOODEEG_Images\0925.jpg	YN	Right	No	1.21751489990856	0	535634	253
1047.365234375	0	decision	response	3	143	23	foodImage.117	FOODEEG_Images\0925.jpg	YN	Right	No	1.21751489990856	0	536252	235
1048.4140625	1	taste	trialStart	3	144	24	foodImage.97	FOODEEG_Images\0905.jpg	YN	Right	No	0.81863690004684	0	536789	251
1049.453125	2	taste	foodImageDisplay	3	144	24	foodImage.97	FOODEEG_Images\0905.jpg	YN	Right	No	0.81863690004684	0	537321	252
1051.515625	0.81863690004684	taste	choicePhaseStart	3	144	24	foodImage.97	FOODEEG_Images\0905.jpg	YN	Right	No	0.81863690004684	0	538377	253
1052.32421875	0	taste	response	3	144	24	foodImage.97	FOODEEG_Images\0905.jpg	YN	Right	No	0.81863690004684	0	538791	235
1053.37109375	1	health	trialStart	3	145	25	foodImage.117	FOODEEG_Images\0925.jpg	YN	Left	Yes	1.81537399999797	0	539327	251
1054.408203125	2	health	foodImageDisplay	3	145	25	foodImage.117	FOODEEG_Images\0925.jpg	YN	Left	Yes	1.81537399999797	0	539858	252
1056.470703125	1.81537399999797	health	choicePhaseStart	3	145	25	foodImage.117	FOODEEG_Images\0925.jpg	YN	Left	Yes	1.81537399999797	0	540914	253
1058.27734375	0	health	response	3	145	25	foodImage.117	FOODEEG_Images\0925.jpg	YN	Left	Yes	1.81537399999797	0	541839	234
1059.318359375	1	decision	trialStart	3	146	26	foodImage.54	FOODEEG_Images\0560.jpg	YN	Right	No	0.918164599919692	0	542372	251
1060.376953125	2	decision	foodImageDisplay	3	146	26	foodImage.54	FOODEEG_Images\0560.jpg	YN	Right	No	0.918164599919692	0	542914	252
1062.439453125	0.918164599919692	decision	choicePhaseStart	3	146	26	foodImage.54	FOODEEG_Images\0560.jpg	YN	Right	No	0.918164599919692	0	543970	253
1063.349609375	0	decision	response	3	146	26	foodImage.54	FOODEEG_Images\0560.jpg	YN	Right	No	0.918164599919692	0	544436	235
1064.396484375	1	taste	trialStart	3	147	27	foodImage.41	FOODEEG_Images\0409.jpg	NY	Right	Yes	1.07837949995883	0	544972	251
1065.44140625	2	taste	foodImageDisplay	3	147	27	foodImage.41	FOODEEG_Images\0409.jpg	NY	Right	Yes	1.07837949995883	0	545507	252
1067.50390625	1.07837949995883	taste	choicePhaseStart	3	147	27	foodImage.41	FOODEEG_Images\0409.jpg	NY	Right	Yes	1.07837949995883	0	546563	253
1068.572265625	0	taste	response	3	147	27	foodImage.41	FOODEEG_Images\0409.jpg	NY	Right	Yes	1.07837949995883	0	547110	235
1069.615234375	1	health	trialStart	3	148	28	foodImage.113	FOODEEG_Images\0921.jpg	YN	Left	Yes	0.95414210006129	0	547644	251
1070.65234375	2	health	foodImageDisplay	3	148	28	foodImage.113	FOODEEG_Images\0921.jpg	YN	Left	Yes	0.95414210006129	0	548175	252
1072.71484375	0.95414210006129	health	choicePhaseStart	3	148	28	foodImage.113	FOODEEG_Images\0921.jpg	YN	Left	Yes	0.95414210006129	0	549231	253
1073.66015625	0	health	response	3	148	28	foodImage.113	FOODEEG_Images\0921.jpg	YN	Left	Yes	0.95414210006129	0	549715	234
1074.705078125	1	taste	trialStart	3	149	29	foodImage.120	FOODEEG_Images\0928.jpg	YN	Right	No	0.742443599971011	0	550250	251
1075.7421875	2	taste	foodImageDisplay	3	149	29	foodImage.120	FOODEEG_Images\0928.jpg	YN	Right	No	0.742443599971011	0	550781	252
1077.806640625	0.742443599971011	taste	choicePhaseStart	3	149	29	foodImage.120	FOODEEG_Images\0928.jpg	YN	Right	No	0.742443599971011	0	551838	253
1078.5390625	0	taste	response	3	149	29	foodImage.120	FOODEEG_Images\0928.jpg	YN	Right	No	0.742443599971011	0	552213	235
1079.583984375	1	health	trialStart	3	150	30	foodImage.85	FOODEEG_Images\0841.jpg	NY	Left	No	1.4689363000216	0	552748	251
1080.640625	2	health	foodImageDisplay	3	150	30	foodImage.85	FOODEEG_Images\0841.jpg	NY	Left	No	1.4689363000216	0	553289	252
1082.703125	1.4689363000216	health	choicePhaseStart	3	150	30	foodImage.85	FOODEEG_Images\0841.jpg	NY	Left	No	1.4689363000216	0	554345	253
1084.1640625	0	health	response	3	150	30	foodImage.85	FOODEEG_Images\0841.jpg	NY	Left	No	1.4689363000216	0	555093	234
1085.20703125	1	taste	trialStart	3	151	31	foodImage.64	FOODEEG_Images\0647.jpg	NY	Right	Yes	0.877669400069863	0	555627	251
1086.265625	2	taste	foodImageDisplay	3	151	31	foodImage.64	FOODEEG_Images\0647.jpg	NY	Right	Yes	0.877669400069863	0	556169	252
1088.328125	0.877669400069863	taste	choicePhaseStart	3	151	31	foodImage.64	FOODEEG_Images\0647.jpg	NY	Right	Yes	0.877669400069863	0	557225	253
1089.1953125	0	taste	response	3	151	31	foodImage.64	FOODEEG_Images\0647.jpg	NY	Right	Yes	0.877669400069863	0	557669	235
1090.23828125	1	taste	trialStart	3	152	32	foodImage.78	FOODEEG_Images\0787.jpg	YN	Right	No	1.15382409992162	0	558203	251
1091.283203125	2	taste	foodImageDisplay	3	152	32	foodImage.78	FOODEEG_Images\0787.jpg	YN	Right	No	1.15382409992162	0	558738	252
1093.345703125	1.15382409992162	taste	choicePhaseStart	3	152	32	foodImage.78	FOODEEG_Images\0787.jpg	YN	Right	No	1.15382409992162	0	559794	253
1094.4921875	0	taste	response	3	152	32	foodImage.78	FOODEEG_Images\0787.jpg	YN	Right	No	1.15382409992162	0	560381	235
1095.541015625	1	health	trialStart	3	153	33	foodImage.101	FOODEEG_Images\0909.jpg	YN	Right	No	1.1238677999936	0	560918	251
1096.578125	2	health	foodImageDisplay	3	153	33	foodImage.101	FOODEEG_Images\0909.jpg	YN	Right	No	1.1238677999936	0	561449	252
1098.640625	1.1238677999936	health	choicePhaseStart	3	153	33	foodImage.101	FOODEEG_Images\0909.jpg	YN	Right	No	1.1238677999936	0	562505	253
1099.755859375	0	health	response	3	153	33	foodImage.101	FOODEEG_Images\0909.jpg	YN	Right	No	1.1238677999936	0	563076	235
1100.796875	1	decision	trialStart	3	154	34	foodImage.1	FOODEEG_Images\0004.jpg	NY	Right	Yes	0.782242199988104	0	563609	251
1101.837890625	2	decision	foodImageDisplay	3	154	34	foodImage.1	FOODEEG_Images\0004.jpg	NY	Right	Yes	0.782242199988104	0	564142	252
1103.900390625	0.782242199988104	decision	choicePhaseStart	3	154	34	foodImage.1	FOODEEG_Images\0004.jpg	NY	Right	Yes	0.782242199988104	0	565198	253
1104.673828125	0	decision	response	3	154	34	foodImage.1	FOODEEG_Images\0004.jpg	NY	Right	Yes	0.782242199988104	0	565594	235
1105.716796875	1	taste	trialStart	3	155	35	foodImage.37	FOODEEG_Images\0359.jpg	NY	Left	No	0.988640299998224	0	566128	251
1106.759765625	2	taste	foodImageDisplay	3	155	35	foodImage.37	FOODEEG_Images\0359.jpg	NY	Left	No	0.988640299998224	0	566662	252
1108.822265625	0.988640299998224	taste	choicePhaseStart	3	155	35	foodImage.37	FOODEEG_Images\0359.jpg	NY	Left	No	0.988640299998224	0	567718	253
1109.802734375	0	taste	response	3	155	35	foodImage.37	FOODEEG_Images\0359.jpg	NY	Left	No	0.988640299998224	0	568220	234
1110.845703125	1	taste	trialStart	3	156	36	foodImage.2	FOODEEG_Images\0028.jpg	YN	Left	Yes	0.803873999975622	0	568754	251
1111.888671875	2	taste	foodImageDisplay	3	156	36	foodImage.2	FOODEEG_Images\0028.jpg	YN	Left	Yes	0.803873999975622	0	569288	252
1113.951171875	0.803873999975622	taste	choicePhaseStart	3	156	36	foodImage.2	FOODEEG_Images\0028.jpg	YN	Left	Yes	0.803873999975622	0	570344	253
1114.74609375	0	taste	response	3	156	36	foodImage.2	FOODEEG_Images\0028.jpg	YN	Left	Yes	0.803873999975622	0	570751	234
1115.7890625	1	health	trialStart	3	157	37	foodImage.88	FOODEEG_Images\0878.jpg	NY	Left	No	0.744897200027481	0	571285	251
1116.84375	2	health	foodImageDisplay	3	157	37	foodImage.88	FOODEEG_Images\0878.jpg	NY	Left	No	0.744897200027481	0	571825	252
1118.90625	0.744897200027481	health	choicePhaseStart	3	157	37	foodImage.88	FOODEEG_Images\0878.jpg	NY	Left	No	0.744897200027481	0	572881	253
1119.642578125	0	health	response	3	157	37	foodImage.88	FOODEEG_Images\0878.jpg	NY	Left	No	0.744897200027481	0	573258	234
1120.689453125	1	taste	trialStart	3	158	38	foodImage.112	FOODEEG_Images\0920.jpg	NY	Left	No	0.723162799957208	0	573794	251
1121.728515625	2	taste	foodImageDisplay	3	158	38	foodImage.112	FOODEEG_Images\0920.jpg	NY	Left	No	0.723162799957208	0	574326	252
1123.791015625	0.723162799957208	taste	choicePhaseStart	3	158	38	foodImage.112	FOODEEG_Images\0920.jpg	NY	Left	No	0.723162799957208	0	575382	253
1124.505859375	0	taste	response	3	158	38	foodImage.112	FOODEEG_Images\0920.jpg	NY	Left	No	0.723162799957208	0	575748	234
1125.548828125	1	decision	trialStart	3	159	39	foodImage.51	FOODEEG_Images\0536.jpg	NY	Right	Yes	0.834248100058176	0	576282	251
1126.59375	2	decision	foodImageDisplay	3	159	39	foodImage.51	FOODEEG_Images\0536.jpg	NY	Right	Yes	0.834248100058176	0	576817	252
1128.65625	0.834248100058176	decision	choicePhaseStart	3	159	39	foodImage.51	FOODEEG_Images\0536.jpg	NY	Right	Yes	0.834248100058176	0	577873	253
1129.482421875	0	decision	response	3	159	39	foodImage.51	FOODEEG_Images\0536.jpg	NY	Right	Yes	0.834248100058176	0	578296	235
1130.53125	1	taste	trialStart	3	160	40	foodImage.54	FOODEEG_Images\0560.jpg	NY	Left	No	1.02434290002566	0	578833	251
1131.5859375	2	taste	foodImageDisplay	3	160	40	foodImage.54	FOODEEG_Images\0560.jpg	NY	Left	No	1.02434290002566	0	579373	252
1133.650390625	1.02434290002566	taste	choicePhaseStart	3	160	40	foodImage.54	FOODEEG_Images\0560.jpg	NY	Left	No	1.02434290002566	0	580430	253
1134.666015625	0	taste	response	3	160	40	foodImage.54	FOODEEG_Images\0560.jpg	NY	Left	No	1.02434290002566	0	580950	234
1135.712890625	1	health	trialStart	3	161	41	foodImage.53	FOODEEG_Images\0547.jpg	NY	Left	No	0.748018199927174	0	581486	251
1136.76953125	2	health	foodImageDisplay	3	161	41	foodImage.53	FOODEEG_Images\0547.jpg	NY	Left	No	0.748018199927174	0	582027	252
1138.830078125	0.748018199927174	health	choicePhaseStart	3	161	41	foodImage.53	FOODEEG_Images\0547.jpg	NY	Left	No	0.748018199927174	0	583082	253
1139.5703125	0	health	response	3	161	41	foodImage.53	FOODEEG_Images\0547.jpg	NY	Left	No	0.748018199927174	0	583461	234
1140.61328125	1	taste	trialStart	3	162	42	foodImage.12	FOODEEG_Images\0181.jpg	YN	Left	Yes	1.36577829997987	0	583995	251
1141.654296875	2	taste	foodImageDisplay	3	162	42	foodImage.12	FOODEEG_Images\0181.jpg	YN	Left	Yes	1.36577829997987	0	584528	252
1143.71484375	1.36577829997987	taste	choicePhaseStart	3	162	42	foodImage.12	FOODEEG_Images\0181.jpg	YN	Left	Yes	1.36577829997987	0	585583	253
1145.072265625	0	taste	response	3	162	42	foodImage.12	FOODEEG_Images\0181.jpg	YN	Left	Yes	1.36577829997987	0	586278	234
1146.123046875	1	decision	trialStart	3	163	43	foodImage.48	FOODEEG_Images\0494.jpg	YN	Left	Yes	1.10398679994978	0	586816	251
1147.1640625	2	decision	foodImageDisplay	3	163	43	foodImage.48	FOODEEG_Images\0494.jpg	YN	Left	Yes	1.10398679994978	0	587349	252
1149.2265625	1.10398679994978	decision	choicePhaseStart	3	163	43	foodImage.48	FOODEEG_Images\0494.jpg	YN	Left	Yes	1.10398679994978	0	588405	253
1150.3203125	0	decision	response	3	163	43	foodImage.48	FOODEEG_Images\0494.jpg	YN	Left	Yes	1.10398679994978	0	588965	234
1151.36328125	1	decision	trialStart	3	164	44	foodImage.114	FOODEEG_Images\0922.jpg	YN	Left	Yes	0.729689700063318	0	589499	251
1152.40234375	2	decision	foodImageDisplay	3	164	44	foodImage.114	FOODEEG_Images\0922.jpg	YN	Left	Yes	0.729689700063318	0	590031	252
1154.46484375	0.729689700063318	decision	choicePhaseStart	3	164	44	foodImage.114	FOODEEG_Images\0922.jpg	YN	Left	Yes	0.729689700063318	0	591087	253
1155.185546875	0	decision	response	3	164	44	foodImage.114	FOODEEG_Images\0922.jpg	YN	Left	Yes	0.729689700063318	0	591456	234
1156.228515625	1	decision	trialStart	3	165	45	foodImage.96	FOODEEG_Images\0904.jpg	YN	Right	No	0.721616399940103	0	591990	251
1157.265625	2	decision	foodImageDisplay	3	165	45	foodImage.96	FOODEEG_Images\0904.jpg	YN	Right	No	0.721616399940103	0	592521	252
1159.328125	0.721616399940103	decision	choicePhaseStart	3	165	45	foodImage.96	FOODEEG_Images\0904.jpg	YN	Right	No	0.721616399940103	0	593577	253
1160.041015625	0	decision	response	3	165	45	foodImage.96	FOODEEG_Images\0904.jpg	YN	Right	No	0.721616399940103	0	593942	235
1161.08984375	1	taste	trialStart	3	166	46	foodImage.36	FOODEEG_Images\0352.jpg	YN	Left	Yes	0.672339400043711	0	594479	251
1162.146484375	2	taste	foodImageDisplay	3	166	46	foodImage.36	FOODEEG_Images\0352.jpg	YN	Left	Yes	0.672339400043711	0	595020	252
1164.208984375	0.672339400043711	taste	choicePhaseStart	3	166	46	foodImage.36	FOODEEG_Images\0352.jpg	YN	Left	Yes	0.672339400043711	0	596076	253
1164.873046875	0	taste	response	3	166	46	foodImage.36	FOODEEG_Images\0352.jpg	YN	Left	Yes	0.672339400043711	0	596416	234
1165.916015625	1	health	trialStart	3	167	47	foodImage.51	FOODEEG_Images\0536.jpg	YN	Left	Yes	1.1076639998937	0	596950	251
1166.958984375	2	health	foodImageDisplay	3	167	47	foodImage.51	FOODEEG_Images\0536.jpg	YN	Left	Yes	1.1076639998937	0	597484	252
1169.021484375	1.1076639998937	health	choicePhaseStart	3	167	47	foodImage.51	FOODEEG_Images\0536.jpg	YN	Left	Yes	1.1076639998937	0	598540	253
1170.12109375	0	health	response	3	167	47	foodImage.51	FOODEEG_Images\0536.jpg	YN	Left	Yes	1.1076639998937	0	599103	234
1171.162109375	1	health	trialStart	3	168	48	foodImage.86	FOODEEG_Images\0844.jpg	NY	Left	No	1.01327660004608	0	599636	251
1172.220703125	2	health	foodImageDisplay	3	168	48	foodImage.86	FOODEEG_Images\0844.jpg	NY	Left	No	1.01327660004608	0	600178	252
1174.283203125	1.01327660004608	health	choicePhaseStart	3	168	48	foodImage.86	FOODEEG_Images\0844.jpg	NY	Left	No	1.01327660004608	0	601234	253
1175.2890625	0	health	response	3	168	48	foodImage.86	FOODEEG_Images\0844.jpg	NY	Left	No	1.01327660004608	0	601749	234
1176.330078125	1	taste	trialStart	3	169	49	foodImage.38	FOODEEG_Images\0365.jpg	NY	Right	Yes	0.745788299944252	0	602282	251
1177.369140625	2	taste	foodImageDisplay	3	169	49	foodImage.38	FOODEEG_Images\0365.jpg	NY	Right	Yes	0.745788299944252	0	602814	252
1179.431640625	0.745788299944252	taste	choicePhaseStart	3	169	49	foodImage.38	FOODEEG_Images\0365.jpg	NY	Right	Yes	0.745788299944252	0	603870	253
1180.16796875	0	taste	response	3	169	49	foodImage.38	FOODEEG_Images\0365.jpg	NY	Right	Yes	0.745788299944252	0	604247	235
1181.216796875	1	taste	trialStart	3	170	50	foodImage.13	FOODEEG_Images\0183.jpg	YN	Left	Yes	0.725638900068589	0	604784	251
1182.259765625	2	taste	foodImageDisplay	3	170	50	foodImage.13	FOODEEG_Images\0183.jpg	YN	Left	Yes	0.725638900068589	0	605318	252
1184.322265625	0.725638900068589	taste	choicePhaseStart	3	170	50	foodImage.13	FOODEEG_Images\0183.jpg	YN	Left	Yes	0.725638900068589	0	606374	253
1185.0390625	0	taste	response	3	170	50	foodImage.13	FOODEEG_Images\0183.jpg	YN	Left	Yes	0.725638900068589	0	606741	234
1186.087890625	1	health	trialStart	3	171	51	foodImage.33	FOODEEG_Images\0329.jpg	NY	Right	Yes	0.896086400025524	0	607278	251
1187.12890625	2	health	foodImageDisplay	3	171	51	foodImage.33	FOODEEG_Images\0329.jpg	NY	Right	Yes	0.896086400025524	0	607811	252
1189.193359375	0.896086400025524	health	choicePhaseStart	3	171	51	foodImage.33	FOODEEG_Images\0329.jpg	NY	Right	Yes	0.896086400025524	0	608868	253
1190.080078125	0	health	response	3	171	51	foodImage.33	FOODEEG_Images\0329.jpg	NY	Right	Yes	0.896086400025524	0	609322	235
1191.123046875	1	health	trialStart	3	172	52	foodImage.32	FOODEEG_Images\0319.jpg	NY	Right	Yes	0.796081700013019	0	609856	251
1192.166015625	2	health	foodImageDisplay	3	172	52	foodImage.32	FOODEEG_Images\0319.jpg	NY	Right	Yes	0.796081700013019	0	610390	252
1194.228515625	0.796081700013019	health	choicePhaseStart	3	172	52	foodImage.32	FOODEEG_Images\0319.jpg	NY	Right	Yes	0.796081700013019	0	611446	253
1195.015625	0	health	response	3	172	52	foodImage.32	FOODEEG_Images\0319.jpg	NY	Right	Yes	0.796081700013019	0	611849	235
1196.05859375	1	health	trialStart	3	173	53	foodImage.73	FOODEEG_Images\0717.jpg	NY	Right	Yes	0.882190700038336	0	612383	251
1197.12890625	2	health	foodImageDisplay	3	173	53	foodImage.73	FOODEEG_Images\0717.jpg	NY	Right	Yes	0.882190700038336	0	612931	252
1199.19140625	0.882190700038336	health	choicePhaseStart	3	173	53	foodImage.73	FOODEEG_Images\0717.jpg	NY	Right	Yes	0.882190700038336	0	613987	253
1200.0625	0	health	response	3	173	53	foodImage.73	FOODEEG_Images\0717.jpg	NY	Right	Yes	0.882190700038336	0	614433	235
1201.111328125	1	health	trialStart	3	174	54	foodImage.112	FOODEEG_Images\0920.jpg	NY	Left	No	0.692039399989881	0	614970	251
1202.150390625	2	health	foodImageDisplay	3	174	54	foodImage.112	FOODEEG_Images\0920.jpg	NY	Left	No	0.692039399989881	0	615502	252
1204.2109375	0.692039399989881	health	choicePhaseStart	3	174	54	foodImage.112	FOODEEG_Images\0920.jpg	NY	Left	No	0.692039399989881	0	616557	253
1204.89453125	0	health	response	3	174	54	foodImage.112	FOODEEG_Images\0920.jpg	NY	Left	No	0.692039399989881	0	616907	234
1205.935546875	1	health	trialStart	3	175	55	foodImage.103	FOODEEG_Images\0911.jpg	NY	Left	No	0.509464700007811	0	617440	251
1206.97265625	2	health	foodImageDisplay	3	175	55	foodImage.103	FOODEEG_Images\0911.jpg	NY	Left	No	0.509464700007811	0	617971	252
1209.03515625	0.509464700007811	health	choicePhaseStart	3	175	55	foodImage.103	FOODEEG_Images\0911.jpg	NY	Left	No	0.509464700007811	0	619027	253
1209.53515625	0	health	response	3	175	55	foodImage.103	FOODEEG_Images\0911.jpg	NY	Left	No	0.509464700007811	0	619283	234
1210.580078125	1	taste	trialStart	3	176	56	foodImage.99	FOODEEG_Images\0907.jpg	YN	Right	No	0.798446800094098	0	619818	251
1211.6171875	2	taste	foodImageDisplay	3	176	56	foodImage.99	FOODEEG_Images\0907.jpg	YN	Right	No	0.798446800094098	0	620349	252
1213.681640625	0.798446800094098	taste	choicePhaseStart	3	176	56	foodImage.99	FOODEEG_Images\0907.jpg	YN	Right	No	0.798446800094098	0	621406	253
1214.470703125	0	taste	response	3	176	56	foodImage.99	FOODEEG_Images\0907.jpg	YN	Right	No	0.798446800094098	0	621810	235
1215.513671875	1	decision	trialStart	3	177	57	foodImage.17	FOODEEG_Images\0199.jpg	YN	Right	No	1.68435029999819	0	622344	251
1216.556640625	2	decision	foodImageDisplay	3	177	57	foodImage.17	FOODEEG_Images\0199.jpg	YN	Right	No	1.68435029999819	0	622878	252
1218.619140625	1.68435029999819	decision	choicePhaseStart	3	177	57	foodImage.17	FOODEEG_Images\0199.jpg	YN	Right	No	1.68435029999819	0	623934	253
1220.294921875	0	decision	response	3	177	57	foodImage.17	FOODEEG_Images\0199.jpg	YN	Right	No	1.68435029999819	0	624792	235
1221.3359375	1	health	trialStart	3	178	58	foodImage.6	FOODEEG_Images\0113.jpg	NY	Left	No	1.34900819999166	0	625325	251
1222.37890625	2	health	foodImageDisplay	3	178	58	foodImage.6	FOODEEG_Images\0113.jpg	NY	Left	No	1.34900819999166	0	625859	252
1224.439453125	1.34900819999166	health	choicePhaseStart	3	178	58	foodImage.6	FOODEEG_Images\0113.jpg	NY	Left	No	1.34900819999166	0	626914	253
1225.783203125	0	health	response	3	178	58	foodImage.6	FOODEEG_Images\0113.jpg	NY	Left	No	1.34900819999166	0	627602	234
1226.82421875	1	decision	trialStart	3	179	59	foodImage.108	FOODEEG_Images\0916.jpg	YN	Right	No	0.687754199956544	0	628135	251
1227.861328125	2	decision	foodImageDisplay	3	179	59	foodImage.108	FOODEEG_Images\0916.jpg	YN	Right	No	0.687754199956544	0	628666	252
1229.92578125	0.687754199956544	decision	choicePhaseStart	3	179	59	foodImage.108	FOODEEG_Images\0916.jpg	YN	Right	No	0.687754199956544	0	629723	253
1230.60546875	0	decision	response	3	179	59	foodImage.108	FOODEEG_Images\0916.jpg	YN	Right	No	0.687754199956544	0	630071	235
1231.6484375	1	taste	trialStart	3	180	60	foodImage.88	FOODEEG_Images\0878.jpg	NY	Right	Yes	0.808192900032736	0	630605	251
1232.705078125	2	taste	foodImageDisplay	3	180	60	foodImage.88	FOODEEG_Images\0878.jpg	NY	Right	Yes	0.808192900032736	0	631146	252
1234.765625	0.808192900032736	taste	choicePhaseStart	3	180	60	foodImage.88	FOODEEG_Images\0878.jpg	NY	Right	Yes	0.808192900032736	0	632201	253
1235.56640625	0	taste	response	3	180	60	foodImage.88	FOODEEG_Images\0878.jpg	NY	Right	Yes	0.808192900032736	0	632611	235
1237.609375	12.27734375	n/a	blockEnd	n/a	n/a	n/a	n/a	n/a	n/a	n/a	n/a	n/a	n/a	633657	254
1249.88671875	2	n/a	blockStart	4	n/a	n/a	n/a	n/a	n/a	n/a	n/a	n/a	n/a	639943	250
1251.91796875	1	health	trialStart	4	181	1	foodImage.93	FOODEEG_Images\0901.jpg	NY	Right	Yes	1.43204490002245	0	640983	251
1252.958984375	2	health	foodImageDisplay	4	181	1	foodImage.93	FOODEEG_Images\0901.jpg	NY	Right	Yes	1.43204490002245	0	641516	252
1255.021484375	1.43204490002245	health	choicePhaseStart	4	181	1	foodImage.93	FOODEEG_Images\0901.jpg	NY	Right	Yes	1.43204490002245	0	642572	253
1256.4453125	0	health	response	4	181	1	foodImage.93	FOODEEG_Images\0901.jpg	NY	Right	Yes	1.43204490002245	0	643301	235
1257.4921875	1	health	trialStart	4	182	2	foodImage.37	FOODEEG_Images\0359.jpg	NY	Right	Yes	0.754268799908459	0	643837	251
1258.533203125	2	health	foodImageDisplay	4	182	2	foodImage.37	FOODEEG_Images\0359.jpg	NY	Right	Yes	0.754268799908459	0	644370	252
1260.595703125	0.754268799908459	health	choicePhaseStart	4	182	2	foodImage.37	FOODEEG_Images\0359.jpg	NY	Right	Yes	0.754268799908459	0	645426	253
1261.33984375	0	health	response	4	182	2	foodImage.37	FOODEEG_Images\0359.jpg	NY	Right	Yes	0.754268799908459	0	645807	235
1262.384765625	1	health	trialStart	4	183	3	foodImage.91	FOODEEG_Images\0896.jpg	YN	Left	Yes	0.757891800021753	0	646342	251
1263.44140625	2	health	foodImageDisplay	4	183	3	foodImage.91	FOODEEG_Images\0896.jpg	YN	Left	Yes	0.757891800021753	0	646883	252
1265.50390625	0.757891800021753	health	choicePhaseStart	4	183	3	foodImage.91	FOODEEG_Images\0896.jpg	YN	Left	Yes	0.757891800021753	0	647939	253
1266.251953125	0	health	response	4	183	3	foodImage.91	FOODEEG_Images\0896.jpg	YN	Left	Yes	0.757891800021753	0	648322	234
1267.296875	1	health	trialStart	4	184	4	foodImage.15	FOODEEG_Images\0189.jpg	YN	Right	No	0.554979800013825	0	648857	251
1268.365234375	2	health	foodImageDisplay	4	184	4	foodImage.15	FOODEEG_Images\0189.jpg	YN	Right	No	0.554979800013825	0	649404	252
1270.427734375	0.554979800013825	health	choicePhaseStart	4	184	4	foodImage.15	FOODEEG_Images\0189.jpg	YN	Right	No	0.554979800013825	0	650460	253
1270.97265625	0	health	response	4	184	4	foodImage.15	FOODEEG_Images\0189.jpg	YN	Right	No	0.554979800013825	0	650739	235
1272.013671875	1	taste	trialStart	4	185	5	foodImage.85	FOODEEG_Images\0841.jpg	YN	Left	Yes	0.842425800045021	0	651272	251
1273.07421875	2	taste	foodImageDisplay	4	185	5	foodImage.85	FOODEEG_Images\0841.jpg	YN	Left	Yes	0.842425800045021	0	651815	252
1275.138671875	0.842425800045021	taste	choicePhaseStart	4	185	5	foodImage.85	FOODEEG_Images\0841.jpg	YN	Left	Yes	0.842425800045021	0	652872	253
1275.97265625	0	taste	response	4	185	5	foodImage.85	FOODEEG_Images\0841.jpg	YN	Left	Yes	0.842425800045021	0	653299	234
1277.015625	1	taste	trialStart	4	186	6	foodImage.58	FOODEEG_Images\0605.jpg	NY	Right	Yes	0.836823599995114	0	653833	251
1278.07421875	2	taste	foodImageDisplay	4	186	6	foodImage.58	FOODEEG_Images\0605.jpg	NY	Right	Yes	0.836823599995114	0	654375	252
1280.13671875	0.836823599995114	taste	choicePhaseStart	4	186	6	foodImage.58	FOODEEG_Images\0605.jpg	NY	Right	Yes	0.836823599995114	0	655431	253
1280.96484375	0	taste	response	4	186	6	foodImage.58	FOODEEG_Images\0605.jpg	NY	Right	Yes	0.836823599995114	0	655855	235
1282.005859375	1	health	trialStart	4	187	7	foodImage.83	FOODEEG_Images\0827.jpg	NY	Right	Yes	0.74271680007223	0	656388	251
1283.064453125	2	health	foodImageDisplay	4	187	7	foodImage.83	FOODEEG_Images\0827.jpg	NY	Right	Yes	0.74271680007223	0	656930	252
1285.126953125	0.74271680007223	health	choicePhaseStart	4	187	7	foodImage.83	FOODEEG_Images\0827.jpg	NY	Right	Yes	0.74271680007223	0	657986	253
1285.859375	0	health	response	4	187	7	foodImage.83	FOODEEG_Images\0827.jpg	NY	Right	Yes	0.74271680007223	0	658361	235
1286.90234375	1	health	trialStart	4	188	8	foodImage.58	FOODEEG_Images\0605.jpg	YN	Left	Yes	0.691104399971664	0	658895	251
1287.962890625	2	health	foodImageDisplay	4	188	8	foodImage.58	FOODEEG_Images\0605.jpg	YN	Left	Yes	0.691104399971664	0	659438	252
1290.0234375	0.691104399971664	health	choicePhaseStart	4	188	8	foodImage.58	FOODEEG_Images\0605.jpg	YN	Left	Yes	0.691104399971664	0	660493	253
1290.70703125	0	health	response	4	188	8	foodImage.58	FOODEEG_Images\0605.jpg	YN	Left	Yes	0.691104399971664	0	660843	234
1291.7578125	1	health	trialStart	4	189	9	foodImage.74	FOODEEG_Images\0752.jpg	YN	Left	Yes	1.88449610001408	0	661381	251
1292.80078125	2	health	foodImageDisplay	4	189	9	foodImage.74	FOODEEG_Images\0752.jpg	YN	Left	Yes	1.88449610001408	0	661915	252
1294.86328125	1.88449610001408	health	choicePhaseStart	4	189	9	foodImage.74	FOODEEG_Images\0752.jpg	YN	Left	Yes	1.88449610001408	0	662971	253
1296.740234375	0	health	response	4	189	9	foodImage.74	FOODEEG_Images\0752.jpg	YN	Left	Yes	1.88449610001408	0	663932	234
1297.7890625	1	decision	trialStart	4	190	10	foodImage.115	FOODEEG_Images\0923.jpg	YN	Right	No	0.769673800095916	0	664469	251
1298.828125	2	decision	foodImageDisplay	4	190	10	foodImage.115	FOODEEG_Images\0923.jpg	YN	Right	No	0.769673800095916	0	665001	252
1300.890625	0.769673800095916	decision	choicePhaseStart	4	190	10	foodImage.115	FOODEEG_Images\0923.jpg	YN	Right	No	0.769673800095916	0	666057	253
1301.650390625	0	decision	response	4	190	10	foodImage.115	FOODEEG_Images\0923.jpg	YN	Right	No	0.769673800095916	0	666446	235
1302.693359375	1	taste	trialStart	4	191	11	foodImage.29	FOODEEG_Images\0278.jpg	YN	Right	No	0.783991000032984	0	666980	251
1303.734375	2	taste	foodImageDisplay	4	191	11	foodImage.29	FOODEEG_Images\0278.jpg	YN	Right	No	0.783991000032984	0	667513	252
1305.794921875	0.783991000032984	taste	choicePhaseStart	4	191	11	foodImage.29	FOODEEG_Images\0278.jpg	YN	Right	No	0.783991000032984	0	668568	253
1306.5703125	0	taste	response	4	191	11	foodImage.29	FOODEEG_Images\0278.jpg	YN	Right	No	0.783991000032984	0	668965	235
1307.61328125	1	health	trialStart	4	192	12	foodImage.110	FOODEEG_Images\0918.jpg	YN	Right	No	1.15316809993237	0	669499	251
1308.65234375	2	health	foodImageDisplay	4	192	12	foodImage.110	FOODEEG_Images\0918.jpg	YN	Right	No	1.15316809993237	0	670031	252
1310.71484375	1.15316809993237	health	choicePhaseStart	4	192	12	foodImage.110	FOODEEG_Images\0918.jpg	YN	Right	No	1.15316809993237	0	671087	253
1311.859375	0	health	response	4	192	12	foodImage.110	FOODEEG_Images\0918.jpg	YN	Right	No	1.15316809993237	0	671673	235
