onset	duration	trial_type	event_type	block	trial_total	trial_in_block	food_image_code	food_image_path	button_position	resp_position	resp_choice	choice_rt	resp_too_slow	sample	trigger
318.296875	2	n/a	blockStart	1	n/a	n/a	n/a	n/a	n/a	n/a	n/a	n/a	n/a	162969	250
320.3359375	1	taste	trialStart	1	1	1	foodImage.64	FOODEEG_Images\0647.jpg	NY	Left	No	1.00867870000002	0	164013	251
321.400390625	2	taste	foodImageDisplay	1	1	1	foodImage.64	FOODEEG_Images\0647.jpg	NY	Left	No	1.00867870000002	0	164558	252
323.46484375	1.00867870000002	taste	choicePhaseStart	1	1	1	foodImage.64	FOODEEG_Images\0647.jpg	NY	Left	No	1.00867870000002	0	165615	253
324.466796875	0	taste	response	1	1	1	foodImage.64	FOODEEG_Images\0647.jpg	NY	Left	No	1.00867870000002	0	166128	234
325.5625	1	decision	trialStart	1	2	2	foodImage.82	FOODEEG_Images\0805.jpg	YN	Left	Yes	0.735496700000112	0	166689	251
326.619140625	2	decision	foodImageDisplay	1	2	2	foodImage.82	FOODEEG_Images\0805.jpg	YN	Left	Yes	0.735496700000112	0	167230	252
328.68359375	0.735496700000112	decision	choicePhaseStart	1	2	2	foodImage.82	FOODEEG_Images\0805.jpg	YN	Left	Yes	0.735496700000112	0	168287	253
329.41015625	0	decision	response	1	2	2	foodImage.82	FOODEEG_Images\0805.jpg	YN	Left	Yes	0.735496700000112	0	168659	234
330.4609375	1	taste	trialStart	1	3	3	foodImage.38	FOODEEG_Images\0365.jpg	NY	Right	Yes	1.38624739999977	0	169197	251
331.50390625	2	taste	foodImageDisplay	1	3	3	foodImage.38	FOODEEG_Images\0365.jpg	NY	Right	Yes	1.38624739999977	0	169731	252
333.568359375	1.38624739999977	taste	choicePhaseStart	1	3	3	foodImage.38	FOODEEG_Images\0365.jpg	NY	Right	Yes	1.38624739999977	0	170788	253
334.9453125	0	taste	response	1	3	3	foodImage.38	FOODEEG_Images\0365.jpg	NY	Right	Yes	1.38624739999977	0	171493	235
335.9921875	1	health	trialStart	1	4	4	foodImage.110	FOODEEG_Images\0918.jpg	NY	Right	Yes	1.16168850000031	0	172029	251
337.033203125	2	health	foodImageDisplay	1	4	4	foodImage.110	FOODEEG_Images\0918.jpg	NY	Right	Yes	1.16168850000031	0	172562	252
339.09765625	1.16168850000031	health	choicePhaseStart	1	4	4	foodImage.110	FOODEEG_Images\0918.jpg	NY	Right	Yes	1.16168850000031	0	173619	253
340.25	0	health	response	1	4	4	foodImage.110	FOODEEG_Images\0918.jpg	NY	Right	Yes	1.16168850000031	0	174209	235
341.29296875	1	taste	trialStart	1	5	5	foodImage.17	FOODEEG_Images\0199.jpg	YN	Left	Yes	0.834797599999547	0	174743	251
342.3359375	2	taste	foodImageDisplay	1	5	5	foodImage.17	FOODEEG_Images\0199.jpg	YN	Left	Yes	0.834797599999547	0	175277	252
344.404296875	0.834797599999547	taste	choicePhaseStart	1	5	5	foodImage.17	FOODEEG_Images\0199.jpg	YN	Left	Yes	0.834797599999547	0	176336	253
345.232421875	0	taste	response	1	5	5	foodImage.17	FOODEEG_Images\0199.jpg	YN	Left	Yes	0.834797599999547	0	176760	234
346.283203125	1	health	trialStart	1	6	6	foodImage.80	FOODEEG_Images\0796.jpg	YN	Left	Yes	0.582716099999743	0	177298	251
347.33984375	2	health	foodImageDisplay	1	6	6	foodImage.80	FOODEEG_Images\0796.jpg	YN	Left	Yes	0.582716099999743	0	177839	252
349.404296875	0.582716099999743	health	choicePhaseStart	1	6	6	foodImage.80	FOODEEG_Images\0796.jpg	YN	Left	Yes	0.582716099999743	0	178896	253
349.9765625	0	health	response	1	6	6	foodImage.80	FOODEEG_Images\0796.jpg	YN	Left	Yes	0.582716099999743	0	179189	234
351.02734375	1	health	trialStart	1	7	7	foodImage.83	FOODEEG_Images\0827.jpg	YN	Left	Yes	0.639349199999742	0	179727	251
352.08203125	2	health	foodImageDisplay	1	7	7	foodImage.83	FOODEEG_Images\0827.jpg	YN	Left	Yes	0.639349199999742	0	180267	252
354.146484375	0.639349199999742	health	choicePhaseStart	1	7	7	foodImage.83	FOODEEG_Images\0827.jpg	YN	Left	Yes	0.639349199999742	0	181324	253
354.77734375	0	health	response	1	7	7	foodImage.83	FOODEEG_Images\0827.jpg	YN	Left	Yes	0.639349199999742	0	181647	234
355.8203125	1	taste	trialStart	1	8	8	foodImage.102	FOODEEG_Images\0910.jpg	YN	Right	No	1.10814620000019	0	182181	251
356.859375	2	taste	foodImageDisplay	1	8	8	foodImage.102	FOODEEG_Images\0910.jpg	YN	Right	No	1.10814620000019	0	182713	252
358.923828125	1.10814620000019	taste	choicePhaseStart	1	8	8	foodImage.102	FOODEEG_Images\0910.jpg	YN	Right	No	1.10814620000019	0	183770	253
360.025390625	0	taste	response	1	8	8	foodImage.102	FOODEEG_Images\0910.jpg	YN	Right	No	1.10814620000019	0	184334	235
361.06640625	1	taste	trialStart	1	9	9	foodImage.104	FOODEEG_Images\0912.jpg	YN	Right	No	1.03973780000069	0	184867	251
362.10546875	2	taste	foodImageDisplay	1	9	9	foodImage.104	FOODEEG_Images\0912.jpg	YN	Right	No	1.03973780000069	0	185399	252
364.169921875	1.03973780000069	taste	choicePhaseStart	1	9	9	foodImage.104	FOODEEG_Images\0912.jpg	YN	Right	No	1.03973780000069	0	186456	253
365.201171875	0	taste	response	1	9	9	foodImage.104	FOODEEG_Images\0912.jpg	YN	Right	No	1.03973780000069	0	186984	235
366.2421875	1	health	trialStart	1	10	10	foodImage.27	FOODEEG_Images\0263.jpg	YN	Left	Yes	0.793137599999682	0	187517	251
367.283203125	2	health	foodImageDisplay	1	10	10	foodImage.27	FOODEEG_Images\0263.jpg	YN	Left	Yes	0.793137599999682	0	188050	252
369.349609375	0.793137599999682	health	choicePhaseStart	1	10	10	foodImage.27	FOODEEG_Images\0263.jpg	YN	Left	Yes	0.793137599999682	0	189108	253
370.13671875	0	health	response	1	10	10	foodImage.27	FOODEEG_Images\0263.jpg	YN	Left	Yes	0.793137599999682	0	189511	234
371.177734375	1	taste	trialStart	1	11	11	foodImage.114	FOODEEG_Images\0922.jpg	NY	Left	No	0.909400200000164	0	190044	251
372.21875	2	taste	foodImageDisplay	1	11	11	foodImage.114	FOODEEG_Images\0922.jpg	NY	Left	No	0.909400200000164	0	190577	252
374.283203125	0.909400200000164	taste	choicePhaseStart	1	11	11	foodImage.114	FOODEEG_Images\0922.jpg	NY	Left	No	0.909400200000164	0	191634	253
375.18359375	0	taste	response	1	11	11	foodImage.114	FOODEEG_Images\0922.jpg	NY	Left	No	0.909400200000164	0	192095	234
376.224609375	1	decision	trialStart	1	12	12	foodImage.20	FOODEEG_Images\0226.jpg	NY	Left	No	1.02150679999977	0	192628	251
377.265625	2	decision	foodImageDisplay	1	12	12	foodImage.20	FOODEEG_Images\0226.jpg	NY	Left	No	1.02150679999977	0	193161	252
379.330078125	1.02150679999977	decision	choicePhaseStart	1	12	12	foodImage.20	FOODEEG_Images\0226.jpg	NY	Left	No	1.02150679999977	0	194218	253
380.34375	0	decision	response	1	12	12	foodImage.20	FOODEEG_Images\0226.jpg	NY	Left	No	1.02150679999977	0	194737	234
381.388671875	1	health	trialStart	1	13	13	foodImage.7	FOODEEG_Images\0116.jpg	YN	Right	No	0.62198250000074	0	195272	251
382.439453125	2	health	foodImageDisplay	1	13	13	foodImage.7	FOODEEG_Images\0116.jpg	YN	Right	No	0.62198250000074	0	195810	252
384.50390625	0.62198250000074	health	choicePhaseStart	1	13	13	foodImage.7	FOODEEG_Images\0116.jpg	YN	Right	No	0.62198250000074	0	196867	253
385.12109375	0	health	response	1	13	13	foodImage.7	FOODEEG_Images\0116.jpg	YN	Right	No	0.62198250000074	0	197183	235
386.1640625	1	health	trialStart	1	14	14	foodImage.102	FOODEEG_Images\0910.jpg	NY	Left	No	0.85456669999985	0	197717	251
387.201171875	2	health	foodImageDisplay	1	14	14	foodImage.102	FOODEEG_Images\0910.jpg	NY	Left	No	0.85456669999985	0	198248	252
389.263671875	0.85456669999985	health	choicePhaseStart	1	14	14	foodImage.102	FOODEEG_Images\0910.jpg	NY	Left	No	0.85456669999985	0	199304	253
390.111328125	0	health	response	1	14	14	foodImage.102	FOODEEG_Images\0910.jpg	NY	Left	No	0.85456669999985	0	199738	234
391.150390625	1	health	trialStart	1	15	15	foodImage.49	FOODEEG_Images\0515.jpg	YN	Right	No	1.24206700000013	0	200270	251
392.201171875	2	health	foodImageDisplay	1	15	15	foodImage.49	FOODEEG_Images\0515.jpg	YN	Right	No	1.24206700000013	0	200808	252
394.26171875	1.24206700000013	health	choicePhaseStart	1	15	15	foodImage.49	FOODEEG_Images\0515.jpg	YN	Right	No	1.24206700000013	0	201863	253
395.49609375	0	health	response	1	15	15	foodImage.49	FOODEEG_Images\0515.jpg	YN	Right	No	1.24206700000013	0	202495	235
396.537109375	1	taste	trialStart	1	16	16	foodImage.20	FOODEEG_Images\0226.jpg	NY	Left	No	0.711794600000758	0	203028	251
397.576171875	2	taste	foodImageDisplay	1	16	16	foodImage.20	FOODEEG_Images\0226.jpg	NY	Left	No	0.711794600000758	0	203560	252
399.640625	0.711794600000758	taste	choicePhaseStart	1	16	16	foodImage.20	FOODEEG_Images\0226.jpg	NY	Left	No	0.711794600000758	0	204617	253
400.34375	0	taste	response	1	16	16	foodImage.20	FOODEEG_Images\0226.jpg	NY	Left	No	0.711794600000758	0	204977	234
401.384765625	1	taste	trialStart	1	17	17	foodImage.90	FOODEEG_Images\0890.jpg	NY	Right	Yes	1.11484469999959	0	205510	251
402.44140625	2	taste	foodImageDisplay	1	17	17	foodImage.90	FOODEEG_Images\0890.jpg	NY	Right	Yes	1.11484469999959	0	206051	252
404.509765625	1.11484469999959	taste	choicePhaseStart	1	17	17	foodImage.90	FOODEEG_Images\0890.jpg	NY	Right	Yes	1.11484469999959	0	207110	253
405.615234375	0	taste	response	1	17	17	foodImage.90	FOODEEG_Images\0890.jpg	NY	Right	Yes	1.11484469999959	0	207676	235
406.662109375	1	taste	trialStart	1	18	18	foodImage.13	FOODEEG_Images\0183.jpg	NY	Right	Yes	0.757775600000059	0	208212	251
407.70703125	2	taste	foodImageDisplay	1	18	18	foodImage.13	FOODEEG_Images\0183.jpg	NY	Right	Yes	0.757775600000059	0	208747	252
409.76953125	0.757775600000059	taste	choicePhaseStart	1	18	18	foodImage.13	FOODEEG_Images\0183.jpg	NY	Right	Yes	0.757775600000059	0	209803	253
410.517578125	0	taste	response	1	18	18	foodImage.13	FOODEEG_Images\0183.jpg	NY	Right	Yes	0.757775600000059	0	210186	235
411.560546875	1	health	trialStart	1	19	19	foodImage.107	FOODEEG_Images\0915.jpg	YN	Left	Yes	1.55310920000011	0	210720	251
412.599609375	2	health	foodImageDisplay	1	19	19	foodImage.107	FOODEEG_Images\0915.jpg	YN	Left	Yes	1.55310920000011	0	211252	252
414.662109375	1.55310920000011	health	choicePhaseStart	1	19	19	foodImage.107	FOODEEG_Images\0915.jpg	YN	Left	Yes	1.55310920000011	0	212308	253
416.20703125	0	health	response	1	19	19	foodImage.107	FOODEEG_Images\0915.jpg	YN	Left	Yes	1.55310920000011	0	213099	234
417.24609375	1	taste	trialStart	1	20	20	foodImage.72	FOODEEG_Images\0714.jpg	NY	Right	Yes	0.927529199999299	0	213631	251
418.296875	2	taste	foodImageDisplay	1	20	20	foodImage.72	FOODEEG_Images\0714.jpg	NY	Right	Yes	0.927529199999299	0	214169	252
420.359375	0.927529199999299	taste	choicePhaseStart	1	20	20	foodImage.72	FOODEEG_Images\0714.jpg	NY	Right	Yes	0.927529199999299	0	215225	253
421.27734375	0	taste	response	1	20	20	foodImage.72	FOODEEG_Images\0714.jpg	NY	Right	Yes	0.927529199999299	0	215695	235
422.318359375	1	health	trialStart	1	21	21	foodImage.97	FOODEEG_Images\0905.jpg	NY	Left	No	0.623565599999893	0	216228	251
423.375	2	health	foodImageDisplay	1	21	21	foodImage.97	FOODEEG_Images\0905.jpg	NY	Left	No	0.623565599999893	0	216769	252
425.439453125	0.623565599999893	health	choicePhaseStart	1	21	21	foodImage.97	FOODEEG_Images\0905.jpg	NY	Left	No	0.623565599999893	0	217826	253
426.052734375	0	health	response	1	21	21	foodImage.97	FOODEEG_Images\0905.jpg	NY	Left	No	0.623565599999893	0	218140	234
427.095703125	1	decision	trialStart	1	22	22	foodImage.100	FOODEEG_Images\0908.jpg	YN	Left	Yes	0.67084419999992	0	218674	251
428.14453125	2	decision	foodImageDisplay	1	22	22	foodImage.100	FOODEEG_Images\0908.jpg	YN	Left	Yes	0.67084419999992	0	219211	252
430.208984375	0.67084419999992	decision	choicePhaseStart	1	22	22	foodImage.100	FOODEEG_Images\0908.jpg	YN	Left	Yes	0.67084419999992	0	220268	253
430.869140625	0	decision	response	1	22	22	foodImage.100	FOODEEG_Images\0908.jpg	YN	Left	Yes	0.67084419999992	0	220606	234
431.91015625	1	taste	trialStart	1	23	23	foodImage.63	FOODEEG_Images\0645.jpg	NY	Right	Yes	0.791050100000575	0	221139	251
432.953125	2	taste	foodImageDisplay	1	23	23	foodImage.63	FOODEEG_Images\0645.jpg	NY	Right	Yes	0.791050100000575	0	221673	252
435.015625	0.791050100000575	taste	choicePhaseStart	1	23	23	foodImage.63	FOODEEG_Images\0645.jpg	NY	Right	Yes	0.791050100000575	0	222729	253
435.796875	0	taste	response	1	23	23	foodImage.63	FOODEEG_Images\0645.jpg	NY	Right	Yes	0.791050100000575	0	223129	235
436.845703125	1	health	trialStart	1	24	24	foodImage.19	FOODEEG_Images\0225.jpg	YN	Left	Yes	0.573347799999283	0	223666	251
437.896484375	2	health	foodImageDisplay	1	24	24	foodImage.19	FOODEEG_Images\0225.jpg	YN	Left	Yes	0.573347799999283	0	224204	252
439.9609375	0.573347799999283	health	choicePhaseStart	1	24	24	foodImage.19	FOODEEG_Images\0225.jpg	YN	Left	Yes	0.573347799999283	0	225261	253
440.525390625	0	health	response	1	24	24	foodImage.19	FOODEEG_Images\0225.jpg	YN	Left	Yes	0.573347799999283	0	225550	234
441.56640625	1	taste	trialStart	1	25	25	foodImage.99	FOODEEG_Images\0907.jpg	YN	Right	No	0.698201300000619	0	226083	251
442.60546875	2	taste	foodImageDisplay	1	25	25	foodImage.99	FOODEEG_Images\0907.jpg	YN	Right	No	0.698201300000619	0	226615	252
444.66796875	0.698201300000619	taste	choicePhaseStart	1	25	25	foodImage.99	FOODEEG_Images\0907.jpg	YN	Right	No	0.698201300000619	0	227671	253
445.357421875	0	taste	response	1	25	25	foodImage.99	FOODEEG_Images\0907.jpg	YN	Right	No	0.698201300000619	0	228024	235
446.3984375	1	health	trialStart	1	26	26	foodImage.98	FOODEEG_Images\0906.jpg	YN	Right	No	0.607387000000017	0	228557	251
447.455078125	2	health	foodImageDisplay	1	26	26	foodImage.98	FOODEEG_Images\0906.jpg	YN	Right	No	0.607387000000017	0	229098	252
449.517578125	0.607387000000017	health	choicePhaseStart	1	26	26	foodImage.98	FOODEEG_Images\0906.jpg	YN	Right	No	0.607387000000017	0	230154	253
450.1171875	0	health	response	1	26	26	foodImage.98	FOODEEG_Images\0906.jpg	YN	Right	No	0.607387000000017	0	230461	235
451.15625	1	health	trialStart	1	27	27	foodImage.34	FOODEEG_Images\0339.jpg	NY	Left	No	0.717773800000032	0	230993	251
452.240234375	2	health	foodImageDisplay	1	27	27	foodImage.34	FOODEEG_Images\0339.jpg	NY	Left	No	0.717773800000032	0	231548	252
454.3046875	0.717773800000032	health	choicePhaseStart	1	27	27	foodImage.34	FOODEEG_Images\0339.jpg	NY	Left	No	0.717773800000032	0	232605	253
455.013671875	0	health	response	1	27	27	foodImage.34	FOODEEG_Images\0339.jpg	NY	Left	No	0.717773800000032	0	232968	234
456.052734375	1	taste	trialStart	1	28	28	foodImage.85	FOODEEG_Images\0841.jpg	NY	Right	Yes	0.624201800000264	0	233500	251
457.109375	2	taste	foodImageDisplay	1	28	28	foodImage.85	FOODEEG_Images\0841.jpg	NY	Right	Yes	0.624201800000264	0	234041	252
459.171875	0.624201800000264	taste	choicePhaseStart	1	28	28	foodImage.85	FOODEEG_Images\0841.jpg	NY	Right	Yes	0.624201800000264	0	235097	253
459.7890625	0	taste	response	1	28	28	foodImage.85	FOODEEG_Images\0841.jpg	NY	Right	Yes	0.624201800000264	0	235413	235
460.833984375	1	health	trialStart	1	29	29	foodImage.13	FOODEEG_Images\0183.jpg	NY	Right	Yes	0.67438730000049	0	235948	251
461.875	2	health	foodImageDisplay	1	29	29	foodImage.13	FOODEEG_Images\0183.jpg	NY	Right	Yes	0.67438730000049	0	236481	252
463.9375	0.67438730000049	health	choicePhaseStart	1	29	29	foodImage.13	FOODEEG_Images\0183.jpg	NY	Right	Yes	0.67438730000049	0	237537	253
464.603515625	0	health	response	1	29	29	foodImage.13	FOODEEG_Images\0183.jpg	NY	Right	Yes	0.67438730000049	0	237878	235
465.64453125	1	taste	trialStart	1	30	30	foodImage.14	FOODEEG_Images\0188.jpg	NY	Right	Yes	0.687215400000241	0	238411	251
466.7265625	2	taste	foodImageDisplay	1	30	30	foodImage.14	FOODEEG_Images\0188.jpg	NY	Right	Yes	0.687215400000241	0	238965	252
468.791015625	0.687215400000241	taste	choicePhaseStart	1	30	30	foodImage.14	FOODEEG_Images\0188.jpg	NY	Right	Yes	0.687215400000241	0	240022	253
469.46875	0	taste	response	1	30	30	foodImage.14	FOODEEG_Images\0188.jpg	NY	Right	Yes	0.687215400000241	0	240369	235
470.509765625	1	decision	trialStart	1	31	31	foodImage.119	FOODEEG_Images\0927.jpg	NY	Left	No	0.718586799999684	0	240902	251
471.55078125	2	decision	foodImageDisplay	1	31	31	foodImage.119	FOODEEG_Images\0927.jpg	NY	Left	No	0.718586799999684	0	241435	252
473.615234375	0.718586799999684	decision	choicePhaseStart	1	31	31	foodImage.119	FOODEEG_Images\0927.jpg	NY	Left	No	0.718586799999684	0	242492	253
474.32421875	0	decision	response	1	31	31	foodImage.119	FOODEEG_Images\0927.jpg	NY	Left	No	0.718586799999684	0	242855	234
475.3671875	1	decision	trialStart	1	32	32	foodImage.18	FOODEEG_Images\0202.jpg	NY	Right	Yes	0.963848200000029	0	243389	251
476.423828125	2	decision	foodImageDisplay	1	32	32	foodImage.18	FOODEEG_Images\0202.jpg	NY	Right	Yes	0.963848200000029	0	243930	252
478.48828125	0.963848200000029	decision	choicePhaseStart	1	32	32	foodImage.18	FOODEEG_Images\0202.jpg	NY	Right	Yes	0.963848200000029	0	244987	253
479.443359375	0	decision	response	1	32	32	foodImage.18	FOODEEG_Images\0202.jpg	NY	Right	Yes	0.963848200000029	0	245476	235
480.484375	1	taste	trialStart	1	33	33	foodImage.26	FOODEEG_Images\0262.jpg	YN	Right	No	1.1193489999996	0	246009	251
481.53515625	2	taste	foodImageDisplay	1	33	33	foodImage.26	FOODEEG_Images\0262.jpg	YN	Right	No	1.1193489999996	0	246547	252
483.59765625	1.1193489999996	taste	choicePhaseStart	1	33	33	foodImage.26	FOODEEG_Images\0262.jpg	YN	Right	No	1.1193489999996	0	247603	253
484.70703125	0	taste	response	1	33	33	foodImage.26	FOODEEG_Images\0262.jpg	YN	Right	No	1.1193489999996	0	248171	235
485.748046875	1	decision	trialStart	1	34	34	foodImage.115	FOODEEG_Images\0923.jpg	NY	Left	No	0.723982399999841	0	248704	251
486.787109375	2	decision	foodImageDisplay	1	34	34	foodImage.115	FOODEEG_Images\0923.jpg	NY	Left	No	0.723982399999841	0	249236	252
488.857421875	0.723982399999841	decision	choicePhaseStart	1	34	34	foodImage.115	FOODEEG_Images\0923.jpg	NY	Left	No	0.723982399999841	0	250296	253
489.5703125	0	decision	response	1	34	34	foodImage.115	FOODEEG_Images\0923.jpg	NY	Left	No	0.723982399999841	0	250661	234
490.615234375	1	health	trialStart	1	35	35	foodImage.84	FOODEEG_Images\0830.jpg	YN	Left	Yes	0.579725399999916	0	251196	251
491.673828125	2	health	foodImageDisplay	1	35	35	foodImage.84	FOODEEG_Images\0830.jpg	YN	Left	Yes	0.579725399999916	0	251738	252
493.736328125	0.579725399999916	health	choicePhaseStart	1	35	35	foodImage.84	FOODEEG_Images\0830.jpg	YN	Left	Yes	0.579725399999916	0	252794	253
494.306640625	0	health	response	1	35	35	foodImage.84	FOODEEG_Images\0830.jpg	YN	Left	Yes	0.579725399999916	0	253086	234
495.34765625	1	decision	trialStart	1	36	36	foodImage.89	FOODEEG_Images\0881.jpg	YN	Left	Yes	0.698847100000421	0	253619	251
496.40234375	2	decision	foodImageDisplay	1	36	36	foodImage.89	FOODEEG_Images\0881.jpg	YN	Left	Yes	0.698847100000421	0	254159	252
498.46484375	0.698847100000421	decision	choicePhaseStart	1	36	36	foodImage.89	FOODEEG_Images\0881.jpg	YN	Left	Yes	0.698847100000421	0	255215	253
499.154296875	0	decision	response	1	36	36	foodImage.89	FOODEEG_Images\0881.jpg	YN	Left	Yes	0.698847100000421	0	255568	234
500.197265625	1	decision	trialStart	1	37	37	foodImage.102	FOODEEG_Images\0910.jpg	YN	Right	No	0.880033099999309	0	256102	251
501.236328125	2	decision	foodImageDisplay	1	37	37	foodImage.102	FOODEEG_Images\0910.jpg	YN	Right	No	0.880033099999309	0	256634	252
503.298828125	0.880033099999309	decision	choicePhaseStart	1	37	37	foodImage.102	FOODEEG_Images\0910.jpg	YN	Right	No	0.880033099999309	0	257690	253
504.169921875	0	decision	response	1	37	37	foodImage.102	FOODEEG_Images\0910.jpg	YN	Right	No	0.880033099999309	0	258136	235
505.2109375	1	decision	trialStart	1	38	38	foodImage.120	FOODEEG_Images\0928.jpg	YN	Right	No	0.614159900000232	0	258669	251
506.26171875	2	decision	foodImageDisplay	1	38	38	foodImage.120	FOODEEG_Images\0928.jpg	YN	Right	No	0.614159900000232	0	259207	252
508.326171875	0.614159900000232	decision	choicePhaseStart	1	38	38	foodImage.120	FOODEEG_Images\0928.jpg	YN	Right	No	0.614159900000232	0	260264	253
508.9296875	0	decision	response	1	38	38	foodImage.120	FOODEEG_Images\0928.jpg	YN	Right	No	0.614159900000232	0	260573	235
509.970703125	1	taste	trialStart	1	39	39	foodImage.118	FOODEEG_Images\0926.jpg	YN	Right	No	0.661426699999538	0	261106	251
511.0234375	2	taste	foodImageDisplay	1	39	39	foodImage.118	FOODEEG_Images\0926.jpg	YN	Right	No	0.661426699999538	0	261645	252
513.0859375	0.661426699999538	taste	choicePhaseStart	1	39	39	foodImage.118	FOODEEG_Images\0926.jpg	YN	Right	No	0.661426699999538	0	262701	253
513.73828125	0	taste	response	1	39	39	foodImage.118	FOODEEG_Images\0926.jpg	YN	Right	No	0.661426699999538	0	263035	235
514.779296875	1	health	trialStart	1	40	40	foodImage.76	FOODEEG_Images\0766.jpg	NY	Right	Yes	0.593346599999677	0	263568	251
515.826171875	2	health	foodImageDisplay	1	40	40	foodImage.76	FOODEEG_Images\0766.jpg	NY	Right	Yes	0.593346599999677	0	264104	252
517.888671875	0.593346599999677	health	choicePhaseStart	1	40	40	foodImage.76	FOODEEG_Images\0766.jpg	NY	Right	Yes	0.593346599999677	0	265160	253
518.474609375	0	health	response	1	40	40	foodImage.76	FOODEEG_Images\0766.jpg	NY	Right	Yes	0.593346599999677	0	265460	235
519.521484375	1	health	trialStart	1	41	41	foodImage.96	FOODEEG_Images\0904.jpg	NY	Right	Yes	0.993202900000142	0	265996	251
520.5625	2	health	foodImageDisplay	1	41	41	foodImage.96	FOODEEG_Images\0904.jpg	NY	Right	Yes	0.993202900000142	0	266529	252
522.625	0.993202900000142	health	choicePhaseStart	1	41	41	foodImage.96	FOODEEG_Images\0904.jpg	NY	Right	Yes	0.993202900000142	0	267585	253
523.609375	0	health	response	1	41	41	foodImage.96	FOODEEG_Images\0904.jpg	NY	Right	Yes	0.993202900000142	0	268089	235
524.650390625	1	taste	trialStart	1	42	42	foodImage.8	FOODEEG_Images\0136.jpg	NY	Right	Yes	0.632620499999575	0	268622	251
525.693359375	2	taste	foodImageDisplay	1	42	42	foodImage.8	FOODEEG_Images\0136.jpg	NY	Right	Yes	0.632620499999575	0	269156	252
527.755859375	0.632620499999575	taste	choicePhaseStart	1	42	42	foodImage.8	FOODEEG_Images\0136.jpg	NY	Right	Yes	0.632620499999575	0	270212	253
528.376953125	0	taste	response	1	42	42	foodImage.8	FOODEEG_Images\0136.jpg	NY	Right	Yes	0.632620499999575	0	270530	235
529.419921875	1	taste	trialStart	1	43	43	foodImage.119	FOODEEG_Images\0927.jpg	NY	Left	No	0.663840700000037	0	271064	251
530.45703125	2	taste	foodImageDisplay	1	43	43	foodImage.119	FOODEEG_Images\0927.jpg	NY	Left	No	0.663840700000037	0	271595	252
532.51953125	0.663840700000037	taste	choicePhaseStart	1	43	43	foodImage.119	FOODEEG_Images\0927.jpg	NY	Left	No	0.663840700000037	0	272651	253
533.177734375	0	taste	response	1	43	43	foodImage.119	FOODEEG_Images\0927.jpg	NY	Left	No	0.663840700000037	0	272988	234
534.21875	1	health	trialStart	1	44	44	foodImage.117	FOODEEG_Images\0925.jpg	YN	Right	No	1.04869869999948	0	273521	251
535.2578125	2	health	foodImageDisplay	1	44	44	foodImage.117	FOODEEG_Images\0925.jpg	YN	Right	No	1.04869869999948	0	274053	252
537.322265625	1.04869869999948	health	choicePhaseStart	1	44	44	foodImage.117	FOODEEG_Images\0925.jpg	YN	Right	No	1.04869869999948	0	275110	253
538.361328125	0	health	response	1	44	44	foodImage.117	FOODEEG_Images\0925.jpg	YN	Right	No	1.04869869999948	0	275642	235
539.404296875	1	taste	trialStart	1	45	45	foodImage.96	FOODEEG_Images\0904.jpg	NY	Right	Yes	0.792903300000035	0	276176	251
540.443359375	2	taste	foodImageDisplay	1	45	45	foodImage.96	FOODEEG_Images\0904.jpg	NY	Right	Yes	0.792903300000035	0	276708	252
542.51171875	0.792903300000035	taste	choicePhaseStart	1	45	45	foodImage.96	FOODEEG_Images\0904.jpg	NY	Right	Yes	0.792903300000035	0	277767	253
543.296875	0	taste	response	1	45	45	foodImage.96	FOODEEG_Images\0904.jpg	NY	Right	Yes	0.792903300000035	0	278169	235
544.337890625	1	health	trialStart	1	46	46	foodImage.101	FOODEEG_Images\0909.jpg	YN	Right	No	0.883713299999727	0	278702	251
545.375	2	health	foodImageDisplay	1	46	46	foodImage.101	FOODEEG_Images\0909.jpg	YN	Right	No	0.883713299999727	0	279233	252
547.4453125	0.883713299999727	health	choicePhaseStart	1	46	46	foodImage.101	FOODEEG_Images\0909.jpg	YN	Right	No	0.883713299999727	0	280293	253
548.3203125	0	health	response	1	46	46	foodImage.101	FOODEEG_Images\0909.jpg	YN	Right	No	0.883713299999727	0	280741	235
549.361328125	1	decision	trialStart	1	47	47	foodImage.97	FOODEEG_Images\0905.jpg	NY	Left	No	0.730427699999382	0	281274	251
550.400390625	2	decision	foodImageDisplay	1	47	47	foodImage.97	FOODEEG_Images\0905.jpg	NY	Left	No	0.730427699999382	0	281806	252
552.46484375	0.730427699999382	decision	choicePhaseStart	1	47	47	foodImage.97	FOODEEG_Images\0905.jpg	NY	Left	No	0.730427699999382	0	282863	253
553.18359375	0	decision	response	1	47	47	foodImage.97	FOODEEG_Images\0905.jpg	NY	Left	No	0.730427699999382	0	283231	234
554.23046875	1	health	trialStart	1	48	48	foodImage.112	FOODEEG_Images\0920.jpg	YN	Right	No	0.988438899999892	0	283767	251
555.26953125	2	health	foodImageDisplay	1	48	48	foodImage.112	FOODEEG_Images\0920.jpg	YN	Right	No	0.988438899999892	0	284299	252
557.33203125	0.988438899999892	health	choicePhaseStart	1	48	48	foodImage.112	FOODEEG_Images\0920.jpg	YN	Right	No	0.988438899999892	0	285355	253
558.3125	0	health	response	1	48	48	foodImage.112	FOODEEG_Images\0920.jpg	YN	Right	No	0.988438899999892	0	285857	235
559.361328125	1	taste	trialStart	1	49	49	foodImage.74	FOODEEG_Images\0752.jpg	NY	Right	Yes	0.736649200000102	0	286394	251
560.408203125	2	taste	foodImageDisplay	1	49	49	foodImage.74	FOODEEG_Images\0752.jpg	NY	Right	Yes	0.736649200000102	0	286930	252
562.470703125	0.736649200000102	taste	choicePhaseStart	1	49	49	foodImage.74	FOODEEG_Images\0752.jpg	NY	Right	Yes	0.736649200000102	0	287986	253
563.201171875	0	taste	response	1	49	49	foodImage.74	FOODEEG_Images\0752.jpg	NY	Right	Yes	0.736649200000102	0	288360	235
564.240234375	1	decision	trialStart	1	50	50	foodImage.99	FOODEEG_Images\0907.jpg	NY	Left	No	0.611106499999551	0	288892	251
565.279296875	2	decision	foodImageDisplay	1	50	50	foodImage.99	FOODEEG_Images\0907.jpg	NY	Left	No	0.611106499999551	0	289424	252
567.341796875	0.611106499999551	decision	choicePhaseStart	1	50	50	foodImage.99	FOODEEG_Images\0907.jpg	NY	Left	No	0.611106499999551	0	290480	253
567.943359375	0	decision	response	1	50	50	foodImage.99	FOODEEG_Images\0907.jpg	NY	Left	No	0.611106499999551	0	290788	234
568.990234375	1	taste	trialStart	1	51	51	foodImage.28	FOODEEG_Images\0273.jpg	YN	Left	Yes	0.835144099999525	0	291324	251
570.052734375	2	taste	foodImageDisplay	1	51	51	foodImage.28	FOODEEG_Images\0273.jpg	YN	Left	Yes	0.835144099999525	0	291868	252
572.1171875	0.835144099999525	taste	choicePhaseStart	1	51	51	foodImage.28	FOODEEG_Images\0273.jpg	YN	Left	Yes	0.835144099999525	0	292925	253
572.943359375	0	taste	response	1	51	51	foodImage.28	FOODEEG_Images\0273.jpg	YN	Left	Yes	0.835144099999525	0	293348	234
573.984375	1	decision	trialStart	1	52	52	foodImage.94	FOODEEG_Images\0902.jpg	NY	Right	Yes	0.952519600000414	0	293881	251
575.025390625	2	decision	foodImageDisplay	1	52	52	foodImage.94	FOODEEG_Images\0902.jpg	NY	Right	Yes	0.952519600000414	0	294414	252
577.087890625	0.952519600000414	decision	choicePhaseStart	1	52	52	foodImage.94	FOODEEG_Images\0902.jpg	NY	Right	Yes	0.952519600000414	0	295470	253
578.03125	0	decision	response	1	52	52	foodImage.94	FOODEEG_Images\0902.jpg	NY	Right	Yes	0.952519600000414	0	295953	235
579.072265625	1	decision	trialStart	1	53	53	foodImage.96	FOODEEG_Images\0904.jpg	NY	Left	No	0.568217699999877	0	296486	251
580.12890625	2	decision	foodImageDisplay	1	53	53	foodImage.96	FOODEEG_Images\0904.jpg	NY	Left	No	0.568217699999877	0	297027	252
582.19140625	0.568217699999877	decision	choicePhaseStart	1	53	53	foodImage.96	FOODEEG_Images\0904.jpg	NY	Left	No	0.568217699999877	0	298083	253
582.751953125	0	decision	response	1	53	53	foodImage.96	FOODEEG_Images\0904.jpg	NY	Left	No	0.568217699999877	0	298370	234
583.802734375	1	health	trialStart	1	54	54	foodImage.57	FOODEEG_Images\0587.jpg	YN	Right	No	0.807120399999803	0	298908	251
584.85546875	2	health	foodImageDisplay	1	54	54	foodImage.57	FOODEEG_Images\0587.jpg	YN	Right	No	0.807120399999803	0	299447	252
586.921875	0.807120399999803	health	choicePhaseStart	1	54	54	foodImage.57	FOODEEG_Images\0587.jpg	YN	Right	No	0.807120399999803	0	300505	253
587.71875	0	health	response	1	54	54	foodImage.57	FOODEEG_Images\0587.jpg	YN	Right	No	0.807120399999803	0	300913	235
588.76171875	1	decision	trialStart	1	55	55	foodImage.56	FOODEEG_Images\0586.jpg	YN	Left	Yes	0.899698299999727	0	301447	251
589.8046875	2	decision	foodImageDisplay	1	55	55	foodImage.56	FOODEEG_Images\0586.jpg	YN	Left	Yes	0.899698299999727	0	301981	252
591.869140625	0.899698299999727	decision	choicePhaseStart	1	55	55	foodImage.56	FOODEEG_Images\0586.jpg	YN	Left	Yes	0.899698299999727	0	303038	253
592.759765625	0	decision	response	1	55	55	foodImage.56	FOODEEG_Images\0586.jpg	YN	Left	Yes	0.899698299999727	0	303494	234
593.80078125	1	decision	trialStart	1	56	56	foodImage.92	FOODEEG_Images\0900.jpg	YN	Right	No	0.639490000000478	0	304027	251
594.841796875	2	decision	foodImageDisplay	1	56	56	foodImage.92	FOODEEG_Images\0900.jpg	YN	Right	No	0.639490000000478	0	304560	252
596.904296875	0.639490000000478	decision	choicePhaseStart	1	56	56	foodImage.92	FOODEEG_Images\0900.jpg	YN	Right	No	0.639490000000478	0	305616	253
597.53515625	0	decision	response	1	56	56	foodImage.92	FOODEEG_Images\0900.jpg	YN	Right	No	0.639490000000478	0	305939	235
598.576171875	1	taste	trialStart	1	57	57	foodImage.76	FOODEEG_Images\0766.jpg	YN	Left	Yes	0.732694199999969	0	306472	251
599.640625	2	taste	foodImageDisplay	1	57	57	foodImage.76	FOODEEG_Images\0766.jpg	YN	Left	Yes	0.732694199999969	0	307017	252
601.70703125	0.732694199999969	taste	choicePhaseStart	1	57	57	foodImage.76	FOODEEG_Images\0766.jpg	YN	Left	Yes	0.732694199999969	0	308075	253
602.431640625	0	taste	response	1	57	57	foodImage.76	FOODEEG_Images\0766.jpg	YN	Left	Yes	0.732694199999969	0	308446	234
603.474609375	1	decision	trialStart	1	58	58	foodImage.15	FOODEEG_Images\0189.jpg	NY	Right	Yes	0.846309800000199	0	308980	251
604.53125	2	decision	foodImageDisplay	1	58	58	foodImage.15	FOODEEG_Images\0189.jpg	NY	Right	Yes	0.846309800000199	0	309521	252
606.59375	0.846309800000199	decision	choicePhaseStart	1	58	58	foodImage.15	FOODEEG_Images\0189.jpg	NY	Right	Yes	0.846309800000199	0	310577	253
607.431640625	0	decision	response	1	58	58	foodImage.15	FOODEEG_Images\0189.jpg	NY	Right	Yes	0.846309800000199	0	311006	235
608.478515625	1	taste	trialStart	1	59	59	foodImage.73	FOODEEG_Images\0717.jpg	NY	Right	Yes	0.623290099999394	0	311542	251
609.560546875	2	taste	foodImageDisplay	1	59	59	foodImage.73	FOODEEG_Images\0717.jpg	NY	Right	Yes	0.623290099999394	0	312096	252
611.623046875	0.623290099999394	taste	choicePhaseStart	1	59	59	foodImage.73	FOODEEG_Images\0717.jpg	NY	Right	Yes	0.623290099999394	0	313152	253
612.23828125	0	taste	response	1	59	59	foodImage.73	FOODEEG_Images\0717.jpg	NY	Right	Yes	0.623290099999394	0	313467	235
613.279296875	1	health	trialStart	1	60	60	foodImage.106	FOODEEG_Images\0914.jpg	NY	Right	Yes	0.936867200000052	0	314000	251
614.318359375	2	health	foodImageDisplay	1	60	60	foodImage.106	FOODEEG_Images\0914.jpg	NY	Right	Yes	0.936867200000052	0	314532	252
616.3828125	0.936867200000052	health	choicePhaseStart	1	60	60	foodImage.106	FOODEEG_Images\0914.jpg	NY	Right	Yes	0.936867200000052	0	315589	253
617.310546875	0	health	response	1	60	60	foodImage.106	FOODEEG_Images\0914.jpg	NY	Right	Yes	0.936867200000052	0	316064	235
619.349609375	13.9921875	n/a	blockEnd	n/a	n/a	n/a	n/a	n/a	n/a	n/a	n/a	n/a	n/a	317108	254
633.341796875	2	n/a	blockStart	2	n/a	n/a	n/a	n/a	n/a	n/a	n/a	n/a	n/a	324272	250
635.376953125	1	taste	trialStart	2	61	1	foodImage.83	FOODEEG_Images\0827.jpg	YN	Left	Yes	0.609776700000111	0	325314	251
636.435546875	2	taste	foodImageDisplay	2	61	1	foodImage.83	FOODEEG_Images\0827.jpg	YN	Left	Yes	0.609776700000111	0	325856	252
638.5	0.609776700000111	taste	choicePhaseStart	2	61	1	foodImage.83	FOODEEG_Images\0827.jpg	YN	Left	Yes	0.609776700000111	0	326913	253
639.1015625	0	taste	response	2	61	1	foodImage.83	FOODEEG_Images\0827.jpg	YN	Left	Yes	0.609776700000111	0	327221	234
640.140625	1	health	trialStart	2	62	2	foodImage.113	FOODEEG_Images\0921.jpg	YN	Right	No	0.833941299999424	0	327753	251
641.1796875	2	health	foodImageDisplay	2	62	2	foodImage.113	FOODEEG_Images\0921.jpg	YN	Right	No	0.833941299999424	0	328285	252
643.244140625	0.833941299999424	health	choicePhaseStart	2	62	2	foodImage.113	FOODEEG_Images\0921.jpg	YN	Right	No	0.833941299999424	0	329342	253
644.068359375	0	health	response	2	62	2	foodImage.113	FOODEEG_Images\0921.jpg	YN	Right	No	0.833941299999424	0	329764	235
645.109375	1	decision	trialStart	2	63	3	foodImage.9	FOODEEG_Images\0138.jpg	YN	Left	Yes	0.90288370000053	0	330297	251
646.16796875	2	decision	foodImageDisplay	2	63	3	foodImage.9	FOODEEG_Images\0138.jpg	YN	Left	Yes	0.90288370000053	0	330839	252
648.23046875	0.90288370000053	decision	choicePhaseStart	2	63	3	foodImage.9	FOODEEG_Images\0138.jpg	YN	Left	Yes	0.90288370000053	0	331895	253
649.125	0	decision	response	2	63	3	foodImage.9	FOODEEG_Images\0138.jpg	YN	Left	Yes	0.90288370000053	0	332353	234
650.166015625	1	decision	trialStart	2	64	4	foodImage.84	FOODEEG_Images\0830.jpg	NY	Right	Yes	0.792028099999698	0	332886	251
651.22265625	2	decision	foodImageDisplay	2	64	4	foodImage.84	FOODEEG_Images\0830.jpg	NY	Right	Yes	0.792028099999698	0	333427	252
653.291015625	0.792028099999698	decision	choicePhaseStart	2	64	4	foodImage.84	FOODEEG_Images\0830.jpg	NY	Right	Yes	0.792028099999698	0	334486	253
654.076171875	0	decision	response	2	64	4	foodImage.84	FOODEEG_Images\0830.jpg	NY	Right	Yes	0.792028099999698	0	334888	235
655.12109375	1	health	trialStart	2	65	5	foodImage.87	FOODEEG_Images\0873.jpg	NY	Right	Yes	0.68501759999981	0	335423	251
656.177734375	2	health	foodImageDisplay	2	65	5	foodImage.87	FOODEEG_Images\0873.jpg	NY	Right	Yes	0.68501759999981	0	335964	252
658.240234375	0.68501759999981	health	choicePhaseStart	2	65	5	foodImage.87	FOODEEG_Images\0873.jpg	NY	Right	Yes	0.68501759999981	0	337020	253
658.916015625	0	health	response	2	65	5	foodImage.87	FOODEEG_Images\0873.jpg	NY	Right	Yes	0.68501759999981	0	337366	235
659.958984375	1	decision	trialStart	2	66	6	foodImage.109	FOODEEG_Images\0917.jpg	NY	Left	No	0.637823400000343	0	337900	251
661	2	decision	foodImageDisplay	2	66	6	foodImage.109	FOODEEG_Images\0917.jpg	NY	Left	No	0.637823400000343	0	338433	252
663.0625	0.637823400000343	decision	choicePhaseStart	2	66	6	foodImage.109	FOODEEG_Images\0917.jpg	NY	Left	No	0.637823400000343	0	339489	253
663.69140625	0	decision	response	2	66	6	foodImage.109	FOODEEG_Images\0917.jpg	NY	Left	No	0.637823400000343	0	339811	234
664.736328125	1	taste	trialStart	2	67	7	foodImage.39	FOODEEG_Images\0367.jpg	YN	Left	Yes	0.837608499999988	0	340346	251
665.775390625	2	taste	foodImageDisplay	2	67	7	foodImage.39	FOODEEG_Images\0367.jpg	YN	Left	Yes	0.837608499999988	0	340878	252
667.83984375	0.837608499999988	taste	choicePhaseStart	2	67	7	foodImage.39	FOODEEG_Images\0367.jpg	YN	Left	Yes	0.837608499999988	0	341935	253
668.66796875	0	taste	response	2	67	7	foodImage.39	FOODEEG_Images\0367.jpg	YN	Left	Yes	0.837608499999988	0	342359	234
669.708984375	1	taste	trialStart	2	68	8	foodImage.79	FOODEEG_Images\0794.jpg	NY	Right	Yes	0.748552100000779	0	342892	251
670.75390625	2	taste	foodImageDisplay	2	68	8	foodImage.79	FOODEEG_Images\0794.jpg	NY	Right	Yes	0.748552100000779	0	343427	252
672.81640625	0.748552100000779	taste	choicePhaseStart	2	68	8	foodImage.79	FOODEEG_Images\0794.jpg	NY	Right	Yes	0.748552100000779	0	344483	253
673.556640625	0	taste	response	2	68	8	foodImage.79	FOODEEG_Images\0794.jpg	NY	Right	Yes	0.748552100000779	0	344862	235
674.59765625	1	decision	trialStart	2	69	9	foodImage.53	FOODEEG_Images\0547.jpg	NY	Right	Yes	0.823250100000223	0	345395	251
675.654296875	2	decision	foodImageDisplay	2	69	9	foodImage.53	FOODEEG_Images\0547.jpg	NY	Right	Yes	0.823250100000223	0	345936	252
677.716796875	0.823250100000223	decision	choicePhaseStart	2	69	9	foodImage.53	FOODEEG_Images\0547.jpg	NY	Right	Yes	0.823250100000223	0	346992	253
678.53125	0	decision	response	2	69	9	foodImage.53	FOODEEG_Images\0547.jpg	NY	Right	Yes	0.823250100000223	0	347409	235
679.57421875	1	decision	trialStart	2	70	10	foodImage.34	FOODEEG_Images\0339.jpg	NY	Left	No	0.676765500000329	0	347943	251
680.66015625	2	decision	foodImageDisplay	2	70	10	foodImage.34	FOODEEG_Images\0339.jpg	NY	Left	No	0.676765500000329	0	348499	252
682.728515625	0.676765500000329	decision	choicePhaseStart	2	70	10	foodImage.34	FOODEEG_Images\0339.jpg	NY	Left	No	0.676765500000329	0	349558	253
683.396484375	0	decision	response	2	70	10	foodImage.34	FOODEEG_Images\0339.jpg	NY	Left	No	0.676765500000329	0	349900	234
684.435546875	1	decision	trialStart	2	71	11	foodImage.88	FOODEEG_Images\0878.jpg	NY	Left	No	0.626829699999689	0	350432	251
685.490234375	2	decision	foodImageDisplay	2	71	11	foodImage.88	FOODEEG_Images\0878.jpg	NY	Left	No	0.626829699999689	0	350972	252
687.5546875	0.626829699999689	decision	choicePhaseStart	2	71	11	foodImage.88	FOODEEG_Images\0878.jpg	NY	Left	No	0.626829699999689	0	352029	253
688.171875	0	decision	response	2	71	11	foodImage.88	FOODEEG_Images\0878.jpg	NY	Left	No	0.626829699999689	0	352345	234
689.21484375	1	taste	trialStart	2	72	12	foodImage.87	FOODEEG_Images\0873.jpg	YN	Left	Yes	0.859623199999987	0	352879	251
690.296875	2	taste	foodImageDisplay	2	72	12	foodImage.87	FOODEEG_Images\0873.jpg	YN	Left	Yes	0.859623199999987	0	353433	252
692.361328125	0.859623199999987	taste	choicePhaseStart	2	72	12	foodImage.87	FOODEEG_Images\0873.jpg	YN	Left	Yes	0.859623199999987	0	354490	253
693.2109375	0	taste	response	2	72	12	foodImage.87	FOODEEG_Images\0873.jpg	YN	Left	Yes	0.859623199999987	0	354925	234
694.251953125	1	taste	trialStart	2	73	13	foodImage.31	FOODEEG_Images\0294.jpg	NY	Left	No	1.01262529999985	0	355458	251
695.294921875	2	taste	foodImageDisplay	2	73	13	foodImage.31	FOODEEG_Images\0294.jpg	NY	Left	No	1.01262529999985	0	355992	252
697.357421875	1.01262529999985	taste	choicePhaseStart	2	73	13	foodImage.31	FOODEEG_Images\0294.jpg	NY	Left	No	1.01262529999985	0	357048	253
698.36328125	0	taste	response	2	73	13	foodImage.31	FOODEEG_Images\0294.jpg	NY	Left	No	1.01262529999985	0	357563	234
699.404296875	1	health	trialStart	2	74	14	foodImage.33	FOODEEG_Images\0329.jpg	NY	Right	Yes	0.605612499999552	0	358096	251
700.447265625	2	health	foodImageDisplay	2	74	14	foodImage.33	FOODEEG_Images\0329.jpg	NY	Right	Yes	0.605612499999552	0	358630	252
702.51171875	0.605612499999552	health	choicePhaseStart	2	74	14	foodImage.33	FOODEEG_Images\0329.jpg	NY	Right	Yes	0.605612499999552	0	359687	253
703.107421875	0	health	response	2	74	14	foodImage.33	FOODEEG_Images\0329.jpg	NY	Right	Yes	0.605612499999552	0	359992	235
704.1484375	1	health	trialStart	2	75	15	foodImage.39	FOODEEG_Images\0367.jpg	YN	Right	No	0.843171200000143	0	360525	251
705.185546875	2	health	foodImageDisplay	2	75	15	foodImage.39	FOODEEG_Images\0367.jpg	YN	Right	No	0.843171200000143	0	361056	252
707.248046875	0.843171200000143	health	choicePhaseStart	2	75	15	foodImage.39	FOODEEG_Images\0367.jpg	YN	Right	No	0.843171200000143	0	362112	253
708.08203125	0	health	response	2	75	15	foodImage.39	FOODEEG_Images\0367.jpg	YN	Right	No	0.843171200000143	0	362539	235
709.1484375	1	decision	trialStart	2	76	16	foodImage.58	FOODEEG_Images\0605.jpg	YN	Left	Yes	0.636708699999872	0	363085	251
710.20703125	2	decision	foodImageDisplay	2	76	16	foodImage.58	FOODEEG_Images\0605.jpg	YN	Left	Yes	0.636708699999872	0	363627	252
712.26953125	0.636708699999872	decision	choicePhaseStart	2	76	16	foodImage.58	FOODEEG_Images\0605.jpg	YN	Left	Yes	0.636708699999872	0	364683	253
712.8984375	0	decision	response	2	76	16	foodImage.58	FOODEEG_Images\0605.jpg	YN	Left	Yes	0.636708699999872	0	365005	234
713.939453125	1	decision	trialStart	2	77	17	foodImage.101	FOODEEG_Images\0909.jpg	NY	Left	No	0.611763299999438	0	365538	251
714.9765625	2	decision	foodImageDisplay	2	77	17	foodImage.101	FOODEEG_Images\0909.jpg	NY	Left	No	0.611763299999438	0	366069	252
717.041015625	0.611763299999438	decision	choicePhaseStart	2	77	17	foodImage.101	FOODEEG_Images\0909.jpg	NY	Left	No	0.611763299999438	0	367126	253
717.642578125	0	decision	response	2	77	17	foodImage.101	FOODEEG_Images\0909.jpg	NY	Left	No	0.611763299999438	0	367434	234
718.685546875	1	health	trialStart	2	78	18	foodImage.52	FOODEEG_Images\0539.jpg	YN	Left	Yes	0.747674899999765	0	367968	251
719.767578125	2	health	foodImageDisplay	2	78	18	foodImage.52	FOODEEG_Images\0539.jpg	YN	Left	Yes	0.747674899999765	0	368522	252
721.83203125	0.747674899999765	health	choicePhaseStart	2	78	18	foodImage.52	FOODEEG_Images\0539.jpg	YN	Left	Yes	0.747674899999765	0	369579	253
722.5703125	0	health	response	2	78	18	foodImage.52	FOODEEG_Images\0539.jpg	YN	Left	Yes	0.747674899999765	0	369957	234
723.61328125	1	health	trialStart	2	79	19	foodImage.51	FOODEEG_Images\0536.jpg	NY	Right	Yes	0.622545799999898	0	370491	251
724.66015625	2	health	foodImageDisplay	2	79	19	foodImage.51	FOODEEG_Images\0536.jpg	NY	Right	Yes	0.622545799999898	0	371027	252
726.724609375	0.622545799999898	health	choicePhaseStart	2	79	19	foodImage.51	FOODEEG_Images\0536.jpg	NY	Right	Yes	0.622545799999898	0	372084	253
727.337890625	0	health	response	2	79	19	foodImage.51	FOODEEG_Images\0536.jpg	NY	Right	Yes	0.622545799999898	0	372398	235
728.37890625	1	decision	trialStart	2	80	20	foodImage.6	FOODEEG_Images\0113.jpg	YN	Right	No	0.725057900000138	0	372931	251
729.421875	2	decision	foodImageDisplay	2	80	20	foodImage.6	FOODEEG_Images\0113.jpg	YN	Right	No	0.725057900000138	0	373465	252
731.486328125	0.725057900000138	decision	choicePhaseStart	2	80	20	foodImage.6	FOODEEG_Images\0113.jpg	YN	Right	No	0.725057900000138	0	374522	253
732.201171875	0	decision	response	2	80	20	foodImage.6	FOODEEG_Images\0113.jpg	YN	Right	No	0.725057900000138	0	374888	235
733.244140625	1	taste	trialStart	2	81	21	foodImage.57	FOODEEG_Images\0587.jpg	YN	Left	Yes	0.891067399999883	0	375422	251
734.287109375	2	taste	foodImageDisplay	2	81	21	foodImage.57	FOODEEG_Images\0587.jpg	YN	Left	Yes	0.891067399999883	0	375956	252
736.3515625	0.891067399999883	taste	choicePhaseStart	2	81	21	foodImage.57	FOODEEG_Images\0587.jpg	YN	Left	Yes	0.891067399999883	0	377013	253
737.234375	0	taste	response	2	81	21	foodImage.57	FOODEEG_Images\0587.jpg	YN	Left	Yes	0.891067399999883	0	377465	234
738.2734375	1	decision	trialStart	2	82	22	foodImage.16	FOODEEG_Images\0196.jpg	NY	Right	Yes	0.638701599999877	0	377997	251
739.33203125	2	decision	foodImageDisplay	2	82	22	foodImage.16	FOODEEG_Images\0196.jpg	NY	Right	Yes	0.638701599999877	0	378539	252
741.396484375	0.638701599999877	decision	choicePhaseStart	2	82	22	foodImage.16	FOODEEG_Images\0196.jpg	NY	Right	Yes	0.638701599999877	0	379596	253
742.025390625	0	decision	response	2	82	22	foodImage.16	FOODEEG_Images\0196.jpg	NY	Right	Yes	0.638701599999877	0	379918	235
743.068359375	1	health	trialStart	2	83	23	foodImage.23	FOODEEG_Images\0244.jpg	YN	Left	Yes	0.634399700000358	0	380452	251
744.111328125	2	health	foodImageDisplay	2	83	23	foodImage.23	FOODEEG_Images\0244.jpg	YN	Left	Yes	0.634399700000358	0	380986	252
746.17578125	0.634399700000358	health	choicePhaseStart	2	83	23	foodImage.23	FOODEEG_Images\0244.jpg	YN	Left	Yes	0.634399700000358	0	382043	253
746.80078125	0	health	response	2	83	23	foodImage.23	FOODEEG_Images\0244.jpg	YN	Left	Yes	0.634399700000358	0	382363	234
747.841796875	1	decision	trialStart	2	84	24	foodImage.59	FOODEEG_Images\0607.jpg	NY	Right	Yes	0.841943399999764	0	382896	251
748.888671875	2	decision	foodImageDisplay	2	84	24	foodImage.59	FOODEEG_Images\0607.jpg	NY	Right	Yes	0.841943399999764	0	383432	252
750.951171875	0.841943399999764	decision	choicePhaseStart	2	84	24	foodImage.59	FOODEEG_Images\0607.jpg	NY	Right	Yes	0.841943399999764	0	384488	253
751.78515625	0	decision	response	2	84	24	foodImage.59	FOODEEG_Images\0607.jpg	NY	Right	Yes	0.841943399999764	0	384915	235
752.826171875	1	health	trialStart	2	85	25	foodImage.118	FOODEEG_Images\0926.jpg	NY	Left	No	1.07769139999982	0	385448	251
753.865234375	2	health	foodImageDisplay	2	85	25	foodImage.118	FOODEEG_Images\0926.jpg	NY	Left	No	1.07769139999982	0	385980	252
755.927734375	1.07769139999982	health	choicePhaseStart	2	85	25	foodImage.118	FOODEEG_Images\0926.jpg	NY	Left	No	1.07769139999982	0	387036	253
757	0	health	response	2	85	25	foodImage.118	FOODEEG_Images\0926.jpg	NY	Left	No	1.07769139999982	0	387585	234
758.0390625	1	taste	trialStart	2	86	26	foodImage.51	FOODEEG_Images\0536.jpg	NY	Right	Yes	0.725015299999541	0	388117	251
759.1015625	2	taste	foodImageDisplay	2	86	26	foodImage.51	FOODEEG_Images\0536.jpg	NY	Right	Yes	0.725015299999541	0	388661	252
761.1640625	0.725015299999541	taste	choicePhaseStart	2	86	26	foodImage.51	FOODEEG_Images\0536.jpg	NY	Right	Yes	0.725015299999541	0	389717	253
761.880859375	0	taste	response	2	86	26	foodImage.51	FOODEEG_Images\0536.jpg	NY	Right	Yes	0.725015299999541	0	390084	235
762.921875	1	health	trialStart	2	87	27	foodImage.32	FOODEEG_Images\0319.jpg	NY	Left	No	0.911911700000019	0	390617	251
763.966796875	2	health	foodImageDisplay	2	87	27	foodImage.32	FOODEEG_Images\0319.jpg	NY	Left	No	0.911911700000019	0	391152	252
766.029296875	0.911911700000019	health	choicePhaseStart	2	87	27	foodImage.32	FOODEEG_Images\0319.jpg	NY	Left	No	0.911911700000019	0	392208	253
766.935546875	0	health	response	2	87	27	foodImage.32	FOODEEG_Images\0319.jpg	NY	Left	No	0.911911700000019	0	392672	234
767.982421875	1	health	trialStart	2	88	28	foodImage.108	FOODEEG_Images\0916.jpg	YN	Right	No	1.06758320000063	0	393208	251
769.021484375	2	health	foodImageDisplay	2	88	28	foodImage.108	FOODEEG_Images\0916.jpg	YN	Right	No	1.06758320000063	0	393740	252
771.0859375	1.06758320000063	health	choicePhaseStart	2	88	28	foodImage.108	FOODEEG_Images\0916.jpg	YN	Right	No	1.06758320000063	0	394797	253
772.14453125	0	health	response	2	88	28	foodImage.108	FOODEEG_Images\0916.jpg	YN	Right	No	1.06758320000063	0	395339	235
773.18359375	1	health	trialStart	2	89	29	foodImage.105	FOODEEG_Images\0913.jpg	YN	Right	No	0.857041400000526	0	395871	251
774.22265625	2	health	foodImageDisplay	2	89	29	foodImage.105	FOODEEG_Images\0913.jpg	YN	Right	No	0.857041400000526	0	396403	252
776.28515625	0.857041400000526	health	choicePhaseStart	2	89	29	foodImage.105	FOODEEG_Images\0913.jpg	YN	Right	No	0.857041400000526	0	397459	253
777.13671875	0	health	response	2	89	29	foodImage.105	FOODEEG_Images\0913.jpg	YN	Right	No	0.857041400000526	0	397895	235
778.177734375	1	decision	trialStart	2	90	30	foodImage.85	FOODEEG_Images\0841.jpg	NY	Left	No	0.78109620000032	0	398428	251
779.234375	2	decision	foodImageDisplay	2	90	30	foodImage.85	FOODEEG_Images\0841.jpg	NY	Left	No	0.78109620000032	0	398969	252
781.30078125	0.78109620000032	decision	choicePhaseStart	2	90	30	foodImage.85	FOODEEG_Images\0841.jpg	NY	Left	No	0.78109620000032	0	400027	253
782.072265625	0	decision	response	2	90	30	foodImage.85	FOODEEG_Images\0841.jpg	NY	Left	No	0.78109620000032	0	400422	234
783.111328125	1	health	trialStart	2	91	31	foodImage.60	FOODEEG_Images\0614.jpg	YN	Left	Yes	0.745362200000272	0	400954	251
784.185546875	2	health	foodImageDisplay	2	91	31	foodImage.60	FOODEEG_Images\0614.jpg	YN	Left	Yes	0.745362200000272	0	401504	252
786.25390625	0.745362200000272	health	choicePhaseStart	2	91	31	foodImage.60	FOODEEG_Images\0614.jpg	YN	Left	Yes	0.745362200000272	0	402563	253
786.9921875	0	health	response	2	91	31	foodImage.60	FOODEEG_Images\0614.jpg	YN	Left	Yes	0.745362200000272	0	402941	234
788.03125	1	taste	trialStart	2	92	32	foodImage.58	FOODEEG_Images\0605.jpg	NY	Right	Yes	0.577185600000121	0	403473	251
789.087890625	2	taste	foodImageDisplay	2	92	32	foodImage.58	FOODEEG_Images\0605.jpg	NY	Right	Yes	0.577185600000121	0	404014	252
791.15234375	0.577185600000121	taste	choicePhaseStart	2	92	32	foodImage.58	FOODEEG_Images\0605.jpg	NY	Right	Yes	0.577185600000121	0	405071	253
791.71875	0	taste	response	2	92	32	foodImage.58	FOODEEG_Images\0605.jpg	NY	Right	Yes	0.577185600000121	0	405361	235
792.759765625	1	taste	trialStart	2	93	33	foodImage.48	FOODEEG_Images\0494.jpg	NY	Left	No	0.66531169999962	0	405894	251
793.81640625	2	taste	foodImageDisplay	2	93	33	foodImage.48	FOODEEG_Images\0494.jpg	NY	Left	No	0.66531169999962	0	406435	252
795.884765625	0.66531169999962	taste	choicePhaseStart	2	93	33	foodImage.48	FOODEEG_Images\0494.jpg	NY	Left	No	0.66531169999962	0	407494	253
796.54296875	0	taste	response	2	93	33	foodImage.48	FOODEEG_Images\0494.jpg	NY	Left	No	0.66531169999962	0	407831	234
797.583984375	1	health	trialStart	2	94	34	foodImage.72	FOODEEG_Images\0714.jpg	YN	Right	No	1.84541699999954	0	408364	251
798.626953125	2	health	foodImageDisplay	2	94	34	foodImage.72	FOODEEG_Images\0714.jpg	YN	Right	No	1.84541699999954	0	408898	252
800.69140625	1.84541699999954	health	choicePhaseStart	2	94	34	foodImage.72	FOODEEG_Images\0714.jpg	YN	Right	No	1.84541699999954	0	409955	253
802.52734375	0	health	response	2	94	34	foodImage.72	FOODEEG_Images\0714.jpg	YN	Right	No	1.84541699999954	0	410895	235
803.56640625	1	health	trialStart	2	95	35	foodImage.28	FOODEEG_Images\0273.jpg	NY	Right	Yes	0.65626119999979	0	411427	251
804.607421875	2	health	foodImageDisplay	2	95	35	foodImage.28	FOODEEG_Images\0273.jpg	NY	Right	Yes	0.65626119999979	0	411960	252
806.671875	0.65626119999979	health	choicePhaseStart	2	95	35	foodImage.28	FOODEEG_Images\0273.jpg	NY	Right	Yes	0.65626119999979	0	413017	253
807.318359375	0	health	response	2	95	35	foodImage.28	FOODEEG_Images\0273.jpg	NY	Right	Yes	0.65626119999979	0	413348	235
808.365234375	1	taste	trialStart	2	96	36	foodImage.6	FOODEEG_Images\0113.jpg	YN	Left	Yes	0.8880709999994	0	413884	251
809.408203125	2	taste	foodImageDisplay	2	96	36	foodImage.6	FOODEEG_Images\0113.jpg	YN	Left	Yes	0.8880709999994	0	414418	252
811.470703125	0.8880709999994	taste	choicePhaseStart	2	96	36	foodImage.6	FOODEEG_Images\0113.jpg	YN	Left	Yes	0.8880709999994	0	415474	253
812.349609375	0	taste	response	2	96	36	foodImage.6	FOODEEG_Images\0113.jpg	YN	Left	Yes	0.8880709999994	0	415924	234
813.392578125	1	decision	trialStart	2	97	37	foodImage.12	FOODEEG_Images\0181.jpg	YN	Left	Yes	0.637042800000017	0	416458	251
814.435546875	2	decision	foodImageDisplay	2	97	37	foodImage.12	FOODEEG_Images\0181.jpg	YN	Left	Yes	0.637042800000017	0	416992	252
816.498046875	0.637042800000017	decision	choicePhaseStart	2	97	37	foodImage.12	FOODEEG_Images\0181.jpg	YN	Left	Yes	0.637042800000017	0	418048	253
817.126953125	0	decision	response	2	97	37	foodImage.12	FOODEEG_Images\0181.jpg	YN	Left	Yes	0.637042800000017	0	418370	234
818.166015625	1	decision	trialStart	2	98	38	foodImage.106	FOODEEG_Images\0914.jpg	YN	Right	No	0.497580900000685	0	418902	251
819.220703125	2	decision	foodImageDisplay	2	98	38	foodImage.106	FOODEEG_Images\0914.jpg	YN	Right	No	0.497580900000685	0	419442	252
821.28515625	0.497580900000685	decision	choicePhaseStart	2	98	38	foodImage.106	FOODEEG_Images\0914.jpg	YN	Right	No	0.497580900000685	0	420499	253
821.7734375	0	decision	response	2	98	38	foodImage.106	FOODEEG_Images\0914.jpg	YN	Right	No	0.497580900000685	0	420749	235
822.814453125	1	health	trialStart	2	99	39	foodImage.18	FOODEEG_Images\0202.jpg	YN	Left	Yes	0.685589400000026	0	421282	251
823.87109375	2	health	foodImageDisplay	2	99	39	foodImage.18	FOODEEG_Images\0202.jpg	YN	Left	Yes	0.685589400000026	0	421823	252
825.935546875	0.685589400000026	health	choicePhaseStart	2	99	39	foodImage.18	FOODEEG_Images\0202.jpg	YN	Left	Yes	0.685589400000026	0	422880	253
826.61328125	0	health	response	2	99	39	foodImage.18	FOODEEG_Images\0202.jpg	YN	Left	Yes	0.685589400000026	0	423227	234
827.654296875	1	health	trialStart	2	100	40	foodImage.73	FOODEEG_Images\0717.jpg	NY	Right	Yes	0.737453499999901	0	423760	251
828.708984375	2	health	foodImageDisplay	2	100	40	foodImage.73	FOODEEG_Images\0717.jpg	NY	Right	Yes	0.737453499999901	0	424300	252
830.7734375	0.737453499999901	health	choicePhaseStart	2	100	40	foodImage.73	FOODEEG_Images\0717.jpg	NY	Right	Yes	0.737453499999901	0	425357	253
831.501953125	0	health	response	2	100	40	foodImage.73	FOODEEG_Images\0717.jpg	NY	Right	Yes	0.737453499999901	0	425730	235
832.544921875	1	decision	trialStart	2	101	41	foodImage.117	FOODEEG_Images\0925.jpg	NY	Right	Yes	0.622798200000034	0	426264	251
833.599609375	2	decision	foodImageDisplay	2	101	41	foodImage.117	FOODEEG_Images\0925.jpg	NY	Right	Yes	0.622798200000034	0	426804	252
835.6640625	0.622798200000034	decision	choicePhaseStart	2	101	41	foodImage.117	FOODEEG_Images\0925.jpg	NY	Right	Yes	0.622798200000034	0	427861	253
836.27734375	0	decision	response	2	101	41	foodImage.117	FOODEEG_Images\0925.jpg	NY	Right	Yes	0.622798200000034	0	428175	235
837.322265625	1	taste	trialStart	2	102	42	foodImage.2	FOODEEG_Images\0028.jpg	YN	Left	Yes	0.812774899999567	0	428710	251
838.36328125	2	taste	foodImageDisplay	2	102	42	foodImage.2	FOODEEG_Images\0028.jpg	YN	Left	Yes	0.812774899999567	0	429243	252
840.42578125	0.812774899999567	taste	choicePhaseStart	2	102	42	foodImage.2	FOODEEG_Images\0028.jpg	YN	Left	Yes	0.812774899999567	0	430299	253
841.228515625	0	taste	response	2	102	42	foodImage.2	FOODEEG_Images\0028.jpg	YN	Left	Yes	0.812774899999567	0	430710	234
842.271484375	1	taste	trialStart	2	103	43	foodImage.71	FOODEEG_Images\0713.jpg	YN	Left	Yes	0.682986699999674	0	431244	251
843.31640625	2	taste	foodImageDisplay	2	103	43	foodImage.71	FOODEEG_Images\0713.jpg	YN	Left	Yes	0.682986699999674	0	431779	252
845.37890625	0.682986699999674	taste	choicePhaseStart	2	103	43	foodImage.71	FOODEEG_Images\0713.jpg	YN	Left	Yes	0.682986699999674	0	432835	253
846.052734375	0	taste	response	2	103	43	foodImage.71	FOODEEG_Images\0713.jpg	YN	Left	Yes	0.682986699999674	0	433180	234
847.09375	1	decision	trialStart	2	104	44	foodImage.24	FOODEEG_Images\0250.jpg	NY	Right	Yes	0.686278199999833	0	433713	251
848.13671875	2	decision	foodImageDisplay	2	104	44	foodImage.24	FOODEEG_Images\0250.jpg	NY	Right	Yes	0.686278199999833	0	434247	252
850.19921875	0.686278199999833	decision	choicePhaseStart	2	104	44	foodImage.24	FOODEEG_Images\0250.jpg	NY	Right	Yes	0.686278199999833	0	435303	253
850.876953125	0	decision	response	2	104	44	foodImage.24	FOODEEG_Images\0250.jpg	NY	Right	Yes	0.686278199999833	0	435650	235
851.919921875	1	decision	trialStart	2	105	45	foodImage.65	FOODEEG_Images\0658.jpg	NY	Left	No	0.617232200000217	0	436184	251
852.96484375	2	decision	foodImageDisplay	2	105	45	foodImage.65	FOODEEG_Images\0658.jpg	NY	Left	No	0.617232200000217	0	436719	252
855.02734375	0.617232200000217	decision	choicePhaseStart	2	105	45	foodImage.65	FOODEEG_Images\0658.jpg	NY	Left	No	0.617232200000217	0	437775	253
855.63671875	0	decision	response	2	105	45	foodImage.65	FOODEEG_Images\0658.jpg	NY	Left	No	0.617232200000217	0	438087	234
856.677734375	1	decision	trialStart	2	106	46	foodImage.46	FOODEEG_Images\0479.jpg	NY	Right	Yes	0.6870272999995	0	438620	251
857.734375	2	decision	foodImageDisplay	2	106	46	foodImage.46	FOODEEG_Images\0479.jpg	NY	Right	Yes	0.6870272999995	0	439161	252
859.798828125	0.6870272999995	decision	choicePhaseStart	2	106	46	foodImage.46	FOODEEG_Images\0479.jpg	NY	Right	Yes	0.6870272999995	0	440218	253
860.4765625	0	decision	response	2	106	46	foodImage.46	FOODEEG_Images\0479.jpg	NY	Right	Yes	0.6870272999995	0	440565	235
861.5234375	1	decision	trialStart	2	107	47	foodImage.108	FOODEEG_Images\0916.jpg	NY	Left	No	0.641641799999888	0	441101	251
862.560546875	2	decision	foodImageDisplay	2	107	47	foodImage.108	FOODEEG_Images\0916.jpg	NY	Left	No	0.641641799999888	0	441632	252
864.626953125	0.641641799999888	decision	choicePhaseStart	2	107	47	foodImage.108	FOODEEG_Images\0916.jpg	NY	Left	No	0.641641799999888	0	442690	253
865.259765625	0	decision	response	2	107	47	foodImage.108	FOODEEG_Images\0916.jpg	NY	Left	No	0.641641799999888	0	443014	234
866.3046875	1	decision	trialStart	2	108	48	foodImage.77	FOODEEG_Images\0771.jpg	YN	Left	Yes	0.672982799999772	0	443549	251
867.34765625	2	decision	foodImageDisplay	2	108	48	foodImage.77	FOODEEG_Images\0771.jpg	YN	Left	Yes	0.672982799999772	0	444083	252
869.412109375	0.672982799999772	decision	choicePhaseStart	2	108	48	foodImage.77	FOODEEG_Images\0771.jpg	YN	Left	Yes	0.672982799999772	0	445140	253
870.076171875	0	decision	response	2	108	48	foodImage.77	FOODEEG_Images\0771.jpg	YN	Left	Yes	0.672982799999772	0	445480	234
871.1171875	1	taste	trialStart	2	109	49	foodImage.106	FOODEEG_Images\0914.jpg	NY	Left	No	0.712664899999254	0	446013	251
872.15625	2	taste	foodImageDisplay	2	109	49	foodImage.106	FOODEEG_Images\0914.jpg	NY	Left	No	0.712664899999254	0	446545	252
874.220703125	0.712664899999254	taste	choicePhaseStart	2	109	49	foodImage.106	FOODEEG_Images\0914.jpg	NY	Left	No	0.712664899999254	0	447602	253
874.923828125	0	taste	response	2	109	49	foodImage.106	FOODEEG_Images\0914.jpg	NY	Left	No	0.712664899999254	0	447962	234
875.966796875	1	health	trialStart	2	110	50	foodImage.53	FOODEEG_Images\0547.jpg	YN	Right	No	0.733410499999991	0	448496	251
877.025390625	2	health	foodImageDisplay	2	110	50	foodImage.53	FOODEEG_Images\0547.jpg	YN	Right	No	0.733410499999991	0	449038	252
879.087890625	0.733410499999991	health	choicePhaseStart	2	110	50	foodImage.53	FOODEEG_Images\0547.jpg	YN	Right	No	0.733410499999991	0	450094	253
879.8125	0	health	response	2	110	50	foodImage.53	FOODEEG_Images\0547.jpg	YN	Right	No	0.733410499999991	0	450465	235
880.853515625	1	decision	trialStart	2	111	51	foodImage.27	FOODEEG_Images\0263.jpg	YN	Left	Yes	0.562094500000057	0	450998	251
881.916015625	2	decision	foodImageDisplay	2	111	51	foodImage.27	FOODEEG_Images\0263.jpg	YN	Left	Yes	0.562094500000057	0	451542	252
883.986328125	0.562094500000057	decision	choicePhaseStart	2	111	51	foodImage.27	FOODEEG_Images\0263.jpg	YN	Left	Yes	0.562094500000057	0	452602	253
884.5390625	0	decision	response	2	111	51	foodImage.27	FOODEEG_Images\0263.jpg	YN	Left	Yes	0.562094500000057	0	452885	234
885.58203125	1	decision	trialStart	2	112	52	foodImage.33	FOODEEG_Images\0329.jpg	YN	Left	Yes	0.70434109999951	0	453419	251
886.63671875	2	decision	foodImageDisplay	2	112	52	foodImage.33	FOODEEG_Images\0329.jpg	YN	Left	Yes	0.70434109999951	0	453959	252
888.701171875	0.70434109999951	decision	choicePhaseStart	2	112	52	foodImage.33	FOODEEG_Images\0329.jpg	YN	Left	Yes	0.70434109999951	0	455016	253
889.39453125	0	decision	response	2	112	52	foodImage.33	FOODEEG_Images\0329.jpg	YN	Left	Yes	0.70434109999951	0	455371	234
890.4375	1	health	trialStart	2	113	53	foodImage.11	FOODEEG_Images\0180.jpg	YN	Right	No	0.815400899999986	0	455905	251
891.478515625	2	health	foodImageDisplay	2	113	53	foodImage.11	FOODEEG_Images\0180.jpg	YN	Right	No	0.815400899999986	0	456438	252
893.54296875	0.815400899999986	health	choicePhaseStart	2	113	53	foodImage.11	FOODEEG_Images\0180.jpg	YN	Right	No	0.815400899999986	0	457495	253
894.34765625	0	health	response	2	113	53	foodImage.11	FOODEEG_Images\0180.jpg	YN	Right	No	0.815400899999986	0	457907	235
895.39453125	1	taste	trialStart	2	114	54	foodImage.105	FOODEEG_Images\0913.jpg	NY	Left	No	0.962385699999686	0	458443	251
896.43359375	2	taste	foodImageDisplay	2	114	54	foodImage.105	FOODEEG_Images\0913.jpg	NY	Left	No	0.962385699999686	0	458975	252
898.498046875	0.962385699999686	taste	choicePhaseStart	2	114	54	foodImage.105	FOODEEG_Images\0913.jpg	NY	Left	No	0.962385699999686	0	460032	253
899.451171875	0	taste	response	2	114	54	foodImage.105	FOODEEG_Images\0913.jpg	NY	Left	No	0.962385699999686	0	460520	234
900.494140625	1	health	trialStart	2	115	55	foodImage.77	FOODEEG_Images\0771.jpg	NY	Right	Yes	0.642454400000133	0	461054	251
901.537109375	2	health	foodImageDisplay	2	115	55	foodImage.77	FOODEEG_Images\0771.jpg	NY	Right	Yes	0.642454400000133	0	461588	252
903.6015625	0.642454400000133	health	choicePhaseStart	2	115	55	foodImage.77	FOODEEG_Images\0771.jpg	NY	Right	Yes	0.642454400000133	0	462645	253
904.234375	0	health	response	2	115	55	foodImage.77	FOODEEG_Images\0771.jpg	NY	Right	Yes	0.642454400000133	0	462969	235
905.27734375	1	health	trialStart	2	116	56	foodImage.1	FOODEEG_Images\0004.jpg	YN	Right	No	0.842591399999947	0	463503	251
906.337890625	2	health	foodImageDisplay	2	116	56	foodImage.1	FOODEEG_Images\0004.jpg	YN	Right	No	0.842591399999947	0	464046	252
908.40234375	0.842591399999947	health	choicePhaseStart	2	116	56	foodImage.1	FOODEEG_Images\0004.jpg	YN	Right	No	0.842591399999947	0	465103	253
909.234375	0	health	response	2	116	56	foodImage.1	FOODEEG_Images\0004.jpg	YN	Right	No	0.842591399999947	0	465529	235
910.27734375	1	health	trialStart	2	117	57	foodImage.86	FOODEEG_Images\0844.jpg	NY	Left	No	0.709079799999927	0	466063	251
911.3359375	2	health	foodImageDisplay	2	117	57	foodImage.86	FOODEEG_Images\0844.jpg	NY	Left	No	0.709079799999927	0	466605	252
913.3984375	0.709079799999927	health	choicePhaseStart	2	117	57	foodImage.86	FOODEEG_Images\0844.jpg	NY	Left	No	0.709079799999927	0	467661	253
914.09765625	0	health	response	2	117	57	foodImage.86	FOODEEG_Images\0844.jpg	NY	Left	No	0.709079799999927	0	468019	234
915.142578125	1	health	trialStart	2	118	58	foodImage.99	FOODEEG_Images\0907.jpg	YN	Right	No	0.640210499999739	0	468554	251
916.1796875	2	health	foodImageDisplay	2	118	58	foodImage.99	FOODEEG_Images\0907.jpg	YN	Right	No	0.640210499999739	0	469085	252
918.2421875	0.640210499999739	health	choicePhaseStart	2	118	58	foodImage.99	FOODEEG_Images\0907.jpg	YN	Right	No	0.640210499999739	0	470141	253
918.873046875	0	health	response	2	118	58	foodImage.99	FOODEEG_Images\0907.jpg	YN	Right	No	0.640210499999739	0	470464	235
919.9140625	1	taste	trialStart	2	119	59	foodImage.65	FOODEEG_Images\0658.jpg	YN	Right	No	0.720605200000136	0	470997	251
920.962890625	2	taste	foodImageDisplay	2	119	59	foodImage.65	FOODEEG_Images\0658.jpg	YN	Right	No	0.720605200000136	0	471534	252
923.02734375	0.720605200000136	taste	choicePhaseStart	2	119	59	foodImage.65	FOODEEG_Images\0658.jpg	YN	Right	No	0.720605200000136	0	472591	253
923.73828125	0	taste	response	2	119	59	foodImage.65	FOODEEG_Images\0658.jpg	YN	Right	No	0.720605200000136	0	472955	235
924.78125	1	taste	trialStart	2	120	60	foodImage.25	FOODEEG_Images\0261.jpg	NY	Left	No	0.820509400000446	0	473489	251
925.822265625	2	taste	foodImageDisplay	2	120	60	foodImage.25	FOODEEG_Images\0261.jpg	NY	Left	No	0.820509400000446	0	474022	252
927.88671875	0.820509400000446	taste	choicePhaseStart	2	120	60	foodImage.25	FOODEEG_Images\0261.jpg	NY	Left	No	0.820509400000446	0	475079	253
928.697265625	0	taste	response	2	120	60	foodImage.25	FOODEEG_Images\0261.jpg	NY	Left	No	0.820509400000446	0	475494	234
930.73828125	6.123046875	n/a	blockEnd	n/a	n/a	n/a	n/a	n/a	n/a	n/a	n/a	n/a	n/a	476539	254
936.861328125	2	n/a	blockStart	3	n/a	n/a	n/a	n/a	n/a	n/a	n/a	n/a	n/a	479674	250
938.89453125	1	decision	trialStart	3	121	1	foodImage.22	FOODEEG_Images\0236.jpg	NY	Left	No	0.673799000000145	0	480715	251
939.94140625	2	decision	foodImageDisplay	3	121	1	foodImage.22	FOODEEG_Images\0236.jpg	NY	Left	No	0.673799000000145	0	481251	252
942.0078125	0.673799000000145	decision	choicePhaseStart	3	121	1	foodImage.22	FOODEEG_Images\0236.jpg	NY	Left	No	0.673799000000145	0	482309	253
942.673828125	0	decision	response	3	121	1	foodImage.22	FOODEEG_Images\0236.jpg	NY	Left	No	0.673799000000145	0	482650	234
943.71484375	1	decision	trialStart	3	122	2	foodImage.87	FOODEEG_Images\0873.jpg	NY	Right	Yes	0.821613799999795	0	483183	251
944.771484375	2	decision	foodImageDisplay	3	122	2	foodImage.87	FOODEEG_Images\0873.jpg	NY	Right	Yes	0.821613799999795	0	483724	252
946.833984375	0.821613799999795	decision	choicePhaseStart	3	122	2	foodImage.87	FOODEEG_Images\0873.jpg	NY	Right	Yes	0.821613799999795	0	484780	253
947.6484375	0	decision	response	3	122	2	foodImage.87	FOODEEG_Images\0873.jpg	NY	Right	Yes	0.821613799999795	0	485197	235
948.693359375	1	health	trialStart	3	123	3	foodImage.103	FOODEEG_Images\0911.jpg	NY	Left	No	0.575856699999349	0	485732	251
949.73046875	2	health	foodImageDisplay	3	123	3	foodImage.103	FOODEEG_Images\0911.jpg	NY	Left	No	0.575856699999349	0	486263	252
951.794921875	0.575856699999349	health	choicePhaseStart	3	123	3	foodImage.103	FOODEEG_Images\0911.jpg	NY	Left	No	0.575856699999349	0	487320	253
952.361328125	0	health	response	3	123	3	foodImage.103	FOODEEG_Images\0911.jpg	NY	Left	No	0.575856699999349	0	487610	234
953.408203125	1	taste	trialStart	3	124	4	foodImage.27	FOODEEG_Images\0263.jpg	YN	Left	Yes	0.749960099999953	0	488146	251
954.44921875	2	taste	foodImageDisplay	3	124	4	foodImage.27	FOODEEG_Images\0263.jpg	YN	Left	Yes	0.749960099999953	0	488679	252
956.515625	0.749960099999953	taste	choicePhaseStart	3	124	4	foodImage.27	FOODEEG_Images\0263.jpg	YN	Left	Yes	0.749960099999953	0	489737	253
957.255859375	0	taste	response	3	124	4	foodImage.27	FOODEEG_Images\0263.jpg	YN	Left	Yes	0.749960099999953	0	490116	234
958.296875	1	health	trialStart	3	125	5	foodImage.69	FOODEEG_Images\0693.jpg	NY	Right	Yes	0.653367799999614	0	490649	251
959.341796875	2	health	foodImageDisplay	3	125	5	foodImage.69	FOODEEG_Images\0693.jpg	NY	Right	Yes	0.653367799999614	0	491184	252
961.41015625	0.653367799999614	health	choicePhaseStart	3	125	5	foodImage.69	FOODEEG_Images\0693.jpg	NY	Right	Yes	0.653367799999614	0	492243	253
962.056640625	0	health	response	3	125	5	foodImage.69	FOODEEG_Images\0693.jpg	NY	Right	Yes	0.653367799999614	0	492574	235
963.099609375	1	decision	trialStart	3	126	6	foodImage.91	FOODEEG_Images\0896.jpg	NY	Right	Yes	0.834560199999942	0	493108	251
964.16015625	2	decision	foodImageDisplay	3	126	6	foodImage.91	FOODEEG_Images\0896.jpg	NY	Right	Yes	0.834560199999942	0	493651	252
966.224609375	0.834560199999942	decision	choicePhaseStart	3	126	6	foodImage.91	FOODEEG_Images\0896.jpg	NY	Right	Yes	0.834560199999942	0	494708	253
967.048828125	0	decision	response	3	126	6	foodImage.91	FOODEEG_Images\0896.jpg	NY	Right	Yes	0.834560199999942	0	495130	235
968.08984375	1	health	trialStart	3	127	7	foodImage.64	FOODEEG_Images\0647.jpg	NY	Right	Yes	0.588181099999929	0	495663	251
969.146484375	2	health	foodImageDisplay	3	127	7	foodImage.64	FOODEEG_Images\0647.jpg	NY	Right	Yes	0.588181099999929	0	496204	252
971.212890625	0.588181099999929	health	choicePhaseStart	3	127	7	foodImage.64	FOODEEG_Images\0647.jpg	NY	Right	Yes	0.588181099999929	0	497262	253
971.791015625	0	health	response	3	127	7	foodImage.64	FOODEEG_Images\0647.jpg	NY	Right	Yes	0.588181099999929	0	497558	235
972.83203125	1	health	trialStart	3	128	8	foodImage.47	FOODEEG_Images\0488.jpg	YN	Right	No	0.67303979999997	0	498091	251
973.88671875	2	health	foodImageDisplay	3	128	8	foodImage.47	FOODEEG_Images\0488.jpg	YN	Right	No	0.67303979999997	0	498631	252
975.94921875	0.67303979999997	health	choicePhaseStart	3	128	8	foodImage.47	FOODEEG_Images\0488.jpg	YN	Right	No	0.67303979999997	0	499687	253
976.615234375	0	health	response	3	128	8	foodImage.47	FOODEEG_Images\0488.jpg	YN	Right	No	0.67303979999997	0	500028	235
977.658203125	1	decision	trialStart	3	129	9	foodImage.114	FOODEEG_Images\0922.jpg	YN	Right	No	0.65717819999918	0	500562	251
978.6953125	2	decision	foodImageDisplay	3	129	9	foodImage.114	FOODEEG_Images\0922.jpg	YN	Right	No	0.65717819999918	0	501093	252
980.759765625	0.65717819999918	decision	choicePhaseStart	3	129	9	foodImage.114	FOODEEG_Images\0922.jpg	YN	Right	No	0.65717819999918	0	502150	253
981.408203125	0	decision	response	3	129	9	foodImage.114	FOODEEG_Images\0922.jpg	YN	Right	No	0.65717819999918	0	502482	235
982.453125	1	health	trialStart	3	130	10	foodImage.10	FOODEEG_Images\0145.jpg	NY	Left	No	0.834034399999837	0	503017	251
983.509765625	2	health	foodImageDisplay	3	130	10	foodImage.10	FOODEEG_Images\0145.jpg	NY	Left	No	0.834034399999837	0	503558	252
985.57421875	0.834034399999837	health	choicePhaseStart	3	130	10	foodImage.10	FOODEEG_Images\0145.jpg	NY	Left	No	0.834034399999837	0	504615	253
986.400390625	0	health	response	3	130	10	foodImage.10	FOODEEG_Images\0145.jpg	NY	Left	No	0.834034399999837	0	505038	234
987.44140625	1	health	trialStart	3	131	11	foodImage.29	FOODEEG_Images\0278.jpg	YN	Left	Yes	0.766310299999532	0	505571	251
988.482421875	2	health	foodImageDisplay	3	131	11	foodImage.29	FOODEEG_Images\0278.jpg	YN	Left	Yes	0.766310299999532	0	506104	252
990.546875	0.766310299999532	health	choicePhaseStart	3	131	11	foodImage.29	FOODEEG_Images\0278.jpg	YN	Left	Yes	0.766310299999532	0	507161	253
991.302734375	0	health	response	3	131	11	foodImage.29	FOODEEG_Images\0278.jpg	YN	Left	Yes	0.766310299999532	0	507548	234
992.345703125	1	decision	trialStart	3	132	12	foodImage.25	FOODEEG_Images\0261.jpg	YN	Left	Yes	0.551531500000237	0	508082	251
993.38671875	2	decision	foodImageDisplay	3	132	12	foodImage.25	FOODEEG_Images\0261.jpg	YN	Left	Yes	0.551531500000237	0	508615	252
995.44921875	0.551531500000237	decision	choicePhaseStart	3	132	12	foodImage.25	FOODEEG_Images\0261.jpg	YN	Left	Yes	0.551531500000237	0	509671	253
995.990234375	0	decision	response	3	132	12	foodImage.25	FOODEEG_Images\0261.jpg	YN	Left	Yes	0.551531500000237	0	509948	234
997.03125	1	health	trialStart	3	133	13	foodImage.38	FOODEEG_Images\0365.jpg	NY	Right	Yes	0.643892399999459	0	510481	251
998.068359375	2	health	foodImageDisplay	3	133	13	foodImage.38	FOODEEG_Images\0365.jpg	NY	Right	Yes	0.643892399999459	0	511012	252
1000.1328125	0.643892399999459	health	choicePhaseStart	3	133	13	foodImage.38	FOODEEG_Images\0365.jpg	NY	Right	Yes	0.643892399999459	0	512069	253
1000.767578125	0	health	response	3	133	13	foodImage.38	FOODEEG_Images\0365.jpg	NY	Right	Yes	0.643892399999459	0	512394	235
1001.810546875	1	taste	trialStart	3	134	14	foodImage.32	FOODEEG_Images\0319.jpg	NY	Right	Yes	0.998362399999678	0	512928	251
1002.853515625	2	taste	foodImageDisplay	3	134	14	foodImage.32	FOODEEG_Images\0319.jpg	NY	Right	Yes	0.998362399999678	0	513462	252
1004.921875	0.998362399999678	taste	choicePhaseStart	3	134	14	foodImage.32	FOODEEG_Images\0319.jpg	NY	Right	Yes	0.998362399999678	0	514521	253
1005.91015625	0	taste	response	3	134	14	foodImage.32	FOODEEG_Images\0319.jpg	NY	Right	Yes	0.998362399999678	0	515027	235
1006.953125	1	taste	trialStart	3	135	15	foodImage.75	FOODEEG_Images\0763.jpg	YN	Left	Yes	0.539066700000149	0	515561	251
1007.998046875	2	taste	foodImageDisplay	3	135	15	foodImage.75	FOODEEG_Images\0763.jpg	YN	Left	Yes	0.539066700000149	0	516096	252
1010.068359375	0.539066700000149	taste	choicePhaseStart	3	135	15	foodImage.75	FOODEEG_Images\0763.jpg	YN	Left	Yes	0.539066700000149	0	517156	253
1010.599609375	0	taste	response	3	135	15	foodImage.75	FOODEEG_Images\0763.jpg	YN	Left	Yes	0.539066700000149	0	517428	234
1011.638671875	1	health	trialStart	3	136	16	foodImage.59	FOODEEG_Images\0607.jpg	NY	Left	No	0.746457700000065	0	517960	251
1012.685546875	2	health	foodImageDisplay	3	136	16	foodImage.59	FOODEEG_Images\0607.jpg	NY	Left	No	0.746457700000065	0	518496	252
1014.75	0.746457700000065	health	choicePhaseStart	3	136	16	foodImage.59	FOODEEG_Images\0607.jpg	NY	Left	No	0.746457700000065	0	519553	253
1015.486328125	0	health	response	3	136	16	foodImage.59	FOODEEG_Images\0607.jpg	NY	Left	No	0.746457700000065	0	519930	234
1016.533203125	1	decision	trialStart	3	137	17	foodImage.21	FOODEEG_Images\0234.jpg	NY	Right	Yes	0.586470999999619	0	520466	251
1017.587890625	2	decision	foodImageDisplay	3	137	17	foodImage.21	FOODEEG_Images\0234.jpg	NY	Right	Yes	0.586470999999619	0	521006	252
1019.65234375	0.586470999999619	decision	choicePhaseStart	3	137	17	foodImage.21	FOODEEG_Images\0234.jpg	NY	Right	Yes	0.586470999999619	0	522063	253
1020.23046875	0	decision	response	3	137	17	foodImage.21	FOODEEG_Images\0234.jpg	NY	Right	Yes	0.586470999999619	0	522359	235
1021.2734375	1	decision	trialStart	3	138	18	foodImage.28	FOODEEG_Images\0273.jpg	YN	Left	Yes	0.628378800000064	0	522893	251
1022.31640625	2	decision	foodImageDisplay	3	138	18	foodImage.28	FOODEEG_Images\0273.jpg	YN	Left	Yes	0.628378800000064	0	523427	252
1024.37890625	0.628378800000064	decision	choicePhaseStart	3	138	18	foodImage.28	FOODEEG_Images\0273.jpg	YN	Left	Yes	0.628378800000064	0	524483	253
1024.998046875	0	decision	response	3	138	18	foodImage.28	FOODEEG_Images\0273.jpg	YN	Left	Yes	0.628378800000064	0	524800	234
1026.041015625	1	taste	trialStart	3	139	19	foodImage.115	FOODEEG_Images\0923.jpg	YN	Right	No	0.652798000000075	0	525334	251
1027.09765625	2	taste	foodImageDisplay	3	139	19	foodImage.115	FOODEEG_Images\0923.jpg	YN	Right	No	0.652798000000075	0	525875	252
1029.162109375	0.652798000000075	taste	choicePhaseStart	3	139	19	foodImage.115	FOODEEG_Images\0923.jpg	YN	Right	No	0.652798000000075	0	526932	253
1029.806640625	0	taste	response	3	139	19	foodImage.115	FOODEEG_Images\0923.jpg	YN	Right	No	0.652798000000075	0	527262	235
1030.849609375	1	health	trialStart	3	140	20	foodImage.56	FOODEEG_Images\0586.jpg	NY	Left	No	0.826752100000704	0	527796	251
1031.892578125	2	health	foodImageDisplay	3	140	20	foodImage.56	FOODEEG_Images\0586.jpg	NY	Left	No	0.826752100000704	0	528330	252
1033.955078125	0.826752100000704	health	choicePhaseStart	3	140	20	foodImage.56	FOODEEG_Images\0586.jpg	NY	Left	No	0.826752100000704	0	529386	253
1034.7734375	0	health	response	3	140	20	foodImage.56	FOODEEG_Images\0586.jpg	NY	Left	No	0.826752100000704	0	529805	234
1035.81640625	1	taste	trialStart	3	141	21	foodImage.19	FOODEEG_Images\0225.jpg	NY	Right	Yes	0.82842299999993	0	530339	251
1036.857421875	2	taste	foodImageDisplay	3	141	21	foodImage.19	FOODEEG_Images\0225.jpg	NY	Right	Yes	0.82842299999993	0	530872	252
1038.921875	0.82842299999993	taste	choicePhaseStart	3	141	21	foodImage.19	FOODEEG_Images\0225.jpg	NY	Right	Yes	0.82842299999993	0	531929	253
1039.7421875	0	taste	response	3	141	21	foodImage.19	FOODEEG_Images\0225.jpg	NY	Right	Yes	0.82842299999993	0	532349	235
1040.78125	1	taste	trialStart	3	142	22	foodImage.45	FOODEEG_Images\0478.jpg	NY	Right	Yes	0.654255700000249	0	532881	251
1041.828125	2	taste	foodImageDisplay	3	142	22	foodImage.45	FOODEEG_Images\0478.jpg	NY	Right	Yes	0.654255700000249	0	533417	252
1043.896484375	0.654255700000249	taste	choicePhaseStart	3	142	22	foodImage.45	FOODEEG_Images\0478.jpg	NY	Right	Yes	0.654255700000249	0	534476	253
1044.541015625	0	taste	response	3	142	22	foodImage.45	FOODEEG_Images\0478.jpg	NY	Right	Yes	0.654255700000249	0	534806	235
1045.58203125	1	taste	trialStart	3	143	23	foodImage.1	FOODEEG_Images\0004.jpg	NY	Right	Yes	0.750624100000095	0	535339	251
1046.623046875	2	taste	foodImageDisplay	3	143	23	foodImage.1	FOODEEG_Images\0004.jpg	NY	Right	Yes	0.750624100000095	0	535872	252
1048.6875	0.750624100000095	taste	choicePhaseStart	3	143	23	foodImage.1	FOODEEG_Images\0004.jpg	NY	Right	Yes	0.750624100000095	0	536929	253
1049.4296875	0	taste	response	3	143	23	foodImage.1	FOODEEG_Images\0004.jpg	NY	Right	Yes	0.750624100000095	0	537309	235
1050.470703125	1	taste	trialStart	3	144	24	foodImage.91	FOODEEG_Images\0896.jpg	YN	Left	Yes	0.623000300000058	0	537842	251
1051.552734375	2	taste	foodImageDisplay	3	144	24	foodImage.91	FOODEEG_Images\0896.jpg	YN	Left	Yes	0.623000300000058	0	538396	252
1053.615234375	0.623000300000058	taste	choicePhaseStart	3	144	24	foodImage.91	FOODEEG_Images\0896.jpg	YN	Left	Yes	0.623000300000058	0	539452	253
1054.228515625	0	taste	response	3	144	24	foodImage.91	FOODEEG_Images\0896.jpg	YN	Left	Yes	0.623000300000058	0	539766	234
1055.26953125	1	taste	trialStart	3	145	25	foodImage.49	FOODEEG_Images\0515.jpg	YN	Left	Yes	0.600296399999934	0	540299	251
1056.3125	2	taste	foodImageDisplay	3	145	25	foodImage.49	FOODEEG_Images\0515.jpg	YN	Left	Yes	0.600296399999934	0	540833	252
1058.380859375	0.600296399999934	taste	choicePhaseStart	3	145	25	foodImage.49	FOODEEG_Images\0515.jpg	YN	Left	Yes	0.600296399999934	0	541892	253
1058.974609375	0	taste	response	3	145	25	foodImage.49	FOODEEG_Images\0515.jpg	YN	Left	Yes	0.600296399999934	0	542196	234
1060.013671875	1	decision	trialStart	3	146	26	foodImage.93	FOODEEG_Images\0901.jpg	NY	Left	No	0.809854600000108	0	542728	251
1061.052734375	2	decision	foodImageDisplay	3	146	26	foodImage.93	FOODEEG_Images\0901.jpg	NY	Left	No	0.809854600000108	0	543260	252
1063.115234375	0.809854600000108	decision	choicePhaseStart	3	146	26	foodImage.93	FOODEEG_Images\0901.jpg	NY	Left	No	0.809854600000108	0	544316	253
1063.916015625	0	decision	response	3	146	26	foodImage.93	FOODEEG_Images\0901.jpg	NY	Left	No	0.809854600000108	0	544726	234
1064.95703125	1	decision	trialStart	3	147	27	foodImage.37	FOODEEG_Images\0359.jpg	NY	Right	Yes	0.592368499999793	0	545259	251
1065.998046875	2	decision	foodImageDisplay	3	147	27	foodImage.37	FOODEEG_Images\0359.jpg	NY	Right	Yes	0.592368499999793	0	545792	252
1068.0625	0.592368499999793	decision	choicePhaseStart	3	147	27	foodImage.37	FOODEEG_Images\0359.jpg	NY	Right	Yes	0.592368499999793	0	546849	253
1068.64453125	0	decision	response	3	147	27	foodImage.37	FOODEEG_Images\0359.jpg	NY	Right	Yes	0.592368499999793	0	547147	235
1069.685546875	1	health	trialStart	3	148	28	foodImage.46	FOODEEG_Images\0479.jpg	YN	Left	Yes	0.649133500000062	0	547680	251
1070.740234375	2	health	foodImageDisplay	3	148	28	foodImage.46	FOODEEG_Images\0479.jpg	YN	Left	Yes	0.649133500000062	0	548220	252
1072.8046875	0.649133500000062	health	choicePhaseStart	3	148	28	foodImage.46	FOODEEG_Images\0479.jpg	YN	Left	Yes	0.649133500000062	0	549277	253
1073.443359375	0	health	response	3	148	28	foodImage.46	FOODEEG_Images\0479.jpg	YN	Left	Yes	0.649133500000062	0	549604	234
1074.486328125	1	health	trialStart	3	149	29	foodImage.48	FOODEEG_Images\0494.jpg	NY	Left	No	0.59076929999992	0	550138	251
1075.52734375	2	health	foodImageDisplay	3	149	29	foodImage.48	FOODEEG_Images\0494.jpg	NY	Left	No	0.59076929999992	0	550671	252
1077.58984375	0.59076929999992	health	choicePhaseStart	3	149	29	foodImage.48	FOODEEG_Images\0494.jpg	NY	Left	No	0.59076929999992	0	551727	253
1078.171875	0	health	response	3	149	29	foodImage.48	FOODEEG_Images\0494.jpg	NY	Left	No	0.59076929999992	0	552025	234
1079.212890625	1	decision	trialStart	3	150	30	foodImage.45	FOODEEG_Images\0478.jpg	YN	Left	Yes	0.627408400000604	0	552558	251
1080.2578125	2	decision	foodImageDisplay	3	150	30	foodImage.45	FOODEEG_Images\0478.jpg	YN	Left	Yes	0.627408400000604	0	553093	252
1082.3203125	0.627408400000604	decision	choicePhaseStart	3	150	30	foodImage.45	FOODEEG_Images\0478.jpg	YN	Left	Yes	0.627408400000604	0	554149	253
1082.939453125	0	decision	response	3	150	30	foodImage.45	FOODEEG_Images\0478.jpg	YN	Left	Yes	0.627408400000604	0	554466	234
1083.98046875	1	taste	trialStart	3	151	31	foodImage.42	FOODEEG_Images\0438.jpg	NY	Right	Yes	0.7214598999999	0	554999	251
1085.0703125	2	taste	foodImageDisplay	3	151	31	foodImage.42	FOODEEG_Images\0438.jpg	NY	Right	Yes	0.7214598999999	0	555557	252
1087.138671875	0.7214598999999	taste	choicePhaseStart	3	151	31	foodImage.42	FOODEEG_Images\0438.jpg	NY	Right	Yes	0.7214598999999	0	556616	253
1087.8515625	0	taste	response	3	151	31	foodImage.42	FOODEEG_Images\0438.jpg	NY	Right	Yes	0.7214598999999	0	556981	235
1088.892578125	1	health	trialStart	3	152	32	foodImage.85	FOODEEG_Images\0841.jpg	YN	Left	Yes	0.758480899999995	0	557514	251
1089.951171875	2	health	foodImageDisplay	3	152	32	foodImage.85	FOODEEG_Images\0841.jpg	YN	Left	Yes	0.758480899999995	0	558056	252
1092.013671875	0.758480899999995	health	choicePhaseStart	3	152	32	foodImage.85	FOODEEG_Images\0841.jpg	YN	Left	Yes	0.758480899999995	0	559112	253
1092.763671875	0	health	response	3	152	32	foodImage.85	FOODEEG_Images\0841.jpg	YN	Left	Yes	0.758480899999995	0	559496	234
1093.806640625	1	taste	trialStart	3	153	33	foodImage.10	FOODEEG_Images\0145.jpg	NY	Right	Yes	0.93148310000015	0	560030	251
1094.888671875	2	taste	foodImageDisplay	3	153	33	foodImage.10	FOODEEG_Images\0145.jpg	NY	Right	Yes	0.93148310000015	0	560584	252
1096.953125	0.93148310000015	taste	choicePhaseStart	3	153	33	foodImage.10	FOODEEG_Images\0145.jpg	NY	Right	Yes	0.93148310000015	0	561641	253
1097.875	0	taste	response	3	153	33	foodImage.10	FOODEEG_Images\0145.jpg	NY	Right	Yes	0.93148310000015	0	562113	235
1098.91796875	1	decision	trialStart	3	154	34	foodImage.43	FOODEEG_Images\0445.jpg	NY	Right	Yes	0.639892700000019	0	562647	251
1099.97265625	2	decision	foodImageDisplay	3	154	34	foodImage.43	FOODEEG_Images\0445.jpg	NY	Right	Yes	0.639892700000019	0	563187	252
1102.037109375	0.639892700000019	decision	choicePhaseStart	3	154	34	foodImage.43	FOODEEG_Images\0445.jpg	NY	Right	Yes	0.639892700000019	0	564244	253
1102.666015625	0	decision	response	3	154	34	foodImage.43	FOODEEG_Images\0445.jpg	NY	Right	Yes	0.639892700000019	0	564566	235
1103.708984375	1	health	trialStart	3	155	35	foodImage.8	FOODEEG_Images\0136.jpg	NY	Left	No	0.802796700000727	0	565100	251
1104.751953125	2	health	foodImageDisplay	3	155	35	foodImage.8	FOODEEG_Images\0136.jpg	NY	Left	No	0.802796700000727	0	565634	252
1106.81640625	0.802796700000727	health	choicePhaseStart	3	155	35	foodImage.8	FOODEEG_Images\0136.jpg	NY	Left	No	0.802796700000727	0	566691	253
1107.611328125	0	health	response	3	155	35	foodImage.8	FOODEEG_Images\0136.jpg	NY	Left	No	0.802796700000727	0	567098	234
1108.65234375	1	health	trialStart	3	156	36	foodImage.35	FOODEEG_Images\0350.jpg	NY	Left	No	1.01229480000075	0	567631	251
1109.69140625	2	health	foodImageDisplay	3	156	36	foodImage.35	FOODEEG_Images\0350.jpg	NY	Left	No	1.01229480000075	0	568163	252
1111.759765625	1.01229480000075	health	choicePhaseStart	3	156	36	foodImage.35	FOODEEG_Images\0350.jpg	NY	Left	No	1.01229480000075	0	569222	253
1112.76171875	0	health	response	3	156	36	foodImage.35	FOODEEG_Images\0350.jpg	NY	Left	No	1.01229480000075	0	569735	234
1113.80859375	1	health	trialStart	3	157	37	foodImage.6	FOODEEG_Images\0113.jpg	YN	Right	No	0.740073300000404	0	570271	251
1114.849609375	2	health	foodImageDisplay	3	157	37	foodImage.6	FOODEEG_Images\0113.jpg	YN	Right	No	0.740073300000404	0	570804	252
1116.912109375	0.740073300000404	health	choicePhaseStart	3	157	37	foodImage.6	FOODEEG_Images\0113.jpg	YN	Right	No	0.740073300000404	0	571860	253
1117.642578125	0	health	response	3	157	37	foodImage.6	FOODEEG_Images\0113.jpg	YN	Right	No	0.740073300000404	0	572234	235
1118.685546875	1	health	trialStart	3	158	38	foodImage.40	FOODEEG_Images\0373.jpg	NY	Left	No	0.781694099999186	0	572768	251
1119.736328125	2	health	foodImageDisplay	3	158	38	foodImage.40	FOODEEG_Images\0373.jpg	NY	Left	No	0.781694099999186	0	573306	252
1121.8046875	0.781694099999186	health	choicePhaseStart	3	158	38	foodImage.40	FOODEEG_Images\0373.jpg	NY	Left	No	0.781694099999186	0	574365	253
1122.578125	0	health	response	3	158	38	foodImage.40	FOODEEG_Images\0373.jpg	NY	Left	No	0.781694099999186	0	574761	234
1123.62109375	1	decision	trialStart	3	159	39	foodImage.5	FOODEEG_Images\0107.jpg	NY	Left	No	0.613405500000226	0	575295	251
1124.6796875	2	decision	foodImageDisplay	3	159	39	foodImage.5	FOODEEG_Images\0107.jpg	NY	Left	No	0.613405500000226	0	575837	252
1126.7421875	0.613405500000226	decision	choicePhaseStart	3	159	39	foodImage.5	FOODEEG_Images\0107.jpg	NY	Left	No	0.613405500000226	0	576893	253
1127.345703125	0	decision	response	3	159	39	foodImage.5	FOODEEG_Images\0107.jpg	NY	Left	No	0.613405500000226	0	577202	234
1128.388671875	1	decision	trialStart	3	160	40	foodImage.66	FOODEEG_Images\0676.jpg	YN	Right	No	0.73184399999991	0	577736	251
1129.4296875	2	decision	foodImageDisplay	3	160	40	foodImage.66	FOODEEG_Images\0676.jpg	YN	Right	No	0.73184399999991	0	578269	252
1131.4921875	0.73184399999991	decision	choicePhaseStart	3	160	40	foodImage.66	FOODEEG_Images\0676.jpg	YN	Right	No	0.73184399999991	0	579325	253
1132.216796875	0	decision	response	3	160	40	foodImage.66	FOODEEG_Images\0676.jpg	YN	Right	No	0.73184399999991	0	579696	235
1133.2578125	1	taste	trialStart	3	161	41	foodImage.93	FOODEEG_Images\0901.jpg	YN	Right	No	1.12156479999976	0	580229	251
1134.296875	2	taste	foodImageDisplay	3	161	41	foodImage.93	FOODEEG_Images\0901.jpg	YN	Right	No	1.12156479999976	0	580761	252
1136.361328125	1.12156479999976	taste	choicePhaseStart	3	161	41	foodImage.93	FOODEEG_Images\0901.jpg	YN	Right	No	1.12156479999976	0	581818	253
1137.47265625	0	taste	response	3	161	41	foodImage.93	FOODEEG_Images\0901.jpg	YN	Right	No	1.12156479999976	0	582387	235
1138.517578125	1	decision	trialStart	3	162	42	foodImage.62	FOODEEG_Images\0644.jpg	YN	Left	Yes	0.736955400000625	0	582922	251
1139.57421875	2	decision	foodImageDisplay	3	162	42	foodImage.62	FOODEEG_Images\0644.jpg	YN	Left	Yes	0.736955400000625	0	583463	252
1141.642578125	0.736955400000625	decision	choicePhaseStart	3	162	42	foodImage.62	FOODEEG_Images\0644.jpg	YN	Left	Yes	0.736955400000625	0	584522	253
1142.369140625	0	decision	response	3	162	42	foodImage.62	FOODEEG_Images\0644.jpg	YN	Left	Yes	0.736955400000625	0	584894	234
1143.412109375	1	decision	trialStart	3	163	43	foodImage.60	FOODEEG_Images\0614.jpg	YN	Left	Yes	0.627068599999802	0	585428	251
1144.470703125	2	decision	foodImageDisplay	3	163	43	foodImage.60	FOODEEG_Images\0614.jpg	YN	Left	Yes	0.627068599999802	0	585970	252
1146.53515625	0.627068599999802	decision	choicePhaseStart	3	163	43	foodImage.60	FOODEEG_Images\0614.jpg	YN	Left	Yes	0.627068599999802	0	587027	253
1147.15234375	0	decision	response	3	163	43	foodImage.60	FOODEEG_Images\0614.jpg	YN	Left	Yes	0.627068599999802	0	587343	234
1148.1953125	1	health	trialStart	3	164	44	foodImage.119	FOODEEG_Images\0927.jpg	NY	Left	No	0.942727399999967	0	587877	251
1149.232421875	2	health	foodImageDisplay	3	164	44	foodImage.119	FOODEEG_Images\0927.jpg	NY	Left	No	0.942727399999967	0	588408	252
1151.296875	0.942727399999967	health	choicePhaseStart	3	164	44	foodImage.119	FOODEEG_Images\0927.jpg	NY	Left	No	0.942727399999967	0	589465	253
1152.232421875	0	health	response	3	164	44	foodImage.119	FOODEEG_Images\0927.jpg	NY	Left	No	0.942727399999967	0	589944	234
1153.2734375	1	taste	trialStart	3	165	45	foodImage.61	FOODEEG_Images\0640.jpg	YN	Left	Yes	0.83087069999965	0	590477	251
1154.31640625	2	taste	foodImageDisplay	3	165	45	foodImage.61	FOODEEG_Images\0640.jpg	YN	Left	Yes	0.83087069999965	0	591011	252
1156.37890625	0.83087069999965	taste	choicePhaseStart	3	165	45	foodImage.61	FOODEEG_Images\0640.jpg	YN	Left	Yes	0.83087069999965	0	592067	253
1157.201171875	0	taste	response	3	165	45	foodImage.61	FOODEEG_Images\0640.jpg	YN	Left	Yes	0.83087069999965	0	592488	234
1158.244140625	1	decision	trialStart	3	166	46	foodImage.57	FOODEEG_Images\0587.jpg	NY	Left	No	0.663815799999611	0	593022	251
1159.287109375	2	decision	foodImageDisplay	3	166	46	foodImage.57	FOODEEG_Images\0587.jpg	NY	Left	No	0.663815799999611	0	593556	252
1161.3515625	0.663815799999611	decision	choicePhaseStart	3	166	46	foodImage.57	FOODEEG_Images\0587.jpg	NY	Left	No	0.663815799999611	0	594613	253
1162.0078125	0	decision	response	3	166	46	foodImage.57	FOODEEG_Images\0587.jpg	NY	Left	No	0.663815799999611	0	594949	234
1163.048828125	1	health	trialStart	3	167	47	foodImage.66	FOODEEG_Images\0676.jpg	YN	Right	No	0.887943099999575	0	595482	251
1164.08984375	2	health	foodImageDisplay	3	167	47	foodImage.66	FOODEEG_Images\0676.jpg	YN	Right	No	0.887943099999575	0	596015	252
1166.154296875	0.887943099999575	health	choicePhaseStart	3	167	47	foodImage.66	FOODEEG_Images\0676.jpg	YN	Right	No	0.887943099999575	0	597072	253
1167.033203125	0	health	response	3	167	47	foodImage.66	FOODEEG_Images\0676.jpg	YN	Right	No	0.887943099999575	0	597522	235
1168.076171875	1	taste	trialStart	3	168	48	foodImage.35	FOODEEG_Images\0350.jpg	YN	Left	Yes	0.849403500000335	0	598056	251
1169.11328125	2	taste	foodImageDisplay	3	168	48	foodImage.35	FOODEEG_Images\0350.jpg	YN	Left	Yes	0.849403500000335	0	598587	252
1171.17578125	0.849403500000335	taste	choicePhaseStart	3	168	48	foodImage.35	FOODEEG_Images\0350.jpg	YN	Left	Yes	0.849403500000335	0	599643	253
1172.015625	0	taste	response	3	168	48	foodImage.35	FOODEEG_Images\0350.jpg	YN	Left	Yes	0.849403500000335	0	600073	234
1173.056640625	1	decision	trialStart	3	169	49	foodImage.11	FOODEEG_Images\0180.jpg	YN	Right	No	0.957736500000465	0	600606	251
1174.099609375	2	decision	foodImageDisplay	3	169	49	foodImage.11	FOODEEG_Images\0180.jpg	YN	Right	No	0.957736500000465	0	601140	252
1176.1640625	0.957736500000465	decision	choicePhaseStart	3	169	49	foodImage.11	FOODEEG_Images\0180.jpg	YN	Right	No	0.957736500000465	0	602197	253
1177.111328125	0	decision	response	3	169	49	foodImage.11	FOODEEG_Images\0180.jpg	YN	Right	No	0.957736500000465	0	602682	235
1178.15234375	1	decision	trialStart	3	170	50	foodImage.31	FOODEEG_Images\0294.jpg	NY	Left	No	0.707587400000193	0	603215	251
1179.193359375	2	decision	foodImageDisplay	3	170	50	foodImage.31	FOODEEG_Images\0294.jpg	NY	Left	No	0.707587400000193	0	603748	252
1181.26171875	0.707587400000193	decision	choicePhaseStart	3	170	50	foodImage.31	FOODEEG_Images\0294.jpg	NY	Left	No	0.707587400000193	0	604807	253
1181.958984375	0	decision	response	3	170	50	foodImage.31	FOODEEG_Images\0294.jpg	NY	Left	No	0.707587400000193	0	605164	234
1183.00390625	1	health	trialStart	3	171	51	foodImage.36	FOODEEG_Images\0352.jpg	YN	Right	No	0.973313899999994	0	605699	251
1184.060546875	2	health	foodImageDisplay	3	171	51	foodImage.36	FOODEEG_Images\0352.jpg	YN	Right	No	0.973313899999994	0	606240	252
1186.125	0.973313899999994	health	choicePhaseStart	3	171	51	foodImage.36	FOODEEG_Images\0352.jpg	YN	Right	No	0.973313899999994	0	607297	253
1187.087890625	0	health	response	3	171	51	foodImage.36	FOODEEG_Images\0352.jpg	YN	Right	No	0.973313899999994	0	607790	235
1188.12890625	1	taste	trialStart	3	172	52	foodImage.84	FOODEEG_Images\0830.jpg	NY	Right	Yes	0.877007499999308	0	608323	251
1189.185546875	2	taste	foodImageDisplay	3	172	52	foodImage.84	FOODEEG_Images\0830.jpg	NY	Right	Yes	0.877007499999308	0	608864	252
1191.248046875	0.877007499999308	taste	choicePhaseStart	3	172	52	foodImage.84	FOODEEG_Images\0830.jpg	NY	Right	Yes	0.877007499999308	0	609920	253
1192.119140625	0	taste	response	3	172	52	foodImage.84	FOODEEG_Images\0830.jpg	NY	Right	Yes	0.877007499999308	0	610366	235
1193.158203125	1	decision	trialStart	3	173	53	foodImage.10	FOODEEG_Images\0145.jpg	NY	Left	No	1.46556019999935	0	610898	251
1194.21484375	2	decision	foodImageDisplay	3	173	53	foodImage.10	FOODEEG_Images\0145.jpg	NY	Left	No	1.46556019999935	0	611439	252
1196.279296875	1.46556019999935	decision	choicePhaseStart	3	173	53	foodImage.10	FOODEEG_Images\0145.jpg	NY	Left	No	1.46556019999935	0	612496	253
1197.734375	0	decision	response	3	173	53	foodImage.10	FOODEEG_Images\0145.jpg	NY	Left	No	1.46556019999935	0	613241	234
1198.779296875	1	taste	trialStart	3	174	54	foodImage.46	FOODEEG_Images\0479.jpg	YN	Left	Yes	0.782742700000199	0	613776	251
1199.833984375	2	taste	foodImageDisplay	3	174	54	foodImage.46	FOODEEG_Images\0479.jpg	YN	Left	Yes	0.782742700000199	0	614316	252
1201.8984375	0.782742700000199	taste	choicePhaseStart	3	174	54	foodImage.46	FOODEEG_Images\0479.jpg	YN	Left	Yes	0.782742700000199	0	615373	253
1202.671875	0	taste	response	3	174	54	foodImage.46	FOODEEG_Images\0479.jpg	YN	Left	Yes	0.782742700000199	0	615769	234
1203.7109375	1	health	trialStart	3	175	55	foodImage.5	FOODEEG_Images\0107.jpg	NY	Left	No	0.803703100000348	0	616301	251
1204.78125	2	health	foodImageDisplay	3	175	55	foodImage.5	FOODEEG_Images\0107.jpg	NY	Left	No	0.803703100000348	0	616849	252
1206.845703125	0.803703100000348	health	choicePhaseStart	3	175	55	foodImage.5	FOODEEG_Images\0107.jpg	NY	Left	No	0.803703100000348	0	617906	253
1207.638671875	0	health	response	3	175	55	foodImage.5	FOODEEG_Images\0107.jpg	NY	Left	No	0.803703100000348	0	618312	234
1208.681640625	1	taste	trialStart	3	176	56	foodImage.82	FOODEEG_Images\0805.jpg	NY	Right	Yes	0.832853500000056	0	618846	251
1209.759765625	2	taste	foodImageDisplay	3	176	56	foodImage.82	FOODEEG_Images\0805.jpg	NY	Right	Yes	0.832853500000056	0	619398	252
1211.82421875	0.832853500000056	taste	choicePhaseStart	3	176	56	foodImage.82	FOODEEG_Images\0805.jpg	NY	Right	Yes	0.832853500000056	0	620455	253
1212.646484375	0	taste	response	3	176	56	foodImage.82	FOODEEG_Images\0805.jpg	NY	Right	Yes	0.832853500000056	0	620876	235
1213.697265625	1	decision	trialStart	3	177	57	foodImage.13	FOODEEG_Images\0183.jpg	NY	Left	No	4.77109329999985	0	621414	251
1214.740234375	2	decision	foodImageDisplay	3	177	57	foodImage.13	FOODEEG_Images\0183.jpg	NY	Left	No	4.77109329999985	0	621948	252
1216.8046875	4.77109329999985	decision	choicePhaseStart	3	177	57	foodImage.13	FOODEEG_Images\0183.jpg	NY	Left	No	4.77109329999985	0	623005	253
1221.56640625	0	decision	response	3	177	57	foodImage.13	FOODEEG_Images\0183.jpg	NY	Left	No	4.77109329999985	0	625443	234
1222.609375	1	taste	trialStart	3	178	58	foodImage.43	FOODEEG_Images\0445.jpg	YN	Left	Yes	0.835000299999592	0	625977	251
1223.66796875	2	taste	foodImageDisplay	3	178	58	foodImage.43	FOODEEG_Images\0445.jpg	YN	Left	Yes	0.835000299999592	0	626519	252
1225.73046875	0.835000299999592	taste	choicePhaseStart	3	178	58	foodImage.43	FOODEEG_Images\0445.jpg	YN	Left	Yes	0.835000299999592	0	627575	253
1226.55859375	0	taste	response	3	178	58	foodImage.43	FOODEEG_Images\0445.jpg	YN	Left	Yes	0.835000299999592	0	627999	234
1227.6015625	1	health	trialStart	3	179	59	foodImage.41	FOODEEG_Images\0409.jpg	NY	Right	Yes	0.791167400000631	0	628533	251
1228.671875	2	health	foodImageDisplay	3	179	59	foodImage.41	FOODEEG_Images\0409.jpg	NY	Right	Yes	0.791167400000631	0	629081	252
1230.736328125	0.791167400000631	health	choicePhaseStart	3	179	59	foodImage.41	FOODEEG_Images\0409.jpg	NY	Right	Yes	0.791167400000631	0	630138	253
1231.517578125	0	health	response	3	179	59	foodImage.41	FOODEEG_Images\0409.jpg	NY	Right	Yes	0.791167400000631	0	630538	235
1232.5625	1	health	trialStart	3	180	60	foodImage.100	FOODEEG_Images\0908.jpg	YN	Left	Yes	0.728337300000021	0	631073	251
1233.599609375	2	health	foodImageDisplay	3	180	60	foodImage.100	FOODEEG_Images\0908.jpg	YN	Left	Yes	0.728337300000021	0	631604	252
1235.662109375	0.728337300000021	health	choicePhaseStart	3	180	60	foodImage.100	FOODEEG_Images\0908.jpg	YN	Left	Yes	0.728337300000021	0	632660	253
1236.380859375	0	health	response	3	180	60	foodImage.100	FOODEEG_Images\0908.jpg	YN	Left	Yes	0.728337300000021	0	633028	234
1238.423828125	11.326171875	n/a	blockEnd	n/a	n/a	n/a	n/a	n/a	n/a	n/a	n/a	n/a	n/a	634074	254
1249.75	2	n/a	blockStart	4	n/a	n/a	n/a	n/a	n/a	n/a	n/a	n/a	n/a	639873	250
1251.783203125	1	taste	trialStart	4	181	1	foodImage.33	FOODEEG_Images\0329.jpg	NY	Right	Yes	0.682977700000265	0	640914	251
1252.826171875	2	taste	foodImageDisplay	4	181	1	foodImage.33	FOODEEG_Images\0329.jpg	NY	Right	Yes	0.682977700000265	0	641448	252
1254.890625	0.682977700000265	taste	choicePhaseStart	4	181	1	foodImage.33	FOODEEG_Images\0329.jpg	NY	Right	Yes	0.682977700000265	0	642505	253
1255.564453125	0	taste	response	4	181	1	foodImage.33	FOODEEG_Images\0329.jpg	NY	Right	Yes	0.682977700000265	0	642850	235
1256.607421875	1	decision	trialStart	4	182	2	foodImage.69	FOODEEG_Images\0693.jpg	NY	Right	Yes	0.683697200000097	0	643384	251
1257.650390625	2	decision	foodImageDisplay	4	182	2	foodImage.69	FOODEEG_Images\0693.jpg	NY	Right	Yes	0.683697200000097	0	643918	252
1259.71484375	0.683697200000097	decision	choicePhaseStart	4	182	2	foodImage.69	FOODEEG_Images\0693.jpg	NY	Right	Yes	0.683697200000097	0	644975	253
1260.388671875	0	decision	response	4	182	2	foodImage.69	FOODEEG_Images\0693.jpg	NY	Right	Yes	0.683697200000097	0	645320	235
1261.431640625	1	health	trialStart	4	183	3	foodImage.37	FOODEEG_Images\0359.jpg	YN	Left	Yes	0.699583799999346	0	645854	251
1262.474609375	2	health	foodImageDisplay	4	183	3	foodImage.37	FOODEEG_Images\0359.jpg	YN	Left	Yes	0.699583799999346	0	646388	252
1264.537109375	0.699583799999346	health	choicePhaseStart	4	183	3	foodImage.37	FOODEEG_Images\0359.jpg	YN	Left	Yes	0.699583799999346	0	647444	253
1265.228515625	0	health	response	4	183	3	foodImage.37	FOODEEG_Images\0359.jpg	YN	Left	Yes	0.699583799999346	0	647798	234
1266.271484375	1	decision	trialStart	4	184	4	foodImage.116	FOODEEG_Images\0924.jpg	NY	Left	No	0.669609200000195	0	648332	251
1267.3125	2	decision	foodImageDisplay	4	184	4	foodImage.116	FOODEEG_Images\0924.jpg	NY	Left	No	0.669609200000195	0	648865	252
1269.375	0.669609200000195	decision	choicePhaseStart	4	184	4	foodImage.116	FOODEEG_Images\0924.jpg	NY	Left	No	0.669609200000195	0	649921	253
1270.037109375	0	decision	response	4	184	4	foodImage.116	FOODEEG_Images\0924.jpg	NY	Left	No	0.669609200000195	0	650260	234
1271.076171875	1	health	trialStart	4	185	5	foodImage.91	FOODEEG_Images\0896.jpg	YN	Right	No	0.680339300000014	0	650792	251
1272.134765625	2	health	foodImageDisplay	4	185	5	foodImage.91	FOODEEG_Images\0896.jpg	YN	Right	No	0.680339300000014	0	651334	252
1274.203125	0.680339300000014	health	choicePhaseStart	4	185	5	foodImage.91	FOODEEG_Images\0896.jpg	YN	Right	No	0.680339300000014	0	652393	253
1274.876953125	0	health	response	4	185	5	foodImage.91	FOODEEG_Images\0896.jpg	YN	Right	No	0.680339300000014	0	652738	235
1275.919921875	1	decision	trialStart	4	186	6	foodImage.19	FOODEEG_Images\0225.jpg	YN	Left	Yes	0.835000099999888	0	653272	251
1276.962890625	2	decision	foodImageDisplay	4	186	6	foodImage.19	FOODEEG_Images\0225.jpg	YN	Left	Yes	0.835000099999888	0	653806	252
1279.025390625	0.835000099999888	decision	choicePhaseStart	4	186	6	foodImage.19	FOODEEG_Images\0225.jpg	YN	Left	Yes	0.835000099999888	0	654862	253
1279.8515625	0	decision	response	4	186	6	foodImage.19	FOODEEG_Images\0225.jpg	YN	Left	Yes	0.835000099999888	0	655285	234
1280.892578125	1	taste	trialStart	4	187	7	foodImage.40	FOODEEG_Images\0373.jpg	YN	Left	Yes	1.11334950000037	0	655818	251
1281.931640625	2	taste	foodImageDisplay	4	187	7	foodImage.40	FOODEEG_Images\0373.jpg	YN	Left	Yes	1.11334950000037	0	656350	252
1283.99609375	1.11334950000037	taste	choicePhaseStart	4	187	7	foodImage.40	FOODEEG_Images\0373.jpg	YN	Left	Yes	1.11334950000037	0	657407	253
1285.099609375	0	taste	response	4	187	7	foodImage.40	FOODEEG_Images\0373.jpg	YN	Left	Yes	1.11334950000037	0	657972	234
1286.14453125	1	health	trialStart	4	188	8	foodImage.21	FOODEEG_Images\0234.jpg	YN	Left	Yes	1.13307209999948	0	658507	251
1287.19921875	2	health	foodImageDisplay	4	188	8	foodImage.21	FOODEEG_Images\0234.jpg	YN	Left	Yes	1.13307209999948	0	659047	252
1289.263671875	1.13307209999948	health	choicePhaseStart	4	188	8	foodImage.21	FOODEEG_Images\0234.jpg	YN	Left	Yes	1.13307209999948	0	660104	253
1290.38671875	0	health	response	4	188	8	foodImage.21	FOODEEG_Images\0234.jpg	YN	Left	Yes	1.13307209999948	0	660679	234
1291.4296875	1	decision	trialStart	4	189	9	foodImage.95	FOODEEG_Images\0903.jpg	YN	Right	No	0.763842600000316	0	661213	251
1292.47265625	2	decision	foodImageDisplay	4	189	9	foodImage.95	FOODEEG_Images\0903.jpg	YN	Right	No	0.763842600000316	0	661747	252
1294.537109375	0.763842600000316	decision	choicePhaseStart	4	189	9	foodImage.95	FOODEEG_Images\0903.jpg	YN	Right	No	0.763842600000316	0	662804	253
1295.291015625	0	decision	response	4	189	9	foodImage.95	FOODEEG_Images\0903.jpg	YN	Right	No	0.763842600000316	0	663190	235
1296.333984375	1	taste	trialStart	4	190	10	foodImage.116	FOODEEG_Images\0924.jpg	YN	Right	No	0.6479216000007	0	663724	251
1297.373046875	2	taste	foodImageDisplay	4	190	10	foodImage.116	FOODEEG_Images\0924.jpg	YN	Right	No	0.6479216000007	0	664256	252
1299.435546875	0.6479216000007	taste	choicePhaseStart	4	190	10	foodImage.116	FOODEEG_Images\0924.jpg	YN	Right	No	0.6479216000007	0	665312	253
1300.07421875	0	taste	response	4	190	10	foodImage.116	FOODEEG_Images\0924.jpg	YN	Right	No	0.6479216000007	0	665639	235
1301.1171875	1	decision	trialStart	4	191	11	foodImage.107	FOODEEG_Images\0915.jpg	NY	Left	No	0.616684300000088	0	666173	251
1302.171875	2	decision	foodImageDisplay	4	191	11	foodImage.107	FOODEEG_Images\0915.jpg	NY	Left	No	0.616684300000088	0	666713	252
1304.234375	0.616684300000088	decision	choicePhaseStart	4	191	11	foodImage.107	FOODEEG_Images\0915.jpg	NY	Left	No	0.616684300000088	0	667769	253
1304.841796875	0	decision	response	4	191	11	foodImage.107	FOODEEG_Images\0915.jpg	NY	Left	No	0.616684300000088	0	668080	234
1305.884765625	1	decision	trialStart	4	192	12	foodImage.30	FOODEEG_Images\0282.jpg	NY	Right	Yes	0.8435058999994	0	668614	251
1306.927734375	2	decision	foodImageDisplay	4	192	12	foodImage.30	FOODEEG_Images\0282.jpg	NY	Right	Yes	0.8435058999994	0	669148	252
1308.9921875	0.8435058999994	decision	choicePhaseStart	4	192	12	foodImage.30	FOODEEG_Images\0282.jpg	NY	Right	Yes	0.8435058999994	0	670205	253
1309.826171875	0	decision	response	4	192	12	foodImage.30	FOODEEG_Images\0282.jpg	NY	Right	Yes	0.8435058999994	0	670632	235
1310.87109375	1	decision	trialStart	4	193	13	foodImage.71	FOODEEG_Images\0713.jpg	YN	Right	No	0.634846999999354	0	671167	251
1311.9140625	2	decision	foodImageDisplay	4	193	13	foodImage.71	FOODEEG_Images\0713.jpg	YN	Right	No	0.634846999999354	0	671701	252
1313.9765625	0.634846999999354	decision	choicePhaseStart	4	193	13	foodImage.71	FOODEEG_Images\0713.jpg	YN	Right	No	0.634846999999354	0	672757	253
1314.6015625	0	decision	response	4	193	13	foodImage.71	FOODEEG_Images\0713.jpg	YN	Right	No	0.634846999999354	0	673077	235
1315.64453125	1	decision	trialStart	4	194	14	foodImage.29	FOODEEG_Images\0278.jpg	NY	Right	Yes	0.668491700000232	0	673611	251
