onset	duration	trial_type	event_type	block	trial_total	trial_in_block	food_image_code	food_image_path	button_position	resp_position	resp_choice	choice_rt	resp_too_slow	sample	trigger
341.466796875	2	n/a	blockStart	1	n/a	n/a	n/a	n/a	n/a	n/a	n/a	n/a	n/a	174832	250
343.50390625	1	taste	trialStart	1	1	1	foodImage.65	FOODEEG_Images\0658.jpg	YN	Right	No	1.28414710005745	0	175875	251
344.552734375	2	taste	foodImageDisplay	1	1	1	foodImage.65	FOODEEG_Images\0658.jpg	YN	Right	No	1.28414710005745	0	176412	252
346.619140625	1.28414710005745	taste	choicePhaseStart	1	1	1	foodImage.65	FOODEEG_Images\0658.jpg	YN	Right	No	1.28414710005745	0	177470	253
347.896484375	0	taste	response	1	1	1	foodImage.65	FOODEEG_Images\0658.jpg	YN	Right	No	1.28414710005745	0	178124	235
349	1	taste	trialStart	1	2	2	foodImage.48	FOODEEG_Images\0494.jpg	YN	Left	Yes	0.681213099975139	0	178689	251
350.0625	2	taste	foodImageDisplay	1	2	2	foodImage.48	FOODEEG_Images\0494.jpg	YN	Left	Yes	0.681213099975139	0	179233	252
352.1328125	0.681213099975139	taste	choicePhaseStart	1	2	2	foodImage.48	FOODEEG_Images\0494.jpg	YN	Left	Yes	0.681213099975139	0	180293	253
352.806640625	0	taste	response	1	2	2	foodImage.48	FOODEEG_Images\0494.jpg	YN	Left	Yes	0.681213099975139	0	180638	234
353.857421875	1	health	trialStart	1	3	3	foodImage.66	FOODEEG_Images\0676.jpg	NY	Left	No	0.723646599799395	0	181176	251
354.900390625	2	health	foodImageDisplay	1	3	3	foodImage.66	FOODEEG_Images\0676.jpg	NY	Left	No	0.723646599799395	0	181710	252
356.96484375	0.723646599799395	health	choicePhaseStart	1	3	3	foodImage.66	FOODEEG_Images\0676.jpg	NY	Left	No	0.723646599799395	0	182767	253
357.6796875	0	health	response	1	3	3	foodImage.66	FOODEEG_Images\0676.jpg	NY	Left	No	0.723646599799395	0	183133	234
358.724609375	1	decision	trialStart	1	4	4	foodImage.67	FOODEEG_Images\0679.jpg	YN	Left	Yes	1.0417606998235	0	183668	251
359.78125	2	decision	foodImageDisplay	1	4	4	foodImage.67	FOODEEG_Images\0679.jpg	YN	Left	Yes	1.0417606998235	0	184209	252
361.845703125	1.0417606998235	decision	choicePhaseStart	1	4	4	foodImage.67	FOODEEG_Images\0679.jpg	YN	Left	Yes	1.0417606998235	0	185266	253
362.87890625	0	decision	response	1	4	4	foodImage.67	FOODEEG_Images\0679.jpg	YN	Left	Yes	1.0417606998235	0	185795	234
363.919921875	1	health	trialStart	1	5	5	foodImage.96	FOODEEG_Images\0904.jpg	NY	Left	No	1.00829270016402	0	186328	251
364.966796875	2	health	foodImageDisplay	1	5	5	foodImage.96	FOODEEG_Images\0904.jpg	NY	Left	No	1.00829270016402	0	186864	252
367.03125	1.00829270016402	health	choicePhaseStart	1	5	5	foodImage.96	FOODEEG_Images\0904.jpg	NY	Left	No	1.00829270016402	0	187921	253
368.03125	0	health	response	1	5	5	foodImage.96	FOODEEG_Images\0904.jpg	NY	Left	No	1.00829270016402	0	188433	234
369.087890625	1	health	trialStart	1	6	6	foodImage.34	FOODEEG_Images\0339.jpg	YN	Right	No	0.734202800318599	0	188974	251
370.173828125	2	health	foodImageDisplay	1	6	6	foodImage.34	FOODEEG_Images\0339.jpg	YN	Right	No	0.734202800318599	0	189530	252
372.23828125	0.734202800318599	health	choicePhaseStart	1	6	6	foodImage.34	FOODEEG_Images\0339.jpg	YN	Right	No	0.734202800318599	0	190587	253
372.966796875	0	health	response	1	6	6	foodImage.34	FOODEEG_Images\0339.jpg	YN	Right	No	0.734202800318599	0	190960	235
374.005859375	1	decision	trialStart	1	7	7	foodImage.119	FOODEEG_Images\0927.jpg	NY	Left	No	0.652535299770534	0	191492	251
375.0625	2	decision	foodImageDisplay	1	7	7	foodImage.119	FOODEEG_Images\0927.jpg	NY	Left	No	0.652535299770534	0	192033	252
377.126953125	0.652535299770534	decision	choicePhaseStart	1	7	7	foodImage.119	FOODEEG_Images\0927.jpg	NY	Left	No	0.652535299770534	0	193090	253
377.775390625	0	decision	response	1	7	7	foodImage.119	FOODEEG_Images\0927.jpg	NY	Left	No	0.652535299770534	0	193422	234
378.82421875	1	taste	trialStart	1	8	8	foodImage.37	FOODEEG_Images\0359.jpg	NY	Right	Yes	1.01573999971151	0	193959	251
379.865234375	2	taste	foodImageDisplay	1	8	8	foodImage.37	FOODEEG_Images\0359.jpg	NY	Right	Yes	1.01573999971151	0	194492	252
381.927734375	1.01573999971151	taste	choicePhaseStart	1	8	8	foodImage.37	FOODEEG_Images\0359.jpg	NY	Right	Yes	1.01573999971151	0	195548	253
382.935546875	0	taste	response	1	8	8	foodImage.37	FOODEEG_Images\0359.jpg	NY	Right	Yes	1.01573999971151	0	196064	235
383.974609375	1	health	trialStart	1	9	9	foodImage.68	FOODEEG_Images\0685.jpg	YN	Right	No	0.794010499957949	0	196596	251
385.052734375	2	health	foodImageDisplay	1	9	9	foodImage.68	FOODEEG_Images\0685.jpg	YN	Right	No	0.794010499957949	0	197148	252
387.115234375	0.794010499957949	health	choicePhaseStart	1	9	9	foodImage.68	FOODEEG_Images\0685.jpg	YN	Right	No	0.794010499957949	0	198204	253
387.90234375	0	health	response	1	9	9	foodImage.68	FOODEEG_Images\0685.jpg	YN	Right	No	0.794010499957949	0	198607	235
388.9453125	1	health	trialStart	1	10	10	foodImage.24	FOODEEG_Images\0250.jpg	NY	Right	Yes	0.618164000101388	0	199141	251
389.98828125	2	health	foodImageDisplay	1	10	10	foodImage.24	FOODEEG_Images\0250.jpg	NY	Right	Yes	0.618164000101388	0	199675	252
392.05078125	0.618164000101388	health	choicePhaseStart	1	10	10	foodImage.24	FOODEEG_Images\0250.jpg	NY	Right	Yes	0.618164000101388	0	200731	253
392.662109375	0	health	response	1	10	10	foodImage.24	FOODEEG_Images\0250.jpg	NY	Right	Yes	0.618164000101388	0	201044	235
393.70703125	1	taste	trialStart	1	11	11	foodImage.8	FOODEEG_Images\0136.jpg	NY	Left	No	1.38263120036572	0	201579	251
394.748046875	2	taste	foodImageDisplay	1	11	11	foodImage.8	FOODEEG_Images\0136.jpg	NY	Left	No	1.38263120036572	0	202112	252
396.814453125	1.38263120036572	taste	choicePhaseStart	1	11	11	foodImage.8	FOODEEG_Images\0136.jpg	NY	Left	No	1.38263120036572	0	203170	253
398.189453125	0	taste	response	1	11	11	foodImage.8	FOODEEG_Images\0136.jpg	NY	Left	No	1.38263120036572	0	203874	234
399.232421875	1	health	trialStart	1	12	12	foodImage.104	FOODEEG_Images\0912.jpg	NY	Left	No	1.23051060037687	0	204408	251
400.26953125	2	health	foodImageDisplay	1	12	12	foodImage.104	FOODEEG_Images\0912.jpg	NY	Left	No	1.23051060037687	0	204939	252
402.3359375	1.23051060037687	health	choicePhaseStart	1	12	12	foodImage.104	FOODEEG_Images\0912.jpg	NY	Left	No	1.23051060037687	0	205997	253
403.556640625	0	health	response	1	12	12	foodImage.104	FOODEEG_Images\0912.jpg	NY	Left	No	1.23051060037687	0	206622	234
404.6015625	1	health	trialStart	1	13	13	foodImage.102	FOODEEG_Images\0910.jpg	NY	Left	No	0.994991700164974	0	207157	251
405.642578125	2	health	foodImageDisplay	1	13	13	foodImage.102	FOODEEG_Images\0910.jpg	NY	Left	No	0.994991700164974	0	207690	252
407.70703125	0.994991700164974	health	choicePhaseStart	1	13	13	foodImage.102	FOODEEG_Images\0910.jpg	NY	Left	No	0.994991700164974	0	208747	253
408.693359375	0	health	response	1	13	13	foodImage.102	FOODEEG_Images\0910.jpg	NY	Left	No	0.994991700164974	0	209252	234
409.736328125	1	taste	trialStart	1	14	14	foodImage.116	FOODEEG_Images\0924.jpg	NY	Left	No	1.04524730006233	0	209786	251
410.775390625	2	taste	foodImageDisplay	1	14	14	foodImage.116	FOODEEG_Images\0924.jpg	NY	Left	No	1.04524730006233	0	210318	252
412.83984375	1.04524730006233	taste	choicePhaseStart	1	14	14	foodImage.116	FOODEEG_Images\0924.jpg	NY	Left	No	1.04524730006233	0	211375	253
413.876953125	0	taste	response	1	14	14	foodImage.116	FOODEEG_Images\0924.jpg	NY	Left	No	1.04524730006233	0	211906	234
414.919921875	1	taste	trialStart	1	15	15	foodImage.97	FOODEEG_Images\0905.jpg	NY	Left	No	0.776922000106424	0	212440	251
415.958984375	2	taste	foodImageDisplay	1	15	15	foodImage.97	FOODEEG_Images\0905.jpg	NY	Left	No	0.776922000106424	0	212972	252
418.021484375	0.776922000106424	taste	choicePhaseStart	1	15	15	foodImage.97	FOODEEG_Images\0905.jpg	NY	Left	No	0.776922000106424	0	214028	253
418.7890625	0	taste	response	1	15	15	foodImage.97	FOODEEG_Images\0905.jpg	NY	Left	No	0.776922000106424	0	214421	234
419.83203125	1	health	trialStart	1	16	16	foodImage.78	FOODEEG_Images\0787.jpg	NY	Right	Yes	0.703053999692202	0	214955	251
420.87890625	2	health	foodImageDisplay	1	16	16	foodImage.78	FOODEEG_Images\0787.jpg	NY	Right	Yes	0.703053999692202	0	215491	252
422.943359375	0.703053999692202	health	choicePhaseStart	1	16	16	foodImage.78	FOODEEG_Images\0787.jpg	NY	Right	Yes	0.703053999692202	0	216548	253
423.63671875	0	health	response	1	16	16	foodImage.78	FOODEEG_Images\0787.jpg	NY	Right	Yes	0.703053999692202	0	216903	235
424.6796875	1	decision	trialStart	1	17	17	foodImage.101	FOODEEG_Images\0909.jpg	YN	Right	No	0.988899799995124	0	217437	251
425.736328125	2	decision	foodImageDisplay	1	17	17	foodImage.101	FOODEEG_Images\0909.jpg	YN	Right	No	0.988899799995124	0	217978	252
427.80078125	0.988899799995124	decision	choicePhaseStart	1	17	17	foodImage.101	FOODEEG_Images\0909.jpg	YN	Right	No	0.988899799995124	0	219035	253
428.78125	0	decision	response	1	17	17	foodImage.101	FOODEEG_Images\0909.jpg	YN	Right	No	0.988899799995124	0	219537	235
429.82421875	1	health	trialStart	1	18	18	foodImage.120	FOODEEG_Images\0928.jpg	NY	Right	Yes	2.02303809998557	0	220071	251
430.86328125	2	health	foodImageDisplay	1	18	18	foodImage.120	FOODEEG_Images\0928.jpg	NY	Right	Yes	2.02303809998557	0	220603	252
432.92578125	2.02303809998557	health	choicePhaseStart	1	18	18	foodImage.120	FOODEEG_Images\0928.jpg	NY	Right	Yes	2.02303809998557	0	221659	253
434.939453125	0	health	response	1	18	18	foodImage.120	FOODEEG_Images\0928.jpg	NY	Right	Yes	2.02303809998557	0	222690	235
435.982421875	1	taste	trialStart	1	19	19	foodImage.56	FOODEEG_Images\0586.jpg	YN	Left	Yes	0.954833100084215	0	223224	251
437.02734375	2	taste	foodImageDisplay	1	19	19	foodImage.56	FOODEEG_Images\0586.jpg	YN	Left	Yes	0.954833100084215	0	223759	252
439.08984375	0.954833100084215	taste	choicePhaseStart	1	19	19	foodImage.56	FOODEEG_Images\0586.jpg	YN	Left	Yes	0.954833100084215	0	224815	253
440.03515625	0	taste	response	1	19	19	foodImage.56	FOODEEG_Images\0586.jpg	YN	Left	Yes	0.954833100084215	0	225299	234
441.080078125	1	health	trialStart	1	20	20	foodImage.73	FOODEEG_Images\0717.jpg	YN	Left	Yes	0.65928649995476	0	225834	251
442.140625	2	health	foodImageDisplay	1	20	20	foodImage.73	FOODEEG_Images\0717.jpg	YN	Left	Yes	0.65928649995476	0	226377	252
444.201171875	0.65928649995476	health	choicePhaseStart	1	20	20	foodImage.73	FOODEEG_Images\0717.jpg	YN	Left	Yes	0.65928649995476	0	227432	253
444.8515625	0	health	response	1	20	20	foodImage.73	FOODEEG_Images\0717.jpg	YN	Left	Yes	0.65928649995476	0	227765	234
445.89453125	1	taste	trialStart	1	21	21	foodImage.70	FOODEEG_Images\0705.jpg	YN	Left	Yes	0.883522099815309	0	228299	251
446.955078125	2	taste	foodImageDisplay	1	21	21	foodImage.70	FOODEEG_Images\0705.jpg	YN	Left	Yes	0.883522099815309	0	228842	252
449.017578125	0.883522099815309	taste	choicePhaseStart	1	21	21	foodImage.70	FOODEEG_Images\0705.jpg	YN	Left	Yes	0.883522099815309	0	229898	253
449.892578125	0	taste	response	1	21	21	foodImage.70	FOODEEG_Images\0705.jpg	YN	Left	Yes	0.883522099815309	0	230346	234
450.935546875	1	health	trialStart	1	22	22	foodImage.101	FOODEEG_Images\0909.jpg	YN	Right	No	1.14970730012283	0	230880	251
451.990234375	2	health	foodImageDisplay	1	22	22	foodImage.101	FOODEEG_Images\0909.jpg	YN	Right	No	1.14970730012283	0	231420	252
454.0546875	1.14970730012283	health	choicePhaseStart	1	22	22	foodImage.101	FOODEEG_Images\0909.jpg	YN	Right	No	1.14970730012283	0	232477	253
455.1953125	0	health	response	1	22	22	foodImage.101	FOODEEG_Images\0909.jpg	YN	Right	No	1.14970730012283	0	233061	235
456.240234375	1	taste	trialStart	1	23	23	foodImage.93	FOODEEG_Images\0901.jpg	NY	Left	No	0.756724100094289	0	233596	251
457.283203125	2	taste	foodImageDisplay	1	23	23	foodImage.93	FOODEEG_Images\0901.jpg	NY	Left	No	0.756724100094289	0	234130	252
459.34375	0.756724100094289	taste	choicePhaseStart	1	23	23	foodImage.93	FOODEEG_Images\0901.jpg	NY	Left	No	0.756724100094289	0	235185	253
460.091796875	0	taste	response	1	23	23	foodImage.93	FOODEEG_Images\0901.jpg	NY	Left	No	0.756724100094289	0	235568	234
461.134765625	1	taste	trialStart	1	24	24	foodImage.59	FOODEEG_Images\0607.jpg	YN	Left	Yes	0.75136460037902	0	236102	251
462.181640625	2	taste	foodImageDisplay	1	24	24	foodImage.59	FOODEEG_Images\0607.jpg	YN	Left	Yes	0.75136460037902	0	236638	252
464.24609375	0.75136460037902	taste	choicePhaseStart	1	24	24	foodImage.59	FOODEEG_Images\0607.jpg	YN	Left	Yes	0.75136460037902	0	237695	253
464.986328125	0	taste	response	1	24	24	foodImage.59	FOODEEG_Images\0607.jpg	YN	Left	Yes	0.75136460037902	0	238074	234
466.03515625	1	decision	trialStart	1	25	25	foodImage.69	FOODEEG_Images\0693.jpg	NY	Right	Yes	1.0222355001606	0	238611	251
467.078125	2	decision	foodImageDisplay	1	25	25	foodImage.69	FOODEEG_Images\0693.jpg	NY	Right	Yes	1.0222355001606	0	239145	252
469.140625	1.0222355001606	decision	choicePhaseStart	1	25	25	foodImage.69	FOODEEG_Images\0693.jpg	NY	Right	Yes	1.0222355001606	0	240201	253
470.154296875	0	decision	response	1	25	25	foodImage.69	FOODEEG_Images\0693.jpg	NY	Right	Yes	1.0222355001606	0	240720	235
471.197265625	1	taste	trialStart	1	26	26	foodImage.64	FOODEEG_Images\0647.jpg	YN	Left	Yes	0.957769700326025	0	241254	251
472.26171875	2	taste	foodImageDisplay	1	26	26	foodImage.64	FOODEEG_Images\0647.jpg	YN	Left	Yes	0.957769700326025	0	241799	252
474.32421875	0.957769700326025	taste	choicePhaseStart	1	26	26	foodImage.64	FOODEEG_Images\0647.jpg	YN	Left	Yes	0.957769700326025	0	242855	253
475.275390625	0	taste	response	1	26	26	foodImage.64	FOODEEG_Images\0647.jpg	YN	Left	Yes	0.957769700326025	0	243342	234
476.318359375	1	health	trialStart	1	27	27	foodImage.35	FOODEEG_Images\0350.jpg	NY	Left	No	1.2100440999493	0	243876	251
477.35546875	2	health	foodImageDisplay	1	27	27	foodImage.35	FOODEEG_Images\0350.jpg	NY	Left	No	1.2100440999493	0	244407	252
479.41796875	1.2100440999493	health	choicePhaseStart	1	27	27	foodImage.35	FOODEEG_Images\0350.jpg	NY	Left	No	1.2100440999493	0	245463	253
480.619140625	0	health	response	1	27	27	foodImage.35	FOODEEG_Images\0350.jpg	NY	Left	No	1.2100440999493	0	246078	234
481.658203125	1	health	trialStart	1	28	28	foodImage.70	FOODEEG_Images\0705.jpg	NY	Left	No	1.04174090037122	0	246610	251
482.72265625	2	health	foodImageDisplay	1	28	28	foodImage.70	FOODEEG_Images\0705.jpg	NY	Left	No	1.04174090037122	0	247155	252
484.78515625	1.04174090037122	health	choicePhaseStart	1	28	28	foodImage.70	FOODEEG_Images\0705.jpg	NY	Left	No	1.04174090037122	0	248211	253
485.818359375	0	health	response	1	28	28	foodImage.70	FOODEEG_Images\0705.jpg	NY	Left	No	1.04174090037122	0	248740	234
486.861328125	1	decision	trialStart	1	29	29	foodImage.43	FOODEEG_Images\0445.jpg	NY	Right	Yes	1.05792789999396	0	249274	251
487.921875	2	decision	foodImageDisplay	1	29	29	foodImage.43	FOODEEG_Images\0445.jpg	NY	Right	Yes	1.05792789999396	0	249817	252
489.984375	1.05792789999396	decision	choicePhaseStart	1	29	29	foodImage.43	FOODEEG_Images\0445.jpg	NY	Right	Yes	1.05792789999396	0	250873	253
491.033203125	0	decision	response	1	29	29	foodImage.43	FOODEEG_Images\0445.jpg	NY	Right	Yes	1.05792789999396	0	251410	235
492.078125	1	taste	trialStart	1	30	30	foodImage.77	FOODEEG_Images\0771.jpg	YN	Left	Yes	0.880270599853247	0	251945	251
493.130859375	2	taste	foodImageDisplay	1	30	30	foodImage.77	FOODEEG_Images\0771.jpg	YN	Left	Yes	0.880270599853247	0	252484	252
495.1953125	0.880270599853247	taste	choicePhaseStart	1	30	30	foodImage.77	FOODEEG_Images\0771.jpg	YN	Left	Yes	0.880270599853247	0	253541	253
496.06640625	0	taste	response	1	30	30	foodImage.77	FOODEEG_Images\0771.jpg	YN	Left	Yes	0.880270599853247	0	253987	234
497.109375	1	decision	trialStart	1	31	31	foodImage.26	FOODEEG_Images\0262.jpg	YN	Left	Yes	1.36329750018194	0	254521	251
498.15234375	2	decision	foodImageDisplay	1	31	31	foodImage.26	FOODEEG_Images\0262.jpg	YN	Left	Yes	1.36329750018194	0	255055	252
500.216796875	1.36329750018194	decision	choicePhaseStart	1	31	31	foodImage.26	FOODEEG_Images\0262.jpg	YN	Left	Yes	1.36329750018194	0	256112	253
501.5703125	0	decision	response	1	31	31	foodImage.26	FOODEEG_Images\0262.jpg	YN	Left	Yes	1.36329750018194	0	256805	234
502.609375	1	taste	trialStart	1	32	32	foodImage.6	FOODEEG_Images\0113.jpg	NY	Right	Yes	0.91221689991653	0	257337	251
503.650390625	2	taste	foodImageDisplay	1	32	32	foodImage.6	FOODEEG_Images\0113.jpg	NY	Right	Yes	0.91221689991653	0	257870	252
505.71484375	0.91221689991653	taste	choicePhaseStart	1	32	32	foodImage.6	FOODEEG_Images\0113.jpg	NY	Right	Yes	0.91221689991653	0	258927	253
506.6171875	0	taste	response	1	32	32	foodImage.6	FOODEEG_Images\0113.jpg	NY	Right	Yes	0.91221689991653	0	259389	235
507.662109375	1	health	trialStart	1	33	33	foodImage.106	FOODEEG_Images\0914.jpg	YN	Right	No	1.15734810009599	0	259924	251
508.71484375	2	health	foodImageDisplay	1	33	33	foodImage.106	FOODEEG_Images\0914.jpg	YN	Right	No	1.15734810009599	0	260463	252
510.779296875	1.15734810009599	health	choicePhaseStart	1	33	33	foodImage.106	FOODEEG_Images\0914.jpg	YN	Right	No	1.15734810009599	0	261520	253
511.9296875	0	health	response	1	33	33	foodImage.106	FOODEEG_Images\0914.jpg	YN	Right	No	1.15734810009599	0	262109	235
512.97265625	1	health	trialStart	1	34	34	foodImage.53	FOODEEG_Images\0547.jpg	YN	Right	No	0.900017400272191	0	262643	251
514.03125	2	health	foodImageDisplay	1	34	34	foodImage.53	FOODEEG_Images\0547.jpg	YN	Right	No	0.900017400272191	0	263185	252
516.09375	0.900017400272191	health	choicePhaseStart	1	34	34	foodImage.53	FOODEEG_Images\0547.jpg	YN	Right	No	0.900017400272191	0	264241	253
516.984375	0	health	response	1	34	34	foodImage.53	FOODEEG_Images\0547.jpg	YN	Right	No	0.900017400272191	0	264697	235
518.02734375	1	decision	trialStart	1	35	35	foodImage.97	FOODEEG_Images\0905.jpg	NY	Left	No	1.03230510000139	0	265231	251
519.06640625	2	decision	foodImageDisplay	1	35	35	foodImage.97	FOODEEG_Images\0905.jpg	NY	Left	No	1.03230510000139	0	265763	252
521.12890625	1.03230510000139	decision	choicePhaseStart	1	35	35	foodImage.97	FOODEEG_Images\0905.jpg	NY	Left	No	1.03230510000139	0	266819	253
522.15234375	0	decision	response	1	35	35	foodImage.97	FOODEEG_Images\0905.jpg	NY	Left	No	1.03230510000139	0	267343	234
523.193359375	1	health	trialStart	1	36	36	foodImage.8	FOODEEG_Images\0136.jpg	NY	Left	No	0.806123899761587	0	267876	251
524.236328125	2	health	foodImageDisplay	1	36	36	foodImage.8	FOODEEG_Images\0136.jpg	NY	Left	No	0.806123899761587	0	268410	252
526.30078125	0.806123899761587	health	choicePhaseStart	1	36	36	foodImage.8	FOODEEG_Images\0136.jpg	NY	Left	No	0.806123899761587	0	269467	253
527.095703125	0	health	response	1	36	36	foodImage.8	FOODEEG_Images\0136.jpg	NY	Left	No	0.806123899761587	0	269874	234
528.138671875	1	health	trialStart	1	37	37	foodImage.94	FOODEEG_Images\0902.jpg	NY	Left	No	1.40111760003492	0	270408	251
529.1796875	2	health	foodImageDisplay	1	37	37	foodImage.94	FOODEEG_Images\0902.jpg	NY	Left	No	1.40111760003492	0	270941	252
531.248046875	1.40111760003492	health	choicePhaseStart	1	37	37	foodImage.94	FOODEEG_Images\0902.jpg	NY	Left	No	1.40111760003492	0	272000	253
532.640625	0	health	response	1	37	37	foodImage.94	FOODEEG_Images\0902.jpg	NY	Left	No	1.40111760003492	0	272713	234
533.6796875	1	taste	trialStart	1	38	38	foodImage.79	FOODEEG_Images\0794.jpg	YN	Left	Yes	0.906323600094765	0	273245	251
534.720703125	2	taste	foodImageDisplay	1	38	38	foodImage.79	FOODEEG_Images\0794.jpg	YN	Left	Yes	0.906323600094765	0	273778	252
536.783203125	0.906323600094765	taste	choicePhaseStart	1	38	38	foodImage.79	FOODEEG_Images\0794.jpg	YN	Left	Yes	0.906323600094765	0	274834	253
537.6796875	0	taste	response	1	38	38	foodImage.79	FOODEEG_Images\0794.jpg	YN	Left	Yes	0.906323600094765	0	275293	234
538.720703125	1	health	trialStart	1	39	39	foodImage.55	FOODEEG_Images\0567.jpg	NY	Right	Yes	0.969639299903065	0	275826	251
539.77734375	2	health	foodImageDisplay	1	39	39	foodImage.55	FOODEEG_Images\0567.jpg	NY	Right	Yes	0.969639299903065	0	276367	252
541.83984375	0.969639299903065	health	choicePhaseStart	1	39	39	foodImage.55	FOODEEG_Images\0567.jpg	NY	Right	Yes	0.969639299903065	0	277423	253
542.798828125	0	health	response	1	39	39	foodImage.55	FOODEEG_Images\0567.jpg	NY	Right	Yes	0.969639299903065	0	277914	235
543.83984375	1	health	trialStart	1	40	40	foodImage.65	FOODEEG_Images\0658.jpg	YN	Right	No	0.917840200010687	0	278447	251
544.884765625	2	health	foodImageDisplay	1	40	40	foodImage.65	FOODEEG_Images\0658.jpg	YN	Right	No	0.917840200010687	0	278982	252
546.947265625	0.917840200010687	health	choicePhaseStart	1	40	40	foodImage.65	FOODEEG_Images\0658.jpg	YN	Right	No	0.917840200010687	0	280038	253
547.85546875	0	health	response	1	40	40	foodImage.65	FOODEEG_Images\0658.jpg	YN	Right	No	0.917840200010687	0	280503	235
548.89453125	1	decision	trialStart	1	41	41	foodImage.61	FOODEEG_Images\0640.jpg	YN	Left	Yes	0.746536700055003	0	281035	251
549.9375	2	decision	foodImageDisplay	1	41	41	foodImage.61	FOODEEG_Images\0640.jpg	YN	Left	Yes	0.746536700055003	0	281569	252
552.00390625	0.746536700055003	decision	choicePhaseStart	1	41	41	foodImage.61	FOODEEG_Images\0640.jpg	YN	Left	Yes	0.746536700055003	0	282627	253
552.744140625	0	decision	response	1	41	41	foodImage.61	FOODEEG_Images\0640.jpg	YN	Left	Yes	0.746536700055003	0	283006	234
553.787109375	1	health	trialStart	1	42	42	foodImage.3	FOODEEG_Images\0046.jpg	NY	Left	No	0.864601300098002	0	283540	251
554.828125	2	health	foodImageDisplay	1	42	42	foodImage.3	FOODEEG_Images\0046.jpg	NY	Left	No	0.864601300098002	0	284073	252
556.888671875	0.864601300098002	health	choicePhaseStart	1	42	42	foodImage.3	FOODEEG_Images\0046.jpg	NY	Left	No	0.864601300098002	0	285128	253
557.744140625	0	health	response	1	42	42	foodImage.3	FOODEEG_Images\0046.jpg	NY	Left	No	0.864601300098002	0	285566	234
558.787109375	1	health	trialStart	1	43	43	foodImage.107	FOODEEG_Images\0915.jpg	YN	Right	No	0.809537000022829	0	286100	251
559.826171875	2	health	foodImageDisplay	1	43	43	foodImage.107	FOODEEG_Images\0915.jpg	YN	Right	No	0.809537000022829	0	286632	252
561.88671875	0.809537000022829	health	choicePhaseStart	1	43	43	foodImage.107	FOODEEG_Images\0915.jpg	YN	Right	No	0.809537000022829	0	287687	253
562.6875	0	health	response	1	43	43	foodImage.107	FOODEEG_Images\0915.jpg	YN	Right	No	0.809537000022829	0	288097	235
563.732421875	1	taste	trialStart	1	44	44	foodImage.32	FOODEEG_Images\0319.jpg	NY	Right	Yes	1.37941990001127	0	288632	251
564.796875	2	taste	foodImageDisplay	1	44	44	foodImage.32	FOODEEG_Images\0319.jpg	NY	Right	Yes	1.37941990001127	0	289177	252
566.861328125	1.37941990001127	taste	choicePhaseStart	1	44	44	foodImage.32	FOODEEG_Images\0319.jpg	NY	Right	Yes	1.37941990001127	0	290234	253
568.23046875	0	taste	response	1	44	44	foodImage.32	FOODEEG_Images\0319.jpg	NY	Right	Yes	1.37941990001127	0	290935	235
569.271484375	1	health	trialStart	1	45	45	foodImage.2	FOODEEG_Images\0028.jpg	YN	Right	No	0.846008100081235	0	291468	251
570.326171875	2	health	foodImageDisplay	1	45	45	foodImage.2	FOODEEG_Images\0028.jpg	YN	Right	No	0.846008100081235	0	292008	252
572.390625	0.846008100081235	health	choicePhaseStart	1	45	45	foodImage.2	FOODEEG_Images\0028.jpg	YN	Right	No	0.846008100081235	0	293065	253
573.23046875	0	health	response	1	45	45	foodImage.2	FOODEEG_Images\0028.jpg	YN	Right	No	0.846008100081235	0	293495	235
574.2734375	1	health	trialStart	1	46	46	foodImage.4	FOODEEG_Images\0065.jpg	YN	Right	No	0.759125600103289	0	294029	251
575.33203125	2	health	foodImageDisplay	1	46	46	foodImage.4	FOODEEG_Images\0065.jpg	YN	Right	No	0.759125600103289	0	294571	252
577.392578125	0.759125600103289	health	choicePhaseStart	1	46	46	foodImage.4	FOODEEG_Images\0065.jpg	YN	Right	No	0.759125600103289	0	295626	253
578.142578125	0	health	response	1	46	46	foodImage.4	FOODEEG_Images\0065.jpg	YN	Right	No	0.759125600103289	0	296010	235
579.185546875	1	decision	trialStart	1	47	47	foodImage.57	FOODEEG_Images\0587.jpg	NY	Right	Yes	1.21954640001059	0	296544	251
580.228515625	2	decision	foodImageDisplay	1	47	47	foodImage.57	FOODEEG_Images\0587.jpg	NY	Right	Yes	1.21954640001059	0	297078	252
582.291015625	1.21954640001059	decision	choicePhaseStart	1	47	47	foodImage.57	FOODEEG_Images\0587.jpg	NY	Right	Yes	1.21954640001059	0	298134	253
583.501953125	0	decision	response	1	47	47	foodImage.57	FOODEEG_Images\0587.jpg	NY	Right	Yes	1.21954640001059	0	298754	235
584.544921875	1	health	trialStart	1	48	48	foodImage.33	FOODEEG_Images\0329.jpg	YN	Left	Yes	0.627102099824697	0	299288	251
585.587890625	2	health	foodImageDisplay	1	48	48	foodImage.33	FOODEEG_Images\0329.jpg	YN	Left	Yes	0.627102099824697	0	299822	252
587.650390625	0.627102099824697	health	choicePhaseStart	1	48	48	foodImage.33	FOODEEG_Images\0329.jpg	YN	Left	Yes	0.627102099824697	0	300878	253
588.26953125	0	health	response	1	48	48	foodImage.33	FOODEEG_Images\0329.jpg	YN	Left	Yes	0.627102099824697	0	301195	234
589.3125	1	decision	trialStart	1	49	49	foodImage.78	FOODEEG_Images\0787.jpg	NY	Right	Yes	0.90740770008415	0	301729	251
590.353515625	2	decision	foodImageDisplay	1	49	49	foodImage.78	FOODEEG_Images\0787.jpg	NY	Right	Yes	0.90740770008415	0	302262	252
592.41796875	0.90740770008415	decision	choicePhaseStart	1	49	49	foodImage.78	FOODEEG_Images\0787.jpg	NY	Right	Yes	0.90740770008415	0	303319	253
593.318359375	0	decision	response	1	49	49	foodImage.78	FOODEEG_Images\0787.jpg	NY	Right	Yes	0.90740770008415	0	303780	235
594.365234375	1	decision	trialStart	1	50	50	foodImage.108	FOODEEG_Images\0916.jpg	YN	Right	No	1.14153790008277	0	304316	251
595.40234375	2	decision	foodImageDisplay	1	50	50	foodImage.108	FOODEEG_Images\0916.jpg	YN	Right	No	1.14153790008277	0	304847	252
597.46484375	1.14153790008277	decision	choicePhaseStart	1	50	50	foodImage.108	FOODEEG_Images\0916.jpg	YN	Right	No	1.14153790008277	0	305903	253
598.59765625	0	decision	response	1	50	50	foodImage.108	FOODEEG_Images\0916.jpg	YN	Right	No	1.14153790008277	0	306483	235
599.640625	1	taste	trialStart	1	51	51	foodImage.58	FOODEEG_Images\0605.jpg	NY	Right	Yes	0.778630699962378	0	307017	251
600.69921875	2	taste	foodImageDisplay	1	51	51	foodImage.58	FOODEEG_Images\0605.jpg	NY	Right	Yes	0.778630699962378	0	307559	252
602.763671875	0.778630699962378	taste	choicePhaseStart	1	51	51	foodImage.58	FOODEEG_Images\0605.jpg	NY	Right	Yes	0.778630699962378	0	308616	253
603.533203125	0	taste	response	1	51	51	foodImage.58	FOODEEG_Images\0605.jpg	NY	Right	Yes	0.778630699962378	0	309010	235
604.576171875	1	decision	trialStart	1	52	52	foodImage.87	FOODEEG_Images\0873.jpg	YN	Right	No	1.07855249987915	0	309544	251
605.63671875	2	decision	foodImageDisplay	1	52	52	foodImage.87	FOODEEG_Images\0873.jpg	YN	Right	No	1.07855249987915	0	310087	252
607.701171875	1.07855249987915	decision	choicePhaseStart	1	52	52	foodImage.87	FOODEEG_Images\0873.jpg	YN	Right	No	1.07855249987915	0	311144	253
608.7734375	0	decision	response	1	52	52	foodImage.87	FOODEEG_Images\0873.jpg	YN	Right	No	1.07855249987915	0	311693	235
609.83203125	1	taste	trialStart	1	53	53	foodImage.118	FOODEEG_Images\0926.jpg	YN	Right	No	0.75153120001778	0	312235	251
610.873046875	2	taste	foodImageDisplay	1	53	53	foodImage.118	FOODEEG_Images\0926.jpg	YN	Right	No	0.75153120001778	0	312768	252
612.935546875	0.75153120001778	taste	choicePhaseStart	1	53	53	foodImage.118	FOODEEG_Images\0926.jpg	YN	Right	No	0.75153120001778	0	313824	253
613.677734375	0	taste	response	1	53	53	foodImage.118	FOODEEG_Images\0926.jpg	YN	Right	No	0.75153120001778	0	314204	235
614.720703125	1	taste	trialStart	1	54	54	foodImage.24	FOODEEG_Images\0250.jpg	YN	Left	Yes	0.780625099781901	0	314738	251
615.76171875	2	taste	foodImageDisplay	1	54	54	foodImage.24	FOODEEG_Images\0250.jpg	YN	Left	Yes	0.780625099781901	0	315271	252
617.826171875	0.780625099781901	taste	choicePhaseStart	1	54	54	foodImage.24	FOODEEG_Images\0250.jpg	YN	Left	Yes	0.780625099781901	0	316328	253
618.595703125	0	taste	response	1	54	54	foodImage.24	FOODEEG_Images\0250.jpg	YN	Left	Yes	0.780625099781901	0	316722	234
619.63671875	1	health	trialStart	1	55	55	foodImage.110	FOODEEG_Images\0918.jpg	YN	Right	No	0.89635879965499	0	317255	251
620.67578125	2	health	foodImageDisplay	1	55	55	foodImage.110	FOODEEG_Images\0918.jpg	YN	Right	No	0.89635879965499	0	317787	252
622.73828125	0.89635879965499	health	choicePhaseStart	1	55	55	foodImage.110	FOODEEG_Images\0918.jpg	YN	Right	No	0.89635879965499	0	318843	253
623.62890625	0	health	response	1	55	55	foodImage.110	FOODEEG_Images\0918.jpg	YN	Right	No	0.89635879965499	0	319299	235
624.669921875	1	health	trialStart	1	56	56	foodImage.71	FOODEEG_Images\0713.jpg	YN	Right	No	0.863024500198662	0	319832	251
625.71484375	2	health	foodImageDisplay	1	56	56	foodImage.71	FOODEEG_Images\0713.jpg	YN	Right	No	0.863024500198662	0	320367	252
627.78125	0.863024500198662	health	choicePhaseStart	1	56	56	foodImage.71	FOODEEG_Images\0713.jpg	YN	Right	No	0.863024500198662	0	321425	253
628.63671875	0	health	response	1	56	56	foodImage.71	FOODEEG_Images\0713.jpg	YN	Right	No	0.863024500198662	0	321863	235
629.67578125	1	health	trialStart	1	57	57	foodImage.103	FOODEEG_Images\0911.jpg	NY	Left	No	0.834374399855733	0	322395	251
630.71484375	2	health	foodImageDisplay	1	57	57	foodImage.103	FOODEEG_Images\0911.jpg	NY	Left	No	0.834374399855733	0	322927	252
632.779296875	0.834374399855733	health	choicePhaseStart	1	57	57	foodImage.103	FOODEEG_Images\0911.jpg	NY	Left	No	0.834374399855733	0	323984	253
633.603515625	0	health	response	1	57	57	foodImage.103	FOODEEG_Images\0911.jpg	NY	Left	No	0.834374399855733	0	324406	234
634.64453125	1	taste	trialStart	1	58	58	foodImage.102	FOODEEG_Images\0910.jpg	NY	Left	No	0.80462919967249	0	324939	251
635.681640625	2	taste	foodImageDisplay	1	58	58	foodImage.102	FOODEEG_Images\0910.jpg	NY	Left	No	0.80462919967249	0	325470	252
637.74609375	0.80462919967249	taste	choicePhaseStart	1	58	58	foodImage.102	FOODEEG_Images\0910.jpg	NY	Left	No	0.80462919967249	0	326527	253
638.541015625	0	taste	response	1	58	58	foodImage.102	FOODEEG_Images\0910.jpg	NY	Left	No	0.80462919967249	0	326934	234
639.58203125	1	health	trialStart	1	59	59	foodImage.91	FOODEEG_Images\0896.jpg	NY	Right	Yes	1.12601180002093	0	327467	251
640.638671875	2	health	foodImageDisplay	1	59	59	foodImage.91	FOODEEG_Images\0896.jpg	NY	Right	Yes	1.12601180002093	0	328008	252
642.701171875	1.12601180002093	health	choicePhaseStart	1	59	59	foodImage.91	FOODEEG_Images\0896.jpg	NY	Right	Yes	1.12601180002093	0	329064	253
643.8203125	0	health	response	1	59	59	foodImage.91	FOODEEG_Images\0896.jpg	NY	Right	Yes	1.12601180002093	0	329637	235
644.861328125	1	decision	trialStart	1	60	60	foodImage.10	FOODEEG_Images\0145.jpg	NY	Right	Yes	0.884530399926007	0	330170	251
645.923828125	2	decision	foodImageDisplay	1	60	60	foodImage.10	FOODEEG_Images\0145.jpg	NY	Right	Yes	0.884530399926007	0	330714	252
647.98828125	0.884530399926007	decision	choicePhaseStart	1	60	60	foodImage.10	FOODEEG_Images\0145.jpg	NY	Right	Yes	0.884530399926007	0	331771	253
648.8671875	0	decision	response	1	60	60	foodImage.10	FOODEEG_Images\0145.jpg	NY	Right	Yes	0.884530399926007	0	332221	235
650.91015625	19.62890625	n/a	blockEnd	n/a	n/a	n/a	n/a	n/a	n/a	n/a	n/a	n/a	n/a	333267	254
670.5390625	2	n/a	blockStart	2	n/a	n/a	n/a	n/a	n/a	n/a	n/a	n/a	n/a	343317	250
672.576171875	1	taste	trialStart	2	61	1	foodImage.112	FOODEEG_Images\0920.jpg	YN	Right	No	1.46979659982026	0	344360	251
673.62109375	2	taste	foodImageDisplay	2	61	1	foodImage.112	FOODEEG_Images\0920.jpg	YN	Right	No	1.46979659982026	0	344895	252
675.685546875	1.46979659982026	taste	choicePhaseStart	2	61	1	foodImage.112	FOODEEG_Images\0920.jpg	YN	Right	No	1.46979659982026	0	345952	253
677.146484375	0	taste	response	2	61	1	foodImage.112	FOODEEG_Images\0920.jpg	YN	Right	No	1.46979659982026	0	346700	235
678.1875	1	health	trialStart	2	62	2	foodImage.67	FOODEEG_Images\0679.jpg	NY	Left	No	1.26103200018406	0	347233	251
679.244140625	2	health	foodImageDisplay	2	62	2	foodImage.67	FOODEEG_Images\0679.jpg	NY	Left	No	1.26103200018406	0	347774	252
681.30859375	1.26103200018406	health	choicePhaseStart	2	62	2	foodImage.67	FOODEEG_Images\0679.jpg	NY	Left	No	1.26103200018406	0	348831	253
682.5625	0	health	response	2	62	2	foodImage.67	FOODEEG_Images\0679.jpg	NY	Left	No	1.26103200018406	0	349473	234
683.60546875	1	taste	trialStart	2	63	3	foodImage.27	FOODEEG_Images\0263.jpg	NY	Right	Yes	0.746283399872482	0	350007	251
684.6484375	2	taste	foodImageDisplay	2	63	3	foodImage.27	FOODEEG_Images\0263.jpg	NY	Right	Yes	0.746283399872482	0	350541	252
686.712890625	0.746283399872482	taste	choicePhaseStart	2	63	3	foodImage.27	FOODEEG_Images\0263.jpg	NY	Right	Yes	0.746283399872482	0	351598	253
687.44921875	0	taste	response	2	63	3	foodImage.27	FOODEEG_Images\0263.jpg	NY	Right	Yes	0.746283399872482	0	351975	235
688.494140625	1	decision	trialStart	2	64	4	foodImage.65	FOODEEG_Images\0658.jpg	NY	Left	No	0.751605099998415	0	352510	251
689.556640625	2	decision	foodImageDisplay	2	64	4	foodImage.65	FOODEEG_Images\0658.jpg	NY	Left	No	0.751605099998415	0	353054	252
691.619140625	0.751605099998415	decision	choicePhaseStart	2	64	4	foodImage.65	FOODEEG_Images\0658.jpg	NY	Left	No	0.751605099998415	0	354110	253
692.361328125	0	decision	response	2	64	4	foodImage.65	FOODEEG_Images\0658.jpg	NY	Left	No	0.751605099998415	0	354490	234
693.404296875	1	taste	trialStart	2	65	5	foodImage.98	FOODEEG_Images\0906.jpg	YN	Left	Yes	2.00308519974351	0	355024	251
694.4453125	2	taste	foodImageDisplay	2	65	5	foodImage.98	FOODEEG_Images\0906.jpg	YN	Left	Yes	2.00308519974351	0	355557	252
696.5078125	2.00308519974351	taste	choicePhaseStart	2	65	5	foodImage.98	FOODEEG_Images\0906.jpg	YN	Left	Yes	2.00308519974351	0	356613	253
698.505859375	0	taste	response	2	65	5	foodImage.98	FOODEEG_Images\0906.jpg	YN	Left	Yes	2.00308519974351	0	357636	234
699.548828125	1	taste	trialStart	2	66	6	foodImage.117	FOODEEG_Images\0925.jpg	NY	Left	No	0.817324299830943	0	358170	251
700.6015625	2	taste	foodImageDisplay	2	66	6	foodImage.117	FOODEEG_Images\0925.jpg	NY	Left	No	0.817324299830943	0	358709	252
702.666015625	0.817324299830943	taste	choicePhaseStart	2	66	6	foodImage.117	FOODEEG_Images\0925.jpg	NY	Left	No	0.817324299830943	0	359766	253
703.47265625	0	taste	response	2	66	6	foodImage.117	FOODEEG_Images\0925.jpg	NY	Left	No	0.817324299830943	0	360179	234
704.513671875	1	taste	trialStart	2	67	7	foodImage.19	FOODEEG_Images\0225.jpg	NY	Right	Yes	0.965707900002599	0	360712	251
705.55859375	2	taste	foodImageDisplay	2	67	7	foodImage.19	FOODEEG_Images\0225.jpg	NY	Right	Yes	0.965707900002599	0	361247	252
707.62890625	0.965707900002599	taste	choicePhaseStart	2	67	7	foodImage.19	FOODEEG_Images\0225.jpg	NY	Right	Yes	0.965707900002599	0	362307	253
708.5859375	0	taste	response	2	67	7	foodImage.19	FOODEEG_Images\0225.jpg	NY	Right	Yes	0.965707900002599	0	362797	235
709.62890625	1	health	trialStart	2	68	8	foodImage.42	FOODEEG_Images\0438.jpg	NY	Right	Yes	0.986779499799013	0	363331	251
710.71875	2	health	foodImageDisplay	2	68	8	foodImage.42	FOODEEG_Images\0438.jpg	NY	Right	Yes	0.986779499799013	0	363889	252
712.783203125	0.986779499799013	health	choicePhaseStart	2	68	8	foodImage.42	FOODEEG_Images\0438.jpg	NY	Right	Yes	0.986779499799013	0	364946	253
713.76171875	0	health	response	2	68	8	foodImage.42	FOODEEG_Images\0438.jpg	NY	Right	Yes	0.986779499799013	0	365447	235
714.802734375	1	decision	trialStart	2	69	9	foodImage.44	FOODEEG_Images\0459.jpg	YN	Right	No	0.855399999767542	0	365980	251
715.8515625	2	decision	foodImageDisplay	2	69	9	foodImage.44	FOODEEG_Images\0459.jpg	YN	Right	No	0.855399999767542	0	366517	252
717.916015625	0.855399999767542	decision	choicePhaseStart	2	69	9	foodImage.44	FOODEEG_Images\0459.jpg	YN	Right	No	0.855399999767542	0	367574	253
718.76171875	0	decision	response	2	69	9	foodImage.44	FOODEEG_Images\0459.jpg	YN	Right	No	0.855399999767542	0	368007	235
719.8046875	1	health	trialStart	2	70	10	foodImage.62	FOODEEG_Images\0644.jpg	NY	Right	Yes	1.18004410015419	0	368541	251
720.859375	2	health	foodImageDisplay	2	70	10	foodImage.62	FOODEEG_Images\0644.jpg	NY	Right	Yes	1.18004410015419	0	369081	252
722.923828125	1.18004410015419	health	choicePhaseStart	2	70	10	foodImage.62	FOODEEG_Images\0644.jpg	NY	Right	Yes	1.18004410015419	0	370138	253
724.09765625	0	health	response	2	70	10	foodImage.62	FOODEEG_Images\0644.jpg	NY	Right	Yes	1.18004410015419	0	370739	235
725.138671875	1	taste	trialStart	2	71	11	foodImage.61	FOODEEG_Images\0640.jpg	NY	Right	Yes	0.913562700152397	0	371272	251
726.177734375	2	taste	foodImageDisplay	2	71	11	foodImage.61	FOODEEG_Images\0640.jpg	NY	Right	Yes	0.913562700152397	0	371804	252
728.240234375	0.913562700152397	taste	choicePhaseStart	2	71	11	foodImage.61	FOODEEG_Images\0640.jpg	NY	Right	Yes	0.913562700152397	0	372860	253
729.14453125	0	taste	response	2	71	11	foodImage.61	FOODEEG_Images\0640.jpg	NY	Right	Yes	0.913562700152397	0	373323	235
730.18359375	1	taste	trialStart	2	72	12	foodImage.105	FOODEEG_Images\0913.jpg	NY	Left	No	2.12663710024208	0	373855	251
731.220703125	2	taste	foodImageDisplay	2	72	12	foodImage.105	FOODEEG_Images\0913.jpg	NY	Left	No	2.12663710024208	0	374386	252
733.283203125	2.12663710024208	taste	choicePhaseStart	2	72	12	foodImage.105	FOODEEG_Images\0913.jpg	NY	Left	No	2.12663710024208	0	375442	253
735.400390625	0	taste	response	2	72	12	foodImage.105	FOODEEG_Images\0913.jpg	NY	Left	No	2.12663710024208	0	376526	234
736.4453125	1	decision	trialStart	2	73	13	foodImage.27	FOODEEG_Images\0263.jpg	NY	Right	Yes	0.731843300163746	0	377061	251
737.498046875	2	decision	foodImageDisplay	2	73	13	foodImage.27	FOODEEG_Images\0263.jpg	NY	Right	Yes	0.731843300163746	0	377600	252
739.5625	0.731843300163746	decision	choicePhaseStart	2	73	13	foodImage.27	FOODEEG_Images\0263.jpg	NY	Right	Yes	0.731843300163746	0	378657	253
740.2890625	0	decision	response	2	73	13	foodImage.27	FOODEEG_Images\0263.jpg	NY	Right	Yes	0.731843300163746	0	379029	235
741.328125	1	decision	trialStart	2	74	14	foodImage.86	FOODEEG_Images\0844.jpg	NY	Right	Yes	0.762995300348848	0	379561	251
742.384765625	2	decision	foodImageDisplay	2	74	14	foodImage.86	FOODEEG_Images\0844.jpg	NY	Right	Yes	0.762995300348848	0	380102	252
744.447265625	0.762995300348848	decision	choicePhaseStart	2	74	14	foodImage.86	FOODEEG_Images\0844.jpg	NY	Right	Yes	0.762995300348848	0	381158	253
745.19921875	0	decision	response	2	74	14	foodImage.86	FOODEEG_Images\0844.jpg	NY	Right	Yes	0.762995300348848	0	381543	235
746.244140625	1	decision	trialStart	2	75	15	foodImage.118	FOODEEG_Images\0926.jpg	YN	Right	No	0.83034160034731	0	382078	251
747.283203125	2	decision	foodImageDisplay	2	75	15	foodImage.118	FOODEEG_Images\0926.jpg	YN	Right	No	0.83034160034731	0	382610	252
749.345703125	0.83034160034731	decision	choicePhaseStart	2	75	15	foodImage.118	FOODEEG_Images\0926.jpg	YN	Right	No	0.83034160034731	0	383666	253
750.16796875	0	decision	response	2	75	15	foodImage.118	FOODEEG_Images\0926.jpg	YN	Right	No	0.83034160034731	0	384087	235
751.2109375	1	decision	trialStart	2	76	16	foodImage.83	FOODEEG_Images\0827.jpg	NY	Right	Yes	0.721281699836254	0	384621	251
752.26953125	2	decision	foodImageDisplay	2	76	16	foodImage.83	FOODEEG_Images\0827.jpg	NY	Right	Yes	0.721281699836254	0	385163	252
754.333984375	0.721281699836254	decision	choicePhaseStart	2	76	16	foodImage.83	FOODEEG_Images\0827.jpg	NY	Right	Yes	0.721281699836254	0	386220	253
755.046875	0	decision	response	2	76	16	foodImage.83	FOODEEG_Images\0827.jpg	NY	Right	Yes	0.721281699836254	0	386585	235
756.09375	1	taste	trialStart	2	77	17	foodImage.109	FOODEEG_Images\0917.jpg	YN	Right	No	0.843931800220162	0	387121	251
757.1328125	2	taste	foodImageDisplay	2	77	17	foodImage.109	FOODEEG_Images\0917.jpg	YN	Right	No	0.843931800220162	0	387653	252
759.197265625	0.843931800220162	taste	choicePhaseStart	2	77	17	foodImage.109	FOODEEG_Images\0917.jpg	YN	Right	No	0.843931800220162	0	388710	253
760.03125	0	taste	response	2	77	17	foodImage.109	FOODEEG_Images\0917.jpg	YN	Right	No	0.843931800220162	0	389137	235
761.07421875	1	decision	trialStart	2	78	18	foodImage.114	FOODEEG_Images\0922.jpg	YN	Left	Yes	1.71337850019336	0	389671	251
762.11328125	2	decision	foodImageDisplay	2	78	18	foodImage.114	FOODEEG_Images\0922.jpg	YN	Left	Yes	1.71337850019336	0	390203	252
764.1796875	1.71337850019336	decision	choicePhaseStart	2	78	18	foodImage.114	FOODEEG_Images\0922.jpg	YN	Left	Yes	1.71337850019336	0	391261	253
765.88671875	0	decision	response	2	78	18	foodImage.114	FOODEEG_Images\0922.jpg	YN	Left	Yes	1.71337850019336	0	392135	234
766.9296875	1	decision	trialStart	2	79	19	foodImage.34	FOODEEG_Images\0339.jpg	YN	Left	Yes	0.6148119000718	0	392669	251
767.990234375	2	decision	foodImageDisplay	2	79	19	foodImage.34	FOODEEG_Images\0339.jpg	YN	Left	Yes	0.6148119000718	0	393212	252
770.056640625	0.6148119000718	decision	choicePhaseStart	2	79	19	foodImage.34	FOODEEG_Images\0339.jpg	YN	Left	Yes	0.6148119000718	0	394270	253
770.662109375	0	decision	response	2	79	19	foodImage.34	FOODEEG_Images\0339.jpg	YN	Left	Yes	0.6148119000718	0	394580	234
771.708984375	1	decision	trialStart	2	80	20	foodImage.13	FOODEEG_Images\0183.jpg	YN	Left	Yes	0.645542100071907	0	395116	251
772.755859375	2	decision	foodImageDisplay	2	80	20	foodImage.13	FOODEEG_Images\0183.jpg	YN	Left	Yes	0.645542100071907	0	395652	252
774.818359375	0.645542100071907	decision	choicePhaseStart	2	80	20	foodImage.13	FOODEEG_Images\0183.jpg	YN	Left	Yes	0.645542100071907	0	396708	253
775.455078125	0	decision	response	2	80	20	foodImage.13	FOODEEG_Images\0183.jpg	YN	Left	Yes	0.645542100071907	0	397034	234
776.49609375	1	taste	trialStart	2	81	21	foodImage.91	FOODEEG_Images\0896.jpg	YN	Left	Yes	0.690977499820292	0	397567	251
777.55078125	2	taste	foodImageDisplay	2	81	21	foodImage.91	FOODEEG_Images\0896.jpg	YN	Left	Yes	0.690977499820292	0	398107	252
779.61328125	0.690977499820292	taste	choicePhaseStart	2	81	21	foodImage.91	FOODEEG_Images\0896.jpg	YN	Left	Yes	0.690977499820292	0	399163	253
780.294921875	0	taste	response	2	81	21	foodImage.91	FOODEEG_Images\0896.jpg	YN	Left	Yes	0.690977499820292	0	399512	234
781.33984375	1	health	trialStart	2	82	22	foodImage.90	FOODEEG_Images\0890.jpg	NY	Right	Yes	0.714295300189406	0	400047	251
782.3984375	2	health	foodImageDisplay	2	82	22	foodImage.90	FOODEEG_Images\0890.jpg	NY	Right	Yes	0.714295300189406	0	400589	252
784.4609375	0.714295300189406	health	choicePhaseStart	2	82	22	foodImage.90	FOODEEG_Images\0890.jpg	NY	Right	Yes	0.714295300189406	0	401645	253
785.166015625	0	health	response	2	82	22	foodImage.90	FOODEEG_Images\0890.jpg	NY	Right	Yes	0.714295300189406	0	402006	235
786.208984375	1	taste	trialStart	2	83	23	foodImage.1	FOODEEG_Images\0004.jpg	NY	Right	Yes	0.835289600305259	0	402540	251
787.251953125	2	taste	foodImageDisplay	2	83	23	foodImage.1	FOODEEG_Images\0004.jpg	NY	Right	Yes	0.835289600305259	0	403074	252
789.31640625	0.835289600305259	taste	choicePhaseStart	2	83	23	foodImage.1	FOODEEG_Images\0004.jpg	NY	Right	Yes	0.835289600305259	0	404131	253
790.142578125	0	taste	response	2	83	23	foodImage.1	FOODEEG_Images\0004.jpg	NY	Right	Yes	0.835289600305259	0	404554	235
791.185546875	1	decision	trialStart	2	84	24	foodImage.60	FOODEEG_Images\0614.jpg	NY	Right	Yes	1.07093140017241	0	405088	251
792.248046875	2	decision	foodImageDisplay	2	84	24	foodImage.60	FOODEEG_Images\0614.jpg	NY	Right	Yes	1.07093140017241	0	405632	252
794.3125	1.07093140017241	decision	choicePhaseStart	2	84	24	foodImage.60	FOODEEG_Images\0614.jpg	NY	Right	Yes	1.07093140017241	0	406689	253
795.373046875	0	decision	response	2	84	24	foodImage.60	FOODEEG_Images\0614.jpg	NY	Right	Yes	1.07093140017241	0	407232	235
796.421875	1	decision	trialStart	2	85	25	foodImage.70	FOODEEG_Images\0705.jpg	YN	Left	Yes	0.692997400183231	0	407769	251
797.482421875	2	decision	foodImageDisplay	2	85	25	foodImage.70	FOODEEG_Images\0705.jpg	YN	Left	Yes	0.692997400183231	0	408312	252
799.546875	0.692997400183231	decision	choicePhaseStart	2	85	25	foodImage.70	FOODEEG_Images\0705.jpg	YN	Left	Yes	0.692997400183231	0	409369	253
800.23046875	0	decision	response	2	85	25	foodImage.70	FOODEEG_Images\0705.jpg	YN	Left	Yes	0.692997400183231	0	409719	234
801.275390625	1	decision	trialStart	2	86	26	foodImage.41	FOODEEG_Images\0409.jpg	YN	Left	Yes	0.749037500005215	0	410254	251
802.32421875	2	decision	foodImageDisplay	2	86	26	foodImage.41	FOODEEG_Images\0409.jpg	YN	Left	Yes	0.749037500005215	0	410791	252
804.38671875	0.749037500005215	decision	choicePhaseStart	2	86	26	foodImage.41	FOODEEG_Images\0409.jpg	YN	Left	Yes	0.749037500005215	0	411847	253
805.125	0	decision	response	2	86	26	foodImage.41	FOODEEG_Images\0409.jpg	YN	Left	Yes	0.749037500005215	0	412225	234
806.16796875	1	taste	trialStart	2	87	27	foodImage.75	FOODEEG_Images\0763.jpg	YN	Left	Yes	2.25880680000409	0	412759	251
807.212890625	2	taste	foodImageDisplay	2	87	27	foodImage.75	FOODEEG_Images\0763.jpg	YN	Left	Yes	2.25880680000409	0	413294	252
809.275390625	2.25880680000409	taste	choicePhaseStart	2	87	27	foodImage.75	FOODEEG_Images\0763.jpg	YN	Left	Yes	2.25880680000409	0	414350	253
811.525390625	0	taste	response	2	87	27	foodImage.75	FOODEEG_Images\0763.jpg	YN	Left	Yes	2.25880680000409	0	415502	234
812.572265625	1	decision	trialStart	2	88	28	foodImage.73	FOODEEG_Images\0717.jpg	YN	Left	Yes	1.48135859984905	0	416038	251
813.6328125	2	decision	foodImageDisplay	2	88	28	foodImage.73	FOODEEG_Images\0717.jpg	YN	Left	Yes	1.48135859984905	0	416581	252
815.693359375	1.48135859984905	decision	choicePhaseStart	2	88	28	foodImage.73	FOODEEG_Images\0717.jpg	YN	Left	Yes	1.48135859984905	0	417636	253
817.166015625	0	decision	response	2	88	28	foodImage.73	FOODEEG_Images\0717.jpg	YN	Left	Yes	1.48135859984905	0	418390	234
818.20703125	1	decision	trialStart	2	89	29	foodImage.92	FOODEEG_Images\0900.jpg	YN	Right	No	0.846961099654436	0	418923	251
819.248046875	2	decision	foodImageDisplay	2	89	29	foodImage.92	FOODEEG_Images\0900.jpg	YN	Right	No	0.846961099654436	0	419456	252
821.310546875	0.846961099654436	decision	choicePhaseStart	2	89	29	foodImage.92	FOODEEG_Images\0900.jpg	YN	Right	No	0.846961099654436	0	420512	253
822.1484375	0	decision	response	2	89	29	foodImage.92	FOODEEG_Images\0900.jpg	YN	Right	No	0.846961099654436	0	420941	235
823.19140625	1	health	trialStart	2	90	30	foodImage.72	FOODEEG_Images\0714.jpg	YN	Left	Yes	1.41630039969459	0	421475	251
824.236328125	2	health	foodImageDisplay	2	90	30	foodImage.72	FOODEEG_Images\0714.jpg	YN	Left	Yes	1.41630039969459	0	422010	252
826.302734375	1.41630039969459	health	choicePhaseStart	2	90	30	foodImage.72	FOODEEG_Images\0714.jpg	YN	Left	Yes	1.41630039969459	0	423068	253
827.708984375	0	health	response	2	90	30	foodImage.72	FOODEEG_Images\0714.jpg	YN	Left	Yes	1.41630039969459	0	423788	234
828.751953125	1	health	trialStart	2	91	31	foodImage.41	FOODEEG_Images\0409.jpg	YN	Left	Yes	0.731297999620438	0	424322	251
829.796875	2	health	foodImageDisplay	2	91	31	foodImage.41	FOODEEG_Images\0409.jpg	YN	Left	Yes	0.731297999620438	0	424857	252
831.857421875	0.731297999620438	health	choicePhaseStart	2	91	31	foodImage.41	FOODEEG_Images\0409.jpg	YN	Left	Yes	0.731297999620438	0	425912	253
832.580078125	0	health	response	2	91	31	foodImage.41	FOODEEG_Images\0409.jpg	YN	Left	Yes	0.731297999620438	0	426282	234
833.623046875	1	taste	trialStart	2	92	32	foodImage.45	FOODEEG_Images\0478.jpg	YN	Left	Yes	0.927967100404203	0	426816	251
834.669921875	2	taste	foodImageDisplay	2	92	32	foodImage.45	FOODEEG_Images\0478.jpg	YN	Left	Yes	0.927967100404203	0	427352	252
836.734375	0.927967100404203	taste	choicePhaseStart	2	92	32	foodImage.45	FOODEEG_Images\0478.jpg	YN	Left	Yes	0.927967100404203	0	428409	253
837.65234375	0	taste	response	2	92	32	foodImage.45	FOODEEG_Images\0478.jpg	YN	Left	Yes	0.927967100404203	0	428879	234
838.6953125	1	taste	trialStart	2	93	33	foodImage.57	FOODEEG_Images\0587.jpg	NY	Right	Yes	0.822476600296795	0	429413	251
839.73828125	2	taste	foodImageDisplay	2	93	33	foodImage.57	FOODEEG_Images\0587.jpg	NY	Right	Yes	0.822476600296795	0	429947	252
841.8046875	0.822476600296795	taste	choicePhaseStart	2	93	33	foodImage.57	FOODEEG_Images\0587.jpg	NY	Right	Yes	0.822476600296795	0	431005	253
842.619140625	0	taste	response	2	93	33	foodImage.57	FOODEEG_Images\0587.jpg	NY	Right	Yes	0.822476600296795	0	431422	235
843.6640625	1	health	trialStart	2	94	34	foodImage.23	FOODEEG_Images\0244.jpg	NY	Right	Yes	1.21148329973221	0	431957	251
844.705078125	2	health	foodImageDisplay	2	94	34	foodImage.23	FOODEEG_Images\0244.jpg	NY	Right	Yes	1.21148329973221	0	432490	252
846.76953125	1.21148329973221	health	choicePhaseStart	2	94	34	foodImage.23	FOODEEG_Images\0244.jpg	NY	Right	Yes	1.21148329973221	0	433547	253
847.97265625	0	health	response	2	94	34	foodImage.23	FOODEEG_Images\0244.jpg	NY	Right	Yes	1.21148329973221	0	434163	235
849.01171875	1	taste	trialStart	2	95	35	foodImage.119	FOODEEG_Images\0927.jpg	NY	Left	No	0.722839000169188	0	434695	251
850.05078125	2	taste	foodImageDisplay	2	95	35	foodImage.119	FOODEEG_Images\0927.jpg	NY	Left	No	0.722839000169188	0	435227	252
852.115234375	0.722839000169188	taste	choicePhaseStart	2	95	35	foodImage.119	FOODEEG_Images\0927.jpg	NY	Left	No	0.722839000169188	0	436284	253
852.828125	0	taste	response	2	95	35	foodImage.119	FOODEEG_Images\0927.jpg	NY	Left	No	0.722839000169188	0	436649	234
853.869140625	1	health	trialStart	2	96	36	foodImage.13	FOODEEG_Images\0183.jpg	YN	Left	Yes	0.913632699754089	0	437182	251
854.91015625	2	health	foodImageDisplay	2	96	36	foodImage.13	FOODEEG_Images\0183.jpg	YN	Left	Yes	0.913632699754089	0	437715	252
856.970703125	0.913632699754089	health	choicePhaseStart	2	96	36	foodImage.13	FOODEEG_Images\0183.jpg	YN	Left	Yes	0.913632699754089	0	438770	253
857.875	0	health	response	2	96	36	foodImage.13	FOODEEG_Images\0183.jpg	YN	Left	Yes	0.913632699754089	0	439233	234
858.916015625	1	taste	trialStart	2	97	37	foodImage.40	FOODEEG_Images\0373.jpg	YN	Left	Yes	0.683325400110334	0	439766	251
859.955078125	2	taste	foodImageDisplay	2	97	37	foodImage.40	FOODEEG_Images\0373.jpg	YN	Left	Yes	0.683325400110334	0	440298	252
862.017578125	0.683325400110334	taste	choicePhaseStart	2	97	37	foodImage.40	FOODEEG_Images\0373.jpg	YN	Left	Yes	0.683325400110334	0	441354	253
862.69140625	0	taste	response	2	97	37	foodImage.40	FOODEEG_Images\0373.jpg	YN	Left	Yes	0.683325400110334	0	441699	234
863.734375	1	taste	trialStart	2	98	38	foodImage.50	FOODEEG_Images\0529.jpg	NY	Right	Yes	0.928953600116074	0	442233	251
864.794921875	2	taste	foodImageDisplay	2	98	38	foodImage.50	FOODEEG_Images\0529.jpg	NY	Right	Yes	0.928953600116074	0	442776	252
866.859375	0.928953600116074	taste	choicePhaseStart	2	98	38	foodImage.50	FOODEEG_Images\0529.jpg	NY	Right	Yes	0.928953600116074	0	443833	253
867.779296875	0	taste	response	2	98	38	foodImage.50	FOODEEG_Images\0529.jpg	NY	Right	Yes	0.928953600116074	0	444304	235
868.822265625	1	health	trialStart	2	99	39	foodImage.89	FOODEEG_Images\0881.jpg	NY	Right	Yes	0.713489300105721	0	444838	251
869.880859375	2	health	foodImageDisplay	2	99	39	foodImage.89	FOODEEG_Images\0881.jpg	NY	Right	Yes	0.713489300105721	0	445380	252
871.943359375	0.713489300105721	health	choicePhaseStart	2	99	39	foodImage.89	FOODEEG_Images\0881.jpg	NY	Right	Yes	0.713489300105721	0	446436	253
872.650390625	0	health	response	2	99	39	foodImage.89	FOODEEG_Images\0881.jpg	NY	Right	Yes	0.713489300105721	0	446798	235
873.693359375	1	taste	trialStart	2	100	40	foodImage.68	FOODEEG_Images\0685.jpg	YN	Left	Yes	0.688729800283909	0	447332	251
874.771484375	2	taste	foodImageDisplay	2	100	40	foodImage.68	FOODEEG_Images\0685.jpg	YN	Left	Yes	0.688729800283909	0	447884	252
876.833984375	0.688729800283909	taste	choicePhaseStart	2	100	40	foodImage.68	FOODEEG_Images\0685.jpg	YN	Left	Yes	0.688729800283909	0	448940	253
877.513671875	0	taste	response	2	100	40	foodImage.68	FOODEEG_Images\0685.jpg	YN	Left	Yes	0.688729800283909	0	449288	234
878.5625	1	decision	trialStart	2	101	41	foodImage.59	FOODEEG_Images\0607.jpg	NY	Right	Yes	0.71635300014168	0	449825	251
879.609375	2	decision	foodImageDisplay	2	101	41	foodImage.59	FOODEEG_Images\0607.jpg	NY	Right	Yes	0.71635300014168	0	450361	252
881.671875	0.71635300014168	decision	choicePhaseStart	2	101	41	foodImage.59	FOODEEG_Images\0607.jpg	NY	Right	Yes	0.71635300014168	0	451417	253
882.37890625	0	decision	response	2	101	41	foodImage.59	FOODEEG_Images\0607.jpg	NY	Right	Yes	0.71635300014168	0	451779	235
883.421875	1	decision	trialStart	2	102	42	foodImage.5	FOODEEG_Images\0107.jpg	YN	Left	Yes	0.782753800041974	0	452313	251
884.484375	2	decision	foodImageDisplay	2	102	42	foodImage.5	FOODEEG_Images\0107.jpg	YN	Left	Yes	0.782753800041974	0	452857	252
886.548828125	0.782753800041974	decision	choicePhaseStart	2	102	42	foodImage.5	FOODEEG_Images\0107.jpg	YN	Left	Yes	0.782753800041974	0	453914	253
887.322265625	0	decision	response	2	102	42	foodImage.5	FOODEEG_Images\0107.jpg	YN	Left	Yes	0.782753800041974	0	454310	234
888.365234375	1	decision	trialStart	2	103	43	foodImage.45	FOODEEG_Images\0478.jpg	YN	Left	Yes	0.825282999780029	0	454844	251
889.412109375	2	decision	foodImageDisplay	2	103	43	foodImage.45	FOODEEG_Images\0478.jpg	YN	Left	Yes	0.825282999780029	0	455380	252
891.474609375	0.825282999780029	decision	choicePhaseStart	2	103	43	foodImage.45	FOODEEG_Images\0478.jpg	YN	Left	Yes	0.825282999780029	0	456436	253
892.291015625	0	decision	response	2	103	43	foodImage.45	FOODEEG_Images\0478.jpg	YN	Left	Yes	0.825282999780029	0	456854	234
893.33203125	1	decision	trialStart	2	104	44	foodImage.37	FOODEEG_Images\0359.jpg	NY	Right	Yes	0.821087999735028	0	457387	251
894.375	2	decision	foodImageDisplay	2	104	44	foodImage.37	FOODEEG_Images\0359.jpg	NY	Right	Yes	0.821087999735028	0	457921	252
896.439453125	0.821087999735028	decision	choicePhaseStart	2	104	44	foodImage.37	FOODEEG_Images\0359.jpg	NY	Right	Yes	0.821087999735028	0	458978	253
897.25	0	decision	response	2	104	44	foodImage.37	FOODEEG_Images\0359.jpg	NY	Right	Yes	0.821087999735028	0	459393	235
898.29296875	1	taste	trialStart	2	105	45	foodImage.72	FOODEEG_Images\0714.jpg	NY	Left	No	1.89666280010715	0	459927	251
899.33984375	2	taste	foodImageDisplay	2	105	45	foodImage.72	FOODEEG_Images\0714.jpg	NY	Left	No	1.89666280010715	0	460463	252
901.40234375	1.89666280010715	taste	choicePhaseStart	2	105	45	foodImage.72	FOODEEG_Images\0714.jpg	NY	Left	No	1.89666280010715	0	461519	253
903.2890625	0	taste	response	2	105	45	foodImage.72	FOODEEG_Images\0714.jpg	NY	Left	No	1.89666280010715	0	462485	234
904.3359375	1	health	trialStart	2	106	46	foodImage.15	FOODEEG_Images\0189.jpg	YN	Right	No	0.809408999979496	0	463021	251
905.40234375	2	health	foodImageDisplay	2	106	46	foodImage.15	FOODEEG_Images\0189.jpg	YN	Right	No	0.809408999979496	0	463567	252
907.466796875	0.809408999979496	health	choicePhaseStart	2	106	46	foodImage.15	FOODEEG_Images\0189.jpg	YN	Right	No	0.809408999979496	0	464624	253
908.265625	0	health	response	2	106	46	foodImage.15	FOODEEG_Images\0189.jpg	YN	Right	No	0.809408999979496	0	465033	235
909.310546875	1	health	trialStart	2	107	47	foodImage.60	FOODEEG_Images\0614.jpg	YN	Left	Yes	0.699546299874783	0	465568	251
910.396484375	2	health	foodImageDisplay	2	107	47	foodImage.60	FOODEEG_Images\0614.jpg	YN	Left	Yes	0.699546299874783	0	466124	252
912.462890625	0.699546299874783	health	choicePhaseStart	2	107	47	foodImage.60	FOODEEG_Images\0614.jpg	YN	Left	Yes	0.699546299874783	0	467182	253
913.154296875	0	health	response	2	107	47	foodImage.60	FOODEEG_Images\0614.jpg	YN	Left	Yes	0.699546299874783	0	467536	234
914.1953125	1	health	trialStart	2	108	48	foodImage.27	FOODEEG_Images\0263.jpg	NY	Right	Yes	0.681021899916232	0	468069	251
915.234375	2	health	foodImageDisplay	2	108	48	foodImage.27	FOODEEG_Images\0263.jpg	NY	Right	Yes	0.681021899916232	0	468601	252
917.296875	0.681021899916232	health	choicePhaseStart	2	108	48	foodImage.27	FOODEEG_Images\0263.jpg	NY	Right	Yes	0.681021899916232	0	469657	253
917.96875	0	health	response	2	108	48	foodImage.27	FOODEEG_Images\0263.jpg	NY	Right	Yes	0.681021899916232	0	470001	235
919.01171875	1	decision	trialStart	2	109	49	foodImage.104	FOODEEG_Images\0912.jpg	YN	Left	Yes	1.24043049989268	0	470535	251
920.05078125	2	decision	foodImageDisplay	2	109	49	foodImage.104	FOODEEG_Images\0912.jpg	YN	Left	Yes	1.24043049989268	0	471067	252
922.11328125	1.24043049989268	decision	choicePhaseStart	2	109	49	foodImage.104	FOODEEG_Images\0912.jpg	YN	Left	Yes	1.24043049989268	0	472123	253
923.345703125	0	decision	response	2	109	49	foodImage.104	FOODEEG_Images\0912.jpg	YN	Left	Yes	1.24043049989268	0	472754	234
924.384765625	1	decision	trialStart	2	110	50	foodImage.85	FOODEEG_Images\0841.jpg	YN	Left	Yes	0.685055600013584	0	473286	251
925.44140625	2	decision	foodImageDisplay	2	110	50	foodImage.85	FOODEEG_Images\0841.jpg	YN	Left	Yes	0.685055600013584	0	473827	252
927.509765625	0.685055600013584	decision	choicePhaseStart	2	110	50	foodImage.85	FOODEEG_Images\0841.jpg	YN	Left	Yes	0.685055600013584	0	474886	253
928.18359375	0	decision	response	2	110	50	foodImage.85	FOODEEG_Images\0841.jpg	YN	Left	Yes	0.685055600013584	0	475231	234
929.2265625	1	taste	trialStart	2	111	51	foodImage.38	FOODEEG_Images\0365.jpg	YN	Left	Yes	0.979935099836439	0	475765	251
930.263671875	2	taste	foodImageDisplay	2	111	51	foodImage.38	FOODEEG_Images\0365.jpg	YN	Left	Yes	0.979935099836439	0	476296	252
932.326171875	0.979935099836439	taste	choicePhaseStart	2	111	51	foodImage.38	FOODEEG_Images\0365.jpg	YN	Left	Yes	0.979935099836439	0	477352	253
933.296875	0	taste	response	2	111	51	foodImage.38	FOODEEG_Images\0365.jpg	YN	Left	Yes	0.979935099836439	0	477849	234
934.3359375	1	health	trialStart	2	112	52	foodImage.109	FOODEEG_Images\0917.jpg	NY	Left	No	0.931063299998641	0	478381	251
935.373046875	2	health	foodImageDisplay	2	112	52	foodImage.109	FOODEEG_Images\0917.jpg	NY	Left	No	0.931063299998641	0	478912	252
937.435546875	0.931063299998641	health	choicePhaseStart	2	112	52	foodImage.109	FOODEEG_Images\0917.jpg	NY	Left	No	0.931063299998641	0	479968	253
938.359375	0	health	response	2	112	52	foodImage.109	FOODEEG_Images\0917.jpg	NY	Left	No	0.931063299998641	0	480441	234
939.40234375	1	health	trialStart	2	113	53	foodImage.98	FOODEEG_Images\0906.jpg	NY	Left	No	0.843792099971324	0	480975	251
940.443359375	2	health	foodImageDisplay	2	113	53	foodImage.98	FOODEEG_Images\0906.jpg	NY	Left	No	0.843792099971324	0	481508	252
942.509765625	0.843792099971324	health	choicePhaseStart	2	113	53	foodImage.98	FOODEEG_Images\0906.jpg	NY	Left	No	0.843792099971324	0	482566	253
943.34375	0	health	response	2	113	53	foodImage.98	FOODEEG_Images\0906.jpg	NY	Left	No	0.843792099971324	0	482993	234
944.384765625	1	health	trialStart	2	114	54	foodImage.10	FOODEEG_Images\0145.jpg	YN	Right	No	0.769255899824202	0	483526	251
945.439453125	2	health	foodImageDisplay	2	114	54	foodImage.10	FOODEEG_Images\0145.jpg	YN	Right	No	0.769255899824202	0	484066	252
947.50390625	0.769255899824202	health	choicePhaseStart	2	114	54	foodImage.10	FOODEEG_Images\0145.jpg	YN	Right	No	0.769255899824202	0	485123	253
948.263671875	0	health	response	2	114	54	foodImage.10	FOODEEG_Images\0145.jpg	YN	Right	No	0.769255899824202	0	485512	235
949.30859375	1	health	trialStart	2	115	55	foodImage.28	FOODEEG_Images\0273.jpg	YN	Left	Yes	0.926001099869609	0	486047	251
950.349609375	2	health	foodImageDisplay	2	115	55	foodImage.28	FOODEEG_Images\0273.jpg	YN	Left	Yes	0.926001099869609	0	486580	252
952.412109375	0.926001099869609	health	choicePhaseStart	2	115	55	foodImage.28	FOODEEG_Images\0273.jpg	YN	Left	Yes	0.926001099869609	0	487636	253
953.328125	0	health	response	2	115	55	foodImage.28	FOODEEG_Images\0273.jpg	YN	Left	Yes	0.926001099869609	0	488105	234
954.369140625	1	decision	trialStart	2	116	56	foodImage.100	FOODEEG_Images\0908.jpg	YN	Right	No	0.88612260017544	0	488638	251
955.40625	2	decision	foodImageDisplay	2	116	56	foodImage.100	FOODEEG_Images\0908.jpg	YN	Right	No	0.88612260017544	0	489169	252
957.466796875	0.88612260017544	decision	choicePhaseStart	2	116	56	foodImage.100	FOODEEG_Images\0908.jpg	YN	Right	No	0.88612260017544	0	490224	253
958.34375	0	decision	response	2	116	56	foodImage.100	FOODEEG_Images\0908.jpg	YN	Right	No	0.88612260017544	0	490673	235
959.38671875	1	health	trialStart	2	117	57	foodImage.77	FOODEEG_Images\0771.jpg	YN	Left	Yes	0.76726600015536	0	491207	251
960.427734375	2	health	foodImageDisplay	2	117	57	foodImage.77	FOODEEG_Images\0771.jpg	YN	Left	Yes	0.76726600015536	0	491740	252
962.490234375	0.76726600015536	health	choicePhaseStart	2	117	57	foodImage.77	FOODEEG_Images\0771.jpg	YN	Left	Yes	0.76726600015536	0	492796	253
963.24609375	0	health	response	2	117	57	foodImage.77	FOODEEG_Images\0771.jpg	YN	Left	Yes	0.76726600015536	0	493183	234
964.2890625	1	decision	trialStart	2	118	58	foodImage.7	FOODEEG_Images\0116.jpg	NY	Right	Yes	0.851646400056779	0	493717	251
965.33203125	2	decision	foodImageDisplay	2	118	58	foodImage.7	FOODEEG_Images\0116.jpg	NY	Right	Yes	0.851646400056779	0	494251	252
967.396484375	0.851646400056779	decision	choicePhaseStart	2	118	58	foodImage.7	FOODEEG_Images\0116.jpg	NY	Right	Yes	0.851646400056779	0	495308	253
968.23828125	0	decision	response	2	118	58	foodImage.7	FOODEEG_Images\0116.jpg	NY	Right	Yes	0.851646400056779	0	495739	235
969.28515625	1	health	trialStart	2	119	59	foodImage.39	FOODEEG_Images\0367.jpg	NY	Left	No	1.65410049958155	0	496275	251
970.32421875	2	health	foodImageDisplay	2	119	59	foodImage.39	FOODEEG_Images\0367.jpg	NY	Left	No	1.65410049958155	0	496807	252
972.38671875	1.65410049958155	health	choicePhaseStart	2	119	59	foodImage.39	FOODEEG_Images\0367.jpg	NY	Left	No	1.65410049958155	0	497863	253
974.03125	0	health	response	2	119	59	foodImage.39	FOODEEG_Images\0367.jpg	NY	Left	No	1.65410049958155	0	498705	234
975.07421875	1	taste	trialStart	2	120	60	foodImage.80	FOODEEG_Images\0796.jpg	NY	Right	Yes	0.793186400085688	0	499239	251
976.142578125	2	taste	foodImageDisplay	2	120	60	foodImage.80	FOODEEG_Images\0796.jpg	NY	Right	Yes	0.793186400085688	0	499786	252
978.20703125	0.793186400085688	taste	choicePhaseStart	2	120	60	foodImage.80	FOODEEG_Images\0796.jpg	NY	Right	Yes	0.793186400085688	0	500843	253
978.990234375	0	taste	response	2	120	60	foodImage.80	FOODEEG_Images\0796.jpg	NY	Right	Yes	0.793186400085688	0	501244	235
981.033203125	16.068359375	n/a	blockEnd	n/a	n/a	n/a	n/a	n/a	n/a	n/a	n/a	n/a	n/a	502290	254
997.1015625	2	n/a	blockStart	3	n/a	n/a	n/a	n/a	n/a	n/a	n/a	n/a	n/a	510517	250
999.1328125	1	taste	trialStart	3	121	1	foodImage.100	FOODEEG_Images\0908.jpg	NY	Left	No	0.848918400239199	0	511557	251
1000.173828125	2	taste	foodImageDisplay	3	121	1	foodImage.100	FOODEEG_Images\0908.jpg	NY	Left	No	0.848918400239199	0	512090	252
1002.236328125	0.848918400239199	taste	choicePhaseStart	3	121	1	foodImage.100	FOODEEG_Images\0908.jpg	NY	Left	No	0.848918400239199	0	513146	253
1003.078125	0	taste	response	3	121	1	foodImage.100	FOODEEG_Images\0908.jpg	NY	Left	No	0.848918400239199	0	513577	234
1004.125	1	health	trialStart	3	122	2	foodImage.116	FOODEEG_Images\0924.jpg	YN	Right	No	1.02824240038171	0	514113	251
1005.1640625	2	health	foodImageDisplay	3	122	2	foodImage.116	FOODEEG_Images\0924.jpg	YN	Right	No	1.02824240038171	0	514645	252
1007.2265625	1.02824240038171	health	choicePhaseStart	3	122	2	foodImage.116	FOODEEG_Images\0924.jpg	YN	Right	No	1.02824240038171	0	515701	253
1008.24609375	0	health	response	3	122	2	foodImage.116	FOODEEG_Images\0924.jpg	YN	Right	No	1.02824240038171	0	516223	235
1009.2890625	1	decision	trialStart	3	123	3	foodImage.88	FOODEEG_Images\0878.jpg	YN	Left	Yes	0.816417200025171	0	516757	251
1010.34375	2	decision	foodImageDisplay	3	123	3	foodImage.88	FOODEEG_Images\0878.jpg	YN	Left	Yes	0.816417200025171	0	517297	252
1012.412109375	0.816417200025171	decision	choicePhaseStart	3	123	3	foodImage.88	FOODEEG_Images\0878.jpg	YN	Left	Yes	0.816417200025171	0	518356	253
1013.220703125	0	decision	response	3	123	3	foodImage.88	FOODEEG_Images\0878.jpg	YN	Left	Yes	0.816417200025171	0	518770	234
1014.265625	1	health	trialStart	3	124	4	foodImage.56	FOODEEG_Images\0586.jpg	NY	Left	No	1.4588162000291	0	519305	251
1015.30859375	2	health	foodImageDisplay	3	124	4	foodImage.56	FOODEEG_Images\0586.jpg	NY	Left	No	1.4588162000291	0	519839	252
1017.37109375	1.4588162000291	health	choicePhaseStart	3	124	4	foodImage.56	FOODEEG_Images\0586.jpg	NY	Left	No	1.4588162000291	0	520895	253
1018.8203125	0	health	response	3	124	4	foodImage.56	FOODEEG_Images\0586.jpg	NY	Left	No	1.4588162000291	0	521637	234
1019.861328125	1	decision	trialStart	3	125	5	foodImage.25	FOODEEG_Images\0261.jpg	NY	Right	Yes	0.830929399933666	0	522170	251
1020.90234375	2	decision	foodImageDisplay	3	125	5	foodImage.25	FOODEEG_Images\0261.jpg	NY	Right	Yes	0.830929399933666	0	522703	252
1022.966796875	0.830929399933666	decision	choicePhaseStart	3	125	5	foodImage.25	FOODEEG_Images\0261.jpg	NY	Right	Yes	0.830929399933666	0	523760	253
1023.7890625	0	decision	response	3	125	5	foodImage.25	FOODEEG_Images\0261.jpg	NY	Right	Yes	0.830929399933666	0	524181	235
1024.828125	1	decision	trialStart	3	126	6	foodImage.84	FOODEEG_Images\0830.jpg	NY	Right	Yes	0.705697400029749	0	524713	251
1025.884765625	2	decision	foodImageDisplay	3	126	6	foodImage.84	FOODEEG_Images\0830.jpg	NY	Right	Yes	0.705697400029749	0	525254	252
1027.94921875	0.705697400029749	decision	choicePhaseStart	3	126	6	foodImage.84	FOODEEG_Images\0830.jpg	NY	Right	Yes	0.705697400029749	0	526311	253
1028.64453125	0	decision	response	3	126	6	foodImage.84	FOODEEG_Images\0830.jpg	NY	Right	Yes	0.705697400029749	0	526667	235
1029.69140625	1	taste	trialStart	3	127	7	foodImage.76	FOODEEG_Images\0766.jpg	NY	Right	Yes	0.941788400057703	0	527203	251
1030.736328125	2	taste	foodImageDisplay	3	127	7	foodImage.76	FOODEEG_Images\0766.jpg	NY	Right	Yes	0.941788400057703	0	527738	252
1032.80078125	0.941788400057703	taste	choicePhaseStart	3	127	7	foodImage.76	FOODEEG_Images\0766.jpg	NY	Right	Yes	0.941788400057703	0	528795	253
1033.732421875	0	taste	response	3	127	7	foodImage.76	FOODEEG_Images\0766.jpg	NY	Right	Yes	0.941788400057703	0	529272	235
1034.775390625	1	decision	trialStart	3	128	8	foodImage.64	FOODEEG_Images\0647.jpg	YN	Left	Yes	0.729652100242674	0	529806	251
1035.83203125	2	decision	foodImageDisplay	3	128	8	foodImage.64	FOODEEG_Images\0647.jpg	YN	Left	Yes	0.729652100242674	0	530347	252
1037.892578125	0.729652100242674	decision	choicePhaseStart	3	128	8	foodImage.64	FOODEEG_Images\0647.jpg	YN	Left	Yes	0.729652100242674	0	531402	253
1038.611328125	0	decision	response	3	128	8	foodImage.64	FOODEEG_Images\0647.jpg	YN	Left	Yes	0.729652100242674	0	531770	234
1039.654296875	1	taste	trialStart	3	129	9	foodImage.14	FOODEEG_Images\0188.jpg	NY	Right	Yes	0.985859100241214	0	532304	251
1040.71484375	2	taste	foodImageDisplay	3	129	9	foodImage.14	FOODEEG_Images\0188.jpg	NY	Right	Yes	0.985859100241214	0	532847	252
1042.779296875	0.985859100241214	taste	choicePhaseStart	3	129	9	foodImage.14	FOODEEG_Images\0188.jpg	NY	Right	Yes	0.985859100241214	0	533904	253
1043.755859375	0	taste	response	3	129	9	foodImage.14	FOODEEG_Images\0188.jpg	NY	Right	Yes	0.985859100241214	0	534404	235
1044.798828125	1	taste	trialStart	3	130	10	foodImage.62	FOODEEG_Images\0644.jpg	YN	Left	Yes	0.791171200107783	0	534938	251
1045.857421875	2	taste	foodImageDisplay	3	130	10	foodImage.62	FOODEEG_Images\0644.jpg	YN	Left	Yes	0.791171200107783	0	535480	252
1047.919921875	0.791171200107783	taste	choicePhaseStart	3	130	10	foodImage.62	FOODEEG_Images\0644.jpg	YN	Left	Yes	0.791171200107783	0	536536	253
1048.69921875	0	taste	response	3	130	10	foodImage.62	FOODEEG_Images\0644.jpg	YN	Left	Yes	0.791171200107783	0	536935	234
1049.744140625	1	decision	trialStart	3	131	11	foodImage.93	FOODEEG_Images\0901.jpg	YN	Right	No	0.71886399993673	0	537470	251
1050.783203125	2	decision	foodImageDisplay	3	131	11	foodImage.93	FOODEEG_Images\0901.jpg	YN	Right	No	0.71886399993673	0	538002	252
1052.845703125	0.71886399993673	decision	choicePhaseStart	3	131	11	foodImage.93	FOODEEG_Images\0901.jpg	YN	Right	No	0.71886399993673	0	539058	253
1053.5546875	0	decision	response	3	131	11	foodImage.93	FOODEEG_Images\0901.jpg	YN	Right	No	0.71886399993673	0	539421	235
1054.59765625	1	taste	trialStart	3	132	12	foodImage.82	FOODEEG_Images\0805.jpg	NY	Right	Yes	1.27527400013059	0	539955	251
1055.654296875	2	taste	foodImageDisplay	3	132	12	foodImage.82	FOODEEG_Images\0805.jpg	NY	Right	Yes	1.27527400013059	0	540496	252
1057.71875	1.27527400013059	taste	choicePhaseStart	3	132	12	foodImage.82	FOODEEG_Images\0805.jpg	NY	Right	Yes	1.27527400013059	0	541553	253
1058.98828125	0	taste	response	3	132	12	foodImage.82	FOODEEG_Images\0805.jpg	NY	Right	Yes	1.27527400013059	0	542203	235
1060.02734375	1	health	trialStart	3	133	13	foodImage.17	FOODEEG_Images\0199.jpg	YN	Left	Yes	0.743176400195807	0	542735	251
1061.0703125	2	health	foodImageDisplay	3	133	13	foodImage.17	FOODEEG_Images\0199.jpg	YN	Left	Yes	0.743176400195807	0	543269	252
1063.134765625	0.743176400195807	health	choicePhaseStart	3	133	13	foodImage.17	FOODEEG_Images\0199.jpg	YN	Left	Yes	0.743176400195807	0	544326	253
1063.8671875	0	health	response	3	133	13	foodImage.17	FOODEEG_Images\0199.jpg	YN	Left	Yes	0.743176400195807	0	544701	234
1064.912109375	1	decision	trialStart	3	134	14	foodImage.75	FOODEEG_Images\0763.jpg	YN	Left	Yes	0.700094299856573	0	545236	251
1065.955078125	2	decision	foodImageDisplay	3	134	14	foodImage.75	FOODEEG_Images\0763.jpg	YN	Left	Yes	0.700094299856573	0	545770	252
1068.017578125	0.700094299856573	decision	choicePhaseStart	3	134	14	foodImage.75	FOODEEG_Images\0763.jpg	YN	Left	Yes	0.700094299856573	0	546826	253
1068.70703125	0	decision	response	3	134	14	foodImage.75	FOODEEG_Images\0763.jpg	YN	Left	Yes	0.700094299856573	0	547179	234
1069.75	1	health	trialStart	3	135	15	foodImage.93	FOODEEG_Images\0901.jpg	YN	Right	No	0.84712229995057	0	547713	251
1070.7890625	2	health	foodImageDisplay	3	135	15	foodImage.93	FOODEEG_Images\0901.jpg	YN	Right	No	0.84712229995057	0	548245	252
1072.853515625	0.84712229995057	health	choicePhaseStart	3	135	15	foodImage.93	FOODEEG_Images\0901.jpg	YN	Right	No	0.84712229995057	0	549302	253
1073.69140625	0	health	response	3	135	15	foodImage.93	FOODEEG_Images\0901.jpg	YN	Right	No	0.84712229995057	0	549731	235
1074.734375	1	health	trialStart	3	136	16	foodImage.44	FOODEEG_Images\0459.jpg	YN	Left	Yes	0.711963099893183	0	550265	251
1075.779296875	2	health	foodImageDisplay	3	136	16	foodImage.44	FOODEEG_Images\0459.jpg	YN	Left	Yes	0.711963099893183	0	550800	252
1077.84375	0.711963099893183	health	choicePhaseStart	3	136	16	foodImage.44	FOODEEG_Images\0459.jpg	YN	Left	Yes	0.711963099893183	0	551857	253
1078.546875	0	health	response	3	136	16	foodImage.44	FOODEEG_Images\0459.jpg	YN	Left	Yes	0.711963099893183	0	552217	234
1079.595703125	1	decision	trialStart	3	137	17	foodImage.18	FOODEEG_Images\0202.jpg	NY	Right	Yes	0.944549399893731	0	552754	251
1080.6640625	2	decision	foodImageDisplay	3	137	17	foodImage.18	FOODEEG_Images\0202.jpg	NY	Right	Yes	0.944549399893731	0	553301	252
1082.728515625	0.944549399893731	decision	choicePhaseStart	3	137	17	foodImage.18	FOODEEG_Images\0202.jpg	NY	Right	Yes	0.944549399893731	0	554358	253
1083.666015625	0	decision	response	3	137	17	foodImage.18	FOODEEG_Images\0202.jpg	NY	Right	Yes	0.944549399893731	0	554838	235
1084.7109375	1	decision	trialStart	3	138	18	foodImage.12	FOODEEG_Images\0181.jpg	NY	Right	Yes	1.2206724002026	0	555373	251
1085.75390625	2	decision	foodImageDisplay	3	138	18	foodImage.12	FOODEEG_Images\0181.jpg	NY	Right	Yes	1.2206724002026	0	555907	252
1087.82421875	1.2206724002026	decision	choicePhaseStart	3	138	18	foodImage.12	FOODEEG_Images\0181.jpg	NY	Right	Yes	1.2206724002026	0	556967	253
1089.03515625	0	decision	response	3	138	18	foodImage.12	FOODEEG_Images\0181.jpg	NY	Right	Yes	1.2206724002026	0	557587	235
1090.076171875	1	decision	trialStart	3	139	19	foodImage.6	FOODEEG_Images\0113.jpg	YN	Left	Yes	0.69773539993912	0	558120	251
1091.115234375	2	decision	foodImageDisplay	3	139	19	foodImage.6	FOODEEG_Images\0113.jpg	YN	Left	Yes	0.69773539993912	0	558652	252
1093.177734375	0.69773539993912	decision	choicePhaseStart	3	139	19	foodImage.6	FOODEEG_Images\0113.jpg	YN	Left	Yes	0.69773539993912	0	559708	253
1093.865234375	0	decision	response	3	139	19	foodImage.6	FOODEEG_Images\0113.jpg	YN	Left	Yes	0.69773539993912	0	560060	234
1094.908203125	1	health	trialStart	3	140	20	foodImage.63	FOODEEG_Images\0645.jpg	NY	Right	Yes	1.19523990014568	0	560594	251
1095.951171875	2	health	foodImageDisplay	3	140	20	foodImage.63	FOODEEG_Images\0645.jpg	NY	Right	Yes	1.19523990014568	0	561128	252
1098.015625	1.19523990014568	health	choicePhaseStart	3	140	20	foodImage.63	FOODEEG_Images\0645.jpg	NY	Right	Yes	1.19523990014568	0	562185	253
1099.201171875	0	health	response	3	140	20	foodImage.63	FOODEEG_Images\0645.jpg	NY	Right	Yes	1.19523990014568	0	562792	235
1100.244140625	1	taste	trialStart	3	141	21	foodImage.17	FOODEEG_Images\0199.jpg	YN	Left	Yes	0.693907200358808	0	563326	251
1101.28515625	2	taste	foodImageDisplay	3	141	21	foodImage.17	FOODEEG_Images\0199.jpg	YN	Left	Yes	0.693907200358808	0	563859	252
1103.349609375	0.693907200358808	taste	choicePhaseStart	3	141	21	foodImage.17	FOODEEG_Images\0199.jpg	YN	Left	Yes	0.693907200358808	0	564916	253
1104.033203125	0	taste	response	3	141	21	foodImage.17	FOODEEG_Images\0199.jpg	YN	Left	Yes	0.693907200358808	0	565266	234
1105.076171875	1	decision	trialStart	3	142	22	foodImage.20	FOODEEG_Images\0226.jpg	NY	Right	Yes	1.19049909990281	0	565800	251
1106.119140625	2	decision	foodImageDisplay	3	142	22	foodImage.20	FOODEEG_Images\0226.jpg	NY	Right	Yes	1.19049909990281	0	566334	252
1108.181640625	1.19049909990281	decision	choicePhaseStart	3	142	22	foodImage.20	FOODEEG_Images\0226.jpg	NY	Right	Yes	1.19049909990281	0	567390	253
1109.361328125	0	decision	response	3	142	22	foodImage.20	FOODEEG_Images\0226.jpg	NY	Right	Yes	1.19049909990281	0	567994	235
1110.404296875	1	taste	trialStart	3	143	23	foodImage.120	FOODEEG_Images\0928.jpg	YN	Right	No	1.61362909991294	0	568528	251
1111.4453125	2	taste	foodImageDisplay	3	143	23	foodImage.120	FOODEEG_Images\0928.jpg	YN	Right	No	1.61362909991294	0	569061	252
1113.509765625	1.61362909991294	taste	choicePhaseStart	3	143	23	foodImage.120	FOODEEG_Images\0928.jpg	YN	Right	No	1.61362909991294	0	570118	253
1115.11328125	0	taste	response	3	143	23	foodImage.120	FOODEEG_Images\0928.jpg	YN	Right	No	1.61362909991294	0	570939	235
1116.15625	1	taste	trialStart	3	144	24	foodImage.35	FOODEEG_Images\0350.jpg	NY	Right	Yes	0.656179299578071	0	571473	251
1117.1953125	2	taste	foodImageDisplay	3	144	24	foodImage.35	FOODEEG_Images\0350.jpg	NY	Right	Yes	0.656179299578071	0	572005	252
1119.2578125	0.656179299578071	taste	choicePhaseStart	3	144	24	foodImage.35	FOODEEG_Images\0350.jpg	NY	Right	Yes	0.656179299578071	0	573061	253
1119.904296875	0	taste	response	3	144	24	foodImage.35	FOODEEG_Images\0350.jpg	NY	Right	Yes	0.656179299578071	0	573392	235
1120.94921875	1	health	trialStart	3	145	25	foodImage.48	FOODEEG_Images\0494.jpg	YN	Right	No	1.4444234999828	0	573927	251
1121.990234375	2	health	foodImageDisplay	3	145	25	foodImage.48	FOODEEG_Images\0494.jpg	YN	Right	No	1.4444234999828	0	574460	252
1124.0546875	1.4444234999828	health	choicePhaseStart	3	145	25	foodImage.48	FOODEEG_Images\0494.jpg	YN	Right	No	1.4444234999828	0	575517	253
1125.48828125	0	health	response	3	145	25	foodImage.48	FOODEEG_Images\0494.jpg	YN	Right	No	1.4444234999828	0	576251	235
1126.53125	1	decision	trialStart	3	146	26	foodImage.2	FOODEEG_Images\0028.jpg	YN	Left	Yes	0.918137999717146	0	576785	251
1127.591796875	2	decision	foodImageDisplay	3	146	26	foodImage.2	FOODEEG_Images\0028.jpg	YN	Left	Yes	0.918137999717146	0	577328	252
1129.65625	0.918137999717146	decision	choicePhaseStart	3	146	26	foodImage.2	FOODEEG_Images\0028.jpg	YN	Left	Yes	0.918137999717146	0	578385	253
1130.568359375	0	decision	response	3	146	26	foodImage.2	FOODEEG_Images\0028.jpg	YN	Left	Yes	0.918137999717146	0	578852	234
1131.619140625	1	decision	trialStart	3	147	27	foodImage.111	FOODEEG_Images\0919.jpg	YN	Right	No	0.685122000053525	0	579390	251
1132.66015625	2	decision	foodImageDisplay	3	147	27	foodImage.111	FOODEEG_Images\0919.jpg	YN	Right	No	0.685122000053525	0	579923	252
1134.724609375	0.685122000053525	decision	choicePhaseStart	3	147	27	foodImage.111	FOODEEG_Images\0919.jpg	YN	Right	No	0.685122000053525	0	580980	253
1135.400390625	0	decision	response	3	147	27	foodImage.111	FOODEEG_Images\0919.jpg	YN	Right	No	0.685122000053525	0	581326	235
1136.439453125	1	taste	trialStart	3	148	28	foodImage.51	FOODEEG_Images\0536.jpg	NY	Right	Yes	1.05195710016415	0	581858	251
1137.486328125	2	taste	foodImageDisplay	3	148	28	foodImage.51	FOODEEG_Images\0536.jpg	NY	Right	Yes	1.05195710016415	0	582394	252
1139.55078125	1.05195710016415	taste	choicePhaseStart	3	148	28	foodImage.51	FOODEEG_Images\0536.jpg	NY	Right	Yes	1.05195710016415	0	583451	253
1140.591796875	0	taste	response	3	148	28	foodImage.51	FOODEEG_Images\0536.jpg	NY	Right	Yes	1.05195710016415	0	583984	235
1141.6328125	1	decision	trialStart	3	149	29	foodImage.66	FOODEEG_Images\0676.jpg	NY	Right	Yes	0.84642650000751	0	584517	251
1142.67578125	2	decision	foodImageDisplay	3	149	29	foodImage.66	FOODEEG_Images\0676.jpg	NY	Right	Yes	0.84642650000751	0	585051	252
1144.73828125	0.84642650000751	decision	choicePhaseStart	3	149	29	foodImage.66	FOODEEG_Images\0676.jpg	NY	Right	Yes	0.84642650000751	0	586107	253
1145.576171875	0	decision	response	3	149	29	foodImage.66	FOODEEG_Images\0676.jpg	NY	Right	Yes	0.84642650000751	0	586536	235
1146.625	1	decision	trialStart	3	150	30	foodImage.22	FOODEEG_Images\0236.jpg	NY	Right	Yes	0.692701499909163	0	587073	251
1147.66796875	2	decision	foodImageDisplay	3	150	30	foodImage.22	FOODEEG_Images\0236.jpg	NY	Right	Yes	0.692701499909163	0	587607	252
1149.732421875	0.692701499909163	decision	choicePhaseStart	3	150	30	foodImage.22	FOODEEG_Images\0236.jpg	NY	Right	Yes	0.692701499909163	0	588664	253
1150.416015625	0	decision	response	3	150	30	foodImage.22	FOODEEG_Images\0236.jpg	NY	Right	Yes	0.692701499909163	0	589014	235
1151.45703125	1	decision	trialStart	3	151	31	foodImage.82	FOODEEG_Images\0805.jpg	YN	Right	No	1.42059649992734	0	589547	251
1152.509765625	2	decision	foodImageDisplay	3	151	31	foodImage.82	FOODEEG_Images\0805.jpg	YN	Right	No	1.42059649992734	0	590086	252
1154.572265625	1.42059649992734	decision	choicePhaseStart	3	151	31	foodImage.82	FOODEEG_Images\0805.jpg	YN	Right	No	1.42059649992734	0	591142	253
1155.984375	0	decision	response	3	151	31	foodImage.82	FOODEEG_Images\0805.jpg	YN	Right	No	1.42059649992734	0	591865	235
1157.02734375	1	taste	trialStart	3	152	32	foodImage.44	FOODEEG_Images\0459.jpg	NY	Right	Yes	0.728104799985886	0	592399	251
1158.072265625	2	taste	foodImageDisplay	3	152	32	foodImage.44	FOODEEG_Images\0459.jpg	NY	Right	Yes	0.728104799985886	0	592934	252
1160.13671875	0.728104799985886	taste	choicePhaseStart	3	152	32	foodImage.44	FOODEEG_Images\0459.jpg	NY	Right	Yes	0.728104799985886	0	593991	253
1160.85546875	0	taste	response	3	152	32	foodImage.44	FOODEEG_Images\0459.jpg	NY	Right	Yes	0.728104799985886	0	594359	235
1161.8984375	1	taste	trialStart	3	153	33	foodImage.99	FOODEEG_Images\0907.jpg	YN	Right	No	0.655325799714774	0	594893	251
1162.9375	2	taste	foodImageDisplay	3	153	33	foodImage.99	FOODEEG_Images\0907.jpg	YN	Right	No	0.655325799714774	0	595425	252
1165	0.655325799714774	taste	choicePhaseStart	3	153	33	foodImage.99	FOODEEG_Images\0907.jpg	YN	Right	No	0.655325799714774	0	596481	253
1165.646484375	0	taste	response	3	153	33	foodImage.99	FOODEEG_Images\0907.jpg	YN	Right	No	0.655325799714774	0	596812	235
1166.689453125	1	taste	trialStart	3	154	34	foodImage.92	FOODEEG_Images\0900.jpg	NY	Left	No	0.746412000153214	0	597346	251
1167.7265625	2	taste	foodImageDisplay	3	154	34	foodImage.92	FOODEEG_Images\0900.jpg	NY	Left	No	0.746412000153214	0	597877	252
1169.791015625	0.746412000153214	taste	choicePhaseStart	3	154	34	foodImage.92	FOODEEG_Images\0900.jpg	NY	Left	No	0.746412000153214	0	598934	253
1170.52734375	0	taste	response	3	154	34	foodImage.92	FOODEEG_Images\0900.jpg	NY	Left	No	0.746412000153214	0	599311	234
1171.56640625	1	health	trialStart	3	155	35	foodImage.119	FOODEEG_Images\0927.jpg	NY	Left	No	1.51829000003636	0	599843	251
1172.603515625	2	health	foodImageDisplay	3	155	35	foodImage.119	FOODEEG_Images\0927.jpg	NY	Left	No	1.51829000003636	0	600374	252
1174.666015625	1.51829000003636	health	choicePhaseStart	3	155	35	foodImage.119	FOODEEG_Images\0927.jpg	NY	Left	No	1.51829000003636	0	601430	253
1176.173828125	0	health	response	3	155	35	foodImage.119	FOODEEG_Images\0927.jpg	NY	Left	No	1.51829000003636	0	602202	234
1177.216796875	1	health	trialStart	3	156	36	foodImage.47	FOODEEG_Images\0488.jpg	YN	Right	No	0.850348700303584	0	602736	251
1178.26171875	2	health	foodImageDisplay	3	156	36	foodImage.47	FOODEEG_Images\0488.jpg	YN	Right	No	0.850348700303584	0	603271	252
1180.32421875	0.850348700303584	health	choicePhaseStart	3	156	36	foodImage.47	FOODEEG_Images\0488.jpg	YN	Right	No	0.850348700303584	0	604327	253
1181.166015625	0	health	response	3	156	36	foodImage.47	FOODEEG_Images\0488.jpg	YN	Right	No	0.850348700303584	0	604758	235
1182.2109375	1	health	trialStart	3	157	37	foodImage.85	FOODEEG_Images\0841.jpg	NY	Left	No	1.27068570023403	0	605293	251
1183.26953125	2	health	foodImageDisplay	3	157	37	foodImage.85	FOODEEG_Images\0841.jpg	NY	Left	No	1.27068570023403	0	605835	252
1185.3359375	1.27068570023403	health	choicePhaseStart	3	157	37	foodImage.85	FOODEEG_Images\0841.jpg	NY	Left	No	1.27068570023403	0	606893	253
1186.59765625	0	health	response	3	157	37	foodImage.85	FOODEEG_Images\0841.jpg	NY	Left	No	1.27068570023403	0	607539	234
1187.63671875	1	decision	trialStart	3	158	38	foodImage.46	FOODEEG_Images\0479.jpg	YN	Left	Yes	0.794215500354767	0	608071	251
1188.693359375	2	decision	foodImageDisplay	3	158	38	foodImage.46	FOODEEG_Images\0479.jpg	YN	Left	Yes	0.794215500354767	0	608612	252
1190.7578125	0.794215500354767	decision	choicePhaseStart	3	158	38	foodImage.46	FOODEEG_Images\0479.jpg	YN	Left	Yes	0.794215500354767	0	609669	253
1191.54296875	0	decision	response	3	158	38	foodImage.46	FOODEEG_Images\0479.jpg	YN	Left	Yes	0.794215500354767	0	610071	234
1192.5859375	1	taste	trialStart	3	159	39	foodImage.53	FOODEEG_Images\0547.jpg	YN	Left	Yes	0.631764000281692	0	610605	251
1193.642578125	2	taste	foodImageDisplay	3	159	39	foodImage.53	FOODEEG_Images\0547.jpg	YN	Left	Yes	0.631764000281692	0	611146	252
1195.703125	0.631764000281692	taste	choicePhaseStart	3	159	39	foodImage.53	FOODEEG_Images\0547.jpg	YN	Left	Yes	0.631764000281692	0	612201	253
1196.326171875	0	taste	response	3	159	39	foodImage.53	FOODEEG_Images\0547.jpg	YN	Left	Yes	0.631764000281692	0	612520	234
1197.369140625	1	decision	trialStart	3	160	40	foodImage.91	FOODEEG_Images\0896.jpg	YN	Left	Yes	1.0111000998877	0	613054	251
1198.427734375	2	decision	foodImageDisplay	3	160	40	foodImage.91	FOODEEG_Images\0896.jpg	YN	Left	Yes	1.0111000998877	0	613596	252
1200.4921875	1.0111000998877	decision	choicePhaseStart	3	160	40	foodImage.91	FOODEEG_Images\0896.jpg	YN	Left	Yes	1.0111000998877	0	614653	253
1201.494140625	0	decision	response	3	160	40	foodImage.91	FOODEEG_Images\0896.jpg	YN	Left	Yes	1.0111000998877	0	615166	234
1202.537109375	1	taste	trialStart	3	161	41	foodImage.85	FOODEEG_Images\0841.jpg	YN	Left	Yes	1.54906459990889	0	615700	251
1203.595703125	2	taste	foodImageDisplay	3	161	41	foodImage.85	FOODEEG_Images\0841.jpg	YN	Left	Yes	1.54906459990889	0	616242	252
1205.658203125	1.54906459990889	taste	choicePhaseStart	3	161	41	foodImage.85	FOODEEG_Images\0841.jpg	YN	Left	Yes	1.54906459990889	0	617298	253
1207.197265625	0	taste	response	3	161	41	foodImage.85	FOODEEG_Images\0841.jpg	YN	Left	Yes	1.54906459990889	0	618086	234
1208.240234375	1	taste	trialStart	3	162	42	foodImage.103	FOODEEG_Images\0911.jpg	YN	Right	No	0.931718899868429	0	618620	251
1209.283203125	2	taste	foodImageDisplay	3	162	42	foodImage.103	FOODEEG_Images\0911.jpg	YN	Right	No	0.931718899868429	0	619154	252
1211.34765625	0.931718899868429	taste	choicePhaseStart	3	162	42	foodImage.103	FOODEEG_Images\0911.jpg	YN	Right	No	0.931718899868429	0	620211	253
1212.26953125	0	taste	response	3	162	42	foodImage.103	FOODEEG_Images\0911.jpg	YN	Right	No	0.931718899868429	0	620683	235
1213.31640625	1	health	trialStart	3	163	43	foodImage.117	FOODEEG_Images\0925.jpg	YN	Left	Yes	1.54949190001935	0	621219	251
1214.361328125	2	health	foodImageDisplay	3	163	43	foodImage.117	FOODEEG_Images\0925.jpg	YN	Left	Yes	1.54949190001935	0	621754	252
1216.423828125	1.54949190001935	health	choicePhaseStart	3	163	43	foodImage.117	FOODEEG_Images\0925.jpg	YN	Left	Yes	1.54949190001935	0	622810	253
1217.96484375	0	health	response	3	163	43	foodImage.117	FOODEEG_Images\0925.jpg	YN	Left	Yes	1.54949190001935	0	623599	234
1219.01171875	1	taste	trialStart	3	164	44	foodImage.34	FOODEEG_Images\0339.jpg	YN	Left	Yes	1.31461489992216	0	624135	251
1220.0703125	2	taste	foodImageDisplay	3	164	44	foodImage.34	FOODEEG_Images\0339.jpg	YN	Left	Yes	1.31461489992216	0	624677	252
1222.1328125	1.31461489992216	taste	choicePhaseStart	3	164	44	foodImage.34	FOODEEG_Images\0339.jpg	YN	Left	Yes	1.31461489992216	0	625733	253
1223.4375	0	taste	response	3	164	44	foodImage.34	FOODEEG_Images\0339.jpg	YN	Left	Yes	1.31461489992216	0	626401	234
1224.48046875	1	decision	trialStart	3	165	45	foodImage.3	FOODEEG_Images\0046.jpg	YN	Left	Yes	0.844570799730718	0	626935	251
1225.521484375	2	decision	foodImageDisplay	3	165	45	foodImage.3	FOODEEG_Images\0046.jpg	YN	Left	Yes	0.844570799730718	0	627468	252
1227.5859375	0.844570799730718	decision	choicePhaseStart	3	165	45	foodImage.3	FOODEEG_Images\0046.jpg	YN	Left	Yes	0.844570799730718	0	628525	253
1228.419921875	0	decision	response	3	165	45	foodImage.3	FOODEEG_Images\0046.jpg	YN	Left	Yes	0.844570799730718	0	628952	234
1229.46484375	1	decision	trialStart	3	166	46	foodImage.8	FOODEEG_Images\0136.jpg	NY	Right	Yes	0.803866700269282	0	629487	251
1230.505859375	2	decision	foodImageDisplay	3	166	46	foodImage.8	FOODEEG_Images\0136.jpg	NY	Right	Yes	0.803866700269282	0	630020	252
1232.5703125	0.803866700269282	decision	choicePhaseStart	3	166	46	foodImage.8	FOODEEG_Images\0136.jpg	NY	Right	Yes	0.803866700269282	0	631077	253
1233.365234375	0	decision	response	3	166	46	foodImage.8	FOODEEG_Images\0136.jpg	NY	Right	Yes	0.803866700269282	0	631484	235
1234.408203125	1	taste	trialStart	3	167	47	foodImage.113	FOODEEG_Images\0921.jpg	NY	Left	No	1.10186820011586	0	632018	251
1235.44921875	2	taste	foodImageDisplay	3	167	47	foodImage.113	FOODEEG_Images\0921.jpg	NY	Left	No	1.10186820011586	0	632551	252
1237.51171875	1.10186820011586	taste	choicePhaseStart	3	167	47	foodImage.113	FOODEEG_Images\0921.jpg	NY	Left	No	1.10186820011586	0	633607	253
1238.60546875	0	taste	response	3	167	47	foodImage.113	FOODEEG_Images\0921.jpg	NY	Left	No	1.10186820011586	0	634167	234
1239.6484375	1	decision	trialStart	3	168	48	foodImage.68	FOODEEG_Images\0685.jpg	NY	Right	Yes	0.887244100216776	0	634701	251
1240.7265625	2	decision	foodImageDisplay	3	168	48	foodImage.68	FOODEEG_Images\0685.jpg	NY	Right	Yes	0.887244100216776	0	635253	252
1242.7890625	0.887244100216776	decision	choicePhaseStart	3	168	48	foodImage.68	FOODEEG_Images\0685.jpg	NY	Right	Yes	0.887244100216776	0	636309	253
1243.66796875	0	decision	response	3	168	48	foodImage.68	FOODEEG_Images\0685.jpg	NY	Right	Yes	0.887244100216776	0	636759	235
1244.7109375	1	decision	trialStart	3	169	49	foodImage.31	FOODEEG_Images\0294.jpg	YN	Left	Yes	0.610431400127709	0	637293	251
1245.755859375	2	decision	foodImageDisplay	3	169	49	foodImage.31	FOODEEG_Images\0294.jpg	YN	Left	Yes	0.610431400127709	0	637828	252
1247.818359375	0.610431400127709	decision	choicePhaseStart	3	169	49	foodImage.31	FOODEEG_Images\0294.jpg	YN	Left	Yes	0.610431400127709	0	638884	253
1248.419921875	0	decision	response	3	169	49	foodImage.31	FOODEEG_Images\0294.jpg	YN	Left	Yes	0.610431400127709	0	639192	234
1249.470703125	1	health	trialStart	3	170	50	foodImage.21	FOODEEG_Images\0234.jpg	NY	Right	Yes	0.726293500047177	0	639730	251
1250.529296875	2	health	foodImageDisplay	3	170	50	foodImage.21	FOODEEG_Images\0234.jpg	NY	Right	Yes	0.726293500047177	0	640272	252
1252.591796875	0.726293500047177	health	choicePhaseStart	3	170	50	foodImage.21	FOODEEG_Images\0234.jpg	NY	Right	Yes	0.726293500047177	0	641328	253
1253.30859375	0	health	response	3	170	50	foodImage.21	FOODEEG_Images\0234.jpg	NY	Right	Yes	0.726293500047177	0	641695	235
1254.357421875	1	health	trialStart	3	171	51	foodImage.118	FOODEEG_Images\0926.jpg	NY	Left	No	0.668529300019145	0	642232	251
1255.39453125	2	health	foodImageDisplay	3	171	51	foodImage.118	FOODEEG_Images\0926.jpg	NY	Left	No	0.668529300019145	0	642763	252
1257.45703125	0.668529300019145	health	choicePhaseStart	3	171	51	foodImage.118	FOODEEG_Images\0926.jpg	NY	Left	No	0.668529300019145	0	643819	253
1258.115234375	0	health	response	3	171	51	foodImage.118	FOODEEG_Images\0926.jpg	NY	Left	No	0.668529300019145	0	644156	234
1259.154296875	1	taste	trialStart	3	172	52	foodImage.110	FOODEEG_Images\0918.jpg	YN	Right	No	0.972980400081724	0	644688	251
1260.19140625	2	taste	foodImageDisplay	3	172	52	foodImage.110	FOODEEG_Images\0918.jpg	YN	Right	No	0.972980400081724	0	645219	252
1262.255859375	0.972980400081724	taste	choicePhaseStart	3	172	52	foodImage.110	FOODEEG_Images\0918.jpg	YN	Right	No	0.972980400081724	0	646276	253
1263.21875	0	taste	response	3	172	52	foodImage.110	FOODEEG_Images\0918.jpg	YN	Right	No	0.972980400081724	0	646769	235
1264.259765625	1	decision	trialStart	3	173	53	foodImage.77	FOODEEG_Images\0771.jpg	NY	Right	Yes	0.799784499686211	0	647302	251
1265.302734375	2	decision	foodImageDisplay	3	173	53	foodImage.77	FOODEEG_Images\0771.jpg	NY	Right	Yes	0.799784499686211	0	647836	252
1267.365234375	0.799784499686211	decision	choicePhaseStart	3	173	53	foodImage.77	FOODEEG_Images\0771.jpg	NY	Right	Yes	0.799784499686211	0	648892	253
1268.15625	0	decision	response	3	173	53	foodImage.77	FOODEEG_Images\0771.jpg	NY	Right	Yes	0.799784499686211	0	649297	235
1269.1953125	1	decision	trialStart	3	174	54	foodImage.9	FOODEEG_Images\0138.jpg	NY	Right	Yes	1.26648489991203	0	649829	251
1270.25	2	decision	foodImageDisplay	3	174	54	foodImage.9	FOODEEG_Images\0138.jpg	NY	Right	Yes	1.26648489991203	0	650369	252
1272.314453125	1.26648489991203	decision	choicePhaseStart	3	174	54	foodImage.9	FOODEEG_Images\0138.jpg	NY	Right	Yes	1.26648489991203	0	651426	253
1273.5703125	0	decision	response	3	174	54	foodImage.9	FOODEEG_Images\0138.jpg	NY	Right	Yes	1.26648489991203	0	652069	235
1274.61328125	1	taste	trialStart	3	175	55	foodImage.46	FOODEEG_Images\0479.jpg	YN	Left	Yes	0.961647899821401	0	652603	251
1275.671875	2	taste	foodImageDisplay	3	175	55	foodImage.46	FOODEEG_Images\0479.jpg	YN	Left	Yes	0.961647899821401	0	653145	252
1277.736328125	0.961647899821401	taste	choicePhaseStart	3	175	55	foodImage.46	FOODEEG_Images\0479.jpg	YN	Left	Yes	0.961647899821401	0	654202	253
1278.69140625	0	taste	response	3	175	55	foodImage.46	FOODEEG_Images\0479.jpg	YN	Left	Yes	0.961647899821401	0	654691	234
1279.734375	1	decision	trialStart	3	176	56	foodImage.11	FOODEEG_Images\0180.jpg	NY	Right	Yes	0.748480100184679	0	655225	251
1280.77734375	2	decision	foodImageDisplay	3	176	56	foodImage.11	FOODEEG_Images\0180.jpg	NY	Right	Yes	0.748480100184679	0	655759	252
1282.83984375	0.748480100184679	decision	choicePhaseStart	3	176	56	foodImage.11	FOODEEG_Images\0180.jpg	NY	Right	Yes	0.748480100184679	0	656815	253
1283.578125	0	decision	response	3	176	56	foodImage.11	FOODEEG_Images\0180.jpg	NY	Right	Yes	0.748480100184679	0	657193	235
1284.62109375	1	decision	trialStart	3	177	57	foodImage.113	FOODEEG_Images\0921.jpg	YN	Right	No	1.03975669993088	0	657727	251
1285.66015625	2	decision	foodImageDisplay	3	177	57	foodImage.113	FOODEEG_Images\0921.jpg	YN	Right	No	1.03975669993088	0	658259	252
1287.724609375	1.03975669993088	decision	choicePhaseStart	3	177	57	foodImage.113	FOODEEG_Images\0921.jpg	YN	Right	No	1.03975669993088	0	659316	253
1288.755859375	0	decision	response	3	177	57	foodImage.113	FOODEEG_Images\0921.jpg	YN	Right	No	1.03975669993088	0	659844	235
1289.798828125	1	decision	trialStart	3	178	58	foodImage.102	FOODEEG_Images\0910.jpg	YN	Right	No	0.799744700081646	0	660378	251
1290.8359375	2	decision	foodImageDisplay	3	178	58	foodImage.102	FOODEEG_Images\0910.jpg	YN	Right	No	0.799744700081646	0	660909	252
1292.900390625	0.799744700081646	decision	choicePhaseStart	3	178	58	foodImage.102	FOODEEG_Images\0910.jpg	YN	Right	No	0.799744700081646	0	661966	253
1293.689453125	0	decision	response	3	178	58	foodImage.102	FOODEEG_Images\0910.jpg	YN	Right	No	0.799744700081646	0	662370	235
1294.734375	1	taste	trialStart	3	179	59	foodImage.21	FOODEEG_Images\0234.jpg	NY	Right	Yes	0.629845999646932	0	662905	251
1295.791015625	2	taste	foodImageDisplay	3	179	59	foodImage.21	FOODEEG_Images\0234.jpg	NY	Right	Yes	0.629845999646932	0	663446	252
1297.853515625	0.629845999646932	taste	choicePhaseStart	3	179	59	foodImage.21	FOODEEG_Images\0234.jpg	NY	Right	Yes	0.629845999646932	0	664502	253
1298.474609375	0	taste	response	3	179	59	foodImage.21	FOODEEG_Images\0234.jpg	NY	Right	Yes	0.629845999646932	0	664820	235
1299.521484375	1	decision	trialStart	3	180	60	foodImage.107	FOODEEG_Images\0915.jpg	NY	Left	No	1.59021269995719	0	665356	251
1300.576171875	2	decision	foodImageDisplay	3	180	60	foodImage.107	FOODEEG_Images\0915.jpg	NY	Left	No	1.59021269995719	0	665896	252
1302.642578125	1.59021269995719	decision	choicePhaseStart	3	180	60	foodImage.107	FOODEEG_Images\0915.jpg	NY	Left	No	1.59021269995719	0	666954	253
1304.2265625	0	decision	response	3	180	60	foodImage.107	FOODEEG_Images\0915.jpg	NY	Left	No	1.59021269995719	0	667765	234
1306.267578125	16.216796875	n/a	blockEnd	n/a	n/a	n/a	n/a	n/a	n/a	n/a	n/a	n/a	n/a	668810	254
1322.484375	2	n/a	blockStart	4	n/a	n/a	n/a	n/a	n/a	n/a	n/a	n/a	n/a	677113	250
1324.515625	1	decision	trialStart	4	181	1	foodImage.115	FOODEEG_Images\0923.jpg	YN	Right	No	0.696730799973011	0	678153	251
1325.556640625	2	decision	foodImageDisplay	4	181	1	foodImage.115	FOODEEG_Images\0923.jpg	YN	Right	No	0.696730799973011	0	678686	252
1327.6171875	0.696730799973011	decision	choicePhaseStart	4	181	1	foodImage.115	FOODEEG_Images\0923.jpg	YN	Right	No	0.696730799973011	0	679741	253
1328.3046875	0	decision	response	4	181	1	foodImage.115	FOODEEG_Images\0923.jpg	YN	Right	No	0.696730799973011	0	680093	235
1329.34765625	1	decision	trialStart	4	182	2	foodImage.49	FOODEEG_Images\0515.jpg	NY	Right	Yes	0.863967400044203	0	680627	251
1330.390625	2	decision	foodImageDisplay	4	182	2	foodImage.49	FOODEEG_Images\0515.jpg	NY	Right	Yes	0.863967400044203	0	681161	252
1332.458984375	0.863967400044203	decision	choicePhaseStart	4	182	2	foodImage.49	FOODEEG_Images\0515.jpg	NY	Right	Yes	0.863967400044203	0	682220	253
1333.3125	0	decision	response	4	182	2	foodImage.49	FOODEEG_Images\0515.jpg	NY	Right	Yes	0.863967400044203	0	682657	235
1334.357421875	1	taste	trialStart	4	183	3	foodImage.89	FOODEEG_Images\0881.jpg	YN	Left	Yes	0.787929700221866	0	683192	251
1335.4140625	2	taste	foodImageDisplay	4	183	3	foodImage.89	FOODEEG_Images\0881.jpg	YN	Left	Yes	0.787929700221866	0	683733	252
1337.478515625	0.787929700221866	taste	choicePhaseStart	4	183	3	foodImage.89	FOODEEG_Images\0881.jpg	YN	Left	Yes	0.787929700221866	0	684790	253
1338.2578125	0	taste	response	4	183	3	foodImage.89	FOODEEG_Images\0881.jpg	YN	Left	Yes	0.787929700221866	0	685189	234
1339.3046875	1	health	trialStart	4	184	4	foodImage.92	FOODEEG_Images\0900.jpg	YN	Right	No	0.984731300268322	0	685725	251
1340.34375	2	health	foodImageDisplay	4	184	4	foodImage.92	FOODEEG_Images\0900.jpg	YN	Right	No	0.984731300268322	0	686257	252
1342.40625	0.984731300268322	health	choicePhaseStart	4	184	4	foodImage.92	FOODEEG_Images\0900.jpg	YN	Right	No	0.984731300268322	0	687313	253
1343.384765625	0	health	response	4	184	4	foodImage.92	FOODEEG_Images\0900.jpg	YN	Right	No	0.984731300268322	0	687814	235
1344.427734375	1	taste	trialStart	4	185	5	foodImage.81	FOODEEG_Images\0797.jpg	YN	Left	Yes	1.19587059970945	0	688348	251
1345.486328125	2	taste	foodImageDisplay	4	185	5	foodImage.81	FOODEEG_Images\0797.jpg	YN	Left	Yes	1.19587059970945	0	688890	252
1347.548828125	1.19587059970945	taste	choicePhaseStart	4	185	5	foodImage.81	FOODEEG_Images\0797.jpg	YN	Left	Yes	1.19587059970945	0	689946	253
1348.736328125	0	taste	response	4	185	5	foodImage.81	FOODEEG_Images\0797.jpg	YN	Left	Yes	1.19587059970945	0	690554	234
1349.779296875	1	taste	trialStart	4	186	6	foodImage.107	FOODEEG_Images\0915.jpg	YN	Right	No	0.874115299899131	0	691088	251
1350.81640625	2	taste	foodImageDisplay	4	186	6	foodImage.107	FOODEEG_Images\0915.jpg	YN	Right	No	0.874115299899131	0	691619	252
1352.87890625	0.874115299899131	taste	choicePhaseStart	4	186	6	foodImage.107	FOODEEG_Images\0915.jpg	YN	Right	No	0.874115299899131	0	692675	253
1353.744140625	0	taste	response	4	186	6	foodImage.107	FOODEEG_Images\0915.jpg	YN	Right	No	0.874115299899131	0	693118	235
1354.783203125	1	taste	trialStart	4	187	7	foodImage.104	FOODEEG_Images\0912.jpg	YN	Left	Yes	0.614605899900198	0	693650	251
1355.8203125	2	taste	foodImageDisplay	4	187	7	foodImage.104	FOODEEG_Images\0912.jpg	YN	Left	Yes	0.614605899900198	0	694181	252
1357.8828125	0.614605899900198	taste	choicePhaseStart	4	187	7	foodImage.104	FOODEEG_Images\0912.jpg	YN	Left	Yes	0.614605899900198	0	695237	253
1358.48828125	0	taste	response	4	187	7	foodImage.104	FOODEEG_Images\0912.jpg	YN	Left	Yes	0.614605899900198	0	695547	234
1359.53125	1	health	trialStart	4	188	8	foodImage.61	FOODEEG_Images\0640.jpg	YN	Left	Yes	0.579441200010478	0	696081	251
1360.57421875	2	health	foodImageDisplay	4	188	8	foodImage.61	FOODEEG_Images\0640.jpg	YN	Left	Yes	0.579441200010478	0	696615	252
1362.63671875	0.579441200010478	health	choicePhaseStart	4	188	8	foodImage.61	FOODEEG_Images\0640.jpg	YN	Left	Yes	0.579441200010478	0	697671	253
1363.20703125	0	health	response	4	188	8	foodImage.61	FOODEEG_Images\0640.jpg	YN	Left	Yes	0.579441200010478	0	697963	234
1364.25	1	taste	trialStart	4	189	9	foodImage.95	FOODEEG_Images\0903.jpg	YN	Right	No	0.799706300254911	0	698497	251
1365.2890625	2	taste	foodImageDisplay	4	189	9	foodImage.95	FOODEEG_Images\0903.jpg	YN	Right	No	0.799706300254911	0	699029	252
1367.353515625	0.799706300254911	taste	choicePhaseStart	4	189	9	foodImage.95	FOODEEG_Images\0903.jpg	YN	Right	No	0.799706300254911	0	700086	253
1368.142578125	0	taste	response	4	189	9	foodImage.95	FOODEEG_Images\0903.jpg	YN	Right	No	0.799706300254911	0	700490	235
1369.1875	1	decision	trialStart	4	190	10	foodImage.16	FOODEEG_Images\0196.jpg	NY	Right	Yes	0.612660000100732	0	701025	251
1370.244140625	2	decision	foodImageDisplay	4	190	10	foodImage.16	FOODEEG_Images\0196.jpg	NY	Right	Yes	0.612660000100732	0	701566	252
1372.306640625	0.612660000100732	decision	choicePhaseStart	4	190	10	foodImage.16	FOODEEG_Images\0196.jpg	NY	Right	Yes	0.612660000100732	0	702622	253
1372.912109375	0	decision	response	4	190	10	foodImage.16	FOODEEG_Images\0196.jpg	NY	Right	Yes	0.612660000100732	0	702932	235
1373.951171875	1	decision	trialStart	4	191	11	foodImage.95	FOODEEG_Images\0903.jpg	NY	Left	No	0.787893099710345	0	703464	251
1374.98828125	2	decision	foodImageDisplay	4	191	11	foodImage.95	FOODEEG_Images\0903.jpg	NY	Left	No	0.787893099710345	0	703995	252
1377.052734375	0.787893099710345	decision	choicePhaseStart	4	191	11	foodImage.95	FOODEEG_Images\0903.jpg	NY	Left	No	0.787893099710345	0	705052	253
1377.830078125	0	decision	response	4	191	11	foodImage.95	FOODEEG_Images\0903.jpg	NY	Left	No	0.787893099710345	0	705450	234
1378.875	1	decision	trialStart	4	192	12	foodImage.52	FOODEEG_Images\0539.jpg	YN	Left	Yes	0.830466500017792	0	705985	251
1379.931640625	2	decision	foodImageDisplay	4	192	12	foodImage.52	FOODEEG_Images\0539.jpg	YN	Left	Yes	0.830466500017792	0	706526	252
1381.994140625	0.830466500017792	decision	choicePhaseStart	4	192	12	foodImage.52	FOODEEG_Images\0539.jpg	YN	Left	Yes	0.830466500017792	0	707582	253
1382.814453125	0	decision	response	4	192	12	foodImage.52	FOODEEG_Images\0539.jpg	YN	Left	Yes	0.830466500017792	0	708002	234
