onset	duration	trial_type	event_type	block	trial_total	trial_in_block	food_image_code	food_image_path	button_position	resp_position	resp_choice	choice_rt	resp_too_slow	sample	trigger
944.578125	2	n/a	blockStart	1	n/a	n/a	n/a	n/a	n/a	n/a	n/a	n/a	n/a	483625	250
946.615234375	1	decision	trialStart	1	1	1	foodImage.65	FOODEEG_Images\0658.jpg	YN	Right	No	1.13758770000004	0	484668	251
947.66015625	2	decision	foodImageDisplay	1	1	1	foodImage.65	FOODEEG_Images\0658.jpg	YN	Right	No	1.13758770000004	0	485203	252
949.7265625	1.13758770000004	decision	choicePhaseStart	1	1	1	foodImage.65	FOODEEG_Images\0658.jpg	YN	Right	No	1.13758770000004	0	486261	253
950.857421875	0	decision	response	1	1	1	foodImage.65	FOODEEG_Images\0658.jpg	YN	Right	No	1.13758770000004	0	486840	235
951.94921875	1	taste	trialStart	1	2	2	foodImage.42	FOODEEG_Images\0438.jpg	YN	Left	Yes	1.71487969999998	0	487399	251
953.037109375	2	taste	foodImageDisplay	1	2	2	foodImage.42	FOODEEG_Images\0438.jpg	YN	Left	Yes	1.71487969999998	0	487956	252
955.107421875	1.71487969999998	taste	choicePhaseStart	1	2	2	foodImage.42	FOODEEG_Images\0438.jpg	YN	Left	Yes	1.71487969999998	0	489016	253
956.81640625	0	taste	response	1	2	2	foodImage.42	FOODEEG_Images\0438.jpg	YN	Left	Yes	1.71487969999998	0	489891	234
957.87109375	1	health	trialStart	1	3	3	foodImage.65	FOODEEG_Images\0658.jpg	YN	Right	No	1.68756910000047	0	490431	251
958.9140625	2	health	foodImageDisplay	1	3	3	foodImage.65	FOODEEG_Images\0658.jpg	YN	Right	No	1.68756910000047	0	490965	252
960.978515625	1.68756910000047	health	choicePhaseStart	1	3	3	foodImage.65	FOODEEG_Images\0658.jpg	YN	Right	No	1.68756910000047	0	492022	253
962.65625	0	health	response	1	3	3	foodImage.65	FOODEEG_Images\0658.jpg	YN	Right	No	1.68756910000047	0	492881	235
963.701171875	1	decision	trialStart	1	4	4	foodImage.85	FOODEEG_Images\0841.jpg	NY	Right	Yes	0.928677699999753	0	493416	251
964.759765625	2	decision	foodImageDisplay	1	4	4	foodImage.85	FOODEEG_Images\0841.jpg	NY	Right	Yes	0.928677699999753	0	493958	252
966.822265625	0.928677699999753	decision	choicePhaseStart	1	4	4	foodImage.85	FOODEEG_Images\0841.jpg	NY	Right	Yes	0.928677699999753	0	495014	253
967.744140625	0	decision	response	1	4	4	foodImage.85	FOODEEG_Images\0841.jpg	NY	Right	Yes	0.928677699999753	0	495486	235
968.7890625	1	health	trialStart	1	5	5	foodImage.106	FOODEEG_Images\0914.jpg	NY	Right	Yes	1.67659769999955	0	496021	251
969.833984375	2	health	foodImageDisplay	1	5	5	foodImage.106	FOODEEG_Images\0914.jpg	NY	Right	Yes	1.67659769999955	0	496556	252
971.900390625	1.67659769999955	health	choicePhaseStart	1	5	5	foodImage.106	FOODEEG_Images\0914.jpg	NY	Right	Yes	1.67659769999955	0	497614	253
973.568359375	0	health	response	1	5	5	foodImage.106	FOODEEG_Images\0914.jpg	NY	Right	Yes	1.67659769999955	0	498468	235
974.62109375	1	health	trialStart	1	6	6	foodImage.28	FOODEEG_Images\0273.jpg	YN	Left	Yes	1.08725549999963	0	499007	251
975.6640625	2	health	foodImageDisplay	1	6	6	foodImage.28	FOODEEG_Images\0273.jpg	YN	Left	Yes	1.08725549999963	0	499541	252
977.728515625	1.08725549999963	health	choicePhaseStart	1	6	6	foodImage.28	FOODEEG_Images\0273.jpg	YN	Left	Yes	1.08725549999963	0	500598	253
978.80859375	0	health	response	1	6	6	foodImage.28	FOODEEG_Images\0273.jpg	YN	Left	Yes	1.08725549999963	0	501151	234
979.8515625	1	taste	trialStart	1	7	7	foodImage.63	FOODEEG_Images\0645.jpg	YN	Left	Yes	0.847877299999709	0	501685	251
980.89453125	2	taste	foodImageDisplay	1	7	7	foodImage.63	FOODEEG_Images\0645.jpg	YN	Left	Yes	0.847877299999709	0	502219	252
982.958984375	0.847877299999709	taste	choicePhaseStart	1	7	7	foodImage.63	FOODEEG_Images\0645.jpg	YN	Left	Yes	0.847877299999709	0	503276	253
983.80078125	0	taste	response	1	7	7	foodImage.63	FOODEEG_Images\0645.jpg	YN	Left	Yes	0.847877299999709	0	503707	234
984.84375	1	taste	trialStart	1	8	8	foodImage.6	FOODEEG_Images\0113.jpg	YN	Left	Yes	0.705340299999989	0	504241	251
985.88671875	2	taste	foodImageDisplay	1	8	8	foodImage.6	FOODEEG_Images\0113.jpg	YN	Left	Yes	0.705340299999989	0	504775	252
987.951171875	0.705340299999989	taste	choicePhaseStart	1	8	8	foodImage.6	FOODEEG_Images\0113.jpg	YN	Left	Yes	0.705340299999989	0	505832	253
988.6484375	0	taste	response	1	8	8	foodImage.6	FOODEEG_Images\0113.jpg	YN	Left	Yes	0.705340299999989	0	506189	234
989.69140625	1	health	trialStart	1	9	9	foodImage.86	FOODEEG_Images\0844.jpg	NY	Left	No	1.68043619999935	0	506723	251
990.767578125	2	health	foodImageDisplay	1	9	9	foodImage.86	FOODEEG_Images\0844.jpg	NY	Left	No	1.68043619999935	0	507274	252
992.83203125	1.68043619999935	health	choicePhaseStart	1	9	9	foodImage.86	FOODEEG_Images\0844.jpg	NY	Left	No	1.68043619999935	0	508331	253
994.50390625	0	health	response	1	9	9	foodImage.86	FOODEEG_Images\0844.jpg	NY	Left	No	1.68043619999935	0	509187	234
995.548828125	1	decision	trialStart	1	10	10	foodImage.21	FOODEEG_Images\0234.jpg	NY	Right	Yes	0.713984300000448	0	509722	251
996.615234375	2	decision	foodImageDisplay	1	10	10	foodImage.21	FOODEEG_Images\0234.jpg	NY	Right	Yes	0.713984300000448	0	510268	252
998.677734375	0.713984300000448	decision	choicePhaseStart	1	10	10	foodImage.21	FOODEEG_Images\0234.jpg	NY	Right	Yes	0.713984300000448	0	511324	253
999.384765625	0	decision	response	1	10	10	foodImage.21	FOODEEG_Images\0234.jpg	NY	Right	Yes	0.713984300000448	0	511686	235
1000.42578125	1	health	trialStart	1	11	11	foodImage.33	FOODEEG_Images\0329.jpg	NY	Right	Yes	0.654291299999386	0	512219	251
1001.4765625	2	health	foodImageDisplay	1	11	11	foodImage.33	FOODEEG_Images\0329.jpg	NY	Right	Yes	0.654291299999386	0	512757	252
1003.541015625	0.654291299999386	health	choicePhaseStart	1	11	11	foodImage.33	FOODEEG_Images\0329.jpg	NY	Right	Yes	0.654291299999386	0	513814	253
1004.19140625	0	health	response	1	11	11	foodImage.33	FOODEEG_Images\0329.jpg	NY	Right	Yes	0.654291299999386	0	514147	235
1005.234375	1	health	trialStart	1	12	12	foodImage.101	FOODEEG_Images\0909.jpg	NY	Left	No	0.887167300000328	0	514681	251
1006.2734375	2	health	foodImageDisplay	1	12	12	foodImage.101	FOODEEG_Images\0909.jpg	NY	Left	No	0.887167300000328	0	515213	252
1008.337890625	0.887167300000328	health	choicePhaseStart	1	12	12	foodImage.101	FOODEEG_Images\0909.jpg	NY	Left	No	0.887167300000328	0	516270	253
1009.21484375	0	health	response	1	12	12	foodImage.101	FOODEEG_Images\0909.jpg	NY	Left	No	0.887167300000328	0	516719	234
1010.2578125	1	taste	trialStart	1	13	13	foodImage.21	FOODEEG_Images\0234.jpg	YN	Left	Yes	0.683347799999865	0	517253	251
1011.31640625	2	taste	foodImageDisplay	1	13	13	foodImage.21	FOODEEG_Images\0234.jpg	YN	Left	Yes	0.683347799999865	0	517795	252
1013.37890625	0.683347799999865	taste	choicePhaseStart	1	13	13	foodImage.21	FOODEEG_Images\0234.jpg	YN	Left	Yes	0.683347799999865	0	518851	253
1014.0546875	0	taste	response	1	13	13	foodImage.21	FOODEEG_Images\0234.jpg	YN	Left	Yes	0.683347799999865	0	519197	234
1015.09765625	1	taste	trialStart	1	14	14	foodImage.35	FOODEEG_Images\0350.jpg	YN	Left	Yes	0.802877199999784	0	519731	251
1016.146484375	2	taste	foodImageDisplay	1	14	14	foodImage.35	FOODEEG_Images\0350.jpg	YN	Left	Yes	0.802877199999784	0	520268	252
1018.212890625	0.802877199999784	taste	choicePhaseStart	1	14	14	foodImage.35	FOODEEG_Images\0350.jpg	YN	Left	Yes	0.802877199999784	0	521326	253
1019.005859375	0	taste	response	1	14	14	foodImage.35	FOODEEG_Images\0350.jpg	YN	Left	Yes	0.802877199999784	0	521732	234
1020.048828125	1	taste	trialStart	1	15	15	foodImage.33	FOODEEG_Images\0329.jpg	YN	Left	Yes	1.16994759999943	0	522266	251
1021.107421875	2	taste	foodImageDisplay	1	15	15	foodImage.33	FOODEEG_Images\0329.jpg	YN	Left	Yes	1.16994759999943	0	522808	252
1023.173828125	1.16994759999943	taste	choicePhaseStart	1	15	15	foodImage.33	FOODEEG_Images\0329.jpg	YN	Left	Yes	1.16994759999943	0	523866	253
1024.333984375	0	taste	response	1	15	15	foodImage.33	FOODEEG_Images\0329.jpg	YN	Left	Yes	1.16994759999943	0	524460	234
1025.376953125	1	decision	trialStart	1	16	16	foodImage.44	FOODEEG_Images\0459.jpg	NY	Right	Yes	0.96709059999921	0	524994	251
1026.421875	2	decision	foodImageDisplay	1	16	16	foodImage.44	FOODEEG_Images\0459.jpg	NY	Right	Yes	0.96709059999921	0	525529	252
1028.486328125	0.96709059999921	decision	choicePhaseStart	1	16	16	foodImage.44	FOODEEG_Images\0459.jpg	NY	Right	Yes	0.96709059999921	0	526586	253
1029.4453125	0	decision	response	1	16	16	foodImage.44	FOODEEG_Images\0459.jpg	NY	Right	Yes	0.96709059999921	0	527077	235
1030.490234375	1	health	trialStart	1	17	17	foodImage.34	FOODEEG_Images\0339.jpg	NY	Left	No	0.793673999999555	0	527612	251
1031.548828125	2	health	foodImageDisplay	1	17	17	foodImage.34	FOODEEG_Images\0339.jpg	NY	Left	No	0.793673999999555	0	528154	252
1033.61328125	0.793673999999555	health	choicePhaseStart	1	17	17	foodImage.34	FOODEEG_Images\0339.jpg	NY	Left	No	0.793673999999555	0	529211	253
1034.3984375	0	health	response	1	17	17	foodImage.34	FOODEEG_Images\0339.jpg	NY	Left	No	0.793673999999555	0	529613	234
1035.443359375	1	health	trialStart	1	18	18	foodImage.119	FOODEEG_Images\0927.jpg	NY	Left	No	1.16644590000033	0	530148	251
1036.48046875	2	health	foodImageDisplay	1	18	18	foodImage.119	FOODEEG_Images\0927.jpg	NY	Left	No	1.16644590000033	0	530679	252
1038.54296875	1.16644590000033	health	choicePhaseStart	1	18	18	foodImage.119	FOODEEG_Images\0927.jpg	NY	Left	No	1.16644590000033	0	531735	253
1039.701171875	0	health	response	1	18	18	foodImage.119	FOODEEG_Images\0927.jpg	NY	Left	No	1.16644590000033	0	532328	234
1040.744140625	1	taste	trialStart	1	19	19	foodImage.108	FOODEEG_Images\0916.jpg	YN	Right	No	0.767022500000166	0	532862	251
1041.791015625	2	taste	foodImageDisplay	1	19	19	foodImage.108	FOODEEG_Images\0916.jpg	YN	Right	No	0.767022500000166	0	533398	252
1043.85546875	0.767022500000166	taste	choicePhaseStart	1	19	19	foodImage.108	FOODEEG_Images\0916.jpg	YN	Right	No	0.767022500000166	0	534455	253
1044.61328125	0	taste	response	1	19	19	foodImage.108	FOODEEG_Images\0916.jpg	YN	Right	No	0.767022500000166	0	534843	235
1045.65625	1	health	trialStart	1	20	20	foodImage.14	FOODEEG_Images\0188.jpg	NY	Left	No	1.23722369999996	0	535377	251
1046.712890625	2	health	foodImageDisplay	1	20	20	foodImage.14	FOODEEG_Images\0188.jpg	NY	Left	No	1.23722369999996	0	535918	252
1048.77734375	1.23722369999996	health	choicePhaseStart	1	20	20	foodImage.14	FOODEEG_Images\0188.jpg	NY	Left	No	1.23722369999996	0	536975	253
1050.005859375	0	health	response	1	20	20	foodImage.14	FOODEEG_Images\0188.jpg	NY	Left	No	1.23722369999996	0	537604	234
1051.048828125	1	decision	trialStart	1	21	21	foodImage.107	FOODEEG_Images\0915.jpg	YN	Right	No	1.01780080000026	0	538138	251
1052.08984375	2	decision	foodImageDisplay	1	21	21	foodImage.107	FOODEEG_Images\0915.jpg	YN	Right	No	1.01780080000026	0	538671	252
1054.15625	1.01780080000026	decision	choicePhaseStart	1	21	21	foodImage.107	FOODEEG_Images\0915.jpg	YN	Right	No	1.01780080000026	0	539729	253
1055.1640625	0	decision	response	1	21	21	foodImage.107	FOODEEG_Images\0915.jpg	YN	Right	No	1.01780080000026	0	540245	235
1056.208984375	1	decision	trialStart	1	22	22	foodImage.60	FOODEEG_Images\0614.jpg	NY	Right	Yes	1.0112582999991	0	540780	251
1057.267578125	2	decision	foodImageDisplay	1	22	22	foodImage.60	FOODEEG_Images\0614.jpg	NY	Right	Yes	1.0112582999991	0	541322	252
1059.33203125	1.0112582999991	decision	choicePhaseStart	1	22	22	foodImage.60	FOODEEG_Images\0614.jpg	NY	Right	Yes	1.0112582999991	0	542379	253
1060.33203125	0	decision	response	1	22	22	foodImage.60	FOODEEG_Images\0614.jpg	NY	Right	Yes	1.0112582999991	0	542891	235
1061.375	1	decision	trialStart	1	23	23	foodImage.14	FOODEEG_Images\0188.jpg	YN	Left	Yes	0.659967900000993	0	543425	251
1062.435546875	2	decision	foodImageDisplay	1	23	23	foodImage.14	FOODEEG_Images\0188.jpg	YN	Left	Yes	0.659967900000993	0	543968	252
1064.498046875	0.659967900000993	decision	choicePhaseStart	1	23	23	foodImage.14	FOODEEG_Images\0188.jpg	YN	Left	Yes	0.659967900000993	0	545024	253
1065.1484375	0	decision	response	1	23	23	foodImage.14	FOODEEG_Images\0188.jpg	YN	Left	Yes	0.659967900000993	0	545357	234
1066.19140625	1	taste	trialStart	1	24	24	foodImage.99	FOODEEG_Images\0907.jpg	YN	Right	No	1.04663410000103	0	545891	251
1067.23046875	2	taste	foodImageDisplay	1	24	24	foodImage.99	FOODEEG_Images\0907.jpg	YN	Right	No	1.04663410000103	0	546423	252
1069.294921875	1.04663410000103	taste	choicePhaseStart	1	24	24	foodImage.99	FOODEEG_Images\0907.jpg	YN	Right	No	1.04663410000103	0	547480	253
1070.33203125	0	taste	response	1	24	24	foodImage.99	FOODEEG_Images\0907.jpg	YN	Right	No	1.04663410000103	0	548011	235
1071.375	1	taste	trialStart	1	25	25	foodImage.90	FOODEEG_Images\0890.jpg	NY	Left	No	1.21392989999913	0	548545	251
1072.455078125	2	taste	foodImageDisplay	1	25	25	foodImage.90	FOODEEG_Images\0890.jpg	NY	Left	No	1.21392989999913	0	549098	252
1074.51953125	1.21392989999913	taste	choicePhaseStart	1	25	25	foodImage.90	FOODEEG_Images\0890.jpg	NY	Left	No	1.21392989999913	0	550155	253
1075.724609375	0	taste	response	1	25	25	foodImage.90	FOODEEG_Images\0890.jpg	NY	Left	No	1.21392989999913	0	550772	234
1076.767578125	1	decision	trialStart	1	26	26	foodImage.6	FOODEEG_Images\0113.jpg	NY	Right	Yes	1.02871469999991	0	551306	251
1077.80859375	2	decision	foodImageDisplay	1	26	26	foodImage.6	FOODEEG_Images\0113.jpg	NY	Right	Yes	1.02871469999991	0	551839	252
1079.873046875	1.02871469999991	decision	choicePhaseStart	1	26	26	foodImage.6	FOODEEG_Images\0113.jpg	NY	Right	Yes	1.02871469999991	0	552896	253
1080.892578125	0	decision	response	1	26	26	foodImage.6	FOODEEG_Images\0113.jpg	NY	Right	Yes	1.02871469999991	0	553418	235
1081.935546875	1	decision	trialStart	1	27	27	foodImage.19	FOODEEG_Images\0225.jpg	NY	Left	No	0.935506400001032	0	553952	251
1082.986328125	2	decision	foodImageDisplay	1	27	27	foodImage.19	FOODEEG_Images\0225.jpg	NY	Left	No	0.935506400001032	0	554490	252
1085.05078125	0.935506400001032	decision	choicePhaseStart	1	27	27	foodImage.19	FOODEEG_Images\0225.jpg	NY	Left	No	0.935506400001032	0	555547	253
1085.978515625	0	decision	response	1	27	27	foodImage.19	FOODEEG_Images\0225.jpg	NY	Left	No	0.935506400001032	0	556022	234
1087.0234375	1	decision	trialStart	1	28	28	foodImage.101	FOODEEG_Images\0909.jpg	NY	Left	No	0.831506200000149	0	556557	251
1088.0625	2	decision	foodImageDisplay	1	28	28	foodImage.101	FOODEEG_Images\0909.jpg	NY	Left	No	0.831506200000149	0	557089	252
1090.125	0.831506200000149	decision	choicePhaseStart	1	28	28	foodImage.101	FOODEEG_Images\0909.jpg	NY	Left	No	0.831506200000149	0	558145	253
1090.947265625	0	decision	response	1	28	28	foodImage.101	FOODEEG_Images\0909.jpg	NY	Left	No	0.831506200000149	0	558566	234
1091.9921875	1	health	trialStart	1	29	29	foodImage.4	FOODEEG_Images\0065.jpg	NY	Left	No	0.958345900000495	0	559101	251
1093.0703125	2	health	foodImageDisplay	1	29	29	foodImage.4	FOODEEG_Images\0065.jpg	NY	Left	No	0.958345900000495	0	559653	252
1095.134765625	0.958345900000495	health	choicePhaseStart	1	29	29	foodImage.4	FOODEEG_Images\0065.jpg	NY	Left	No	0.958345900000495	0	560710	253
1096.083984375	0	health	response	1	29	29	foodImage.4	FOODEEG_Images\0065.jpg	NY	Left	No	0.958345900000495	0	561196	234
1097.126953125	1	health	trialStart	1	30	30	foodImage.15	FOODEEG_Images\0189.jpg	YN	Right	No	0.874630000000252	0	561730	251
1098.19140625	2	health	foodImageDisplay	1	30	30	foodImage.15	FOODEEG_Images\0189.jpg	YN	Right	No	0.874630000000252	0	562275	252
1100.255859375	0.874630000000252	health	choicePhaseStart	1	30	30	foodImage.15	FOODEEG_Images\0189.jpg	YN	Right	No	0.874630000000252	0	563332	253
1101.123046875	0	health	response	1	30	30	foodImage.15	FOODEEG_Images\0189.jpg	YN	Right	No	0.874630000000252	0	563776	235
1102.166015625	1	health	trialStart	1	31	31	foodImage.59	FOODEEG_Images\0607.jpg	YN	Right	No	1.63077589999921	0	564310	251
1103.212890625	2	health	foodImageDisplay	1	31	31	foodImage.59	FOODEEG_Images\0607.jpg	YN	Right	No	1.63077589999921	0	564846	252
1105.27734375	1.63077589999921	health	choicePhaseStart	1	31	31	foodImage.59	FOODEEG_Images\0607.jpg	YN	Right	No	1.63077589999921	0	565903	253
1106.8984375	0	health	response	1	31	31	foodImage.59	FOODEEG_Images\0607.jpg	YN	Right	No	1.63077589999921	0	566733	235
1107.94140625	1	decision	trialStart	1	32	32	foodImage.112	FOODEEG_Images\0920.jpg	YN	Right	No	0.934420100000352	0	567267	251
1108.990234375	2	decision	foodImageDisplay	1	32	32	foodImage.112	FOODEEG_Images\0920.jpg	YN	Right	No	0.934420100000352	0	567804	252
1111.0546875	0.934420100000352	decision	choicePhaseStart	1	32	32	foodImage.112	FOODEEG_Images\0920.jpg	YN	Right	No	0.934420100000352	0	568861	253
1111.978515625	0	decision	response	1	32	32	foodImage.112	FOODEEG_Images\0920.jpg	YN	Right	No	0.934420100000352	0	569334	235
1113.021484375	1	health	trialStart	1	33	33	foodImage.100	FOODEEG_Images\0908.jpg	YN	Left	Yes	0.798811500000738	0	569868	251
1114.060546875	2	health	foodImageDisplay	1	33	33	foodImage.100	FOODEEG_Images\0908.jpg	YN	Left	Yes	0.798811500000738	0	570400	252
1116.125	0.798811500000738	health	choicePhaseStart	1	33	33	foodImage.100	FOODEEG_Images\0908.jpg	YN	Left	Yes	0.798811500000738	0	571457	253
1116.9140625	0	health	response	1	33	33	foodImage.100	FOODEEG_Images\0908.jpg	YN	Left	Yes	0.798811500000738	0	571861	234
1117.95703125	1	taste	trialStart	1	34	34	foodImage.16	FOODEEG_Images\0196.jpg	YN	Left	Yes	1.51028160000169	0	572395	251
1119.01171875	2	taste	foodImageDisplay	1	34	34	foodImage.16	FOODEEG_Images\0196.jpg	YN	Left	Yes	1.51028160000169	0	572935	252
1121.078125	1.51028160000169	taste	choicePhaseStart	1	34	34	foodImage.16	FOODEEG_Images\0196.jpg	YN	Left	Yes	1.51028160000169	0	573993	253
1122.578125	0	taste	response	1	34	34	foodImage.16	FOODEEG_Images\0196.jpg	YN	Left	Yes	1.51028160000169	0	574761	234
1123.62109375	1	decision	trialStart	1	35	35	foodImage.4	FOODEEG_Images\0065.jpg	YN	Left	Yes	0.641574100000071	0	575295	251
1124.681640625	2	decision	foodImageDisplay	1	35	35	foodImage.4	FOODEEG_Images\0065.jpg	YN	Left	Yes	0.641574100000071	0	575838	252
1126.74609375	0.641574100000071	decision	choicePhaseStart	1	35	35	foodImage.4	FOODEEG_Images\0065.jpg	YN	Left	Yes	0.641574100000071	0	576895	253
1127.376953125	0	decision	response	1	35	35	foodImage.4	FOODEEG_Images\0065.jpg	YN	Left	Yes	0.641574100000071	0	577218	234
1128.421875	1	taste	trialStart	1	36	36	foodImage.10	FOODEEG_Images\0145.jpg	NY	Right	Yes	1.02257980000104	0	577753	251
1129.498046875	2	taste	foodImageDisplay	1	36	36	foodImage.10	FOODEEG_Images\0145.jpg	NY	Right	Yes	1.02257980000104	0	578304	252
1131.564453125	1.02257980000104	taste	choicePhaseStart	1	36	36	foodImage.10	FOODEEG_Images\0145.jpg	NY	Right	Yes	1.02257980000104	0	579362	253
1132.578125	0	taste	response	1	36	36	foodImage.10	FOODEEG_Images\0145.jpg	NY	Right	Yes	1.02257980000104	0	579881	235
1133.62109375	1	health	trialStart	1	37	37	foodImage.78	FOODEEG_Images\0787.jpg	YN	Left	Yes	1.09967440000037	0	580415	251
1134.6640625	2	health	foodImageDisplay	1	37	37	foodImage.78	FOODEEG_Images\0787.jpg	YN	Left	Yes	1.09967440000037	0	580949	252
1136.7265625	1.09967440000037	health	choicePhaseStart	1	37	37	foodImage.78	FOODEEG_Images\0787.jpg	YN	Left	Yes	1.09967440000037	0	582005	253
1137.818359375	0	health	response	1	37	37	foodImage.78	FOODEEG_Images\0787.jpg	YN	Left	Yes	1.09967440000037	0	582564	234
1138.861328125	1	taste	trialStart	1	38	38	foodImage.117	FOODEEG_Images\0925.jpg	NY	Right	Yes	1.65365440000096	0	583098	251
1139.90625	2	taste	foodImageDisplay	1	38	38	foodImage.117	FOODEEG_Images\0925.jpg	NY	Right	Yes	1.65365440000096	0	583633	252
1141.970703125	1.65365440000096	taste	choicePhaseStart	1	38	38	foodImage.117	FOODEEG_Images\0925.jpg	NY	Right	Yes	1.65365440000096	0	584690	253
1143.6171875	0	taste	response	1	38	38	foodImage.117	FOODEEG_Images\0925.jpg	NY	Right	Yes	1.65365440000096	0	585533	235
1144.66015625	1	taste	trialStart	1	39	39	foodImage.17	FOODEEG_Images\0199.jpg	YN	Left	Yes	0.8332874000007	0	586067	251
1145.703125	2	taste	foodImageDisplay	1	39	39	foodImage.17	FOODEEG_Images\0199.jpg	YN	Left	Yes	0.8332874000007	0	586601	252
1147.765625	0.8332874000007	taste	choicePhaseStart	1	39	39	foodImage.17	FOODEEG_Images\0199.jpg	YN	Left	Yes	0.8332874000007	0	587657	253
1148.59375	0	taste	response	1	39	39	foodImage.17	FOODEEG_Images\0199.jpg	YN	Left	Yes	0.8332874000007	0	588081	234
1149.634765625	1	decision	trialStart	1	40	40	foodImage.11	FOODEEG_Images\0180.jpg	NY	Left	No	0.900970400000006	0	588614	251
1150.677734375	2	decision	foodImageDisplay	1	40	40	foodImage.11	FOODEEG_Images\0180.jpg	NY	Left	No	0.900970400000006	0	589148	252
1152.7421875	0.900970400000006	decision	choicePhaseStart	1	40	40	foodImage.11	FOODEEG_Images\0180.jpg	NY	Left	No	0.900970400000006	0	590205	253
1153.6328125	0	decision	response	1	40	40	foodImage.11	FOODEEG_Images\0180.jpg	NY	Left	No	0.900970400000006	0	590661	234
1154.67578125	1	taste	trialStart	1	41	41	foodImage.116	FOODEEG_Images\0924.jpg	NY	Left	No	1.07338720000007	0	591195	251
1155.71484375	2	taste	foodImageDisplay	1	41	41	foodImage.116	FOODEEG_Images\0924.jpg	NY	Left	No	1.07338720000007	0	591727	252
1157.77734375	1.07338720000007	taste	choicePhaseStart	1	41	41	foodImage.116	FOODEEG_Images\0924.jpg	NY	Left	No	1.07338720000007	0	592783	253
1158.83984375	0	taste	response	1	41	41	foodImage.116	FOODEEG_Images\0924.jpg	NY	Left	No	1.07338720000007	0	593327	234
1159.8828125	1	decision	trialStart	1	42	42	foodImage.32	FOODEEG_Images\0319.jpg	YN	Left	Yes	0.814775500000906	0	593861	251
1160.92578125	2	decision	foodImageDisplay	1	42	42	foodImage.32	FOODEEG_Images\0319.jpg	YN	Left	Yes	0.814775500000906	0	594395	252
1162.994140625	0.814775500000906	decision	choicePhaseStart	1	42	42	foodImage.32	FOODEEG_Images\0319.jpg	YN	Left	Yes	0.814775500000906	0	595454	253
1163.80078125	0	decision	response	1	42	42	foodImage.32	FOODEEG_Images\0319.jpg	YN	Left	Yes	0.814775500000906	0	595867	234
1164.84375	1	taste	trialStart	1	43	43	foodImage.73	FOODEEG_Images\0717.jpg	NY	Right	Yes	1.26567819999946	0	596401	251
1165.90234375	2	taste	foodImageDisplay	1	43	43	foodImage.73	FOODEEG_Images\0717.jpg	NY	Right	Yes	1.26567819999946	0	596943	252
1167.966796875	1.26567819999946	taste	choicePhaseStart	1	43	43	foodImage.73	FOODEEG_Images\0717.jpg	NY	Right	Yes	1.26567819999946	0	598000	253
1169.224609375	0	taste	response	1	43	43	foodImage.73	FOODEEG_Images\0717.jpg	NY	Right	Yes	1.26567819999946	0	598644	235
1170.275390625	1	taste	trialStart	1	44	44	foodImage.27	FOODEEG_Images\0263.jpg	NY	Right	Yes	1.09561700000086	0	599182	251
1171.31640625	2	taste	foodImageDisplay	1	44	44	foodImage.27	FOODEEG_Images\0263.jpg	NY	Right	Yes	1.09561700000086	0	599715	252
1173.38671875	1.09561700000086	taste	choicePhaseStart	1	44	44	foodImage.27	FOODEEG_Images\0263.jpg	NY	Right	Yes	1.09561700000086	0	600775	253
1174.47265625	0	taste	response	1	44	44	foodImage.27	FOODEEG_Images\0263.jpg	NY	Right	Yes	1.09561700000086	0	601331	235
1175.515625	1	health	trialStart	1	45	45	foodImage.97	FOODEEG_Images\0905.jpg	NY	Left	No	1.13265850000062	0	601865	251
1176.560546875	2	health	foodImageDisplay	1	45	45	foodImage.97	FOODEEG_Images\0905.jpg	NY	Left	No	1.13265850000062	0	602400	252
1178.62890625	1.13265850000062	health	choicePhaseStart	1	45	45	foodImage.97	FOODEEG_Images\0905.jpg	NY	Left	No	1.13265850000062	0	603459	253
1179.751953125	0	health	response	1	45	45	foodImage.97	FOODEEG_Images\0905.jpg	NY	Left	No	1.13265850000062	0	604034	234
1180.794921875	1	decision	trialStart	1	46	46	foodImage.9	FOODEEG_Images\0138.jpg	YN	Left	Yes	1.05495580000024	0	604568	251
1181.8515625	2	decision	foodImageDisplay	1	46	46	foodImage.9	FOODEEG_Images\0138.jpg	YN	Left	Yes	1.05495580000024	0	605109	252
1183.9140625	1.05495580000024	decision	choicePhaseStart	1	46	46	foodImage.9	FOODEEG_Images\0138.jpg	YN	Left	Yes	1.05495580000024	0	606165	253
1184.958984375	0	decision	response	1	46	46	foodImage.9	FOODEEG_Images\0138.jpg	YN	Left	Yes	1.05495580000024	0	606700	234
1186.013671875	1	taste	trialStart	1	47	47	foodImage.44	FOODEEG_Images\0459.jpg	NY	Right	Yes	0.790785799999867	0	607240	251
1187.07421875	2	taste	foodImageDisplay	1	47	47	foodImage.44	FOODEEG_Images\0459.jpg	NY	Right	Yes	0.790785799999867	0	607783	252
1189.138671875	0.790785799999867	taste	choicePhaseStart	1	47	47	foodImage.44	FOODEEG_Images\0459.jpg	NY	Right	Yes	0.790785799999867	0	608840	253
1189.919921875	0	taste	response	1	47	47	foodImage.44	FOODEEG_Images\0459.jpg	NY	Right	Yes	0.790785799999867	0	609240	235
1190.9609375	1	decision	trialStart	1	48	48	foodImage.52	FOODEEG_Images\0539.jpg	NY	Right	Yes	0.904725099999268	0	609773	251
1192.0390625	2	decision	foodImageDisplay	1	48	48	foodImage.52	FOODEEG_Images\0539.jpg	NY	Right	Yes	0.904725099999268	0	610325	252
1194.103515625	0.904725099999268	decision	choicePhaseStart	1	48	48	foodImage.52	FOODEEG_Images\0539.jpg	NY	Right	Yes	0.904725099999268	0	611382	253
1195	0	decision	response	1	48	48	foodImage.52	FOODEEG_Images\0539.jpg	NY	Right	Yes	0.904725099999268	0	611841	235
1196.04296875	1	health	trialStart	1	49	49	foodImage.50	FOODEEG_Images\0529.jpg	YN	Left	Yes	0.919389299999239	0	612375	251
1197.09765625	2	health	foodImageDisplay	1	49	49	foodImage.50	FOODEEG_Images\0529.jpg	YN	Left	Yes	0.919389299999239	0	612915	252
1199.162109375	0.919389299999239	health	choicePhaseStart	1	49	49	foodImage.50	FOODEEG_Images\0529.jpg	YN	Left	Yes	0.919389299999239	0	613972	253
1200.0703125	0	health	response	1	49	49	foodImage.50	FOODEEG_Images\0529.jpg	YN	Left	Yes	0.919389299999239	0	614437	234
1201.11328125	1	taste	trialStart	1	50	50	foodImage.76	FOODEEG_Images\0766.jpg	YN	Left	Yes	1.27364089999901	0	614971	251
1202.15625	2	taste	foodImageDisplay	1	50	50	foodImage.76	FOODEEG_Images\0766.jpg	YN	Left	Yes	1.27364089999901	0	615505	252
1204.220703125	1.27364089999901	taste	choicePhaseStart	1	50	50	foodImage.76	FOODEEG_Images\0766.jpg	YN	Left	Yes	1.27364089999901	0	616562	253
1205.486328125	0	taste	response	1	50	50	foodImage.76	FOODEEG_Images\0766.jpg	YN	Left	Yes	1.27364089999901	0	617210	234
1206.529296875	1	health	trialStart	1	51	51	foodImage.17	FOODEEG_Images\0199.jpg	NY	Right	Yes	0.84350059999997	0	617744	251
1207.572265625	2	health	foodImageDisplay	1	51	51	foodImage.17	FOODEEG_Images\0199.jpg	NY	Right	Yes	0.84350059999997	0	618278	252
1209.63671875	0.84350059999997	health	choicePhaseStart	1	51	51	foodImage.17	FOODEEG_Images\0199.jpg	NY	Right	Yes	0.84350059999997	0	619335	253
1210.470703125	0	health	response	1	51	51	foodImage.17	FOODEEG_Images\0199.jpg	NY	Right	Yes	0.84350059999997	0	619762	235
1211.515625	1	taste	trialStart	1	52	52	foodImage.120	FOODEEG_Images\0928.jpg	NY	Left	No	0.904007900000579	0	620297	251
1212.552734375	2	taste	foodImageDisplay	1	52	52	foodImage.120	FOODEEG_Images\0928.jpg	NY	Left	No	0.904007900000579	0	620828	252
1214.615234375	0.904007900000579	taste	choicePhaseStart	1	52	52	foodImage.120	FOODEEG_Images\0928.jpg	NY	Left	No	0.904007900000579	0	621884	253
1215.509765625	0	taste	response	1	52	52	foodImage.120	FOODEEG_Images\0928.jpg	NY	Left	No	0.904007900000579	0	622342	234
1216.552734375	1	decision	trialStart	1	53	53	foodImage.81	FOODEEG_Images\0797.jpg	YN	Right	No	1.22648809999919	0	622876	251
1217.61328125	2	decision	foodImageDisplay	1	53	53	foodImage.81	FOODEEG_Images\0797.jpg	YN	Right	No	1.22648809999919	0	623419	252
1219.677734375	1.22648809999919	decision	choicePhaseStart	1	53	53	foodImage.81	FOODEEG_Images\0797.jpg	YN	Right	No	1.22648809999919	0	624476	253
1220.89453125	0	decision	response	1	53	53	foodImage.81	FOODEEG_Images\0797.jpg	YN	Right	No	1.22648809999919	0	625099	235
1221.9375	1	taste	trialStart	1	54	54	foodImage.23	FOODEEG_Images\0244.jpg	YN	Right	No	1.18654919999972	0	625633	251
1222.978515625	2	taste	foodImageDisplay	1	54	54	foodImage.23	FOODEEG_Images\0244.jpg	YN	Right	No	1.18654919999972	0	626166	252
1225.04296875	1.18654919999972	taste	choicePhaseStart	1	54	54	foodImage.23	FOODEEG_Images\0244.jpg	YN	Right	No	1.18654919999972	0	627223	253
1226.22265625	0	taste	response	1	54	54	foodImage.23	FOODEEG_Images\0244.jpg	YN	Right	No	1.18654919999972	0	627827	235
1227.275390625	1	decision	trialStart	1	55	55	foodImage.73	FOODEEG_Images\0717.jpg	NY	Right	Yes	0.751377599999614	0	628366	251
1228.330078125	2	decision	foodImageDisplay	1	55	55	foodImage.73	FOODEEG_Images\0717.jpg	NY	Right	Yes	0.751377599999614	0	628906	252
1230.3984375	0.751377599999614	decision	choicePhaseStart	1	55	55	foodImage.73	FOODEEG_Images\0717.jpg	NY	Right	Yes	0.751377599999614	0	629965	253
1231.142578125	0	decision	response	1	55	55	foodImage.73	FOODEEG_Images\0717.jpg	NY	Right	Yes	0.751377599999614	0	630346	235
1232.185546875	1	decision	trialStart	1	56	56	foodImage.48	FOODEEG_Images\0494.jpg	YN	Right	No	0.718639499998972	0	630880	251
1233.234375	2	decision	foodImageDisplay	1	56	56	foodImage.48	FOODEEG_Images\0494.jpg	YN	Right	No	0.718639499998972	0	631417	252
1235.296875	0.718639499998972	decision	choicePhaseStart	1	56	56	foodImage.48	FOODEEG_Images\0494.jpg	YN	Right	No	0.718639499998972	0	632473	253
1236.005859375	0	decision	response	1	56	56	foodImage.48	FOODEEG_Images\0494.jpg	YN	Right	No	0.718639499998972	0	632836	235
1237.048828125	1	decision	trialStart	1	57	57	foodImage.5	FOODEEG_Images\0107.jpg	YN	Left	Yes	0.710778100001335	0	633370	251
1238.103515625	2	decision	foodImageDisplay	1	57	57	foodImage.5	FOODEEG_Images\0107.jpg	YN	Left	Yes	0.710778100001335	0	633910	252
1240.16796875	0.710778100001335	decision	choicePhaseStart	1	57	57	foodImage.5	FOODEEG_Images\0107.jpg	YN	Left	Yes	0.710778100001335	0	634967	253
1240.869140625	0	decision	response	1	57	57	foodImage.5	FOODEEG_Images\0107.jpg	YN	Left	Yes	0.710778100001335	0	635326	234
1241.912109375	1	health	trialStart	1	58	58	foodImage.91	FOODEEG_Images\0896.jpg	NY	Left	No	1.49080839999988	0	635860	251
1242.97265625	2	health	foodImageDisplay	1	58	58	foodImage.91	FOODEEG_Images\0896.jpg	NY	Left	No	1.49080839999988	0	636403	252
1245.03515625	1.49080839999988	health	choicePhaseStart	1	58	58	foodImage.91	FOODEEG_Images\0896.jpg	NY	Left	No	1.49080839999988	0	637459	253
1246.517578125	0	health	response	1	58	58	foodImage.91	FOODEEG_Images\0896.jpg	NY	Left	No	1.49080839999988	0	638218	234
1247.55859375	1	health	trialStart	1	59	59	foodImage.113	FOODEEG_Images\0921.jpg	YN	Left	Yes	1.34842539999954	0	638751	251
1248.607421875	2	health	foodImageDisplay	1	59	59	foodImage.113	FOODEEG_Images\0921.jpg	YN	Left	Yes	1.34842539999954	0	639288	252
1250.673828125	1.34842539999954	health	choicePhaseStart	1	59	59	foodImage.113	FOODEEG_Images\0921.jpg	YN	Left	Yes	1.34842539999954	0	640346	253
1252.013671875	0	health	response	1	59	59	foodImage.113	FOODEEG_Images\0921.jpg	YN	Left	Yes	1.34842539999954	0	641032	234
1253.056640625	1	health	trialStart	1	60	60	foodImage.16	FOODEEG_Images\0196.jpg	YN	Left	Yes	0.830046699999002	0	641566	251
1254.111328125	2	health	foodImageDisplay	1	60	60	foodImage.16	FOODEEG_Images\0196.jpg	YN	Left	Yes	0.830046699999002	0	642106	252
1256.17578125	0.830046699999002	health	choicePhaseStart	1	60	60	foodImage.16	FOODEEG_Images\0196.jpg	YN	Left	Yes	0.830046699999002	0	643163	253
1256.99609375	0	health	response	1	60	60	foodImage.16	FOODEEG_Images\0196.jpg	YN	Left	Yes	0.830046699999002	0	643583	234
1259.0390625	9.677734375	n/a	blockEnd	n/a	n/a	n/a	n/a	n/a	n/a	n/a	n/a	n/a	n/a	644629	254
1268.716796875	2	n/a	blockStart	2	n/a	n/a	n/a	n/a	n/a	n/a	n/a	n/a	n/a	649584	250
1270.75	1	health	trialStart	2	61	1	foodImage.45	FOODEEG_Images\0478.jpg	NY	Right	Yes	0.895118100001127	0	650625	251
1271.796875	2	health	foodImageDisplay	2	61	1	foodImage.45	FOODEEG_Images\0478.jpg	NY	Right	Yes	0.895118100001127	0	651161	252
1273.861328125	0.895118100001127	health	choicePhaseStart	2	61	1	foodImage.45	FOODEEG_Images\0478.jpg	NY	Right	Yes	0.895118100001127	0	652218	253
1274.748046875	0	health	response	2	61	1	foodImage.45	FOODEEG_Images\0478.jpg	NY	Right	Yes	0.895118100001127	0	652672	235
1275.791015625	1	taste	trialStart	2	62	2	foodImage.8	FOODEEG_Images\0136.jpg	YN	Left	Yes	1.22201549999954	0	653206	251
1276.84765625	2	taste	foodImageDisplay	2	62	2	foodImage.8	FOODEEG_Images\0136.jpg	YN	Left	Yes	1.22201549999954	0	653747	252
1278.912109375	1.22201549999954	taste	choicePhaseStart	2	62	2	foodImage.8	FOODEEG_Images\0136.jpg	YN	Left	Yes	1.22201549999954	0	654804	253
1280.123046875	0	taste	response	2	62	2	foodImage.8	FOODEEG_Images\0136.jpg	YN	Left	Yes	1.22201549999954	0	655424	234
1281.16796875	1	health	trialStart	2	63	3	foodImage.96	FOODEEG_Images\0904.jpg	NY	Left	No	1.30379320000065	0	655959	251
1282.20703125	2	health	foodImageDisplay	2	63	3	foodImage.96	FOODEEG_Images\0904.jpg	NY	Left	No	1.30379320000065	0	656491	252
1284.26953125	1.30379320000065	health	choicePhaseStart	2	63	3	foodImage.96	FOODEEG_Images\0904.jpg	NY	Left	No	1.30379320000065	0	657547	253
1285.564453125	0	health	response	2	63	3	foodImage.96	FOODEEG_Images\0904.jpg	NY	Left	No	1.30379320000065	0	658210	234
1286.607421875	1	health	trialStart	2	64	4	foodImage.55	FOODEEG_Images\0567.jpg	YN	Left	Yes	1.59693309999966	0	658744	251
1287.662109375	2	health	foodImageDisplay	2	64	4	foodImage.55	FOODEEG_Images\0567.jpg	YN	Left	Yes	1.59693309999966	0	659284	252
1289.7265625	1.59693309999966	health	choicePhaseStart	2	64	4	foodImage.55	FOODEEG_Images\0567.jpg	YN	Left	Yes	1.59693309999966	0	660341	253
1291.31640625	0	health	response	2	64	4	foodImage.55	FOODEEG_Images\0567.jpg	YN	Left	Yes	1.59693309999966	0	661155	234
1292.35546875	1	decision	trialStart	2	65	5	foodImage.26	FOODEEG_Images\0262.jpg	YN	Right	No	1.08345089999966	0	661687	251
1293.39453125	2	decision	foodImageDisplay	2	65	5	foodImage.26	FOODEEG_Images\0262.jpg	YN	Right	No	1.08345089999966	0	662219	252
1295.45703125	1.08345089999966	decision	choicePhaseStart	2	65	5	foodImage.26	FOODEEG_Images\0262.jpg	YN	Right	No	1.08345089999966	0	663275	253
1296.53125	0	decision	response	2	65	5	foodImage.26	FOODEEG_Images\0262.jpg	YN	Right	No	1.08345089999966	0	663825	235
1297.57421875	1	taste	trialStart	2	66	6	foodImage.83	FOODEEG_Images\0827.jpg	YN	Left	Yes	1.51852709999912	0	664359	251
1298.630859375	2	taste	foodImageDisplay	2	66	6	foodImage.83	FOODEEG_Images\0827.jpg	YN	Left	Yes	1.51852709999912	0	664900	252
1300.693359375	1.51852709999912	taste	choicePhaseStart	2	66	6	foodImage.83	FOODEEG_Images\0827.jpg	YN	Left	Yes	1.51852709999912	0	665956	253
1302.203125	0	taste	response	2	66	6	foodImage.83	FOODEEG_Images\0827.jpg	YN	Left	Yes	1.51852709999912	0	666729	234
1303.24609375	1	taste	trialStart	2	67	7	foodImage.64	FOODEEG_Images\0647.jpg	NY	Right	Yes	1.20904229999906	0	667263	251
1304.32421875	2	taste	foodImageDisplay	2	67	7	foodImage.64	FOODEEG_Images\0647.jpg	NY	Right	Yes	1.20904229999906	0	667815	252
1306.38671875	1.20904229999906	taste	choicePhaseStart	2	67	7	foodImage.64	FOODEEG_Images\0647.jpg	NY	Right	Yes	1.20904229999906	0	668871	253
1307.587890625	0	taste	response	2	67	7	foodImage.64	FOODEEG_Images\0647.jpg	NY	Right	Yes	1.20904229999906	0	669486	235
1308.630859375	1	decision	trialStart	2	68	8	foodImage.24	FOODEEG_Images\0250.jpg	YN	Left	Yes	0.818694300000061	0	670020	251
1309.673828125	2	decision	foodImageDisplay	2	68	8	foodImage.24	FOODEEG_Images\0250.jpg	YN	Left	Yes	0.818694300000061	0	670554	252
1311.736328125	0.818694300000061	decision	choicePhaseStart	2	68	8	foodImage.24	FOODEEG_Images\0250.jpg	YN	Left	Yes	0.818694300000061	0	671610	253
1312.546875	0	decision	response	2	68	8	foodImage.24	FOODEEG_Images\0250.jpg	YN	Left	Yes	0.818694300000061	0	672025	234
1313.587890625	1	taste	trialStart	2	69	9	foodImage.46	FOODEEG_Images\0479.jpg	NY	Right	Yes	0.864174000000276	0	672558	251
1314.646484375	2	taste	foodImageDisplay	2	69	9	foodImage.46	FOODEEG_Images\0479.jpg	NY	Right	Yes	0.864174000000276	0	673100	252
1316.708984375	0.864174000000276	taste	choicePhaseStart	2	69	9	foodImage.46	FOODEEG_Images\0479.jpg	NY	Right	Yes	0.864174000000276	0	674156	253
1317.564453125	0	taste	response	2	69	9	foodImage.46	FOODEEG_Images\0479.jpg	NY	Right	Yes	0.864174000000276	0	674594	235
1318.60546875	1	decision	trialStart	2	70	10	foodImage.42	FOODEEG_Images\0438.jpg	NY	Left	No	0.983245900000838	0	675127	251
1319.693359375	2	decision	foodImageDisplay	2	70	10	foodImage.42	FOODEEG_Images\0438.jpg	NY	Left	No	0.983245900000838	0	675684	252
1321.7578125	0.983245900000838	decision	choicePhaseStart	2	70	10	foodImage.42	FOODEEG_Images\0438.jpg	NY	Left	No	0.983245900000838	0	676741	253
1322.73046875	0	decision	response	2	70	10	foodImage.42	FOODEEG_Images\0438.jpg	NY	Left	No	0.983245900000838	0	677239	234
1323.7734375	1	health	trialStart	2	71	11	foodImage.21	FOODEEG_Images\0234.jpg	NY	Right	Yes	0.722395500000857	0	677773	251
1324.857421875	2	health	foodImageDisplay	2	71	11	foodImage.21	FOODEEG_Images\0234.jpg	NY	Right	Yes	0.722395500000857	0	678328	252
1326.919921875	0.722395500000857	health	choicePhaseStart	2	71	11	foodImage.21	FOODEEG_Images\0234.jpg	NY	Right	Yes	0.722395500000857	0	679384	253
1327.634765625	0	health	response	2	71	11	foodImage.21	FOODEEG_Images\0234.jpg	NY	Right	Yes	0.722395500000857	0	679750	235
1328.67578125	1	health	trialStart	2	72	12	foodImage.2	FOODEEG_Images\0028.jpg	YN	Right	No	0.885969599999953	0	680283	251
1329.716796875	2	health	foodImageDisplay	2	72	12	foodImage.2	FOODEEG_Images\0028.jpg	YN	Right	No	0.885969599999953	0	680816	252
1331.78125	0.885969599999953	health	choicePhaseStart	2	72	12	foodImage.2	FOODEEG_Images\0028.jpg	YN	Right	No	0.885969599999953	0	681873	253
1332.658203125	0	health	response	2	72	12	foodImage.2	FOODEEG_Images\0028.jpg	YN	Right	No	0.885969599999953	0	682322	235
1333.69921875	1	health	trialStart	2	73	13	foodImage.94	FOODEEG_Images\0902.jpg	YN	Left	Yes	1.27434489999905	0	682855	251
1334.736328125	2	health	foodImageDisplay	2	73	13	foodImage.94	FOODEEG_Images\0902.jpg	YN	Left	Yes	1.27434489999905	0	683386	252
1336.80078125	1.27434489999905	health	choicePhaseStart	2	73	13	foodImage.94	FOODEEG_Images\0902.jpg	YN	Left	Yes	1.27434489999905	0	684443	253
1338.06640625	0	health	response	2	73	13	foodImage.94	FOODEEG_Images\0902.jpg	YN	Left	Yes	1.27434489999905	0	685091	234
1339.10546875	1	decision	trialStart	2	74	14	foodImage.67	FOODEEG_Images\0679.jpg	YN	Left	Yes	1.04941460000009	0	685623	251
1340.162109375	2	decision	foodImageDisplay	2	74	14	foodImage.67	FOODEEG_Images\0679.jpg	YN	Left	Yes	1.04941460000009	0	686164	252
1342.2265625	1.04941460000009	decision	choicePhaseStart	2	74	14	foodImage.67	FOODEEG_Images\0679.jpg	YN	Left	Yes	1.04941460000009	0	687221	253
1343.265625	0	decision	response	2	74	14	foodImage.67	FOODEEG_Images\0679.jpg	YN	Left	Yes	1.04941460000009	0	687753	234
1344.30859375	1	taste	trialStart	2	75	15	foodImage.79	FOODEEG_Images\0794.jpg	NY	Left	No	0.907181900000069	0	688287	251
1345.35546875	2	taste	foodImageDisplay	2	75	15	foodImage.79	FOODEEG_Images\0794.jpg	NY	Left	No	0.907181900000069	0	688823	252
1347.421875	0.907181900000069	taste	choicePhaseStart	2	75	15	foodImage.79	FOODEEG_Images\0794.jpg	NY	Left	No	0.907181900000069	0	689881	253
1348.322265625	0	taste	response	2	75	15	foodImage.79	FOODEEG_Images\0794.jpg	NY	Left	No	0.907181900000069	0	690342	234
1349.365234375	1	health	trialStart	2	76	16	foodImage.85	FOODEEG_Images\0841.jpg	NY	Left	No	1.44583389999934	0	690876	251
1350.421875	2	health	foodImageDisplay	2	76	16	foodImage.85	FOODEEG_Images\0841.jpg	NY	Left	No	1.44583389999934	0	691417	252
1352.484375	1.44583389999934	health	choicePhaseStart	2	76	16	foodImage.85	FOODEEG_Images\0841.jpg	NY	Left	No	1.44583389999934	0	692473	253
1353.919921875	0	health	response	2	76	16	foodImage.85	FOODEEG_Images\0841.jpg	NY	Left	No	1.44583389999934	0	693208	234
1354.96484375	1	taste	trialStart	2	77	17	foodImage.29	FOODEEG_Images\0278.jpg	NY	Left	No	1.18096639999931	0	693743	251
1356.005859375	2	taste	foodImageDisplay	2	77	17	foodImage.29	FOODEEG_Images\0278.jpg	NY	Left	No	1.18096639999931	0	694276	252
1358.0703125	1.18096639999931	taste	choicePhaseStart	2	77	17	foodImage.29	FOODEEG_Images\0278.jpg	NY	Left	No	1.18096639999931	0	695333	253
1359.240234375	0	taste	response	2	77	17	foodImage.29	FOODEEG_Images\0278.jpg	NY	Left	No	1.18096639999931	0	695932	234
1360.283203125	1	health	trialStart	2	78	18	foodImage.114	FOODEEG_Images\0922.jpg	NY	Left	No	1.09701189999942	0	696466	251
1361.3203125	2	health	foodImageDisplay	2	78	18	foodImage.114	FOODEEG_Images\0922.jpg	NY	Left	No	1.09701189999942	0	696997	252
1363.384765625	1.09701189999942	health	choicePhaseStart	2	78	18	foodImage.114	FOODEEG_Images\0922.jpg	NY	Left	No	1.09701189999942	0	698054	253
1364.47265625	0	health	response	2	78	18	foodImage.114	FOODEEG_Images\0922.jpg	NY	Left	No	1.09701189999942	0	698611	234
1365.515625	1	health	trialStart	2	79	19	foodImage.109	FOODEEG_Images\0917.jpg	YN	Right	No	1.07794280000053	0	699145	251
1366.564453125	2	health	foodImageDisplay	2	79	19	foodImage.109	FOODEEG_Images\0917.jpg	YN	Right	No	1.07794280000053	0	699682	252
1368.62890625	1.07794280000053	health	choicePhaseStart	2	79	19	foodImage.109	FOODEEG_Images\0917.jpg	YN	Right	No	1.07794280000053	0	700739	253
1369.6953125	0	health	response	2	79	19	foodImage.109	FOODEEG_Images\0917.jpg	YN	Right	No	1.07794280000053	0	701285	235
1370.73828125	1	taste	trialStart	2	80	20	foodImage.101	FOODEEG_Images\0909.jpg	NY	Left	No	0.943577399999413	0	701819	251
1371.78515625	2	taste	foodImageDisplay	2	80	20	foodImage.101	FOODEEG_Images\0909.jpg	NY	Left	No	0.943577399999413	0	702355	252
1373.849609375	0.943577399999413	taste	choicePhaseStart	2	80	20	foodImage.101	FOODEEG_Images\0909.jpg	NY	Left	No	0.943577399999413	0	703412	253
1374.783203125	0	taste	response	2	80	20	foodImage.101	FOODEEG_Images\0909.jpg	NY	Left	No	0.943577399999413	0	703890	234
1375.828125	1	taste	trialStart	2	81	21	foodImage.5	FOODEEG_Images\0107.jpg	NY	Right	Yes	0.958668600000237	0	704425	251
1376.8828125	2	taste	foodImageDisplay	2	81	21	foodImage.5	FOODEEG_Images\0107.jpg	NY	Right	Yes	0.958668600000237	0	704965	252
1378.947265625	0.958668600000237	taste	choicePhaseStart	2	81	21	foodImage.5	FOODEEG_Images\0107.jpg	NY	Right	Yes	0.958668600000237	0	706022	253
1379.896484375	0	taste	response	2	81	21	foodImage.5	FOODEEG_Images\0107.jpg	NY	Right	Yes	0.958668600000237	0	706508	235
1380.9375	1	decision	trialStart	2	82	22	foodImage.94	FOODEEG_Images\0902.jpg	YN	Left	Yes	0.747587400001066	0	707041	251
1381.974609375	2	decision	foodImageDisplay	2	82	22	foodImage.94	FOODEEG_Images\0902.jpg	YN	Left	Yes	0.747587400001066	0	707572	252
1384.0390625	0.747587400001066	decision	choicePhaseStart	2	82	22	foodImage.94	FOODEEG_Images\0902.jpg	YN	Left	Yes	0.747587400001066	0	708629	253
1384.77734375	0	decision	response	2	82	22	foodImage.94	FOODEEG_Images\0902.jpg	YN	Left	Yes	0.747587400001066	0	709007	234
1385.8203125	1	decision	trialStart	2	83	23	foodImage.92	FOODEEG_Images\0900.jpg	NY	Left	No	0.7356376000007	0	709541	251
1386.86328125	2	decision	foodImageDisplay	2	83	23	foodImage.92	FOODEEG_Images\0900.jpg	NY	Left	No	0.7356376000007	0	710075	252
1388.9296875	0.7356376000007	decision	choicePhaseStart	2	83	23	foodImage.92	FOODEEG_Images\0900.jpg	NY	Left	No	0.7356376000007	0	711133	253
1389.65625	0	decision	response	2	83	23	foodImage.92	FOODEEG_Images\0900.jpg	NY	Left	No	0.7356376000007	0	711505	234
1390.705078125	1	decision	trialStart	2	84	24	foodImage.10	FOODEEG_Images\0145.jpg	YN	Left	Yes	1.06325509999988	0	712042	251
1391.76171875	2	decision	foodImageDisplay	2	84	24	foodImage.10	FOODEEG_Images\0145.jpg	YN	Left	Yes	1.06325509999988	0	712583	252
1393.826171875	1.06325509999988	decision	choicePhaseStart	2	84	24	foodImage.10	FOODEEG_Images\0145.jpg	YN	Left	Yes	1.06325509999988	0	713640	253
1394.87890625	0	decision	response	2	84	24	foodImage.10	FOODEEG_Images\0145.jpg	YN	Left	Yes	1.06325509999988	0	714179	234
1395.923828125	1	taste	trialStart	2	85	25	foodImage.109	FOODEEG_Images\0917.jpg	YN	Right	No	1.71795670000029	0	714714	251
1396.962890625	2	taste	foodImageDisplay	2	85	25	foodImage.109	FOODEEG_Images\0917.jpg	YN	Right	No	1.71795670000029	0	715246	252
1399.02734375	1.71795670000029	taste	choicePhaseStart	2	85	25	foodImage.109	FOODEEG_Images\0917.jpg	YN	Right	No	1.71795670000029	0	716303	253
1400.734375	0	taste	response	2	85	25	foodImage.109	FOODEEG_Images\0917.jpg	YN	Right	No	1.71795670000029	0	717177	235
1401.77734375	1	taste	trialStart	2	86	26	foodImage.67	FOODEEG_Images\0679.jpg	YN	Left	Yes	0.867234699999244	0	717711	251
1402.837890625	2	taste	foodImageDisplay	2	86	26	foodImage.67	FOODEEG_Images\0679.jpg	YN	Left	Yes	0.867234699999244	0	718254	252
1404.900390625	0.867234699999244	taste	choicePhaseStart	2	86	26	foodImage.67	FOODEEG_Images\0679.jpg	YN	Left	Yes	0.867234699999244	0	719310	253
1405.759765625	0	taste	response	2	86	26	foodImage.67	FOODEEG_Images\0679.jpg	YN	Left	Yes	0.867234699999244	0	719750	234
1406.802734375	1	taste	trialStart	2	87	27	foodImage.81	FOODEEG_Images\0797.jpg	YN	Right	No	0.645405900000696	0	720284	251
1407.859375	2	taste	foodImageDisplay	2	87	27	foodImage.81	FOODEEG_Images\0797.jpg	YN	Right	No	0.645405900000696	0	720825	252
1409.921875	0.645405900000696	taste	choicePhaseStart	2	87	27	foodImage.81	FOODEEG_Images\0797.jpg	YN	Right	No	0.645405900000696	0	721881	253
1410.55859375	0	taste	response	2	87	27	foodImage.81	FOODEEG_Images\0797.jpg	YN	Right	No	0.645405900000696	0	722207	235
1411.6015625	1	taste	trialStart	2	88	28	foodImage.39	FOODEEG_Images\0367.jpg	YN	Left	Yes	0.591845900000408	0	722741	251
1412.640625	2	taste	foodImageDisplay	2	88	28	foodImage.39	FOODEEG_Images\0367.jpg	YN	Left	Yes	0.591845900000408	0	723273	252
1414.703125	0.591845900000408	taste	choicePhaseStart	2	88	28	foodImage.39	FOODEEG_Images\0367.jpg	YN	Left	Yes	0.591845900000408	0	724329	253
1415.287109375	0	taste	response	2	88	28	foodImage.39	FOODEEG_Images\0367.jpg	YN	Left	Yes	0.591845900000408	0	724628	234
1416.330078125	1	taste	trialStart	2	89	29	foodImage.53	FOODEEG_Images\0547.jpg	NY	Right	Yes	0.905270200000814	0	725162	251
1417.392578125	2	taste	foodImageDisplay	2	89	29	foodImage.53	FOODEEG_Images\0547.jpg	NY	Right	Yes	0.905270200000814	0	725706	252
1419.455078125	0.905270200000814	taste	choicePhaseStart	2	89	29	foodImage.53	FOODEEG_Images\0547.jpg	NY	Right	Yes	0.905270200000814	0	726762	253
1420.349609375	0	taste	response	2	89	29	foodImage.53	FOODEEG_Images\0547.jpg	NY	Right	Yes	0.905270200000814	0	727220	235
1421.392578125	1	decision	trialStart	2	90	30	foodImage.15	FOODEEG_Images\0189.jpg	NY	Left	No	1.50051990000065	0	727754	251
1422.451171875	2	decision	foodImageDisplay	2	90	30	foodImage.15	FOODEEG_Images\0189.jpg	NY	Left	No	1.50051990000065	0	728296	252
1424.515625	1.50051990000065	decision	choicePhaseStart	2	90	30	foodImage.15	FOODEEG_Images\0189.jpg	NY	Left	No	1.50051990000065	0	729353	253
1426.005859375	0	decision	response	2	90	30	foodImage.15	FOODEEG_Images\0189.jpg	NY	Left	No	1.50051990000065	0	730116	234
1427.05078125	1	decision	trialStart	2	91	31	foodImage.35	FOODEEG_Images\0350.jpg	YN	Left	Yes	0.765626899999916	0	730651	251
1428.08984375	2	decision	foodImageDisplay	2	91	31	foodImage.35	FOODEEG_Images\0350.jpg	YN	Left	Yes	0.765626899999916	0	731183	252
1430.154296875	0.765626899999916	decision	choicePhaseStart	2	91	31	foodImage.35	FOODEEG_Images\0350.jpg	YN	Left	Yes	0.765626899999916	0	732240	253
1430.91015625	0	decision	response	2	91	31	foodImage.35	FOODEEG_Images\0350.jpg	YN	Left	Yes	0.765626899999916	0	732627	234
1431.953125	1	health	trialStart	2	92	32	foodImage.117	FOODEEG_Images\0925.jpg	NY	Left	No	1.79638409999825	0	733161	251
1433.00390625	2	health	foodImageDisplay	2	92	32	foodImage.117	FOODEEG_Images\0925.jpg	NY	Left	No	1.79638409999825	0	733699	252
1435.06640625	1.79638409999825	health	choicePhaseStart	2	92	32	foodImage.117	FOODEEG_Images\0925.jpg	NY	Left	No	1.79638409999825	0	734755	253
1436.853515625	0	health	response	2	92	32	foodImage.117	FOODEEG_Images\0925.jpg	NY	Left	No	1.79638409999825	0	735670	234
1437.896484375	1	health	trialStart	2	93	33	foodImage.40	FOODEEG_Images\0373.jpg	NY	Left	No	0.774665299999469	0	736204	251
1438.939453125	2	health	foodImageDisplay	2	93	33	foodImage.40	FOODEEG_Images\0373.jpg	NY	Left	No	0.774665299999469	0	736738	252
1441.001953125	0.774665299999469	health	choicePhaseStart	2	93	33	foodImage.40	FOODEEG_Images\0373.jpg	NY	Left	No	0.774665299999469	0	737794	253
1441.765625	0	health	response	2	93	33	foodImage.40	FOODEEG_Images\0373.jpg	NY	Left	No	0.774665299999469	0	738185	234
1442.806640625	1	decision	trialStart	2	94	34	foodImage.22	FOODEEG_Images\0236.jpg	NY	Right	Yes	1.48326249999991	0	738718	251
1443.845703125	2	decision	foodImageDisplay	2	94	34	foodImage.22	FOODEEG_Images\0236.jpg	NY	Right	Yes	1.48326249999991	0	739250	252
1445.908203125	1.48326249999991	decision	choicePhaseStart	2	94	34	foodImage.22	FOODEEG_Images\0236.jpg	NY	Right	Yes	1.48326249999991	0	740306	253
1447.3828125	0	decision	response	2	94	34	foodImage.22	FOODEEG_Images\0236.jpg	NY	Right	Yes	1.48326249999991	0	741061	235
1448.42578125	1	health	trialStart	2	95	35	foodImage.72	FOODEEG_Images\0714.jpg	NY	Left	No	0.993271600000298	0	741595	251
1449.46875	2	health	foodImageDisplay	2	95	35	foodImage.72	FOODEEG_Images\0714.jpg	NY	Left	No	0.993271600000298	0	742129	252
1451.533203125	0.993271600000298	health	choicePhaseStart	2	95	35	foodImage.72	FOODEEG_Images\0714.jpg	NY	Left	No	0.993271600000298	0	743186	253
1452.517578125	0	health	response	2	95	35	foodImage.72	FOODEEG_Images\0714.jpg	NY	Left	No	0.993271600000298	0	743690	234
1453.560546875	1	taste	trialStart	2	96	36	foodImage.12	FOODEEG_Images\0181.jpg	YN	Right	No	1.22965840000143	0	744224	251
1454.6015625	2	taste	foodImageDisplay	2	96	36	foodImage.12	FOODEEG_Images\0181.jpg	YN	Right	No	1.22965840000143	0	744757	252
1456.666015625	1.22965840000143	taste	choicePhaseStart	2	96	36	foodImage.12	FOODEEG_Images\0181.jpg	YN	Right	No	1.22965840000143	0	745814	253
1457.884765625	0	taste	response	2	96	36	foodImage.12	FOODEEG_Images\0181.jpg	YN	Right	No	1.22965840000143	0	746438	235
1458.9296875	1	taste	trialStart	2	97	37	foodImage.66	FOODEEG_Images\0676.jpg	YN	Left	Yes	0.904927900000985	0	746973	251
1459.970703125	2	taste	foodImageDisplay	2	97	37	foodImage.66	FOODEEG_Images\0676.jpg	YN	Left	Yes	0.904927900000985	0	747506	252
1462.037109375	0.904927900000985	taste	choicePhaseStart	2	97	37	foodImage.66	FOODEEG_Images\0676.jpg	YN	Left	Yes	0.904927900000985	0	748564	253
1462.93359375	0	taste	response	2	97	37	foodImage.66	FOODEEG_Images\0676.jpg	YN	Left	Yes	0.904927900000985	0	749023	234
1463.9765625	1	decision	trialStart	2	98	38	foodImage.119	FOODEEG_Images\0927.jpg	NY	Left	No	1.43236789999901	0	749557	251
1465.013671875	2	decision	foodImageDisplay	2	98	38	foodImage.119	FOODEEG_Images\0927.jpg	NY	Left	No	1.43236789999901	0	750088	252
1467.078125	1.43236789999901	decision	choicePhaseStart	2	98	38	foodImage.119	FOODEEG_Images\0927.jpg	NY	Left	No	1.43236789999901	0	751145	253
1468.5	0	decision	response	2	98	38	foodImage.119	FOODEEG_Images\0927.jpg	NY	Left	No	1.43236789999901	0	751873	234
1469.54296875	1	health	trialStart	2	99	39	foodImage.62	FOODEEG_Images\0644.jpg	YN	Left	Yes	0.808532200000627	0	752407	251
1470.59765625	2	health	foodImageDisplay	2	99	39	foodImage.62	FOODEEG_Images\0644.jpg	YN	Left	Yes	0.808532200000627	0	752947	252
1472.662109375	0.808532200000627	health	choicePhaseStart	2	99	39	foodImage.62	FOODEEG_Images\0644.jpg	YN	Left	Yes	0.808532200000627	0	754004	253
1473.4609375	0	health	response	2	99	39	foodImage.62	FOODEEG_Images\0644.jpg	YN	Left	Yes	0.808532200000627	0	754413	234
1474.509765625	1	taste	trialStart	2	100	40	foodImage.68	FOODEEG_Images\0685.jpg	NY	Right	Yes	0.959626800000478	0	754950	251
1475.587890625	2	taste	foodImageDisplay	2	100	40	foodImage.68	FOODEEG_Images\0685.jpg	NY	Right	Yes	0.959626800000478	0	755502	252
1477.650390625	0.959626800000478	taste	choicePhaseStart	2	100	40	foodImage.68	FOODEEG_Images\0685.jpg	NY	Right	Yes	0.959626800000478	0	756558	253
1478.603515625	0	taste	response	2	100	40	foodImage.68	FOODEEG_Images\0685.jpg	NY	Right	Yes	0.959626800000478	0	757046	235
1479.646484375	1	health	trialStart	2	101	41	foodImage.81	FOODEEG_Images\0797.jpg	NY	Right	Yes	1.51471680000031	0	757580	251
1480.72265625	2	health	foodImageDisplay	2	101	41	foodImage.81	FOODEEG_Images\0797.jpg	NY	Right	Yes	1.51471680000031	0	758131	252
1482.78515625	1.51471680000031	health	choicePhaseStart	2	101	41	foodImage.81	FOODEEG_Images\0797.jpg	NY	Right	Yes	1.51471680000031	0	759187	253
1484.291015625	0	health	response	2	101	41	foodImage.81	FOODEEG_Images\0797.jpg	NY	Right	Yes	1.51471680000031	0	759958	235
1485.33984375	1	taste	trialStart	2	102	42	foodImage.48	FOODEEG_Images\0494.jpg	NY	Left	No	1.05347049999909	0	760495	251
1486.3828125	2	taste	foodImageDisplay	2	102	42	foodImage.48	FOODEEG_Images\0494.jpg	NY	Left	No	1.05347049999909	0	761029	252
1488.4453125	1.05347049999909	taste	choicePhaseStart	2	102	42	foodImage.48	FOODEEG_Images\0494.jpg	NY	Left	No	1.05347049999909	0	762085	253
1489.4921875	0	taste	response	2	102	42	foodImage.48	FOODEEG_Images\0494.jpg	NY	Left	No	1.05347049999909	0	762621	234
1490.53515625	1	decision	trialStart	2	103	43	foodImage.1	FOODEEG_Images\0004.jpg	YN	Right	No	0.8930165999991	0	763155	251
1491.576171875	2	decision	foodImageDisplay	2	103	43	foodImage.1	FOODEEG_Images\0004.jpg	YN	Right	No	0.8930165999991	0	763688	252
1493.640625	0.8930165999991	decision	choicePhaseStart	2	103	43	foodImage.1	FOODEEG_Images\0004.jpg	YN	Right	No	0.8930165999991	0	764745	253
1494.5234375	0	decision	response	2	103	43	foodImage.1	FOODEEG_Images\0004.jpg	YN	Right	No	0.8930165999991	0	765197	235
1495.56640625	1	taste	trialStart	2	104	44	foodImage.98	FOODEEG_Images\0906.jpg	NY	Left	No	1.65186379999977	0	765731	251
1496.6171875	2	taste	foodImageDisplay	2	104	44	foodImage.98	FOODEEG_Images\0906.jpg	NY	Left	No	1.65186379999977	0	766269	252
1498.681640625	1.65186379999977	taste	choicePhaseStart	2	104	44	foodImage.98	FOODEEG_Images\0906.jpg	NY	Left	No	1.65186379999977	0	767326	253
1500.32421875	0	taste	response	2	104	44	foodImage.98	FOODEEG_Images\0906.jpg	NY	Left	No	1.65186379999977	0	768167	234
1501.3671875	1	decision	trialStart	2	105	45	foodImage.39	FOODEEG_Images\0367.jpg	YN	Left	Yes	0.778831700001319	0	768701	251
1502.41796875	2	decision	foodImageDisplay	2	105	45	foodImage.39	FOODEEG_Images\0367.jpg	YN	Left	Yes	0.778831700001319	0	769239	252
1504.482421875	0.778831700001319	decision	choicePhaseStart	2	105	45	foodImage.39	FOODEEG_Images\0367.jpg	YN	Left	Yes	0.778831700001319	0	770296	253
1505.251953125	0	decision	response	2	105	45	foodImage.39	FOODEEG_Images\0367.jpg	YN	Left	Yes	0.778831700001319	0	770690	234
1506.294921875	1	health	trialStart	2	106	46	foodImage.41	FOODEEG_Images\0409.jpg	NY	Right	Yes	0.740776200000255	0	771224	251
1507.34375	2	health	foodImageDisplay	2	106	46	foodImage.41	FOODEEG_Images\0409.jpg	NY	Right	Yes	0.740776200000255	0	771761	252
1509.40625	0.740776200000255	health	choicePhaseStart	2	106	46	foodImage.41	FOODEEG_Images\0409.jpg	NY	Right	Yes	0.740776200000255	0	772817	253
1510.138671875	0	health	response	2	106	46	foodImage.41	FOODEEG_Images\0409.jpg	NY	Right	Yes	0.740776200000255	0	773192	235
1511.181640625	1	health	trialStart	2	107	47	foodImage.37	FOODEEG_Images\0359.jpg	YN	Left	Yes	0.660807399999612	0	773726	251
1512.224609375	2	health	foodImageDisplay	2	107	47	foodImage.37	FOODEEG_Images\0359.jpg	YN	Left	Yes	0.660807399999612	0	774260	252
1514.287109375	0.660807399999612	health	choicePhaseStart	2	107	47	foodImage.37	FOODEEG_Images\0359.jpg	YN	Left	Yes	0.660807399999612	0	775316	253
1514.9375	0	health	response	2	107	47	foodImage.37	FOODEEG_Images\0359.jpg	YN	Left	Yes	0.660807399999612	0	775649	234
1515.982421875	1	decision	trialStart	2	108	48	foodImage.29	FOODEEG_Images\0278.jpg	YN	Right	No	1.12360740000076	0	776184	251
1517.025390625	2	decision	foodImageDisplay	2	108	48	foodImage.29	FOODEEG_Images\0278.jpg	YN	Right	No	1.12360740000076	0	776718	252
1519.087890625	1.12360740000076	decision	choicePhaseStart	2	108	48	foodImage.29	FOODEEG_Images\0278.jpg	YN	Right	No	1.12360740000076	0	777774	253
1520.203125	0	decision	response	2	108	48	foodImage.29	FOODEEG_Images\0278.jpg	YN	Right	No	1.12360740000076	0	778345	235
1521.24609375	1	health	trialStart	2	109	49	foodImage.92	FOODEEG_Images\0900.jpg	YN	Right	No	1.0959428999995	0	778879	251
1522.296875	2	health	foodImageDisplay	2	109	49	foodImage.92	FOODEEG_Images\0900.jpg	YN	Right	No	1.0959428999995	0	779417	252
1524.36328125	1.0959428999995	health	choicePhaseStart	2	109	49	foodImage.92	FOODEEG_Images\0900.jpg	YN	Right	No	1.0959428999995	0	780475	253
1525.451171875	0	health	response	2	109	49	foodImage.92	FOODEEG_Images\0900.jpg	YN	Right	No	1.0959428999995	0	781032	235
1526.494140625	1	decision	trialStart	2	110	50	foodImage.106	FOODEEG_Images\0914.jpg	NY	Right	Yes	0.888293300000441	0	781566	251
1527.533203125	2	decision	foodImageDisplay	2	110	50	foodImage.106	FOODEEG_Images\0914.jpg	NY	Right	Yes	0.888293300000441	0	782098	252
1529.595703125	0.888293300000441	decision	choicePhaseStart	2	110	50	foodImage.106	FOODEEG_Images\0914.jpg	NY	Right	Yes	0.888293300000441	0	783154	253
1530.474609375	0	decision	response	2	110	50	foodImage.106	FOODEEG_Images\0914.jpg	NY	Right	Yes	0.888293300000441	0	783604	235
1531.517578125	1	decision	trialStart	2	111	51	foodImage.25	FOODEEG_Images\0261.jpg	YN	Right	No	1.32178039999962	0	784138	251
1532.560546875	2	decision	foodImageDisplay	2	111	51	foodImage.25	FOODEEG_Images\0261.jpg	YN	Right	No	1.32178039999962	0	784672	252
1534.625	1.32178039999962	decision	choicePhaseStart	2	111	51	foodImage.25	FOODEEG_Images\0261.jpg	YN	Right	No	1.32178039999962	0	785729	253
1535.9375	0	decision	response	2	111	51	foodImage.25	FOODEEG_Images\0261.jpg	YN	Right	No	1.32178039999962	0	786401	235
1536.982421875	1	taste	trialStart	2	112	52	foodImage.19	FOODEEG_Images\0225.jpg	YN	Right	No	1.64397210000061	0	786936	251
1538.03125	2	taste	foodImageDisplay	2	112	52	foodImage.19	FOODEEG_Images\0225.jpg	YN	Right	No	1.64397210000061	0	787473	252
1540.103515625	1.64397210000061	taste	choicePhaseStart	2	112	52	foodImage.19	FOODEEG_Images\0225.jpg	YN	Right	No	1.64397210000061	0	788534	253
1541.73828125	0	taste	response	2	112	52	foodImage.19	FOODEEG_Images\0225.jpg	YN	Right	No	1.64397210000061	0	789371	235
1542.78125	1	health	trialStart	2	113	53	foodImage.102	FOODEEG_Images\0910.jpg	YN	Right	No	1.20123800000147	0	789905	251
1543.8203125	2	health	foodImageDisplay	2	113	53	foodImage.102	FOODEEG_Images\0910.jpg	YN	Right	No	1.20123800000147	0	790437	252
1545.888671875	1.20123800000147	health	choicePhaseStart	2	113	53	foodImage.102	FOODEEG_Images\0910.jpg	YN	Right	No	1.20123800000147	0	791496	253
1547.08203125	0	health	response	2	113	53	foodImage.102	FOODEEG_Images\0910.jpg	YN	Right	No	1.20123800000147	0	792107	235
1548.125	1	decision	trialStart	2	114	54	foodImage.28	FOODEEG_Images\0273.jpg	YN	Right	No	0.943860400000631	0	792641	251
1549.1640625	2	decision	foodImageDisplay	2	114	54	foodImage.28	FOODEEG_Images\0273.jpg	YN	Right	No	0.943860400000631	0	793173	252
1551.2265625	0.943860400000631	decision	choicePhaseStart	2	114	54	foodImage.28	FOODEEG_Images\0273.jpg	YN	Right	No	0.943860400000631	0	794229	253
1552.162109375	0	decision	response	2	114	54	foodImage.28	FOODEEG_Images\0273.jpg	YN	Right	No	0.943860400000631	0	794708	235
1553.203125	1	health	trialStart	2	115	55	foodImage.67	FOODEEG_Images\0679.jpg	YN	Right	No	0.934097600000314	0	795241	251
1554.26171875	2	health	foodImageDisplay	2	115	55	foodImage.67	FOODEEG_Images\0679.jpg	YN	Right	No	0.934097600000314	0	795783	252
1556.32421875	0.934097600000314	health	choicePhaseStart	2	115	55	foodImage.67	FOODEEG_Images\0679.jpg	YN	Right	No	0.934097600000314	0	796839	253
1557.25	0	health	response	2	115	55	foodImage.67	FOODEEG_Images\0679.jpg	YN	Right	No	0.934097600000314	0	797313	235
1558.29296875	1	health	trialStart	2	116	56	foodImage.47	FOODEEG_Images\0488.jpg	NY	Left	No	1.57438609999917	0	797847	251
1559.33984375	2	health	foodImageDisplay	2	116	56	foodImage.47	FOODEEG_Images\0488.jpg	NY	Left	No	1.57438609999917	0	798383	252
1561.40234375	1.57438609999917	health	choicePhaseStart	2	116	56	foodImage.47	FOODEEG_Images\0488.jpg	NY	Left	No	1.57438609999917	0	799439	253
1562.96875	0	health	response	2	116	56	foodImage.47	FOODEEG_Images\0488.jpg	NY	Left	No	1.57438609999917	0	800241	234
1564.01171875	1	health	trialStart	2	117	57	foodImage.52	FOODEEG_Images\0539.jpg	YN	Left	Yes	1.48439309999958	0	800775	251
1565.078125	2	health	foodImageDisplay	2	117	57	foodImage.52	FOODEEG_Images\0539.jpg	YN	Left	Yes	1.48439309999958	0	801321	252
1567.142578125	1.48439309999958	health	choicePhaseStart	2	117	57	foodImage.52	FOODEEG_Images\0539.jpg	YN	Left	Yes	1.48439309999958	0	802378	253
1568.6171875	0	health	response	2	117	57	foodImage.52	FOODEEG_Images\0539.jpg	YN	Left	Yes	1.48439309999958	0	803133	234
1569.66015625	1	health	trialStart	2	118	58	foodImage.110	FOODEEG_Images\0918.jpg	YN	Right	No	1.15323159999934	0	803667	251
1570.697265625	2	health	foodImageDisplay	2	118	58	foodImage.110	FOODEEG_Images\0918.jpg	YN	Right	No	1.15323159999934	0	804198	252
1572.759765625	1.15323159999934	health	choicePhaseStart	2	118	58	foodImage.110	FOODEEG_Images\0918.jpg	YN	Right	No	1.15323159999934	0	805254	253
1573.904296875	0	health	response	2	118	58	foodImage.110	FOODEEG_Images\0918.jpg	YN	Right	No	1.15323159999934	0	805840	235
1574.947265625	1	health	trialStart	2	119	59	foodImage.115	FOODEEG_Images\0923.jpg	YN	Right	No	0.685602099998505	0	806374	251
1575.98828125	2	health	foodImageDisplay	2	119	59	foodImage.115	FOODEEG_Images\0923.jpg	YN	Right	No	0.685602099998505	0	806907	252
1578.05078125	0.685602099998505	health	choicePhaseStart	2	119	59	foodImage.115	FOODEEG_Images\0923.jpg	YN	Right	No	0.685602099998505	0	807963	253
1578.728515625	0	health	response	2	119	59	foodImage.115	FOODEEG_Images\0923.jpg	YN	Right	No	0.685602099998505	0	808310	235
1579.76953125	1	decision	trialStart	2	120	60	foodImage.36	FOODEEG_Images\0352.jpg	YN	Right	No	1.49311200000011	0	808843	251
1580.828125	2	decision	foodImageDisplay	2	120	60	foodImage.36	FOODEEG_Images\0352.jpg	YN	Right	No	1.49311200000011	0	809385	252
1582.892578125	1.49311200000011	decision	choicePhaseStart	2	120	60	foodImage.36	FOODEEG_Images\0352.jpg	YN	Right	No	1.49311200000011	0	810442	253
1584.376953125	0	decision	response	2	120	60	foodImage.36	FOODEEG_Images\0352.jpg	YN	Right	No	1.49311200000011	0	811202	235
1586.41796875	8.390625	n/a	blockEnd	n/a	n/a	n/a	n/a	n/a	n/a	n/a	n/a	n/a	n/a	812247	254
1594.80859375	2	n/a	blockStart	3	n/a	n/a	n/a	n/a	n/a	n/a	n/a	n/a	n/a	816543	250
1596.841796875	1	taste	trialStart	3	121	1	foodImage.32	FOODEEG_Images\0319.jpg	NY	Right	Yes	1.02662390000114	0	817584	251
1597.88671875	2	taste	foodImageDisplay	3	121	1	foodImage.32	FOODEEG_Images\0319.jpg	NY	Right	Yes	1.02662390000114	0	818119	252
1599.951171875	1.02662390000114	taste	choicePhaseStart	3	121	1	foodImage.32	FOODEEG_Images\0319.jpg	NY	Right	Yes	1.02662390000114	0	819176	253
1600.966796875	0	taste	response	3	121	1	foodImage.32	FOODEEG_Images\0319.jpg	NY	Right	Yes	1.02662390000114	0	819696	235
1602.009765625	1	health	trialStart	3	122	2	foodImage.79	FOODEEG_Images\0794.jpg	YN	Right	No	1.61178669999936	0	820230	251
1603.0546875	2	health	foodImageDisplay	3	122	2	foodImage.79	FOODEEG_Images\0794.jpg	YN	Right	No	1.61178669999936	0	820765	252
1605.1171875	1.61178669999936	health	choicePhaseStart	3	122	2	foodImage.79	FOODEEG_Images\0794.jpg	YN	Right	No	1.61178669999936	0	821821	253
1606.71875	0	health	response	3	122	2	foodImage.79	FOODEEG_Images\0794.jpg	YN	Right	No	1.61178669999936	0	822641	235
1607.76171875	1	decision	trialStart	3	123	3	foodImage.57	FOODEEG_Images\0587.jpg	YN	Left	Yes	1.05839410000044	0	823175	251
1608.806640625	2	decision	foodImageDisplay	3	123	3	foodImage.57	FOODEEG_Images\0587.jpg	YN	Left	Yes	1.05839410000044	0	823710	252
1610.869140625	1.05839410000044	decision	choicePhaseStart	3	123	3	foodImage.57	FOODEEG_Images\0587.jpg	YN	Left	Yes	1.05839410000044	0	824766	253
1611.91796875	0	decision	response	3	123	3	foodImage.57	FOODEEG_Images\0587.jpg	YN	Left	Yes	1.05839410000044	0	825303	234
1612.962890625	1	decision	trialStart	3	124	4	foodImage.111	FOODEEG_Images\0919.jpg	NY	Left	No	0.946186699999089	0	825838	251
1614	2	decision	foodImageDisplay	3	124	4	foodImage.111	FOODEEG_Images\0919.jpg	NY	Left	No	0.946186699999089	0	826369	252
1616.0625	0.946186699999089	decision	choicePhaseStart	3	124	4	foodImage.111	FOODEEG_Images\0919.jpg	NY	Left	No	0.946186699999089	0	827425	253
1616.998046875	0	decision	response	3	124	4	foodImage.111	FOODEEG_Images\0919.jpg	NY	Left	No	0.946186699999089	0	827904	234
1618.0390625	1	taste	trialStart	3	125	5	foodImage.75	FOODEEG_Images\0763.jpg	YN	Right	No	0.957076799999413	0	828437	251
1619.083984375	2	taste	foodImageDisplay	3	125	5	foodImage.75	FOODEEG_Images\0763.jpg	YN	Right	No	0.957076799999413	0	828972	252
1621.146484375	0.957076799999413	taste	choicePhaseStart	3	125	5	foodImage.75	FOODEEG_Images\0763.jpg	YN	Right	No	0.957076799999413	0	830028	253
1622.09375	0	taste	response	3	125	5	foodImage.75	FOODEEG_Images\0763.jpg	YN	Right	No	0.957076799999413	0	830513	235
1623.134765625	1	health	trialStart	3	126	6	foodImage.19	FOODEEG_Images\0225.jpg	YN	Left	Yes	1.7464516	0	831046	251
1624.177734375	2	health	foodImageDisplay	3	126	6	foodImage.19	FOODEEG_Images\0225.jpg	YN	Left	Yes	1.7464516	0	831580	252
1626.2421875	1.7464516	health	choicePhaseStart	3	126	6	foodImage.19	FOODEEG_Images\0225.jpg	YN	Left	Yes	1.7464516	0	832637	253
1627.982421875	0	health	response	3	126	6	foodImage.19	FOODEEG_Images\0225.jpg	YN	Left	Yes	1.7464516	0	833528	234
1629.025390625	1	health	trialStart	3	127	7	foodImage.90	FOODEEG_Images\0890.jpg	YN	Left	Yes	2.35025459999997	0	834062	251
1630.08203125	2	health	foodImageDisplay	3	127	7	foodImage.90	FOODEEG_Images\0890.jpg	YN	Left	Yes	2.35025459999997	0	834603	252
1632.14453125	2.35025459999997	health	choicePhaseStart	3	127	7	foodImage.90	FOODEEG_Images\0890.jpg	YN	Left	Yes	2.35025459999997	0	835659	253
1634.486328125	0	health	response	3	127	7	foodImage.90	FOODEEG_Images\0890.jpg	YN	Left	Yes	2.35025459999997	0	836858	234
1635.529296875	1	health	trialStart	3	128	8	foodImage.57	FOODEEG_Images\0587.jpg	NY	Left	No	0.910620299999209	0	837392	251
1636.5703125	2	health	foodImageDisplay	3	128	8	foodImage.57	FOODEEG_Images\0587.jpg	NY	Left	No	0.910620299999209	0	837925	252
1638.6328125	0.910620299999209	health	choicePhaseStart	3	128	8	foodImage.57	FOODEEG_Images\0587.jpg	NY	Left	No	0.910620299999209	0	838981	253
1639.533203125	0	health	response	3	128	8	foodImage.57	FOODEEG_Images\0587.jpg	NY	Left	No	0.910620299999209	0	839442	234
1640.578125	1	health	trialStart	3	129	9	foodImage.116	FOODEEG_Images\0924.jpg	YN	Right	No	0.85732299999836	0	839977	251
1641.615234375	2	health	foodImageDisplay	3	129	9	foodImage.116	FOODEEG_Images\0924.jpg	YN	Right	No	0.85732299999836	0	840508	252
1643.677734375	0.85732299999836	health	choicePhaseStart	3	129	9	foodImage.116	FOODEEG_Images\0924.jpg	YN	Right	No	0.85732299999836	0	841564	253
1644.525390625	0	health	response	3	129	9	foodImage.116	FOODEEG_Images\0924.jpg	YN	Right	No	0.85732299999836	0	841998	235
1645.56640625	1	taste	trialStart	3	130	10	foodImage.30	FOODEEG_Images\0282.jpg	NY	Right	Yes	1.03773000000001	0	842531	251
1646.609375	2	taste	foodImageDisplay	3	130	10	foodImage.30	FOODEEG_Images\0282.jpg	NY	Right	Yes	1.03773000000001	0	843065	252
1648.671875	1.03773000000001	taste	choicePhaseStart	3	130	10	foodImage.30	FOODEEG_Images\0282.jpg	NY	Right	Yes	1.03773000000001	0	844121	253
1649.701171875	0	taste	response	3	130	10	foodImage.30	FOODEEG_Images\0282.jpg	NY	Right	Yes	1.03773000000001	0	844648	235
1650.744140625	1	taste	trialStart	3	131	11	foodImage.40	FOODEEG_Images\0373.jpg	YN	Left	Yes	0.885943100000077	0	845182	251
1651.78515625	2	taste	foodImageDisplay	3	131	11	foodImage.40	FOODEEG_Images\0373.jpg	YN	Left	Yes	0.885943100000077	0	845715	252
1653.84765625	0.885943100000077	taste	choicePhaseStart	3	131	11	foodImage.40	FOODEEG_Images\0373.jpg	YN	Left	Yes	0.885943100000077	0	846771	253
1654.724609375	0	taste	response	3	131	11	foodImage.40	FOODEEG_Images\0373.jpg	YN	Left	Yes	0.885943100000077	0	847220	234
1655.767578125	1	taste	trialStart	3	132	12	foodImage.24	FOODEEG_Images\0250.jpg	NY	Right	Yes	0.646641100000124	0	847754	251
1656.810546875	2	taste	foodImageDisplay	3	132	12	foodImage.24	FOODEEG_Images\0250.jpg	NY	Right	Yes	0.646641100000124	0	848288	252
1658.873046875	0.646641100000124	taste	choicePhaseStart	3	132	12	foodImage.24	FOODEEG_Images\0250.jpg	NY	Right	Yes	0.646641100000124	0	849344	253
1659.509765625	0	taste	response	3	132	12	foodImage.24	FOODEEG_Images\0250.jpg	NY	Right	Yes	0.646641100000124	0	849670	235
1660.552734375	1	decision	trialStart	3	133	13	foodImage.74	FOODEEG_Images\0752.jpg	NY	Right	Yes	0.801168800000596	0	850204	251
1661.59765625	2	decision	foodImageDisplay	3	133	13	foodImage.74	FOODEEG_Images\0752.jpg	NY	Right	Yes	0.801168800000596	0	850739	252
1663.66015625	0.801168800000596	decision	choicePhaseStart	3	133	13	foodImage.74	FOODEEG_Images\0752.jpg	NY	Right	Yes	0.801168800000596	0	851795	253
1664.453125	0	decision	response	3	133	13	foodImage.74	FOODEEG_Images\0752.jpg	NY	Right	Yes	0.801168800000596	0	852201	235
1665.49609375	1	taste	trialStart	3	134	14	foodImage.104	FOODEEG_Images\0912.jpg	YN	Left	Yes	2.34190320000016	0	852735	251
1666.53515625	2	taste	foodImageDisplay	3	134	14	foodImage.104	FOODEEG_Images\0912.jpg	YN	Left	Yes	2.34190320000016	0	853267	252
1668.599609375	2.34190320000016	taste	choicePhaseStart	3	134	14	foodImage.104	FOODEEG_Images\0912.jpg	YN	Left	Yes	2.34190320000016	0	854324	253
1670.931640625	0	taste	response	3	134	14	foodImage.104	FOODEEG_Images\0912.jpg	YN	Left	Yes	2.34190320000016	0	855518	234
1671.9765625	1	taste	trialStart	3	135	15	foodImage.110	FOODEEG_Images\0918.jpg	NY	Left	No	0.67603439999948	0	856053	251
1673.015625	2	taste	foodImageDisplay	3	135	15	foodImage.110	FOODEEG_Images\0918.jpg	NY	Left	No	0.67603439999948	0	856585	252
1675.08203125	0.67603439999948	taste	choicePhaseStart	3	135	15	foodImage.110	FOODEEG_Images\0918.jpg	NY	Left	No	0.67603439999948	0	857643	253
1675.75	0	taste	response	3	135	15	foodImage.110	FOODEEG_Images\0918.jpg	NY	Left	No	0.67603439999948	0	857985	234
1676.7890625	1	taste	trialStart	3	136	16	foodImage.36	FOODEEG_Images\0352.jpg	NY	Left	No	2.15086429999974	0	858517	251
1677.84765625	2	taste	foodImageDisplay	3	136	16	foodImage.36	FOODEEG_Images\0352.jpg	NY	Left	No	2.15086429999974	0	859059	252
1679.91015625	2.15086429999974	taste	choicePhaseStart	3	136	16	foodImage.36	FOODEEG_Images\0352.jpg	NY	Left	No	2.15086429999974	0	860115	253
1682.052734375	0	taste	response	3	136	16	foodImage.36	FOODEEG_Images\0352.jpg	NY	Left	No	2.15086429999974	0	861212	234
1683.095703125	1	taste	trialStart	3	137	17	foodImage.11	FOODEEG_Images\0180.jpg	YN	Right	No	0.892575300000317	0	861746	251
1684.13671875	2	taste	foodImageDisplay	3	137	17	foodImage.11	FOODEEG_Images\0180.jpg	YN	Right	No	0.892575300000317	0	862279	252
1686.201171875	0.892575300000317	taste	choicePhaseStart	3	137	17	foodImage.11	FOODEEG_Images\0180.jpg	YN	Right	No	0.892575300000317	0	863336	253
1687.083984375	0	taste	response	3	137	17	foodImage.11	FOODEEG_Images\0180.jpg	YN	Right	No	0.892575300000317	0	863788	235
1688.126953125	1	taste	trialStart	3	138	18	foodImage.74	FOODEEG_Images\0752.jpg	YN	Left	Yes	0.749466799999936	0	864322	251
1689.189453125	2	taste	foodImageDisplay	3	138	18	foodImage.74	FOODEEG_Images\0752.jpg	YN	Left	Yes	0.749466799999936	0	864866	252
1691.255859375	0.749466799999936	taste	choicePhaseStart	3	138	18	foodImage.74	FOODEEG_Images\0752.jpg	YN	Left	Yes	0.749466799999936	0	865924	253
1691.99609375	0	taste	response	3	138	18	foodImage.74	FOODEEG_Images\0752.jpg	YN	Left	Yes	0.749466799999936	0	866303	234
1693.0390625	1	decision	trialStart	3	139	19	foodImage.79	FOODEEG_Images\0794.jpg	NY	Left	No	1.04241840000032	0	866837	251
1694.08203125	2	decision	foodImageDisplay	3	139	19	foodImage.79	FOODEEG_Images\0794.jpg	NY	Left	No	1.04241840000032	0	867371	252
1696.146484375	1.04241840000032	decision	choicePhaseStart	3	139	19	foodImage.79	FOODEEG_Images\0794.jpg	NY	Left	No	1.04241840000032	0	868428	253
1697.1796875	0	decision	response	3	139	19	foodImage.79	FOODEEG_Images\0794.jpg	NY	Left	No	1.04241840000032	0	868957	234
1698.22265625	1	health	trialStart	3	140	20	foodImage.103	FOODEEG_Images\0911.jpg	YN	Right	No	1.79245189999892	0	869491	251
1699.26171875	2	health	foodImageDisplay	3	140	20	foodImage.103	FOODEEG_Images\0911.jpg	YN	Right	No	1.79245189999892	0	870023	252
1701.330078125	1.79245189999892	health	choicePhaseStart	3	140	20	foodImage.103	FOODEEG_Images\0911.jpg	YN	Right	No	1.79245189999892	0	871082	253
1703.115234375	0	health	response	3	140	20	foodImage.103	FOODEEG_Images\0911.jpg	YN	Right	No	1.79245189999892	0	871996	235
1704.1640625	1	health	trialStart	3	141	21	foodImage.7	FOODEEG_Images\0116.jpg	YN	Right	No	0.718755599998985	0	872533	251
1705.20703125	2	health	foodImageDisplay	3	141	21	foodImage.7	FOODEEG_Images\0116.jpg	YN	Right	No	0.718755599998985	0	873067	252
1707.26953125	0.718755599998985	health	choicePhaseStart	3	141	21	foodImage.7	FOODEEG_Images\0116.jpg	YN	Right	No	0.718755599998985	0	874123	253
1707.978515625	0	health	response	3	141	21	foodImage.7	FOODEEG_Images\0116.jpg	YN	Right	No	0.718755599998985	0	874486	235
1709.021484375	1	health	trialStart	3	142	22	foodImage.99	FOODEEG_Images\0907.jpg	NY	Left	No	0.857358400000521	0	875020	251
1710.05859375	2	health	foodImageDisplay	3	142	22	foodImage.99	FOODEEG_Images\0907.jpg	NY	Left	No	0.857358400000521	0	875551	252
1712.12109375	0.857358400000521	health	choicePhaseStart	3	142	22	foodImage.99	FOODEEG_Images\0907.jpg	NY	Left	No	0.857358400000521	0	876607	253
1712.970703125	0	health	response	3	142	22	foodImage.99	FOODEEG_Images\0907.jpg	NY	Left	No	0.857358400000521	0	877042	234
1714.013671875	1	decision	trialStart	3	143	23	foodImage.40	FOODEEG_Images\0373.jpg	YN	Left	Yes	0.747840600000927	0	877576	251
1715.0546875	2	decision	foodImageDisplay	3	143	23	foodImage.40	FOODEEG_Images\0373.jpg	YN	Left	Yes	0.747840600000927	0	878109	252
1717.119140625	0.747840600000927	decision	choicePhaseStart	3	143	23	foodImage.40	FOODEEG_Images\0373.jpg	YN	Left	Yes	0.747840600000927	0	879166	253
1717.859375	0	decision	response	3	143	23	foodImage.40	FOODEEG_Images\0373.jpg	YN	Left	Yes	0.747840600000927	0	879545	234
1718.90234375	1	decision	trialStart	3	144	24	foodImage.69	FOODEEG_Images\0693.jpg	NY	Right	Yes	1.23792590000085	0	880079	251
1719.9453125	2	decision	foodImageDisplay	3	144	24	foodImage.69	FOODEEG_Images\0693.jpg	NY	Right	Yes	1.23792590000085	0	880613	252
1722.013671875	1.23792590000085	decision	choicePhaseStart	3	144	24	foodImage.69	FOODEEG_Images\0693.jpg	NY	Right	Yes	1.23792590000085	0	881672	253
1723.2421875	0	decision	response	3	144	24	foodImage.69	FOODEEG_Images\0693.jpg	NY	Right	Yes	1.23792590000085	0	882301	235
1724.28515625	1	health	trialStart	3	145	25	foodImage.35	FOODEEG_Images\0350.jpg	NY	Left	No	2.2954565	0	882835	251
1725.32421875	2	health	foodImageDisplay	3	145	25	foodImage.35	FOODEEG_Images\0350.jpg	NY	Left	No	2.2954565	0	883367	252
1727.38671875	2.2954565	health	choicePhaseStart	3	145	25	foodImage.35	FOODEEG_Images\0350.jpg	NY	Left	No	2.2954565	0	884423	253
1729.673828125	0	health	response	3	145	25	foodImage.35	FOODEEG_Images\0350.jpg	NY	Left	No	2.2954565	0	885594	234
1730.716796875	1	taste	trialStart	3	146	26	foodImage.25	FOODEEG_Images\0261.jpg	YN	Right	No	1.26449479999974	0	886128	251
1731.7578125	2	taste	foodImageDisplay	3	146	26	foodImage.25	FOODEEG_Images\0261.jpg	YN	Right	No	1.26449479999974	0	886661	252
1733.8203125	1.26449479999974	taste	choicePhaseStart	3	146	26	foodImage.25	FOODEEG_Images\0261.jpg	YN	Right	No	1.26449479999974	0	887717	253
1735.07421875	0	taste	response	3	146	26	foodImage.25	FOODEEG_Images\0261.jpg	YN	Right	No	1.26449479999974	0	888359	235
1736.119140625	1	decision	trialStart	3	147	27	foodImage.68	FOODEEG_Images\0685.jpg	NY	Right	Yes	1.16402730000118	0	888894	251
1737.20703125	2	decision	foodImageDisplay	3	147	27	foodImage.68	FOODEEG_Images\0685.jpg	NY	Right	Yes	1.16402730000118	0	889451	252
1739.271484375	1.16402730000118	decision	choicePhaseStart	3	147	27	foodImage.68	FOODEEG_Images\0685.jpg	NY	Right	Yes	1.16402730000118	0	890508	253
1740.42578125	0	decision	response	3	147	27	foodImage.68	FOODEEG_Images\0685.jpg	NY	Right	Yes	1.16402730000118	0	891099	235
1741.46875	1	decision	trialStart	3	148	28	foodImage.90	FOODEEG_Images\0890.jpg	NY	Right	Yes	1.04622849999942	0	891633	251
1742.525390625	2	decision	foodImageDisplay	3	148	28	foodImage.90	FOODEEG_Images\0890.jpg	NY	Right	Yes	1.04622849999942	0	892174	252
1744.587890625	1.04622849999942	decision	choicePhaseStart	3	148	28	foodImage.90	FOODEEG_Images\0890.jpg	NY	Right	Yes	1.04622849999942	0	893230	253
1745.625	0	decision	response	3	148	28	foodImage.90	FOODEEG_Images\0890.jpg	NY	Right	Yes	1.04622849999942	0	893761	235
1746.681640625	1	taste	trialStart	3	149	29	foodImage.94	FOODEEG_Images\0902.jpg	NY	Right	Yes	0.72396309999931	0	894302	251
1747.71875	2	taste	foodImageDisplay	3	149	29	foodImage.94	FOODEEG_Images\0902.jpg	NY	Right	Yes	0.72396309999931	0	894833	252
1749.783203125	0.72396309999931	taste	choicePhaseStart	3	149	29	foodImage.94	FOODEEG_Images\0902.jpg	NY	Right	Yes	0.72396309999931	0	895890	253
1750.498046875	0	taste	response	3	149	29	foodImage.94	FOODEEG_Images\0902.jpg	NY	Right	Yes	0.72396309999931	0	896256	235
1751.541015625	1	health	trialStart	3	150	30	foodImage.36	FOODEEG_Images\0352.jpg	NY	Right	Yes	1.03664819999904	0	896790	251
1752.615234375	2	health	foodImageDisplay	3	150	30	foodImage.36	FOODEEG_Images\0352.jpg	NY	Right	Yes	1.03664819999904	0	897340	252
1754.677734375	1.03664819999904	health	choicePhaseStart	3	150	30	foodImage.36	FOODEEG_Images\0352.jpg	NY	Right	Yes	1.03664819999904	0	898396	253
1755.705078125	0	health	response	3	150	30	foodImage.36	FOODEEG_Images\0352.jpg	NY	Right	Yes	1.03664819999904	0	898922	235
1756.748046875	1	health	trialStart	3	151	31	foodImage.1	FOODEEG_Images\0004.jpg	YN	Right	No	0.6779420999992	0	899456	251
1757.791015625	2	health	foodImageDisplay	3	151	31	foodImage.1	FOODEEG_Images\0004.jpg	YN	Right	No	0.6779420999992	0	899990	252
1759.853515625	0.6779420999992	health	choicePhaseStart	3	151	31	foodImage.1	FOODEEG_Images\0004.jpg	YN	Right	No	0.6779420999992	0	901046	253
1760.521484375	0	health	response	3	151	31	foodImage.1	FOODEEG_Images\0004.jpg	YN	Right	No	0.6779420999992	0	901388	235
1761.5625	1	decision	trialStart	3	152	32	foodImage.97	FOODEEG_Images\0905.jpg	NY	Left	No	0.884422999999515	0	901921	251
1762.6015625	2	decision	foodImageDisplay	3	152	32	foodImage.97	FOODEEG_Images\0905.jpg	NY	Left	No	0.884422999999515	0	902453	252
1764.666015625	0.884422999999515	decision	choicePhaseStart	3	152	32	foodImage.97	FOODEEG_Images\0905.jpg	NY	Left	No	0.884422999999515	0	903510	253
1765.544921875	0	decision	response	3	152	32	foodImage.97	FOODEEG_Images\0905.jpg	NY	Left	No	0.884422999999515	0	903960	234
1766.583984375	1	taste	trialStart	3	153	33	foodImage.80	FOODEEG_Images\0796.jpg	NY	Right	Yes	0.725920299999416	0	904492	251
1767.642578125	2	taste	foodImageDisplay	3	153	33	foodImage.80	FOODEEG_Images\0796.jpg	NY	Right	Yes	0.725920299999416	0	905034	252
1769.70703125	0.725920299999416	taste	choicePhaseStart	3	153	33	foodImage.80	FOODEEG_Images\0796.jpg	NY	Right	Yes	0.725920299999416	0	906091	253
1770.423828125	0	taste	response	3	153	33	foodImage.80	FOODEEG_Images\0796.jpg	NY	Right	Yes	0.725920299999416	0	906458	235
1771.46875	1	health	trialStart	3	154	34	foodImage.58	FOODEEG_Images\0605.jpg	YN	Right	No	1.61422749999838	0	906993	251
1772.525390625	2	health	foodImageDisplay	3	154	34	foodImage.58	FOODEEG_Images\0605.jpg	YN	Right	No	1.61422749999838	0	907534	252
1774.587890625	1.61422749999838	health	choicePhaseStart	3	154	34	foodImage.58	FOODEEG_Images\0605.jpg	YN	Right	No	1.61422749999838	0	908590	253
1776.19140625	0	health	response	3	154	34	foodImage.58	FOODEEG_Images\0605.jpg	YN	Right	No	1.61422749999838	0	909411	235
1777.234375	1	taste	trialStart	3	155	35	foodImage.57	FOODEEG_Images\0587.jpg	NY	Right	Yes	0.857600100000127	0	909945	251
1778.279296875	2	taste	foodImageDisplay	3	155	35	foodImage.57	FOODEEG_Images\0587.jpg	NY	Right	Yes	0.857600100000127	0	910480	252
1780.34375	0.857600100000127	taste	choicePhaseStart	3	155	35	foodImage.57	FOODEEG_Images\0587.jpg	NY	Right	Yes	0.857600100000127	0	911537	253
1781.19140625	0	taste	response	3	155	35	foodImage.57	FOODEEG_Images\0587.jpg	NY	Right	Yes	0.857600100000127	0	911971	235
1782.236328125	1	taste	trialStart	3	156	36	foodImage.22	FOODEEG_Images\0236.jpg	YN	Left	Yes	1.78875610000068	0	912506	251
1783.27734375	2	taste	foodImageDisplay	3	156	36	foodImage.22	FOODEEG_Images\0236.jpg	YN	Left	Yes	1.78875610000068	0	913039	252
1785.341796875	1.78875610000068	taste	choicePhaseStart	3	156	36	foodImage.22	FOODEEG_Images\0236.jpg	YN	Left	Yes	1.78875610000068	0	914096	253
1787.119140625	0	taste	response	3	156	36	foodImage.22	FOODEEG_Images\0236.jpg	YN	Left	Yes	1.78875610000068	0	915006	234
1788.1640625	1	health	trialStart	3	157	37	foodImage.69	FOODEEG_Images\0693.jpg	YN	Left	Yes	1.14807739999924	0	915541	251
1789.205078125	2	health	foodImageDisplay	3	157	37	foodImage.69	FOODEEG_Images\0693.jpg	YN	Left	Yes	1.14807739999924	0	916074	252
1791.26953125	1.14807739999924	health	choicePhaseStart	3	157	37	foodImage.69	FOODEEG_Images\0693.jpg	YN	Left	Yes	1.14807739999924	0	917131	253
1792.408203125	0	health	response	3	157	37	foodImage.69	FOODEEG_Images\0693.jpg	YN	Left	Yes	1.14807739999924	0	917714	234
1793.44921875	1	health	trialStart	3	158	38	foodImage.120	FOODEEG_Images\0928.jpg	NY	Left	No	1.01014450000002	0	918247	251
1794.48828125	2	health	foodImageDisplay	3	158	38	foodImage.120	FOODEEG_Images\0928.jpg	NY	Left	No	1.01014450000002	0	918779	252
1796.55078125	1.01014450000002	health	choicePhaseStart	3	158	38	foodImage.120	FOODEEG_Images\0928.jpg	NY	Left	No	1.01014450000002	0	919835	253
1797.55078125	0	health	response	3	158	38	foodImage.120	FOODEEG_Images\0928.jpg	NY	Left	No	1.01014450000002	0	920347	234
1798.595703125	1	health	trialStart	3	159	39	foodImage.43	FOODEEG_Images\0445.jpg	YN	Left	Yes	0.562972600000649	0	920882	251
1799.65234375	2	health	foodImageDisplay	3	159	39	foodImage.43	FOODEEG_Images\0445.jpg	YN	Left	Yes	0.562972600000649	0	921423	252
1801.716796875	0.562972600000649	health	choicePhaseStart	3	159	39	foodImage.43	FOODEEG_Images\0445.jpg	YN	Left	Yes	0.562972600000649	0	922480	253
1802.271484375	0	health	response	3	159	39	foodImage.43	FOODEEG_Images\0445.jpg	YN	Left	Yes	0.562972600000649	0	922764	234
1803.314453125	1	taste	trialStart	3	160	40	foodImage.111	FOODEEG_Images\0919.jpg	YN	Right	No	0.951681300000928	0	923298	251
1804.3515625	2	taste	foodImageDisplay	3	160	40	foodImage.111	FOODEEG_Images\0919.jpg	YN	Right	No	0.951681300000928	0	923829	252
1806.416015625	0.951681300000928	taste	choicePhaseStart	3	160	40	foodImage.111	FOODEEG_Images\0919.jpg	YN	Right	No	0.951681300000928	0	924886	253
1807.359375	0	taste	response	3	160	40	foodImage.111	FOODEEG_Images\0919.jpg	YN	Right	No	0.951681300000928	0	925369	235
1808.40234375	1	taste	trialStart	3	161	41	foodImage.52	FOODEEG_Images\0539.jpg	NY	Right	Yes	1.2141689	0	925903	251
1809.458984375	2	taste	foodImageDisplay	3	161	41	foodImage.52	FOODEEG_Images\0539.jpg	NY	Right	Yes	1.2141689	0	926444	252
1811.521484375	1.2141689	taste	choicePhaseStart	3	161	41	foodImage.52	FOODEEG_Images\0539.jpg	NY	Right	Yes	1.2141689	0	927500	253
1812.7265625	0	taste	response	3	161	41	foodImage.52	FOODEEG_Images\0539.jpg	NY	Right	Yes	1.2141689	0	928117	235
1813.76953125	1	taste	trialStart	3	162	42	foodImage.43	FOODEEG_Images\0445.jpg	YN	Left	Yes	0.860979299999599	0	928651	251
1814.82421875	2	taste	foodImageDisplay	3	162	42	foodImage.43	FOODEEG_Images\0445.jpg	YN	Left	Yes	0.860979299999599	0	929191	252
1816.890625	0.860979299999599	taste	choicePhaseStart	3	162	42	foodImage.43	FOODEEG_Images\0445.jpg	YN	Left	Yes	0.860979299999599	0	930249	253
1817.7421875	0	taste	response	3	162	42	foodImage.43	FOODEEG_Images\0445.jpg	YN	Left	Yes	0.860979299999599	0	930685	234
1818.787109375	1	taste	trialStart	3	163	43	foodImage.1	FOODEEG_Images\0004.jpg	NY	Right	Yes	2.29491220000091	0	931220	251
1819.826171875	2	taste	foodImageDisplay	3	163	43	foodImage.1	FOODEEG_Images\0004.jpg	NY	Right	Yes	2.29491220000091	0	931752	252
1821.896484375	2.29491220000091	taste	choicePhaseStart	3	163	43	foodImage.1	FOODEEG_Images\0004.jpg	NY	Right	Yes	2.29491220000091	0	932812	253
1824.181640625	0	taste	response	3	163	43	foodImage.1	FOODEEG_Images\0004.jpg	NY	Right	Yes	2.29491220000091	0	933982	235
1825.224609375	1	health	trialStart	3	164	44	foodImage.104	FOODEEG_Images\0912.jpg	YN	Right	No	2.17610560000139	0	934516	251
1826.263671875	2	health	foodImageDisplay	3	164	44	foodImage.104	FOODEEG_Images\0912.jpg	YN	Right	No	2.17610560000139	0	935048	252
1828.328125	2.17610560000139	health	choicePhaseStart	3	164	44	foodImage.104	FOODEEG_Images\0912.jpg	YN	Right	No	2.17610560000139	0	936105	253
1830.494140625	0	health	response	3	164	44	foodImage.104	FOODEEG_Images\0912.jpg	YN	Right	No	2.17610560000139	0	937214	235
1831.537109375	1	taste	trialStart	3	165	45	foodImage.50	FOODEEG_Images\0529.jpg	YN	Right	No	1.02957539999989	0	937748	251
1832.595703125	2	taste	foodImageDisplay	3	165	45	foodImage.50	FOODEEG_Images\0529.jpg	YN	Right	No	1.02957539999989	0	938290	252
1834.658203125	1.02957539999989	taste	choicePhaseStart	3	165	45	foodImage.50	FOODEEG_Images\0529.jpg	YN	Right	No	1.02957539999989	0	939346	253
1835.677734375	0	taste	response	3	165	45	foodImage.50	FOODEEG_Images\0529.jpg	YN	Right	No	1.02957539999989	0	939868	235
1836.720703125	1	decision	trialStart	3	166	46	foodImage.51	FOODEEG_Images\0536.jpg	YN	Left	Yes	0.90430329999981	0	940402	251
1837.765625	2	decision	foodImageDisplay	3	166	46	foodImage.51	FOODEEG_Images\0536.jpg	YN	Left	Yes	0.90430329999981	0	940937	252
1839.830078125	0.90430329999981	decision	choicePhaseStart	3	166	46	foodImage.51	FOODEEG_Images\0536.jpg	YN	Left	Yes	0.90430329999981	0	941994	253
1840.7265625	0	decision	response	3	166	46	foodImage.51	FOODEEG_Images\0536.jpg	YN	Left	Yes	0.90430329999981	0	942453	234
1841.767578125	1	taste	trialStart	3	167	47	foodImage.92	FOODEEG_Images\0900.jpg	NY	Left	No	1.06497769999987	0	942986	251
1842.806640625	2	taste	foodImageDisplay	3	167	47	foodImage.92	FOODEEG_Images\0900.jpg	NY	Left	No	1.06497769999987	0	943518	252
1844.869140625	1.06497769999987	taste	choicePhaseStart	3	167	47	foodImage.92	FOODEEG_Images\0900.jpg	NY	Left	No	1.06497769999987	0	944574	253
1845.92578125	0	taste	response	3	167	47	foodImage.92	FOODEEG_Images\0900.jpg	NY	Left	No	1.06497769999987	0	945115	234
1846.96875	1	taste	trialStart	3	168	48	foodImage.65	FOODEEG_Images\0658.jpg	YN	Right	No	0.854306499999439	0	945649	251
1848.009765625	2	taste	foodImageDisplay	3	168	48	foodImage.65	FOODEEG_Images\0658.jpg	YN	Right	No	0.854306499999439	0	946182	252
1850.072265625	0.854306499999439	taste	choicePhaseStart	3	168	48	foodImage.65	FOODEEG_Images\0658.jpg	YN	Right	No	0.854306499999439	0	947238	253
1850.91796875	0	taste	response	3	168	48	foodImage.65	FOODEEG_Images\0658.jpg	YN	Right	No	0.854306499999439	0	947671	235
1851.9609375	1	health	trialStart	3	169	49	foodImage.48	FOODEEG_Images\0494.jpg	NY	Left	No	0.856002000000444	0	948205	251
1853.001953125	2	health	foodImageDisplay	3	169	49	foodImage.48	FOODEEG_Images\0494.jpg	NY	Left	No	0.856002000000444	0	948738	252
1855.068359375	0.856002000000444	health	choicePhaseStart	3	169	49	foodImage.48	FOODEEG_Images\0494.jpg	NY	Left	No	0.856002000000444	0	949796	253
1855.91796875	0	health	response	3	169	49	foodImage.48	FOODEEG_Images\0494.jpg	NY	Left	No	0.856002000000444	0	950231	234
1856.958984375	1	health	trialStart	3	170	50	foodImage.61	FOODEEG_Images\0640.jpg	NY	Right	Yes	1.18119359999946	0	950764	251
1858.001953125	2	health	foodImageDisplay	3	170	50	foodImage.61	FOODEEG_Images\0640.jpg	NY	Right	Yes	1.18119359999946	0	951298	252
1860.064453125	1.18119359999946	health	choicePhaseStart	3	170	50	foodImage.61	FOODEEG_Images\0640.jpg	NY	Right	Yes	1.18119359999946	0	952354	253
1861.236328125	0	health	response	3	170	50	foodImage.61	FOODEEG_Images\0640.jpg	NY	Right	Yes	1.18119359999946	0	952954	235
1862.279296875	1	taste	trialStart	3	171	51	foodImage.84	FOODEEG_Images\0830.jpg	NY	Right	Yes	0.788445000000138	0	953488	251
1863.337890625	2	taste	foodImageDisplay	3	171	51	foodImage.84	FOODEEG_Images\0830.jpg	NY	Right	Yes	0.788445000000138	0	954030	252
1865.40234375	0.788445000000138	taste	choicePhaseStart	3	171	51	foodImage.84	FOODEEG_Images\0830.jpg	NY	Right	Yes	0.788445000000138	0	955087	253
1866.181640625	0	taste	response	3	171	51	foodImage.84	FOODEEG_Images\0830.jpg	NY	Right	Yes	0.788445000000138	0	955486	235
1867.224609375	1	health	trialStart	3	172	52	foodImage.71	FOODEEG_Images\0713.jpg	NY	Left	No	0.738941699999486	0	956020	251
1868.267578125	2	health	foodImageDisplay	3	172	52	foodImage.71	FOODEEG_Images\0713.jpg	NY	Left	No	0.738941699999486	0	956554	252
1870.337890625	0.738941699999486	health	choicePhaseStart	3	172	52	foodImage.71	FOODEEG_Images\0713.jpg	NY	Left	No	0.738941699999486	0	957614	253
1871.068359375	0	health	response	3	172	52	foodImage.71	FOODEEG_Images\0713.jpg	NY	Left	No	0.738941699999486	0	957988	234
1872.11328125	1	decision	trialStart	3	173	53	foodImage.113	FOODEEG_Images\0921.jpg	YN	Right	No	1.24502539999958	0	958523	251
1873.15234375	2	decision	foodImageDisplay	3	173	53	foodImage.113	FOODEEG_Images\0921.jpg	YN	Right	No	1.24502539999958	0	959055	252
1875.216796875	1.24502539999958	decision	choicePhaseStart	3	173	53	foodImage.113	FOODEEG_Images\0921.jpg	YN	Right	No	1.24502539999958	0	960112	253
1876.453125	0	decision	response	3	173	53	foodImage.113	FOODEEG_Images\0921.jpg	YN	Right	No	1.24502539999958	0	960745	235
1877.494140625	1	decision	trialStart	3	174	54	foodImage.54	FOODEEG_Images\0560.jpg	YN	Left	Yes	0.75610339999912	0	961278	251
1878.5546875	2	decision	foodImageDisplay	3	174	54	foodImage.54	FOODEEG_Images\0560.jpg	YN	Left	Yes	0.75610339999912	0	961821	252
1880.6171875	0.75610339999912	decision	choicePhaseStart	3	174	54	foodImage.54	FOODEEG_Images\0560.jpg	YN	Left	Yes	0.75610339999912	0	962877	253
1881.365234375	0	decision	response	3	174	54	foodImage.54	FOODEEG_Images\0560.jpg	YN	Left	Yes	0.75610339999912	0	963260	234
1882.408203125	1	taste	trialStart	3	175	55	foodImage.61	FOODEEG_Images\0640.jpg	YN	Left	Yes	1.20468240000082	0	963794	251
1883.45703125	2	taste	foodImageDisplay	3	175	55	foodImage.61	FOODEEG_Images\0640.jpg	YN	Left	Yes	1.20468240000082	0	964331	252
1885.51953125	1.20468240000082	taste	choicePhaseStart	3	175	55	foodImage.61	FOODEEG_Images\0640.jpg	YN	Left	Yes	1.20468240000082	0	965387	253
1886.71484375	0	taste	response	3	175	55	foodImage.61	FOODEEG_Images\0640.jpg	YN	Left	Yes	1.20468240000082	0	965999	234
1887.759765625	1	decision	trialStart	3	176	56	foodImage.41	FOODEEG_Images\0409.jpg	NY	Right	Yes	1.04605640000045	0	966534	251
1888.8046875	2	decision	foodImageDisplay	3	176	56	foodImage.41	FOODEEG_Images\0409.jpg	NY	Right	Yes	1.04605640000045	0	967069	252
1890.87109375	1.04605640000045	decision	choicePhaseStart	3	176	56	foodImage.41	FOODEEG_Images\0409.jpg	NY	Right	Yes	1.04605640000045	0	968127	253
1891.908203125	0	decision	response	3	176	56	foodImage.41	FOODEEG_Images\0409.jpg	NY	Right	Yes	1.04605640000045	0	968658	235
1892.951171875	1	decision	trialStart	3	177	57	foodImage.18	FOODEEG_Images\0202.jpg	NY	Right	Yes	0.604903999999806	0	969192	251
1894.0078125	2	decision	foodImageDisplay	3	177	57	foodImage.18	FOODEEG_Images\0202.jpg	NY	Right	Yes	0.604903999999806	0	969733	252
1896.072265625	0.604903999999806	decision	choicePhaseStart	3	177	57	foodImage.18	FOODEEG_Images\0202.jpg	NY	Right	Yes	0.604903999999806	0	970790	253
1896.66796875	0	decision	response	3	177	57	foodImage.18	FOODEEG_Images\0202.jpg	NY	Right	Yes	0.604903999999806	0	971095	235
1897.712890625	1	health	trialStart	3	178	58	foodImage.73	FOODEEG_Images\0717.jpg	YN	Left	Yes	1.84606140000142	0	971630	251
1898.767578125	2	health	foodImageDisplay	3	178	58	foodImage.73	FOODEEG_Images\0717.jpg	YN	Left	Yes	1.84606140000142	0	972170	252
1900.830078125	1.84606140000142	health	choicePhaseStart	3	178	58	foodImage.73	FOODEEG_Images\0717.jpg	YN	Left	Yes	1.84606140000142	0	973226	253
1902.66796875	0	health	response	3	178	58	foodImage.73	FOODEEG_Images\0717.jpg	YN	Left	Yes	1.84606140000142	0	974167	234
1903.7109375	1	taste	trialStart	3	179	59	foodImage.49	FOODEEG_Images\0515.jpg	NY	Right	Yes	0.772958800000197	0	974701	251
1904.751953125	2	taste	foodImageDisplay	3	179	59	foodImage.49	FOODEEG_Images\0515.jpg	NY	Right	Yes	0.772958800000197	0	975234	252
1906.814453125	0.772958800000197	taste	choicePhaseStart	3	179	59	foodImage.49	FOODEEG_Images\0515.jpg	NY	Right	Yes	0.772958800000197	0	976290	253
1907.580078125	0	taste	response	3	179	59	foodImage.49	FOODEEG_Images\0515.jpg	NY	Right	Yes	0.772958800000197	0	976682	235
1908.62109375	1	taste	trialStart	3	180	60	foodImage.70	FOODEEG_Images\0705.jpg	YN	Left	Yes	0.762527799999589	0	977215	251
1909.681640625	2	taste	foodImageDisplay	3	180	60	foodImage.70	FOODEEG_Images\0705.jpg	YN	Left	Yes	0.762527799999589	0	977758	252
1911.74609375	0.762527799999589	taste	choicePhaseStart	3	180	60	foodImage.70	FOODEEG_Images\0705.jpg	YN	Left	Yes	0.762527799999589	0	978815	253
1912.5	0	taste	response	3	180	60	foodImage.70	FOODEEG_Images\0705.jpg	YN	Left	Yes	0.762527799999589	0	979201	234
1914.541015625	6.27734375	n/a	blockEnd	n/a	n/a	n/a	n/a	n/a	n/a	n/a	n/a	n/a	n/a	980246	254
1920.818359375	2	n/a	blockStart	4	n/a	n/a	n/a	n/a	n/a	n/a	n/a	n/a	n/a	983460	250
1922.8515625	1	decision	trialStart	4	181	1	foodImage.84	FOODEEG_Images\0830.jpg	NY	Right	Yes	0.70090319999872	0	984501	251
1923.912109375	2	decision	foodImageDisplay	4	181	1	foodImage.84	FOODEEG_Images\0830.jpg	NY	Right	Yes	0.70090319999872	0	985044	252
1925.974609375	0.70090319999872	decision	choicePhaseStart	4	181	1	foodImage.84	FOODEEG_Images\0830.jpg	NY	Right	Yes	0.70090319999872	0	986100	253
1926.666015625	0	decision	response	4	181	1	foodImage.84	FOODEEG_Images\0830.jpg	NY	Right	Yes	0.70090319999872	0	986454	235
1927.708984375	1	health	trialStart	4	182	2	foodImage.56	FOODEEG_Images\0586.jpg	YN	Right	No	1.07297029999972	0	986988	251
1928.75390625	2	health	foodImageDisplay	4	182	2	foodImage.56	FOODEEG_Images\0586.jpg	YN	Right	No	1.07297029999972	0	987523	252
1930.818359375	1.07297029999972	health	choicePhaseStart	4	182	2	foodImage.56	FOODEEG_Images\0586.jpg	YN	Right	No	1.07297029999972	0	988580	253
1931.8828125	0	health	response	4	182	2	foodImage.56	FOODEEG_Images\0586.jpg	YN	Right	No	1.07297029999972	0	989125	235
1932.92578125	1	taste	trialStart	4	183	3	foodImage.62	FOODEEG_Images\0644.jpg	YN	Right	No	1.69421780000084	0	989659	251
1933.982421875	2	taste	foodImageDisplay	4	183	3	foodImage.62	FOODEEG_Images\0644.jpg	YN	Right	No	1.69421780000084	0	990200	252
1936.044921875	1.69421780000084	taste	choicePhaseStart	4	183	3	foodImage.62	FOODEEG_Images\0644.jpg	YN	Right	No	1.69421780000084	0	991256	253
1937.73046875	0	taste	response	4	183	3	foodImage.62	FOODEEG_Images\0644.jpg	YN	Right	No	1.69421780000084	0	992119	235
1938.7734375	1	decision	trialStart	4	184	4	foodImage.77	FOODEEG_Images\0771.jpg	NY	Right	Yes	0.681889600000432	0	992653	251
1939.833984375	2	decision	foodImageDisplay	4	184	4	foodImage.77	FOODEEG_Images\0771.jpg	NY	Right	Yes	0.681889600000432	0	993196	252
1941.896484375	0.681889600000432	decision	choicePhaseStart	4	184	4	foodImage.77	FOODEEG_Images\0771.jpg	NY	Right	Yes	0.681889600000432	0	994252	253
1942.5703125	0	decision	response	4	184	4	foodImage.77	FOODEEG_Images\0771.jpg	NY	Right	Yes	0.681889600000432	0	994597	235
1943.61328125	1	taste	trialStart	4	185	5	foodImage.56	FOODEEG_Images\0586.jpg	YN	Right	No	0.645131199999014	0	995131	251
1944.654296875	2	taste	foodImageDisplay	4	185	5	foodImage.56	FOODEEG_Images\0586.jpg	YN	Right	No	0.645131199999014	0	995664	252
1946.71875	0.645131199999014	taste	choicePhaseStart	4	185	5	foodImage.56	FOODEEG_Images\0586.jpg	YN	Right	No	0.645131199999014	0	996721	253
1947.353515625	0	taste	response	4	185	5	foodImage.56	FOODEEG_Images\0586.jpg	YN	Right	No	0.645131199999014	0	997046	235
1948.396484375	1	taste	trialStart	4	186	6	foodImage.97	FOODEEG_Images\0905.jpg	NY	Left	No	0.972508200000448	0	997580	251
1949.435546875	2	taste	foodImageDisplay	4	186	6	foodImage.97	FOODEEG_Images\0905.jpg	NY	Left	No	0.972508200000448	0	998112	252
1951.5	0.972508200000448	taste	choicePhaseStart	4	186	6	foodImage.97	FOODEEG_Images\0905.jpg	NY	Left	No	0.972508200000448	0	999169	253
1952.46484375	0	taste	response	4	186	6	foodImage.97	FOODEEG_Images\0905.jpg	NY	Left	No	0.972508200000448	0	999663	234
1953.509765625	1	decision	trialStart	4	187	7	foodImage.8	FOODEEG_Images\0136.jpg	YN	Left	Yes	0.901518200000282	0	1000198	251
1954.55078125	2	decision	foodImageDisplay	4	187	7	foodImage.8	FOODEEG_Images\0136.jpg	YN	Left	Yes	0.901518200000282	0	1000731	252
1956.61328125	0.901518200000282	decision	choicePhaseStart	4	187	7	foodImage.8	FOODEEG_Images\0136.jpg	YN	Left	Yes	0.901518200000282	0	1001787	253
1957.505859375	0	decision	response	4	187	7	foodImage.8	FOODEEG_Images\0136.jpg	YN	Left	Yes	0.901518200000282	0	1002244	234
1958.548828125	1	health	trialStart	4	188	8	foodImage.39	FOODEEG_Images\0367.jpg	NY	Left	No	1.00782660000004	0	1002778	251
1959.5859375	2	health	foodImageDisplay	4	188	8	foodImage.39	FOODEEG_Images\0367.jpg	NY	Left	No	1.00782660000004	0	1003309	252
1961.650390625	1.00782660000004	health	choicePhaseStart	4	188	8	foodImage.39	FOODEEG_Images\0367.jpg	NY	Left	No	1.00782660000004	0	1004366	253
1962.6484375	0	health	response	4	188	8	foodImage.39	FOODEEG_Images\0367.jpg	NY	Left	No	1.00782660000004	0	1004877	234
1963.693359375	1	taste	trialStart	4	189	9	foodImage.55	FOODEEG_Images\0567.jpg	YN	Left	Yes	0.967050399998698	0	1005412	251
1964.748046875	2	taste	foodImageDisplay	4	189	9	foodImage.55	FOODEEG_Images\0567.jpg	YN	Left	Yes	0.967050399998698	0	1005952	252
1966.810546875	0.967050399998698	taste	choicePhaseStart	4	189	9	foodImage.55	FOODEEG_Images\0567.jpg	YN	Left	Yes	0.967050399998698	0	1007008	253
1967.76953125	0	taste	response	4	189	9	foodImage.55	FOODEEG_Images\0567.jpg	YN	Left	Yes	0.967050399998698	0	1007499	234
1968.8125	1	decision	trialStart	4	190	10	foodImage.117	FOODEEG_Images\0925.jpg	YN	Right	No	1.20699160000004	0	1008033	251
1969.8515625	2	decision	foodImageDisplay	4	190	10	foodImage.117	FOODEEG_Images\0925.jpg	YN	Right	No	1.20699160000004	0	1008565	252
1971.9140625	1.20699160000004	decision	choicePhaseStart	4	190	10	foodImage.117	FOODEEG_Images\0925.jpg	YN	Right	No	1.20699160000004	0	1009621	253
1973.11328125	0	decision	response	4	190	10	foodImage.117	FOODEEG_Images\0925.jpg	YN	Right	No	1.20699160000004	0	1010235	235
1974.15625	1	taste	trialStart	4	191	11	foodImage.103	FOODEEG_Images\0911.jpg	YN	Right	No	0.95551180000075	0	1010769	251
1975.19921875	2	taste	foodImageDisplay	4	191	11	foodImage.103	FOODEEG_Images\0911.jpg	YN	Right	No	0.95551180000075	0	1011303	252
1977.26171875	0.95551180000075	taste	choicePhaseStart	4	191	11	foodImage.103	FOODEEG_Images\0911.jpg	YN	Right	No	0.95551180000075	0	1012359	253
1978.208984375	0	taste	response	4	191	11	foodImage.103	FOODEEG_Images\0911.jpg	YN	Right	No	0.95551180000075	0	1012844	235
1979.251953125	1	health	trialStart	4	192	12	foodImage.31	FOODEEG_Images\0294.jpg	NY	Left	No	0.799539999999979	0	1013378	251
1980.298828125	2	health	foodImageDisplay	4	192	12	foodImage.31	FOODEEG_Images\0294.jpg	NY	Left	No	0.799539999999979	0	1013914	252
1982.36328125	0.799539999999979	health	choicePhaseStart	4	192	12	foodImage.31	FOODEEG_Images\0294.jpg	NY	Left	No	0.799539999999979	0	1014971	253
1983.15234375	0	health	response	4	192	12	foodImage.31	FOODEEG_Images\0294.jpg	NY	Left	No	0.799539999999979	0	1015375	234
