onset	duration	trial_type	event_type	block	trial_total	trial_in_block	food_image_code	food_image_path	button_position	resp_position	resp_choice	choice_rt	resp_too_slow	sample	trigger
266.369140625	2	n/a	blockStart	1	n/a	n/a	n/a	n/a	n/a	n/a	n/a	n/a	n/a	136382	250
268.408203125	1	decision	trialStart	1	1	1	foodImage.95	FOODEEG_Images\0903.jpg	YN	Right	No	2.47598259994993	0	137426	251
269.451171875	2	decision	foodImageDisplay	1	1	1	foodImage.95	FOODEEG_Images\0903.jpg	YN	Right	No	2.47598259994993	0	137960	252
271.515625	2.47598259994993	decision	choicePhaseStart	1	1	1	foodImage.95	FOODEEG_Images\0903.jpg	YN	Right	No	2.47598259994993	0	139017	253
273.984375	0	decision	response	1	1	1	foodImage.95	FOODEEG_Images\0903.jpg	YN	Right	No	2.47598259994993	0	140281	235
275.072265625	1	taste	trialStart	1	2	2	foodImage.59	FOODEEG_Images\0607.jpg	NY	Right	Yes	1.11976859997958	0	140838	251
276.119140625	2	taste	foodImageDisplay	1	2	2	foodImage.59	FOODEEG_Images\0607.jpg	NY	Right	Yes	1.11976859997958	0	141374	252
278.18359375	1.11976859997958	taste	choicePhaseStart	1	2	2	foodImage.59	FOODEEG_Images\0607.jpg	NY	Right	Yes	1.11976859997958	0	142431	253
279.294921875	0	taste	response	1	2	2	foodImage.59	FOODEEG_Images\0607.jpg	NY	Right	Yes	1.11976859997958	0	143000	235
280.34765625	1	decision	trialStart	1	3	3	foodImage.57	FOODEEG_Images\0587.jpg	YN	Left	Yes	0.98352770000929	0	143539	251
281.390625	2	decision	foodImageDisplay	1	3	3	foodImage.57	FOODEEG_Images\0587.jpg	YN	Left	Yes	0.98352770000929	0	144073	252
283.455078125	0.98352770000929	decision	choicePhaseStart	1	3	3	foodImage.57	FOODEEG_Images\0587.jpg	YN	Left	Yes	0.98352770000929	0	145130	253
284.4296875	0	decision	response	1	3	3	foodImage.57	FOODEEG_Images\0587.jpg	YN	Left	Yes	0.98352770000929	0	145629	234
285.470703125	1	decision	trialStart	1	4	4	foodImage.111	FOODEEG_Images\0919.jpg	YN	Right	No	0.750306900008582	0	146162	251
286.509765625	2	decision	foodImageDisplay	1	4	4	foodImage.111	FOODEEG_Images\0919.jpg	YN	Right	No	0.750306900008582	0	146694	252
288.57421875	0.750306900008582	decision	choicePhaseStart	1	4	4	foodImage.111	FOODEEG_Images\0919.jpg	YN	Right	No	0.750306900008582	0	147751	253
289.318359375	0	decision	response	1	4	4	foodImage.111	FOODEEG_Images\0919.jpg	YN	Right	No	0.750306900008582	0	148132	235
290.365234375	1	taste	trialStart	1	5	5	foodImage.117	FOODEEG_Images\0925.jpg	YN	Right	No	1.45752689999063	0	148668	251
291.419921875	2	taste	foodImageDisplay	1	5	5	foodImage.117	FOODEEG_Images\0925.jpg	YN	Right	No	1.45752689999063	0	149208	252
293.484375	1.45752689999063	taste	choicePhaseStart	1	5	5	foodImage.117	FOODEEG_Images\0925.jpg	YN	Right	No	1.45752689999063	0	150265	253
294.93359375	0	taste	response	1	5	5	foodImage.117	FOODEEG_Images\0925.jpg	YN	Right	No	1.45752689999063	0	151007	235
295.984375	1	health	trialStart	1	6	6	foodImage.114	FOODEEG_Images\0922.jpg	NY	Right	Yes	1.46366459998535	0	151545	251
297.021484375	2	health	foodImageDisplay	1	6	6	foodImage.114	FOODEEG_Images\0922.jpg	NY	Right	Yes	1.46366459998535	0	152076	252
299.0859375	1.46366459998535	health	choicePhaseStart	1	6	6	foodImage.114	FOODEEG_Images\0922.jpg	NY	Right	Yes	1.46366459998535	0	153133	253
300.54296875	0	health	response	1	6	6	foodImage.114	FOODEEG_Images\0922.jpg	NY	Right	Yes	1.46366459998535	0	153879	235
301.583984375	1	health	trialStart	1	7	7	foodImage.42	FOODEEG_Images\0438.jpg	YN	Left	Yes	1.16136119997827	0	154412	251
302.677734375	2	health	foodImageDisplay	1	7	7	foodImage.42	FOODEEG_Images\0438.jpg	YN	Left	Yes	1.16136119997827	0	154972	252
304.740234375	1.16136119997827	health	choicePhaseStart	1	7	7	foodImage.42	FOODEEG_Images\0438.jpg	YN	Left	Yes	1.16136119997827	0	156028	253
305.89453125	0	health	response	1	7	7	foodImage.42	FOODEEG_Images\0438.jpg	YN	Left	Yes	1.16136119997827	0	156619	234
306.9375	1	decision	trialStart	1	8	8	foodImage.65	FOODEEG_Images\0658.jpg	YN	Left	Yes	1.98059290001402	0	157153	251
307.978515625	2	decision	foodImageDisplay	1	8	8	foodImage.65	FOODEEG_Images\0658.jpg	YN	Left	Yes	1.98059290001402	0	157686	252
310.041015625	1.98059290001402	decision	choicePhaseStart	1	8	8	foodImage.65	FOODEEG_Images\0658.jpg	YN	Left	Yes	1.98059290001402	0	158742	253
312.013671875	0	decision	response	1	8	8	foodImage.65	FOODEEG_Images\0658.jpg	YN	Left	Yes	1.98059290001402	0	159752	234
313.056640625	1	decision	trialStart	1	9	9	foodImage.39	FOODEEG_Images\0367.jpg	NY	Right	Yes	1.81795550003881	0	160286	251
314.091796875	2	decision	foodImageDisplay	1	9	9	foodImage.39	FOODEEG_Images\0367.jpg	NY	Right	Yes	1.81795550003881	0	160816	252
316.15625	1.81795550003881	decision	choicePhaseStart	1	9	9	foodImage.39	FOODEEG_Images\0367.jpg	NY	Right	Yes	1.81795550003881	0	161873	253
317.96484375	0	decision	response	1	9	9	foodImage.39	FOODEEG_Images\0367.jpg	NY	Right	Yes	1.81795550003881	0	162799	235
319.009765625	1	health	trialStart	1	10	10	foodImage.2	FOODEEG_Images\0028.jpg	NY	Left	No	0.937667999998666	0	163334	251
320.052734375	2	health	foodImageDisplay	1	10	10	foodImage.2	FOODEEG_Images\0028.jpg	NY	Left	No	0.937667999998666	0	163868	252
322.1171875	0.937667999998666	health	choicePhaseStart	1	10	10	foodImage.2	FOODEEG_Images\0028.jpg	NY	Left	No	0.937667999998666	0	164925	253
323.044921875	0	health	response	1	10	10	foodImage.2	FOODEEG_Images\0028.jpg	NY	Left	No	0.937667999998666	0	165400	234
324.08984375	1	taste	trialStart	1	11	11	foodImage.68	FOODEEG_Images\0685.jpg	NY	Right	Yes	2.17560529999901	0	165935	251
325.166015625	2	taste	foodImageDisplay	1	11	11	foodImage.68	FOODEEG_Images\0685.jpg	NY	Right	Yes	2.17560529999901	0	166486	252
327.228515625	2.17560529999901	taste	choicePhaseStart	1	11	11	foodImage.68	FOODEEG_Images\0685.jpg	NY	Right	Yes	2.17560529999901	0	167542	253
329.396484375	0	taste	response	1	11	11	foodImage.68	FOODEEG_Images\0685.jpg	NY	Right	Yes	2.17560529999901	0	168652	235
330.4375	1	taste	trialStart	1	12	12	foodImage.86	FOODEEG_Images\0844.jpg	NY	Right	Yes	2.13481830002274	0	169185	251
331.49609375	2	taste	foodImageDisplay	1	12	12	foodImage.86	FOODEEG_Images\0844.jpg	NY	Right	Yes	2.13481830002274	0	169727	252
333.55859375	2.13481830002274	taste	choicePhaseStart	1	12	12	foodImage.86	FOODEEG_Images\0844.jpg	NY	Right	Yes	2.13481830002274	0	170783	253
335.685546875	0	taste	response	1	12	12	foodImage.86	FOODEEG_Images\0844.jpg	NY	Right	Yes	2.13481830002274	0	171872	235
336.728515625	1	health	trialStart	1	13	13	foodImage.13	FOODEEG_Images\0183.jpg	NY	Right	Yes	1.4675093999831	0	172406	251
337.771484375	2	health	foodImageDisplay	1	13	13	foodImage.13	FOODEEG_Images\0183.jpg	NY	Right	Yes	1.4675093999831	0	172940	252
339.833984375	1.4675093999831	health	choicePhaseStart	1	13	13	foodImage.13	FOODEEG_Images\0183.jpg	NY	Right	Yes	1.4675093999831	0	173996	253
341.29296875	0	health	response	1	13	13	foodImage.13	FOODEEG_Images\0183.jpg	NY	Right	Yes	1.4675093999831	0	174743	235
342.3359375	1	health	trialStart	1	14	14	foodImage.116	FOODEEG_Images\0924.jpg	NY	Left	No	2.34332600003108	0	175277	251
343.373046875	2	health	foodImageDisplay	1	14	14	foodImage.116	FOODEEG_Images\0924.jpg	NY	Left	No	2.34332600003108	0	175808	252
345.4375	2.34332600003108	health	choicePhaseStart	1	14	14	foodImage.116	FOODEEG_Images\0924.jpg	NY	Left	No	2.34332600003108	0	176865	253
347.7734375	0	health	response	1	14	14	foodImage.116	FOODEEG_Images\0924.jpg	NY	Left	No	2.34332600003108	0	178061	234
348.8125	1	taste	trialStart	1	15	15	foodImage.25	FOODEEG_Images\0261.jpg	YN	Right	No	1.27983979997225	0	178593	251
349.853515625	2	taste	foodImageDisplay	1	15	15	foodImage.25	FOODEEG_Images\0261.jpg	YN	Right	No	1.27983979997225	0	179126	252
351.916015625	1.27983979997225	taste	choicePhaseStart	1	15	15	foodImage.25	FOODEEG_Images\0261.jpg	YN	Right	No	1.27983979997225	0	180182	253
353.1875	0	taste	response	1	15	15	foodImage.25	FOODEEG_Images\0261.jpg	YN	Right	No	1.27983979997225	0	180833	235
354.23046875	1	health	trialStart	1	16	16	foodImage.31	FOODEEG_Images\0294.jpg	YN	Left	Yes	1.2999585000216	0	181367	251
355.2734375	2	health	foodImageDisplay	1	16	16	foodImage.31	FOODEEG_Images\0294.jpg	YN	Left	Yes	1.2999585000216	0	181901	252
357.3359375	1.2999585000216	health	choicePhaseStart	1	16	16	foodImage.31	FOODEEG_Images\0294.jpg	YN	Left	Yes	1.2999585000216	0	182957	253
358.626953125	0	health	response	1	16	16	foodImage.31	FOODEEG_Images\0294.jpg	YN	Left	Yes	1.2999585000216	0	183618	234
359.671875	1	taste	trialStart	1	17	17	foodImage.43	FOODEEG_Images\0445.jpg	YN	Right	No	1.36081500002183	0	184153	251
360.75	2	taste	foodImageDisplay	1	17	17	foodImage.43	FOODEEG_Images\0445.jpg	YN	Right	No	1.36081500002183	0	184705	252
362.8125	1.36081500002183	taste	choicePhaseStart	1	17	17	foodImage.43	FOODEEG_Images\0445.jpg	YN	Right	No	1.36081500002183	0	185761	253
364.1640625	0	taste	response	1	17	17	foodImage.43	FOODEEG_Images\0445.jpg	YN	Right	No	1.36081500002183	0	186453	235
365.205078125	1	decision	trialStart	1	18	18	foodImage.21	FOODEEG_Images\0234.jpg	NY	Right	Yes	1.01347720000194	0	186986	251
366.26171875	2	decision	foodImageDisplay	1	18	18	foodImage.21	FOODEEG_Images\0234.jpg	NY	Right	Yes	1.01347720000194	0	187527	252
368.32421875	1.01347720000194	decision	choicePhaseStart	1	18	18	foodImage.21	FOODEEG_Images\0234.jpg	NY	Right	Yes	1.01347720000194	0	188583	253
369.330078125	0	decision	response	1	18	18	foodImage.21	FOODEEG_Images\0234.jpg	NY	Right	Yes	1.01347720000194	0	189098	235
370.373046875	1	decision	trialStart	1	19	19	foodImage.61	FOODEEG_Images\0640.jpg	YN	Left	Yes	1.57282790000318	0	189632	251
371.416015625	2	decision	foodImageDisplay	1	19	19	foodImage.61	FOODEEG_Images\0640.jpg	YN	Left	Yes	1.57282790000318	0	190166	252
373.478515625	1.57282790000318	decision	choicePhaseStart	1	19	19	foodImage.61	FOODEEG_Images\0640.jpg	YN	Left	Yes	1.57282790000318	0	191222	253
375.04296875	0	decision	response	1	19	19	foodImage.61	FOODEEG_Images\0640.jpg	YN	Left	Yes	1.57282790000318	0	192023	234
376.083984375	1	taste	trialStart	1	20	20	foodImage.49	FOODEEG_Images\0515.jpg	YN	Right	No	1.35811600001762	0	192556	251
377.125	2	taste	foodImageDisplay	1	20	20	foodImage.49	FOODEEG_Images\0515.jpg	YN	Right	No	1.35811600001762	0	193089	252
379.1875	1.35811600001762	taste	choicePhaseStart	1	20	20	foodImage.49	FOODEEG_Images\0515.jpg	YN	Right	No	1.35811600001762	0	194145	253
380.5390625	0	taste	response	1	20	20	foodImage.49	FOODEEG_Images\0515.jpg	YN	Right	No	1.35811600001762	0	194837	235
381.587890625	1	taste	trialStart	1	21	21	foodImage.102	FOODEEG_Images\0910.jpg	NY	Left	No	1.00975999998627	0	195374	251
382.64453125	2	taste	foodImageDisplay	1	21	21	foodImage.102	FOODEEG_Images\0910.jpg	NY	Left	No	1.00975999998627	0	195915	252
384.70703125	1.00975999998627	taste	choicePhaseStart	1	21	21	foodImage.102	FOODEEG_Images\0910.jpg	NY	Left	No	1.00975999998627	0	196971	253
385.70703125	0	taste	response	1	21	21	foodImage.102	FOODEEG_Images\0910.jpg	NY	Left	No	1.00975999998627	0	197483	234
386.748046875	1	decision	trialStart	1	22	22	foodImage.15	FOODEEG_Images\0189.jpg	NY	Right	Yes	0.867621899989899	0	198016	251
387.80859375	2	decision	foodImageDisplay	1	22	22	foodImage.15	FOODEEG_Images\0189.jpg	NY	Right	Yes	0.867621899989899	0	198559	252
389.87109375	0.867621899989899	decision	choicePhaseStart	1	22	22	foodImage.15	FOODEEG_Images\0189.jpg	NY	Right	Yes	0.867621899989899	0	199615	253
390.73046875	0	decision	response	1	22	22	foodImage.15	FOODEEG_Images\0189.jpg	NY	Right	Yes	0.867621899989899	0	200055	235
391.7734375	1	health	trialStart	1	23	23	foodImage.10	FOODEEG_Images\0145.jpg	YN	Right	No	1.69091900001513	0	200589	251
392.83203125	2	health	foodImageDisplay	1	23	23	foodImage.10	FOODEEG_Images\0145.jpg	YN	Right	No	1.69091900001513	0	201131	252
394.896484375	1.69091900001513	health	choicePhaseStart	1	23	23	foodImage.10	FOODEEG_Images\0145.jpg	YN	Right	No	1.69091900001513	0	202188	253
396.578125	0	health	response	1	23	23	foodImage.10	FOODEEG_Images\0145.jpg	YN	Right	No	1.69091900001513	0	203049	235
397.62109375	1	decision	trialStart	1	24	24	foodImage.80	FOODEEG_Images\0796.jpg	NY	Right	Yes	0.749920499976724	0	203583	251
398.6796875	2	decision	foodImageDisplay	1	24	24	foodImage.80	FOODEEG_Images\0796.jpg	NY	Right	Yes	0.749920499976724	0	204125	252
400.740234375	0.749920499976724	decision	choicePhaseStart	1	24	24	foodImage.80	FOODEEG_Images\0796.jpg	NY	Right	Yes	0.749920499976724	0	205180	253
401.482421875	0	decision	response	1	24	24	foodImage.80	FOODEEG_Images\0796.jpg	NY	Right	Yes	0.749920499976724	0	205560	235
402.521484375	1	decision	trialStart	1	25	25	foodImage.84	FOODEEG_Images\0830.jpg	NY	Right	Yes	1.07854259997839	0	206092	251
403.58203125	2	decision	foodImageDisplay	1	25	25	foodImage.84	FOODEEG_Images\0830.jpg	NY	Right	Yes	1.07854259997839	0	206635	252
405.642578125	1.07854259997839	decision	choicePhaseStart	1	25	25	foodImage.84	FOODEEG_Images\0830.jpg	NY	Right	Yes	1.07854259997839	0	207690	253
406.712890625	0	decision	response	1	25	25	foodImage.84	FOODEEG_Images\0830.jpg	NY	Right	Yes	1.07854259997839	0	208238	235
407.755859375	1	taste	trialStart	1	26	26	foodImage.19	FOODEEG_Images\0225.jpg	YN	Left	Yes	1.08586509997258	0	208772	251
408.798828125	2	taste	foodImageDisplay	1	26	26	foodImage.19	FOODEEG_Images\0225.jpg	YN	Left	Yes	1.08586509997258	0	209306	252
410.859375	1.08586509997258	taste	choicePhaseStart	1	26	26	foodImage.19	FOODEEG_Images\0225.jpg	YN	Left	Yes	1.08586509997258	0	210361	253
411.9375	0	taste	response	1	26	26	foodImage.19	FOODEEG_Images\0225.jpg	YN	Left	Yes	1.08586509997258	0	210913	234
412.9765625	1	decision	trialStart	1	27	27	foodImage.113	FOODEEG_Images\0921.jpg	NY	Left	No	0.879902200016659	0	211445	251
414.01171875	2	decision	foodImageDisplay	1	27	27	foodImage.113	FOODEEG_Images\0921.jpg	NY	Left	No	0.879902200016659	0	211975	252
416.07421875	0.879902200016659	decision	choicePhaseStart	1	27	27	foodImage.113	FOODEEG_Images\0921.jpg	NY	Left	No	0.879902200016659	0	213031	253
416.9453125	0	decision	response	1	27	27	foodImage.113	FOODEEG_Images\0921.jpg	NY	Left	No	0.879902200016659	0	213477	234
417.98828125	1	taste	trialStart	1	28	28	foodImage.8	FOODEEG_Images\0136.jpg	YN	Right	No	0.83584630000405	0	214011	251
419.029296875	2	taste	foodImageDisplay	1	28	28	foodImage.8	FOODEEG_Images\0136.jpg	YN	Right	No	0.83584630000405	0	214544	252
421.09375	0.83584630000405	taste	choicePhaseStart	1	28	28	foodImage.8	FOODEEG_Images\0136.jpg	YN	Right	No	0.83584630000405	0	215601	253
421.921875	0	taste	response	1	28	28	foodImage.8	FOODEEG_Images\0136.jpg	YN	Right	No	0.83584630000405	0	216025	235
422.96484375	1	health	trialStart	1	29	29	foodImage.81	FOODEEG_Images\0797.jpg	YN	Left	Yes	1.41204009996727	0	216559	251
424.021484375	2	health	foodImageDisplay	1	29	29	foodImage.81	FOODEEG_Images\0797.jpg	YN	Left	Yes	1.41204009996727	0	217100	252
426.0859375	1.41204009996727	health	choicePhaseStart	1	29	29	foodImage.81	FOODEEG_Images\0797.jpg	YN	Left	Yes	1.41204009996727	0	218157	253
427.48828125	0	health	response	1	29	29	foodImage.81	FOODEEG_Images\0797.jpg	YN	Left	Yes	1.41204009996727	0	218875	234
428.533203125	1	decision	trialStart	1	30	30	foodImage.62	FOODEEG_Images\0644.jpg	YN	Left	Yes	2.7844093000167	0	219410	251
429.611328125	2	decision	foodImageDisplay	1	30	30	foodImage.62	FOODEEG_Images\0644.jpg	YN	Left	Yes	2.7844093000167	0	219962	252
431.671875	2.7844093000167	decision	choicePhaseStart	1	30	30	foodImage.62	FOODEEG_Images\0644.jpg	YN	Left	Yes	2.7844093000167	0	221017	253
434.44921875	0	decision	response	1	30	30	foodImage.62	FOODEEG_Images\0644.jpg	YN	Left	Yes	2.7844093000167	0	222439	234
435.4921875	1	taste	trialStart	1	31	31	foodImage.11	FOODEEG_Images\0180.jpg	YN	Right	No	1.35819810000248	0	222973	251
436.53125	2	taste	foodImageDisplay	1	31	31	foodImage.11	FOODEEG_Images\0180.jpg	YN	Right	No	1.35819810000248	0	223505	252
438.595703125	1.35819810000248	taste	choicePhaseStart	1	31	31	foodImage.11	FOODEEG_Images\0180.jpg	YN	Right	No	1.35819810000248	0	224562	253
439.9453125	0	taste	response	1	31	31	foodImage.11	FOODEEG_Images\0180.jpg	YN	Right	No	1.35819810000248	0	225253	235
440.98828125	1	health	trialStart	1	32	32	foodImage.102	FOODEEG_Images\0910.jpg	YN	Right	No	1.33550190000096	0	225787	251
442.025390625	2	health	foodImageDisplay	1	32	32	foodImage.102	FOODEEG_Images\0910.jpg	YN	Right	No	1.33550190000096	0	226318	252
444.087890625	1.33550190000096	health	choicePhaseStart	1	32	32	foodImage.102	FOODEEG_Images\0910.jpg	YN	Right	No	1.33550190000096	0	227374	253
445.416015625	0	health	response	1	32	32	foodImage.102	FOODEEG_Images\0910.jpg	YN	Right	No	1.33550190000096	0	228054	235
446.4609375	1	taste	trialStart	1	33	33	foodImage.62	FOODEEG_Images\0644.jpg	YN	Left	Yes	2.19486430002144	0	228589	251
447.51953125	2	taste	foodImageDisplay	1	33	33	foodImage.62	FOODEEG_Images\0644.jpg	YN	Left	Yes	2.19486430002144	0	229131	252
449.58203125	2.19486430002144	taste	choicePhaseStart	1	33	33	foodImage.62	FOODEEG_Images\0644.jpg	YN	Left	Yes	2.19486430002144	0	230187	253
451.767578125	0	taste	response	1	33	33	foodImage.62	FOODEEG_Images\0644.jpg	YN	Left	Yes	2.19486430002144	0	231306	234
452.80859375	1	health	trialStart	1	34	34	foodImage.50	FOODEEG_Images\0529.jpg	NY	Right	Yes	1.18296179996105	0	231839	251
453.8671875	2	health	foodImageDisplay	1	34	34	foodImage.50	FOODEEG_Images\0529.jpg	NY	Right	Yes	1.18296179996105	0	232381	252
455.9296875	1.18296179996105	health	choicePhaseStart	1	34	34	foodImage.50	FOODEEG_Images\0529.jpg	NY	Right	Yes	1.18296179996105	0	233437	253
457.103515625	0	health	response	1	34	34	foodImage.50	FOODEEG_Images\0529.jpg	NY	Right	Yes	1.18296179996105	0	234038	235
458.1484375	1	health	trialStart	1	35	35	foodImage.45	FOODEEG_Images\0478.jpg	YN	Left	Yes	0.976896300038788	0	234573	251
459.193359375	2	health	foodImageDisplay	1	35	35	foodImage.45	FOODEEG_Images\0478.jpg	YN	Left	Yes	0.976896300038788	0	235108	252
461.255859375	0.976896300038788	health	choicePhaseStart	1	35	35	foodImage.45	FOODEEG_Images\0478.jpg	YN	Left	Yes	0.976896300038788	0	236164	253
462.22265625	0	health	response	1	35	35	foodImage.45	FOODEEG_Images\0478.jpg	YN	Left	Yes	0.976896300038788	0	236659	234
463.265625	1	taste	trialStart	1	36	36	foodImage.21	FOODEEG_Images\0234.jpg	YN	Left	Yes	0.999513600021601	0	237193	251
464.322265625	2	taste	foodImageDisplay	1	36	36	foodImage.21	FOODEEG_Images\0234.jpg	YN	Left	Yes	0.999513600021601	0	237734	252
466.384765625	0.999513600021601	taste	choicePhaseStart	1	36	36	foodImage.21	FOODEEG_Images\0234.jpg	YN	Left	Yes	0.999513600021601	0	238790	253
467.375	0	taste	response	1	36	36	foodImage.21	FOODEEG_Images\0234.jpg	YN	Left	Yes	0.999513600021601	0	239297	234
468.41796875	1	decision	trialStart	1	37	37	foodImage.13	FOODEEG_Images\0183.jpg	YN	Right	No	2.27952240000013	0	239831	251
469.458984375	2	decision	foodImageDisplay	1	37	37	foodImage.13	FOODEEG_Images\0183.jpg	YN	Right	No	2.27952240000013	0	240364	252
471.521484375	2.27952240000013	decision	choicePhaseStart	1	37	37	foodImage.13	FOODEEG_Images\0183.jpg	YN	Right	No	2.27952240000013	0	241420	253
473.791015625	0	decision	response	1	37	37	foodImage.13	FOODEEG_Images\0183.jpg	YN	Right	No	2.27952240000013	0	242582	235
474.83203125	1	taste	trialStart	1	38	38	foodImage.96	FOODEEG_Images\0904.jpg	YN	Right	No	1.10574180004187	0	243115	251
475.87109375	2	taste	foodImageDisplay	1	38	38	foodImage.96	FOODEEG_Images\0904.jpg	YN	Right	No	1.10574180004187	0	243647	252
477.93359375	1.10574180004187	taste	choicePhaseStart	1	38	38	foodImage.96	FOODEEG_Images\0904.jpg	YN	Right	No	1.10574180004187	0	244703	253
479.03125	0	taste	response	1	38	38	foodImage.96	FOODEEG_Images\0904.jpg	YN	Right	No	1.10574180004187	0	245265	235
480.07421875	1	taste	trialStart	1	39	39	foodImage.119	FOODEEG_Images\0927.jpg	YN	Right	No	1.26327449997189	0	245799	251
481.11328125	2	taste	foodImageDisplay	1	39	39	foodImage.119	FOODEEG_Images\0927.jpg	YN	Right	No	1.26327449997189	0	246331	252
483.17578125	1.26327449997189	taste	choicePhaseStart	1	39	39	foodImage.119	FOODEEG_Images\0927.jpg	YN	Right	No	1.26327449997189	0	247387	253
484.431640625	0	taste	response	1	39	39	foodImage.119	FOODEEG_Images\0927.jpg	YN	Right	No	1.26327449997189	0	248030	235
485.47265625	1	taste	trialStart	1	40	40	foodImage.51	FOODEEG_Images\0536.jpg	NY	Right	Yes	0.93882099998882	0	248563	251
486.51953125	2	taste	foodImageDisplay	1	40	40	foodImage.51	FOODEEG_Images\0536.jpg	NY	Right	Yes	0.93882099998882	0	249099	252
488.58203125	0.93882099998882	taste	choicePhaseStart	1	40	40	foodImage.51	FOODEEG_Images\0536.jpg	NY	Right	Yes	0.93882099998882	0	250155	253
489.509765625	0	taste	response	1	40	40	foodImage.51	FOODEEG_Images\0536.jpg	NY	Right	Yes	0.93882099998882	0	250630	235
490.552734375	1	taste	trialStart	1	41	41	foodImage.33	FOODEEG_Images\0329.jpg	YN	Left	Yes	0.636951199965551	0	251164	251
491.595703125	2	taste	foodImageDisplay	1	41	41	foodImage.33	FOODEEG_Images\0329.jpg	YN	Left	Yes	0.636951199965551	0	251698	252
493.658203125	0.636951199965551	taste	choicePhaseStart	1	41	41	foodImage.33	FOODEEG_Images\0329.jpg	YN	Left	Yes	0.636951199965551	0	252754	253
494.28515625	0	taste	response	1	41	41	foodImage.33	FOODEEG_Images\0329.jpg	YN	Left	Yes	0.636951199965551	0	253075	234
495.330078125	1	decision	trialStart	1	42	42	foodImage.38	FOODEEG_Images\0365.jpg	YN	Left	Yes	1.15903420001268	0	253610	251
496.369140625	2	decision	foodImageDisplay	1	42	42	foodImage.38	FOODEEG_Images\0365.jpg	YN	Left	Yes	1.15903420001268	0	254142	252
498.431640625	1.15903420001268	decision	choicePhaseStart	1	42	42	foodImage.38	FOODEEG_Images\0365.jpg	YN	Left	Yes	1.15903420001268	0	255198	253
499.58203125	0	decision	response	1	42	42	foodImage.38	FOODEEG_Images\0365.jpg	YN	Left	Yes	1.15903420001268	0	255787	234
500.623046875	1	health	trialStart	1	43	43	foodImage.43	FOODEEG_Images\0445.jpg	YN	Left	Yes	0.829037599964067	0	256320	251
501.681640625	2	health	foodImageDisplay	1	43	43	foodImage.43	FOODEEG_Images\0445.jpg	YN	Left	Yes	0.829037599964067	0	256862	252
503.744140625	0.829037599964067	health	choicePhaseStart	1	43	43	foodImage.43	FOODEEG_Images\0445.jpg	YN	Left	Yes	0.829037599964067	0	257918	253
504.56640625	0	health	response	1	43	43	foodImage.43	FOODEEG_Images\0445.jpg	YN	Left	Yes	0.829037599964067	0	258339	234
505.609375	1	taste	trialStart	1	44	44	foodImage.87	FOODEEG_Images\0873.jpg	YN	Right	No	1.63314320001518	0	258873	251
506.671875	2	taste	foodImageDisplay	1	44	44	foodImage.87	FOODEEG_Images\0873.jpg	YN	Right	No	1.63314320001518	0	259417	252
508.734375	1.63314320001518	taste	choicePhaseStart	1	44	44	foodImage.87	FOODEEG_Images\0873.jpg	YN	Right	No	1.63314320001518	0	260473	253
510.357421875	0	taste	response	1	44	44	foodImage.87	FOODEEG_Images\0873.jpg	YN	Right	No	1.63314320001518	0	261304	235
511.400390625	1	health	trialStart	1	45	45	foodImage.37	FOODEEG_Images\0359.jpg	YN	Left	Yes	0.916012300003786	0	261838	251
512.443359375	2	health	foodImageDisplay	1	45	45	foodImage.37	FOODEEG_Images\0359.jpg	YN	Left	Yes	0.916012300003786	0	262372	252
514.505859375	0.916012300003786	health	choicePhaseStart	1	45	45	foodImage.37	FOODEEG_Images\0359.jpg	YN	Left	Yes	0.916012300003786	0	263428	253
515.4140625	0	health	response	1	45	45	foodImage.37	FOODEEG_Images\0359.jpg	YN	Left	Yes	0.916012300003786	0	263893	234
516.45703125	1	taste	trialStart	1	46	46	foodImage.108	FOODEEG_Images\0916.jpg	YN	Right	No	1.70480680000037	0	264427	251
517.494140625	2	taste	foodImageDisplay	1	46	46	foodImage.108	FOODEEG_Images\0916.jpg	YN	Right	No	1.70480680000037	0	264958	252
519.556640625	1.70480680000037	taste	choicePhaseStart	1	46	46	foodImage.108	FOODEEG_Images\0916.jpg	YN	Right	No	1.70480680000037	0	266014	253
521.25390625	0	taste	response	1	46	46	foodImage.108	FOODEEG_Images\0916.jpg	YN	Right	No	1.70480680000037	0	266883	235
522.294921875	1	decision	trialStart	1	47	47	foodImage.23	FOODEEG_Images\0244.jpg	NY	Right	Yes	0.804531899979338	0	267416	251
523.337890625	2	decision	foodImageDisplay	1	47	47	foodImage.23	FOODEEG_Images\0244.jpg	NY	Right	Yes	0.804531899979338	0	267950	252
525.400390625	0.804531899979338	decision	choicePhaseStart	1	47	47	foodImage.23	FOODEEG_Images\0244.jpg	NY	Right	Yes	0.804531899979338	0	269006	253
526.197265625	0	decision	response	1	47	47	foodImage.23	FOODEEG_Images\0244.jpg	NY	Right	Yes	0.804531899979338	0	269414	235
527.240234375	1	health	trialStart	1	48	48	foodImage.12	FOODEEG_Images\0181.jpg	YN	Left	Yes	0.869554899982177	0	269948	251
528.28125	2	health	foodImageDisplay	1	48	48	foodImage.12	FOODEEG_Images\0181.jpg	YN	Left	Yes	0.869554899982177	0	270481	252
530.34375	0.869554899982177	health	choicePhaseStart	1	48	48	foodImage.12	FOODEEG_Images\0181.jpg	YN	Left	Yes	0.869554899982177	0	271537	253
531.205078125	0	health	response	1	48	48	foodImage.12	FOODEEG_Images\0181.jpg	YN	Left	Yes	0.869554899982177	0	271978	234
532.248046875	1	taste	trialStart	1	49	49	foodImage.46	FOODEEG_Images\0479.jpg	YN	Left	Yes	1.83781199995428	0	272512	251
533.3046875	2	taste	foodImageDisplay	1	49	49	foodImage.46	FOODEEG_Images\0479.jpg	YN	Left	Yes	1.83781199995428	0	273053	252
535.3671875	1.83781199995428	taste	choicePhaseStart	1	49	49	foodImage.46	FOODEEG_Images\0479.jpg	YN	Left	Yes	1.83781199995428	0	274109	253
537.197265625	0	taste	response	1	49	49	foodImage.46	FOODEEG_Images\0479.jpg	YN	Left	Yes	1.83781199995428	0	275046	234
538.240234375	1	decision	trialStart	1	50	50	foodImage.64	FOODEEG_Images\0647.jpg	NY	Right	Yes	0.734036100038793	0	275580	251
539.296875	2	decision	foodImageDisplay	1	50	50	foodImage.64	FOODEEG_Images\0647.jpg	NY	Right	Yes	0.734036100038793	0	276121	252
541.359375	0.734036100038793	decision	choicePhaseStart	1	50	50	foodImage.64	FOODEEG_Images\0647.jpg	NY	Right	Yes	0.734036100038793	0	277177	253
542.083984375	0	decision	response	1	50	50	foodImage.64	FOODEEG_Images\0647.jpg	NY	Right	Yes	0.734036100038793	0	277548	235
543.126953125	1	decision	trialStart	1	51	51	foodImage.40	FOODEEG_Images\0373.jpg	NY	Right	Yes	0.749024900025688	0	278082	251
544.169921875	2	decision	foodImageDisplay	1	51	51	foodImage.40	FOODEEG_Images\0373.jpg	NY	Right	Yes	0.749024900025688	0	278616	252
546.232421875	0.749024900025688	decision	choicePhaseStart	1	51	51	foodImage.40	FOODEEG_Images\0373.jpg	NY	Right	Yes	0.749024900025688	0	279672	253
546.97265625	0	decision	response	1	51	51	foodImage.40	FOODEEG_Images\0373.jpg	NY	Right	Yes	0.749024900025688	0	280051	235
548.013671875	1	decision	trialStart	1	52	52	foodImage.70	FOODEEG_Images\0705.jpg	NY	Right	Yes	1.16337209998164	0	280584	251
549.07421875	2	decision	foodImageDisplay	1	52	52	foodImage.70	FOODEEG_Images\0705.jpg	NY	Right	Yes	1.16337209998164	0	281127	252
551.13671875	1.16337209998164	decision	choicePhaseStart	1	52	52	foodImage.70	FOODEEG_Images\0705.jpg	NY	Right	Yes	1.16337209998164	0	282183	253
552.291015625	0	decision	response	1	52	52	foodImage.70	FOODEEG_Images\0705.jpg	NY	Right	Yes	1.16337209998164	0	282774	235
553.333984375	1	decision	trialStart	1	53	53	foodImage.71	FOODEEG_Images\0713.jpg	YN	Left	Yes	0.731672800029628	0	283308	251
554.376953125	2	decision	foodImageDisplay	1	53	53	foodImage.71	FOODEEG_Images\0713.jpg	YN	Left	Yes	0.731672800029628	0	283842	252
556.44140625	0.731672800029628	decision	choicePhaseStart	1	53	53	foodImage.71	FOODEEG_Images\0713.jpg	YN	Left	Yes	0.731672800029628	0	284899	253
557.1640625	0	decision	response	1	53	53	foodImage.71	FOODEEG_Images\0713.jpg	YN	Left	Yes	0.731672800029628	0	285269	234
558.20703125	1	health	trialStart	1	54	54	foodImage.33	FOODEEG_Images\0329.jpg	NY	Right	Yes	1.42085860000225	0	285803	251
559.248046875	2	health	foodImageDisplay	1	54	54	foodImage.33	FOODEEG_Images\0329.jpg	NY	Right	Yes	1.42085860000225	0	286336	252
561.310546875	1.42085860000225	health	choicePhaseStart	1	54	54	foodImage.33	FOODEEG_Images\0329.jpg	NY	Right	Yes	1.42085860000225	0	287392	253
562.72265625	0	health	response	1	54	54	foodImage.33	FOODEEG_Images\0329.jpg	NY	Right	Yes	1.42085860000225	0	288115	235
563.767578125	1	decision	trialStart	1	55	55	foodImage.7	FOODEEG_Images\0116.jpg	YN	Left	Yes	1.50716590002412	0	288650	251
564.80859375	2	decision	foodImageDisplay	1	55	55	foodImage.7	FOODEEG_Images\0116.jpg	YN	Left	Yes	1.50716590002412	0	289183	252
566.873046875	1.50716590002412	decision	choicePhaseStart	1	55	55	foodImage.7	FOODEEG_Images\0116.jpg	YN	Left	Yes	1.50716590002412	0	290240	253
568.37109375	0	decision	response	1	55	55	foodImage.7	FOODEEG_Images\0116.jpg	YN	Left	Yes	1.50716590002412	0	291007	234
569.4140625	1	health	trialStart	1	56	56	foodImage.18	FOODEEG_Images\0202.jpg	YN	Left	Yes	1.872159200022	0	291541	251
570.470703125	2	health	foodImageDisplay	1	56	56	foodImage.18	FOODEEG_Images\0202.jpg	YN	Left	Yes	1.872159200022	0	292082	252
572.533203125	1.872159200022	health	choicePhaseStart	1	56	56	foodImage.18	FOODEEG_Images\0202.jpg	YN	Left	Yes	1.872159200022	0	293138	253
574.39453125	0	health	response	1	56	56	foodImage.18	FOODEEG_Images\0202.jpg	YN	Left	Yes	1.872159200022	0	294091	234
575.4375	1	health	trialStart	1	57	57	foodImage.103	FOODEEG_Images\0911.jpg	NY	Left	No	1.93015510000987	0	294625	251
576.474609375	2	health	foodImageDisplay	1	57	57	foodImage.103	FOODEEG_Images\0911.jpg	NY	Left	No	1.93015510000987	0	295156	252
578.537109375	1.93015510000987	health	choicePhaseStart	1	57	57	foodImage.103	FOODEEG_Images\0911.jpg	NY	Left	No	1.93015510000987	0	296212	253
580.458984375	0	health	response	1	57	57	foodImage.103	FOODEEG_Images\0911.jpg	NY	Left	No	1.93015510000987	0	297196	234
581.501953125	1	health	trialStart	1	58	58	foodImage.80	FOODEEG_Images\0796.jpg	NY	Right	Yes	1.29921229998581	0	297730	251
582.560546875	2	health	foodImageDisplay	1	58	58	foodImage.80	FOODEEG_Images\0796.jpg	NY	Right	Yes	1.29921229998581	0	298272	252
584.623046875	1.29921229998581	health	choicePhaseStart	1	58	58	foodImage.80	FOODEEG_Images\0796.jpg	NY	Right	Yes	1.29921229998581	0	299328	253
585.9140625	0	health	response	1	58	58	foodImage.80	FOODEEG_Images\0796.jpg	NY	Right	Yes	1.29921229998581	0	299989	235
586.958984375	1	taste	trialStart	1	59	59	foodImage.9	FOODEEG_Images\0138.jpg	YN	Right	No	1.39905509998789	0	300524	251
588.0390625	2	taste	foodImageDisplay	1	59	59	foodImage.9	FOODEEG_Images\0138.jpg	YN	Right	No	1.39905509998789	0	301077	252
590.107421875	1.39905509998789	taste	choicePhaseStart	1	59	59	foodImage.9	FOODEEG_Images\0138.jpg	YN	Right	No	1.39905509998789	0	302136	253
591.498046875	0	taste	response	1	59	59	foodImage.9	FOODEEG_Images\0138.jpg	YN	Right	No	1.39905509998789	0	302848	235
592.541015625	1	health	trialStart	1	60	60	foodImage.25	FOODEEG_Images\0261.jpg	YN	Left	Yes	0.628101699985564	0	303382	251
593.583984375	2	health	foodImageDisplay	1	60	60	foodImage.25	FOODEEG_Images\0261.jpg	YN	Left	Yes	0.628101699985564	0	303916	252
595.646484375	0.628101699985564	health	choicePhaseStart	1	60	60	foodImage.25	FOODEEG_Images\0261.jpg	YN	Left	Yes	0.628101699985564	0	304972	253
596.265625	0	health	response	1	60	60	foodImage.25	FOODEEG_Images\0261.jpg	YN	Left	Yes	0.628101699985564	0	305289	234
598.306640625	28.8671875	n/a	blockEnd	n/a	n/a	n/a	n/a	n/a	n/a	n/a	n/a	n/a	n/a	306334	254
627.173828125	2	n/a	blockStart	2	n/a	n/a	n/a	n/a	n/a	n/a	n/a	n/a	n/a	321114	250
629.212890625	1	decision	trialStart	2	61	1	foodImage.119	FOODEEG_Images\0927.jpg	YN	Right	No	0.954873600043356	0	322158	251
630.251953125	2	decision	foodImageDisplay	2	61	1	foodImage.119	FOODEEG_Images\0927.jpg	YN	Right	No	0.954873600043356	0	322690	252
632.318359375	0.954873600043356	decision	choicePhaseStart	2	61	1	foodImage.119	FOODEEG_Images\0927.jpg	YN	Right	No	0.954873600043356	0	323748	253
633.265625	0	decision	response	2	61	1	foodImage.119	FOODEEG_Images\0927.jpg	YN	Right	No	0.954873600043356	0	324233	235
634.30859375	1	decision	trialStart	2	62	2	foodImage.47	FOODEEG_Images\0488.jpg	NY	Right	Yes	1.07841170002939	0	324767	251
635.349609375	2	decision	foodImageDisplay	2	62	2	foodImage.47	FOODEEG_Images\0488.jpg	NY	Right	Yes	1.07841170002939	0	325300	252
637.412109375	1.07841170002939	decision	choicePhaseStart	2	62	2	foodImage.47	FOODEEG_Images\0488.jpg	NY	Right	Yes	1.07841170002939	0	326356	253
638.48046875	0	decision	response	2	62	2	foodImage.47	FOODEEG_Images\0488.jpg	NY	Right	Yes	1.07841170002939	0	326903	235
639.5234375	1	health	trialStart	2	63	3	foodImage.59	FOODEEG_Images\0607.jpg	NY	Left	No	0.576217199966777	0	327437	251
640.5703125	2	health	foodImageDisplay	2	63	3	foodImage.59	FOODEEG_Images\0607.jpg	NY	Left	No	0.576217199966777	0	327973	252
642.6328125	0.576217199966777	health	choicePhaseStart	2	63	3	foodImage.59	FOODEEG_Images\0607.jpg	NY	Left	No	0.576217199966777	0	329029	253
643.201171875	0	health	response	2	63	3	foodImage.59	FOODEEG_Images\0607.jpg	NY	Left	No	0.576217199966777	0	329320	234
644.24609375	1	taste	trialStart	2	64	4	foodImage.65	FOODEEG_Images\0658.jpg	NY	Left	No	2.02540959999897	0	329855	251
645.2890625	2	taste	foodImageDisplay	2	64	4	foodImage.65	FOODEEG_Images\0658.jpg	NY	Left	No	2.02540959999897	0	330389	252
647.3515625	2.02540959999897	taste	choicePhaseStart	2	64	4	foodImage.65	FOODEEG_Images\0658.jpg	NY	Left	No	2.02540959999897	0	331445	253
649.369140625	0	taste	response	2	64	4	foodImage.65	FOODEEG_Images\0658.jpg	NY	Left	No	2.02540959999897	0	332478	234
650.41015625	1	taste	trialStart	2	65	5	foodImage.81	FOODEEG_Images\0797.jpg	YN	Left	Yes	1.8561183999991	0	333011	251
651.466796875	2	taste	foodImageDisplay	2	65	5	foodImage.81	FOODEEG_Images\0797.jpg	YN	Left	Yes	1.8561183999991	0	333552	252
653.52734375	1.8561183999991	taste	choicePhaseStart	2	65	5	foodImage.81	FOODEEG_Images\0797.jpg	YN	Left	Yes	1.8561183999991	0	334607	253
655.375	0	taste	response	2	65	5	foodImage.81	FOODEEG_Images\0797.jpg	YN	Left	Yes	1.8561183999991	0	335553	234
656.419921875	1	health	trialStart	2	66	6	foodImage.83	FOODEEG_Images\0827.jpg	NY	Right	Yes	1.56495309999445	0	336088	251
657.4765625	2	health	foodImageDisplay	2	66	6	foodImage.83	FOODEEG_Images\0827.jpg	NY	Right	Yes	1.56495309999445	0	336629	252
659.5390625	1.56495309999445	health	choicePhaseStart	2	66	6	foodImage.83	FOODEEG_Images\0827.jpg	NY	Right	Yes	1.56495309999445	0	337685	253
661.095703125	0	health	response	2	66	6	foodImage.83	FOODEEG_Images\0827.jpg	NY	Right	Yes	1.56495309999445	0	338482	235
662.138671875	1	decision	trialStart	2	67	7	foodImage.69	FOODEEG_Images\0693.jpg	YN	Left	Yes	1.09822519996669	0	339016	251
663.181640625	2	decision	foodImageDisplay	2	67	7	foodImage.69	FOODEEG_Images\0693.jpg	YN	Left	Yes	1.09822519996669	0	339550	252
665.24609375	1.09822519996669	decision	choicePhaseStart	2	67	7	foodImage.69	FOODEEG_Images\0693.jpg	YN	Left	Yes	1.09822519996669	0	340607	253
666.3359375	0	decision	response	2	67	7	foodImage.69	FOODEEG_Images\0693.jpg	YN	Left	Yes	1.09822519996669	0	341165	234
667.37890625	1	taste	trialStart	2	68	8	foodImage.109	FOODEEG_Images\0917.jpg	NY	Left	No	0.760744799976237	0	341699	251
668.416015625	2	taste	foodImageDisplay	2	68	8	foodImage.109	FOODEEG_Images\0917.jpg	NY	Left	No	0.760744799976237	0	342230	252
670.478515625	0.760744799976237	taste	choicePhaseStart	2	68	8	foodImage.109	FOODEEG_Images\0917.jpg	NY	Left	No	0.760744799976237	0	343286	253
671.23046875	0	taste	response	2	68	8	foodImage.109	FOODEEG_Images\0917.jpg	NY	Left	No	0.760744799976237	0	343671	234
672.2734375	1	health	trialStart	2	69	9	foodImage.72	FOODEEG_Images\0714.jpg	YN	Left	Yes	2.13952650001738	0	344205	251
673.31640625	2	health	foodImageDisplay	2	69	9	foodImage.72	FOODEEG_Images\0714.jpg	YN	Left	Yes	2.13952650001738	0	344739	252
675.37890625	2.13952650001738	health	choicePhaseStart	2	69	9	foodImage.72	FOODEEG_Images\0714.jpg	YN	Left	Yes	2.13952650001738	0	345795	253
677.51171875	0	health	response	2	69	9	foodImage.72	FOODEEG_Images\0714.jpg	YN	Left	Yes	2.13952650001738	0	346887	234
678.55078125	1	health	trialStart	2	70	10	foodImage.48	FOODEEG_Images\0494.jpg	YN	Right	No	1.35391160001745	0	347419	251
679.591796875	2	health	foodImageDisplay	2	70	10	foodImage.48	FOODEEG_Images\0494.jpg	YN	Right	No	1.35391160001745	0	347952	252
681.654296875	1.35391160001745	health	choicePhaseStart	2	70	10	foodImage.48	FOODEEG_Images\0494.jpg	YN	Right	No	1.35391160001745	0	349008	253
682.998046875	0	health	response	2	70	10	foodImage.48	FOODEEG_Images\0494.jpg	YN	Right	No	1.35391160001745	0	349696	235
684.041015625	1	taste	trialStart	2	71	11	foodImage.82	FOODEEG_Images\0805.jpg	YN	Left	Yes	1.58397839998361	0	350230	251
685.09765625	2	taste	foodImageDisplay	2	71	11	foodImage.82	FOODEEG_Images\0805.jpg	YN	Left	Yes	1.58397839998361	0	350771	252
687.158203125	1.58397839998361	taste	choicePhaseStart	2	71	11	foodImage.82	FOODEEG_Images\0805.jpg	YN	Left	Yes	1.58397839998361	0	351826	253
688.734375	0	taste	response	2	71	11	foodImage.82	FOODEEG_Images\0805.jpg	YN	Left	Yes	1.58397839998361	0	352633	234
689.78125	1	health	trialStart	2	72	12	foodImage.23	FOODEEG_Images\0244.jpg	YN	Left	Yes	1.30301390000386	0	353169	251
690.822265625	2	health	foodImageDisplay	2	72	12	foodImage.23	FOODEEG_Images\0244.jpg	YN	Left	Yes	1.30301390000386	0	353702	252
692.888671875	1.30301390000386	health	choicePhaseStart	2	72	12	foodImage.23	FOODEEG_Images\0244.jpg	YN	Left	Yes	1.30301390000386	0	354760	253
694.181640625	0	health	response	2	72	12	foodImage.23	FOODEEG_Images\0244.jpg	YN	Left	Yes	1.30301390000386	0	355422	234
695.224609375	1	decision	trialStart	2	73	13	foodImage.107	FOODEEG_Images\0915.jpg	YN	Right	No	0.869512900011614	0	355956	251
696.263671875	2	decision	foodImageDisplay	2	73	13	foodImage.107	FOODEEG_Images\0915.jpg	YN	Right	No	0.869512900011614	0	356488	252
698.330078125	0.869512900011614	decision	choicePhaseStart	2	73	13	foodImage.107	FOODEEG_Images\0915.jpg	YN	Right	No	0.869512900011614	0	357546	253
699.189453125	0	decision	response	2	73	13	foodImage.107	FOODEEG_Images\0915.jpg	YN	Right	No	0.869512900011614	0	357986	235
700.232421875	1	taste	trialStart	2	74	14	foodImage.10	FOODEEG_Images\0145.jpg	NY	Right	Yes	1.72665620001499	0	358520	251
701.291015625	2	taste	foodImageDisplay	2	74	14	foodImage.10	FOODEEG_Images\0145.jpg	NY	Right	Yes	1.72665620001499	0	359062	252
703.353515625	1.72665620001499	taste	choicePhaseStart	2	74	14	foodImage.10	FOODEEG_Images\0145.jpg	NY	Right	Yes	1.72665620001499	0	360118	253
705.0703125	0	taste	response	2	74	14	foodImage.10	FOODEEG_Images\0145.jpg	NY	Right	Yes	1.72665620001499	0	360997	235
706.119140625	1	decision	trialStart	2	75	15	foodImage.87	FOODEEG_Images\0873.jpg	NY	Left	No	1.87994810001692	0	361534	251
707.201171875	2	decision	foodImageDisplay	2	75	15	foodImage.87	FOODEEG_Images\0873.jpg	NY	Left	No	1.87994810001692	0	362088	252
709.263671875	1.87994810001692	decision	choicePhaseStart	2	75	15	foodImage.87	FOODEEG_Images\0873.jpg	NY	Left	No	1.87994810001692	0	363144	253
711.134765625	0	decision	response	2	75	15	foodImage.87	FOODEEG_Images\0873.jpg	NY	Left	No	1.87994810001692	0	364102	234
712.17578125	1	health	trialStart	2	76	16	foodImage.52	FOODEEG_Images\0539.jpg	YN	Left	Yes	3.30898860003799	0	364635	251
713.232421875	2	health	foodImageDisplay	2	76	16	foodImage.52	FOODEEG_Images\0539.jpg	YN	Left	Yes	3.30898860003799	0	365176	252
715.296875	3.30898860003799	health	choicePhaseStart	2	76	16	foodImage.52	FOODEEG_Images\0539.jpg	YN	Left	Yes	3.30898860003799	0	366233	253
718.59765625	0	health	response	2	76	16	foodImage.52	FOODEEG_Images\0539.jpg	YN	Left	Yes	3.30898860003799	0	367923	234
719.640625	1	taste	trialStart	2	77	17	foodImage.15	FOODEEG_Images\0189.jpg	YN	Left	Yes	1.31910249998327	0	368457	251
720.697265625	2	taste	foodImageDisplay	2	77	17	foodImage.15	FOODEEG_Images\0189.jpg	YN	Left	Yes	1.31910249998327	0	368998	252
722.759765625	1.31910249998327	taste	choicePhaseStart	2	77	17	foodImage.15	FOODEEG_Images\0189.jpg	YN	Left	Yes	1.31910249998327	0	370054	253
724.068359375	0	taste	response	2	77	17	foodImage.15	FOODEEG_Images\0189.jpg	YN	Left	Yes	1.31910249998327	0	370724	234
725.109375	1	taste	trialStart	2	78	18	foodImage.79	FOODEEG_Images\0794.jpg	YN	Left	Yes	0.566541799984407	0	371257	251
726.15234375	2	taste	foodImageDisplay	2	78	18	foodImage.79	FOODEEG_Images\0794.jpg	YN	Left	Yes	0.566541799984407	0	371791	252
728.21484375	0.566541799984407	taste	choicePhaseStart	2	78	18	foodImage.79	FOODEEG_Images\0794.jpg	YN	Left	Yes	0.566541799984407	0	372847	253
728.7734375	0	taste	response	2	78	18	foodImage.79	FOODEEG_Images\0794.jpg	YN	Left	Yes	0.566541799984407	0	373133	234
729.81640625	1	health	trialStart	2	79	19	foodImage.120	FOODEEG_Images\0928.jpg	NY	Left	No	1.8077780000167	0	373667	251
730.85546875	2	health	foodImageDisplay	2	79	19	foodImage.120	FOODEEG_Images\0928.jpg	NY	Left	No	1.8077780000167	0	374199	252
732.91796875	1.8077780000167	health	choicePhaseStart	2	79	19	foodImage.120	FOODEEG_Images\0928.jpg	NY	Left	No	1.8077780000167	0	375255	253
734.716796875	0	health	response	2	79	19	foodImage.120	FOODEEG_Images\0928.jpg	NY	Left	No	1.8077780000167	0	376176	234
735.759765625	1	health	trialStart	2	80	20	foodImage.29	FOODEEG_Images\0278.jpg	NY	Right	Yes	1.36421889998019	0	376710	251
736.802734375	2	health	foodImageDisplay	2	80	20	foodImage.29	FOODEEG_Images\0278.jpg	NY	Right	Yes	1.36421889998019	0	377244	252
738.865234375	1.36421889998019	health	choicePhaseStart	2	80	20	foodImage.29	FOODEEG_Images\0278.jpg	NY	Right	Yes	1.36421889998019	0	378300	253
740.220703125	0	health	response	2	80	20	foodImage.29	FOODEEG_Images\0278.jpg	NY	Right	Yes	1.36421889998019	0	378994	235
741.263671875	1	decision	trialStart	2	81	21	foodImage.27	FOODEEG_Images\0263.jpg	NY	Left	No	1.43718000000808	0	379528	251
742.306640625	2	decision	foodImageDisplay	2	81	21	foodImage.27	FOODEEG_Images\0263.jpg	NY	Left	No	1.43718000000808	0	380062	252
744.369140625	1.43718000000808	decision	choicePhaseStart	2	81	21	foodImage.27	FOODEEG_Images\0263.jpg	NY	Left	No	1.43718000000808	0	381118	253
745.796875	0	decision	response	2	81	21	foodImage.27	FOODEEG_Images\0263.jpg	NY	Left	No	1.43718000000808	0	381849	234
746.837890625	1	health	trialStart	2	82	22	foodImage.22	FOODEEG_Images\0236.jpg	NY	Right	Yes	1.52787659998285	0	382382	251
747.87890625	2	health	foodImageDisplay	2	82	22	foodImage.22	FOODEEG_Images\0236.jpg	NY	Right	Yes	1.52787659998285	0	382915	252
749.94140625	1.52787659998285	health	choicePhaseStart	2	82	22	foodImage.22	FOODEEG_Images\0236.jpg	NY	Right	Yes	1.52787659998285	0	383971	253
751.458984375	0	health	response	2	82	22	foodImage.22	FOODEEG_Images\0236.jpg	NY	Right	Yes	1.52787659998285	0	384748	235
752.501953125	1	health	trialStart	2	83	23	foodImage.54	FOODEEG_Images\0560.jpg	NY	Left	No	1.49214200000279	0	385282	251
753.5625	2	health	foodImageDisplay	2	83	23	foodImage.54	FOODEEG_Images\0560.jpg	NY	Left	No	1.49214200000279	0	385825	252
755.625	1.49214200000279	health	choicePhaseStart	2	83	23	foodImage.54	FOODEEG_Images\0560.jpg	NY	Left	No	1.49214200000279	0	386881	253
757.107421875	0	health	response	2	83	23	foodImage.54	FOODEEG_Images\0560.jpg	NY	Left	No	1.49214200000279	0	387640	234
758.150390625	1	taste	trialStart	2	84	24	foodImage.115	FOODEEG_Images\0923.jpg	NY	Left	No	1.12048300000606	0	388174	251
759.189453125	2	taste	foodImageDisplay	2	84	24	foodImage.115	FOODEEG_Images\0923.jpg	NY	Left	No	1.12048300000606	0	388706	252
761.251953125	1.12048300000606	taste	choicePhaseStart	2	84	24	foodImage.115	FOODEEG_Images\0923.jpg	NY	Left	No	1.12048300000606	0	389762	253
762.36328125	0	taste	response	2	84	24	foodImage.115	FOODEEG_Images\0923.jpg	NY	Left	No	1.12048300000606	0	390331	234
763.40625	1	taste	trialStart	2	85	25	foodImage.60	FOODEEG_Images\0614.jpg	NY	Right	Yes	2.51362929999596	0	390865	251
764.46875	2	taste	foodImageDisplay	2	85	25	foodImage.60	FOODEEG_Images\0614.jpg	NY	Right	Yes	2.51362929999596	0	391409	252
766.53125	2.51362929999596	taste	choicePhaseStart	2	85	25	foodImage.60	FOODEEG_Images\0614.jpg	NY	Right	Yes	2.51362929999596	0	392465	253
769.03515625	0	taste	response	2	85	25	foodImage.60	FOODEEG_Images\0614.jpg	NY	Right	Yes	2.51362929999596	0	393747	235
770.078125	1	health	trialStart	2	86	26	foodImage.93	FOODEEG_Images\0901.jpg	NY	Right	Yes	1.91043270000955	0	394281	251
771.119140625	2	health	foodImageDisplay	2	86	26	foodImage.93	FOODEEG_Images\0901.jpg	NY	Right	Yes	1.91043270000955	0	394814	252
773.181640625	1.91043270000955	health	choicePhaseStart	2	86	26	foodImage.93	FOODEEG_Images\0901.jpg	NY	Right	Yes	1.91043270000955	0	395870	253
775.083984375	0	health	response	2	86	26	foodImage.93	FOODEEG_Images\0901.jpg	NY	Right	Yes	1.91043270000955	0	396844	235
776.125	1	decision	trialStart	2	87	27	foodImage.89	FOODEEG_Images\0881.jpg	NY	Right	Yes	1.31124559999444	0	397377	251
777.181640625	2	decision	foodImageDisplay	2	87	27	foodImage.89	FOODEEG_Images\0881.jpg	NY	Right	Yes	1.31124559999444	0	397918	252
779.244140625	1.31124559999444	decision	choicePhaseStart	2	87	27	foodImage.89	FOODEEG_Images\0881.jpg	NY	Right	Yes	1.31124559999444	0	398974	253
780.546875	0	decision	response	2	87	27	foodImage.89	FOODEEG_Images\0881.jpg	NY	Right	Yes	1.31124559999444	0	399641	235
781.58984375	1	health	trialStart	2	88	28	foodImage.21	FOODEEG_Images\0234.jpg	YN	Left	Yes	1.11804720002692	0	400175	251
782.6484375	2	health	foodImageDisplay	2	88	28	foodImage.21	FOODEEG_Images\0234.jpg	YN	Left	Yes	1.11804720002692	0	400717	252
784.708984375	1.11804720002692	health	choicePhaseStart	2	88	28	foodImage.21	FOODEEG_Images\0234.jpg	YN	Left	Yes	1.11804720002692	0	401772	253
785.818359375	0	health	response	2	88	28	foodImage.21	FOODEEG_Images\0234.jpg	YN	Left	Yes	1.11804720002692	0	402340	234
786.861328125	1	decision	trialStart	2	89	29	foodImage.26	FOODEEG_Images\0262.jpg	NY	Left	No	2.73976450000191	0	402874	251
787.904296875	2	decision	foodImageDisplay	2	89	29	foodImage.26	FOODEEG_Images\0262.jpg	NY	Left	No	2.73976450000191	0	403408	252
789.966796875	2.73976450000191	decision	choicePhaseStart	2	89	29	foodImage.26	FOODEEG_Images\0262.jpg	NY	Left	No	2.73976450000191	0	404464	253
792.697265625	0	decision	response	2	89	29	foodImage.26	FOODEEG_Images\0262.jpg	NY	Left	No	2.73976450000191	0	405862	234
793.7421875	1	decision	trialStart	2	90	30	foodImage.3	FOODEEG_Images\0046.jpg	YN	Left	Yes	1.78907519998029	0	406397	251
794.783203125	2	decision	foodImageDisplay	2	90	30	foodImage.3	FOODEEG_Images\0046.jpg	YN	Left	Yes	1.78907519998029	0	406930	252
796.845703125	1.78907519998029	decision	choicePhaseStart	2	90	30	foodImage.3	FOODEEG_Images\0046.jpg	YN	Left	Yes	1.78907519998029	0	407986	253
798.626953125	0	decision	response	2	90	30	foodImage.3	FOODEEG_Images\0046.jpg	YN	Left	Yes	1.78907519998029	0	408898	234
799.666015625	1	health	trialStart	2	91	31	foodImage.15	FOODEEG_Images\0189.jpg	YN	Right	No	1.26461900002323	0	409430	251
800.72265625	2	health	foodImageDisplay	2	91	31	foodImage.15	FOODEEG_Images\0189.jpg	YN	Right	No	1.26461900002323	0	409971	252
802.78515625	1.26461900002323	health	choicePhaseStart	2	91	31	foodImage.15	FOODEEG_Images\0189.jpg	YN	Right	No	1.26461900002323	0	411027	253
804.041015625	0	health	response	2	91	31	foodImage.15	FOODEEG_Images\0189.jpg	YN	Right	No	1.26461900002323	0	411670	235
805.083984375	1	taste	trialStart	2	92	32	foodImage.52	FOODEEG_Images\0539.jpg	YN	Right	No	2.16360849997727	0	412204	251
806.14453125	2	taste	foodImageDisplay	2	92	32	foodImage.52	FOODEEG_Images\0539.jpg	YN	Right	No	2.16360849997727	0	412747	252
808.20703125	2.16360849997727	taste	choicePhaseStart	2	92	32	foodImage.52	FOODEEG_Images\0539.jpg	YN	Right	No	2.16360849997727	0	413803	253
810.361328125	0	taste	response	2	92	32	foodImage.52	FOODEEG_Images\0539.jpg	YN	Right	No	2.16360849997727	0	414906	235
811.404296875	1	taste	trialStart	2	93	33	foodImage.74	FOODEEG_Images\0752.jpg	NY	Right	Yes	0.79463570000371	0	415440	251
812.44921875	2	taste	foodImageDisplay	2	93	33	foodImage.74	FOODEEG_Images\0752.jpg	NY	Right	Yes	0.79463570000371	0	415975	252
814.51171875	0.79463570000371	taste	choicePhaseStart	2	93	33	foodImage.74	FOODEEG_Images\0752.jpg	NY	Right	Yes	0.79463570000371	0	417031	253
815.296875	0	taste	response	2	93	33	foodImage.74	FOODEEG_Images\0752.jpg	NY	Right	Yes	0.79463570000371	0	417433	235
816.341796875	1	taste	trialStart	2	94	34	foodImage.75	FOODEEG_Images\0763.jpg	YN	Right	No	1.88264580001123	0	417968	251
817.384765625	2	taste	foodImageDisplay	2	94	34	foodImage.75	FOODEEG_Images\0763.jpg	YN	Right	No	1.88264580001123	0	418502	252
819.447265625	1.88264580001123	taste	choicePhaseStart	2	94	34	foodImage.75	FOODEEG_Images\0763.jpg	YN	Right	No	1.88264580001123	0	419558	253
821.322265625	0	taste	response	2	94	34	foodImage.75	FOODEEG_Images\0763.jpg	YN	Right	No	1.88264580001123	0	420518	235
822.365234375	1	taste	trialStart	2	95	35	foodImage.106	FOODEEG_Images\0914.jpg	YN	Right	No	1.05566509999335	0	421052	251
823.404296875	2	taste	foodImageDisplay	2	95	35	foodImage.106	FOODEEG_Images\0914.jpg	YN	Right	No	1.05566509999335	0	421584	252
825.466796875	1.05566509999335	taste	choicePhaseStart	2	95	35	foodImage.106	FOODEEG_Images\0914.jpg	YN	Right	No	1.05566509999335	0	422640	253
826.513671875	0	taste	response	2	95	35	foodImage.106	FOODEEG_Images\0914.jpg	YN	Right	No	1.05566509999335	0	423176	235
827.5546875	1	decision	trialStart	2	96	36	foodImage.50	FOODEEG_Images\0529.jpg	YN	Right	No	1.25508119998267	0	423709	251
828.611328125	2	decision	foodImageDisplay	2	96	36	foodImage.50	FOODEEG_Images\0529.jpg	YN	Right	No	1.25508119998267	0	424250	252
830.673828125	1.25508119998267	decision	choicePhaseStart	2	96	36	foodImage.50	FOODEEG_Images\0529.jpg	YN	Right	No	1.25508119998267	0	425306	253
831.919921875	0	decision	response	2	96	36	foodImage.50	FOODEEG_Images\0529.jpg	YN	Right	No	1.25508119998267	0	425944	235
832.962890625	1	decision	trialStart	2	97	37	foodImage.45	FOODEEG_Images\0478.jpg	YN	Left	Yes	1.46370080002816	0	426478	251
834.01171875	2	decision	foodImageDisplay	2	97	37	foodImage.45	FOODEEG_Images\0478.jpg	YN	Left	Yes	1.46370080002816	0	427015	252
836.07421875	1.46370080002816	decision	choicePhaseStart	2	97	37	foodImage.45	FOODEEG_Images\0478.jpg	YN	Left	Yes	1.46370080002816	0	428071	253
837.529296875	0	decision	response	2	97	37	foodImage.45	FOODEEG_Images\0478.jpg	YN	Left	Yes	1.46370080002816	0	428816	234
838.572265625	1	decision	trialStart	2	98	38	foodImage.96	FOODEEG_Images\0904.jpg	YN	Right	No	1.40770129999146	0	429350	251
839.611328125	2	decision	foodImageDisplay	2	98	38	foodImage.96	FOODEEG_Images\0904.jpg	YN	Right	No	1.40770129999146	0	429882	252
841.673828125	1.40770129999146	decision	choicePhaseStart	2	98	38	foodImage.96	FOODEEG_Images\0904.jpg	YN	Right	No	1.40770129999146	0	430938	253
843.072265625	0	decision	response	2	98	38	foodImage.96	FOODEEG_Images\0904.jpg	YN	Right	No	1.40770129999146	0	431654	235
844.115234375	1	taste	trialStart	2	99	39	foodImage.100	FOODEEG_Images\0908.jpg	YN	Right	No	0.722135999996681	0	432188	251
845.154296875	2	taste	foodImageDisplay	2	99	39	foodImage.100	FOODEEG_Images\0908.jpg	YN	Right	No	0.722135999996681	0	432720	252
847.216796875	0.722135999996681	taste	choicePhaseStart	2	99	39	foodImage.100	FOODEEG_Images\0908.jpg	YN	Right	No	0.722135999996681	0	433776	253
847.927734375	0	taste	response	2	99	39	foodImage.100	FOODEEG_Images\0908.jpg	YN	Right	No	0.722135999996681	0	434140	235
848.98046875	1	taste	trialStart	2	100	40	foodImage.17	FOODEEG_Images\0199.jpg	NY	Right	Yes	0.739481000055093	0	434679	251
850.0234375	2	taste	foodImageDisplay	2	100	40	foodImage.17	FOODEEG_Images\0199.jpg	NY	Right	Yes	0.739481000055093	0	435213	252
852.0859375	0.739481000055093	taste	choicePhaseStart	2	100	40	foodImage.17	FOODEEG_Images\0199.jpg	NY	Right	Yes	0.739481000055093	0	436269	253
852.81640625	0	taste	response	2	100	40	foodImage.17	FOODEEG_Images\0199.jpg	NY	Right	Yes	0.739481000055093	0	436643	235
853.861328125	1	health	trialStart	2	101	41	foodImage.109	FOODEEG_Images\0917.jpg	YN	Right	No	1.27100960002281	0	437178	251
854.8984375	2	health	foodImageDisplay	2	101	41	foodImage.109	FOODEEG_Images\0917.jpg	YN	Right	No	1.27100960002281	0	437709	252
856.9609375	1.27100960002281	health	choicePhaseStart	2	101	41	foodImage.109	FOODEEG_Images\0917.jpg	YN	Right	No	1.27100960002281	0	438765	253
858.224609375	0	health	response	2	101	41	foodImage.109	FOODEEG_Images\0917.jpg	YN	Right	No	1.27100960002281	0	439412	235
859.267578125	1	health	trialStart	2	102	42	foodImage.70	FOODEEG_Images\0705.jpg	YN	Left	Yes	1.45109679998131	0	439946	251
860.326171875	2	health	foodImageDisplay	2	102	42	foodImage.70	FOODEEG_Images\0705.jpg	YN	Left	Yes	1.45109679998131	0	440488	252
862.390625	1.45109679998131	health	choicePhaseStart	2	102	42	foodImage.70	FOODEEG_Images\0705.jpg	YN	Left	Yes	1.45109679998131	0	441545	253
863.83203125	0	health	response	2	102	42	foodImage.70	FOODEEG_Images\0705.jpg	YN	Left	Yes	1.45109679998131	0	442283	234
864.873046875	1	taste	trialStart	2	103	43	foodImage.64	FOODEEG_Images\0647.jpg	NY	Right	Yes	1.19036489998689	0	442816	251
865.9296875	2	taste	foodImageDisplay	2	103	43	foodImage.64	FOODEEG_Images\0647.jpg	NY	Right	Yes	1.19036489998689	0	443357	252
867.9921875	1.19036489998689	taste	choicePhaseStart	2	103	43	foodImage.64	FOODEEG_Images\0647.jpg	NY	Right	Yes	1.19036489998689	0	444413	253
869.17578125	0	taste	response	2	103	43	foodImage.64	FOODEEG_Images\0647.jpg	NY	Right	Yes	1.19036489998689	0	445019	235
870.21875	1	decision	trialStart	2	104	44	foodImage.18	FOODEEG_Images\0202.jpg	YN	Left	Yes	0.651674300024752	0	445553	251
871.27734375	2	decision	foodImageDisplay	2	104	44	foodImage.18	FOODEEG_Images\0202.jpg	YN	Left	Yes	0.651674300024752	0	446095	252
873.33984375	0.651674300024752	decision	choicePhaseStart	2	104	44	foodImage.18	FOODEEG_Images\0202.jpg	YN	Left	Yes	0.651674300024752	0	447151	253
873.982421875	0	decision	response	2	104	44	foodImage.18	FOODEEG_Images\0202.jpg	YN	Left	Yes	0.651674300024752	0	447480	234
875.025390625	1	taste	trialStart	2	105	45	foodImage.29	FOODEEG_Images\0278.jpg	YN	Left	Yes	1.6910535999923	0	448014	251
876.068359375	2	taste	foodImageDisplay	2	105	45	foodImage.29	FOODEEG_Images\0278.jpg	YN	Left	Yes	1.6910535999923	0	448548	252
878.130859375	1.6910535999923	taste	choicePhaseStart	2	105	45	foodImage.29	FOODEEG_Images\0278.jpg	YN	Left	Yes	1.6910535999923	0	449604	253
879.814453125	0	taste	response	2	105	45	foodImage.29	FOODEEG_Images\0278.jpg	YN	Left	Yes	1.6910535999923	0	450466	234
880.857421875	1	health	trialStart	2	106	46	foodImage.117	FOODEEG_Images\0925.jpg	YN	Left	Yes	3.11000570002943	0	451000	251
881.8984375	2	health	foodImageDisplay	2	106	46	foodImage.117	FOODEEG_Images\0925.jpg	YN	Left	Yes	3.11000570002943	0	451533	252
883.9609375	3.11000570002943	health	choicePhaseStart	2	106	46	foodImage.117	FOODEEG_Images\0925.jpg	YN	Left	Yes	3.11000570002943	0	452589	253
887.0625	0	health	response	2	106	46	foodImage.117	FOODEEG_Images\0925.jpg	YN	Left	Yes	3.11000570002943	0	454177	234
888.10546875	1	taste	trialStart	2	107	47	foodImage.66	FOODEEG_Images\0676.jpg	NY	Right	Yes	0.756644700013567	0	454711	251
889.1484375	2	taste	foodImageDisplay	2	107	47	foodImage.66	FOODEEG_Images\0676.jpg	NY	Right	Yes	0.756644700013567	0	455245	252
891.2109375	0.756644700013567	taste	choicePhaseStart	2	107	47	foodImage.66	FOODEEG_Images\0676.jpg	NY	Right	Yes	0.756644700013567	0	456301	253
891.958984375	0	taste	response	2	107	47	foodImage.66	FOODEEG_Images\0676.jpg	NY	Right	Yes	0.756644700013567	0	456684	235
893.001953125	1	decision	trialStart	2	108	48	foodImage.17	FOODEEG_Images\0199.jpg	YN	Left	Yes	1.06003180000698	0	457218	251
894.044921875	2	decision	foodImageDisplay	2	108	48	foodImage.17	FOODEEG_Images\0199.jpg	YN	Left	Yes	1.06003180000698	0	457752	252
896.107421875	1.06003180000698	decision	choicePhaseStart	2	108	48	foodImage.17	FOODEEG_Images\0199.jpg	YN	Left	Yes	1.06003180000698	0	458808	253
897.158203125	0	decision	response	2	108	48	foodImage.17	FOODEEG_Images\0199.jpg	YN	Left	Yes	1.06003180000698	0	459346	234
898.201171875	1	decision	trialStart	2	109	49	foodImage.30	FOODEEG_Images\0282.jpg	NY	Right	Yes	0.584464999963529	0	459880	251
899.240234375	2	decision	foodImageDisplay	2	109	49	foodImage.30	FOODEEG_Images\0282.jpg	NY	Right	Yes	0.584464999963529	0	460412	252
901.302734375	0.584464999963529	decision	choicePhaseStart	2	109	49	foodImage.30	FOODEEG_Images\0282.jpg	NY	Right	Yes	0.584464999963529	0	461468	253
901.87890625	0	decision	response	2	109	49	foodImage.30	FOODEEG_Images\0282.jpg	NY	Right	Yes	0.584464999963529	0	461763	235
902.921875	1	health	trialStart	2	110	50	foodImage.19	FOODEEG_Images\0225.jpg	YN	Left	Yes	1.34945909999078	0	462297	251
903.962890625	2	health	foodImageDisplay	2	110	50	foodImage.19	FOODEEG_Images\0225.jpg	YN	Left	Yes	1.34945909999078	0	462830	252
906.025390625	1.34945909999078	health	choicePhaseStart	2	110	50	foodImage.19	FOODEEG_Images\0225.jpg	YN	Left	Yes	1.34945909999078	0	463886	253
907.365234375	0	health	response	2	110	50	foodImage.19	FOODEEG_Images\0225.jpg	YN	Left	Yes	1.34945909999078	0	464572	234
908.408203125	1	decision	trialStart	2	111	51	foodImage.88	FOODEEG_Images\0878.jpg	YN	Left	Yes	2.2243385000038	0	465106	251
909.46484375	2	decision	foodImageDisplay	2	111	51	foodImage.88	FOODEEG_Images\0878.jpg	YN	Left	Yes	2.2243385000038	0	465647	252
911.52734375	2.2243385000038	decision	choicePhaseStart	2	111	51	foodImage.88	FOODEEG_Images\0878.jpg	YN	Left	Yes	2.2243385000038	0	466703	253
913.7421875	0	decision	response	2	111	51	foodImage.88	FOODEEG_Images\0878.jpg	YN	Left	Yes	2.2243385000038	0	467837	234
914.78515625	1	taste	trialStart	2	112	52	foodImage.38	FOODEEG_Images\0365.jpg	NY	Right	Yes	1.16743229998974	0	468371	251
915.82421875	2	taste	foodImageDisplay	2	112	52	foodImage.38	FOODEEG_Images\0365.jpg	NY	Right	Yes	1.16743229998974	0	468903	252
917.88671875	1.16743229998974	taste	choicePhaseStart	2	112	52	foodImage.38	FOODEEG_Images\0365.jpg	NY	Right	Yes	1.16743229998974	0	469959	253
919.044921875	0	taste	response	2	112	52	foodImage.38	FOODEEG_Images\0365.jpg	NY	Right	Yes	1.16743229998974	0	470552	235
920.08984375	1	decision	trialStart	2	113	53	foodImage.49	FOODEEG_Images\0515.jpg	NY	Left	No	1.77308370004175	0	471087	251
921.130859375	2	decision	foodImageDisplay	2	113	53	foodImage.49	FOODEEG_Images\0515.jpg	NY	Left	No	1.77308370004175	0	471620	252
923.193359375	1.77308370004175	decision	choicePhaseStart	2	113	53	foodImage.49	FOODEEG_Images\0515.jpg	NY	Left	No	1.77308370004175	0	472676	253
924.95703125	0	decision	response	2	113	53	foodImage.49	FOODEEG_Images\0515.jpg	NY	Left	No	1.77308370004175	0	473579	234
926	1	taste	trialStart	2	114	54	foodImage.63	FOODEEG_Images\0645.jpg	YN	Left	Yes	1.46978949999902	0	474113	251
927.04296875	2	taste	foodImageDisplay	2	114	54	foodImage.63	FOODEEG_Images\0645.jpg	YN	Left	Yes	1.46978949999902	0	474647	252
929.10546875	1.46978949999902	taste	choicePhaseStart	2	114	54	foodImage.63	FOODEEG_Images\0645.jpg	YN	Left	Yes	1.46978949999902	0	475703	253
930.56640625	0	taste	response	2	114	54	foodImage.63	FOODEEG_Images\0645.jpg	YN	Left	Yes	1.46978949999902	0	476451	234
931.609375	1	taste	trialStart	2	115	55	foodImage.69	FOODEEG_Images\0693.jpg	NY	Right	Yes	0.60186719999183	0	476985	251
932.654296875	2	taste	foodImageDisplay	2	115	55	foodImage.69	FOODEEG_Images\0693.jpg	NY	Right	Yes	0.60186719999183	0	477520	252
934.716796875	0.60186719999183	taste	choicePhaseStart	2	115	55	foodImage.69	FOODEEG_Images\0693.jpg	NY	Right	Yes	0.60186719999183	0	478576	253
935.30859375	0	taste	response	2	115	55	foodImage.69	FOODEEG_Images\0693.jpg	NY	Right	Yes	0.60186719999183	0	478879	235
936.353515625	1	health	trialStart	2	116	56	foodImage.91	FOODEEG_Images\0896.jpg	NY	Right	Yes	1.19796050002333	0	479414	251
937.41015625	2	health	foodImageDisplay	2	116	56	foodImage.91	FOODEEG_Images\0896.jpg	NY	Right	Yes	1.19796050002333	0	479955	252
939.470703125	1.19796050002333	health	choicePhaseStart	2	116	56	foodImage.91	FOODEEG_Images\0896.jpg	NY	Right	Yes	1.19796050002333	0	481010	253
940.66015625	0	health	response	2	116	56	foodImage.91	FOODEEG_Images\0896.jpg	NY	Right	Yes	1.19796050002333	0	481619	235
941.703125	1	health	trialStart	2	117	57	foodImage.7	FOODEEG_Images\0116.jpg	NY	Left	No	1.45163460000185	0	482153	251
942.74609375	2	health	foodImageDisplay	2	117	57	foodImage.7	FOODEEG_Images\0116.jpg	NY	Left	No	1.45163460000185	0	482687	252
944.80859375	1.45163460000185	health	choicePhaseStart	2	117	57	foodImage.7	FOODEEG_Images\0116.jpg	NY	Left	No	1.45163460000185	0	483743	253
946.251953125	0	health	response	2	117	57	foodImage.7	FOODEEG_Images\0116.jpg	NY	Left	No	1.45163460000185	0	484482	234
947.296875	1	decision	trialStart	2	118	58	foodImage.77	FOODEEG_Images\0771.jpg	YN	Left	Yes	1.13434859999688	0	485017	251
948.341796875	2	decision	foodImageDisplay	2	118	58	foodImage.77	FOODEEG_Images\0771.jpg	YN	Left	Yes	1.13434859999688	0	485552	252
950.40625	1.13434859999688	decision	choicePhaseStart	2	118	58	foodImage.77	FOODEEG_Images\0771.jpg	YN	Left	Yes	1.13434859999688	0	486609	253
951.53125	0	decision	response	2	118	58	foodImage.77	FOODEEG_Images\0771.jpg	YN	Left	Yes	1.13434859999688	0	487185	234
952.57421875	1	decision	trialStart	2	119	59	foodImage.1	FOODEEG_Images\0004.jpg	YN	Right	No	1.30171540001174	0	487719	251
953.6171875	2	decision	foodImageDisplay	2	119	59	foodImage.1	FOODEEG_Images\0004.jpg	YN	Right	No	1.30171540001174	0	488253	252
955.6796875	1.30171540001174	decision	choicePhaseStart	2	119	59	foodImage.1	FOODEEG_Images\0004.jpg	YN	Right	No	1.30171540001174	0	489309	253
956.97265625	0	decision	response	2	119	59	foodImage.1	FOODEEG_Images\0004.jpg	YN	Right	No	1.30171540001174	0	489971	235
958.015625	1	health	trialStart	2	120	60	foodImage.92	FOODEEG_Images\0900.jpg	YN	Right	No	1.43190189998131	0	490505	251
959.0546875	2	health	foodImageDisplay	2	120	60	foodImage.92	FOODEEG_Images\0900.jpg	YN	Right	No	1.43190189998131	0	491037	252
961.1171875	1.43190189998131	health	choicePhaseStart	2	120	60	foodImage.92	FOODEEG_Images\0900.jpg	YN	Right	No	1.43190189998131	0	492093	253
962.5390625	0	health	response	2	120	60	foodImage.92	FOODEEG_Images\0900.jpg	YN	Right	No	1.43190189998131	0	492821	235
964.583984375	49.810546875	n/a	blockEnd	n/a	n/a	n/a	n/a	n/a	n/a	n/a	n/a	n/a	n/a	493868	254
1014.39453125	2	n/a	blockStart	3	n/a	n/a	n/a	n/a	n/a	n/a	n/a	n/a	n/a	519371	250
1016.4296875	1	taste	trialStart	3	121	1	foodImage.16	FOODEEG_Images\0196.jpg	YN	Left	Yes	0.917583699978422	0	520413	251
1017.4921875	2	taste	foodImageDisplay	3	121	1	foodImage.16	FOODEEG_Images\0196.jpg	YN	Left	Yes	0.917583699978422	0	520957	252
1019.556640625	0.917583699978422	taste	choicePhaseStart	3	121	1	foodImage.16	FOODEEG_Images\0196.jpg	YN	Left	Yes	0.917583699978422	0	522014	253
1020.46484375	0	taste	response	3	121	1	foodImage.16	FOODEEG_Images\0196.jpg	YN	Left	Yes	0.917583699978422	0	522479	234
1021.5078125	1	taste	trialStart	3	122	2	foodImage.118	FOODEEG_Images\0926.jpg	NY	Left	No	0.616533000022173	0	523013	251
1022.544921875	2	taste	foodImageDisplay	3	122	2	foodImage.118	FOODEEG_Images\0926.jpg	NY	Left	No	0.616533000022173	0	523544	252
1024.609375	0.616533000022173	taste	choicePhaseStart	3	122	2	foodImage.118	FOODEEG_Images\0926.jpg	NY	Left	No	0.616533000022173	0	524601	253
1025.216796875	0	taste	response	3	122	2	foodImage.118	FOODEEG_Images\0926.jpg	NY	Left	No	0.616533000022173	0	524912	234
1026.259765625	1	decision	trialStart	3	123	3	foodImage.105	FOODEEG_Images\0913.jpg	YN	Right	No	0.761555299977772	0	525446	251
1027.298828125	2	decision	foodImageDisplay	3	123	3	foodImage.105	FOODEEG_Images\0913.jpg	YN	Right	No	0.761555299977772	0	525978	252
1029.361328125	0.761555299977772	decision	choicePhaseStart	3	123	3	foodImage.105	FOODEEG_Images\0913.jpg	YN	Right	No	0.761555299977772	0	527034	253
1030.11328125	0	decision	response	3	123	3	foodImage.105	FOODEEG_Images\0913.jpg	YN	Right	No	0.761555299977772	0	527419	235
1031.16796875	1	decision	trialStart	3	124	4	foodImage.52	FOODEEG_Images\0539.jpg	NY	Left	No	1.02639510005247	0	527959	251
1032.224609375	2	decision	foodImageDisplay	3	124	4	foodImage.52	FOODEEG_Images\0539.jpg	NY	Left	No	1.02639510005247	0	528500	252
1034.287109375	1.02639510005247	decision	choicePhaseStart	3	124	4	foodImage.52	FOODEEG_Images\0539.jpg	NY	Left	No	1.02639510005247	0	529556	253
1035.3046875	0	decision	response	3	124	4	foodImage.52	FOODEEG_Images\0539.jpg	NY	Left	No	1.02639510005247	0	530077	234
1036.345703125	1	decision	trialStart	3	125	5	foodImage.43	FOODEEG_Images\0445.jpg	NY	Left	No	1.85749580000993	0	530610	251
1037.40234375	2	decision	foodImageDisplay	3	125	5	foodImage.43	FOODEEG_Images\0445.jpg	NY	Left	No	1.85749580000993	0	531151	252
1039.46484375	1.85749580000993	decision	choicePhaseStart	3	125	5	foodImage.43	FOODEEG_Images\0445.jpg	NY	Left	No	1.85749580000993	0	532207	253
1041.3125	0	decision	response	3	125	5	foodImage.43	FOODEEG_Images\0445.jpg	NY	Left	No	1.85749580000993	0	533153	234
1042.35546875	1	health	trialStart	3	126	6	foodImage.16	FOODEEG_Images\0196.jpg	YN	Left	Yes	0.908470100024715	0	533687	251
1043.4140625	2	health	foodImageDisplay	3	126	6	foodImage.16	FOODEEG_Images\0196.jpg	YN	Left	Yes	0.908470100024715	0	534229	252
1045.4765625	0.908470100024715	health	choicePhaseStart	3	126	6	foodImage.16	FOODEEG_Images\0196.jpg	YN	Left	Yes	0.908470100024715	0	535285	253
1046.376953125	0	health	response	3	126	6	foodImage.16	FOODEEG_Images\0196.jpg	YN	Left	Yes	0.908470100024715	0	535746	234
1047.419921875	1	health	trialStart	3	127	7	foodImage.79	FOODEEG_Images\0794.jpg	YN	Left	Yes	0.890488800010644	0	536280	251
1048.46484375	2	health	foodImageDisplay	3	127	7	foodImage.79	FOODEEG_Images\0794.jpg	YN	Left	Yes	0.890488800010644	0	536815	252
1050.52734375	0.890488800010644	health	choicePhaseStart	3	127	7	foodImage.79	FOODEEG_Images\0794.jpg	YN	Left	Yes	0.890488800010644	0	537871	253
1051.408203125	0	health	response	3	127	7	foodImage.79	FOODEEG_Images\0794.jpg	YN	Left	Yes	0.890488800010644	0	538322	234
1052.44921875	1	decision	trialStart	3	128	8	foodImage.55	FOODEEG_Images\0567.jpg	YN	Left	Yes	0.928695400012657	0	538855	251
1053.509765625	2	decision	foodImageDisplay	3	128	8	foodImage.55	FOODEEG_Images\0567.jpg	YN	Left	Yes	0.928695400012657	0	539398	252
1055.57421875	0.928695400012657	decision	choicePhaseStart	3	128	8	foodImage.55	FOODEEG_Images\0567.jpg	YN	Left	Yes	0.928695400012657	0	540455	253
1056.49609375	0	decision	response	3	128	8	foodImage.55	FOODEEG_Images\0567.jpg	YN	Left	Yes	0.928695400012657	0	540927	234
1057.5390625	1	taste	trialStart	3	129	9	foodImage.77	FOODEEG_Images\0771.jpg	YN	Left	Yes	0.822252999991179	0	541461	251
1058.580078125	2	taste	foodImageDisplay	3	129	9	foodImage.77	FOODEEG_Images\0771.jpg	YN	Left	Yes	0.822252999991179	0	541994	252
1060.642578125	0.822252999991179	taste	choicePhaseStart	3	129	9	foodImage.77	FOODEEG_Images\0771.jpg	YN	Left	Yes	0.822252999991179	0	543050	253
1061.455078125	0	taste	response	3	129	9	foodImage.77	FOODEEG_Images\0771.jpg	YN	Left	Yes	0.822252999991179	0	543466	234
1062.498046875	1	taste	trialStart	3	130	10	foodImage.114	FOODEEG_Images\0922.jpg	NY	Left	No	1.03630039998097	0	544000	251
1063.533203125	2	taste	foodImageDisplay	3	130	10	foodImage.114	FOODEEG_Images\0922.jpg	NY	Left	No	1.03630039998097	0	544530	252
1065.595703125	1.03630039998097	taste	choicePhaseStart	3	130	10	foodImage.114	FOODEEG_Images\0922.jpg	NY	Left	No	1.03630039998097	0	545586	253
1066.623046875	0	taste	response	3	130	10	foodImage.114	FOODEEG_Images\0922.jpg	NY	Left	No	1.03630039998097	0	546112	234
1067.671875	1	health	trialStart	3	131	11	foodImage.94	FOODEEG_Images\0902.jpg	NY	Right	Yes	2.43466420000186	0	546649	251
1068.7109375	2	health	foodImageDisplay	3	131	11	foodImage.94	FOODEEG_Images\0902.jpg	NY	Right	Yes	2.43466420000186	0	547181	252
1070.7734375	2.43466420000186	health	choicePhaseStart	3	131	11	foodImage.94	FOODEEG_Images\0902.jpg	NY	Right	Yes	2.43466420000186	0	548237	253
1073.19921875	0	health	response	3	131	11	foodImage.94	FOODEEG_Images\0902.jpg	NY	Right	Yes	2.43466420000186	0	549479	235
1074.2421875	1	taste	trialStart	3	132	12	foodImage.23	FOODEEG_Images\0244.jpg	NY	Right	Yes	1.39587290002964	0	550013	251
1075.287109375	2	taste	foodImageDisplay	3	132	12	foodImage.23	FOODEEG_Images\0244.jpg	NY	Right	Yes	1.39587290002964	0	550548	252
1077.349609375	1.39587290002964	taste	choicePhaseStart	3	132	12	foodImage.23	FOODEEG_Images\0244.jpg	NY	Right	Yes	1.39587290002964	0	551604	253
1078.734375	0	taste	response	3	132	12	foodImage.23	FOODEEG_Images\0244.jpg	NY	Right	Yes	1.39587290002964	0	552313	235
1079.77734375	1	decision	trialStart	3	133	13	foodImage.29	FOODEEG_Images\0278.jpg	YN	Left	Yes	1.06127820000984	0	552847	251
1080.818359375	2	decision	foodImageDisplay	3	133	13	foodImage.29	FOODEEG_Images\0278.jpg	YN	Left	Yes	1.06127820000984	0	553380	252
1082.880859375	1.06127820000984	decision	choicePhaseStart	3	133	13	foodImage.29	FOODEEG_Images\0278.jpg	YN	Left	Yes	1.06127820000984	0	554436	253
1083.935546875	0	decision	response	3	133	13	foodImage.29	FOODEEG_Images\0278.jpg	YN	Left	Yes	1.06127820000984	0	554976	234
1084.978515625	1	health	trialStart	3	134	14	foodImage.66	FOODEEG_Images\0676.jpg	YN	Right	No	1.49877060001018	0	555510	251
1086.021484375	2	health	foodImageDisplay	3	134	14	foodImage.66	FOODEEG_Images\0676.jpg	YN	Right	No	1.49877060001018	0	556044	252
1088.083984375	1.49877060001018	health	choicePhaseStart	3	134	14	foodImage.66	FOODEEG_Images\0676.jpg	YN	Right	No	1.49877060001018	0	557100	253
1089.57421875	0	health	response	3	134	14	foodImage.66	FOODEEG_Images\0676.jpg	YN	Right	No	1.49877060001018	0	557863	235
1090.6171875	1	decision	trialStart	3	135	15	foodImage.79	FOODEEG_Images\0794.jpg	YN	Left	Yes	1.94062449998455	0	558397	251
1091.662109375	2	decision	foodImageDisplay	3	135	15	foodImage.79	FOODEEG_Images\0794.jpg	YN	Left	Yes	1.94062449998455	0	558932	252
1093.724609375	1.94062449998455	decision	choicePhaseStart	3	135	15	foodImage.79	FOODEEG_Images\0794.jpg	YN	Left	Yes	1.94062449998455	0	559988	253
1095.654296875	0	decision	response	3	135	15	foodImage.79	FOODEEG_Images\0794.jpg	YN	Left	Yes	1.94062449998455	0	560976	234
1096.6953125	1	health	trialStart	3	136	16	foodImage.38	FOODEEG_Images\0365.jpg	NY	Right	Yes	0.928131299966481	0	561509	251
1097.736328125	2	health	foodImageDisplay	3	136	16	foodImage.38	FOODEEG_Images\0365.jpg	NY	Right	Yes	0.928131299966481	0	562042	252
1099.798828125	0.928131299966481	health	choicePhaseStart	3	136	16	foodImage.38	FOODEEG_Images\0365.jpg	NY	Right	Yes	0.928131299966481	0	563098	253
1100.71875	0	health	response	3	136	16	foodImage.38	FOODEEG_Images\0365.jpg	NY	Right	Yes	0.928131299966481	0	563569	235
1101.767578125	1	decision	trialStart	3	137	17	foodImage.114	FOODEEG_Images\0922.jpg	YN	Right	No	1.50681049999548	0	564106	251
1102.806640625	2	decision	foodImageDisplay	3	137	17	foodImage.114	FOODEEG_Images\0922.jpg	YN	Right	No	1.50681049999548	0	564638	252
1104.869140625	1.50681049999548	decision	choicePhaseStart	3	137	17	foodImage.114	FOODEEG_Images\0922.jpg	YN	Right	No	1.50681049999548	0	565694	253
1106.3671875	0	decision	response	3	137	17	foodImage.114	FOODEEG_Images\0922.jpg	YN	Right	No	1.50681049999548	0	566461	235
1107.41015625	1	taste	trialStart	3	138	18	foodImage.120	FOODEEG_Images\0928.jpg	YN	Right	No	0.718988000007812	0	566995	251
1108.447265625	2	taste	foodImageDisplay	3	138	18	foodImage.120	FOODEEG_Images\0928.jpg	YN	Right	No	0.718988000007812	0	567526	252
1110.509765625	0.718988000007812	taste	choicePhaseStart	3	138	18	foodImage.120	FOODEEG_Images\0928.jpg	YN	Right	No	0.718988000007812	0	568582	253
1111.22265625	0	taste	response	3	138	18	foodImage.120	FOODEEG_Images\0928.jpg	YN	Right	No	0.718988000007812	0	568947	235
1112.265625	1	health	trialStart	3	139	19	foodImage.76	FOODEEG_Images\0766.jpg	YN	Left	Yes	0.799367600004189	0	569481	251
1113.3203125	2	health	foodImageDisplay	3	139	19	foodImage.76	FOODEEG_Images\0766.jpg	YN	Left	Yes	0.799367600004189	0	570021	252
1115.3828125	0.799367600004189	health	choicePhaseStart	3	139	19	foodImage.76	FOODEEG_Images\0766.jpg	YN	Left	Yes	0.799367600004189	0	571077	253
1116.173828125	0	health	response	3	139	19	foodImage.76	FOODEEG_Images\0766.jpg	YN	Left	Yes	0.799367600004189	0	571482	234
1117.216796875	1	health	trialStart	3	140	20	foodImage.74	FOODEEG_Images\0752.jpg	YN	Left	Yes	1.06041940004798	0	572016	251
1118.259765625	2	health	foodImageDisplay	3	140	20	foodImage.74	FOODEEG_Images\0752.jpg	YN	Left	Yes	1.06041940004798	0	572550	252
1120.322265625	1.06041940004798	health	choicePhaseStart	3	140	20	foodImage.74	FOODEEG_Images\0752.jpg	YN	Left	Yes	1.06041940004798	0	573606	253
1121.373046875	0	health	response	3	140	20	foodImage.74	FOODEEG_Images\0752.jpg	YN	Left	Yes	1.06041940004798	0	574144	234
1122.41796875	1	health	trialStart	3	141	21	foodImage.71	FOODEEG_Images\0713.jpg	YN	Right	No	0.508961400017142	0	574679	251
1123.458984375	2	health	foodImageDisplay	3	141	21	foodImage.71	FOODEEG_Images\0713.jpg	YN	Right	No	0.508961400017142	0	575212	252
1125.521484375	0.508961400017142	health	choicePhaseStart	3	141	21	foodImage.71	FOODEEG_Images\0713.jpg	YN	Right	No	0.508961400017142	0	576268	253
1126.021484375	0	health	response	3	141	21	foodImage.71	FOODEEG_Images\0713.jpg	YN	Right	No	0.508961400017142	0	576524	235
1127.06640625	1	taste	trialStart	3	142	22	foodImage.50	FOODEEG_Images\0529.jpg	NY	Left	No	2.75382959999843	0	577059	251
1128.125	2	taste	foodImageDisplay	3	142	22	foodImage.50	FOODEEG_Images\0529.jpg	NY	Left	No	2.75382959999843	0	577601	252
1130.1875	2.75382959999843	taste	choicePhaseStart	3	142	22	foodImage.50	FOODEEG_Images\0529.jpg	NY	Left	No	2.75382959999843	0	578657	253
1132.93359375	0	taste	response	3	142	22	foodImage.50	FOODEEG_Images\0529.jpg	NY	Left	No	2.75382959999843	0	580063	234
1133.978515625	1	taste	trialStart	3	143	23	foodImage.90	FOODEEG_Images\0890.jpg	YN	Left	Yes	1.43262259999756	0	580598	251
1135.0390625	2	taste	foodImageDisplay	3	143	23	foodImage.90	FOODEEG_Images\0890.jpg	YN	Left	Yes	1.43262259999756	0	581141	252
1137.1015625	1.43262259999756	taste	choicePhaseStart	3	143	23	foodImage.90	FOODEEG_Images\0890.jpg	YN	Left	Yes	1.43262259999756	0	582197	253
1138.525390625	0	taste	response	3	143	23	foodImage.90	FOODEEG_Images\0890.jpg	YN	Left	Yes	1.43262259999756	0	582926	234
1139.568359375	1	decision	trialStart	3	144	24	foodImage.83	FOODEEG_Images\0827.jpg	YN	Left	Yes	0.924404999997932	0	583460	251
1140.625	2	decision	foodImageDisplay	3	144	24	foodImage.83	FOODEEG_Images\0827.jpg	YN	Left	Yes	0.924404999997932	0	584001	252
1142.6875	0.924404999997932	decision	choicePhaseStart	3	144	24	foodImage.83	FOODEEG_Images\0827.jpg	YN	Left	Yes	0.924404999997932	0	585057	253
1143.60546875	0	decision	response	3	144	24	foodImage.83	FOODEEG_Images\0827.jpg	YN	Left	Yes	0.924404999997932	0	585527	234
1144.6484375	1	health	trialStart	3	145	25	foodImage.39	FOODEEG_Images\0367.jpg	NY	Left	No	1.6897605000413	0	586061	251
1145.685546875	2	health	foodImageDisplay	3	145	25	foodImage.39	FOODEEG_Images\0367.jpg	NY	Left	No	1.6897605000413	0	586592	252
1147.748046875	1.6897605000413	health	choicePhaseStart	3	145	25	foodImage.39	FOODEEG_Images\0367.jpg	NY	Left	No	1.6897605000413	0	587648	253
1149.427734375	0	health	response	3	145	25	foodImage.39	FOODEEG_Images\0367.jpg	NY	Left	No	1.6897605000413	0	588508	234
1150.46875	1	taste	trialStart	3	146	26	foodImage.13	FOODEEG_Images\0183.jpg	YN	Right	No	0.920388000027742	0	589041	251
1151.509765625	2	taste	foodImageDisplay	3	146	26	foodImage.13	FOODEEG_Images\0183.jpg	YN	Right	No	0.920388000027742	0	589574	252
1153.572265625	0.920388000027742	taste	choicePhaseStart	3	146	26	foodImage.13	FOODEEG_Images\0183.jpg	YN	Right	No	0.920388000027742	0	590630	253
1154.484375	0	taste	response	3	146	26	foodImage.13	FOODEEG_Images\0183.jpg	YN	Right	No	0.920388000027742	0	591097	235
1155.5234375	1	health	trialStart	3	147	27	foodImage.56	FOODEEG_Images\0586.jpg	NY	Right	Yes	1.32310219999636	0	591629	251
1156.564453125	2	health	foodImageDisplay	3	147	27	foodImage.56	FOODEEG_Images\0586.jpg	NY	Right	Yes	1.32310219999636	0	592162	252
1158.626953125	1.32310219999636	health	choicePhaseStart	3	147	27	foodImage.56	FOODEEG_Images\0586.jpg	NY	Right	Yes	1.32310219999636	0	593218	253
1159.939453125	0	health	response	3	147	27	foodImage.56	FOODEEG_Images\0586.jpg	NY	Right	Yes	1.32310219999636	0	593890	235
1160.984375	1	taste	trialStart	3	148	28	foodImage.111	FOODEEG_Images\0919.jpg	YN	Right	No	1.44397459999891	0	594425	251
1162.021484375	2	taste	foodImageDisplay	3	148	28	foodImage.111	FOODEEG_Images\0919.jpg	YN	Right	No	1.44397459999891	0	594956	252
1164.087890625	1.44397459999891	taste	choicePhaseStart	3	148	28	foodImage.111	FOODEEG_Images\0919.jpg	YN	Right	No	1.44397459999891	0	596014	253
1165.5234375	0	taste	response	3	148	28	foodImage.111	FOODEEG_Images\0919.jpg	YN	Right	No	1.44397459999891	0	596749	235
1166.56640625	1	health	trialStart	3	149	29	foodImage.8	FOODEEG_Images\0136.jpg	YN	Right	No	1.10267970000859	0	597283	251
1167.607421875	2	health	foodImageDisplay	3	149	29	foodImage.8	FOODEEG_Images\0136.jpg	YN	Right	No	1.10267970000859	0	597816	252
1169.67578125	1.10267970000859	health	choicePhaseStart	3	149	29	foodImage.8	FOODEEG_Images\0136.jpg	YN	Right	No	1.10267970000859	0	598875	253
1170.771484375	0	health	response	3	149	29	foodImage.8	FOODEEG_Images\0136.jpg	YN	Right	No	1.10267970000859	0	599436	235
1171.8125	1	taste	trialStart	3	150	30	foodImage.94	FOODEEG_Images\0902.jpg	YN	Right	No	0.891247599967755	0	599969	251
1172.849609375	2	taste	foodImageDisplay	3	150	30	foodImage.94	FOODEEG_Images\0902.jpg	YN	Right	No	0.891247599967755	0	600500	252
1174.912109375	0.891247599967755	taste	choicePhaseStart	3	150	30	foodImage.94	FOODEEG_Images\0902.jpg	YN	Right	No	0.891247599967755	0	601556	253
1175.794921875	0	taste	response	3	150	30	foodImage.94	FOODEEG_Images\0902.jpg	YN	Right	No	0.891247599967755	0	602008	235
1176.837890625	1	health	trialStart	3	151	31	foodImage.99	FOODEEG_Images\0907.jpg	YN	Right	No	0.857600699993782	0	602542	251
1177.875	2	health	foodImageDisplay	3	151	31	foodImage.99	FOODEEG_Images\0907.jpg	YN	Right	No	0.857600699993782	0	603073	252
1179.9375	0.857600699993782	health	choicePhaseStart	3	151	31	foodImage.99	FOODEEG_Images\0907.jpg	YN	Right	No	0.857600699993782	0	604129	253
1180.787109375	0	health	response	3	151	31	foodImage.99	FOODEEG_Images\0907.jpg	YN	Right	No	0.857600699993782	0	604564	235
1181.830078125	1	health	trialStart	3	152	32	foodImage.35	FOODEEG_Images\0350.jpg	YN	Right	No	0.98577229998773	0	605098	251
1182.869140625	2	health	foodImageDisplay	3	152	32	foodImage.35	FOODEEG_Images\0350.jpg	YN	Right	No	0.98577229998773	0	605630	252
1184.931640625	0.98577229998773	health	choicePhaseStart	3	152	32	foodImage.35	FOODEEG_Images\0350.jpg	YN	Right	No	0.98577229998773	0	606686	253
1185.90625	0	health	response	3	152	32	foodImage.35	FOODEEG_Images\0350.jpg	YN	Right	No	0.98577229998773	0	607185	235
1186.951171875	1	decision	trialStart	3	153	33	foodImage.82	FOODEEG_Images\0805.jpg	YN	Left	Yes	1.9268472000258	0	607720	251
1188.005859375	2	decision	foodImageDisplay	3	153	33	foodImage.82	FOODEEG_Images\0805.jpg	YN	Left	Yes	1.9268472000258	0	608260	252
1190.068359375	1.9268472000258	decision	choicePhaseStart	3	153	33	foodImage.82	FOODEEG_Images\0805.jpg	YN	Left	Yes	1.9268472000258	0	609316	253
1191.986328125	0	decision	response	3	153	33	foodImage.82	FOODEEG_Images\0805.jpg	YN	Left	Yes	1.9268472000258	0	610298	234
1193.029296875	1	taste	trialStart	3	154	34	foodImage.30	FOODEEG_Images\0282.jpg	NY	Right	Yes	1.11844849999761	0	610832	251
1194.0703125	2	taste	foodImageDisplay	3	154	34	foodImage.30	FOODEEG_Images\0282.jpg	NY	Right	Yes	1.11844849999761	0	611365	252
1196.1328125	1.11844849999761	taste	choicePhaseStart	3	154	34	foodImage.30	FOODEEG_Images\0282.jpg	NY	Right	Yes	1.11844849999761	0	612421	253
1197.2421875	0	taste	response	3	154	34	foodImage.30	FOODEEG_Images\0282.jpg	NY	Right	Yes	1.11844849999761	0	612989	235
1198.287109375	1	decision	trialStart	3	155	35	foodImage.54	FOODEEG_Images\0560.jpg	YN	Right	No	0.9560644000303	0	613524	251
1199.345703125	2	decision	foodImageDisplay	3	155	35	foodImage.54	FOODEEG_Images\0560.jpg	YN	Right	No	0.9560644000303	0	614066	252
1201.408203125	0.9560644000303	decision	choicePhaseStart	3	155	35	foodImage.54	FOODEEG_Images\0560.jpg	YN	Right	No	0.9560644000303	0	615122	253
1202.353515625	0	decision	response	3	155	35	foodImage.54	FOODEEG_Images\0560.jpg	YN	Right	No	0.9560644000303	0	615606	235
1203.3984375	1	decision	trialStart	3	156	36	foodImage.51	FOODEEG_Images\0536.jpg	NY	Right	Yes	1.4338366999873	0	616141	251
1204.443359375	2	decision	foodImageDisplay	3	156	36	foodImage.51	FOODEEG_Images\0536.jpg	NY	Right	Yes	1.4338366999873	0	616676	252
1206.505859375	1.4338366999873	decision	choicePhaseStart	3	156	36	foodImage.51	FOODEEG_Images\0536.jpg	NY	Right	Yes	1.4338366999873	0	617732	253
1207.9296875	0	decision	response	3	156	36	foodImage.51	FOODEEG_Images\0536.jpg	NY	Right	Yes	1.4338366999873	0	618461	235
1208.9765625	1	taste	trialStart	3	157	37	foodImage.12	FOODEEG_Images\0181.jpg	NY	Right	Yes	1.44230230001267	0	618997	251
1210.017578125	2	taste	foodImageDisplay	3	157	37	foodImage.12	FOODEEG_Images\0181.jpg	NY	Right	Yes	1.44230230001267	0	619530	252
1212.080078125	1.44230230001267	taste	choicePhaseStart	3	157	37	foodImage.12	FOODEEG_Images\0181.jpg	NY	Right	Yes	1.44230230001267	0	620586	253
1213.513671875	0	taste	response	3	157	37	foodImage.12	FOODEEG_Images\0181.jpg	NY	Right	Yes	1.44230230001267	0	621320	235
1214.556640625	1	decision	trialStart	3	158	38	foodImage.25	FOODEEG_Images\0261.jpg	YN	Right	No	1.47713760001352	0	621854	251
1215.599609375	2	decision	foodImageDisplay	3	158	38	foodImage.25	FOODEEG_Images\0261.jpg	YN	Right	No	1.47713760001352	0	622388	252
1217.662109375	1.47713760001352	decision	choicePhaseStart	3	158	38	foodImage.25	FOODEEG_Images\0261.jpg	YN	Right	No	1.47713760001352	0	623444	253
1219.12890625	0	decision	response	3	158	38	foodImage.25	FOODEEG_Images\0261.jpg	YN	Right	No	1.47713760001352	0	624195	235
1220.173828125	1	decision	trialStart	3	159	39	foodImage.90	FOODEEG_Images\0890.jpg	YN	Left	Yes	1.12513699999545	0	624730	251
1221.23046875	2	decision	foodImageDisplay	3	159	39	foodImage.90	FOODEEG_Images\0890.jpg	YN	Left	Yes	1.12513699999545	0	625271	252
1223.29296875	1.12513699999545	decision	choicePhaseStart	3	159	39	foodImage.90	FOODEEG_Images\0890.jpg	YN	Left	Yes	1.12513699999545	0	626327	253
1224.41015625	0	decision	response	3	159	39	foodImage.90	FOODEEG_Images\0890.jpg	YN	Left	Yes	1.12513699999545	0	626899	234
1225.451171875	1	health	trialStart	3	160	40	foodImage.47	FOODEEG_Images\0488.jpg	YN	Right	No	0.839625199965667	0	627432	251
1226.4921875	2	health	foodImageDisplay	3	160	40	foodImage.47	FOODEEG_Images\0488.jpg	YN	Right	No	0.839625199965667	0	627965	252
1228.5546875	0.839625199965667	health	choicePhaseStart	3	160	40	foodImage.47	FOODEEG_Images\0488.jpg	YN	Right	No	0.839625199965667	0	629021	253
1229.384765625	0	health	response	3	160	40	foodImage.47	FOODEEG_Images\0488.jpg	YN	Right	No	0.839625199965667	0	629446	235
1230.4296875	1	taste	trialStart	3	161	41	foodImage.55	FOODEEG_Images\0567.jpg	YN	Left	Yes	0.773105499974918	0	629981	251
1231.486328125	2	taste	foodImageDisplay	3	161	41	foodImage.55	FOODEEG_Images\0567.jpg	YN	Left	Yes	0.773105499974918	0	630522	252
1233.548828125	0.773105499974918	taste	choicePhaseStart	3	161	41	foodImage.55	FOODEEG_Images\0567.jpg	YN	Left	Yes	0.773105499974918	0	631578	253
1234.3125	0	taste	response	3	161	41	foodImage.55	FOODEEG_Images\0567.jpg	YN	Left	Yes	0.773105499974918	0	631969	234
1235.35546875	1	decision	trialStart	3	162	42	foodImage.74	FOODEEG_Images\0752.jpg	NY	Right	Yes	2.12536480004201	0	632503	251
1236.3984375	2	decision	foodImageDisplay	3	162	42	foodImage.74	FOODEEG_Images\0752.jpg	NY	Right	Yes	2.12536480004201	0	633037	252
1238.4609375	2.12536480004201	decision	choicePhaseStart	3	162	42	foodImage.74	FOODEEG_Images\0752.jpg	NY	Right	Yes	2.12536480004201	0	634093	253
1240.576171875	0	decision	response	3	162	42	foodImage.74	FOODEEG_Images\0752.jpg	NY	Right	Yes	2.12536480004201	0	635176	235
1241.619140625	1	decision	trialStart	3	163	43	foodImage.32	FOODEEG_Images\0319.jpg	NY	Right	Yes	2.20132880000165	0	635710	251
1242.6640625	2	decision	foodImageDisplay	3	163	43	foodImage.32	FOODEEG_Images\0319.jpg	NY	Right	Yes	2.20132880000165	0	636245	252
1244.7265625	2.20132880000165	decision	choicePhaseStart	3	163	43	foodImage.32	FOODEEG_Images\0319.jpg	NY	Right	Yes	2.20132880000165	0	637301	253
1246.919921875	0	decision	response	3	163	43	foodImage.32	FOODEEG_Images\0319.jpg	NY	Right	Yes	2.20132880000165	0	638424	235
1247.962890625	1	health	trialStart	3	164	44	foodImage.11	FOODEEG_Images\0180.jpg	NY	Right	Yes	1.12590639997507	0	638958	251
1249.00390625	2	health	foodImageDisplay	3	164	44	foodImage.11	FOODEEG_Images\0180.jpg	NY	Right	Yes	1.12590639997507	0	639491	252
1251.06640625	1.12590639997507	health	choicePhaseStart	3	164	44	foodImage.11	FOODEEG_Images\0180.jpg	NY	Right	Yes	1.12590639997507	0	640547	253
1252.18359375	0	health	response	3	164	44	foodImage.11	FOODEEG_Images\0180.jpg	NY	Right	Yes	1.12590639997507	0	641119	235
1253.2265625	1	taste	trialStart	3	165	45	foodImage.57	FOODEEG_Images\0587.jpg	NY	Right	Yes	1.05834700004198	0	641653	251
1254.271484375	2	taste	foodImageDisplay	3	165	45	foodImage.57	FOODEEG_Images\0587.jpg	NY	Right	Yes	1.05834700004198	0	642188	252
1256.333984375	1.05834700004198	taste	choicePhaseStart	3	165	45	foodImage.57	FOODEEG_Images\0587.jpg	NY	Right	Yes	1.05834700004198	0	643244	253
1257.384765625	0	taste	response	3	165	45	foodImage.57	FOODEEG_Images\0587.jpg	NY	Right	Yes	1.05834700004198	0	643782	235
1258.427734375	1	taste	trialStart	3	166	46	foodImage.20	FOODEEG_Images\0226.jpg	NY	Left	No	3.75696010002866	0	644316	251
1259.46875	2	taste	foodImageDisplay	3	166	46	foodImage.20	FOODEEG_Images\0226.jpg	NY	Left	No	3.75696010002866	0	644849	252
1261.53125	3.75696010002866	taste	choicePhaseStart	3	166	46	foodImage.20	FOODEEG_Images\0226.jpg	NY	Left	No	3.75696010002866	0	645905	253
1265.279296875	0	taste	response	3	166	46	foodImage.20	FOODEEG_Images\0226.jpg	NY	Left	No	3.75696010002866	0	647824	234
1266.32421875	1	taste	trialStart	3	167	47	foodImage.32	FOODEEG_Images\0319.jpg	NY	Right	Yes	1.25944860000163	0	648359	251
1267.365234375	2	taste	foodImageDisplay	3	167	47	foodImage.32	FOODEEG_Images\0319.jpg	NY	Right	Yes	1.25944860000163	0	648892	252
1269.427734375	1.25944860000163	taste	choicePhaseStart	3	167	47	foodImage.32	FOODEEG_Images\0319.jpg	NY	Right	Yes	1.25944860000163	0	649948	253
1270.6796875	0	taste	response	3	167	47	foodImage.32	FOODEEG_Images\0319.jpg	NY	Right	Yes	1.25944860000163	0	650589	235
1271.72265625	1	taste	trialStart	3	168	48	foodImage.99	FOODEEG_Images\0907.jpg	NY	Left	No	0.936793299973942	0	651123	251
1272.76171875	2	taste	foodImageDisplay	3	168	48	foodImage.99	FOODEEG_Images\0907.jpg	NY	Left	No	0.936793299973942	0	651655	252
1274.82421875	0.936793299973942	taste	choicePhaseStart	3	168	48	foodImage.99	FOODEEG_Images\0907.jpg	NY	Left	No	0.936793299973942	0	652711	253
1275.751953125	0	taste	response	3	168	48	foodImage.99	FOODEEG_Images\0907.jpg	NY	Left	No	0.936793299973942	0	653186	234
1276.79296875	1	health	trialStart	3	169	49	foodImage.104	FOODEEG_Images\0912.jpg	NY	Left	No	1.01060109998798	0	653719	251
1277.83203125	2	health	foodImageDisplay	3	169	49	foodImage.104	FOODEEG_Images\0912.jpg	NY	Left	No	1.01060109998798	0	654251	252
1279.89453125	1.01060109998798	health	choicePhaseStart	3	169	49	foodImage.104	FOODEEG_Images\0912.jpg	NY	Left	No	1.01060109998798	0	655307	253
1280.89453125	0	health	response	3	169	49	foodImage.104	FOODEEG_Images\0912.jpg	NY	Left	No	1.01060109998798	0	655819	234
1281.939453125	1	health	trialStart	3	170	50	foodImage.5	FOODEEG_Images\0107.jpg	YN	Right	No	1.04263540002285	0	656354	251
1282.998046875	2	health	foodImageDisplay	3	170	50	foodImage.5	FOODEEG_Images\0107.jpg	YN	Right	No	1.04263540002285	0	656896	252
1285.060546875	1.04263540002285	health	choicePhaseStart	3	170	50	foodImage.5	FOODEEG_Images\0107.jpg	YN	Right	No	1.04263540002285	0	657952	253
1286.095703125	0	health	response	3	170	50	foodImage.5	FOODEEG_Images\0107.jpg	YN	Right	No	1.04263540002285	0	658482	235
1287.138671875	1	health	trialStart	3	171	51	foodImage.27	FOODEEG_Images\0263.jpg	YN	Left	Yes	1.86886420001974	0	659016	251
1288.181640625	2	health	foodImageDisplay	3	171	51	foodImage.27	FOODEEG_Images\0263.jpg	YN	Left	Yes	1.86886420001974	0	659550	252
1290.244140625	1.86886420001974	health	choicePhaseStart	3	171	51	foodImage.27	FOODEEG_Images\0263.jpg	YN	Left	Yes	1.86886420001974	0	660606	253
1292.103515625	0	health	response	3	171	51	foodImage.27	FOODEEG_Images\0263.jpg	YN	Left	Yes	1.86886420001974	0	661558	234
1293.146484375	1	decision	trialStart	3	172	52	foodImage.36	FOODEEG_Images\0352.jpg	YN	Left	Yes	1.36756159999641	0	662092	251
1294.201171875	2	decision	foodImageDisplay	3	172	52	foodImage.36	FOODEEG_Images\0352.jpg	YN	Left	Yes	1.36756159999641	0	662632	252
1296.263671875	1.36756159999641	decision	choicePhaseStart	3	172	52	foodImage.36	FOODEEG_Images\0352.jpg	YN	Left	Yes	1.36756159999641	0	663688	253
1297.623046875	0	decision	response	3	172	52	foodImage.36	FOODEEG_Images\0352.jpg	YN	Left	Yes	1.36756159999641	0	664384	234
1298.666015625	1	decision	trialStart	3	173	53	foodImage.20	FOODEEG_Images\0226.jpg	NY	Left	No	1.51691060001031	0	664918	251
1299.708984375	2	decision	foodImageDisplay	3	173	53	foodImage.20	FOODEEG_Images\0226.jpg	NY	Left	No	1.51691060001031	0	665452	252
1301.771484375	1.51691060001031	decision	choicePhaseStart	3	173	53	foodImage.20	FOODEEG_Images\0226.jpg	NY	Left	No	1.51691060001031	0	666508	253
1303.279296875	0	decision	response	3	173	53	foodImage.20	FOODEEG_Images\0226.jpg	NY	Left	No	1.51691060001031	0	667280	234
1304.322265625	1	decision	trialStart	3	174	54	foodImage.11	FOODEEG_Images\0180.jpg	NY	Left	No	0.545127400022466	0	667814	251
1305.36328125	2	decision	foodImageDisplay	3	174	54	foodImage.11	FOODEEG_Images\0180.jpg	NY	Left	No	0.545127400022466	0	668347	252
1307.4296875	0.545127400022466	decision	choicePhaseStart	3	174	54	foodImage.11	FOODEEG_Images\0180.jpg	NY	Left	No	0.545127400022466	0	669405	253
1307.966796875	0	decision	response	3	174	54	foodImage.11	FOODEEG_Images\0180.jpg	NY	Left	No	0.545127400022466	0	669680	234
1309.009765625	1	decision	trialStart	3	175	55	foodImage.109	FOODEEG_Images\0917.jpg	YN	Right	No	0.554320499999449	0	670214	251
1310.0625	2	decision	foodImageDisplay	3	175	55	foodImage.109	FOODEEG_Images\0917.jpg	YN	Right	No	0.554320499999449	0	670753	252
1312.125	0.554320499999449	decision	choicePhaseStart	3	175	55	foodImage.109	FOODEEG_Images\0917.jpg	YN	Right	No	0.554320499999449	0	671809	253
1312.669921875	0	decision	response	3	175	55	foodImage.109	FOODEEG_Images\0917.jpg	YN	Right	No	0.554320499999449	0	672088	235
1313.712890625	1	health	trialStart	3	176	56	foodImage.57	FOODEEG_Images\0587.jpg	NY	Left	No	1.05237550003221	0	672622	251
1314.755859375	2	health	foodImageDisplay	3	176	56	foodImage.57	FOODEEG_Images\0587.jpg	NY	Left	No	1.05237550003221	0	673156	252
1316.818359375	1.05237550003221	health	choicePhaseStart	3	176	56	foodImage.57	FOODEEG_Images\0587.jpg	NY	Left	No	1.05237550003221	0	674212	253
1317.861328125	0	health	response	3	176	56	foodImage.57	FOODEEG_Images\0587.jpg	NY	Left	No	1.05237550003221	0	674746	234
1318.904296875	1	taste	trialStart	3	177	57	foodImage.80	FOODEEG_Images\0796.jpg	YN	Left	Yes	0.64616850001039	0	675280	251
1319.978515625	2	taste	foodImageDisplay	3	177	57	foodImage.80	FOODEEG_Images\0796.jpg	YN	Left	Yes	0.64616850001039	0	675830	252
1322.041015625	0.64616850001039	taste	choicePhaseStart	3	177	57	foodImage.80	FOODEEG_Images\0796.jpg	YN	Left	Yes	0.64616850001039	0	676886	253
1322.677734375	0	taste	response	3	177	57	foodImage.80	FOODEEG_Images\0796.jpg	YN	Left	Yes	0.64616850001039	0	677212	234
1323.72265625	1	health	trialStart	3	178	58	foodImage.55	FOODEEG_Images\0567.jpg	NY	Right	Yes	1.15526430000318	0	677747	251
1324.78125	2	health	foodImageDisplay	3	178	58	foodImage.55	FOODEEG_Images\0567.jpg	NY	Right	Yes	1.15526430000318	0	678289	252
1326.84375	1.15526430000318	health	choicePhaseStart	3	178	58	foodImage.55	FOODEEG_Images\0567.jpg	NY	Right	Yes	1.15526430000318	0	679345	253
1327.98828125	0	health	response	3	178	58	foodImage.55	FOODEEG_Images\0567.jpg	NY	Right	Yes	1.15526430000318	0	679931	235
1329.03125	1	health	trialStart	3	179	59	foodImage.51	FOODEEG_Images\0536.jpg	NY	Left	No	1.37072010000702	0	680465	251
1330.078125	2	health	foodImageDisplay	3	179	59	foodImage.51	FOODEEG_Images\0536.jpg	NY	Left	No	1.37072010000702	0	681001	252
1332.140625	1.37072010000702	health	choicePhaseStart	3	179	59	foodImage.51	FOODEEG_Images\0536.jpg	NY	Left	No	1.37072010000702	0	682057	253
1333.501953125	0	health	response	3	179	59	foodImage.51	FOODEEG_Images\0536.jpg	NY	Left	No	1.37072010000702	0	682754	234
1334.544921875	1	health	trialStart	3	180	60	foodImage.77	FOODEEG_Images\0771.jpg	YN	Left	Yes	1.66466090001632	0	683288	251
1335.58984375	2	health	foodImageDisplay	3	180	60	foodImage.77	FOODEEG_Images\0771.jpg	YN	Left	Yes	1.66466090001632	0	683823	252
1337.65234375	1.66466090001632	health	choicePhaseStart	3	180	60	foodImage.77	FOODEEG_Images\0771.jpg	YN	Left	Yes	1.66466090001632	0	684879	253
1339.30859375	0	health	response	3	180	60	foodImage.77	FOODEEG_Images\0771.jpg	YN	Left	Yes	1.66466090001632	0	685727	234
1341.353515625	99.857421875	n/a	blockEnd	n/a	n/a	n/a	n/a	n/a	n/a	n/a	n/a	n/a	n/a	686774	254
1441.2109375	2	n/a	blockStart	4	n/a	n/a	n/a	n/a	n/a	n/a	n/a	n/a	n/a	737901	250
1443.25	1	health	trialStart	4	181	1	foodImage.112	FOODEEG_Images\0920.jpg	NY	Left	No	0.820131800021045	0	738945	251
1444.291015625	2	health	foodImageDisplay	4	181	1	foodImage.112	FOODEEG_Images\0920.jpg	NY	Left	No	0.820131800021045	0	739478	252
1446.357421875	0.820131800021045	health	choicePhaseStart	4	181	1	foodImage.112	FOODEEG_Images\0920.jpg	NY	Left	No	0.820131800021045	0	740536	253
1447.16796875	0	health	response	4	181	1	foodImage.112	FOODEEG_Images\0920.jpg	NY	Left	No	0.820131800021045	0	740951	234
1448.212890625	1	decision	trialStart	4	182	2	foodImage.106	FOODEEG_Images\0914.jpg	YN	Right	No	1.13896710000699	0	741486	251
1449.251953125	2	decision	foodImageDisplay	4	182	2	foodImage.106	FOODEEG_Images\0914.jpg	YN	Right	No	1.13896710000699	0	742018	252
1451.318359375	1.13896710000699	decision	choicePhaseStart	4	182	2	foodImage.106	FOODEEG_Images\0914.jpg	YN	Right	No	1.13896710000699	0	743076	253
1452.44921875	0	decision	response	4	182	2	foodImage.106	FOODEEG_Images\0914.jpg	YN	Right	No	1.13896710000699	0	743655	235
1453.4921875	1	health	trialStart	4	183	3	foodImage.65	FOODEEG_Images\0658.jpg	YN	Right	No	1.04401389998384	0	744189	251
1454.53515625	2	health	foodImageDisplay	4	183	3	foodImage.65	FOODEEG_Images\0658.jpg	YN	Right	No	1.04401389998384	0	744723	252
1456.59765625	1.04401389998384	health	choicePhaseStart	4	183	3	foodImage.65	FOODEEG_Images\0658.jpg	YN	Right	No	1.04401389998384	0	745779	253
1457.6328125	0	health	response	4	183	3	foodImage.65	FOODEEG_Images\0658.jpg	YN	Right	No	1.04401389998384	0	746309	235
1458.67578125	1	decision	trialStart	4	184	4	foodImage.58	FOODEEG_Images\0605.jpg	NY	Right	Yes	0.635221999953501	0	746843	251
1459.734375	2	decision	foodImageDisplay	4	184	4	foodImage.58	FOODEEG_Images\0605.jpg	NY	Right	Yes	0.635221999953501	0	747385	252
1461.796875	0.635221999953501	decision	choicePhaseStart	4	184	4	foodImage.58	FOODEEG_Images\0605.jpg	NY	Right	Yes	0.635221999953501	0	748441	253
1462.423828125	0	decision	response	4	184	4	foodImage.58	FOODEEG_Images\0605.jpg	NY	Right	Yes	0.635221999953501	0	748762	235
1463.46875	1	taste	trialStart	4	185	5	foodImage.39	FOODEEG_Images\0367.jpg	YN	Left	Yes	1.40513830003329	0	749297	251
1464.505859375	2	taste	foodImageDisplay	4	185	5	foodImage.39	FOODEEG_Images\0367.jpg	YN	Left	Yes	1.40513830003329	0	749828	252
1466.5703125	1.40513830003329	taste	choicePhaseStart	4	185	5	foodImage.39	FOODEEG_Images\0367.jpg	YN	Left	Yes	1.40513830003329	0	750885	253
1467.96875	0	taste	response	4	185	5	foodImage.39	FOODEEG_Images\0367.jpg	YN	Left	Yes	1.40513830003329	0	751601	234
1469.009765625	1	decision	trialStart	4	186	6	foodImage.117	FOODEEG_Images\0925.jpg	YN	Right	No	1.01916269998765	0	752134	251
1470.046875	2	decision	foodImageDisplay	4	186	6	foodImage.117	FOODEEG_Images\0925.jpg	YN	Right	No	1.01916269998765	0	752665	252
1472.109375	1.01916269998765	decision	choicePhaseStart	4	186	6	foodImage.117	FOODEEG_Images\0925.jpg	YN	Right	No	1.01916269998765	0	753721	253
1473.119140625	0	decision	response	4	186	6	foodImage.117	FOODEEG_Images\0925.jpg	YN	Right	No	1.01916269998765	0	754238	235
1474.162109375	1	taste	trialStart	4	187	7	foodImage.105	FOODEEG_Images\0913.jpg	NY	Left	No	0.832671200041659	0	754772	251
1475.201171875	2	taste	foodImageDisplay	4	187	7	foodImage.105	FOODEEG_Images\0913.jpg	NY	Left	No	0.832671200041659	0	755304	252
1477.263671875	0.832671200041659	taste	choicePhaseStart	4	187	7	foodImage.105	FOODEEG_Images\0913.jpg	NY	Left	No	0.832671200041659	0	756360	253
1478.087890625	0	taste	response	4	187	7	foodImage.105	FOODEEG_Images\0913.jpg	NY	Left	No	0.832671200041659	0	756782	234
1479.130859375	1	health	trialStart	4	188	8	foodImage.68	FOODEEG_Images\0685.jpg	NY	Left	No	1.16543609998189	0	757316	251
1480.205078125	2	health	foodImageDisplay	4	188	8	foodImage.68	FOODEEG_Images\0685.jpg	NY	Left	No	1.16543609998189	0	757866	252
1482.267578125	1.16543609998189	health	choicePhaseStart	4	188	8	foodImage.68	FOODEEG_Images\0685.jpg	NY	Left	No	1.16543609998189	0	758922	253
1483.423828125	0	health	response	4	188	8	foodImage.68	FOODEEG_Images\0685.jpg	NY	Left	No	1.16543609998189	0	759514	234
1484.46875	1	health	trialStart	4	189	9	foodImage.87	FOODEEG_Images\0873.jpg	NY	Left	No	0.915908400027547	0	760049	251
1485.525390625	2	health	foodImageDisplay	4	189	9	foodImage.87	FOODEEG_Images\0873.jpg	NY	Left	No	0.915908400027547	0	760590	252
1487.587890625	0.915908400027547	health	choicePhaseStart	4	189	9	foodImage.87	FOODEEG_Images\0873.jpg	NY	Left	No	0.915908400027547	0	761646	253
1488.49609375	0	health	response	4	189	9	foodImage.87	FOODEEG_Images\0873.jpg	NY	Left	No	0.915908400027547	0	762111	234
1489.541015625	1	decision	trialStart	4	190	10	foodImage.86	FOODEEG_Images\0844.jpg	NY	Right	Yes	0.819530100037809	0	762646	251
1490.59765625	2	decision	foodImageDisplay	4	190	10	foodImage.86	FOODEEG_Images\0844.jpg	NY	Right	Yes	0.819530100037809	0	763187	252
1492.66015625	0.819530100037809	decision	choicePhaseStart	4	190	10	foodImage.86	FOODEEG_Images\0844.jpg	NY	Right	Yes	0.819530100037809	0	764243	253
1493.470703125	0	decision	response	4	190	10	foodImage.86	FOODEEG_Images\0844.jpg	NY	Right	Yes	0.819530100037809	0	764658	235
1494.513671875	1	health	trialStart	4	191	11	foodImage.32	FOODEEG_Images\0319.jpg	NY	Right	Yes	1.67617280001286	0	765192	251
1495.556640625	2	health	foodImageDisplay	4	191	11	foodImage.32	FOODEEG_Images\0319.jpg	NY	Right	Yes	1.67617280001286	0	765726	252
1497.619140625	1.67617280001286	health	choicePhaseStart	4	191	11	foodImage.32	FOODEEG_Images\0319.jpg	NY	Right	Yes	1.67617280001286	0	766782	253
1499.287109375	0	health	response	4	191	11	foodImage.32	FOODEEG_Images\0319.jpg	NY	Right	Yes	1.67617280001286	0	767636	235
1500.330078125	1	health	trialStart	4	192	12	foodImage.110	FOODEEG_Images\0918.jpg	NY	Left	No	2.55195979995187	0	768170	251
1501.369140625	2	health	foodImageDisplay	4	192	12	foodImage.110	FOODEEG_Images\0918.jpg	NY	Left	No	2.55195979995187	0	768702	252
1503.431640625	2.55195979995187	health	choicePhaseStart	4	192	12	foodImage.110	FOODEEG_Images\0918.jpg	NY	Left	No	2.55195979995187	0	769758	253
1505.974609375	0	health	response	4	192	12	foodImage.110	FOODEEG_Images\0918.jpg	NY	Left	No	2.55195979995187	0	771060	234
1507.017578125	1	taste	trialStart	4	193	13	foodImage.40	FOODEEG_Images\0373.jpg	NY	Right	Yes	1.27869529998861	0	771594	251
1508.05859375	2	taste	foodImageDisplay	4	193	13	foodImage.40	FOODEEG_Images\0373.jpg	NY	Right	Yes	1.27869529998861	0	772127	252
1510.12109375	1.27869529998861	taste	choicePhaseStart	4	193	13	foodImage.40	FOODEEG_Images\0373.jpg	NY	Right	Yes	1.27869529998861	0	773183	253
1511.390625	0	taste	response	4	193	13	foodImage.40	FOODEEG_Images\0373.jpg	NY	Right	Yes	1.27869529998861	0	773833	235
1512.43359375	1	health	trialStart	4	194	14	foodImage.36	FOODEEG_Images\0352.jpg	YN	Left	Yes	2.04538789996877	0	774367	251
1513.517578125	2	health	foodImageDisplay	4	194	14	foodImage.36	FOODEEG_Images\0352.jpg	YN	Left	Yes	2.04538789996877	0	774922	252
1515.578125	2.04538789996877	health	choicePhaseStart	4	194	14	foodImage.36	FOODEEG_Images\0352.jpg	YN	Left	Yes	2.04538789996877	0	775977	253
1517.61328125	0	health	response	4	194	14	foodImage.36	FOODEEG_Images\0352.jpg	YN	Left	Yes	2.04538789996877	0	777019	234
1518.658203125	1	decision	trialStart	4	195	15	foodImage.118	FOODEEG_Images\0926.jpg	NY	Left	No	0.853268400009256	0	777554	251
