onset	duration	trial_type	event_type	block	trial_total	trial_in_block	food_image_code	food_image_path	button_position	resp_position	resp_choice	choice_rt	resp_too_slow	sample	trigger
216.224609375	2	n/a	blockStart	1	n/a	n/a	n/a	n/a	n/a	n/a	n/a	n/a	n/a	110708	250
218.263671875	1	taste	trialStart	1	1	1	foodImage.2	FOODEEG_Images\0028.jpg	NY	Right	Yes	0.953439700002491	0	111752	251
219.3125	2	taste	foodImageDisplay	1	1	1	foodImage.2	FOODEEG_Images\0028.jpg	NY	Right	Yes	0.953439700002491	0	112289	252
221.376953125	0.953439700002491	taste	choicePhaseStart	1	1	1	foodImage.2	FOODEEG_Images\0028.jpg	NY	Right	Yes	0.953439700002491	0	113346	253
222.32421875	0	taste	response	1	1	1	foodImage.2	FOODEEG_Images\0028.jpg	NY	Right	Yes	0.953439700002491	0	113831	235
223.416015625	1	health	trialStart	1	2	2	foodImage.12	FOODEEG_Images\0181.jpg	YN	Left	Yes	0.973139599998831	0	114390	251
224.4609375	2	health	foodImageDisplay	1	2	2	foodImage.12	FOODEEG_Images\0181.jpg	YN	Left	Yes	0.973139599998831	0	114925	252
226.525390625	0.973139599998831	health	choicePhaseStart	1	2	2	foodImage.12	FOODEEG_Images\0181.jpg	YN	Left	Yes	0.973139599998831	0	115982	253
227.490234375	0	health	response	1	2	2	foodImage.12	FOODEEG_Images\0181.jpg	YN	Left	Yes	0.973139599998831	0	116476	234
228.544921875	1	taste	trialStart	1	3	3	foodImage.57	FOODEEG_Images\0587.jpg	NY	Right	Yes	0.955552499999612	0	117016	251
229.609375	2	taste	foodImageDisplay	1	3	3	foodImage.57	FOODEEG_Images\0587.jpg	NY	Right	Yes	0.955552499999612	0	117561	252
231.6796875	0.955552499999612	taste	choicePhaseStart	1	3	3	foodImage.57	FOODEEG_Images\0587.jpg	NY	Right	Yes	0.955552499999612	0	118621	253
232.626953125	0	taste	response	1	3	3	foodImage.57	FOODEEG_Images\0587.jpg	NY	Right	Yes	0.955552499999612	0	119106	235
233.66796875	1	decision	trialStart	1	4	4	foodImage.114	FOODEEG_Images\0922.jpg	YN	Right	No	0.893652999999176	0	119639	251
234.708984375	2	decision	foodImageDisplay	1	4	4	foodImage.114	FOODEEG_Images\0922.jpg	YN	Right	No	0.893652999999176	0	120172	252
236.7734375	0.893652999999176	decision	choicePhaseStart	1	4	4	foodImage.114	FOODEEG_Images\0922.jpg	YN	Right	No	0.893652999999176	0	121229	253
237.658203125	0	decision	response	1	4	4	foodImage.114	FOODEEG_Images\0922.jpg	YN	Right	No	0.893652999999176	0	121682	235
238.7109375	1	taste	trialStart	1	5	5	foodImage.86	FOODEEG_Images\0844.jpg	YN	Left	Yes	0.681942300001538	0	122221	251
239.78515625	2	taste	foodImageDisplay	1	5	5	foodImage.86	FOODEEG_Images\0844.jpg	YN	Left	Yes	0.681942300001538	0	122771	252
241.849609375	0.681942300001538	taste	choicePhaseStart	1	5	5	foodImage.86	FOODEEG_Images\0844.jpg	YN	Left	Yes	0.681942300001538	0	123828	253
242.521484375	0	taste	response	1	5	5	foodImage.86	FOODEEG_Images\0844.jpg	YN	Left	Yes	0.681942300001538	0	124172	234
243.576171875	1	taste	trialStart	1	6	6	foodImage.108	FOODEEG_Images\0916.jpg	NY	Left	No	0.881486800000857	0	124712	251
244.62890625	2	taste	foodImageDisplay	1	6	6	foodImage.108	FOODEEG_Images\0916.jpg	NY	Left	No	0.881486800000857	0	125251	252
246.6953125	0.881486800000857	taste	choicePhaseStart	1	6	6	foodImage.108	FOODEEG_Images\0916.jpg	NY	Left	No	0.881486800000857	0	126309	253
247.5703125	0	taste	response	1	6	6	foodImage.108	FOODEEG_Images\0916.jpg	NY	Left	No	0.881486800000857	0	126757	234
248.61328125	1	decision	trialStart	1	7	7	foodImage.60	FOODEEG_Images\0614.jpg	NY	Right	Yes	1.87733870000011	0	127291	251
249.67578125	2	decision	foodImageDisplay	1	7	7	foodImage.60	FOODEEG_Images\0614.jpg	NY	Right	Yes	1.87733870000011	0	127835	252
251.74609375	1.87733870000011	decision	choicePhaseStart	1	7	7	foodImage.60	FOODEEG_Images\0614.jpg	NY	Right	Yes	1.87733870000011	0	128895	253
253.6171875	0	decision	response	1	7	7	foodImage.60	FOODEEG_Images\0614.jpg	NY	Right	Yes	1.87733870000011	0	129853	235
254.662109375	1	taste	trialStart	1	8	8	foodImage.36	FOODEEG_Images\0352.jpg	NY	Right	Yes	0.794433699997171	0	130388	251
255.720703125	2	taste	foodImageDisplay	1	8	8	foodImage.36	FOODEEG_Images\0352.jpg	NY	Right	Yes	0.794433699997171	0	130930	252
257.794921875	0.794433699997171	taste	choicePhaseStart	1	8	8	foodImage.36	FOODEEG_Images\0352.jpg	NY	Right	Yes	0.794433699997171	0	131992	253
258.5859375	0	taste	response	1	8	8	foodImage.36	FOODEEG_Images\0352.jpg	NY	Right	Yes	0.794433699997171	0	132397	235
259.62890625	1	health	trialStart	1	9	9	foodImage.4	FOODEEG_Images\0065.jpg	NY	Left	No	0.917740900000354	0	132931	251
260.70703125	2	health	foodImageDisplay	1	9	9	foodImage.4	FOODEEG_Images\0065.jpg	NY	Left	No	0.917740900000354	0	133483	252
262.771484375	0.917740900000354	health	choicePhaseStart	1	9	9	foodImage.4	FOODEEG_Images\0065.jpg	NY	Left	No	0.917740900000354	0	134540	253
263.681640625	0	health	response	1	9	9	foodImage.4	FOODEEG_Images\0065.jpg	NY	Left	No	0.917740900000354	0	135006	234
264.724609375	1	decision	trialStart	1	10	10	foodImage.65	FOODEEG_Images\0658.jpg	NY	Right	Yes	0.796670899999299	0	135540	251
265.787109375	2	decision	foodImageDisplay	1	10	10	foodImage.65	FOODEEG_Images\0658.jpg	NY	Right	Yes	0.796670899999299	0	136084	252
267.859375	0.796670899999299	decision	choicePhaseStart	1	10	10	foodImage.65	FOODEEG_Images\0658.jpg	NY	Right	Yes	0.796670899999299	0	137145	253
268.6484375	0	decision	response	1	10	10	foodImage.65	FOODEEG_Images\0658.jpg	NY	Right	Yes	0.796670899999299	0	137549	235
269.693359375	1	decision	trialStart	1	11	11	foodImage.86	FOODEEG_Images\0844.jpg	NY	Right	Yes	0.802258199997596	0	138084	251
270.751953125	2	decision	foodImageDisplay	1	11	11	foodImage.86	FOODEEG_Images\0844.jpg	NY	Right	Yes	0.802258199997596	0	138626	252
272.81640625	0.802258199997596	decision	choicePhaseStart	1	11	11	foodImage.86	FOODEEG_Images\0844.jpg	NY	Right	Yes	0.802258199997596	0	139683	253
273.609375	0	decision	response	1	11	11	foodImage.86	FOODEEG_Images\0844.jpg	NY	Right	Yes	0.802258199997596	0	140089	235
274.65234375	1	health	trialStart	1	12	12	foodImage.93	FOODEEG_Images\0901.jpg	YN	Right	No	1.06689369999731	0	140623	251
275.708984375	2	health	foodImageDisplay	1	12	12	foodImage.93	FOODEEG_Images\0901.jpg	YN	Right	No	1.06689369999731	0	141164	252
277.7734375	1.06689369999731	health	choicePhaseStart	1	12	12	foodImage.93	FOODEEG_Images\0901.jpg	YN	Right	No	1.06689369999731	0	142221	253
278.83203125	0	health	response	1	12	12	foodImage.93	FOODEEG_Images\0901.jpg	YN	Right	No	1.06689369999731	0	142763	235
279.8828125	1	taste	trialStart	1	13	13	foodImage.11	FOODEEG_Images\0180.jpg	YN	Right	No	1.09634650000226	0	143301	251
280.943359375	2	taste	foodImageDisplay	1	13	13	foodImage.11	FOODEEG_Images\0180.jpg	YN	Right	No	1.09634650000226	0	143844	252
283.0078125	1.09634650000226	taste	choicePhaseStart	1	13	13	foodImage.11	FOODEEG_Images\0180.jpg	YN	Right	No	1.09634650000226	0	144901	253
284.095703125	0	taste	response	1	13	13	foodImage.11	FOODEEG_Images\0180.jpg	YN	Right	No	1.09634650000226	0	145458	235
285.140625	1	health	trialStart	1	14	14	foodImage.16	FOODEEG_Images\0196.jpg	NY	Right	Yes	0.600920899996709	0	145993	251
286.19921875	2	health	foodImageDisplay	1	14	14	foodImage.16	FOODEEG_Images\0196.jpg	NY	Right	Yes	0.600920899996709	0	146535	252
288.263671875	0.600920899996709	health	choicePhaseStart	1	14	14	foodImage.16	FOODEEG_Images\0196.jpg	NY	Right	Yes	0.600920899996709	0	147592	253
288.85546875	0	health	response	1	14	14	foodImage.16	FOODEEG_Images\0196.jpg	NY	Right	Yes	0.600920899996709	0	147895	235
289.8984375	1	taste	trialStart	1	15	15	foodImage.68	FOODEEG_Images\0685.jpg	YN	Left	Yes	0.567664700000023	0	148429	251
290.978515625	2	taste	foodImageDisplay	1	15	15	foodImage.68	FOODEEG_Images\0685.jpg	YN	Left	Yes	0.567664700000023	0	148982	252
293.046875	0.567664700000023	taste	choicePhaseStart	1	15	15	foodImage.68	FOODEEG_Images\0685.jpg	YN	Left	Yes	0.567664700000023	0	150041	253
293.609375	0	taste	response	1	15	15	foodImage.68	FOODEEG_Images\0685.jpg	YN	Left	Yes	0.567664700000023	0	150329	234
294.65234375	1	taste	trialStart	1	16	16	foodImage.119	FOODEEG_Images\0927.jpg	YN	Right	No	0.647972899998422	0	150863	251
295.689453125	2	taste	foodImageDisplay	1	16	16	foodImage.119	FOODEEG_Images\0927.jpg	YN	Right	No	0.647972899998422	0	151394	252
297.75390625	0.647972899998422	taste	choicePhaseStart	1	16	16	foodImage.119	FOODEEG_Images\0927.jpg	YN	Right	No	0.647972899998422	0	152451	253
298.392578125	0	taste	response	1	16	16	foodImage.119	FOODEEG_Images\0927.jpg	YN	Right	No	0.647972899998422	0	152778	235
299.43359375	1	decision	trialStart	1	17	17	foodImage.73	FOODEEG_Images\0717.jpg	YN	Left	Yes	0.601794599999266	0	153311	251
300.494140625	2	decision	foodImageDisplay	1	17	17	foodImage.73	FOODEEG_Images\0717.jpg	YN	Left	Yes	0.601794599999266	0	153854	252
302.55859375	0.601794599999266	decision	choicePhaseStart	1	17	17	foodImage.73	FOODEEG_Images\0717.jpg	YN	Left	Yes	0.601794599999266	0	154911	253
303.15234375	0	decision	response	1	17	17	foodImage.73	FOODEEG_Images\0717.jpg	YN	Left	Yes	0.601794599999266	0	155215	234
304.1953125	1	taste	trialStart	1	18	18	foodImage.81	FOODEEG_Images\0797.jpg	NY	Left	No	1.13801289999901	0	155749	251
305.25390625	2	taste	foodImageDisplay	1	18	18	foodImage.81	FOODEEG_Images\0797.jpg	NY	Left	No	1.13801289999901	0	156291	252
307.318359375	1.13801289999901	taste	choicePhaseStart	1	18	18	foodImage.81	FOODEEG_Images\0797.jpg	NY	Left	No	1.13801289999901	0	157348	253
308.447265625	0	taste	response	1	18	18	foodImage.81	FOODEEG_Images\0797.jpg	NY	Left	No	1.13801289999901	0	157926	234
309.490234375	1	health	trialStart	1	19	19	foodImage.104	FOODEEG_Images\0912.jpg	NY	Left	No	0.76380269999936	0	158460	251
310.5390625	2	health	foodImageDisplay	1	19	19	foodImage.104	FOODEEG_Images\0912.jpg	NY	Left	No	0.76380269999936	0	158997	252
312.603515625	0.76380269999936	health	choicePhaseStart	1	19	19	foodImage.104	FOODEEG_Images\0912.jpg	NY	Left	No	0.76380269999936	0	160054	253
313.359375	0	health	response	1	19	19	foodImage.104	FOODEEG_Images\0912.jpg	NY	Left	No	0.76380269999936	0	160441	234
314.40234375	1	taste	trialStart	1	20	20	foodImage.47	FOODEEG_Images\0488.jpg	NY	Right	Yes	0.621667399998842	0	160975	251
315.443359375	2	taste	foodImageDisplay	1	20	20	foodImage.47	FOODEEG_Images\0488.jpg	NY	Right	Yes	0.621667399998842	0	161508	252
317.5078125	0.621667399998842	taste	choicePhaseStart	1	20	20	foodImage.47	FOODEEG_Images\0488.jpg	NY	Right	Yes	0.621667399998842	0	162565	253
318.119140625	0	taste	response	1	20	20	foodImage.47	FOODEEG_Images\0488.jpg	NY	Right	Yes	0.621667399998842	0	162878	235
319.162109375	1	decision	trialStart	1	21	21	foodImage.53	FOODEEG_Images\0547.jpg	NY	Right	Yes	0.88597049999953	0	163412	251
320.2421875	2	decision	foodImageDisplay	1	21	21	foodImage.53	FOODEEG_Images\0547.jpg	NY	Right	Yes	0.88597049999953	0	163965	252
322.306640625	0.88597049999953	decision	choicePhaseStart	1	21	21	foodImage.53	FOODEEG_Images\0547.jpg	NY	Right	Yes	0.88597049999953	0	165022	253
323.18359375	0	decision	response	1	21	21	foodImage.53	FOODEEG_Images\0547.jpg	NY	Right	Yes	0.88597049999953	0	165471	235
324.224609375	1	decision	trialStart	1	22	22	foodImage.23	FOODEEG_Images\0244.jpg	NY	Left	No	0.972744900001999	0	166004	251
325.275390625	2	decision	foodImageDisplay	1	22	22	foodImage.23	FOODEEG_Images\0244.jpg	NY	Left	No	0.972744900001999	0	166542	252
327.337890625	0.972744900001999	decision	choicePhaseStart	1	22	22	foodImage.23	FOODEEG_Images\0244.jpg	NY	Left	No	0.972744900001999	0	167598	253
328.302734375	0	decision	response	1	22	22	foodImage.23	FOODEEG_Images\0244.jpg	NY	Left	No	0.972744900001999	0	168092	234
329.345703125	1	decision	trialStart	1	23	23	foodImage.115	FOODEEG_Images\0923.jpg	YN	Right	No	0.732281100001273	0	168626	251
330.384765625	2	decision	foodImageDisplay	1	23	23	foodImage.115	FOODEEG_Images\0923.jpg	YN	Right	No	0.732281100001273	0	169158	252
332.44921875	0.732281100001273	decision	choicePhaseStart	1	23	23	foodImage.115	FOODEEG_Images\0923.jpg	YN	Right	No	0.732281100001273	0	170215	253
333.173828125	0	decision	response	1	23	23	foodImage.115	FOODEEG_Images\0923.jpg	YN	Right	No	0.732281100001273	0	170586	235
334.22265625	1	health	trialStart	1	24	24	foodImage.95	FOODEEG_Images\0903.jpg	YN	Right	No	1.61991100000159	0	171123	251
335.259765625	2	health	foodImageDisplay	1	24	24	foodImage.95	FOODEEG_Images\0903.jpg	YN	Right	No	1.61991100000159	0	171654	252
337.32421875	1.61991100000159	health	choicePhaseStart	1	24	24	foodImage.95	FOODEEG_Images\0903.jpg	YN	Right	No	1.61991100000159	0	172711	253
338.93359375	0	health	response	1	24	24	foodImage.95	FOODEEG_Images\0903.jpg	YN	Right	No	1.61991100000159	0	173535	235
339.9765625	1	health	trialStart	1	25	25	foodImage.3	FOODEEG_Images\0046.jpg	YN	Right	No	0.975080199998047	0	174069	251
341.01953125	2	health	foodImageDisplay	1	25	25	foodImage.3	FOODEEG_Images\0046.jpg	YN	Right	No	0.975080199998047	0	174603	252
343.0859375	0.975080199998047	health	choicePhaseStart	1	25	25	foodImage.3	FOODEEG_Images\0046.jpg	YN	Right	No	0.975080199998047	0	175661	253
344.0546875	0	health	response	1	25	25	foodImage.3	FOODEEG_Images\0046.jpg	YN	Right	No	0.975080199998047	0	176157	235
345.1015625	1	taste	trialStart	1	26	26	foodImage.89	FOODEEG_Images\0881.jpg	YN	Left	Yes	0.580338400002802	0	176693	251
346.158203125	2	taste	foodImageDisplay	1	26	26	foodImage.89	FOODEEG_Images\0881.jpg	YN	Left	Yes	0.580338400002802	0	177234	252
348.2265625	0.580338400002802	taste	choicePhaseStart	1	26	26	foodImage.89	FOODEEG_Images\0881.jpg	YN	Left	Yes	0.580338400002802	0	178293	253
348.798828125	0	taste	response	1	26	26	foodImage.89	FOODEEG_Images\0881.jpg	YN	Left	Yes	0.580338400002802	0	178586	234
349.845703125	1	taste	trialStart	1	27	27	foodImage.38	FOODEEG_Images\0365.jpg	YN	Left	Yes	0.541317999999592	0	179122	251
350.880859375	2	taste	foodImageDisplay	1	27	27	foodImage.38	FOODEEG_Images\0365.jpg	YN	Left	Yes	0.541317999999592	0	179652	252
352.9453125	0.541317999999592	taste	choicePhaseStart	1	27	27	foodImage.38	FOODEEG_Images\0365.jpg	YN	Left	Yes	0.541317999999592	0	180709	253
353.478515625	0	taste	response	1	27	27	foodImage.38	FOODEEG_Images\0365.jpg	YN	Left	Yes	0.541317999999592	0	180982	234
354.517578125	1	decision	trialStart	1	28	28	foodImage.21	FOODEEG_Images\0234.jpg	NY	Right	Yes	0.764697300000989	0	181514	251
355.5703125	2	decision	foodImageDisplay	1	28	28	foodImage.21	FOODEEG_Images\0234.jpg	NY	Right	Yes	0.764697300000989	0	182053	252
357.634765625	0.764697300000989	decision	choicePhaseStart	1	28	28	foodImage.21	FOODEEG_Images\0234.jpg	NY	Right	Yes	0.764697300000989	0	183110	253
358.388671875	0	decision	response	1	28	28	foodImage.21	FOODEEG_Images\0234.jpg	NY	Right	Yes	0.764697300000989	0	183496	235
359.431640625	1	decision	trialStart	1	29	29	foodImage.71	FOODEEG_Images\0713.jpg	NY	Right	Yes	0.851690799998323	0	184030	251
360.482421875	2	decision	foodImageDisplay	1	29	29	foodImage.71	FOODEEG_Images\0713.jpg	NY	Right	Yes	0.851690799998323	0	184568	252
362.546875	0.851690799998323	decision	choicePhaseStart	1	29	29	foodImage.71	FOODEEG_Images\0713.jpg	NY	Right	Yes	0.851690799998323	0	185625	253
363.388671875	0	decision	response	1	29	29	foodImage.71	FOODEEG_Images\0713.jpg	NY	Right	Yes	0.851690799998323	0	186056	235
364.431640625	1	health	trialStart	1	30	30	foodImage.82	FOODEEG_Images\0805.jpg	YN	Left	Yes	1.0220522999989	0	186590	251
365.48828125	2	health	foodImageDisplay	1	30	30	foodImage.82	FOODEEG_Images\0805.jpg	YN	Left	Yes	1.0220522999989	0	187131	252
367.552734375	1.0220522999989	health	choicePhaseStart	1	30	30	foodImage.82	FOODEEG_Images\0805.jpg	YN	Left	Yes	1.0220522999989	0	188188	253
368.564453125	0	health	response	1	30	30	foodImage.82	FOODEEG_Images\0805.jpg	YN	Left	Yes	1.0220522999989	0	188706	234
369.607421875	1	health	trialStart	1	31	31	foodImage.79	FOODEEG_Images\0794.jpg	YN	Left	Yes	0.731478100002278	0	189240	251
370.650390625	2	health	foodImageDisplay	1	31	31	foodImage.79	FOODEEG_Images\0794.jpg	YN	Left	Yes	0.731478100002278	0	189774	252
372.71484375	0.731478100002278	health	choicePhaseStart	1	31	31	foodImage.79	FOODEEG_Images\0794.jpg	YN	Left	Yes	0.731478100002278	0	190831	253
373.4375	0	health	response	1	31	31	foodImage.79	FOODEEG_Images\0794.jpg	YN	Left	Yes	0.731478100002278	0	191201	234
374.48046875	1	taste	trialStart	1	32	32	foodImage.88	FOODEEG_Images\0878.jpg	YN	Left	Yes	0.618887000000541	0	191735	251
375.5390625	2	taste	foodImageDisplay	1	32	32	foodImage.88	FOODEEG_Images\0878.jpg	YN	Left	Yes	0.618887000000541	0	192277	252
377.603515625	0.618887000000541	taste	choicePhaseStart	1	32	32	foodImage.88	FOODEEG_Images\0878.jpg	YN	Left	Yes	0.618887000000541	0	193334	253
378.212890625	0	taste	response	1	32	32	foodImage.88	FOODEEG_Images\0878.jpg	YN	Left	Yes	0.618887000000541	0	193646	234
379.255859375	1	taste	trialStart	1	33	33	foodImage.117	FOODEEG_Images\0925.jpg	NY	Left	No	0.719230200000311	0	194180	251
380.294921875	2	taste	foodImageDisplay	1	33	33	foodImage.117	FOODEEG_Images\0925.jpg	NY	Left	No	0.719230200000311	0	194712	252
382.357421875	0.719230200000311	taste	choicePhaseStart	1	33	33	foodImage.117	FOODEEG_Images\0925.jpg	NY	Left	No	0.719230200000311	0	195768	253
383.068359375	0	taste	response	1	33	33	foodImage.117	FOODEEG_Images\0925.jpg	NY	Left	No	0.719230200000311	0	196132	234
384.111328125	1	health	trialStart	1	34	34	foodImage.40	FOODEEG_Images\0373.jpg	YN	Right	No	0.857449999999517	0	196666	251
385.15234375	2	health	foodImageDisplay	1	34	34	foodImage.40	FOODEEG_Images\0373.jpg	YN	Right	No	0.857449999999517	0	197199	252
387.220703125	0.857449999999517	health	choicePhaseStart	1	34	34	foodImage.40	FOODEEG_Images\0373.jpg	YN	Right	No	0.857449999999517	0	198258	253
388.068359375	0	health	response	1	34	34	foodImage.40	FOODEEG_Images\0373.jpg	YN	Right	No	0.857449999999517	0	198692	235
389.111328125	1	health	trialStart	1	35	35	foodImage.60	FOODEEG_Images\0614.jpg	YN	Left	Yes	0.634738699998707	0	199226	251
390.1796875	2	health	foodImageDisplay	1	35	35	foodImage.60	FOODEEG_Images\0614.jpg	YN	Left	Yes	0.634738699998707	0	199773	252
392.2421875	0.634738699998707	health	choicePhaseStart	1	35	35	foodImage.60	FOODEEG_Images\0614.jpg	YN	Left	Yes	0.634738699998707	0	200829	253
392.869140625	0	health	response	1	35	35	foodImage.60	FOODEEG_Images\0614.jpg	YN	Left	Yes	0.634738699998707	0	201150	234
393.91015625	1	taste	trialStart	1	36	36	foodImage.82	FOODEEG_Images\0805.jpg	NY	Left	No	0.767255099999602	0	201683	251
394.966796875	2	taste	foodImageDisplay	1	36	36	foodImage.82	FOODEEG_Images\0805.jpg	NY	Left	No	0.767255099999602	0	202224	252
397.029296875	0.767255099999602	taste	choicePhaseStart	1	36	36	foodImage.82	FOODEEG_Images\0805.jpg	NY	Left	No	0.767255099999602	0	203280	253
397.787109375	0	taste	response	1	36	36	foodImage.82	FOODEEG_Images\0805.jpg	NY	Left	No	0.767255099999602	0	203668	234
398.83203125	1	health	trialStart	1	37	37	foodImage.57	FOODEEG_Images\0587.jpg	NY	Right	Yes	1.50366629999917	0	204203	251
399.873046875	2	health	foodImageDisplay	1	37	37	foodImage.57	FOODEEG_Images\0587.jpg	NY	Right	Yes	1.50366629999917	0	204736	252
401.94140625	1.50366629999917	health	choicePhaseStart	1	37	37	foodImage.57	FOODEEG_Images\0587.jpg	NY	Right	Yes	1.50366629999917	0	205795	253
403.435546875	0	health	response	1	37	37	foodImage.57	FOODEEG_Images\0587.jpg	NY	Right	Yes	1.50366629999917	0	206560	235
404.478515625	1	decision	trialStart	1	38	38	foodImage.104	FOODEEG_Images\0912.jpg	YN	Left	Yes	0.632058300001518	0	207094	251
405.515625	2	decision	foodImageDisplay	1	38	38	foodImage.104	FOODEEG_Images\0912.jpg	YN	Left	Yes	0.632058300001518	0	207625	252
407.580078125	0.632058300001518	decision	choicePhaseStart	1	38	38	foodImage.104	FOODEEG_Images\0912.jpg	YN	Left	Yes	0.632058300001518	0	208682	253
408.203125	0	decision	response	1	38	38	foodImage.104	FOODEEG_Images\0912.jpg	YN	Left	Yes	0.632058300001518	0	209001	234
409.24609375	1	taste	trialStart	1	39	39	foodImage.120	FOODEEG_Images\0928.jpg	YN	Left	Yes	0.784321899998758	0	209535	251
410.28515625	2	taste	foodImageDisplay	1	39	39	foodImage.120	FOODEEG_Images\0928.jpg	YN	Left	Yes	0.784321899998758	0	210067	252
412.353515625	0.784321899998758	taste	choicePhaseStart	1	39	39	foodImage.120	FOODEEG_Images\0928.jpg	YN	Left	Yes	0.784321899998758	0	211126	253
413.130859375	0	taste	response	1	39	39	foodImage.120	FOODEEG_Images\0928.jpg	YN	Left	Yes	0.784321899998758	0	211524	234
414.173828125	1	decision	trialStart	1	40	40	foodImage.19	FOODEEG_Images\0225.jpg	NY	Left	No	1.45171869999831	0	212058	251
415.22265625	2	decision	foodImageDisplay	1	40	40	foodImage.19	FOODEEG_Images\0225.jpg	NY	Left	No	1.45171869999831	0	212595	252
417.287109375	1.45171869999831	decision	choicePhaseStart	1	40	40	foodImage.19	FOODEEG_Images\0225.jpg	NY	Left	No	1.45171869999831	0	213652	253
418.73046875	0	decision	response	1	40	40	foodImage.19	FOODEEG_Images\0225.jpg	NY	Left	No	1.45171869999831	0	214391	234
419.77734375	1	health	trialStart	1	41	41	foodImage.120	FOODEEG_Images\0928.jpg	NY	Right	Yes	1.7093509999977	0	214927	251
420.814453125	2	health	foodImageDisplay	1	41	41	foodImage.120	FOODEEG_Images\0928.jpg	NY	Right	Yes	1.7093509999977	0	215458	252
422.87890625	1.7093509999977	health	choicePhaseStart	1	41	41	foodImage.120	FOODEEG_Images\0928.jpg	NY	Right	Yes	1.7093509999977	0	216515	253
424.578125	0	health	response	1	41	41	foodImage.120	FOODEEG_Images\0928.jpg	NY	Right	Yes	1.7093509999977	0	217385	235
425.62109375	1	health	trialStart	1	42	42	foodImage.76	FOODEEG_Images\0766.jpg	NY	Right	Yes	0.627778599999147	0	217919	251
426.677734375	2	health	foodImageDisplay	1	42	42	foodImage.76	FOODEEG_Images\0766.jpg	NY	Right	Yes	0.627778599999147	0	218460	252
428.7421875	0.627778599999147	health	choicePhaseStart	1	42	42	foodImage.76	FOODEEG_Images\0766.jpg	NY	Right	Yes	0.627778599999147	0	219517	253
429.36328125	0	health	response	1	42	42	foodImage.76	FOODEEG_Images\0766.jpg	NY	Right	Yes	0.627778599999147	0	219835	235
430.41015625	1	health	trialStart	1	43	43	foodImage.68	FOODEEG_Images\0685.jpg	YN	Right	No	1.38154399999985	0	220371	251
431.486328125	2	health	foodImageDisplay	1	43	43	foodImage.68	FOODEEG_Images\0685.jpg	YN	Right	No	1.38154399999985	0	220922	252
433.548828125	1.38154399999985	health	choicePhaseStart	1	43	43	foodImage.68	FOODEEG_Images\0685.jpg	YN	Right	No	1.38154399999985	0	221978	253
434.921875	0	health	response	1	43	43	foodImage.68	FOODEEG_Images\0685.jpg	YN	Right	No	1.38154399999985	0	222681	235
435.96484375	1	taste	trialStart	1	44	44	foodImage.111	FOODEEG_Images\0919.jpg	NY	Left	No	1.0406602999974	0	223215	251
437.00390625	2	taste	foodImageDisplay	1	44	44	foodImage.111	FOODEEG_Images\0919.jpg	NY	Left	No	1.0406602999974	0	223747	252
439.06640625	1.0406602999974	taste	choicePhaseStart	1	44	44	foodImage.111	FOODEEG_Images\0919.jpg	NY	Left	No	1.0406602999974	0	224803	253
440.09765625	0	taste	response	1	44	44	foodImage.111	FOODEEG_Images\0919.jpg	NY	Left	No	1.0406602999974	0	225331	234
441.1484375	1	taste	trialStart	1	45	45	foodImage.48	FOODEEG_Images\0494.jpg	NY	Right	Yes	0.842572300000029	0	225869	251
442.189453125	2	taste	foodImageDisplay	1	45	45	foodImage.48	FOODEEG_Images\0494.jpg	NY	Right	Yes	0.842572300000029	0	226402	252
444.2578125	0.842572300000029	taste	choicePhaseStart	1	45	45	foodImage.48	FOODEEG_Images\0494.jpg	NY	Right	Yes	0.842572300000029	0	227461	253
445.08984375	0	taste	response	1	45	45	foodImage.48	FOODEEG_Images\0494.jpg	NY	Right	Yes	0.842572300000029	0	227887	235
446.1328125	1	taste	trialStart	1	46	46	foodImage.31	FOODEEG_Images\0294.jpg	YN	Left	Yes	1.31850610000038	0	228421	251
447.173828125	2	taste	foodImageDisplay	1	46	46	foodImage.31	FOODEEG_Images\0294.jpg	YN	Left	Yes	1.31850610000038	0	228954	252
449.236328125	1.31850610000038	taste	choicePhaseStart	1	46	46	foodImage.31	FOODEEG_Images\0294.jpg	YN	Left	Yes	1.31850610000038	0	230010	253
450.546875	0	taste	response	1	46	46	foodImage.31	FOODEEG_Images\0294.jpg	YN	Left	Yes	1.31850610000038	0	230681	234
451.58984375	1	health	trialStart	1	47	47	foodImage.59	FOODEEG_Images\0607.jpg	YN	Left	Yes	0.958064999998896	0	231215	251
452.63671875	2	health	foodImageDisplay	1	47	47	foodImage.59	FOODEEG_Images\0607.jpg	YN	Left	Yes	0.958064999998896	0	231751	252
454.69921875	0.958064999998896	health	choicePhaseStart	1	47	47	foodImage.59	FOODEEG_Images\0607.jpg	YN	Left	Yes	0.958064999998896	0	232807	253
455.650390625	0	health	response	1	47	47	foodImage.59	FOODEEG_Images\0607.jpg	YN	Left	Yes	0.958064999998896	0	233294	234
456.697265625	1	decision	trialStart	1	48	48	foodImage.9	FOODEEG_Images\0138.jpg	YN	Left	Yes	0.673359600001277	0	233830	251
457.75390625	2	decision	foodImageDisplay	1	48	48	foodImage.9	FOODEEG_Images\0138.jpg	YN	Left	Yes	0.673359600001277	0	234371	252
459.818359375	0.673359600001277	decision	choicePhaseStart	1	48	48	foodImage.9	FOODEEG_Images\0138.jpg	YN	Left	Yes	0.673359600001277	0	235428	253
460.48046875	0	decision	response	1	48	48	foodImage.9	FOODEEG_Images\0138.jpg	YN	Left	Yes	0.673359600001277	0	235767	234
461.544921875	1	decision	trialStart	1	49	49	foodImage.80	FOODEEG_Images\0796.jpg	YN	Left	Yes	0.677180500002578	0	236312	251
462.626953125	2	decision	foodImageDisplay	1	49	49	foodImage.80	FOODEEG_Images\0796.jpg	YN	Left	Yes	0.677180500002578	0	236866	252
464.69140625	0.677180500002578	decision	choicePhaseStart	1	49	49	foodImage.80	FOODEEG_Images\0796.jpg	YN	Left	Yes	0.677180500002578	0	237923	253
465.361328125	0	decision	response	1	49	49	foodImage.80	FOODEEG_Images\0796.jpg	YN	Left	Yes	0.677180500002578	0	238266	234
466.404296875	1	taste	trialStart	1	50	50	foodImage.21	FOODEEG_Images\0234.jpg	YN	Left	Yes	0.63550799999939	0	238800	251
467.462890625	2	taste	foodImageDisplay	1	50	50	foodImage.21	FOODEEG_Images\0234.jpg	YN	Left	Yes	0.63550799999939	0	239342	252
469.525390625	0.63550799999939	taste	choicePhaseStart	1	50	50	foodImage.21	FOODEEG_Images\0234.jpg	YN	Left	Yes	0.63550799999939	0	240398	253
470.15234375	0	taste	response	1	50	50	foodImage.21	FOODEEG_Images\0234.jpg	YN	Left	Yes	0.63550799999939	0	240719	234
471.1953125	1	decision	trialStart	1	51	51	foodImage.40	FOODEEG_Images\0373.jpg	NY	Right	Yes	0.825829199999134	0	241253	251
472.255859375	2	decision	foodImageDisplay	1	51	51	foodImage.40	FOODEEG_Images\0373.jpg	NY	Right	Yes	0.825829199999134	0	241796	252
474.3203125	0.825829199999134	decision	choicePhaseStart	1	51	51	foodImage.40	FOODEEG_Images\0373.jpg	NY	Right	Yes	0.825829199999134	0	242853	253
475.13671875	0	decision	response	1	51	51	foodImage.40	FOODEEG_Images\0373.jpg	NY	Right	Yes	0.825829199999134	0	243271	235
476.1796875	1	health	trialStart	1	52	52	foodImage.2	FOODEEG_Images\0028.jpg	YN	Right	No	0.748173500000121	0	243805	251
477.22265625	2	health	foodImageDisplay	1	52	52	foodImage.2	FOODEEG_Images\0028.jpg	YN	Right	No	0.748173500000121	0	244339	252
479.28515625	0.748173500000121	health	choicePhaseStart	1	52	52	foodImage.2	FOODEEG_Images\0028.jpg	YN	Right	No	0.748173500000121	0	245395	253
480.025390625	0	health	response	1	52	52	foodImage.2	FOODEEG_Images\0028.jpg	YN	Right	No	0.748173500000121	0	245774	235
481.068359375	1	decision	trialStart	1	53	53	foodImage.83	FOODEEG_Images\0827.jpg	NY	Right	Yes	0.901540399998339	0	246308	251
482.1484375	2	decision	foodImageDisplay	1	53	53	foodImage.83	FOODEEG_Images\0827.jpg	NY	Right	Yes	0.901540399998339	0	246861	252
484.2109375	0.901540399998339	decision	choicePhaseStart	1	53	53	foodImage.83	FOODEEG_Images\0827.jpg	NY	Right	Yes	0.901540399998339	0	247917	253
485.103515625	0	decision	response	1	53	53	foodImage.83	FOODEEG_Images\0827.jpg	NY	Right	Yes	0.901540399998339	0	248374	235
486.146484375	1	decision	trialStart	1	54	54	foodImage.102	FOODEEG_Images\0910.jpg	YN	Right	No	1.25568580000254	0	248908	251
487.203125	2	decision	foodImageDisplay	1	54	54	foodImage.102	FOODEEG_Images\0910.jpg	YN	Right	No	1.25568580000254	0	249449	252
489.265625	1.25568580000254	decision	choicePhaseStart	1	54	54	foodImage.102	FOODEEG_Images\0910.jpg	YN	Right	No	1.25568580000254	0	250505	253
490.51171875	0	decision	response	1	54	54	foodImage.102	FOODEEG_Images\0910.jpg	YN	Right	No	1.25568580000254	0	251143	235
491.5546875	1	taste	trialStart	1	55	55	foodImage.109	FOODEEG_Images\0917.jpg	NY	Right	Yes	0.902670200001012	0	251677	251
492.591796875	2	taste	foodImageDisplay	1	55	55	foodImage.109	FOODEEG_Images\0917.jpg	NY	Right	Yes	0.902670200001012	0	252208	252
494.658203125	0.902670200001012	taste	choicePhaseStart	1	55	55	foodImage.109	FOODEEG_Images\0917.jpg	NY	Right	Yes	0.902670200001012	0	253266	253
495.552734375	0	taste	response	1	55	55	foodImage.109	FOODEEG_Images\0917.jpg	NY	Right	Yes	0.902670200001012	0	253724	235
496.595703125	1	decision	trialStart	1	56	56	foodImage.116	FOODEEG_Images\0924.jpg	NY	Right	Yes	0.98938249999992	0	254258	251
497.642578125	2	decision	foodImageDisplay	1	56	56	foodImage.116	FOODEEG_Images\0924.jpg	NY	Right	Yes	0.98938249999992	0	254794	252
499.70703125	0.98938249999992	decision	choicePhaseStart	1	56	56	foodImage.116	FOODEEG_Images\0924.jpg	NY	Right	Yes	0.98938249999992	0	255851	253
500.6875	0	decision	response	1	56	56	foodImage.116	FOODEEG_Images\0924.jpg	NY	Right	Yes	0.98938249999992	0	256353	235
501.736328125	1	health	trialStart	1	57	57	foodImage.51	FOODEEG_Images\0536.jpg	NY	Right	Yes	0.790453499997966	0	256890	251
502.78125	2	health	foodImageDisplay	1	57	57	foodImage.51	FOODEEG_Images\0536.jpg	NY	Right	Yes	0.790453499997966	0	257425	252
504.849609375	0.790453499997966	health	choicePhaseStart	1	57	57	foodImage.51	FOODEEG_Images\0536.jpg	NY	Right	Yes	0.790453499997966	0	258484	253
505.630859375	0	health	response	1	57	57	foodImage.51	FOODEEG_Images\0536.jpg	NY	Right	Yes	0.790453499997966	0	258884	235
506.6796875	1	health	trialStart	1	58	58	foodImage.37	FOODEEG_Images\0359.jpg	YN	Left	Yes	0.868126099998335	0	259421	251
507.740234375	2	health	foodImageDisplay	1	58	58	foodImage.37	FOODEEG_Images\0359.jpg	YN	Left	Yes	0.868126099998335	0	259964	252
509.8046875	0.868126099998335	health	choicePhaseStart	1	58	58	foodImage.37	FOODEEG_Images\0359.jpg	YN	Left	Yes	0.868126099998335	0	261021	253
510.6640625	0	health	response	1	58	58	foodImage.37	FOODEEG_Images\0359.jpg	YN	Left	Yes	0.868126099998335	0	261461	234
511.70703125	1	decision	trialStart	1	59	59	foodImage.15	FOODEEG_Images\0189.jpg	NY	Left	No	0.764494499999273	0	261995	251
512.7890625	2	decision	foodImageDisplay	1	59	59	foodImage.15	FOODEEG_Images\0189.jpg	NY	Left	No	0.764494499999273	0	262549	252
514.8515625	0.764494499999273	decision	choicePhaseStart	1	59	59	foodImage.15	FOODEEG_Images\0189.jpg	NY	Left	No	0.764494499999273	0	263605	253
515.607421875	0	decision	response	1	59	59	foodImage.15	FOODEEG_Images\0189.jpg	NY	Left	No	0.764494499999273	0	263992	234
516.650390625	1	taste	trialStart	1	60	60	foodImage.3	FOODEEG_Images\0046.jpg	YN	Left	Yes	0.66771929999959	0	264526	251
517.693359375	2	taste	foodImageDisplay	1	60	60	foodImage.3	FOODEEG_Images\0046.jpg	YN	Left	Yes	0.66771929999959	0	265060	252
519.76171875	0.66771929999959	taste	choicePhaseStart	1	60	60	foodImage.3	FOODEEG_Images\0046.jpg	YN	Left	Yes	0.66771929999959	0	266119	253
520.423828125	0	taste	response	1	60	60	foodImage.3	FOODEEG_Images\0046.jpg	YN	Left	Yes	0.66771929999959	0	266458	234
522.46484375	4.802734375	n/a	blockEnd	n/a	n/a	n/a	n/a	n/a	n/a	n/a	n/a	n/a	n/a	267503	254
527.267578125	2	n/a	blockStart	2	n/a	n/a	n/a	n/a	n/a	n/a	n/a	n/a	n/a	269962	250
529.298828125	1	health	trialStart	2	61	1	foodImage.21	FOODEEG_Images\0234.jpg	NY	Right	Yes	0.899014399998123	0	271002	251
530.365234375	2	health	foodImageDisplay	2	61	1	foodImage.21	FOODEEG_Images\0234.jpg	NY	Right	Yes	0.899014399998123	0	271548	252
532.427734375	0.899014399998123	health	choicePhaseStart	2	61	1	foodImage.21	FOODEEG_Images\0234.jpg	NY	Right	Yes	0.899014399998123	0	272604	253
533.318359375	0	health	response	2	61	1	foodImage.21	FOODEEG_Images\0234.jpg	NY	Right	Yes	0.899014399998123	0	273060	235
534.361328125	1	decision	trialStart	2	62	2	foodImage.66	FOODEEG_Images\0676.jpg	YN	Left	Yes	0.716466999998374	0	273594	251
535.40234375	2	decision	foodImageDisplay	2	62	2	foodImage.66	FOODEEG_Images\0676.jpg	YN	Left	Yes	0.716466999998374	0	274127	252
537.466796875	0.716466999998374	decision	choicePhaseStart	2	62	2	foodImage.66	FOODEEG_Images\0676.jpg	YN	Left	Yes	0.716466999998374	0	275184	253
538.173828125	0	decision	response	2	62	2	foodImage.66	FOODEEG_Images\0676.jpg	YN	Left	Yes	0.716466999998374	0	275546	234
539.216796875	1	health	trialStart	2	63	3	foodImage.106	FOODEEG_Images\0914.jpg	YN	Right	No	0.958678699997108	0	276080	251
540.255859375	2	health	foodImageDisplay	2	63	3	foodImage.106	FOODEEG_Images\0914.jpg	YN	Right	No	0.958678699997108	0	276612	252
542.3203125	0.958678699997108	health	choicePhaseStart	2	63	3	foodImage.106	FOODEEG_Images\0914.jpg	YN	Right	No	0.958678699997108	0	277669	253
543.26953125	0	health	response	2	63	3	foodImage.106	FOODEEG_Images\0914.jpg	YN	Right	No	0.958678699997108	0	278155	235
544.314453125	1	health	trialStart	2	64	4	foodImage.52	FOODEEG_Images\0539.jpg	YN	Left	Yes	0.597740000001068	0	278690	251
545.37890625	2	health	foodImageDisplay	2	64	4	foodImage.52	FOODEEG_Images\0539.jpg	YN	Left	Yes	0.597740000001068	0	279235	252
547.44140625	0.597740000001068	health	choicePhaseStart	2	64	4	foodImage.52	FOODEEG_Images\0539.jpg	YN	Left	Yes	0.597740000001068	0	280291	253
548.029296875	0	health	response	2	64	4	foodImage.52	FOODEEG_Images\0539.jpg	YN	Left	Yes	0.597740000001068	0	280592	234
549.072265625	1	taste	trialStart	2	65	5	foodImage.44	FOODEEG_Images\0459.jpg	YN	Left	Yes	0.601757299999008	0	281126	251
550.142578125	2	taste	foodImageDisplay	2	65	5	foodImage.44	FOODEEG_Images\0459.jpg	YN	Left	Yes	0.601757299999008	0	281674	252
552.205078125	0.601757299999008	taste	choicePhaseStart	2	65	5	foodImage.44	FOODEEG_Images\0459.jpg	YN	Left	Yes	0.601757299999008	0	282730	253
552.796875	0	taste	response	2	65	5	foodImage.44	FOODEEG_Images\0459.jpg	YN	Left	Yes	0.601757299999008	0	283033	234
553.83984375	1	taste	trialStart	2	66	6	foodImage.78	FOODEEG_Images\0787.jpg	YN	Left	Yes	0.562602300000435	0	283567	251
554.900390625	2	taste	foodImageDisplay	2	66	6	foodImage.78	FOODEEG_Images\0787.jpg	YN	Left	Yes	0.562602300000435	0	284110	252
556.96484375	0.562602300000435	taste	choicePhaseStart	2	66	6	foodImage.78	FOODEEG_Images\0787.jpg	YN	Left	Yes	0.562602300000435	0	285167	253
557.517578125	0	taste	response	2	66	6	foodImage.78	FOODEEG_Images\0787.jpg	YN	Left	Yes	0.562602300000435	0	285450	234
558.55859375	1	health	trialStart	2	67	7	foodImage.114	FOODEEG_Images\0922.jpg	YN	Right	No	1.09863580000092	0	285983	251
559.611328125	2	health	foodImageDisplay	2	67	7	foodImage.114	FOODEEG_Images\0922.jpg	YN	Right	No	1.09863580000092	0	286522	252
561.67578125	1.09863580000092	health	choicePhaseStart	2	67	7	foodImage.114	FOODEEG_Images\0922.jpg	YN	Right	No	1.09863580000092	0	287579	253
562.765625	0	health	response	2	67	7	foodImage.114	FOODEEG_Images\0922.jpg	YN	Right	No	1.09863580000092	0	288137	235
563.80859375	1	health	trialStart	2	68	8	foodImage.1	FOODEEG_Images\0004.jpg	NY	Right	Yes	0.72222099999999	0	288671	251
564.869140625	2	health	foodImageDisplay	2	68	8	foodImage.1	FOODEEG_Images\0004.jpg	NY	Right	Yes	0.72222099999999	0	289214	252
566.931640625	0.72222099999999	health	choicePhaseStart	2	68	8	foodImage.1	FOODEEG_Images\0004.jpg	NY	Right	Yes	0.72222099999999	0	290270	253
567.64453125	0	health	response	2	68	8	foodImage.1	FOODEEG_Images\0004.jpg	NY	Right	Yes	0.72222099999999	0	290635	235
568.6875	1	health	trialStart	2	69	9	foodImage.20	FOODEEG_Images\0226.jpg	NY	Left	No	0.976423100000829	0	291169	251
569.734375	2	health	foodImageDisplay	2	69	9	foodImage.20	FOODEEG_Images\0226.jpg	NY	Left	No	0.976423100000829	0	291705	252
571.798828125	0.976423100000829	health	choicePhaseStart	2	69	9	foodImage.20	FOODEEG_Images\0226.jpg	NY	Left	No	0.976423100000829	0	292762	253
572.765625	0	health	response	2	69	9	foodImage.20	FOODEEG_Images\0226.jpg	NY	Left	No	0.976423100000829	0	293257	234
573.80859375	1	decision	trialStart	2	70	10	foodImage.13	FOODEEG_Images\0183.jpg	NY	Right	Yes	1.02675579999777	0	293791	251
574.8515625	2	decision	foodImageDisplay	2	70	10	foodImage.13	FOODEEG_Images\0183.jpg	NY	Right	Yes	1.02675579999777	0	294325	252
576.9140625	1.02675579999777	decision	choicePhaseStart	2	70	10	foodImage.13	FOODEEG_Images\0183.jpg	NY	Right	Yes	1.02675579999777	0	295381	253
577.93359375	0	decision	response	2	70	10	foodImage.13	FOODEEG_Images\0183.jpg	NY	Right	Yes	1.02675579999777	0	295903	235
578.986328125	1	decision	trialStart	2	71	11	foodImage.111	FOODEEG_Images\0919.jpg	NY	Left	No	0.733055400000012	0	296442	251
580.0234375	2	decision	foodImageDisplay	2	71	11	foodImage.111	FOODEEG_Images\0919.jpg	NY	Left	No	0.733055400000012	0	296973	252
582.087890625	0.733055400000012	decision	choicePhaseStart	2	71	11	foodImage.111	FOODEEG_Images\0919.jpg	NY	Left	No	0.733055400000012	0	298030	253
582.8125	0	decision	response	2	71	11	foodImage.111	FOODEEG_Images\0919.jpg	NY	Left	No	0.733055400000012	0	298401	234
583.85546875	1	decision	trialStart	2	72	12	foodImage.119	FOODEEG_Images\0927.jpg	NY	Left	No	0.743687500002125	0	298935	251
584.91015625	2	decision	foodImageDisplay	2	72	12	foodImage.119	FOODEEG_Images\0927.jpg	NY	Left	No	0.743687500002125	0	299475	252
586.97265625	0.743687500002125	decision	choicePhaseStart	2	72	12	foodImage.119	FOODEEG_Images\0927.jpg	NY	Left	No	0.743687500002125	0	300531	253
587.708984375	0	decision	response	2	72	12	foodImage.119	FOODEEG_Images\0927.jpg	NY	Left	No	0.743687500002125	0	300908	234
588.75	1	health	trialStart	2	73	13	foodImage.42	FOODEEG_Images\0438.jpg	YN	Left	Yes	0.653503400000773	0	301441	251
589.83984375	2	health	foodImageDisplay	2	73	13	foodImage.42	FOODEEG_Images\0438.jpg	YN	Left	Yes	0.653503400000773	0	301999	252
591.904296875	0.653503400000773	health	choicePhaseStart	2	73	13	foodImage.42	FOODEEG_Images\0438.jpg	YN	Left	Yes	0.653503400000773	0	303056	253
592.548828125	0	health	response	2	73	13	foodImage.42	FOODEEG_Images\0438.jpg	YN	Left	Yes	0.653503400000773	0	303386	234
593.587890625	1	health	trialStart	2	74	14	foodImage.61	FOODEEG_Images\0640.jpg	YN	Left	Yes	0.59730970000237	0	303918	251
594.630859375	2	health	foodImageDisplay	2	74	14	foodImage.61	FOODEEG_Images\0640.jpg	YN	Left	Yes	0.59730970000237	0	304452	252
596.693359375	0.59730970000237	health	choicePhaseStart	2	74	14	foodImage.61	FOODEEG_Images\0640.jpg	YN	Left	Yes	0.59730970000237	0	305508	253
597.283203125	0	health	response	2	74	14	foodImage.61	FOODEEG_Images\0640.jpg	YN	Left	Yes	0.59730970000237	0	305810	234
598.32421875	1	health	trialStart	2	75	15	foodImage.33	FOODEEG_Images\0329.jpg	NY	Right	Yes	0.628072399998928	0	306343	251
599.36328125	2	health	foodImageDisplay	2	75	15	foodImage.33	FOODEEG_Images\0329.jpg	NY	Right	Yes	0.628072399998928	0	306875	252
601.42578125	0.628072399998928	health	choicePhaseStart	2	75	15	foodImage.33	FOODEEG_Images\0329.jpg	NY	Right	Yes	0.628072399998928	0	307931	253
602.04296875	0	health	response	2	75	15	foodImage.33	FOODEEG_Images\0329.jpg	NY	Right	Yes	0.628072399998928	0	308247	235
603.0859375	1	taste	trialStart	2	76	16	foodImage.53	FOODEEG_Images\0547.jpg	YN	Left	Yes	0.941511400000309	0	308781	251
604.16015625	2	taste	foodImageDisplay	2	76	16	foodImage.53	FOODEEG_Images\0547.jpg	YN	Left	Yes	0.941511400000309	0	309331	252
606.224609375	0.941511400000309	taste	choicePhaseStart	2	76	16	foodImage.53	FOODEEG_Images\0547.jpg	YN	Left	Yes	0.941511400000309	0	310388	253
607.15625	0	taste	response	2	76	16	foodImage.53	FOODEEG_Images\0547.jpg	YN	Left	Yes	0.941511400000309	0	310865	234
608.203125	1	health	trialStart	2	77	17	foodImage.69	FOODEEG_Images\0693.jpg	YN	Left	Yes	0.693108999999822	0	311401	251
609.248046875	2	health	foodImageDisplay	2	77	17	foodImage.69	FOODEEG_Images\0693.jpg	YN	Left	Yes	0.693108999999822	0	311936	252
611.310546875	0.693108999999822	health	choicePhaseStart	2	77	17	foodImage.69	FOODEEG_Images\0693.jpg	YN	Left	Yes	0.693108999999822	0	312992	253
611.99609375	0	health	response	2	77	17	foodImage.69	FOODEEG_Images\0693.jpg	YN	Left	Yes	0.693108999999822	0	313343	234
613.0390625	1	decision	trialStart	2	78	18	foodImage.1	FOODEEG_Images\0004.jpg	YN	Left	Yes	0.628624299999501	0	313877	251
614.095703125	2	decision	foodImageDisplay	2	78	18	foodImage.1	FOODEEG_Images\0004.jpg	YN	Left	Yes	0.628624299999501	0	314418	252
616.1640625	0.628624299999501	decision	choicePhaseStart	2	78	18	foodImage.1	FOODEEG_Images\0004.jpg	YN	Left	Yes	0.628624299999501	0	315477	253
616.787109375	0	decision	response	2	78	18	foodImage.1	FOODEEG_Images\0004.jpg	YN	Left	Yes	0.628624299999501	0	315796	234
617.83203125	1	decision	trialStart	2	79	19	foodImage.10	FOODEEG_Images\0145.jpg	YN	Right	No	1.30152889999954	0	316331	251
618.890625	2	decision	foodImageDisplay	2	79	19	foodImage.10	FOODEEG_Images\0145.jpg	YN	Right	No	1.30152889999954	0	316873	252
620.955078125	1.30152889999954	decision	choicePhaseStart	2	79	19	foodImage.10	FOODEEG_Images\0145.jpg	YN	Right	No	1.30152889999954	0	317930	253
622.251953125	0	decision	response	2	79	19	foodImage.10	FOODEEG_Images\0145.jpg	YN	Right	No	1.30152889999954	0	318594	235
623.302734375	1	taste	trialStart	2	80	20	foodImage.99	FOODEEG_Images\0907.jpg	YN	Right	No	0.889022100000147	0	319132	251
624.345703125	2	taste	foodImageDisplay	2	80	20	foodImage.99	FOODEEG_Images\0907.jpg	YN	Right	No	0.889022100000147	0	319666	252
626.408203125	0.889022100000147	taste	choicePhaseStart	2	80	20	foodImage.99	FOODEEG_Images\0907.jpg	YN	Right	No	0.889022100000147	0	320722	253
627.291015625	0	taste	response	2	80	20	foodImage.99	FOODEEG_Images\0907.jpg	YN	Right	No	0.889022100000147	0	321174	235
628.33984375	1	health	trialStart	2	81	21	foodImage.30	FOODEEG_Images\0282.jpg	YN	Left	Yes	0.590439499999775	0	321711	251
629.3984375	2	health	foodImageDisplay	2	81	21	foodImage.30	FOODEEG_Images\0282.jpg	YN	Left	Yes	0.590439499999775	0	322253	252
631.462890625	0.590439499999775	health	choicePhaseStart	2	81	21	foodImage.30	FOODEEG_Images\0282.jpg	YN	Left	Yes	0.590439499999775	0	323310	253
632.04296875	0	health	response	2	81	21	foodImage.30	FOODEEG_Images\0282.jpg	YN	Left	Yes	0.590439499999775	0	323607	234
633.087890625	1	taste	trialStart	2	82	22	foodImage.69	FOODEEG_Images\0693.jpg	YN	Left	Yes	0.829308199998195	0	324142	251
634.150390625	2	taste	foodImageDisplay	2	82	22	foodImage.69	FOODEEG_Images\0693.jpg	YN	Left	Yes	0.829308199998195	0	324686	252
636.21484375	0.829308199998195	taste	choicePhaseStart	2	82	22	foodImage.69	FOODEEG_Images\0693.jpg	YN	Left	Yes	0.829308199998195	0	325743	253
637.03515625	0	taste	response	2	82	22	foodImage.69	FOODEEG_Images\0693.jpg	YN	Left	Yes	0.829308199998195	0	326163	234
638.078125	1	taste	trialStart	2	83	23	foodImage.72	FOODEEG_Images\0714.jpg	YN	Left	Yes	0.574987299998611	0	326697	251
639.140625	2	taste	foodImageDisplay	2	83	23	foodImage.72	FOODEEG_Images\0714.jpg	YN	Left	Yes	0.574987299998611	0	327241	252
641.205078125	0.574987299998611	taste	choicePhaseStart	2	83	23	foodImage.72	FOODEEG_Images\0714.jpg	YN	Left	Yes	0.574987299998611	0	328298	253
641.76953125	0	taste	response	2	83	23	foodImage.72	FOODEEG_Images\0714.jpg	YN	Left	Yes	0.574987299998611	0	328587	234
642.814453125	1	taste	trialStart	2	84	24	foodImage.104	FOODEEG_Images\0912.jpg	YN	Left	Yes	0.684757299997727	0	329122	251
643.86328125	2	taste	foodImageDisplay	2	84	24	foodImage.104	FOODEEG_Images\0912.jpg	YN	Left	Yes	0.684757299997727	0	329659	252
645.927734375	0.684757299997727	taste	choicePhaseStart	2	84	24	foodImage.104	FOODEEG_Images\0912.jpg	YN	Left	Yes	0.684757299997727	0	330716	253
646.6015625	0	taste	response	2	84	24	foodImage.104	FOODEEG_Images\0912.jpg	YN	Left	Yes	0.684757299997727	0	331061	234
647.64453125	1	health	trialStart	2	85	25	foodImage.34	FOODEEG_Images\0339.jpg	YN	Right	No	0.73261199999979	0	331595	251
648.703125	2	health	foodImageDisplay	2	85	25	foodImage.34	FOODEEG_Images\0339.jpg	YN	Right	No	0.73261199999979	0	332137	252
650.767578125	0.73261199999979	health	choicePhaseStart	2	85	25	foodImage.34	FOODEEG_Images\0339.jpg	YN	Right	No	0.73261199999979	0	333194	253
651.490234375	0	health	response	2	85	25	foodImage.34	FOODEEG_Images\0339.jpg	YN	Right	No	0.73261199999979	0	333564	235
652.533203125	1	health	trialStart	2	86	26	foodImage.63	FOODEEG_Images\0645.jpg	NY	Left	No	0.932253599999967	0	334098	251
653.58203125	2	health	foodImageDisplay	2	86	26	foodImage.63	FOODEEG_Images\0645.jpg	NY	Left	No	0.932253599999967	0	334635	252
655.646484375	0.932253599999967	health	choicePhaseStart	2	86	26	foodImage.63	FOODEEG_Images\0645.jpg	NY	Left	No	0.932253599999967	0	335692	253
656.5703125	0	health	response	2	86	26	foodImage.63	FOODEEG_Images\0645.jpg	NY	Left	No	0.932253599999967	0	336165	234
657.611328125	1	taste	trialStart	2	87	27	foodImage.96	FOODEEG_Images\0904.jpg	NY	Left	No	0.855459300000803	0	336698	251
658.65234375	2	taste	foodImageDisplay	2	87	27	foodImage.96	FOODEEG_Images\0904.jpg	NY	Left	No	0.855459300000803	0	337231	252
660.71484375	0.855459300000803	taste	choicePhaseStart	2	87	27	foodImage.96	FOODEEG_Images\0904.jpg	NY	Left	No	0.855459300000803	0	338287	253
661.5625	0	taste	response	2	87	27	foodImage.96	FOODEEG_Images\0904.jpg	NY	Left	No	0.855459300000803	0	338721	234
662.60546875	1	health	trialStart	2	88	28	foodImage.15	FOODEEG_Images\0189.jpg	NY	Left	No	0.813430500002141	0	339255	251
663.6640625	2	health	foodImageDisplay	2	88	28	foodImage.15	FOODEEG_Images\0189.jpg	NY	Left	No	0.813430500002141	0	339797	252
665.7265625	0.813430500002141	health	choicePhaseStart	2	88	28	foodImage.15	FOODEEG_Images\0189.jpg	NY	Left	No	0.813430500002141	0	340853	253
666.53125	0	health	response	2	88	28	foodImage.15	FOODEEG_Images\0189.jpg	NY	Left	No	0.813430500002141	0	341265	234
667.57421875	1	health	trialStart	2	89	29	foodImage.115	FOODEEG_Images\0923.jpg	NY	Right	Yes	0.73920089999956	0	341799	251
668.61328125	2	health	foodImageDisplay	2	89	29	foodImage.115	FOODEEG_Images\0923.jpg	NY	Right	Yes	0.73920089999956	0	342331	252
670.67578125	0.73920089999956	health	choicePhaseStart	2	89	29	foodImage.115	FOODEEG_Images\0923.jpg	NY	Right	Yes	0.73920089999956	0	343387	253
671.41015625	0	health	response	2	89	29	foodImage.115	FOODEEG_Images\0923.jpg	NY	Right	Yes	0.73920089999956	0	343763	235
672.45703125	1	decision	trialStart	2	90	30	foodImage.29	FOODEEG_Images\0278.jpg	YN	Right	No	1.65792080000028	0	344299	251
673.498046875	2	decision	foodImageDisplay	2	90	30	foodImage.29	FOODEEG_Images\0278.jpg	YN	Right	No	1.65792080000028	0	344832	252
675.560546875	1.65792080000028	decision	choicePhaseStart	2	90	30	foodImage.29	FOODEEG_Images\0278.jpg	YN	Right	No	1.65792080000028	0	345888	253
677.208984375	0	decision	response	2	90	30	foodImage.29	FOODEEG_Images\0278.jpg	YN	Right	No	1.65792080000028	0	346732	235
678.251953125	1	decision	trialStart	2	91	31	foodImage.57	FOODEEG_Images\0587.jpg	NY	Left	No	0.678541300003417	0	347266	251
679.314453125	2	decision	foodImageDisplay	2	91	31	foodImage.57	FOODEEG_Images\0587.jpg	NY	Left	No	0.678541300003417	0	347810	252
681.37890625	0.678541300003417	decision	choicePhaseStart	2	91	31	foodImage.57	FOODEEG_Images\0587.jpg	NY	Left	No	0.678541300003417	0	348867	253
682.048828125	0	decision	response	2	91	31	foodImage.57	FOODEEG_Images\0587.jpg	NY	Left	No	0.678541300003417	0	349210	234
683.091796875	1	health	trialStart	2	92	32	foodImage.23	FOODEEG_Images\0244.jpg	NY	Right	Yes	1.15677810000125	0	349744	251
684.150390625	2	health	foodImageDisplay	2	92	32	foodImage.23	FOODEEG_Images\0244.jpg	NY	Right	Yes	1.15677810000125	0	350286	252
686.212890625	1.15677810000125	health	choicePhaseStart	2	92	32	foodImage.23	FOODEEG_Images\0244.jpg	NY	Right	Yes	1.15677810000125	0	351342	253
687.361328125	0	health	response	2	92	32	foodImage.23	FOODEEG_Images\0244.jpg	NY	Right	Yes	1.15677810000125	0	351930	235
688.40234375	1	health	trialStart	2	93	33	foodImage.67	FOODEEG_Images\0679.jpg	YN	Right	No	1.30270009999731	0	352463	251
689.47265625	2	health	foodImageDisplay	2	93	33	foodImage.67	FOODEEG_Images\0679.jpg	YN	Right	No	1.30270009999731	0	353011	252
691.537109375	1.30270009999731	health	choicePhaseStart	2	93	33	foodImage.67	FOODEEG_Images\0679.jpg	YN	Right	No	1.30270009999731	0	354068	253
692.83203125	0	health	response	2	93	33	foodImage.67	FOODEEG_Images\0679.jpg	YN	Right	No	1.30270009999731	0	354731	235
693.875	1	taste	trialStart	2	94	34	foodImage.95	FOODEEG_Images\0903.jpg	NY	Left	No	0.735830600002373	0	355265	251
694.9140625	2	taste	foodImageDisplay	2	94	34	foodImage.95	FOODEEG_Images\0903.jpg	NY	Left	No	0.735830600002373	0	355797	252
696.9765625	0.735830600002373	taste	choicePhaseStart	2	94	34	foodImage.95	FOODEEG_Images\0903.jpg	NY	Left	No	0.735830600002373	0	356853	253
697.705078125	0	taste	response	2	94	34	foodImage.95	FOODEEG_Images\0903.jpg	NY	Left	No	0.735830600002373	0	357226	234
698.744140625	1	taste	trialStart	2	95	35	foodImage.116	FOODEEG_Images\0924.jpg	YN	Left	Yes	0.782708499998989	0	357758	251
699.78515625	2	taste	foodImageDisplay	2	95	35	foodImage.116	FOODEEG_Images\0924.jpg	YN	Left	Yes	0.782708499998989	0	358291	252
701.849609375	0.782708499998989	taste	choicePhaseStart	2	95	35	foodImage.116	FOODEEG_Images\0924.jpg	YN	Left	Yes	0.782708499998989	0	359348	253
702.625	0	taste	response	2	95	35	foodImage.116	FOODEEG_Images\0924.jpg	YN	Left	Yes	0.782708499998989	0	359745	234
703.671875	1	taste	trialStart	2	96	36	foodImage.33	FOODEEG_Images\0329.jpg	NY	Right	Yes	1.34490180000284	0	360281	251
704.720703125	2	taste	foodImageDisplay	2	96	36	foodImage.33	FOODEEG_Images\0329.jpg	NY	Right	Yes	1.34490180000284	0	360818	252
706.78515625	1.34490180000284	taste	choicePhaseStart	2	96	36	foodImage.33	FOODEEG_Images\0329.jpg	NY	Right	Yes	1.34490180000284	0	361875	253
708.119140625	0	taste	response	2	96	36	foodImage.33	FOODEEG_Images\0329.jpg	NY	Right	Yes	1.34490180000284	0	362558	235
709.1640625	1	health	trialStart	2	97	37	foodImage.41	FOODEEG_Images\0409.jpg	NY	Right	Yes	0.949973800001317	0	363093	251
710.2109375	2	health	foodImageDisplay	2	97	37	foodImage.41	FOODEEG_Images\0409.jpg	NY	Right	Yes	0.949973800001317	0	363629	252
712.2734375	0.949973800001317	health	choicePhaseStart	2	97	37	foodImage.41	FOODEEG_Images\0409.jpg	NY	Right	Yes	0.949973800001317	0	364685	253
713.21484375	0	health	response	2	97	37	foodImage.41	FOODEEG_Images\0409.jpg	NY	Right	Yes	0.949973800001317	0	365167	235
714.259765625	1	taste	trialStart	2	98	38	foodImage.50	FOODEEG_Images\0529.jpg	NY	Right	Yes	1.04516529999819	0	365702	251
715.31640625	2	taste	foodImageDisplay	2	98	38	foodImage.50	FOODEEG_Images\0529.jpg	NY	Right	Yes	1.04516529999819	0	366243	252
717.37890625	1.04516529999819	taste	choicePhaseStart	2	98	38	foodImage.50	FOODEEG_Images\0529.jpg	NY	Right	Yes	1.04516529999819	0	367299	253
718.416015625	0	taste	response	2	98	38	foodImage.50	FOODEEG_Images\0529.jpg	NY	Right	Yes	1.04516529999819	0	367830	235
719.458984375	1	health	trialStart	2	99	39	foodImage.38	FOODEEG_Images\0365.jpg	YN	Left	Yes	0.631920100000571	0	368364	251
720.49609375	2	health	foodImageDisplay	2	99	39	foodImage.38	FOODEEG_Images\0365.jpg	YN	Left	Yes	0.631920100000571	0	368895	252
722.560546875	0.631920100000571	health	choicePhaseStart	2	99	39	foodImage.38	FOODEEG_Images\0365.jpg	YN	Left	Yes	0.631920100000571	0	369952	253
723.18359375	0	health	response	2	99	39	foodImage.38	FOODEEG_Images\0365.jpg	YN	Left	Yes	0.631920100000571	0	370271	234
724.2265625	1	decision	trialStart	2	100	40	foodImage.110	FOODEEG_Images\0918.jpg	YN	Left	Yes	1.03265980000288	0	370805	251
725.263671875	2	decision	foodImageDisplay	2	100	40	foodImage.110	FOODEEG_Images\0918.jpg	YN	Left	Yes	1.03265980000288	0	371336	252
727.328125	1.03265980000288	decision	choicePhaseStart	2	100	40	foodImage.110	FOODEEG_Images\0918.jpg	YN	Left	Yes	1.03265980000288	0	372393	253
728.3515625	0	decision	response	2	100	40	foodImage.110	FOODEEG_Images\0918.jpg	YN	Left	Yes	1.03265980000288	0	372917	234
729.39453125	1	health	trialStart	2	101	41	foodImage.53	FOODEEG_Images\0547.jpg	NY	Right	Yes	1.55681390000245	0	373451	251
730.455078125	2	health	foodImageDisplay	2	101	41	foodImage.53	FOODEEG_Images\0547.jpg	NY	Right	Yes	1.55681390000245	0	373994	252
732.521484375	1.55681390000245	health	choicePhaseStart	2	101	41	foodImage.53	FOODEEG_Images\0547.jpg	NY	Right	Yes	1.55681390000245	0	375052	253
734.0703125	0	health	response	2	101	41	foodImage.53	FOODEEG_Images\0547.jpg	NY	Right	Yes	1.55681390000245	0	375845	235
735.11328125	1	decision	trialStart	2	102	42	foodImage.54	FOODEEG_Images\0560.jpg	YN	Left	Yes	0.75721120000162	0	376379	251
736.169921875	2	decision	foodImageDisplay	2	102	42	foodImage.54	FOODEEG_Images\0560.jpg	YN	Left	Yes	0.75721120000162	0	376920	252
738.234375	0.75721120000162	decision	choicePhaseStart	2	102	42	foodImage.54	FOODEEG_Images\0560.jpg	YN	Left	Yes	0.75721120000162	0	377977	253
738.982421875	0	decision	response	2	102	42	foodImage.54	FOODEEG_Images\0560.jpg	YN	Left	Yes	0.75721120000162	0	378360	234
740.025390625	1	decision	trialStart	2	103	43	foodImage.44	FOODEEG_Images\0459.jpg	NY	Right	Yes	1.79957460000151	0	378894	251
741.072265625	2	decision	foodImageDisplay	2	103	43	foodImage.44	FOODEEG_Images\0459.jpg	NY	Right	Yes	1.79957460000151	0	379430	252
743.134765625	1.79957460000151	decision	choicePhaseStart	2	103	43	foodImage.44	FOODEEG_Images\0459.jpg	NY	Right	Yes	1.79957460000151	0	380486	253
744.92578125	0	decision	response	2	103	43	foodImage.44	FOODEEG_Images\0459.jpg	NY	Right	Yes	1.79957460000151	0	381403	235
745.966796875	1	health	trialStart	2	104	44	foodImage.26	FOODEEG_Images\0262.jpg	YN	Left	Yes	0.898643000000448	0	381936	251
747.029296875	2	health	foodImageDisplay	2	104	44	foodImage.26	FOODEEG_Images\0262.jpg	YN	Left	Yes	0.898643000000448	0	382480	252
749.09375	0.898643000000448	health	choicePhaseStart	2	104	44	foodImage.26	FOODEEG_Images\0262.jpg	YN	Left	Yes	0.898643000000448	0	383537	253
749.982421875	0	health	response	2	104	44	foodImage.26	FOODEEG_Images\0262.jpg	YN	Left	Yes	0.898643000000448	0	383992	234
751.02734375	1	decision	trialStart	2	105	45	foodImage.88	FOODEEG_Images\0878.jpg	YN	Left	Yes	1.02757720000227	0	384527	251
752.107421875	2	decision	foodImageDisplay	2	105	45	foodImage.88	FOODEEG_Images\0878.jpg	YN	Left	Yes	1.02757720000227	0	385080	252
754.171875	1.02757720000227	decision	choicePhaseStart	2	105	45	foodImage.88	FOODEEG_Images\0878.jpg	YN	Left	Yes	1.02757720000227	0	386137	253
755.189453125	0	decision	response	2	105	45	foodImage.88	FOODEEG_Images\0878.jpg	YN	Left	Yes	1.02757720000227	0	386658	234
756.232421875	1	taste	trialStart	2	106	46	foodImage.20	FOODEEG_Images\0226.jpg	YN	Right	No	1.06830900000205	0	387192	251
757.275390625	2	taste	foodImageDisplay	2	106	46	foodImage.20	FOODEEG_Images\0226.jpg	YN	Right	No	1.06830900000205	0	387726	252
759.337890625	1.06830900000205	taste	choicePhaseStart	2	106	46	foodImage.20	FOODEEG_Images\0226.jpg	YN	Right	No	1.06830900000205	0	388782	253
760.3984375	0	taste	response	2	106	46	foodImage.20	FOODEEG_Images\0226.jpg	YN	Right	No	1.06830900000205	0	389325	235
761.439453125	1	decision	trialStart	2	107	47	foodImage.39	FOODEEG_Images\0367.jpg	YN	Left	Yes	0.583500400000048	0	389858	251
762.478515625	2	decision	foodImageDisplay	2	107	47	foodImage.39	FOODEEG_Images\0367.jpg	YN	Left	Yes	0.583500400000048	0	390390	252
764.541015625	0.583500400000048	decision	choicePhaseStart	2	107	47	foodImage.39	FOODEEG_Images\0367.jpg	YN	Left	Yes	0.583500400000048	0	391446	253
765.1171875	0	decision	response	2	107	47	foodImage.39	FOODEEG_Images\0367.jpg	YN	Left	Yes	0.583500400000048	0	391741	234
766.162109375	1	decision	trialStart	2	108	48	foodImage.85	FOODEEG_Images\0841.jpg	NY	Right	Yes	1.49008640000102	0	392276	251
767.220703125	2	decision	foodImageDisplay	2	108	48	foodImage.85	FOODEEG_Images\0841.jpg	NY	Right	Yes	1.49008640000102	0	392818	252
769.283203125	1.49008640000102	decision	choicePhaseStart	2	108	48	foodImage.85	FOODEEG_Images\0841.jpg	NY	Right	Yes	1.49008640000102	0	393874	253
770.765625	0	decision	response	2	108	48	foodImage.85	FOODEEG_Images\0841.jpg	NY	Right	Yes	1.49008640000102	0	394633	235
771.8125	1	decision	trialStart	2	109	49	foodImage.82	FOODEEG_Images\0805.jpg	YN	Right	No	0.809406200001831	0	395169	251
772.884765625	2	decision	foodImageDisplay	2	109	49	foodImage.82	FOODEEG_Images\0805.jpg	YN	Right	No	0.809406200001831	0	395718	252
774.94921875	0.809406200001831	decision	choicePhaseStart	2	109	49	foodImage.82	FOODEEG_Images\0805.jpg	YN	Right	No	0.809406200001831	0	396775	253
775.75	0	decision	response	2	109	49	foodImage.82	FOODEEG_Images\0805.jpg	YN	Right	No	0.809406200001831	0	397185	235
776.791015625	1	decision	trialStart	2	110	50	foodImage.2	FOODEEG_Images\0028.jpg	YN	Left	Yes	0.612682700000732	0	397718	251
777.833984375	2	decision	foodImageDisplay	2	110	50	foodImage.2	FOODEEG_Images\0028.jpg	YN	Left	Yes	0.612682700000732	0	398252	252
779.8984375	0.612682700000732	decision	choicePhaseStart	2	110	50	foodImage.2	FOODEEG_Images\0028.jpg	YN	Left	Yes	0.612682700000732	0	399309	253
780.5	0	decision	response	2	110	50	foodImage.2	FOODEEG_Images\0028.jpg	YN	Left	Yes	0.612682700000732	0	399617	234
781.544921875	1	decision	trialStart	2	111	51	foodImage.63	FOODEEG_Images\0645.jpg	NY	Left	No	0.757242300001963	0	400152	251
782.6015625	2	decision	foodImageDisplay	2	111	51	foodImage.63	FOODEEG_Images\0645.jpg	NY	Left	No	0.757242300001963	0	400693	252
784.669921875	0.757242300001963	decision	choicePhaseStart	2	111	51	foodImage.63	FOODEEG_Images\0645.jpg	NY	Left	No	0.757242300001963	0	401752	253
785.419921875	0	decision	response	2	111	51	foodImage.63	FOODEEG_Images\0645.jpg	NY	Left	No	0.757242300001963	0	402136	234
786.462890625	1	decision	trialStart	2	112	52	foodImage.77	FOODEEG_Images\0771.jpg	YN	Left	Yes	0.894455400000879	0	402670	251
787.51171875	2	decision	foodImageDisplay	2	112	52	foodImage.77	FOODEEG_Images\0771.jpg	YN	Left	Yes	0.894455400000879	0	403207	252
789.576171875	0.894455400000879	decision	choicePhaseStart	2	112	52	foodImage.77	FOODEEG_Images\0771.jpg	YN	Left	Yes	0.894455400000879	0	404264	253
790.4609375	0	decision	response	2	112	52	foodImage.77	FOODEEG_Images\0771.jpg	YN	Left	Yes	0.894455400000879	0	404717	234
791.50390625	1	taste	trialStart	2	113	53	foodImage.61	FOODEEG_Images\0640.jpg	NY	Right	Yes	0.917797000001883	0	405251	251
792.546875	2	taste	foodImageDisplay	2	113	53	foodImage.61	FOODEEG_Images\0640.jpg	NY	Right	Yes	0.917797000001883	0	405785	252
794.609375	0.917797000001883	taste	choicePhaseStart	2	113	53	foodImage.61	FOODEEG_Images\0640.jpg	NY	Right	Yes	0.917797000001883	0	406841	253
795.515625	0	taste	response	2	113	53	foodImage.61	FOODEEG_Images\0640.jpg	NY	Right	Yes	0.917797000001883	0	407305	235
796.560546875	1	health	trialStart	2	114	54	foodImage.110	FOODEEG_Images\0918.jpg	YN	Right	No	1.17243530000269	0	407840	251
797.6015625	2	health	foodImageDisplay	2	114	54	foodImage.110	FOODEEG_Images\0918.jpg	YN	Right	No	1.17243530000269	0	408373	252
799.6640625	1.17243530000269	health	choicePhaseStart	2	114	54	foodImage.110	FOODEEG_Images\0918.jpg	YN	Right	No	1.17243530000269	0	409429	253
800.828125	0	health	response	2	114	54	foodImage.110	FOODEEG_Images\0918.jpg	YN	Right	No	1.17243530000269	0	410025	235
801.869140625	1	taste	trialStart	2	115	55	foodImage.62	FOODEEG_Images\0644.jpg	YN	Right	No	1.10750859999825	0	410558	251
802.93359375	2	taste	foodImageDisplay	2	115	55	foodImage.62	FOODEEG_Images\0644.jpg	YN	Right	No	1.10750859999825	0	411103	252
804.998046875	1.10750859999825	taste	choicePhaseStart	2	115	55	foodImage.62	FOODEEG_Images\0644.jpg	YN	Right	No	1.10750859999825	0	412160	253
806.099609375	0	taste	response	2	115	55	foodImage.62	FOODEEG_Images\0644.jpg	YN	Right	No	1.10750859999825	0	412724	235
807.142578125	1	health	trialStart	2	116	56	foodImage.25	FOODEEG_Images\0261.jpg	NY	Right	Yes	0.611486499998136	0	413258	251
808.205078125	2	health	foodImageDisplay	2	116	56	foodImage.25	FOODEEG_Images\0261.jpg	NY	Right	Yes	0.611486499998136	0	413802	252
810.2734375	0.611486499998136	health	choicePhaseStart	2	116	56	foodImage.25	FOODEEG_Images\0261.jpg	NY	Right	Yes	0.611486499998136	0	414861	253
810.875	0	health	response	2	116	56	foodImage.25	FOODEEG_Images\0261.jpg	NY	Right	Yes	0.611486499998136	0	415169	235
811.91796875	1	taste	trialStart	2	117	57	foodImage.43	FOODEEG_Images\0445.jpg	NY	Right	Yes	0.932806699998764	0	415703	251
813	2	taste	foodImageDisplay	2	117	57	foodImage.43	FOODEEG_Images\0445.jpg	NY	Right	Yes	0.932806699998764	0	416257	252
815.0703125	0.932806699998764	taste	choicePhaseStart	2	117	57	foodImage.43	FOODEEG_Images\0445.jpg	NY	Right	Yes	0.932806699998764	0	417317	253
815.99609375	0	taste	response	2	117	57	foodImage.43	FOODEEG_Images\0445.jpg	NY	Right	Yes	0.932806699998764	0	417791	235
817.04296875	1	decision	trialStart	2	118	58	foodImage.58	FOODEEG_Images\0605.jpg	YN	Left	Yes	0.889336600001116	0	418327	251
818.1171875	2	decision	foodImageDisplay	2	118	58	foodImage.58	FOODEEG_Images\0605.jpg	YN	Left	Yes	0.889336600001116	0	418877	252
820.1796875	0.889336600001116	decision	choicePhaseStart	2	118	58	foodImage.58	FOODEEG_Images\0605.jpg	YN	Left	Yes	0.889336600001116	0	419933	253
821.05859375	0	decision	response	2	118	58	foodImage.58	FOODEEG_Images\0605.jpg	YN	Left	Yes	0.889336600001116	0	420383	234
822.1015625	1	decision	trialStart	2	119	59	foodImage.109	FOODEEG_Images\0917.jpg	NY	Right	Yes	1.00642489999882	0	420917	251
823.140625	2	decision	foodImageDisplay	2	119	59	foodImage.109	FOODEEG_Images\0917.jpg	NY	Right	Yes	1.00642489999882	0	421449	252
825.20703125	1.00642489999882	decision	choicePhaseStart	2	119	59	foodImage.109	FOODEEG_Images\0917.jpg	NY	Right	Yes	1.00642489999882	0	422507	253
826.203125	0	decision	response	2	119	59	foodImage.109	FOODEEG_Images\0917.jpg	NY	Right	Yes	1.00642489999882	0	423017	235
827.244140625	1	decision	trialStart	2	120	60	foodImage.33	FOODEEG_Images\0329.jpg	NY	Right	Yes	1.207250200001	0	423550	251
828.306640625	2	decision	foodImageDisplay	2	120	60	foodImage.33	FOODEEG_Images\0329.jpg	NY	Right	Yes	1.207250200001	0	424094	252
830.373046875	1.207250200001	decision	choicePhaseStart	2	120	60	foodImage.33	FOODEEG_Images\0329.jpg	NY	Right	Yes	1.207250200001	0	425152	253
831.5703125	0	decision	response	2	120	60	foodImage.33	FOODEEG_Images\0329.jpg	NY	Right	Yes	1.207250200001	0	425765	235
833.6171875	4.83203125	n/a	blockEnd	n/a	n/a	n/a	n/a	n/a	n/a	n/a	n/a	n/a	n/a	426813	254
838.44921875	2	n/a	blockStart	3	n/a	n/a	n/a	n/a	n/a	n/a	n/a	n/a	n/a	429287	250
840.48046875	1	health	trialStart	3	121	1	foodImage.97	FOODEEG_Images\0905.jpg	YN	Left	Yes	0.819624799998564	0	430327	251
841.51953125	2	health	foodImageDisplay	3	121	1	foodImage.97	FOODEEG_Images\0905.jpg	YN	Left	Yes	0.819624799998564	0	430859	252
843.58203125	0.819624799998564	health	choicePhaseStart	3	121	1	foodImage.97	FOODEEG_Images\0905.jpg	YN	Left	Yes	0.819624799998564	0	431915	253
844.39453125	0	health	response	3	121	1	foodImage.97	FOODEEG_Images\0905.jpg	YN	Left	Yes	0.819624799998564	0	432331	234
845.435546875	1	taste	trialStart	3	122	2	foodImage.10	FOODEEG_Images\0145.jpg	YN	Left	Yes	0.662329499999032	0	432864	251
846.501953125	2	taste	foodImageDisplay	3	122	2	foodImage.10	FOODEEG_Images\0145.jpg	YN	Left	Yes	0.662329499999032	0	433410	252
848.564453125	0.662329499999032	taste	choicePhaseStart	3	122	2	foodImage.10	FOODEEG_Images\0145.jpg	YN	Left	Yes	0.662329499999032	0	434466	253
849.21875	0	taste	response	3	122	2	foodImage.10	FOODEEG_Images\0145.jpg	YN	Left	Yes	0.662329499999032	0	434801	234
850.26171875	1	taste	trialStart	3	123	3	foodImage.32	FOODEEG_Images\0319.jpg	NY	Right	Yes	0.640321599999879	0	435335	251
851.322265625	2	taste	foodImageDisplay	3	123	3	foodImage.32	FOODEEG_Images\0319.jpg	NY	Right	Yes	0.640321599999879	0	435878	252
853.38671875	0.640321599999879	taste	choicePhaseStart	3	123	3	foodImage.32	FOODEEG_Images\0319.jpg	NY	Right	Yes	0.640321599999879	0	436935	253
854.017578125	0	taste	response	3	123	3	foodImage.32	FOODEEG_Images\0319.jpg	NY	Right	Yes	0.640321599999879	0	437258	235
855.064453125	1	decision	trialStart	3	124	4	foodImage.79	FOODEEG_Images\0794.jpg	YN	Left	Yes	0.717328000002453	0	437794	251
856.126953125	2	decision	foodImageDisplay	3	124	4	foodImage.79	FOODEEG_Images\0794.jpg	YN	Left	Yes	0.717328000002453	0	438338	252
858.189453125	0.717328000002453	decision	choicePhaseStart	3	124	4	foodImage.79	FOODEEG_Images\0794.jpg	YN	Left	Yes	0.717328000002453	0	439394	253
858.8984375	0	decision	response	3	124	4	foodImage.79	FOODEEG_Images\0794.jpg	YN	Left	Yes	0.717328000002453	0	439757	234
859.94140625	1	health	trialStart	3	125	5	foodImage.64	FOODEEG_Images\0647.jpg	YN	Left	Yes	0.691481599998951	0	440291	251
861	2	health	foodImageDisplay	3	125	5	foodImage.64	FOODEEG_Images\0647.jpg	YN	Left	Yes	0.691481599998951	0	440833	252
863.064453125	0.691481599998951	health	choicePhaseStart	3	125	5	foodImage.64	FOODEEG_Images\0647.jpg	YN	Left	Yes	0.691481599998951	0	441890	253
863.74609375	0	health	response	3	125	5	foodImage.64	FOODEEG_Images\0647.jpg	YN	Left	Yes	0.691481599998951	0	442239	234
864.7890625	1	decision	trialStart	3	126	6	foodImage.56	FOODEEG_Images\0586.jpg	NY	Right	Yes	0.811789300001692	0	442773	251
865.83203125	2	decision	foodImageDisplay	3	126	6	foodImage.56	FOODEEG_Images\0586.jpg	NY	Right	Yes	0.811789300001692	0	443307	252
867.89453125	0.811789300001692	decision	choicePhaseStart	3	126	6	foodImage.56	FOODEEG_Images\0586.jpg	NY	Right	Yes	0.811789300001692	0	444363	253
868.697265625	0	decision	response	3	126	6	foodImage.56	FOODEEG_Images\0586.jpg	NY	Right	Yes	0.811789300001692	0	444774	235
869.74609375	1	taste	trialStart	3	127	7	foodImage.63	FOODEEG_Images\0645.jpg	NY	Right	Yes	0.89560640000127	0	445311	251
870.7890625	2	taste	foodImageDisplay	3	127	7	foodImage.63	FOODEEG_Images\0645.jpg	NY	Right	Yes	0.89560640000127	0	445845	252
872.8515625	0.89560640000127	taste	choicePhaseStart	3	127	7	foodImage.63	FOODEEG_Images\0645.jpg	NY	Right	Yes	0.89560640000127	0	446901	253
873.736328125	0	taste	response	3	127	7	foodImage.63	FOODEEG_Images\0645.jpg	NY	Right	Yes	0.89560640000127	0	447354	235
874.787109375	1	health	trialStart	3	128	8	foodImage.43	FOODEEG_Images\0445.jpg	NY	Right	Yes	0.747988200000691	0	447892	251
875.86328125	2	health	foodImageDisplay	3	128	8	foodImage.43	FOODEEG_Images\0445.jpg	NY	Right	Yes	0.747988200000691	0	448443	252
877.92578125	0.747988200000691	health	choicePhaseStart	3	128	8	foodImage.43	FOODEEG_Images\0445.jpg	NY	Right	Yes	0.747988200000691	0	449499	253
878.666015625	0	health	response	3	128	8	foodImage.43	FOODEEG_Images\0445.jpg	NY	Right	Yes	0.747988200000691	0	449878	235
879.70703125	1	decision	trialStart	3	129	9	foodImage.68	FOODEEG_Images\0685.jpg	NY	Right	Yes	0.701003800000763	0	450411	251
880.787109375	2	decision	foodImageDisplay	3	129	9	foodImage.68	FOODEEG_Images\0685.jpg	NY	Right	Yes	0.701003800000763	0	450964	252
882.849609375	0.701003800000763	decision	choicePhaseStart	3	129	9	foodImage.68	FOODEEG_Images\0685.jpg	NY	Right	Yes	0.701003800000763	0	452020	253
883.544921875	0	decision	response	3	129	9	foodImage.68	FOODEEG_Images\0685.jpg	NY	Right	Yes	0.701003800000763	0	452376	235
884.587890625	1	taste	trialStart	3	130	10	foodImage.59	FOODEEG_Images\0607.jpg	YN	Left	Yes	0.633265799999208	0	452910	251
885.65625	2	taste	foodImageDisplay	3	130	10	foodImage.59	FOODEEG_Images\0607.jpg	YN	Left	Yes	0.633265799999208	0	453457	252
887.720703125	0.633265799999208	taste	choicePhaseStart	3	130	10	foodImage.59	FOODEEG_Images\0607.jpg	YN	Left	Yes	0.633265799999208	0	454514	253
888.345703125	0	taste	response	3	130	10	foodImage.59	FOODEEG_Images\0607.jpg	YN	Left	Yes	0.633265799999208	0	454834	234
889.392578125	1	health	trialStart	3	131	11	foodImage.75	FOODEEG_Images\0763.jpg	NY	Right	Yes	0.650289399996836	0	455370	251
890.4375	2	health	foodImageDisplay	3	131	11	foodImage.75	FOODEEG_Images\0763.jpg	NY	Right	Yes	0.650289399996836	0	455905	252
892.5	0.650289399996836	health	choicePhaseStart	3	131	11	foodImage.75	FOODEEG_Images\0763.jpg	NY	Right	Yes	0.650289399996836	0	456961	253
893.14453125	0	health	response	3	131	11	foodImage.75	FOODEEG_Images\0763.jpg	NY	Right	Yes	0.650289399996836	0	457291	235
894.1875	1	health	trialStart	3	132	12	foodImage.111	FOODEEG_Images\0919.jpg	NY	Left	No	1.01730890000181	0	457825	251
895.224609375	2	health	foodImageDisplay	3	132	12	foodImage.111	FOODEEG_Images\0919.jpg	NY	Left	No	1.01730890000181	0	458356	252
897.2890625	1.01730890000181	health	choicePhaseStart	3	132	12	foodImage.111	FOODEEG_Images\0919.jpg	NY	Left	No	1.01730890000181	0	459413	253
898.296875	0	health	response	3	132	12	foodImage.111	FOODEEG_Images\0919.jpg	NY	Left	No	1.01730890000181	0	459929	234
899.33984375	1	decision	trialStart	3	133	13	foodImage.87	FOODEEG_Images\0873.jpg	NY	Right	Yes	0.792549099998723	0	460463	251
900.3984375	2	decision	foodImageDisplay	3	133	13	foodImage.87	FOODEEG_Images\0873.jpg	NY	Right	Yes	0.792549099998723	0	461005	252
902.46875	0.792549099998723	decision	choicePhaseStart	3	133	13	foodImage.87	FOODEEG_Images\0873.jpg	NY	Right	Yes	0.792549099998723	0	462065	253
903.255859375	0	decision	response	3	133	13	foodImage.87	FOODEEG_Images\0873.jpg	NY	Right	Yes	0.792549099998723	0	462468	235
904.298828125	1	health	trialStart	3	134	14	foodImage.101	FOODEEG_Images\0909.jpg	NY	Left	No	0.834232999997766	0	463002	251
905.3359375	2	health	foodImageDisplay	3	134	14	foodImage.101	FOODEEG_Images\0909.jpg	NY	Left	No	0.834232999997766	0	463533	252
907.3984375	0.834232999997766	health	choicePhaseStart	3	134	14	foodImage.101	FOODEEG_Images\0909.jpg	NY	Left	No	0.834232999997766	0	464589	253
908.224609375	0	health	response	3	134	14	foodImage.101	FOODEEG_Images\0909.jpg	NY	Left	No	0.834232999997766	0	465012	234
909.267578125	1	taste	trialStart	3	135	15	foodImage.102	FOODEEG_Images\0910.jpg	YN	Right	No	0.980268100000103	0	465546	251
910.31640625	2	taste	foodImageDisplay	3	135	15	foodImage.102	FOODEEG_Images\0910.jpg	YN	Right	No	0.980268100000103	0	466083	252
912.380859375	0.980268100000103	taste	choicePhaseStart	3	135	15	foodImage.102	FOODEEG_Images\0910.jpg	YN	Right	No	0.980268100000103	0	467140	253
913.3515625	0	taste	response	3	135	15	foodImage.102	FOODEEG_Images\0910.jpg	YN	Right	No	0.980268100000103	0	467637	235
914.4140625	1	taste	trialStart	3	136	16	foodImage.24	FOODEEG_Images\0250.jpg	NY	Right	Yes	0.753265600000304	0	468181	251
915.45703125	2	taste	foodImageDisplay	3	136	16	foodImage.24	FOODEEG_Images\0250.jpg	NY	Right	Yes	0.753265600000304	0	468715	252
917.51953125	0.753265600000304	taste	choicePhaseStart	3	136	16	foodImage.24	FOODEEG_Images\0250.jpg	NY	Right	Yes	0.753265600000304	0	469771	253
918.263671875	0	taste	response	3	136	16	foodImage.24	FOODEEG_Images\0250.jpg	NY	Right	Yes	0.753265600000304	0	470152	235
919.3125	1	decision	trialStart	3	137	17	foodImage.108	FOODEEG_Images\0916.jpg	NY	Left	No	0.930458499999077	0	470689	251
920.3515625	2	decision	foodImageDisplay	3	137	17	foodImage.108	FOODEEG_Images\0916.jpg	NY	Left	No	0.930458499999077	0	471221	252
922.419921875	0.930458499999077	decision	choicePhaseStart	3	137	17	foodImage.108	FOODEEG_Images\0916.jpg	NY	Left	No	0.930458499999077	0	472280	253
923.34375	0	decision	response	3	137	17	foodImage.108	FOODEEG_Images\0916.jpg	NY	Left	No	0.930458499999077	0	472753	234
924.390625	1	taste	trialStart	3	138	18	foodImage.40	FOODEEG_Images\0373.jpg	YN	Left	Yes	0.675095300000976	0	473289	251
925.451171875	2	taste	foodImageDisplay	3	138	18	foodImage.40	FOODEEG_Images\0373.jpg	YN	Left	Yes	0.675095300000976	0	473832	252
927.513671875	0.675095300000976	taste	choicePhaseStart	3	138	18	foodImage.40	FOODEEG_Images\0373.jpg	YN	Left	Yes	0.675095300000976	0	474888	253
928.18359375	0	taste	response	3	138	18	foodImage.40	FOODEEG_Images\0373.jpg	YN	Left	Yes	0.675095300000976	0	475231	234
929.2265625	1	health	trialStart	3	139	19	foodImage.87	FOODEEG_Images\0873.jpg	NY	Right	Yes	0.667145499999606	0	475765	251
930.28515625	2	health	foodImageDisplay	3	139	19	foodImage.87	FOODEEG_Images\0873.jpg	NY	Right	Yes	0.667145499999606	0	476307	252
932.34765625	0.667145499999606	health	choicePhaseStart	3	139	19	foodImage.87	FOODEEG_Images\0873.jpg	NY	Right	Yes	0.667145499999606	0	477363	253
933.0078125	0	health	response	3	139	19	foodImage.87	FOODEEG_Images\0873.jpg	NY	Right	Yes	0.667145499999606	0	477701	235
934.05078125	1	taste	trialStart	3	140	20	foodImage.42	FOODEEG_Images\0438.jpg	YN	Right	No	1.20269329999792	0	478235	251
935.158203125	2	taste	foodImageDisplay	3	140	20	foodImage.42	FOODEEG_Images\0438.jpg	YN	Right	No	1.20269329999792	0	478802	252
937.220703125	1.20269329999792	taste	choicePhaseStart	3	140	20	foodImage.42	FOODEEG_Images\0438.jpg	YN	Right	No	1.20269329999792	0	479858	253
938.4140625	0	taste	response	3	140	20	foodImage.42	FOODEEG_Images\0438.jpg	YN	Right	No	1.20269329999792	0	480469	235
939.462890625	1	health	trialStart	3	141	21	foodImage.8	FOODEEG_Images\0136.jpg	YN	Right	No	0.956616600000416	0	481006	251
940.525390625	2	health	foodImageDisplay	3	141	21	foodImage.8	FOODEEG_Images\0136.jpg	YN	Right	No	0.956616600000416	0	481550	252
942.59375	0.956616600000416	health	choicePhaseStart	3	141	21	foodImage.8	FOODEEG_Images\0136.jpg	YN	Right	No	0.956616600000416	0	482609	253
943.54296875	0	health	response	3	141	21	foodImage.8	FOODEEG_Images\0136.jpg	YN	Right	No	0.956616600000416	0	483095	235
944.587890625	1	taste	trialStart	3	142	22	foodImage.115	FOODEEG_Images\0923.jpg	NY	Left	No	0.643182600000728	0	483630	251
945.62890625	2	taste	foodImageDisplay	3	142	22	foodImage.115	FOODEEG_Images\0923.jpg	NY	Left	No	0.643182600000728	0	484163	252
947.69140625	0.643182600000728	taste	choicePhaseStart	3	142	22	foodImage.115	FOODEEG_Images\0923.jpg	NY	Left	No	0.643182600000728	0	485219	253
948.326171875	0	taste	response	3	142	22	foodImage.115	FOODEEG_Images\0923.jpg	NY	Left	No	0.643182600000728	0	485544	234
949.37109375	1	taste	trialStart	3	143	23	foodImage.73	FOODEEG_Images\0717.jpg	NY	Right	Yes	0.683430500001123	0	486079	251
950.4296875	2	taste	foodImageDisplay	3	143	23	foodImage.73	FOODEEG_Images\0717.jpg	NY	Right	Yes	0.683430500001123	0	486621	252
952.4921875	0.683430500001123	taste	choicePhaseStart	3	143	23	foodImage.73	FOODEEG_Images\0717.jpg	NY	Right	Yes	0.683430500001123	0	487677	253
953.166015625	0	taste	response	3	143	23	foodImage.73	FOODEEG_Images\0717.jpg	NY	Right	Yes	0.683430500001123	0	488022	235
954.208984375	1	health	trialStart	3	144	24	foodImage.28	FOODEEG_Images\0273.jpg	NY	Right	Yes	0.643066200002067	0	488556	251
955.251953125	2	health	foodImageDisplay	3	144	24	foodImage.28	FOODEEG_Images\0273.jpg	NY	Right	Yes	0.643066200002067	0	489090	252
957.31640625	0.643066200002067	health	choicePhaseStart	3	144	24	foodImage.28	FOODEEG_Images\0273.jpg	NY	Right	Yes	0.643066200002067	0	490147	253
957.951171875	0	health	response	3	144	24	foodImage.28	FOODEEG_Images\0273.jpg	NY	Right	Yes	0.643066200002067	0	490472	235
958.994140625	1	taste	trialStart	3	145	25	foodImage.58	FOODEEG_Images\0605.jpg	NY	Right	Yes	0.624548499999946	0	491006	251
960.072265625	2	taste	foodImageDisplay	3	145	25	foodImage.58	FOODEEG_Images\0605.jpg	NY	Right	Yes	0.624548499999946	0	491558	252
962.134765625	0.624548499999946	taste	choicePhaseStart	3	145	25	foodImage.58	FOODEEG_Images\0605.jpg	NY	Right	Yes	0.624548499999946	0	492614	253
962.75	0	taste	response	3	145	25	foodImage.58	FOODEEG_Images\0605.jpg	NY	Right	Yes	0.624548499999946	0	492929	235
963.791015625	1	taste	trialStart	3	146	26	foodImage.112	FOODEEG_Images\0920.jpg	NY	Left	No	1.1027694000004	0	493462	251
964.830078125	2	taste	foodImageDisplay	3	146	26	foodImage.112	FOODEEG_Images\0920.jpg	NY	Left	No	1.1027694000004	0	493994	252
966.89453125	1.1027694000004	taste	choicePhaseStart	3	146	26	foodImage.112	FOODEEG_Images\0920.jpg	NY	Left	No	1.1027694000004	0	495051	253
967.990234375	0	taste	response	3	146	26	foodImage.112	FOODEEG_Images\0920.jpg	NY	Left	No	1.1027694000004	0	495612	234
969.033203125	1	health	trialStart	3	147	27	foodImage.5	FOODEEG_Images\0107.jpg	YN	Right	No	0.836516499999561	0	496146	251
970.091796875	2	health	foodImageDisplay	3	147	27	foodImage.5	FOODEEG_Images\0107.jpg	YN	Right	No	0.836516499999561	0	496688	252
972.154296875	0.836516499999561	health	choicePhaseStart	3	147	27	foodImage.5	FOODEEG_Images\0107.jpg	YN	Right	No	0.836516499999561	0	497744	253
972.982421875	0	health	response	3	147	27	foodImage.5	FOODEEG_Images\0107.jpg	YN	Right	No	0.836516499999561	0	498168	235
974.025390625	1	decision	trialStart	3	148	28	foodImage.24	FOODEEG_Images\0250.jpg	YN	Left	Yes	1.07633340000029	0	498702	251
975.0859375	2	decision	foodImageDisplay	3	148	28	foodImage.24	FOODEEG_Images\0250.jpg	YN	Left	Yes	1.07633340000029	0	499245	252
977.154296875	1.07633340000029	decision	choicePhaseStart	3	148	28	foodImage.24	FOODEEG_Images\0250.jpg	YN	Left	Yes	1.07633340000029	0	500304	253
978.220703125	0	decision	response	3	148	28	foodImage.24	FOODEEG_Images\0250.jpg	YN	Left	Yes	1.07633340000029	0	500850	234
979.267578125	1	decision	trialStart	3	149	29	foodImage.113	FOODEEG_Images\0921.jpg	NY	Left	No	1.23011129999941	0	501386	251
980.3046875	2	decision	foodImageDisplay	3	149	29	foodImage.113	FOODEEG_Images\0921.jpg	NY	Left	No	1.23011129999941	0	501917	252
982.369140625	1.23011129999941	decision	choicePhaseStart	3	149	29	foodImage.113	FOODEEG_Images\0921.jpg	NY	Left	No	1.23011129999941	0	502974	253
983.58984375	0	decision	response	3	149	29	foodImage.113	FOODEEG_Images\0921.jpg	NY	Left	No	1.23011129999941	0	503599	234
984.640625	1	decision	trialStart	3	150	30	foodImage.51	FOODEEG_Images\0536.jpg	YN	Left	Yes	0.704390400002012	0	504137	251
985.6875	2	decision	foodImageDisplay	3	150	30	foodImage.51	FOODEEG_Images\0536.jpg	YN	Left	Yes	0.704390400002012	0	504673	252
987.755859375	0.704390400002012	decision	choicePhaseStart	3	150	30	foodImage.51	FOODEEG_Images\0536.jpg	YN	Left	Yes	0.704390400002012	0	505732	253
988.453125	0	decision	response	3	150	30	foodImage.51	FOODEEG_Images\0536.jpg	YN	Left	Yes	0.704390400002012	0	506089	234
989.49609375	1	taste	trialStart	3	151	31	foodImage.19	FOODEEG_Images\0225.jpg	YN	Right	No	0.835711299998366	0	506623	251
990.546875	2	taste	foodImageDisplay	3	151	31	foodImage.19	FOODEEG_Images\0225.jpg	YN	Right	No	0.835711299998366	0	507161	252
992.611328125	0.835711299998366	taste	choicePhaseStart	3	151	31	foodImage.19	FOODEEG_Images\0225.jpg	YN	Right	No	0.835711299998366	0	508218	253
993.4375	0	taste	response	3	151	31	foodImage.19	FOODEEG_Images\0225.jpg	YN	Right	No	0.835711299998366	0	508641	235
994.48046875	1	health	trialStart	3	152	32	foodImage.88	FOODEEG_Images\0878.jpg	NY	Left	No	1.51111060000039	0	509175	251
995.55859375	2	health	foodImageDisplay	3	152	32	foodImage.88	FOODEEG_Images\0878.jpg	NY	Left	No	1.51111060000039	0	509727	252
997.623046875	1.51111060000039	health	choicePhaseStart	3	152	32	foodImage.88	FOODEEG_Images\0878.jpg	NY	Left	No	1.51111060000039	0	510784	253
999.125	0	health	response	3	152	32	foodImage.88	FOODEEG_Images\0878.jpg	NY	Left	No	1.51111060000039	0	511553	234
1000.16796875	1	taste	trialStart	3	153	33	foodImage.114	FOODEEG_Images\0922.jpg	NY	Left	No	0.729120300002251	0	512087	251
1001.220703125	2	taste	foodImageDisplay	3	153	33	foodImage.114	FOODEEG_Images\0922.jpg	NY	Left	No	0.729120300002251	0	512626	252
1003.28515625	0.729120300002251	taste	choicePhaseStart	3	153	33	foodImage.114	FOODEEG_Images\0922.jpg	NY	Left	No	0.729120300002251	0	513683	253
1004.00390625	0	taste	response	3	153	33	foodImage.114	FOODEEG_Images\0922.jpg	NY	Left	No	0.729120300002251	0	514051	234
1005.048828125	1	decision	trialStart	3	154	34	foodImage.95	FOODEEG_Images\0903.jpg	YN	Right	No	1.1139148000002	0	514586	251
1006.09765625	2	decision	foodImageDisplay	3	154	34	foodImage.95	FOODEEG_Images\0903.jpg	YN	Right	No	1.1139148000002	0	515123	252
1008.1640625	1.1139148000002	decision	choicePhaseStart	3	154	34	foodImage.95	FOODEEG_Images\0903.jpg	YN	Right	No	1.1139148000002	0	516181	253
1009.267578125	0	decision	response	3	154	34	foodImage.95	FOODEEG_Images\0903.jpg	YN	Right	No	1.1139148000002	0	516746	235
1010.310546875	1	taste	trialStart	3	155	35	foodImage.106	FOODEEG_Images\0914.jpg	NY	Left	No	0.826861699999426	0	517280	251
1011.353515625	2	taste	foodImageDisplay	3	155	35	foodImage.106	FOODEEG_Images\0914.jpg	NY	Left	No	0.826861699999426	0	517814	252
1013.416015625	0.826861699999426	taste	choicePhaseStart	3	155	35	foodImage.106	FOODEEG_Images\0914.jpg	NY	Left	No	0.826861699999426	0	518870	253
1014.236328125	0	taste	response	3	155	35	foodImage.106	FOODEEG_Images\0914.jpg	NY	Left	No	0.826861699999426	0	519290	234
1015.28125	1	decision	trialStart	3	156	36	foodImage.75	FOODEEG_Images\0763.jpg	NY	Left	No	1.08260599999994	0	519825	251
1016.345703125	2	decision	foodImageDisplay	3	156	36	foodImage.75	FOODEEG_Images\0763.jpg	NY	Left	No	1.08260599999994	0	520370	252
1018.41015625	1.08260599999994	decision	choicePhaseStart	3	156	36	foodImage.75	FOODEEG_Images\0763.jpg	NY	Left	No	1.08260599999994	0	521427	253
1019.482421875	0	decision	response	3	156	36	foodImage.75	FOODEEG_Images\0763.jpg	NY	Left	No	1.08260599999994	0	521976	234
1020.5234375	1	decision	trialStart	3	157	37	foodImage.5	FOODEEG_Images\0107.jpg	YN	Left	Yes	0.832281699997111	0	522509	251
1021.58203125	2	decision	foodImageDisplay	3	157	37	foodImage.5	FOODEEG_Images\0107.jpg	YN	Left	Yes	0.832281699997111	0	523051	252
1023.650390625	0.832281699997111	decision	choicePhaseStart	3	157	37	foodImage.5	FOODEEG_Images\0107.jpg	YN	Left	Yes	0.832281699997111	0	524110	253
1024.474609375	0	decision	response	3	157	37	foodImage.5	FOODEEG_Images\0107.jpg	YN	Left	Yes	0.832281699997111	0	524532	234
1025.51953125	1	decision	trialStart	3	158	38	foodImage.91	FOODEEG_Images\0896.jpg	NY	Right	Yes	0.570199900001171	0	525067	251
1026.587890625	2	decision	foodImageDisplay	3	158	38	foodImage.91	FOODEEG_Images\0896.jpg	NY	Right	Yes	0.570199900001171	0	525614	252
1028.65625	0.570199900001171	decision	choicePhaseStart	3	158	38	foodImage.91	FOODEEG_Images\0896.jpg	NY	Right	Yes	0.570199900001171	0	526673	253
1029.21875	0	decision	response	3	158	38	foodImage.91	FOODEEG_Images\0896.jpg	NY	Right	Yes	0.570199900001171	0	526961	235
1030.263671875	1	decision	trialStart	3	159	39	foodImage.52	FOODEEG_Images\0539.jpg	NY	Right	Yes	1.33387080000102	0	527496	251
1031.32421875	2	decision	foodImageDisplay	3	159	39	foodImage.52	FOODEEG_Images\0539.jpg	NY	Right	Yes	1.33387080000102	0	528039	252
1033.388671875	1.33387080000102	decision	choicePhaseStart	3	159	39	foodImage.52	FOODEEG_Images\0539.jpg	NY	Right	Yes	1.33387080000102	0	529096	253
1034.71484375	0	decision	response	3	159	39	foodImage.52	FOODEEG_Images\0539.jpg	NY	Right	Yes	1.33387080000102	0	529775	235
1035.7578125	1	taste	trialStart	3	160	40	foodImage.46	FOODEEG_Images\0479.jpg	YN	Right	No	1.97862429999805	0	530309	251
1036.82421875	2	taste	foodImageDisplay	3	160	40	foodImage.46	FOODEEG_Images\0479.jpg	YN	Right	No	1.97862429999805	0	530855	252
1038.890625	1.97862429999805	taste	choicePhaseStart	3	160	40	foodImage.46	FOODEEG_Images\0479.jpg	YN	Right	No	1.97862429999805	0	531913	253
1040.859375	0	taste	response	3	160	40	foodImage.46	FOODEEG_Images\0479.jpg	YN	Right	No	1.97862429999805	0	532921	235
1041.90625	1	taste	trialStart	3	161	41	foodImage.23	FOODEEG_Images\0244.jpg	YN	Right	No	1.10407880000275	0	533457	251
1042.94921875	2	taste	foodImageDisplay	3	161	41	foodImage.23	FOODEEG_Images\0244.jpg	YN	Right	No	1.10407880000275	0	533991	252
1045.017578125	1.10407880000275	taste	choicePhaseStart	3	161	41	foodImage.23	FOODEEG_Images\0244.jpg	YN	Right	No	1.10407880000275	0	535050	253
1046.115234375	0	taste	response	3	161	41	foodImage.23	FOODEEG_Images\0244.jpg	YN	Right	No	1.10407880000275	0	535612	235
1047.158203125	1	health	trialStart	3	162	42	foodImage.109	FOODEEG_Images\0917.jpg	NY	Left	No	1.07433639999726	0	536146	251
1048.2109375	2	health	foodImageDisplay	3	162	42	foodImage.109	FOODEEG_Images\0917.jpg	NY	Left	No	1.07433639999726	0	536685	252
1050.2734375	1.07433639999726	health	choicePhaseStart	3	162	42	foodImage.109	FOODEEG_Images\0917.jpg	NY	Left	No	1.07433639999726	0	537741	253
1051.337890625	0	health	response	3	162	42	foodImage.109	FOODEEG_Images\0917.jpg	NY	Left	No	1.07433639999726	0	538286	234
1052.380859375	1	decision	trialStart	3	163	43	foodImage.59	FOODEEG_Images\0607.jpg	NY	Right	Yes	1.67486250000002	0	538820	251
1053.447265625	2	decision	foodImageDisplay	3	163	43	foodImage.59	FOODEEG_Images\0607.jpg	NY	Right	Yes	1.67486250000002	0	539366	252
1055.51171875	1.67486250000002	decision	choicePhaseStart	3	163	43	foodImage.59	FOODEEG_Images\0607.jpg	NY	Right	Yes	1.67486250000002	0	540423	253
1057.177734375	0	decision	response	3	163	43	foodImage.59	FOODEEG_Images\0607.jpg	NY	Right	Yes	1.67486250000002	0	541276	235
1058.22265625	1	decision	trialStart	3	164	44	foodImage.18	FOODEEG_Images\0202.jpg	YN	Left	Yes	0.605537399998866	0	541811	251
1059.279296875	2	decision	foodImageDisplay	3	164	44	foodImage.18	FOODEEG_Images\0202.jpg	YN	Left	Yes	0.605537399998866	0	542352	252
1061.341796875	0.605537399998866	decision	choicePhaseStart	3	164	44	foodImage.18	FOODEEG_Images\0202.jpg	YN	Left	Yes	0.605537399998866	0	543408	253
1061.9375	0	decision	response	3	164	44	foodImage.18	FOODEEG_Images\0202.jpg	YN	Left	Yes	0.605537399998866	0	543713	234
1062.986328125	1	taste	trialStart	3	165	45	foodImage.55	FOODEEG_Images\0567.jpg	YN	Left	Yes	0.952030299999024	0	544250	251
1064.060546875	2	taste	foodImageDisplay	3	165	45	foodImage.55	FOODEEG_Images\0567.jpg	YN	Left	Yes	0.952030299999024	0	544800	252
1066.12890625	0.952030299999024	taste	choicePhaseStart	3	165	45	foodImage.55	FOODEEG_Images\0567.jpg	YN	Left	Yes	0.952030299999024	0	545859	253
1067.07421875	0	taste	response	3	165	45	foodImage.55	FOODEEG_Images\0567.jpg	YN	Left	Yes	0.952030299999024	0	546343	234
1068.115234375	1	taste	trialStart	3	166	46	foodImage.65	FOODEEG_Images\0658.jpg	YN	Right	No	1.22069310000006	0	546876	251
1069.158203125	2	taste	foodImageDisplay	3	166	46	foodImage.65	FOODEEG_Images\0658.jpg	YN	Right	No	1.22069310000006	0	547410	252
1071.22265625	1.22069310000006	taste	choicePhaseStart	3	166	46	foodImage.65	FOODEEG_Images\0658.jpg	YN	Right	No	1.22069310000006	0	548467	253
1072.43359375	0	taste	response	3	166	46	foodImage.65	FOODEEG_Images\0658.jpg	YN	Right	No	1.22069310000006	0	549087	235
1073.4765625	1	decision	trialStart	3	167	47	foodImage.67	FOODEEG_Images\0679.jpg	NY	Right	Yes	0.777166199997737	0	549621	251
1074.53515625	2	decision	foodImageDisplay	3	167	47	foodImage.67	FOODEEG_Images\0679.jpg	NY	Right	Yes	0.777166199997737	0	550163	252
1076.59765625	0.777166199997737	decision	choicePhaseStart	3	167	47	foodImage.67	FOODEEG_Images\0679.jpg	NY	Right	Yes	0.777166199997737	0	551219	253
1077.369140625	0	decision	response	3	167	47	foodImage.67	FOODEEG_Images\0679.jpg	NY	Right	Yes	0.777166199997737	0	551614	235
1078.412109375	1	taste	trialStart	3	168	48	foodImage.30	FOODEEG_Images\0282.jpg	NY	Right	Yes	0.802455299999565	0	552148	251
1079.453125	2	taste	foodImageDisplay	3	168	48	foodImage.30	FOODEEG_Images\0282.jpg	NY	Right	Yes	0.802455299999565	0	552681	252
1081.51953125	0.802455299999565	taste	choicePhaseStart	3	168	48	foodImage.30	FOODEEG_Images\0282.jpg	NY	Right	Yes	0.802455299999565	0	553739	253
1082.3125	0	taste	response	3	168	48	foodImage.30	FOODEEG_Images\0282.jpg	NY	Right	Yes	0.802455299999565	0	554145	235
1083.35546875	1	taste	trialStart	3	169	49	foodImage.105	FOODEEG_Images\0913.jpg	NY	Right	Yes	0.759634499998356	0	554679	251
1084.39453125	2	taste	foodImageDisplay	3	169	49	foodImage.105	FOODEEG_Images\0913.jpg	NY	Right	Yes	0.759634499998356	0	555211	252
1086.45703125	0.759634499998356	taste	choicePhaseStart	3	169	49	foodImage.105	FOODEEG_Images\0913.jpg	NY	Right	Yes	0.759634499998356	0	556267	253
1087.208984375	0	taste	response	3	169	49	foodImage.105	FOODEEG_Images\0913.jpg	NY	Right	Yes	0.759634499998356	0	556652	235
1088.25390625	1	decision	trialStart	3	170	50	foodImage.70	FOODEEG_Images\0705.jpg	YN	Left	Yes	0.765725099998235	0	557187	251
1089.333984375	2	decision	foodImageDisplay	3	170	50	foodImage.70	FOODEEG_Images\0705.jpg	YN	Left	Yes	0.765725099998235	0	557740	252
1091.396484375	0.765725099998235	decision	choicePhaseStart	3	170	50	foodImage.70	FOODEEG_Images\0705.jpg	YN	Left	Yes	0.765725099998235	0	558796	253
1092.15234375	0	decision	response	3	170	50	foodImage.70	FOODEEG_Images\0705.jpg	YN	Left	Yes	0.765725099998235	0	559183	234
1093.1953125	1	taste	trialStart	3	171	51	foodImage.35	FOODEEG_Images\0350.jpg	YN	Right	No	0.694894000000204	0	559717	251
1094.25	2	taste	foodImageDisplay	3	171	51	foodImage.35	FOODEEG_Images\0350.jpg	YN	Right	No	0.694894000000204	0	560257	252
1096.314453125	0.694894000000204	taste	choicePhaseStart	3	171	51	foodImage.35	FOODEEG_Images\0350.jpg	YN	Right	No	0.694894000000204	0	561314	253
1097	0	taste	response	3	171	51	foodImage.35	FOODEEG_Images\0350.jpg	YN	Right	No	0.694894000000204	0	561665	235
1098.04296875	1	decision	trialStart	3	172	52	foodImage.31	FOODEEG_Images\0294.jpg	NY	Left	No	0.783502700000099	0	562199	251
1099.0859375	2	decision	foodImageDisplay	3	172	52	foodImage.31	FOODEEG_Images\0294.jpg	NY	Left	No	0.783502700000099	0	562733	252
1101.154296875	0.783502700000099	decision	choicePhaseStart	3	172	52	foodImage.31	FOODEEG_Images\0294.jpg	NY	Left	No	0.783502700000099	0	563792	253
1101.927734375	0	decision	response	3	172	52	foodImage.31	FOODEEG_Images\0294.jpg	NY	Left	No	0.783502700000099	0	564188	234
1102.97265625	1	taste	trialStart	3	173	53	foodImage.6	FOODEEG_Images\0113.jpg	YN	Left	Yes	0.699022100001457	0	564723	251
1104.013671875	2	taste	foodImageDisplay	3	173	53	foodImage.6	FOODEEG_Images\0113.jpg	YN	Left	Yes	0.699022100001457	0	565256	252
1106.078125	0.699022100001457	taste	choicePhaseStart	3	173	53	foodImage.6	FOODEEG_Images\0113.jpg	YN	Left	Yes	0.699022100001457	0	566313	253
1106.767578125	0	taste	response	3	173	53	foodImage.6	FOODEEG_Images\0113.jpg	YN	Left	Yes	0.699022100001457	0	566666	234
1107.81640625	1	health	trialStart	3	174	54	foodImage.72	FOODEEG_Images\0714.jpg	YN	Left	Yes	0.76655860000028	0	567203	251
1108.859375	2	health	foodImageDisplay	3	174	54	foodImage.72	FOODEEG_Images\0714.jpg	YN	Left	Yes	0.76655860000028	0	567737	252
1110.921875	0.76655860000028	health	choicePhaseStart	3	174	54	foodImage.72	FOODEEG_Images\0714.jpg	YN	Left	Yes	0.76655860000028	0	568793	253
1111.6796875	0	health	response	3	174	54	foodImage.72	FOODEEG_Images\0714.jpg	YN	Left	Yes	0.76655860000028	0	569181	234
1112.72265625	1	decision	trialStart	3	175	55	foodImage.3	FOODEEG_Images\0046.jpg	YN	Left	Yes	0.760598100001516	0	569715	251
1113.76953125	2	decision	foodImageDisplay	3	175	55	foodImage.3	FOODEEG_Images\0046.jpg	YN	Left	Yes	0.760598100001516	0	570251	252
1115.83203125	0.760598100001516	decision	choicePhaseStart	3	175	55	foodImage.3	FOODEEG_Images\0046.jpg	YN	Left	Yes	0.760598100001516	0	571307	253
1116.583984375	0	decision	response	3	175	55	foodImage.3	FOODEEG_Images\0046.jpg	YN	Left	Yes	0.760598100001516	0	571692	234
1117.626953125	1	health	trialStart	3	176	56	foodImage.49	FOODEEG_Images\0515.jpg	NY	Right	Yes	0.74480609999955	0	572226	251
1118.6875	2	health	foodImageDisplay	3	176	56	foodImage.49	FOODEEG_Images\0515.jpg	NY	Right	Yes	0.74480609999955	0	572769	252
1120.751953125	0.74480609999955	health	choicePhaseStart	3	176	56	foodImage.49	FOODEEG_Images\0515.jpg	NY	Right	Yes	0.74480609999955	0	573826	253
1121.48828125	0	health	response	3	176	56	foodImage.49	FOODEEG_Images\0515.jpg	NY	Right	Yes	0.74480609999955	0	574203	235
1122.529296875	1	health	trialStart	3	177	57	foodImage.17	FOODEEG_Images\0199.jpg	YN	Left	Yes	0.592858800002432	0	574736	251
1123.58984375	2	health	foodImageDisplay	3	177	57	foodImage.17	FOODEEG_Images\0199.jpg	YN	Left	Yes	0.592858800002432	0	575279	252
1125.65234375	0.592858800002432	health	choicePhaseStart	3	177	57	foodImage.17	FOODEEG_Images\0199.jpg	YN	Left	Yes	0.592858800002432	0	576335	253
1126.240234375	0	health	response	3	177	57	foodImage.17	FOODEEG_Images\0199.jpg	YN	Left	Yes	0.592858800002432	0	576636	234
1127.3046875	1	health	trialStart	3	178	58	foodImage.119	FOODEEG_Images\0927.jpg	YN	Right	No	0.55954550000024	0	577181	251
1128.3515625	2	health	foodImageDisplay	3	178	58	foodImage.119	FOODEEG_Images\0927.jpg	YN	Right	No	0.55954550000024	0	577717	252
1130.416015625	0.55954550000024	health	choicePhaseStart	3	178	58	foodImage.119	FOODEEG_Images\0927.jpg	YN	Right	No	0.55954550000024	0	578774	253
1130.966796875	0	health	response	3	178	58	foodImage.119	FOODEEG_Images\0927.jpg	YN	Right	No	0.55954550000024	0	579056	235
1132.009765625	1	taste	trialStart	3	179	59	foodImage.71	FOODEEG_Images\0713.jpg	NY	Right	Yes	1.05484689999867	0	579590	251
1133.05078125	2	taste	foodImageDisplay	3	179	59	foodImage.71	FOODEEG_Images\0713.jpg	NY	Right	Yes	1.05484689999867	0	580123	252
1135.11328125	1.05484689999867	taste	choicePhaseStart	3	179	59	foodImage.71	FOODEEG_Images\0713.jpg	NY	Right	Yes	1.05484689999867	0	581179	253
1136.16015625	0	taste	response	3	179	59	foodImage.71	FOODEEG_Images\0713.jpg	NY	Right	Yes	1.05484689999867	0	581715	235
1137.201171875	1	health	trialStart	3	180	60	foodImage.118	FOODEEG_Images\0926.jpg	YN	Left	Yes	0.89638670000204	0	582248	251
1138.240234375	2	health	foodImageDisplay	3	180	60	foodImage.118	FOODEEG_Images\0926.jpg	YN	Left	Yes	0.89638670000204	0	582780	252
1140.3046875	0.89638670000204	health	choicePhaseStart	3	180	60	foodImage.118	FOODEEG_Images\0926.jpg	YN	Left	Yes	0.89638670000204	0	583837	253
1141.19140625	0	health	response	3	180	60	foodImage.118	FOODEEG_Images\0926.jpg	YN	Left	Yes	0.89638670000204	0	584291	234
1143.232421875	7.5859375	n/a	blockEnd	n/a	n/a	n/a	n/a	n/a	n/a	n/a	n/a	n/a	n/a	585336	254
1150.818359375	2	n/a	blockStart	4	n/a	n/a	n/a	n/a	n/a	n/a	n/a	n/a	n/a	589220	250
1152.853515625	1	health	trialStart	4	181	1	foodImage.73	FOODEEG_Images\0717.jpg	YN	Right	No	0.808544799998344	0	590262	251
1153.912109375	2	health	foodImageDisplay	4	181	1	foodImage.73	FOODEEG_Images\0717.jpg	YN	Right	No	0.808544799998344	0	590804	252
1155.974609375	0.808544799998344	health	choicePhaseStart	4	181	1	foodImage.73	FOODEEG_Images\0717.jpg	YN	Right	No	0.808544799998344	0	591860	253
1156.7734375	0	health	response	4	181	1	foodImage.73	FOODEEG_Images\0717.jpg	YN	Right	No	0.808544799998344	0	592269	235
1157.81640625	1	taste	trialStart	4	182	2	foodImage.52	FOODEEG_Images\0539.jpg	NY	Right	Yes	0.716149700001552	0	592803	251
1158.875	2	taste	foodImageDisplay	4	182	2	foodImage.52	FOODEEG_Images\0539.jpg	NY	Right	Yes	0.716149700001552	0	593345	252
1160.939453125	0.716149700001552	taste	choicePhaseStart	4	182	2	foodImage.52	FOODEEG_Images\0539.jpg	NY	Right	Yes	0.716149700001552	0	594402	253
1161.646484375	0	taste	response	4	182	2	foodImage.52	FOODEEG_Images\0539.jpg	NY	Right	Yes	0.716149700001552	0	594764	235
1162.689453125	1	taste	trialStart	4	183	3	foodImage.54	FOODEEG_Images\0560.jpg	YN	Left	Yes	0.754891799999314	0	595298	251
1163.748046875	2	taste	foodImageDisplay	4	183	3	foodImage.54	FOODEEG_Images\0560.jpg	YN	Left	Yes	0.754891799999314	0	595840	252
1165.8125	0.754891799999314	taste	choicePhaseStart	4	183	3	foodImage.54	FOODEEG_Images\0560.jpg	YN	Left	Yes	0.754891799999314	0	596897	253
1166.556640625	0	taste	response	4	183	3	foodImage.54	FOODEEG_Images\0560.jpg	YN	Left	Yes	0.754891799999314	0	597278	234
1167.599609375	1	decision	trialStart	4	184	4	foodImage.6	FOODEEG_Images\0113.jpg	NY	Right	Yes	0.700879899999563	0	597812	251
1168.642578125	2	decision	foodImageDisplay	4	184	4	foodImage.6	FOODEEG_Images\0113.jpg	NY	Right	Yes	0.700879899999563	0	598346	252
1170.7109375	0.700879899999563	decision	choicePhaseStart	4	184	4	foodImage.6	FOODEEG_Images\0113.jpg	NY	Right	Yes	0.700879899999563	0	599405	253
1171.40625	0	decision	response	4	184	4	foodImage.6	FOODEEG_Images\0113.jpg	NY	Right	Yes	0.700879899999563	0	599761	235
1172.44921875	1	health	trialStart	4	185	5	foodImage.80	FOODEEG_Images\0796.jpg	NY	Right	Yes	0.834511700002622	0	600295	251
1173.5078125	2	health	foodImageDisplay	4	185	5	foodImage.80	FOODEEG_Images\0796.jpg	NY	Right	Yes	0.834511700002622	0	600837	252
1175.572265625	0.834511700002622	health	choicePhaseStart	4	185	5	foodImage.80	FOODEEG_Images\0796.jpg	NY	Right	Yes	0.834511700002622	0	601894	253
1176.396484375	0	health	response	4	185	5	foodImage.80	FOODEEG_Images\0796.jpg	NY	Right	Yes	0.834511700002622	0	602316	235
1177.443359375	1	decision	trialStart	4	186	6	foodImage.96	FOODEEG_Images\0904.jpg	YN	Right	No	0.981888300000719	0	602852	251
1178.498046875	2	decision	foodImageDisplay	4	186	6	foodImage.96	FOODEEG_Images\0904.jpg	YN	Right	No	0.981888300000719	0	603392	252
1180.560546875	0.981888300000719	decision	choicePhaseStart	4	186	6	foodImage.96	FOODEEG_Images\0904.jpg	YN	Right	No	0.981888300000719	0	604448	253
1181.533203125	0	decision	response	4	186	6	foodImage.96	FOODEEG_Images\0904.jpg	YN	Right	No	0.981888300000719	0	604946	235
1182.576171875	1	taste	trialStart	4	187	7	foodImage.83	FOODEEG_Images\0827.jpg	YN	Left	Yes	0.615802899999835	0	605480	251
1183.6328125	2	taste	foodImageDisplay	4	187	7	foodImage.83	FOODEEG_Images\0827.jpg	YN	Left	Yes	0.615802899999835	0	606021	252
1185.6953125	0.615802899999835	taste	choicePhaseStart	4	187	7	foodImage.83	FOODEEG_Images\0827.jpg	YN	Left	Yes	0.615802899999835	0	607077	253
1186.30078125	0	taste	response	4	187	7	foodImage.83	FOODEEG_Images\0827.jpg	YN	Left	Yes	0.615802899999835	0	607387	234
1187.3515625	1	health	trialStart	4	188	8	foodImage.108	FOODEEG_Images\0916.jpg	NY	Right	Yes	1.73071999999956	0	607925	251
1188.388671875	2	health	foodImageDisplay	4	188	8	foodImage.108	FOODEEG_Images\0916.jpg	NY	Right	Yes	1.73071999999956	0	608456	252
1190.451171875	1.73071999999956	health	choicePhaseStart	4	188	8	foodImage.108	FOODEEG_Images\0916.jpg	NY	Right	Yes	1.73071999999956	0	609512	253
1192.171875	0	health	response	4	188	8	foodImage.108	FOODEEG_Images\0916.jpg	NY	Right	Yes	1.73071999999956	0	610393	235
1193.216796875	1	decision	trialStart	4	189	9	foodImage.55	FOODEEG_Images\0567.jpg	NY	Right	Yes	0.938895500003127	0	610928	251
1194.283203125	2	decision	foodImageDisplay	4	189	9	foodImage.55	FOODEEG_Images\0567.jpg	NY	Right	Yes	0.938895500003127	0	611474	252
1196.34765625	0.938895500003127	decision	choicePhaseStart	4	189	9	foodImage.55	FOODEEG_Images\0567.jpg	NY	Right	Yes	0.938895500003127	0	612531	253
1197.27734375	0	decision	response	4	189	9	foodImage.55	FOODEEG_Images\0567.jpg	NY	Right	Yes	0.938895500003127	0	613007	235
1198.3203125	1	decision	trialStart	4	190	10	foodImage.120	FOODEEG_Images\0928.jpg	YN	Right	No	0.895719000000099	0	613541	251
1199.357421875	2	decision	foodImageDisplay	4	190	10	foodImage.120	FOODEEG_Images\0928.jpg	YN	Right	No	0.895719000000099	0	614072	252
1201.421875	0.895719000000099	decision	choicePhaseStart	4	190	10	foodImage.120	FOODEEG_Images\0928.jpg	YN	Right	No	0.895719000000099	0	615129	253
1202.30859375	0	decision	response	4	190	10	foodImage.120	FOODEEG_Images\0928.jpg	YN	Right	No	0.895719000000099	0	615583	235
1203.3515625	1	health	trialStart	4	191	11	foodImage.55	FOODEEG_Images\0567.jpg	YN	Left	Yes	0.631155700000818	0	616117	251
1204.416015625	2	health	foodImageDisplay	4	191	11	foodImage.55	FOODEEG_Images\0567.jpg	YN	Left	Yes	0.631155700000818	0	616662	252
1206.478515625	0.631155700000818	health	choicePhaseStart	4	191	11	foodImage.55	FOODEEG_Images\0567.jpg	YN	Left	Yes	0.631155700000818	0	617718	253
1207.099609375	0	health	response	4	191	11	foodImage.55	FOODEEG_Images\0567.jpg	YN	Left	Yes	0.631155700000818	0	618036	234
1208.142578125	1	taste	trialStart	4	192	12	foodImage.29	FOODEEG_Images\0278.jpg	NY	Left	No	0.902810700001282	0	618570	251
1209.197265625	2	taste	foodImageDisplay	4	192	12	foodImage.29	FOODEEG_Images\0278.jpg	NY	Left	No	0.902810700001282	0	619110	252
1211.26171875	0.902810700001282	taste	choicePhaseStart	4	192	12	foodImage.29	FOODEEG_Images\0278.jpg	NY	Left	No	0.902810700001282	0	620167	253
1212.15625	0	taste	response	4	192	12	foodImage.29	FOODEEG_Images\0278.jpg	NY	Left	No	0.902810700001282	0	620625	234
1213.19921875	1	taste	trialStart	4	193	13	foodImage.7	FOODEEG_Images\0116.jpg	NY	Right	Yes	0.677607199999329	0	621159	251
1214.240234375	2	taste	foodImageDisplay	4	193	13	foodImage.7	FOODEEG_Images\0116.jpg	NY	Right	Yes	0.677607199999329	0	621692	252
1216.302734375	0.677607199999329	taste	choicePhaseStart	4	193	13	foodImage.7	FOODEEG_Images\0116.jpg	NY	Right	Yes	0.677607199999329	0	622748	253
1216.97265625	0	taste	response	4	193	13	foodImage.7	FOODEEG_Images\0116.jpg	NY	Right	Yes	0.677607199999329	0	623091	235
1218.015625	1	taste	trialStart	4	194	14	foodImage.8	FOODEEG_Images\0136.jpg	YN	Right	No	0.679370900001231	0	623625	251
1219.078125	2	taste	foodImageDisplay	4	194	14	foodImage.8	FOODEEG_Images\0136.jpg	YN	Right	No	0.679370900001231	0	624169	252
1221.140625	0.679370900001231	taste	choicePhaseStart	4	194	14	foodImage.8	FOODEEG_Images\0136.jpg	YN	Right	No	0.679370900001231	0	625225	253
