onset	duration	trial_type	event_type	block	trial_total	trial_in_block	food_image_code	food_image_path	button_position	resp_position	resp_choice	choice_rt	resp_too_slow	sample	trigger
322.05078125	2	n/a	blockStart	1	n/a	n/a	n/a	n/a	n/a	n/a	n/a	n/a	n/a	164891	250
324.087890625	1	health	trialStart	1	1	1	foodImage.45	FOODEEG_Images\0478.jpg	YN	Left	Yes	0.974300100002438	0	165934	251
325.13671875	2	health	foodImageDisplay	1	1	1	foodImage.45	FOODEEG_Images\0478.jpg	YN	Left	Yes	0.974300100002438	0	166471	252
327.201171875	0.974300100002438	health	choicePhaseStart	1	1	1	foodImage.45	FOODEEG_Images\0478.jpg	YN	Left	Yes	0.974300100002438	0	167528	253
328.171875	0	health	response	1	1	1	foodImage.45	FOODEEG_Images\0478.jpg	YN	Left	Yes	0.974300100002438	0	168025	234
329.265625	1	taste	trialStart	1	2	2	foodImage.3	FOODEEG_Images\0046.jpg	NY	Right	Yes	1.80790070001967	0	168585	251
330.30859375	2	taste	foodImageDisplay	1	2	2	foodImage.3	FOODEEG_Images\0046.jpg	NY	Right	Yes	1.80790070001967	0	169119	252
332.3828125	1.80790070001967	taste	choicePhaseStart	1	2	2	foodImage.3	FOODEEG_Images\0046.jpg	NY	Right	Yes	1.80790070001967	0	170181	253
334.1875	0	taste	response	1	2	2	foodImage.3	FOODEEG_Images\0046.jpg	NY	Right	Yes	1.80790070001967	0	171105	235
335.23828125	1	decision	trialStart	1	3	3	foodImage.21	FOODEEG_Images\0234.jpg	NY	Right	Yes	1.39158759987913	0	171643	251
336.31640625	2	decision	foodImageDisplay	1	3	3	foodImage.21	FOODEEG_Images\0234.jpg	NY	Right	Yes	1.39158759987913	0	172195	252
338.380859375	1.39158759987913	decision	choicePhaseStart	1	3	3	foodImage.21	FOODEEG_Images\0234.jpg	NY	Right	Yes	1.39158759987913	0	173252	253
339.763671875	0	decision	response	1	3	3	foodImage.21	FOODEEG_Images\0234.jpg	NY	Right	Yes	1.39158759987913	0	173960	235
340.8046875	1	decision	trialStart	1	4	4	foodImage.104	FOODEEG_Images\0912.jpg	YN	Right	No	1.61551919998601	0	174493	251
341.841796875	2	decision	foodImageDisplay	1	4	4	foodImage.104	FOODEEG_Images\0912.jpg	YN	Right	No	1.61551919998601	0	175024	252
343.904296875	1.61551919998601	decision	choicePhaseStart	1	4	4	foodImage.104	FOODEEG_Images\0912.jpg	YN	Right	No	1.61551919998601	0	176080	253
345.515625	0	decision	response	1	4	4	foodImage.104	FOODEEG_Images\0912.jpg	YN	Right	No	1.61551919998601	0	176905	235
346.556640625	1	health	trialStart	1	5	5	foodImage.120	FOODEEG_Images\0928.jpg	YN	Left	Yes	1.67502349987626	0	177438	251
347.599609375	2	health	foodImageDisplay	1	5	5	foodImage.120	FOODEEG_Images\0928.jpg	YN	Left	Yes	1.67502349987626	0	177972	252
349.6640625	1.67502349987626	health	choicePhaseStart	1	5	5	foodImage.120	FOODEEG_Images\0928.jpg	YN	Left	Yes	1.67502349987626	0	179029	253
351.330078125	0	health	response	1	5	5	foodImage.120	FOODEEG_Images\0928.jpg	YN	Left	Yes	1.67502349987626	0	179882	234
352.3828125	1	decision	trialStart	1	6	6	foodImage.59	FOODEEG_Images\0607.jpg	NY	Right	Yes	1.57115950016305	0	180421	251
353.4296875	2	decision	foodImageDisplay	1	6	6	foodImage.59	FOODEEG_Images\0607.jpg	NY	Right	Yes	1.57115950016305	0	180957	252
355.49609375	1.57115950016305	decision	choicePhaseStart	1	6	6	foodImage.59	FOODEEG_Images\0607.jpg	NY	Right	Yes	1.57115950016305	0	182015	253
357.05859375	0	decision	response	1	6	6	foodImage.59	FOODEEG_Images\0607.jpg	NY	Right	Yes	1.57115950016305	0	182815	235
358.099609375	1	decision	trialStart	1	7	7	foodImage.84	FOODEEG_Images\0830.jpg	NY	Right	Yes	2.59626009990461	0	183348	251
359.154296875	2	decision	foodImageDisplay	1	7	7	foodImage.84	FOODEEG_Images\0830.jpg	NY	Right	Yes	2.59626009990461	0	183888	252
361.216796875	2.59626009990461	decision	choicePhaseStart	1	7	7	foodImage.84	FOODEEG_Images\0830.jpg	NY	Right	Yes	2.59626009990461	0	184944	253
363.802734375	0	decision	response	1	7	7	foodImage.84	FOODEEG_Images\0830.jpg	NY	Right	Yes	2.59626009990461	0	186268	235
364.853515625	1	decision	trialStart	1	8	8	foodImage.44	FOODEEG_Images\0459.jpg	NY	Right	Yes	2.12836549989879	0	186806	251
365.8984375	2	decision	foodImageDisplay	1	8	8	foodImage.44	FOODEEG_Images\0459.jpg	NY	Right	Yes	2.12836549989879	0	187341	252
367.9609375	2.12836549989879	decision	choicePhaseStart	1	8	8	foodImage.44	FOODEEG_Images\0459.jpg	NY	Right	Yes	2.12836549989879	0	188397	253
370.08203125	0	decision	response	1	8	8	foodImage.44	FOODEEG_Images\0459.jpg	NY	Right	Yes	2.12836549989879	0	189483	235
371.125	1	taste	trialStart	1	9	9	foodImage.6	FOODEEG_Images\0113.jpg	YN	Left	Yes	1.61579329986125	0	190017	251
372.166015625	2	taste	foodImageDisplay	1	9	9	foodImage.6	FOODEEG_Images\0113.jpg	YN	Left	Yes	1.61579329986125	0	190550	252
374.234375	1.61579329986125	taste	choicePhaseStart	1	9	9	foodImage.6	FOODEEG_Images\0113.jpg	YN	Left	Yes	1.61579329986125	0	191609	253
375.841796875	0	taste	response	1	9	9	foodImage.6	FOODEEG_Images\0113.jpg	YN	Left	Yes	1.61579329986125	0	192432	234
376.88671875	1	decision	trialStart	1	10	10	foodImage.79	FOODEEG_Images\0794.jpg	YN	Left	Yes	1.37287590000778	0	192967	251
377.93359375	2	decision	foodImageDisplay	1	10	10	foodImage.79	FOODEEG_Images\0794.jpg	YN	Left	Yes	1.37287590000778	0	193503	252
379.99609375	1.37287590000778	decision	choicePhaseStart	1	10	10	foodImage.79	FOODEEG_Images\0794.jpg	YN	Left	Yes	1.37287590000778	0	194559	253
381.361328125	0	decision	response	1	10	10	foodImage.79	FOODEEG_Images\0794.jpg	YN	Left	Yes	1.37287590000778	0	195258	234
382.40234375	1	decision	trialStart	1	11	11	foodImage.96	FOODEEG_Images\0904.jpg	YN	Right	No	0.738164500100538	0	195791	251
383.44140625	2	decision	foodImageDisplay	1	11	11	foodImage.96	FOODEEG_Images\0904.jpg	YN	Right	No	0.738164500100538	0	196323	252
385.50390625	0.738164500100538	decision	choicePhaseStart	1	11	11	foodImage.96	FOODEEG_Images\0904.jpg	YN	Right	No	0.738164500100538	0	197379	253
386.232421875	0	decision	response	1	11	11	foodImage.96	FOODEEG_Images\0904.jpg	YN	Right	No	0.738164500100538	0	197752	235
387.279296875	1	decision	trialStart	1	12	12	foodImage.108	FOODEEG_Images\0916.jpg	YN	Right	No	3.85274879983626	0	198288	251
388.318359375	2	decision	foodImageDisplay	1	12	12	foodImage.108	FOODEEG_Images\0916.jpg	YN	Right	No	3.85274879983626	0	198820	252
390.380859375	3.85274879983626	decision	choicePhaseStart	1	12	12	foodImage.108	FOODEEG_Images\0916.jpg	YN	Right	No	3.85274879983626	0	199876	253
394.224609375	0	decision	response	1	12	12	foodImage.108	FOODEEG_Images\0916.jpg	YN	Right	No	3.85274879983626	0	201844	235
395.267578125	1	decision	trialStart	1	13	13	foodImage.82	FOODEEG_Images\0805.jpg	NY	Right	Yes	1.29977090004832	0	202378	251
396.3203125	2	decision	foodImageDisplay	1	13	13	foodImage.82	FOODEEG_Images\0805.jpg	NY	Right	Yes	1.29977090004832	0	202917	252
398.3828125	1.29977090004832	decision	choicePhaseStart	1	13	13	foodImage.82	FOODEEG_Images\0805.jpg	NY	Right	Yes	1.29977090004832	0	203973	253
399.673828125	0	decision	response	1	13	13	foodImage.82	FOODEEG_Images\0805.jpg	NY	Right	Yes	1.29977090004832	0	204634	235
400.71875	1	decision	trialStart	1	14	14	foodImage.92	FOODEEG_Images\0900.jpg	YN	Right	No	2.02910499996506	0	205169	251
401.755859375	2	decision	foodImageDisplay	1	14	14	foodImage.92	FOODEEG_Images\0900.jpg	YN	Right	No	2.02910499996506	0	205700	252
403.8203125	2.02910499996506	decision	choicePhaseStart	1	14	14	foodImage.92	FOODEEG_Images\0900.jpg	YN	Right	No	2.02910499996506	0	206757	253
405.83984375	0	decision	response	1	14	14	foodImage.92	FOODEEG_Images\0900.jpg	YN	Right	No	2.02910499996506	0	207791	235
406.8828125	1	health	trialStart	1	15	15	foodImage.74	FOODEEG_Images\0752.jpg	YN	Left	Yes	1.24292029999197	0	208325	251
407.927734375	2	health	foodImageDisplay	1	15	15	foodImage.74	FOODEEG_Images\0752.jpg	YN	Left	Yes	1.24292029999197	0	208860	252
409.990234375	1.24292029999197	health	choicePhaseStart	1	15	15	foodImage.74	FOODEEG_Images\0752.jpg	YN	Left	Yes	1.24292029999197	0	209916	253
411.224609375	0	health	response	1	15	15	foodImage.74	FOODEEG_Images\0752.jpg	YN	Left	Yes	1.24292029999197	0	210548	234
412.267578125	1	decision	trialStart	1	16	16	foodImage.16	FOODEEG_Images\0196.jpg	NY	Right	Yes	1.19153980002739	0	211082	251
413.32421875	2	decision	foodImageDisplay	1	16	16	foodImage.16	FOODEEG_Images\0196.jpg	NY	Right	Yes	1.19153980002739	0	211623	252
415.38671875	1.19153980002739	decision	choicePhaseStart	1	16	16	foodImage.16	FOODEEG_Images\0196.jpg	NY	Right	Yes	1.19153980002739	0	212679	253
416.568359375	0	decision	response	1	16	16	foodImage.16	FOODEEG_Images\0196.jpg	NY	Right	Yes	1.19153980002739	0	213284	235
417.611328125	1	taste	trialStart	1	17	17	foodImage.106	FOODEEG_Images\0914.jpg	YN	Right	No	1.01667599985376	0	213818	251
418.6484375	2	taste	foodImageDisplay	1	17	17	foodImage.106	FOODEEG_Images\0914.jpg	YN	Right	No	1.01667599985376	0	214349	252
420.7109375	1.01667599985376	taste	choicePhaseStart	1	17	17	foodImage.106	FOODEEG_Images\0914.jpg	YN	Right	No	1.01667599985376	0	215405	253
421.71875	0	taste	response	1	17	17	foodImage.106	FOODEEG_Images\0914.jpg	YN	Right	No	1.01667599985376	0	215921	235
422.76171875	1	taste	trialStart	1	18	18	foodImage.72	FOODEEG_Images\0714.jpg	YN	Left	Yes	0.749730400042608	0	216455	251
423.8046875	2	taste	foodImageDisplay	1	18	18	foodImage.72	FOODEEG_Images\0714.jpg	YN	Left	Yes	0.749730400042608	0	216989	252
425.8671875	0.749730400042608	taste	choicePhaseStart	1	18	18	foodImage.72	FOODEEG_Images\0714.jpg	YN	Left	Yes	0.749730400042608	0	218045	253
426.607421875	0	taste	response	1	18	18	foodImage.72	FOODEEG_Images\0714.jpg	YN	Left	Yes	0.749730400042608	0	218424	234
427.6484375	1	decision	trialStart	1	19	19	foodImage.95	FOODEEG_Images\0903.jpg	YN	Left	Yes	3.59533139993437	0	218957	251
428.6875	2	decision	foodImageDisplay	1	19	19	foodImage.95	FOODEEG_Images\0903.jpg	YN	Left	Yes	3.59533139993437	0	219489	252
430.75	3.59533139993437	decision	choicePhaseStart	1	19	19	foodImage.95	FOODEEG_Images\0903.jpg	YN	Left	Yes	3.59533139993437	0	220545	253
434.3359375	0	decision	response	1	19	19	foodImage.95	FOODEEG_Images\0903.jpg	YN	Left	Yes	3.59533139993437	0	222381	234
435.376953125	1	taste	trialStart	1	20	20	foodImage.100	FOODEEG_Images\0908.jpg	NY	Right	Yes	1.51435210020281	0	222914	251
436.4140625	2	taste	foodImageDisplay	1	20	20	foodImage.100	FOODEEG_Images\0908.jpg	NY	Right	Yes	1.51435210020281	0	223445	252
438.4765625	1.51435210020281	taste	choicePhaseStart	1	20	20	foodImage.100	FOODEEG_Images\0908.jpg	NY	Right	Yes	1.51435210020281	0	224501	253
439.982421875	0	taste	response	1	20	20	foodImage.100	FOODEEG_Images\0908.jpg	NY	Right	Yes	1.51435210020281	0	225272	235
441.025390625	1	health	trialStart	1	21	21	foodImage.2	FOODEEG_Images\0028.jpg	YN	Right	No	1.37561700004153	0	225806	251
442.06640625	2	health	foodImageDisplay	1	21	21	foodImage.2	FOODEEG_Images\0028.jpg	YN	Right	No	1.37561700004153	0	226339	252
444.12890625	1.37561700004153	health	choicePhaseStart	1	21	21	foodImage.2	FOODEEG_Images\0028.jpg	YN	Right	No	1.37561700004153	0	227395	253
445.494140625	0	health	response	1	21	21	foodImage.2	FOODEEG_Images\0028.jpg	YN	Right	No	1.37561700004153	0	228094	235
446.53515625	1	taste	trialStart	1	22	22	foodImage.109	FOODEEG_Images\0917.jpg	NY	Right	Yes	1.36567789991386	0	228627	251
447.572265625	2	taste	foodImageDisplay	1	22	22	foodImage.109	FOODEEG_Images\0917.jpg	NY	Right	Yes	1.36567789991386	0	229158	252
449.634765625	1.36567789991386	taste	choicePhaseStart	1	22	22	foodImage.109	FOODEEG_Images\0917.jpg	NY	Right	Yes	1.36567789991386	0	230214	253
450.990234375	0	taste	response	1	22	22	foodImage.109	FOODEEG_Images\0917.jpg	NY	Right	Yes	1.36567789991386	0	230908	235
452.03515625	1	health	trialStart	1	23	23	foodImage.90	FOODEEG_Images\0890.jpg	NY	Right	Yes	1.2296001999639	0	231443	251
453.11328125	2	health	foodImageDisplay	1	23	23	foodImage.90	FOODEEG_Images\0890.jpg	NY	Right	Yes	1.2296001999639	0	231995	252
455.177734375	1.2296001999639	health	choicePhaseStart	1	23	23	foodImage.90	FOODEEG_Images\0890.jpg	NY	Right	Yes	1.2296001999639	0	233052	253
456.3984375	0	health	response	1	23	23	foodImage.90	FOODEEG_Images\0890.jpg	NY	Right	Yes	1.2296001999639	0	233677	235
457.439453125	1	health	trialStart	1	24	24	foodImage.18	FOODEEG_Images\0202.jpg	NY	Right	Yes	0.89005390019156	0	234210	251
458.49609375	2	health	foodImageDisplay	1	24	24	foodImage.18	FOODEEG_Images\0202.jpg	NY	Right	Yes	0.89005390019156	0	234751	252
460.556640625	0.89005390019156	health	choicePhaseStart	1	24	24	foodImage.18	FOODEEG_Images\0202.jpg	NY	Right	Yes	0.89005390019156	0	235806	253
461.4375	0	health	response	1	24	24	foodImage.18	FOODEEG_Images\0202.jpg	NY	Right	Yes	0.89005390019156	0	236257	235
462.478515625	1	health	trialStart	1	25	25	foodImage.100	FOODEEG_Images\0908.jpg	NY	Right	Yes	0.969576299889013	0	236790	251
463.51953125	2	health	foodImageDisplay	1	25	25	foodImage.100	FOODEEG_Images\0908.jpg	NY	Right	Yes	0.969576299889013	0	237323	252
465.58203125	0.969576299889013	health	choicePhaseStart	1	25	25	foodImage.100	FOODEEG_Images\0908.jpg	NY	Right	Yes	0.969576299889013	0	238379	253
466.54296875	0	health	response	1	25	25	foodImage.100	FOODEEG_Images\0908.jpg	NY	Right	Yes	0.969576299889013	0	238871	235
467.58203125	1	taste	trialStart	1	26	26	foodImage.24	FOODEEG_Images\0250.jpg	YN	Right	No	6.78987109987065	1	239403	251
468.626953125	2	taste	foodImageDisplay	1	26	26	foodImage.24	FOODEEG_Images\0250.jpg	YN	Right	No	6.78987109987065	1	239938	252
470.689453125	6.78987109987065	taste	choicePhaseStart	1	26	26	foodImage.24	FOODEEG_Images\0250.jpg	YN	Right	No	6.78987109987065	1	240994	253
477.46875	0	taste	response	1	26	26	foodImage.24	FOODEEG_Images\0250.jpg	YN	Right	No	6.78987109987065	1	244465	235
478.513671875	1	taste	trialStart	1	27	27	foodImage.41	FOODEEG_Images\0409.jpg	YN	Left	Yes	0.959846999961883	0	245000	251
479.55859375	2	taste	foodImageDisplay	1	27	27	foodImage.41	FOODEEG_Images\0409.jpg	YN	Left	Yes	0.959846999961883	0	245535	252
481.623046875	0.959846999961883	taste	choicePhaseStart	1	27	27	foodImage.41	FOODEEG_Images\0409.jpg	YN	Left	Yes	0.959846999961883	0	246592	253
482.57421875	0	taste	response	1	27	27	foodImage.41	FOODEEG_Images\0409.jpg	YN	Left	Yes	0.959846999961883	0	247079	234
483.619140625	1	health	trialStart	1	28	28	foodImage.73	FOODEEG_Images\0717.jpg	YN	Left	Yes	1.15190549986437	0	247614	251
484.689453125	2	health	foodImageDisplay	1	28	28	foodImage.73	FOODEEG_Images\0717.jpg	YN	Left	Yes	1.15190549986437	0	248162	252
486.751953125	1.15190549986437	health	choicePhaseStart	1	28	28	foodImage.73	FOODEEG_Images\0717.jpg	YN	Left	Yes	1.15190549986437	0	249218	253
487.89453125	0	health	response	1	28	28	foodImage.73	FOODEEG_Images\0717.jpg	YN	Left	Yes	1.15190549986437	0	249803	234
488.9375	1	decision	trialStart	1	29	29	foodImage.26	FOODEEG_Images\0262.jpg	YN	Left	Yes	1.43419639999047	0	250337	251
489.982421875	2	decision	foodImageDisplay	1	29	29	foodImage.26	FOODEEG_Images\0262.jpg	YN	Left	Yes	1.43419639999047	0	250872	252
492.044921875	1.43419639999047	decision	choicePhaseStart	1	29	29	foodImage.26	FOODEEG_Images\0262.jpg	YN	Left	Yes	1.43419639999047	0	251928	253
493.46875	0	decision	response	1	29	29	foodImage.26	FOODEEG_Images\0262.jpg	YN	Left	Yes	1.43419639999047	0	252657	234
494.51171875	1	decision	trialStart	1	30	30	foodImage.8	FOODEEG_Images\0136.jpg	YN	Left	Yes	4.43124280008487	0	253191	251
495.5546875	2	decision	foodImageDisplay	1	30	30	foodImage.8	FOODEEG_Images\0136.jpg	YN	Left	Yes	4.43124280008487	0	253725	252
497.62109375	4.43124280008487	decision	choicePhaseStart	1	30	30	foodImage.8	FOODEEG_Images\0136.jpg	YN	Left	Yes	4.43124280008487	0	254783	253
502.044921875	0	decision	response	1	30	30	foodImage.8	FOODEEG_Images\0136.jpg	YN	Left	Yes	4.43124280008487	0	257048	234
503.08984375	1	decision	trialStart	1	31	31	foodImage.18	FOODEEG_Images\0202.jpg	NY	Right	Yes	1.3963960998226	0	257583	251
504.14453125	2	decision	foodImageDisplay	1	31	31	foodImage.18	FOODEEG_Images\0202.jpg	NY	Right	Yes	1.3963960998226	0	258123	252
506.208984375	1.3963960998226	decision	choicePhaseStart	1	31	31	foodImage.18	FOODEEG_Images\0202.jpg	NY	Right	Yes	1.3963960998226	0	259180	253
507.595703125	0	decision	response	1	31	31	foodImage.18	FOODEEG_Images\0202.jpg	NY	Right	Yes	1.3963960998226	0	259890	235
508.638671875	1	decision	trialStart	1	32	32	foodImage.7	FOODEEG_Images\0116.jpg	NY	Right	Yes	1.03196760010906	0	260424	251
509.697265625	2	decision	foodImageDisplay	1	32	32	foodImage.7	FOODEEG_Images\0116.jpg	NY	Right	Yes	1.03196760010906	0	260966	252
511.7578125	1.03196760010906	decision	choicePhaseStart	1	32	32	foodImage.7	FOODEEG_Images\0116.jpg	NY	Right	Yes	1.03196760010906	0	262021	253
512.779296875	0	decision	response	1	32	32	foodImage.7	FOODEEG_Images\0116.jpg	NY	Right	Yes	1.03196760010906	0	262544	235
513.82421875	1	taste	trialStart	1	33	33	foodImage.84	FOODEEG_Images\0830.jpg	NY	Right	Yes	0.96594569995068	0	263079	251
514.880859375	2	taste	foodImageDisplay	1	33	33	foodImage.84	FOODEEG_Images\0830.jpg	NY	Right	Yes	0.96594569995068	0	263620	252
516.943359375	0.96594569995068	taste	choicePhaseStart	1	33	33	foodImage.84	FOODEEG_Images\0830.jpg	NY	Right	Yes	0.96594569995068	0	264676	253
517.900390625	0	taste	response	1	33	33	foodImage.84	FOODEEG_Images\0830.jpg	NY	Right	Yes	0.96594569995068	0	265166	235
518.94140625	1	decision	trialStart	1	34	34	foodImage.70	FOODEEG_Images\0705.jpg	YN	Left	Yes	1.10792060010135	0	265699	251
520.001953125	2	decision	foodImageDisplay	1	34	34	foodImage.70	FOODEEG_Images\0705.jpg	YN	Left	Yes	1.10792060010135	0	266242	252
522.06640625	1.10792060010135	decision	choicePhaseStart	1	34	34	foodImage.70	FOODEEG_Images\0705.jpg	YN	Left	Yes	1.10792060010135	0	267299	253
523.1640625	0	decision	response	1	34	34	foodImage.70	FOODEEG_Images\0705.jpg	YN	Left	Yes	1.10792060010135	0	267861	234
524.20703125	1	decision	trialStart	1	35	35	foodImage.65	FOODEEG_Images\0658.jpg	YN	Right	No	1.61442909995094	0	268395	251
525.263671875	2	decision	foodImageDisplay	1	35	35	foodImage.65	FOODEEG_Images\0658.jpg	YN	Right	No	1.61442909995094	0	268936	252
527.328125	1.61442909995094	decision	choicePhaseStart	1	35	35	foodImage.65	FOODEEG_Images\0658.jpg	YN	Right	No	1.61442909995094	0	269993	253
528.931640625	0	decision	response	1	35	35	foodImage.65	FOODEEG_Images\0658.jpg	YN	Right	No	1.61442909995094	0	270814	235
529.974609375	1	health	trialStart	1	36	36	foodImage.27	FOODEEG_Images\0263.jpg	NY	Right	Yes	1.02926550013945	0	271348	251
531.017578125	2	health	foodImageDisplay	1	36	36	foodImage.27	FOODEEG_Images\0263.jpg	NY	Right	Yes	1.02926550013945	0	271882	252
533.080078125	1.02926550013945	health	choicePhaseStart	1	36	36	foodImage.27	FOODEEG_Images\0263.jpg	NY	Right	Yes	1.02926550013945	0	272938	253
534.099609375	0	health	response	1	36	36	foodImage.27	FOODEEG_Images\0263.jpg	NY	Right	Yes	1.02926550013945	0	273460	235
535.142578125	1	decision	trialStart	1	37	37	foodImage.48	FOODEEG_Images\0494.jpg	YN	Left	Yes	1.48808929999359	0	273994	251
536.197265625	2	decision	foodImageDisplay	1	37	37	foodImage.48	FOODEEG_Images\0494.jpg	YN	Left	Yes	1.48808929999359	0	274534	252
538.259765625	1.48808929999359	decision	choicePhaseStart	1	37	37	foodImage.48	FOODEEG_Images\0494.jpg	YN	Left	Yes	1.48808929999359	0	275590	253
539.73828125	0	decision	response	1	37	37	foodImage.48	FOODEEG_Images\0494.jpg	YN	Left	Yes	1.48808929999359	0	276347	234
540.783203125	1	health	trialStart	1	38	38	foodImage.7	FOODEEG_Images\0116.jpg	NY	Right	Yes	0.88668780005537	0	276882	251
541.82421875	2	health	foodImageDisplay	1	38	38	foodImage.7	FOODEEG_Images\0116.jpg	NY	Right	Yes	0.88668780005537	0	277415	252
543.884765625	0.88668780005537	health	choicePhaseStart	1	38	38	foodImage.7	FOODEEG_Images\0116.jpg	NY	Right	Yes	0.88668780005537	0	278470	253
544.763671875	0	health	response	1	38	38	foodImage.7	FOODEEG_Images\0116.jpg	NY	Right	Yes	0.88668780005537	0	278920	235
545.806640625	1	decision	trialStart	1	39	39	foodImage.88	FOODEEG_Images\0878.jpg	YN	Left	Yes	1.76552579994313	0	279454	251
546.86328125	2	decision	foodImageDisplay	1	39	39	foodImage.88	FOODEEG_Images\0878.jpg	YN	Left	Yes	1.76552579994313	0	279995	252
548.92578125	1.76552579994313	decision	choicePhaseStart	1	39	39	foodImage.88	FOODEEG_Images\0878.jpg	YN	Left	Yes	1.76552579994313	0	281051	253
550.68359375	0	decision	response	1	39	39	foodImage.88	FOODEEG_Images\0878.jpg	YN	Left	Yes	1.76552579994313	0	281951	234
551.724609375	1	health	trialStart	1	40	40	foodImage.36	FOODEEG_Images\0352.jpg	YN	Right	No	1.17402729997411	0	282484	251
552.79296875	2	health	foodImageDisplay	1	40	40	foodImage.36	FOODEEG_Images\0352.jpg	YN	Right	No	1.17402729997411	0	283031	252
554.85546875	1.17402729997411	health	choicePhaseStart	1	40	40	foodImage.36	FOODEEG_Images\0352.jpg	YN	Right	No	1.17402729997411	0	284087	253
556.01953125	0	health	response	1	40	40	foodImage.36	FOODEEG_Images\0352.jpg	YN	Right	No	1.17402729997411	0	284683	235
557.060546875	1	health	trialStart	1	41	41	foodImage.114	FOODEEG_Images\0922.jpg	YN	Right	No	1.60306069999933	0	285216	251
558.099609375	2	health	foodImageDisplay	1	41	41	foodImage.114	FOODEEG_Images\0922.jpg	YN	Right	No	1.60306069999933	0	285748	252
560.162109375	1.60306069999933	health	choicePhaseStart	1	41	41	foodImage.114	FOODEEG_Images\0922.jpg	YN	Right	No	1.60306069999933	0	286804	253
561.75390625	0	health	response	1	41	41	foodImage.114	FOODEEG_Images\0922.jpg	YN	Right	No	1.60306069999933	0	287619	235
562.796875	1	decision	trialStart	1	42	42	foodImage.42	FOODEEG_Images\0438.jpg	NY	Right	Yes	1.83194519998506	0	288153	251
563.884765625	2	decision	foodImageDisplay	1	42	42	foodImage.42	FOODEEG_Images\0438.jpg	NY	Right	Yes	1.83194519998506	0	288710	252
565.947265625	1.83194519998506	decision	choicePhaseStart	1	42	42	foodImage.42	FOODEEG_Images\0438.jpg	NY	Right	Yes	1.83194519998506	0	289766	253
567.76953125	0	decision	response	1	42	42	foodImage.42	FOODEEG_Images\0438.jpg	NY	Right	Yes	1.83194519998506	0	290699	235
568.8125	1	taste	trialStart	1	43	43	foodImage.29	FOODEEG_Images\0278.jpg	NY	Left	No	1.53653320018202	0	291233	251
569.869140625	2	taste	foodImageDisplay	1	43	43	foodImage.29	FOODEEG_Images\0278.jpg	NY	Left	No	1.53653320018202	0	291774	252
571.9296875	1.53653320018202	taste	choicePhaseStart	1	43	43	foodImage.29	FOODEEG_Images\0278.jpg	NY	Left	No	1.53653320018202	0	292829	253
573.45703125	0	taste	response	1	43	43	foodImage.29	FOODEEG_Images\0278.jpg	NY	Left	No	1.53653320018202	0	293611	234
574.498046875	1	taste	trialStart	1	44	44	foodImage.30	FOODEEG_Images\0282.jpg	YN	Left	Yes	1.09795620013028	0	294144	251
575.5390625	2	taste	foodImageDisplay	1	44	44	foodImage.30	FOODEEG_Images\0282.jpg	YN	Left	Yes	1.09795620013028	0	294677	252
577.6015625	1.09795620013028	taste	choicePhaseStart	1	44	44	foodImage.30	FOODEEG_Images\0282.jpg	YN	Left	Yes	1.09795620013028	0	295733	253
578.689453125	0	taste	response	1	44	44	foodImage.30	FOODEEG_Images\0282.jpg	YN	Left	Yes	1.09795620013028	0	296290	234
579.732421875	1	taste	trialStart	1	45	45	foodImage.56	FOODEEG_Images\0586.jpg	NY	Right	Yes	1.51545790000819	0	296824	251
580.775390625	2	taste	foodImageDisplay	1	45	45	foodImage.56	FOODEEG_Images\0586.jpg	NY	Right	Yes	1.51545790000819	0	297358	252
582.83984375	1.51545790000819	taste	choicePhaseStart	1	45	45	foodImage.56	FOODEEG_Images\0586.jpg	NY	Right	Yes	1.51545790000819	0	298415	253
584.345703125	0	taste	response	1	45	45	foodImage.56	FOODEEG_Images\0586.jpg	NY	Right	Yes	1.51545790000819	0	299186	235
585.392578125	1	health	trialStart	1	46	46	foodImage.26	FOODEEG_Images\0262.jpg	YN	Left	Yes	1.15847559995018	0	299722	251
586.43359375	2	health	foodImageDisplay	1	46	46	foodImage.26	FOODEEG_Images\0262.jpg	YN	Left	Yes	1.15847559995018	0	300255	252
588.5	1.15847559995018	health	choicePhaseStart	1	46	46	foodImage.26	FOODEEG_Images\0262.jpg	YN	Left	Yes	1.15847559995018	0	301313	253
589.6484375	0	health	response	1	46	46	foodImage.26	FOODEEG_Images\0262.jpg	YN	Left	Yes	1.15847559995018	0	301901	234
590.6953125	1	health	trialStart	1	47	47	foodImage.92	FOODEEG_Images\0900.jpg	YN	Right	No	1.12406529998407	0	302437	251
591.736328125	2	health	foodImageDisplay	1	47	47	foodImage.92	FOODEEG_Images\0900.jpg	YN	Right	No	1.12406529998407	0	302970	252
593.798828125	1.12406529998407	health	choicePhaseStart	1	47	47	foodImage.92	FOODEEG_Images\0900.jpg	YN	Right	No	1.12406529998407	0	304026	253
594.9140625	0	health	response	1	47	47	foodImage.92	FOODEEG_Images\0900.jpg	YN	Right	No	1.12406529998407	0	304597	235
595.955078125	1	taste	trialStart	1	48	48	foodImage.38	FOODEEG_Images\0365.jpg	NY	Right	Yes	0.843911200063303	0	305130	251
596.9921875	2	taste	foodImageDisplay	1	48	48	foodImage.38	FOODEEG_Images\0365.jpg	NY	Right	Yes	0.843911200063303	0	305661	252
599.0546875	0.843911200063303	taste	choicePhaseStart	1	48	48	foodImage.38	FOODEEG_Images\0365.jpg	NY	Right	Yes	0.843911200063303	0	306717	253
599.888671875	0	taste	response	1	48	48	foodImage.38	FOODEEG_Images\0365.jpg	NY	Right	Yes	0.843911200063303	0	307144	235
600.931640625	1	taste	trialStart	1	49	49	foodImage.82	FOODEEG_Images\0805.jpg	NY	Right	Yes	2.68019430013373	0	307678	251
601.98828125	2	taste	foodImageDisplay	1	49	49	foodImage.82	FOODEEG_Images\0805.jpg	NY	Right	Yes	2.68019430013373	0	308219	252
604.05078125	2.68019430013373	taste	choicePhaseStart	1	49	49	foodImage.82	FOODEEG_Images\0805.jpg	NY	Right	Yes	2.68019430013373	0	309275	253
606.720703125	0	taste	response	1	49	49	foodImage.82	FOODEEG_Images\0805.jpg	NY	Right	Yes	2.68019430013373	0	310642	235
607.763671875	1	decision	trialStart	1	50	50	foodImage.34	FOODEEG_Images\0339.jpg	YN	Left	Yes	1.16655869991519	0	311176	251
608.8203125	2	decision	foodImageDisplay	1	50	50	foodImage.34	FOODEEG_Images\0339.jpg	YN	Left	Yes	1.16655869991519	0	311717	252
610.8828125	1.16655869991519	decision	choicePhaseStart	1	50	50	foodImage.34	FOODEEG_Images\0339.jpg	YN	Left	Yes	1.16655869991519	0	312773	253
612.041015625	0	decision	response	1	50	50	foodImage.34	FOODEEG_Images\0339.jpg	YN	Left	Yes	1.16655869991519	0	313366	234
613.083984375	1	taste	trialStart	1	51	51	foodImage.11	FOODEEG_Images\0180.jpg	YN	Left	Yes	0.679309699917212	0	313900	251
614.125	2	taste	foodImageDisplay	1	51	51	foodImage.11	FOODEEG_Images\0180.jpg	YN	Left	Yes	0.679309699917212	0	314433	252
616.1875	0.679309699917212	taste	choicePhaseStart	1	51	51	foodImage.11	FOODEEG_Images\0180.jpg	YN	Left	Yes	0.679309699917212	0	315489	253
616.85546875	0	taste	response	1	51	51	foodImage.11	FOODEEG_Images\0180.jpg	YN	Left	Yes	0.679309699917212	0	315831	234
617.8984375	1	taste	trialStart	1	52	52	foodImage.102	FOODEEG_Images\0910.jpg	YN	Right	No	2.34658210002817	0	316365	251
618.9375	2	taste	foodImageDisplay	1	52	52	foodImage.102	FOODEEG_Images\0910.jpg	YN	Right	No	2.34658210002817	0	316897	252
621	2.34658210002817	taste	choicePhaseStart	1	52	52	foodImage.102	FOODEEG_Images\0910.jpg	YN	Right	No	2.34658210002817	0	317953	253
623.3359375	0	taste	response	1	52	52	foodImage.102	FOODEEG_Images\0910.jpg	YN	Right	No	2.34658210002817	0	319149	235
624.376953125	1	decision	trialStart	1	53	53	foodImage.53	FOODEEG_Images\0547.jpg	YN	Left	Yes	1.29681259999052	0	319682	251
625.43359375	2	decision	foodImageDisplay	1	53	53	foodImage.53	FOODEEG_Images\0547.jpg	YN	Left	Yes	1.29681259999052	0	320223	252
627.49609375	1.29681259999052	decision	choicePhaseStart	1	53	53	foodImage.53	FOODEEG_Images\0547.jpg	YN	Left	Yes	1.29681259999052	0	321279	253
628.783203125	0	decision	response	1	53	53	foodImage.53	FOODEEG_Images\0547.jpg	YN	Left	Yes	1.29681259999052	0	321938	234
629.830078125	1	health	trialStart	1	54	54	foodImage.48	FOODEEG_Images\0494.jpg	YN	Left	Yes	1.13405949994922	0	322474	251
630.884765625	2	health	foodImageDisplay	1	54	54	foodImage.48	FOODEEG_Images\0494.jpg	YN	Left	Yes	1.13405949994922	0	323014	252
632.947265625	1.13405949994922	health	choicePhaseStart	1	54	54	foodImage.48	FOODEEG_Images\0494.jpg	YN	Left	Yes	1.13405949994922	0	324070	253
634.072265625	0	health	response	1	54	54	foodImage.48	FOODEEG_Images\0494.jpg	YN	Left	Yes	1.13405949994922	0	324646	234
635.115234375	1	health	trialStart	1	55	55	foodImage.10	FOODEEG_Images\0145.jpg	NY	Left	No	1.50657230010256	0	325180	251
636.193359375	2	health	foodImageDisplay	1	55	55	foodImage.10	FOODEEG_Images\0145.jpg	NY	Left	No	1.50657230010256	0	325732	252
638.25390625	1.50657230010256	health	choicePhaseStart	1	55	55	foodImage.10	FOODEEG_Images\0145.jpg	NY	Left	No	1.50657230010256	0	326787	253
639.751953125	0	health	response	1	55	55	foodImage.10	FOODEEG_Images\0145.jpg	NY	Left	No	1.50657230010256	0	327554	234
640.794921875	1	health	trialStart	1	56	56	foodImage.109	FOODEEG_Images\0917.jpg	YN	Right	No	1.07895640004426	0	328088	251
641.833984375	2	health	foodImageDisplay	1	56	56	foodImage.109	FOODEEG_Images\0917.jpg	YN	Right	No	1.07895640004426	0	328620	252
643.896484375	1.07895640004426	health	choicePhaseStart	1	56	56	foodImage.109	FOODEEG_Images\0917.jpg	YN	Right	No	1.07895640004426	0	329676	253
644.966796875	0	health	response	1	56	56	foodImage.109	FOODEEG_Images\0917.jpg	YN	Right	No	1.07895640004426	0	330224	235
646.009765625	1	taste	trialStart	1	57	57	foodImage.32	FOODEEG_Images\0319.jpg	YN	Left	Yes	1.21170770004392	0	330758	251
647.0546875	2	taste	foodImageDisplay	1	57	57	foodImage.32	FOODEEG_Images\0319.jpg	YN	Left	Yes	1.21170770004392	0	331293	252
649.1171875	1.21170770004392	taste	choicePhaseStart	1	57	57	foodImage.32	FOODEEG_Images\0319.jpg	YN	Left	Yes	1.21170770004392	0	332349	253
650.318359375	0	taste	response	1	57	57	foodImage.32	FOODEEG_Images\0319.jpg	YN	Left	Yes	1.21170770004392	0	332964	234
651.357421875	1	decision	trialStart	1	58	58	foodImage.11	FOODEEG_Images\0180.jpg	YN	Left	Yes	1.06834770017304	0	333496	251
652.40625	2	decision	foodImageDisplay	1	58	58	foodImage.11	FOODEEG_Images\0180.jpg	YN	Left	Yes	1.06834770017304	0	334033	252
654.46875	1.06834770017304	decision	choicePhaseStart	1	58	58	foodImage.11	FOODEEG_Images\0180.jpg	YN	Left	Yes	1.06834770017304	0	335089	253
655.52734375	0	decision	response	1	58	58	foodImage.11	FOODEEG_Images\0180.jpg	YN	Left	Yes	1.06834770017304	0	335631	234
656.568359375	1	decision	trialStart	1	59	59	foodImage.38	FOODEEG_Images\0365.jpg	YN	Left	Yes	1.07325739995576	0	336164	251
657.607421875	2	decision	foodImageDisplay	1	59	59	foodImage.38	FOODEEG_Images\0365.jpg	YN	Left	Yes	1.07325739995576	0	336696	252
659.669921875	1.07325739995576	decision	choicePhaseStart	1	59	59	foodImage.38	FOODEEG_Images\0365.jpg	YN	Left	Yes	1.07325739995576	0	337752	253
660.734375	0	decision	response	1	59	59	foodImage.38	FOODEEG_Images\0365.jpg	YN	Left	Yes	1.07325739995576	0	338297	234
661.77734375	1	taste	trialStart	1	60	60	foodImage.18	FOODEEG_Images\0202.jpg	NY	Left	No	1.78842939995229	0	338831	251
662.833984375	2	taste	foodImageDisplay	1	60	60	foodImage.18	FOODEEG_Images\0202.jpg	NY	Left	No	1.78842939995229	0	339372	252
664.896484375	1.78842939995229	taste	choicePhaseStart	1	60	60	foodImage.18	FOODEEG_Images\0202.jpg	NY	Left	No	1.78842939995229	0	340428	253
666.677734375	0	taste	response	1	60	60	foodImage.18	FOODEEG_Images\0202.jpg	NY	Left	No	1.78842939995229	0	341340	234
668.7265625	12.537109375	n/a	blockEnd	n/a	n/a	n/a	n/a	n/a	n/a	n/a	n/a	n/a	n/a	342389	254
681.263671875	2	n/a	blockStart	2	n/a	n/a	n/a	n/a	n/a	n/a	n/a	n/a	n/a	348808	250
683.296875	1	health	trialStart	2	61	1	foodImage.84	FOODEEG_Images\0830.jpg	NY	Right	Yes	1.49610850005411	0	349849	251
684.357421875	2	health	foodImageDisplay	2	61	1	foodImage.84	FOODEEG_Images\0830.jpg	NY	Right	Yes	1.49610850005411	0	350392	252
686.421875	1.49610850005411	health	choicePhaseStart	2	61	1	foodImage.84	FOODEEG_Images\0830.jpg	NY	Right	Yes	1.49610850005411	0	351449	253
687.91015625	0	health	response	2	61	1	foodImage.84	FOODEEG_Images\0830.jpg	NY	Right	Yes	1.49610850005411	0	352211	235
688.951171875	1	taste	trialStart	2	62	2	foodImage.52	FOODEEG_Images\0539.jpg	NY	Right	Yes	1.77502060006373	0	352744	251
690.005859375	2	taste	foodImageDisplay	2	62	2	foodImage.52	FOODEEG_Images\0539.jpg	NY	Right	Yes	1.77502060006373	0	353284	252
692.072265625	1.77502060006373	taste	choicePhaseStart	2	62	2	foodImage.52	FOODEEG_Images\0539.jpg	NY	Right	Yes	1.77502060006373	0	354342	253
693.837890625	0	taste	response	2	62	2	foodImage.52	FOODEEG_Images\0539.jpg	NY	Right	Yes	1.77502060006373	0	355246	235
694.880859375	1	health	trialStart	2	63	3	foodImage.44	FOODEEG_Images\0459.jpg	NY	Right	Yes	0.884647199884057	0	355780	251
695.923828125	2	health	foodImageDisplay	2	63	3	foodImage.44	FOODEEG_Images\0459.jpg	NY	Right	Yes	0.884647199884057	0	356314	252
697.986328125	0.884647199884057	health	choicePhaseStart	2	63	3	foodImage.44	FOODEEG_Images\0459.jpg	NY	Right	Yes	0.884647199884057	0	357370	253
698.861328125	0	health	response	2	63	3	foodImage.44	FOODEEG_Images\0459.jpg	NY	Right	Yes	0.884647199884057	0	357818	235
699.904296875	1	health	trialStart	2	64	4	foodImage.1	FOODEEG_Images\0004.jpg	YN	Right	No	1.86952720000409	0	358352	251
700.9453125	2	health	foodImageDisplay	2	64	4	foodImage.1	FOODEEG_Images\0004.jpg	YN	Right	No	1.86952720000409	0	358885	252
703.0078125	1.86952720000409	health	choicePhaseStart	2	64	4	foodImage.1	FOODEEG_Images\0004.jpg	YN	Right	No	1.86952720000409	0	359941	253
704.869140625	0	health	response	2	64	4	foodImage.1	FOODEEG_Images\0004.jpg	YN	Right	No	1.86952720000409	0	360894	235
705.912109375	1	decision	trialStart	2	65	5	foodImage.14	FOODEEG_Images\0188.jpg	YN	Left	Yes	1.04980010003783	0	361428	251
706.98046875	2	decision	foodImageDisplay	2	65	5	foodImage.14	FOODEEG_Images\0188.jpg	YN	Left	Yes	1.04980010003783	0	361975	252
709.044921875	1.04980010003783	decision	choicePhaseStart	2	65	5	foodImage.14	FOODEEG_Images\0188.jpg	YN	Left	Yes	1.04980010003783	0	363032	253
710.083984375	0	decision	response	2	65	5	foodImage.14	FOODEEG_Images\0188.jpg	YN	Left	Yes	1.04980010003783	0	363564	234
711.12890625	1	health	trialStart	2	66	6	foodImage.79	FOODEEG_Images\0794.jpg	NY	Right	Yes	1.54444169998169	0	364099	251
712.17578125	2	health	foodImageDisplay	2	66	6	foodImage.79	FOODEEG_Images\0794.jpg	NY	Right	Yes	1.54444169998169	0	364635	252
714.23828125	1.54444169998169	health	choicePhaseStart	2	66	6	foodImage.79	FOODEEG_Images\0794.jpg	NY	Right	Yes	1.54444169998169	0	365691	253
715.771484375	0	health	response	2	66	6	foodImage.79	FOODEEG_Images\0794.jpg	NY	Right	Yes	1.54444169998169	0	366476	235
716.814453125	1	taste	trialStart	2	67	7	foodImage.40	FOODEEG_Images\0373.jpg	NY	Right	Yes	0.987375399796292	0	367010	251
717.859375	2	taste	foodImageDisplay	2	67	7	foodImage.40	FOODEEG_Images\0373.jpg	NY	Right	Yes	0.987375399796292	0	367545	252
719.921875	0.987375399796292	taste	choicePhaseStart	2	67	7	foodImage.40	FOODEEG_Images\0373.jpg	NY	Right	Yes	0.987375399796292	0	368601	253
720.900390625	0	taste	response	2	67	7	foodImage.40	FOODEEG_Images\0373.jpg	NY	Right	Yes	0.987375399796292	0	369102	235
721.943359375	1	taste	trialStart	2	68	8	foodImage.70	FOODEEG_Images\0705.jpg	YN	Left	Yes	1.32767219981179	0	369636	251
723	2	taste	foodImageDisplay	2	68	8	foodImage.70	FOODEEG_Images\0705.jpg	YN	Left	Yes	1.32767219981179	0	370177	252
725.0625	1.32767219981179	taste	choicePhaseStart	2	68	8	foodImage.70	FOODEEG_Images\0705.jpg	YN	Left	Yes	1.32767219981179	0	371233	253
726.380859375	0	taste	response	2	68	8	foodImage.70	FOODEEG_Images\0705.jpg	YN	Left	Yes	1.32767219981179	0	371908	234
727.423828125	1	taste	trialStart	2	69	9	foodImage.105	FOODEEG_Images\0913.jpg	NY	Left	No	2.38055239990354	0	372442	251
728.466796875	2	taste	foodImageDisplay	2	69	9	foodImage.105	FOODEEG_Images\0913.jpg	NY	Left	No	2.38055239990354	0	372976	252
730.52734375	2.38055239990354	taste	choicePhaseStart	2	69	9	foodImage.105	FOODEEG_Images\0913.jpg	NY	Left	No	2.38055239990354	0	374031	253
732.8984375	0	taste	response	2	69	9	foodImage.105	FOODEEG_Images\0913.jpg	NY	Left	No	2.38055239990354	0	375245	234
733.939453125	1	taste	trialStart	2	70	10	foodImage.71	FOODEEG_Images\0713.jpg	NY	Right	Yes	0.833233099896461	0	375778	251
734.98046875	2	taste	foodImageDisplay	2	70	10	foodImage.71	FOODEEG_Images\0713.jpg	NY	Right	Yes	0.833233099896461	0	376311	252
737.04296875	0.833233099896461	taste	choicePhaseStart	2	70	10	foodImage.71	FOODEEG_Images\0713.jpg	NY	Right	Yes	0.833233099896461	0	377367	253
737.8671875	0	taste	response	2	70	10	foodImage.71	FOODEEG_Images\0713.jpg	NY	Right	Yes	0.833233099896461	0	377789	235
738.912109375	1	health	trialStart	2	71	11	foodImage.85	FOODEEG_Images\0841.jpg	NY	Left	No	1.2612779000774	0	378324	251
739.966796875	2	health	foodImageDisplay	2	71	11	foodImage.85	FOODEEG_Images\0841.jpg	NY	Left	No	1.2612779000774	0	378864	252
742.03125	1.2612779000774	health	choicePhaseStart	2	71	11	foodImage.85	FOODEEG_Images\0841.jpg	NY	Left	No	1.2612779000774	0	379921	253
743.283203125	0	health	response	2	71	11	foodImage.85	FOODEEG_Images\0841.jpg	NY	Left	No	1.2612779000774	0	380562	234
744.3359375	1	decision	trialStart	2	72	12	foodImage.116	FOODEEG_Images\0924.jpg	YN	Right	No	1.18268269998953	0	381101	251
745.375	2	decision	foodImageDisplay	2	72	12	foodImage.116	FOODEEG_Images\0924.jpg	YN	Right	No	1.18268269998953	0	381633	252
747.4375	1.18268269998953	decision	choicePhaseStart	2	72	12	foodImage.116	FOODEEG_Images\0924.jpg	YN	Right	No	1.18268269998953	0	382689	253
748.611328125	0	decision	response	2	72	12	foodImage.116	FOODEEG_Images\0924.jpg	YN	Right	No	1.18268269998953	0	383290	235
749.654296875	1	health	trialStart	2	73	13	foodImage.99	FOODEEG_Images\0907.jpg	YN	Right	No	2.17014149995521	0	383824	251
750.69140625	2	health	foodImageDisplay	2	73	13	foodImage.99	FOODEEG_Images\0907.jpg	YN	Right	No	2.17014149995521	0	384355	252
752.75390625	2.17014149995521	health	choicePhaseStart	2	73	13	foodImage.99	FOODEEG_Images\0907.jpg	YN	Right	No	2.17014149995521	0	385411	253
754.9140625	0	health	response	2	73	13	foodImage.99	FOODEEG_Images\0907.jpg	YN	Right	No	2.17014149995521	0	386517	235
755.962890625	1	health	trialStart	2	74	14	foodImage.21	FOODEEG_Images\0234.jpg	YN	Left	Yes	1.24627480003983	0	387054	251
757.01953125	2	health	foodImageDisplay	2	74	14	foodImage.21	FOODEEG_Images\0234.jpg	YN	Left	Yes	1.24627480003983	0	387595	252
759.0859375	1.24627480003983	health	choicePhaseStart	2	74	14	foodImage.21	FOODEEG_Images\0234.jpg	YN	Left	Yes	1.24627480003983	0	388653	253
760.322265625	0	health	response	2	74	14	foodImage.21	FOODEEG_Images\0234.jpg	YN	Left	Yes	1.24627480003983	0	389286	234
761.365234375	1	health	trialStart	2	75	15	foodImage.24	FOODEEG_Images\0250.jpg	YN	Left	Yes	0.739832099992782	0	389820	251
762.423828125	2	health	foodImageDisplay	2	75	15	foodImage.24	FOODEEG_Images\0250.jpg	YN	Left	Yes	0.739832099992782	0	390362	252
764.48828125	0.739832099992782	health	choicePhaseStart	2	75	15	foodImage.24	FOODEEG_Images\0250.jpg	YN	Left	Yes	0.739832099992782	0	391419	253
765.21875	0	health	response	2	75	15	foodImage.24	FOODEEG_Images\0250.jpg	YN	Left	Yes	0.739832099992782	0	391793	234
766.259765625	1	health	trialStart	2	76	16	foodImage.53	FOODEEG_Images\0547.jpg	YN	Right	No	0.703705299878493	0	392326	251
767.31640625	2	health	foodImageDisplay	2	76	16	foodImage.53	FOODEEG_Images\0547.jpg	YN	Right	No	0.703705299878493	0	392867	252
769.37890625	0.703705299878493	health	choicePhaseStart	2	76	16	foodImage.53	FOODEEG_Images\0547.jpg	YN	Right	No	0.703705299878493	0	393923	253
770.07421875	0	health	response	2	76	16	foodImage.53	FOODEEG_Images\0547.jpg	YN	Right	No	0.703705299878493	0	394279	235
771.115234375	1	decision	trialStart	2	77	17	foodImage.78	FOODEEG_Images\0787.jpg	YN	Left	Yes	3.47215729998425	0	394812	251
772.171875	2	decision	foodImageDisplay	2	77	17	foodImage.78	FOODEEG_Images\0787.jpg	YN	Left	Yes	3.47215729998425	0	395353	252
774.234375	3.47215729998425	decision	choicePhaseStart	2	77	17	foodImage.78	FOODEEG_Images\0787.jpg	YN	Left	Yes	3.47215729998425	0	396409	253
777.697265625	0	decision	response	2	77	17	foodImage.78	FOODEEG_Images\0787.jpg	YN	Left	Yes	3.47215729998425	0	398182	234
778.740234375	1	health	trialStart	2	78	18	foodImage.98	FOODEEG_Images\0906.jpg	YN	Right	No	2.13885170011781	0	398716	251
779.779296875	2	health	foodImageDisplay	2	78	18	foodImage.98	FOODEEG_Images\0906.jpg	YN	Right	No	2.13885170011781	0	399248	252
781.83984375	2.13885170011781	health	choicePhaseStart	2	78	18	foodImage.98	FOODEEG_Images\0906.jpg	YN	Right	No	2.13885170011781	0	400303	253
783.96875	0	health	response	2	78	18	foodImage.98	FOODEEG_Images\0906.jpg	YN	Right	No	2.13885170011781	0	401393	235
785.009765625	1	health	trialStart	2	79	19	foodImage.80	FOODEEG_Images\0796.jpg	NY	Right	Yes	1.12562579987571	0	401926	251
786.068359375	2	health	foodImageDisplay	2	79	19	foodImage.80	FOODEEG_Images\0796.jpg	NY	Right	Yes	1.12562579987571	0	402468	252
788.130859375	1.12562579987571	health	choicePhaseStart	2	79	19	foodImage.80	FOODEEG_Images\0796.jpg	NY	Right	Yes	1.12562579987571	0	403524	253
789.25	0	health	response	2	79	19	foodImage.80	FOODEEG_Images\0796.jpg	NY	Right	Yes	1.12562579987571	0	404097	235
790.2890625	1	taste	trialStart	2	80	20	foodImage.42	FOODEEG_Images\0438.jpg	NY	Left	No	2.08976170001552	0	404629	251
791.375	2	taste	foodImageDisplay	2	80	20	foodImage.42	FOODEEG_Images\0438.jpg	NY	Left	No	2.08976170001552	0	405185	252
793.44140625	2.08976170001552	taste	choicePhaseStart	2	80	20	foodImage.42	FOODEEG_Images\0438.jpg	NY	Left	No	2.08976170001552	0	406243	253
795.521484375	0	taste	response	2	80	20	foodImage.42	FOODEEG_Images\0438.jpg	NY	Left	No	2.08976170001552	0	407308	234
796.564453125	1	decision	trialStart	2	81	21	foodImage.89	FOODEEG_Images\0881.jpg	NY	Right	Yes	2.97463939990848	0	407842	251
797.62109375	2	decision	foodImageDisplay	2	81	21	foodImage.89	FOODEEG_Images\0881.jpg	NY	Right	Yes	2.97463939990848	0	408383	252
799.68359375	2.97463939990848	decision	choicePhaseStart	2	81	21	foodImage.89	FOODEEG_Images\0881.jpg	NY	Right	Yes	2.97463939990848	0	409439	253
802.6484375	0	decision	response	2	81	21	foodImage.89	FOODEEG_Images\0881.jpg	NY	Right	Yes	2.97463939990848	0	410957	235
803.69140625	1	decision	trialStart	2	82	22	foodImage.110	FOODEEG_Images\0918.jpg	NY	Left	No	1.22269169986248	0	411491	251
804.73046875	2	decision	foodImageDisplay	2	82	22	foodImage.110	FOODEEG_Images\0918.jpg	NY	Left	No	1.22269169986248	0	412023	252
806.79296875	1.22269169986248	decision	choicePhaseStart	2	82	22	foodImage.110	FOODEEG_Images\0918.jpg	NY	Left	No	1.22269169986248	0	413079	253
808.0078125	0	decision	response	2	82	22	foodImage.110	FOODEEG_Images\0918.jpg	NY	Left	No	1.22269169986248	0	413701	234
809.048828125	1	decision	trialStart	2	83	23	foodImage.55	FOODEEG_Images\0567.jpg	YN	Left	Yes	1.3871532001067	0	414234	251
810.103515625	2	decision	foodImageDisplay	2	83	23	foodImage.55	FOODEEG_Images\0567.jpg	YN	Left	Yes	1.3871532001067	0	414774	252
812.166015625	1.3871532001067	decision	choicePhaseStart	2	83	23	foodImage.55	FOODEEG_Images\0567.jpg	YN	Left	Yes	1.3871532001067	0	415830	253
813.544921875	0	decision	response	2	83	23	foodImage.55	FOODEEG_Images\0567.jpg	YN	Left	Yes	1.3871532001067	0	416536	234
814.587890625	1	taste	trialStart	2	84	24	foodImage.19	FOODEEG_Images\0225.jpg	NY	Right	Yes	1.83665729989298	0	417070	251
815.638671875	2	taste	foodImageDisplay	2	84	24	foodImage.19	FOODEEG_Images\0225.jpg	NY	Right	Yes	1.83665729989298	0	417608	252
817.701171875	1.83665729989298	taste	choicePhaseStart	2	84	24	foodImage.19	FOODEEG_Images\0225.jpg	NY	Right	Yes	1.83665729989298	0	418664	253
819.529296875	0	taste	response	2	84	24	foodImage.19	FOODEEG_Images\0225.jpg	NY	Right	Yes	1.83665729989298	0	419600	235
820.572265625	1	health	trialStart	2	85	25	foodImage.25	FOODEEG_Images\0261.jpg	YN	Left	Yes	0.833693399792537	0	420134	251
821.615234375	2	health	foodImageDisplay	2	85	25	foodImage.25	FOODEEG_Images\0261.jpg	YN	Left	Yes	0.833693399792537	0	420668	252
823.677734375	0.833693399792537	health	choicePhaseStart	2	85	25	foodImage.25	FOODEEG_Images\0261.jpg	YN	Left	Yes	0.833693399792537	0	421724	253
824.50390625	0	health	response	2	85	25	foodImage.25	FOODEEG_Images\0261.jpg	YN	Left	Yes	0.833693399792537	0	422147	234
825.548828125	1	taste	trialStart	2	86	26	foodImage.90	FOODEEG_Images\0890.jpg	YN	Left	Yes	3.99966420000419	0	422682	251
826.609375	2	taste	foodImageDisplay	2	86	26	foodImage.90	FOODEEG_Images\0890.jpg	YN	Left	Yes	3.99966420000419	0	423225	252
828.673828125	3.99966420000419	taste	choicePhaseStart	2	86	26	foodImage.90	FOODEEG_Images\0890.jpg	YN	Left	Yes	3.99966420000419	0	424282	253
832.6640625	0	taste	response	2	86	26	foodImage.90	FOODEEG_Images\0890.jpg	YN	Left	Yes	3.99966420000419	0	426325	234
833.70703125	1	taste	trialStart	2	87	27	foodImage.79	FOODEEG_Images\0794.jpg	NY	Right	Yes	2.73205220000818	0	426859	251
834.75	2	taste	foodImageDisplay	2	87	27	foodImage.79	FOODEEG_Images\0794.jpg	NY	Right	Yes	2.73205220000818	0	427393	252
836.8125	2.73205220000818	taste	choicePhaseStart	2	87	27	foodImage.79	FOODEEG_Images\0794.jpg	NY	Right	Yes	2.73205220000818	0	428449	253
839.53515625	0	taste	response	2	87	27	foodImage.79	FOODEEG_Images\0794.jpg	NY	Right	Yes	2.73205220000818	0	429843	235
840.580078125	1	health	trialStart	2	88	28	foodImage.59	FOODEEG_Images\0607.jpg	NY	Left	No	1.64476530021057	0	430378	251
841.62890625	2	health	foodImageDisplay	2	88	28	foodImage.59	FOODEEG_Images\0607.jpg	NY	Left	No	1.64476530021057	0	430915	252
843.69140625	1.64476530021057	health	choicePhaseStart	2	88	28	foodImage.59	FOODEEG_Images\0607.jpg	NY	Left	No	1.64476530021057	0	431971	253
845.328125	0	health	response	2	88	28	foodImage.59	FOODEEG_Images\0607.jpg	NY	Left	No	1.64476530021057	0	432809	234
846.373046875	1	health	trialStart	2	89	29	foodImage.68	FOODEEG_Images\0685.jpg	YN	Right	No	2.43412270001136	0	433344	251
847.455078125	2	health	foodImageDisplay	2	89	29	foodImage.68	FOODEEG_Images\0685.jpg	YN	Right	No	2.43412270001136	0	433898	252
849.517578125	2.43412270001136	health	choicePhaseStart	2	89	29	foodImage.68	FOODEEG_Images\0685.jpg	YN	Right	No	2.43412270001136	0	434954	253
851.943359375	0	health	response	2	89	29	foodImage.68	FOODEEG_Images\0685.jpg	YN	Right	No	2.43412270001136	0	436196	235
852.986328125	1	decision	trialStart	2	90	30	foodImage.51	FOODEEG_Images\0536.jpg	YN	Left	Yes	1.93786589987576	0	436730	251
854.03125	2	decision	foodImageDisplay	2	90	30	foodImage.51	FOODEEG_Images\0536.jpg	YN	Left	Yes	1.93786589987576	0	437265	252
856.09375	1.93786589987576	decision	choicePhaseStart	2	90	30	foodImage.51	FOODEEG_Images\0536.jpg	YN	Left	Yes	1.93786589987576	0	438321	253
858.0234375	0	decision	response	2	90	30	foodImage.51	FOODEEG_Images\0536.jpg	YN	Left	Yes	1.93786589987576	0	439309	234
859.06640625	1	taste	trialStart	2	91	31	foodImage.47	FOODEEG_Images\0488.jpg	YN	Left	Yes	1.1871162999887	0	439843	251
860.111328125	2	taste	foodImageDisplay	2	91	31	foodImage.47	FOODEEG_Images\0488.jpg	YN	Left	Yes	1.1871162999887	0	440378	252
862.173828125	1.1871162999887	taste	choicePhaseStart	2	91	31	foodImage.47	FOODEEG_Images\0488.jpg	YN	Left	Yes	1.1871162999887	0	441434	253
863.3515625	0	taste	response	2	91	31	foodImage.47	FOODEEG_Images\0488.jpg	YN	Left	Yes	1.1871162999887	0	442037	234
864.392578125	1	health	trialStart	2	92	32	foodImage.72	FOODEEG_Images\0714.jpg	NY	Right	Yes	1.46926439995877	0	442570	251
865.435546875	2	health	foodImageDisplay	2	92	32	foodImage.72	FOODEEG_Images\0714.jpg	NY	Right	Yes	1.46926439995877	0	443104	252
867.498046875	1.46926439995877	health	choicePhaseStart	2	92	32	foodImage.72	FOODEEG_Images\0714.jpg	NY	Right	Yes	1.46926439995877	0	444160	253
868.958984375	0	health	response	2	92	32	foodImage.72	FOODEEG_Images\0714.jpg	NY	Right	Yes	1.46926439995877	0	444908	235
870	1	health	trialStart	2	93	33	foodImage.119	FOODEEG_Images\0927.jpg	YN	Right	No	1.20954750012606	0	445441	251
871.056640625	2	health	foodImageDisplay	2	93	33	foodImage.119	FOODEEG_Images\0927.jpg	YN	Right	No	1.20954750012606	0	445982	252
873.119140625	1.20954750012606	health	choicePhaseStart	2	93	33	foodImage.119	FOODEEG_Images\0927.jpg	YN	Right	No	1.20954750012606	0	447038	253
874.318359375	0	health	response	2	93	33	foodImage.119	FOODEEG_Images\0927.jpg	YN	Right	No	1.20954750012606	0	447652	235
875.357421875	1	decision	trialStart	2	94	34	foodImage.85	FOODEEG_Images\0841.jpg	YN	Left	Yes	1.01737880008295	0	448184	251
876.416015625	2	decision	foodImageDisplay	2	94	34	foodImage.85	FOODEEG_Images\0841.jpg	YN	Left	Yes	1.01737880008295	0	448726	252
878.478515625	1.01737880008295	decision	choicePhaseStart	2	94	34	foodImage.85	FOODEEG_Images\0841.jpg	YN	Left	Yes	1.01737880008295	0	449782	253
879.486328125	0	decision	response	2	94	34	foodImage.85	FOODEEG_Images\0841.jpg	YN	Left	Yes	1.01737880008295	0	450298	234
880.529296875	1	health	trialStart	2	95	35	foodImage.54	FOODEEG_Images\0560.jpg	YN	Left	Yes	1.75158610008657	0	450832	251
881.583984375	2	health	foodImageDisplay	2	95	35	foodImage.54	FOODEEG_Images\0560.jpg	YN	Left	Yes	1.75158610008657	0	451372	252
883.6484375	1.75158610008657	health	choicePhaseStart	2	95	35	foodImage.54	FOODEEG_Images\0560.jpg	YN	Left	Yes	1.75158610008657	0	452429	253
885.390625	0	health	response	2	95	35	foodImage.54	FOODEEG_Images\0560.jpg	YN	Left	Yes	1.75158610008657	0	453321	234
886.4296875	1	decision	trialStart	2	96	36	foodImage.72	FOODEEG_Images\0714.jpg	NY	Right	Yes	1.19171970011666	0	453853	251
887.47265625	2	decision	foodImageDisplay	2	96	36	foodImage.72	FOODEEG_Images\0714.jpg	NY	Right	Yes	1.19171970011666	0	454387	252
889.53515625	1.19171970011666	decision	choicePhaseStart	2	96	36	foodImage.72	FOODEEG_Images\0714.jpg	NY	Right	Yes	1.19171970011666	0	455443	253
890.716796875	0	decision	response	2	96	36	foodImage.72	FOODEEG_Images\0714.jpg	NY	Right	Yes	1.19171970011666	0	456048	235
891.76171875	1	decision	trialStart	2	97	37	foodImage.106	FOODEEG_Images\0914.jpg	YN	Right	No	1.59650350012816	0	456583	251
892.802734375	2	decision	foodImageDisplay	2	97	37	foodImage.106	FOODEEG_Images\0914.jpg	YN	Right	No	1.59650350012816	0	457116	252
894.865234375	1.59650350012816	decision	choicePhaseStart	2	97	37	foodImage.106	FOODEEG_Images\0914.jpg	YN	Right	No	1.59650350012816	0	458172	253
896.453125	0	decision	response	2	97	37	foodImage.106	FOODEEG_Images\0914.jpg	YN	Right	No	1.59650350012816	0	458985	235
897.4921875	1	health	trialStart	2	98	38	foodImage.46	FOODEEG_Images\0479.jpg	YN	Left	Yes	0.971386999823153	0	459517	251
898.548828125	2	health	foodImageDisplay	2	98	38	foodImage.46	FOODEEG_Images\0479.jpg	YN	Left	Yes	0.971386999823153	0	460058	252
900.611328125	0.971386999823153	health	choicePhaseStart	2	98	38	foodImage.46	FOODEEG_Images\0479.jpg	YN	Left	Yes	0.971386999823153	0	461114	253
901.572265625	0	health	response	2	98	38	foodImage.46	FOODEEG_Images\0479.jpg	YN	Left	Yes	0.971386999823153	0	461606	234
902.61328125	1	decision	trialStart	2	99	39	foodImage.49	FOODEEG_Images\0515.jpg	NY	Right	Yes	1.53073560004123	0	462139	251
903.654296875	2	decision	foodImageDisplay	2	99	39	foodImage.49	FOODEEG_Images\0515.jpg	NY	Right	Yes	1.53073560004123	0	462672	252
905.716796875	1.53073560004123	decision	choicePhaseStart	2	99	39	foodImage.49	FOODEEG_Images\0515.jpg	NY	Right	Yes	1.53073560004123	0	463728	253
907.236328125	0	decision	response	2	99	39	foodImage.49	FOODEEG_Images\0515.jpg	NY	Right	Yes	1.53073560004123	0	464506	235
908.279296875	1	decision	trialStart	2	100	40	foodImage.73	FOODEEG_Images\0717.jpg	NY	Right	Yes	1.40354669978842	0	465040	251
909.34765625	2	decision	foodImageDisplay	2	100	40	foodImage.73	FOODEEG_Images\0717.jpg	NY	Right	Yes	1.40354669978842	0	465587	252
911.41015625	1.40354669978842	decision	choicePhaseStart	2	100	40	foodImage.73	FOODEEG_Images\0717.jpg	NY	Right	Yes	1.40354669978842	0	466643	253
912.8046875	0	decision	response	2	100	40	foodImage.73	FOODEEG_Images\0717.jpg	NY	Right	Yes	1.40354669978842	0	467357	235
913.84765625	1	decision	trialStart	2	101	41	foodImage.114	FOODEEG_Images\0922.jpg	NY	Left	No	1.26536429999396	0	467891	251
914.884765625	2	decision	foodImageDisplay	2	101	41	foodImage.114	FOODEEG_Images\0922.jpg	NY	Left	No	1.26536429999396	0	468422	252
916.947265625	1.26536429999396	decision	choicePhaseStart	2	101	41	foodImage.114	FOODEEG_Images\0922.jpg	NY	Left	No	1.26536429999396	0	469478	253
918.205078125	0	decision	response	2	101	41	foodImage.114	FOODEEG_Images\0922.jpg	NY	Left	No	1.26536429999396	0	470122	234
919.248046875	1	taste	trialStart	2	102	42	foodImage.34	FOODEEG_Images\0339.jpg	YN	Left	Yes	0.911561900051311	0	470656	251
920.3046875	2	taste	foodImageDisplay	2	102	42	foodImage.34	FOODEEG_Images\0339.jpg	YN	Left	Yes	0.911561900051311	0	471197	252
922.3671875	0.911561900051311	taste	choicePhaseStart	2	102	42	foodImage.34	FOODEEG_Images\0339.jpg	YN	Left	Yes	0.911561900051311	0	472253	253
923.26953125	0	taste	response	2	102	42	foodImage.34	FOODEEG_Images\0339.jpg	YN	Left	Yes	0.911561900051311	0	472715	234
924.318359375	1	decision	trialStart	2	103	43	foodImage.64	FOODEEG_Images\0647.jpg	NY	Right	Yes	1.01476949988864	0	473252	251
925.375	2	decision	foodImageDisplay	2	103	43	foodImage.64	FOODEEG_Images\0647.jpg	NY	Right	Yes	1.01476949988864	0	473793	252
927.439453125	1.01476949988864	decision	choicePhaseStart	2	103	43	foodImage.64	FOODEEG_Images\0647.jpg	NY	Right	Yes	1.01476949988864	0	474850	253
928.443359375	0	decision	response	2	103	43	foodImage.64	FOODEEG_Images\0647.jpg	NY	Right	Yes	1.01476949988864	0	475364	235
929.486328125	1	taste	trialStart	2	104	44	foodImage.55	FOODEEG_Images\0567.jpg	NY	Right	Yes	0.788857099832967	0	475898	251
930.548828125	2	taste	foodImageDisplay	2	104	44	foodImage.55	FOODEEG_Images\0567.jpg	NY	Right	Yes	0.788857099832967	0	476442	252
932.61328125	0.788857099832967	taste	choicePhaseStart	2	104	44	foodImage.55	FOODEEG_Images\0567.jpg	NY	Right	Yes	0.788857099832967	0	477499	253
933.396484375	0	taste	response	2	104	44	foodImage.55	FOODEEG_Images\0567.jpg	NY	Right	Yes	0.788857099832967	0	477900	235
934.439453125	1	health	trialStart	2	105	45	foodImage.56	FOODEEG_Images\0586.jpg	YN	Left	Yes	1.02557870000601	0	478434	251
935.484375	2	health	foodImageDisplay	2	105	45	foodImage.56	FOODEEG_Images\0586.jpg	YN	Left	Yes	1.02557870000601	0	478969	252
937.546875	1.02557870000601	health	choicePhaseStart	2	105	45	foodImage.56	FOODEEG_Images\0586.jpg	YN	Left	Yes	1.02557870000601	0	480025	253
938.5625	0	health	response	2	105	45	foodImage.56	FOODEEG_Images\0586.jpg	YN	Left	Yes	1.02557870000601	0	480545	234
939.607421875	1	health	trialStart	2	106	46	foodImage.96	FOODEEG_Images\0904.jpg	NY	Right	Yes	1.54363689990714	0	481080	251
940.6484375	2	health	foodImageDisplay	2	106	46	foodImage.96	FOODEEG_Images\0904.jpg	NY	Right	Yes	1.54363689990714	0	481613	252
942.708984375	1.54363689990714	health	choicePhaseStart	2	106	46	foodImage.96	FOODEEG_Images\0904.jpg	NY	Right	Yes	1.54363689990714	0	482668	253
944.2421875	0	health	response	2	106	46	foodImage.96	FOODEEG_Images\0904.jpg	NY	Right	Yes	1.54363689990714	0	483453	235
945.28515625	1	health	trialStart	2	107	47	foodImage.52	FOODEEG_Images\0539.jpg	NY	Right	Yes	1.30810849997215	0	483987	251
946.345703125	2	health	foodImageDisplay	2	107	47	foodImage.52	FOODEEG_Images\0539.jpg	NY	Right	Yes	1.30810849997215	0	484530	252
948.408203125	1.30810849997215	health	choicePhaseStart	2	107	47	foodImage.52	FOODEEG_Images\0539.jpg	NY	Right	Yes	1.30810849997215	0	485586	253
949.70703125	0	health	response	2	107	47	foodImage.52	FOODEEG_Images\0539.jpg	NY	Right	Yes	1.30810849997215	0	486251	235
950.748046875	1	decision	trialStart	2	108	48	foodImage.87	FOODEEG_Images\0873.jpg	NY	Left	No	2.09076930000447	0	486784	251
951.802734375	2	decision	foodImageDisplay	2	108	48	foodImage.87	FOODEEG_Images\0873.jpg	NY	Left	No	2.09076930000447	0	487324	252
953.8671875	2.09076930000447	decision	choicePhaseStart	2	108	48	foodImage.87	FOODEEG_Images\0873.jpg	NY	Left	No	2.09076930000447	0	488381	253
955.947265625	0	decision	response	2	108	48	foodImage.87	FOODEEG_Images\0873.jpg	NY	Left	No	2.09076930000447	0	489446	234
956.98828125	1	health	trialStart	2	109	49	foodImage.78	FOODEEG_Images\0787.jpg	NY	Right	Yes	2.60795729979873	0	489979	251
958.037109375	2	health	foodImageDisplay	2	109	49	foodImage.78	FOODEEG_Images\0787.jpg	NY	Right	Yes	2.60795729979873	0	490516	252
960.099609375	2.60795729979873	health	choicePhaseStart	2	109	49	foodImage.78	FOODEEG_Images\0787.jpg	NY	Right	Yes	2.60795729979873	0	491572	253
962.69921875	0	health	response	2	109	49	foodImage.78	FOODEEG_Images\0787.jpg	NY	Right	Yes	2.60795729979873	0	492903	235
963.7421875	1	taste	trialStart	2	110	50	foodImage.76	FOODEEG_Images\0766.jpg	YN	Right	No	1.18143730005249	0	493437	251
964.78515625	2	taste	foodImageDisplay	2	110	50	foodImage.76	FOODEEG_Images\0766.jpg	YN	Right	No	1.18143730005249	0	493971	252
966.84765625	1.18143730005249	taste	choicePhaseStart	2	110	50	foodImage.76	FOODEEG_Images\0766.jpg	YN	Right	No	1.18143730005249	0	495027	253
968.01953125	0	taste	response	2	110	50	foodImage.76	FOODEEG_Images\0766.jpg	YN	Right	No	1.18143730005249	0	495627	235
969.060546875	1	decision	trialStart	2	111	51	foodImage.47	FOODEEG_Images\0488.jpg	YN	Left	Yes	1.03880520001985	0	496160	251
970.1015625	2	decision	foodImageDisplay	2	111	51	foodImage.47	FOODEEG_Images\0488.jpg	YN	Left	Yes	1.03880520001985	0	496693	252
972.166015625	1.03880520001985	decision	choicePhaseStart	2	111	51	foodImage.47	FOODEEG_Images\0488.jpg	YN	Left	Yes	1.03880520001985	0	497750	253
973.1953125	0	decision	response	2	111	51	foodImage.47	FOODEEG_Images\0488.jpg	YN	Left	Yes	1.03880520001985	0	498277	234
974.236328125	1	decision	trialStart	2	112	52	foodImage.37	FOODEEG_Images\0359.jpg	YN	Left	Yes	2.09558620001189	0	498810	251
975.27734375	2	decision	foodImageDisplay	2	112	52	foodImage.37	FOODEEG_Images\0359.jpg	YN	Left	Yes	2.09558620001189	0	499343	252
977.33984375	2.09558620001189	decision	choicePhaseStart	2	112	52	foodImage.37	FOODEEG_Images\0359.jpg	YN	Left	Yes	2.09558620001189	0	500399	253
979.42578125	0	decision	response	2	112	52	foodImage.37	FOODEEG_Images\0359.jpg	YN	Left	Yes	2.09558620001189	0	501467	234
980.46875	1	decision	trialStart	2	113	53	foodImage.62	FOODEEG_Images\0644.jpg	YN	Left	Yes	0.717820100020617	0	502001	251
981.525390625	2	decision	foodImageDisplay	2	113	53	foodImage.62	FOODEEG_Images\0644.jpg	YN	Left	Yes	0.717820100020617	0	502542	252
983.58984375	0.717820100020617	decision	choicePhaseStart	2	113	53	foodImage.62	FOODEEG_Images\0644.jpg	YN	Left	Yes	0.717820100020617	0	503599	253
984.296875	0	decision	response	2	113	53	foodImage.62	FOODEEG_Images\0644.jpg	YN	Left	Yes	0.717820100020617	0	503961	234
985.33984375	1	health	trialStart	2	114	54	foodImage.86	FOODEEG_Images\0844.jpg	YN	Right	No	1.59620930021629	0	504495	251
986.400390625	2	health	foodImageDisplay	2	114	54	foodImage.86	FOODEEG_Images\0844.jpg	YN	Right	No	1.59620930021629	0	505038	252
988.462890625	1.59620930021629	health	choicePhaseStart	2	114	54	foodImage.86	FOODEEG_Images\0844.jpg	YN	Right	No	1.59620930021629	0	506094	253
990.048828125	0	health	response	2	114	54	foodImage.86	FOODEEG_Images\0844.jpg	YN	Right	No	1.59620930021629	0	506906	235
991.091796875	1	taste	trialStart	2	115	55	foodImage.49	FOODEEG_Images\0515.jpg	YN	Left	Yes	1.007581199985	0	507440	251
992.1328125	2	taste	foodImageDisplay	2	115	55	foodImage.49	FOODEEG_Images\0515.jpg	YN	Left	Yes	1.007581199985	0	507973	252
994.1953125	1.007581199985	taste	choicePhaseStart	2	115	55	foodImage.49	FOODEEG_Images\0515.jpg	YN	Left	Yes	1.007581199985	0	509029	253
995.193359375	0	taste	response	2	115	55	foodImage.49	FOODEEG_Images\0515.jpg	YN	Left	Yes	1.007581199985	0	509540	234
996.234375	1	taste	trialStart	2	116	56	foodImage.12	FOODEEG_Images\0181.jpg	NY	Right	Yes	0.926019300008193	0	510073	251
997.287109375	2	taste	foodImageDisplay	2	116	56	foodImage.12	FOODEEG_Images\0181.jpg	NY	Right	Yes	0.926019300008193	0	510612	252
999.349609375	0.926019300008193	taste	choicePhaseStart	2	116	56	foodImage.12	FOODEEG_Images\0181.jpg	NY	Right	Yes	0.926019300008193	0	511668	253
1000.265625	0	taste	response	2	116	56	foodImage.12	FOODEEG_Images\0181.jpg	NY	Right	Yes	0.926019300008193	0	512137	235
1001.306640625	1	decision	trialStart	2	117	57	foodImage.117	FOODEEG_Images\0925.jpg	NY	Left	No	1.8819987999741	0	512670	251
1002.345703125	2	decision	foodImageDisplay	2	117	57	foodImage.117	FOODEEG_Images\0925.jpg	NY	Left	No	1.8819987999741	0	513202	252
1004.408203125	1.8819987999741	decision	choicePhaseStart	2	117	57	foodImage.117	FOODEEG_Images\0925.jpg	NY	Left	No	1.8819987999741	0	514258	253
1006.28125	0	decision	response	2	117	57	foodImage.117	FOODEEG_Images\0925.jpg	NY	Left	No	1.8819987999741	0	515217	234
1007.32421875	1	taste	trialStart	2	118	58	foodImage.37	FOODEEG_Images\0359.jpg	YN	Left	Yes	5.29152929992415	1	515751	251
1008.369140625	2	taste	foodImageDisplay	2	118	58	foodImage.37	FOODEEG_Images\0359.jpg	YN	Left	Yes	5.29152929992415	1	516286	252
1010.431640625	5.29152929992415	taste	choicePhaseStart	2	118	58	foodImage.37	FOODEEG_Images\0359.jpg	YN	Left	Yes	5.29152929992415	1	517342	253
1015.712890625	0	taste	response	2	118	58	foodImage.37	FOODEEG_Images\0359.jpg	YN	Left	Yes	5.29152929992415	1	520046	234
1016.755859375	1	health	trialStart	2	119	59	foodImage.97	FOODEEG_Images\0905.jpg	NY	Left	No	1.78414599993266	0	520580	251
1017.794921875	2	health	foodImageDisplay	2	119	59	foodImage.97	FOODEEG_Images\0905.jpg	NY	Left	No	1.78414599993266	0	521112	252
1019.857421875	1.78414599993266	health	choicePhaseStart	2	119	59	foodImage.97	FOODEEG_Images\0905.jpg	NY	Left	No	1.78414599993266	0	522168	253
1021.6328125	0	health	response	2	119	59	foodImage.97	FOODEEG_Images\0905.jpg	NY	Left	No	1.78414599993266	0	523077	234
1022.67578125	1	taste	trialStart	2	120	60	foodImage.13	FOODEEG_Images\0183.jpg	NY	Right	Yes	1.18859029980376	0	523611	251
1023.71875	2	taste	foodImageDisplay	2	120	60	foodImage.13	FOODEEG_Images\0183.jpg	NY	Right	Yes	1.18859029980376	0	524145	252
1025.779296875	1.18859029980376	taste	choicePhaseStart	2	120	60	foodImage.13	FOODEEG_Images\0183.jpg	NY	Right	Yes	1.18859029980376	0	525200	253
1026.9609375	0	taste	response	2	120	60	foodImage.13	FOODEEG_Images\0183.jpg	NY	Right	Yes	1.18859029980376	0	525805	235
1029.001953125	10.556640625	n/a	blockEnd	n/a	n/a	n/a	n/a	n/a	n/a	n/a	n/a	n/a	n/a	526850	254
1039.55859375	2	n/a	blockStart	3	n/a	n/a	n/a	n/a	n/a	n/a	n/a	n/a	n/a	532255	250
1041.591796875	1	decision	trialStart	3	121	1	foodImage.103	FOODEEG_Images\0911.jpg	YN	Right	No	1.07221759995446	0	533296	251
1042.630859375	2	decision	foodImageDisplay	3	121	1	foodImage.103	FOODEEG_Images\0911.jpg	YN	Right	No	1.07221759995446	0	533828	252
1044.6953125	1.07221759995446	decision	choicePhaseStart	3	121	1	foodImage.103	FOODEEG_Images\0911.jpg	YN	Right	No	1.07221759995446	0	534885	253
1045.759765625	0	decision	response	3	121	1	foodImage.103	FOODEEG_Images\0911.jpg	YN	Right	No	1.07221759995446	0	535430	235
1046.802734375	1	decision	trialStart	3	122	2	foodImage.15	FOODEEG_Images\0189.jpg	NY	Right	Yes	0.984303799923509	0	535964	251
1047.86328125	2	decision	foodImageDisplay	3	122	2	foodImage.15	FOODEEG_Images\0189.jpg	NY	Right	Yes	0.984303799923509	0	536507	252
1049.92578125	0.984303799923509	decision	choicePhaseStart	3	122	2	foodImage.15	FOODEEG_Images\0189.jpg	NY	Right	Yes	0.984303799923509	0	537563	253
1050.90234375	0	decision	response	3	122	2	foodImage.15	FOODEEG_Images\0189.jpg	NY	Right	Yes	0.984303799923509	0	538063	235
1051.947265625	1	decision	trialStart	3	123	3	foodImage.60	FOODEEG_Images\0614.jpg	NY	Right	Yes	0.835829399991781	0	538598	251
1053.00390625	2	decision	foodImageDisplay	3	123	3	foodImage.60	FOODEEG_Images\0614.jpg	NY	Right	Yes	0.835829399991781	0	539139	252
1055.06640625	0.835829399991781	decision	choicePhaseStart	3	123	3	foodImage.60	FOODEEG_Images\0614.jpg	NY	Right	Yes	0.835829399991781	0	540195	253
1055.89453125	0	decision	response	3	123	3	foodImage.60	FOODEEG_Images\0614.jpg	NY	Right	Yes	0.835829399991781	0	540619	235
1056.9375	1	health	trialStart	3	124	4	foodImage.95	FOODEEG_Images\0903.jpg	YN	Right	No	2.17633430007845	0	541153	251
1057.974609375	2	health	foodImageDisplay	3	124	4	foodImage.95	FOODEEG_Images\0903.jpg	YN	Right	No	2.17633430007845	0	541684	252
1060.0390625	2.17633430007845	health	choicePhaseStart	3	124	4	foodImage.95	FOODEEG_Images\0903.jpg	YN	Right	No	2.17633430007845	0	542741	253
1062.20703125	0	health	response	3	124	4	foodImage.95	FOODEEG_Images\0903.jpg	YN	Right	No	2.17633430007845	0	543851	235
1063.25	1	health	trialStart	3	125	5	foodImage.14	FOODEEG_Images\0188.jpg	NY	Right	Yes	1.70117249991745	0	544385	251
1064.30859375	2	health	foodImageDisplay	3	125	5	foodImage.14	FOODEEG_Images\0188.jpg	NY	Right	Yes	1.70117249991745	0	544927	252
1066.37109375	1.70117249991745	health	choicePhaseStart	3	125	5	foodImage.14	FOODEEG_Images\0188.jpg	NY	Right	Yes	1.70117249991745	0	545983	253
1068.0625	0	health	response	3	125	5	foodImage.14	FOODEEG_Images\0188.jpg	NY	Right	Yes	1.70117249991745	0	546849	235
1069.107421875	1	taste	trialStart	3	126	6	foodImage.59	FOODEEG_Images\0607.jpg	NY	Right	Yes	1.09774299990386	0	547384	251
1070.15234375	2	taste	foodImageDisplay	3	126	6	foodImage.59	FOODEEG_Images\0607.jpg	NY	Right	Yes	1.09774299990386	0	547919	252
1072.21484375	1.09774299990386	taste	choicePhaseStart	3	126	6	foodImage.59	FOODEEG_Images\0607.jpg	NY	Right	Yes	1.09774299990386	0	548975	253
1073.302734375	0	taste	response	3	126	6	foodImage.59	FOODEEG_Images\0607.jpg	NY	Right	Yes	1.09774299990386	0	549532	235
1074.34375	1	taste	trialStart	3	127	7	foodImage.78	FOODEEG_Images\0787.jpg	NY	Left	No	2.71160609996878	0	550065	251
1075.38671875	2	taste	foodImageDisplay	3	127	7	foodImage.78	FOODEEG_Images\0787.jpg	NY	Left	No	2.71160609996878	0	550599	252
1077.45703125	2.71160609996878	taste	choicePhaseStart	3	127	7	foodImage.78	FOODEEG_Images\0787.jpg	NY	Left	No	2.71160609996878	0	551659	253
1080.158203125	0	taste	response	3	127	7	foodImage.78	FOODEEG_Images\0787.jpg	NY	Left	No	2.71160609996878	0	553042	234
1081.201171875	1	decision	trialStart	3	128	8	foodImage.31	FOODEEG_Images\0294.jpg	NY	Right	Yes	0.622576599940658	0	553576	251
1082.2421875	2	decision	foodImageDisplay	3	128	8	foodImage.31	FOODEEG_Images\0294.jpg	NY	Right	Yes	0.622576599940658	0	554109	252
1084.3046875	0.622576599940658	decision	choicePhaseStart	3	128	8	foodImage.31	FOODEEG_Images\0294.jpg	NY	Right	Yes	0.622576599940658	0	555165	253
1084.91796875	0	decision	response	3	128	8	foodImage.31	FOODEEG_Images\0294.jpg	NY	Right	Yes	0.622576599940658	0	555479	235
1085.9609375	1	taste	trialStart	3	129	9	foodImage.85	FOODEEG_Images\0841.jpg	NY	Right	Yes	0.840090099954978	0	556013	251
1087.03125	2	taste	foodImageDisplay	3	129	9	foodImage.85	FOODEEG_Images\0841.jpg	NY	Right	Yes	0.840090099954978	0	556561	252
1089.095703125	0.840090099954978	taste	choicePhaseStart	3	129	9	foodImage.85	FOODEEG_Images\0841.jpg	NY	Right	Yes	0.840090099954978	0	557618	253
1089.92578125	0	taste	response	3	129	9	foodImage.85	FOODEEG_Images\0841.jpg	NY	Right	Yes	0.840090099954978	0	558043	235
1090.96875	1	health	trialStart	3	130	10	foodImage.40	FOODEEG_Images\0373.jpg	YN	Right	No	1.17084810021333	0	558577	251
1092.01171875	2	health	foodImageDisplay	3	130	10	foodImage.40	FOODEEG_Images\0373.jpg	YN	Right	No	1.17084810021333	0	559111	252
1094.072265625	1.17084810021333	health	choicePhaseStart	3	130	10	foodImage.40	FOODEEG_Images\0373.jpg	YN	Right	No	1.17084810021333	0	560166	253
1095.236328125	0	health	response	3	130	10	foodImage.40	FOODEEG_Images\0373.jpg	YN	Right	No	1.17084810021333	0	560762	235
1096.28125	1	decision	trialStart	3	131	11	foodImage.80	FOODEEG_Images\0796.jpg	NY	Right	Yes	1.40865050000139	0	561297	251
1097.3359375	2	decision	foodImageDisplay	3	131	11	foodImage.80	FOODEEG_Images\0796.jpg	NY	Right	Yes	1.40865050000139	0	561837	252
1099.3984375	1.40865050000139	decision	choicePhaseStart	3	131	11	foodImage.80	FOODEEG_Images\0796.jpg	NY	Right	Yes	1.40865050000139	0	562893	253
1100.796875	0	decision	response	3	131	11	foodImage.80	FOODEEG_Images\0796.jpg	NY	Right	Yes	1.40865050000139	0	563609	235
1101.84375	1	taste	trialStart	3	132	12	foodImage.110	FOODEEG_Images\0918.jpg	NY	Left	No	0.999473000178114	0	564145	251
1102.888671875	2	taste	foodImageDisplay	3	132	12	foodImage.110	FOODEEG_Images\0918.jpg	NY	Left	No	0.999473000178114	0	564680	252
1104.951171875	0.999473000178114	taste	choicePhaseStart	3	132	12	foodImage.110	FOODEEG_Images\0918.jpg	NY	Left	No	0.999473000178114	0	565736	253
1105.94140625	0	taste	response	3	132	12	foodImage.110	FOODEEG_Images\0918.jpg	NY	Left	No	0.999473000178114	0	566243	234
1106.982421875	1	decision	trialStart	3	133	13	foodImage.4	FOODEEG_Images\0065.jpg	YN	Left	Yes	1.27277859998867	0	566776	251
1108.0390625	2	decision	foodImageDisplay	3	133	13	foodImage.4	FOODEEG_Images\0065.jpg	YN	Left	Yes	1.27277859998867	0	567317	252
1110.1015625	1.27277859998867	decision	choicePhaseStart	3	133	13	foodImage.4	FOODEEG_Images\0065.jpg	YN	Left	Yes	1.27277859998867	0	568373	253
1111.365234375	0	decision	response	3	133	13	foodImage.4	FOODEEG_Images\0065.jpg	YN	Left	Yes	1.27277859998867	0	569020	234
1112.40625	1	health	trialStart	3	134	14	foodImage.28	FOODEEG_Images\0273.jpg	NY	Right	Yes	0.888236899860203	0	569553	251
1113.447265625	2	health	foodImageDisplay	3	134	14	foodImage.28	FOODEEG_Images\0273.jpg	NY	Right	Yes	0.888236899860203	0	570086	252
1115.509765625	0.888236899860203	health	choicePhaseStart	3	134	14	foodImage.28	FOODEEG_Images\0273.jpg	NY	Right	Yes	0.888236899860203	0	571142	253
1116.388671875	0	health	response	3	134	14	foodImage.28	FOODEEG_Images\0273.jpg	NY	Right	Yes	0.888236899860203	0	571592	235
1117.431640625	1	taste	trialStart	3	135	15	foodImage.94	FOODEEG_Images\0902.jpg	NY	Left	No	0.931520000100136	0	572126	251
1118.46875	2	taste	foodImageDisplay	3	135	15	foodImage.94	FOODEEG_Images\0902.jpg	NY	Left	No	0.931520000100136	0	572657	252
1120.53125	0.931520000100136	taste	choicePhaseStart	3	135	15	foodImage.94	FOODEEG_Images\0902.jpg	NY	Left	No	0.931520000100136	0	573713	253
1121.453125	0	taste	response	3	135	15	foodImage.94	FOODEEG_Images\0902.jpg	NY	Left	No	0.931520000100136	0	574185	234
1122.49609375	1	decision	trialStart	3	136	16	foodImage.81	FOODEEG_Images\0797.jpg	YN	Right	No	2.41987259988673	0	574719	251
1123.556640625	2	decision	foodImageDisplay	3	136	16	foodImage.81	FOODEEG_Images\0797.jpg	YN	Right	No	2.41987259988673	0	575262	252
1125.619140625	2.41987259988673	decision	choicePhaseStart	3	136	16	foodImage.81	FOODEEG_Images\0797.jpg	YN	Right	No	2.41987259988673	0	576318	253
1128.02734375	0	decision	response	3	136	16	foodImage.81	FOODEEG_Images\0797.jpg	YN	Right	No	2.41987259988673	0	577551	235
1129.076171875	1	taste	trialStart	3	137	17	foodImage.120	FOODEEG_Images\0928.jpg	NY	Left	No	1.34706329996698	0	578088	251
1130.1171875	2	taste	foodImageDisplay	3	137	17	foodImage.120	FOODEEG_Images\0928.jpg	NY	Left	No	1.34706329996698	0	578621	252
1132.1796875	1.34706329996698	taste	choicePhaseStart	3	137	17	foodImage.120	FOODEEG_Images\0928.jpg	NY	Left	No	1.34706329996698	0	579677	253
1133.515625	0	taste	response	3	137	17	foodImage.120	FOODEEG_Images\0928.jpg	NY	Left	No	1.34706329996698	0	580361	234
1134.55859375	1	taste	trialStart	3	138	18	foodImage.112	FOODEEG_Images\0920.jpg	YN	Right	No	1.7879663000349	0	580895	251
1135.599609375	2	taste	foodImageDisplay	3	138	18	foodImage.112	FOODEEG_Images\0920.jpg	YN	Right	No	1.7879663000349	0	581428	252
1137.6640625	1.7879663000349	taste	choicePhaseStart	3	138	18	foodImage.112	FOODEEG_Images\0920.jpg	YN	Right	No	1.7879663000349	0	582485	253
1139.443359375	0	taste	response	3	138	18	foodImage.112	FOODEEG_Images\0920.jpg	YN	Right	No	1.7879663000349	0	583396	235
1140.484375	1	decision	trialStart	3	139	19	foodImage.19	FOODEEG_Images\0225.jpg	YN	Left	Yes	1.60025039990433	0	583929	251
1141.52734375	2	decision	foodImageDisplay	3	139	19	foodImage.19	FOODEEG_Images\0225.jpg	YN	Left	Yes	1.60025039990433	0	584463	252
1143.59765625	1.60025039990433	decision	choicePhaseStart	3	139	19	foodImage.19	FOODEEG_Images\0225.jpg	YN	Left	Yes	1.60025039990433	0	585523	253
1145.1875	0	decision	response	3	139	19	foodImage.19	FOODEEG_Images\0225.jpg	YN	Left	Yes	1.60025039990433	0	586337	234
1146.23046875	1	decision	trialStart	3	140	20	foodImage.76	FOODEEG_Images\0766.jpg	NY	Left	No	6.32350739999674	1	586871	251
1147.2734375	2	decision	foodImageDisplay	3	140	20	foodImage.76	FOODEEG_Images\0766.jpg	NY	Left	No	6.32350739999674	1	587405	252
1149.3359375	6.32350739999674	decision	choicePhaseStart	3	140	20	foodImage.76	FOODEEG_Images\0766.jpg	NY	Left	No	6.32350739999674	1	588461	253
1155.650390625	0	decision	response	3	140	20	foodImage.76	FOODEEG_Images\0766.jpg	NY	Left	No	6.32350739999674	1	591694	234
1156.6953125	1	decision	trialStart	3	141	21	foodImage.28	FOODEEG_Images\0273.jpg	NY	Left	No	1.85194129985757	0	592229	251
1157.755859375	2	decision	foodImageDisplay	3	141	21	foodImage.28	FOODEEG_Images\0273.jpg	NY	Left	No	1.85194129985757	0	592772	252
1159.822265625	1.85194129985757	decision	choicePhaseStart	3	141	21	foodImage.28	FOODEEG_Images\0273.jpg	NY	Left	No	1.85194129985757	0	593830	253
1161.666015625	0	decision	response	3	141	21	foodImage.28	FOODEEG_Images\0273.jpg	NY	Left	No	1.85194129985757	0	594774	234
1162.7109375	1	health	trialStart	3	142	22	foodImage.13	FOODEEG_Images\0183.jpg	NY	Right	Yes	1.08238809998147	0	595309	251
1163.755859375	2	health	foodImageDisplay	3	142	22	foodImage.13	FOODEEG_Images\0183.jpg	NY	Right	Yes	1.08238809998147	0	595844	252
1165.818359375	1.08238809998147	health	choicePhaseStart	3	142	22	foodImage.13	FOODEEG_Images\0183.jpg	NY	Right	Yes	1.08238809998147	0	596900	253
1166.890625	0	health	response	3	142	22	foodImage.13	FOODEEG_Images\0183.jpg	NY	Right	Yes	1.08238809998147	0	597449	235
1167.939453125	1	health	trialStart	3	143	23	foodImage.94	FOODEEG_Images\0902.jpg	NY	Left	No	1.53902109991759	0	597986	251
1168.978515625	2	health	foodImageDisplay	3	143	23	foodImage.94	FOODEEG_Images\0902.jpg	NY	Left	No	1.53902109991759	0	598518	252
1171.041015625	1.53902109991759	health	choicePhaseStart	3	143	23	foodImage.94	FOODEEG_Images\0902.jpg	NY	Left	No	1.53902109991759	0	599574	253
1172.5703125	0	health	response	3	143	23	foodImage.94	FOODEEG_Images\0902.jpg	NY	Left	No	1.53902109991759	0	600357	234
1173.615234375	1	taste	trialStart	3	144	24	foodImage.8	FOODEEG_Images\0136.jpg	YN	Left	Yes	1.23185670003295	0	600892	251
1174.66015625	2	taste	foodImageDisplay	3	144	24	foodImage.8	FOODEEG_Images\0136.jpg	YN	Left	Yes	1.23185670003295	0	601427	252
1176.72265625	1.23185670003295	taste	choicePhaseStart	3	144	24	foodImage.8	FOODEEG_Images\0136.jpg	YN	Left	Yes	1.23185670003295	0	602483	253
1177.9453125	0	taste	response	3	144	24	foodImage.8	FOODEEG_Images\0136.jpg	YN	Left	Yes	1.23185670003295	0	603109	234
1178.990234375	1	taste	trialStart	3	145	25	foodImage.53	FOODEEG_Images\0547.jpg	YN	Right	No	1.32590459985659	0	603644	251
1180.046875	2	taste	foodImageDisplay	3	145	25	foodImage.53	FOODEEG_Images\0547.jpg	YN	Right	No	1.32590459985659	0	604185	252
1182.109375	1.32590459985659	taste	choicePhaseStart	3	145	25	foodImage.53	FOODEEG_Images\0547.jpg	YN	Right	No	1.32590459985659	0	605241	253
1183.42578125	0	taste	response	3	145	25	foodImage.53	FOODEEG_Images\0547.jpg	YN	Right	No	1.32590459985659	0	605915	235
1184.470703125	1	health	trialStart	3	146	26	foodImage.4	FOODEEG_Images\0065.jpg	NY	Left	No	1.91387789999135	0	606450	251
1185.52734375	2	health	foodImageDisplay	3	146	26	foodImage.4	FOODEEG_Images\0065.jpg	NY	Left	No	1.91387789999135	0	606991	252
1187.58984375	1.91387789999135	health	choicePhaseStart	3	146	26	foodImage.4	FOODEEG_Images\0065.jpg	NY	Left	No	1.91387789999135	0	608047	253
1189.498046875	0	health	response	3	146	26	foodImage.4	FOODEEG_Images\0065.jpg	NY	Left	No	1.91387789999135	0	609024	234
1190.541015625	1	health	trialStart	3	147	27	foodImage.29	FOODEEG_Images\0278.jpg	YN	Left	Yes	4.71701360004954	0	609558	251
1191.58203125	2	health	foodImageDisplay	3	147	27	foodImage.29	FOODEEG_Images\0278.jpg	YN	Left	Yes	4.71701360004954	0	610091	252
1193.64453125	4.71701360004954	health	choicePhaseStart	3	147	27	foodImage.29	FOODEEG_Images\0278.jpg	YN	Left	Yes	4.71701360004954	0	611147	253
1198.353515625	0	health	response	3	147	27	foodImage.29	FOODEEG_Images\0278.jpg	YN	Left	Yes	4.71701360004954	0	613558	234
1199.404296875	1	taste	trialStart	3	148	28	foodImage.20	FOODEEG_Images\0226.jpg	YN	Left	Yes	0.999336799839512	0	614096	251
1200.4453125	2	taste	foodImageDisplay	3	148	28	foodImage.20	FOODEEG_Images\0226.jpg	YN	Left	Yes	0.999336799839512	0	614629	252
1202.505859375	0.999336799839512	taste	choicePhaseStart	3	148	28	foodImage.20	FOODEEG_Images\0226.jpg	YN	Left	Yes	0.999336799839512	0	615684	253
1203.498046875	0	taste	response	3	148	28	foodImage.20	FOODEEG_Images\0226.jpg	YN	Left	Yes	0.999336799839512	0	616192	234
1204.537109375	1	decision	trialStart	3	149	29	foodImage.27	FOODEEG_Images\0263.jpg	NY	Left	No	2.1430175001733	0	616724	251
1205.580078125	2	decision	foodImageDisplay	3	149	29	foodImage.27	FOODEEG_Images\0263.jpg	NY	Left	No	2.1430175001733	0	617258	252
1207.642578125	2.1430175001733	decision	choicePhaseStart	3	149	29	foodImage.27	FOODEEG_Images\0263.jpg	NY	Left	No	2.1430175001733	0	618314	253
1209.77734375	0	decision	response	3	149	29	foodImage.27	FOODEEG_Images\0263.jpg	NY	Left	No	2.1430175001733	0	619407	234
1210.8203125	1	health	trialStart	3	150	30	foodImage.81	FOODEEG_Images\0797.jpg	NY	Right	Yes	2.50652369996533	0	619941	251
1211.880859375	2	health	foodImageDisplay	3	150	30	foodImage.81	FOODEEG_Images\0797.jpg	NY	Right	Yes	2.50652369996533	0	620484	252
1213.943359375	2.50652369996533	health	choicePhaseStart	3	150	30	foodImage.81	FOODEEG_Images\0797.jpg	NY	Right	Yes	2.50652369996533	0	621540	253
1216.44140625	0	health	response	3	150	30	foodImage.81	FOODEEG_Images\0797.jpg	NY	Right	Yes	2.50652369996533	0	622819	235
1217.490234375	1	health	trialStart	3	151	31	foodImage.16	FOODEEG_Images\0196.jpg	YN	Left	Yes	0.97739650006406	0	623356	251
1218.5546875	2	health	foodImageDisplay	3	151	31	foodImage.16	FOODEEG_Images\0196.jpg	YN	Left	Yes	0.97739650006406	0	623901	252
1220.6171875	0.97739650006406	health	choicePhaseStart	3	151	31	foodImage.16	FOODEEG_Images\0196.jpg	YN	Left	Yes	0.97739650006406	0	624957	253
1221.583984375	0	health	response	3	151	31	foodImage.16	FOODEEG_Images\0196.jpg	YN	Left	Yes	0.97739650006406	0	625452	234
1222.626953125	1	taste	trialStart	3	152	32	foodImage.83	FOODEEG_Images\0827.jpg	NY	Right	Yes	3.88164300005883	0	625986	251
1223.68359375	2	taste	foodImageDisplay	3	152	32	foodImage.83	FOODEEG_Images\0827.jpg	NY	Right	Yes	3.88164300005883	0	626527	252
1225.744140625	3.88164300005883	taste	choicePhaseStart	3	152	32	foodImage.83	FOODEEG_Images\0827.jpg	NY	Right	Yes	3.88164300005883	0	627582	253
1229.615234375	0	taste	response	3	152	32	foodImage.83	FOODEEG_Images\0827.jpg	NY	Right	Yes	3.88164300005883	0	629564	235
1230.66015625	1	health	trialStart	3	153	33	foodImage.75	FOODEEG_Images\0763.jpg	NY	Right	Yes	1.04218610003591	0	630099	251
1231.705078125	2	health	foodImageDisplay	3	153	33	foodImage.75	FOODEEG_Images\0763.jpg	NY	Right	Yes	1.04218610003591	0	630634	252
1233.767578125	1.04218610003591	health	choicePhaseStart	3	153	33	foodImage.75	FOODEEG_Images\0763.jpg	NY	Right	Yes	1.04218610003591	0	631690	253
1234.798828125	0	health	response	3	153	33	foodImage.75	FOODEEG_Images\0763.jpg	NY	Right	Yes	1.04218610003591	0	632218	235
1235.849609375	1	health	trialStart	3	154	34	foodImage.15	FOODEEG_Images\0189.jpg	YN	Right	No	1.74922460014932	0	632756	251
1236.92578125	2	health	foodImageDisplay	3	154	34	foodImage.15	FOODEEG_Images\0189.jpg	YN	Right	No	1.74922460014932	0	633307	252
1238.98828125	1.74922460014932	health	choicePhaseStart	3	154	34	foodImage.15	FOODEEG_Images\0189.jpg	YN	Right	No	1.74922460014932	0	634363	253
1240.7265625	0	health	response	3	154	34	foodImage.15	FOODEEG_Images\0189.jpg	YN	Right	No	1.74922460014932	0	635253	235
1241.771484375	1	decision	trialStart	3	155	35	foodImage.33	FOODEEG_Images\0329.jpg	YN	Left	Yes	1.60988190001808	0	635788	251
1242.81640625	2	decision	foodImageDisplay	3	155	35	foodImage.33	FOODEEG_Images\0329.jpg	YN	Left	Yes	1.60988190001808	0	636323	252
1244.87890625	1.60988190001808	decision	choicePhaseStart	3	155	35	foodImage.33	FOODEEG_Images\0329.jpg	YN	Left	Yes	1.60988190001808	0	637379	253
1246.478515625	0	decision	response	3	155	35	foodImage.33	FOODEEG_Images\0329.jpg	YN	Left	Yes	1.60988190001808	0	638198	234
1247.521484375	1	decision	trialStart	3	156	36	foodImage.29	FOODEEG_Images\0278.jpg	NY	Left	No	1.96768840006553	0	638732	251
1248.5625	2	decision	foodImageDisplay	3	156	36	foodImage.29	FOODEEG_Images\0278.jpg	NY	Left	No	1.96768840006553	0	639265	252
1250.625	1.96768840006553	decision	choicePhaseStart	3	156	36	foodImage.29	FOODEEG_Images\0278.jpg	NY	Left	No	1.96768840006553	0	640321	253
1252.583984375	0	decision	response	3	156	36	foodImage.29	FOODEEG_Images\0278.jpg	NY	Left	No	1.96768840006553	0	641324	234
1253.625	1	decision	trialStart	3	157	37	foodImage.3	FOODEEG_Images\0046.jpg	YN	Left	Yes	0.991279900074005	0	641857	251
1254.673828125	2	decision	foodImageDisplay	3	157	37	foodImage.3	FOODEEG_Images\0046.jpg	YN	Left	Yes	0.991279900074005	0	642394	252
1256.73828125	0.991279900074005	decision	choicePhaseStart	3	157	37	foodImage.3	FOODEEG_Images\0046.jpg	YN	Left	Yes	0.991279900074005	0	643451	253
1257.71875	0	decision	response	3	157	37	foodImage.3	FOODEEG_Images\0046.jpg	YN	Left	Yes	0.991279900074005	0	643953	234
1258.76171875	1	taste	trialStart	3	158	38	foodImage.103	FOODEEG_Images\0911.jpg	YN	Right	No	0.82838029996492	0	644487	251
1259.8046875	2	taste	foodImageDisplay	3	158	38	foodImage.103	FOODEEG_Images\0911.jpg	YN	Right	No	0.82838029996492	0	645021	252
1261.8671875	0.82838029996492	taste	choicePhaseStart	3	158	38	foodImage.103	FOODEEG_Images\0911.jpg	YN	Right	No	0.82838029996492	0	646077	253
1262.6875	0	taste	response	3	158	38	foodImage.103	FOODEEG_Images\0911.jpg	YN	Right	No	0.82838029996492	0	646497	235
1263.73046875	1	taste	trialStart	3	159	39	foodImage.39	FOODEEG_Images\0367.jpg	NY	Right	Yes	0.767029100097716	0	647031	251
1264.76953125	2	taste	foodImageDisplay	3	159	39	foodImage.39	FOODEEG_Images\0367.jpg	NY	Right	Yes	0.767029100097716	0	647563	252
1266.83203125	0.767029100097716	taste	choicePhaseStart	3	159	39	foodImage.39	FOODEEG_Images\0367.jpg	NY	Right	Yes	0.767029100097716	0	648619	253
1267.58984375	0	taste	response	3	159	39	foodImage.39	FOODEEG_Images\0367.jpg	NY	Right	Yes	0.767029100097716	0	649007	235
1268.630859375	1	decision	trialStart	3	160	40	foodImage.119	FOODEEG_Images\0927.jpg	YN	Right	No	1.30034880014136	0	649540	251
1269.66796875	2	decision	foodImageDisplay	3	160	40	foodImage.119	FOODEEG_Images\0927.jpg	YN	Right	No	1.30034880014136	0	650071	252
1271.73046875	1.30034880014136	decision	choicePhaseStart	3	160	40	foodImage.119	FOODEEG_Images\0927.jpg	YN	Right	No	1.30034880014136	0	651127	253
1273.021484375	0	decision	response	3	160	40	foodImage.119	FOODEEG_Images\0927.jpg	YN	Right	No	1.30034880014136	0	651788	235
1274.068359375	1	decision	trialStart	3	161	41	foodImage.120	FOODEEG_Images\0928.jpg	NY	Left	No	2.48252419987693	0	652324	251
1275.109375	2	decision	foodImageDisplay	3	161	41	foodImage.120	FOODEEG_Images\0928.jpg	NY	Left	No	2.48252419987693	0	652857	252
1277.171875	2.48252419987693	decision	choicePhaseStart	3	161	41	foodImage.120	FOODEEG_Images\0928.jpg	NY	Left	No	2.48252419987693	0	653913	253
1279.646484375	0	decision	response	3	161	41	foodImage.120	FOODEEG_Images\0928.jpg	NY	Left	No	2.48252419987693	0	655180	234
1280.6875	1	health	trialStart	3	162	42	foodImage.117	FOODEEG_Images\0925.jpg	NY	Left	No	1.39651270001195	0	655713	251
1281.724609375	2	health	foodImageDisplay	3	162	42	foodImage.117	FOODEEG_Images\0925.jpg	NY	Left	No	1.39651270001195	0	656244	252
1283.787109375	1.39651270001195	health	choicePhaseStart	3	162	42	foodImage.117	FOODEEG_Images\0925.jpg	NY	Left	No	1.39651270001195	0	657300	253
1285.173828125	0	health	response	3	162	42	foodImage.117	FOODEEG_Images\0925.jpg	NY	Left	No	1.39651270001195	0	658010	234
1286.216796875	1	taste	trialStart	3	163	43	foodImage.65	FOODEEG_Images\0658.jpg	NY	Left	No	3.72631189995445	0	658544	251
1287.2578125	2	taste	foodImageDisplay	3	163	43	foodImage.65	FOODEEG_Images\0658.jpg	NY	Left	No	3.72631189995445	0	659077	252
1289.3203125	3.72631189995445	taste	choicePhaseStart	3	163	43	foodImage.65	FOODEEG_Images\0658.jpg	NY	Left	No	3.72631189995445	0	660133	253
1293.037109375	0	taste	response	3	163	43	foodImage.65	FOODEEG_Images\0658.jpg	NY	Left	No	3.72631189995445	0	662036	234
1294.080078125	1	health	trialStart	3	164	44	foodImage.41	FOODEEG_Images\0409.jpg	YN	Left	Yes	0.927983900066465	0	662570	251
1295.12890625	2	health	foodImageDisplay	3	164	44	foodImage.41	FOODEEG_Images\0409.jpg	YN	Left	Yes	0.927983900066465	0	663107	252
1297.19140625	0.927983900066465	health	choicePhaseStart	3	164	44	foodImage.41	FOODEEG_Images\0409.jpg	YN	Left	Yes	0.927983900066465	0	664163	253
1298.109375	0	health	response	3	164	44	foodImage.41	FOODEEG_Images\0409.jpg	YN	Left	Yes	0.927983900066465	0	664633	234
1299.15625	1	health	trialStart	3	165	45	foodImage.102	FOODEEG_Images\0910.jpg	YN	Left	Yes	0.773940900107846	0	665169	251
1300.1953125	2	health	foodImageDisplay	3	165	45	foodImage.102	FOODEEG_Images\0910.jpg	YN	Left	Yes	0.773940900107846	0	665701	252
1302.255859375	0.773940900107846	health	choicePhaseStart	3	165	45	foodImage.102	FOODEEG_Images\0910.jpg	YN	Left	Yes	0.773940900107846	0	666756	253
1303.021484375	0	health	response	3	165	45	foodImage.102	FOODEEG_Images\0910.jpg	YN	Left	Yes	0.773940900107846	0	667148	234
1304.064453125	1	health	trialStart	3	166	46	foodImage.49	FOODEEG_Images\0515.jpg	NY	Right	Yes	2.95836639986373	0	667682	251
1305.10546875	2	health	foodImageDisplay	3	166	46	foodImage.49	FOODEEG_Images\0515.jpg	NY	Right	Yes	2.95836639986373	0	668215	252
1307.16796875	2.95836639986373	health	choicePhaseStart	3	166	46	foodImage.49	FOODEEG_Images\0515.jpg	NY	Right	Yes	2.95836639986373	0	669271	253
1310.1171875	0	health	response	3	166	46	foodImage.49	FOODEEG_Images\0515.jpg	NY	Right	Yes	2.95836639986373	0	670781	235
1311.16015625	1	taste	trialStart	3	167	47	foodImage.51	FOODEEG_Images\0536.jpg	YN	Left	Yes	1.00339889992028	0	671315	251
1312.203125	2	taste	foodImageDisplay	3	167	47	foodImage.51	FOODEEG_Images\0536.jpg	YN	Left	Yes	1.00339889992028	0	671849	252
1314.265625	1.00339889992028	taste	choicePhaseStart	3	167	47	foodImage.51	FOODEEG_Images\0536.jpg	YN	Left	Yes	1.00339889992028	0	672905	253
1315.26171875	0	taste	response	3	167	47	foodImage.51	FOODEEG_Images\0536.jpg	YN	Left	Yes	1.00339889992028	0	673415	234
1316.3046875	1	decision	trialStart	3	168	48	foodImage.23	FOODEEG_Images\0244.jpg	NY	Left	No	2.08887830004096	0	673949	251
1317.349609375	2	decision	foodImageDisplay	3	168	48	foodImage.23	FOODEEG_Images\0244.jpg	NY	Left	No	2.08887830004096	0	674484	252
1319.412109375	2.08887830004096	decision	choicePhaseStart	3	168	48	foodImage.23	FOODEEG_Images\0244.jpg	NY	Left	No	2.08887830004096	0	675540	253
1321.4921875	0	decision	response	3	168	48	foodImage.23	FOODEEG_Images\0244.jpg	NY	Left	No	2.08887830004096	0	676605	234
1322.541015625	1	decision	trialStart	3	169	49	foodImage.111	FOODEEG_Images\0919.jpg	YN	Right	No	1.29936560010538	0	677142	251
1323.580078125	2	decision	foodImageDisplay	3	169	49	foodImage.111	FOODEEG_Images\0919.jpg	YN	Right	No	1.29936560010538	0	677674	252
1325.642578125	1.29936560010538	decision	choicePhaseStart	3	169	49	foodImage.111	FOODEEG_Images\0919.jpg	YN	Right	No	1.29936560010538	0	678730	253
1326.931640625	0	decision	response	3	169	49	foodImage.111	FOODEEG_Images\0919.jpg	YN	Right	No	1.29936560010538	0	679390	235
1327.974609375	1	taste	trialStart	3	170	50	foodImage.31	FOODEEG_Images\0294.jpg	NY	Right	Yes	1.48411149997264	0	679924	251
1329.017578125	2	taste	foodImageDisplay	3	170	50	foodImage.31	FOODEEG_Images\0294.jpg	NY	Right	Yes	1.48411149997264	0	680458	252
1331.08203125	1.48411149997264	taste	choicePhaseStart	3	170	50	foodImage.31	FOODEEG_Images\0294.jpg	NY	Right	Yes	1.48411149997264	0	681515	253
1332.556640625	0	taste	response	3	170	50	foodImage.31	FOODEEG_Images\0294.jpg	NY	Right	Yes	1.48411149997264	0	682270	235
1333.599609375	1	health	trialStart	3	171	51	foodImage.113	FOODEEG_Images\0921.jpg	YN	Left	Yes	1.00924100005068	0	682804	251
1334.63671875	2	health	foodImageDisplay	3	171	51	foodImage.113	FOODEEG_Images\0921.jpg	YN	Left	Yes	1.00924100005068	0	683335	252
1336.69921875	1.00924100005068	health	choicePhaseStart	3	171	51	foodImage.113	FOODEEG_Images\0921.jpg	YN	Left	Yes	1.00924100005068	0	684391	253
1337.69921875	0	health	response	3	171	51	foodImage.113	FOODEEG_Images\0921.jpg	YN	Left	Yes	1.00924100005068	0	684903	234
1338.744140625	1	decision	trialStart	3	172	52	foodImage.58	FOODEEG_Images\0605.jpg	NY	Right	Yes	1.40188649995252	0	685438	251
1339.802734375	2	decision	foodImageDisplay	3	172	52	foodImage.58	FOODEEG_Images\0605.jpg	NY	Right	Yes	1.40188649995252	0	685980	252
1341.865234375	1.40188649995252	decision	choicePhaseStart	3	172	52	foodImage.58	FOODEEG_Images\0605.jpg	NY	Right	Yes	1.40188649995252	0	687036	253
1343.259765625	0	decision	response	3	172	52	foodImage.58	FOODEEG_Images\0605.jpg	NY	Right	Yes	1.40188649995252	0	687750	235
1344.302734375	1	taste	trialStart	3	173	53	foodImage.74	FOODEEG_Images\0752.jpg	YN	Left	Yes	1.57127449987456	0	688284	251
1345.34765625	2	taste	foodImageDisplay	3	173	53	foodImage.74	FOODEEG_Images\0752.jpg	YN	Left	Yes	1.57127449987456	0	688819	252
1347.41015625	1.57127449987456	taste	choicePhaseStart	3	173	53	foodImage.74	FOODEEG_Images\0752.jpg	YN	Left	Yes	1.57127449987456	0	689875	253
1348.970703125	0	taste	response	3	173	53	foodImage.74	FOODEEG_Images\0752.jpg	YN	Left	Yes	1.57127449987456	0	690674	234
1350.015625	1	taste	trialStart	3	174	54	foodImage.99	FOODEEG_Images\0907.jpg	YN	Left	Yes	1.23201739997603	0	691209	251
1351.0546875	2	taste	foodImageDisplay	3	174	54	foodImage.99	FOODEEG_Images\0907.jpg	YN	Left	Yes	1.23201739997603	0	691741	252
1353.1171875	1.23201739997603	taste	choicePhaseStart	3	174	54	foodImage.99	FOODEEG_Images\0907.jpg	YN	Left	Yes	1.23201739997603	0	692797	253
1354.33984375	0	taste	response	3	174	54	foodImage.99	FOODEEG_Images\0907.jpg	YN	Left	Yes	1.23201739997603	0	693423	234
1355.384765625	1	health	trialStart	3	175	55	foodImage.35	FOODEEG_Images\0350.jpg	YN	Left	Yes	1.71028340002522	0	693958	251
1356.423828125	2	health	foodImageDisplay	3	175	55	foodImage.35	FOODEEG_Images\0350.jpg	YN	Left	Yes	1.71028340002522	0	694490	252
1358.486328125	1.71028340002522	health	choicePhaseStart	3	175	55	foodImage.35	FOODEEG_Images\0350.jpg	YN	Left	Yes	1.71028340002522	0	695546	253
1360.1875	0	health	response	3	175	55	foodImage.35	FOODEEG_Images\0350.jpg	YN	Left	Yes	1.71028340002522	0	696417	234
1361.2265625	1	taste	trialStart	3	176	56	foodImage.116	FOODEEG_Images\0924.jpg	NY	Left	No	3.38154060021043	0	696949	251
1362.265625	2	taste	foodImageDisplay	3	176	56	foodImage.116	FOODEEG_Images\0924.jpg	NY	Left	No	3.38154060021043	0	697481	252
1364.333984375	3.38154060021043	taste	choicePhaseStart	3	176	56	foodImage.116	FOODEEG_Images\0924.jpg	NY	Left	No	3.38154060021043	0	698540	253
1367.70703125	0	taste	response	3	176	56	foodImage.116	FOODEEG_Images\0924.jpg	NY	Left	No	3.38154060021043	0	700267	234
1368.75	1	health	trialStart	3	177	57	foodImage.3	FOODEEG_Images\0046.jpg	YN	Right	No	1.30704169999808	0	700801	251
1369.794921875	2	health	foodImageDisplay	3	177	57	foodImage.3	FOODEEG_Images\0046.jpg	YN	Right	No	1.30704169999808	0	701336	252
1371.857421875	1.30704169999808	health	choicePhaseStart	3	177	57	foodImage.3	FOODEEG_Images\0046.jpg	YN	Right	No	1.30704169999808	0	702392	253
1373.154296875	0	health	response	3	177	57	foodImage.3	FOODEEG_Images\0046.jpg	YN	Right	No	1.30704169999808	0	703056	235
1374.1953125	1	taste	trialStart	3	178	58	foodImage.117	FOODEEG_Images\0925.jpg	YN	Right	No	1.46553150005639	0	703589	251
1375.232421875	2	taste	foodImageDisplay	3	178	58	foodImage.117	FOODEEG_Images\0925.jpg	YN	Right	No	1.46553150005639	0	704120	252
1377.296875	1.46553150005639	taste	choicePhaseStart	3	178	58	foodImage.117	FOODEEG_Images\0925.jpg	YN	Right	No	1.46553150005639	0	705177	253
1378.75390625	0	taste	response	3	178	58	foodImage.117	FOODEEG_Images\0925.jpg	YN	Right	No	1.46553150005639	0	705923	235
1379.802734375	1	health	trialStart	3	179	59	foodImage.93	FOODEEG_Images\0901.jpg	NY	Right	Yes	0.902637999970466	0	706460	251
1380.85546875	2	health	foodImageDisplay	3	179	59	foodImage.93	FOODEEG_Images\0901.jpg	NY	Right	Yes	0.902637999970466	0	706999	252
1382.91796875	0.902637999970466	health	choicePhaseStart	3	179	59	foodImage.93	FOODEEG_Images\0901.jpg	NY	Right	Yes	0.902637999970466	0	708055	253
1383.810546875	0	health	response	3	179	59	foodImage.93	FOODEEG_Images\0901.jpg	NY	Right	Yes	0.902637999970466	0	708512	235
1384.853515625	1	taste	trialStart	3	180	60	foodImage.46	FOODEEG_Images\0479.jpg	YN	Left	Yes	3.06939240009524	0	709046	251
1385.912109375	2	taste	foodImageDisplay	3	180	60	foodImage.46	FOODEEG_Images\0479.jpg	YN	Left	Yes	3.06939240009524	0	709588	252
1387.974609375	3.06939240009524	taste	choicePhaseStart	3	180	60	foodImage.46	FOODEEG_Images\0479.jpg	YN	Left	Yes	3.06939240009524	0	710644	253
1391.033203125	0	taste	response	3	180	60	foodImage.46	FOODEEG_Images\0479.jpg	YN	Left	Yes	3.06939240009524	0	712210	234
1393.076171875	10.90625	n/a	blockEnd	n/a	n/a	n/a	n/a	n/a	n/a	n/a	n/a	n/a	n/a	713256	254
1403.982421875	2	n/a	blockStart	4	n/a	n/a	n/a	n/a	n/a	n/a	n/a	n/a	n/a	718840	250
1406.013671875	1	health	trialStart	4	181	1	foodImage.43	FOODEEG_Images\0445.jpg	YN	Left	Yes	0.930813299957663	0	719880	251
1407.072265625	2	health	foodImageDisplay	4	181	1	foodImage.43	FOODEEG_Images\0445.jpg	YN	Left	Yes	0.930813299957663	0	720422	252
1409.134765625	0.930813299957663	health	choicePhaseStart	4	181	1	foodImage.43	FOODEEG_Images\0445.jpg	YN	Left	Yes	0.930813299957663	0	721478	253
1410.056640625	0	health	response	4	181	1	foodImage.43	FOODEEG_Images\0445.jpg	YN	Left	Yes	0.930813299957663	0	721950	234
1411.099609375	1	taste	trialStart	4	182	2	foodImage.28	FOODEEG_Images\0273.jpg	YN	Right	No	1.11595909995958	0	722484	251
1412.142578125	2	taste	foodImageDisplay	4	182	2	foodImage.28	FOODEEG_Images\0273.jpg	YN	Right	No	1.11595909995958	0	723018	252
1414.205078125	1.11595909995958	taste	choicePhaseStart	4	182	2	foodImage.28	FOODEEG_Images\0273.jpg	YN	Right	No	1.11595909995958	0	724074	253
1415.3125	0	taste	response	4	182	2	foodImage.28	FOODEEG_Images\0273.jpg	YN	Right	No	1.11595909995958	0	724641	235
1416.35546875	1	decision	trialStart	4	183	3	foodImage.90	FOODEEG_Images\0890.jpg	NY	Left	No	0.938441900070757	0	725175	251
1417.4140625	2	decision	foodImageDisplay	4	183	3	foodImage.90	FOODEEG_Images\0890.jpg	NY	Left	No	0.938441900070757	0	725717	252
1419.478515625	0.938441900070757	decision	choicePhaseStart	4	183	3	foodImage.90	FOODEEG_Images\0890.jpg	NY	Left	No	0.938441900070757	0	726774	253
1420.408203125	0	decision	response	4	183	3	foodImage.90	FOODEEG_Images\0890.jpg	NY	Left	No	0.938441900070757	0	727250	234
1421.453125	1	health	trialStart	4	184	4	foodImage.61	FOODEEG_Images\0640.jpg	NY	Right	Yes	0.938828199869022	0	727785	251
1422.49609375	2	health	foodImageDisplay	4	184	4	foodImage.61	FOODEEG_Images\0640.jpg	NY	Right	Yes	0.938828199869022	0	728319	252
1424.55859375	0.938828199869022	health	choicePhaseStart	4	184	4	foodImage.61	FOODEEG_Images\0640.jpg	NY	Right	Yes	0.938828199869022	0	729375	253
1425.48828125	0	health	response	4	184	4	foodImage.61	FOODEEG_Images\0640.jpg	NY	Right	Yes	0.938828199869022	0	729851	235
1426.53125	1	taste	trialStart	4	185	5	foodImage.91	FOODEEG_Images\0896.jpg	YN	Left	Yes	1.62934749992564	0	730385	251
1427.58984375	2	taste	foodImageDisplay	4	185	5	foodImage.91	FOODEEG_Images\0896.jpg	YN	Left	Yes	1.62934749992564	0	730927	252
1429.65234375	1.62934749992564	taste	choicePhaseStart	4	185	5	foodImage.91	FOODEEG_Images\0896.jpg	YN	Left	Yes	1.62934749992564	0	731983	253
1431.271484375	0	taste	response	4	185	5	foodImage.91	FOODEEG_Images\0896.jpg	YN	Left	Yes	1.62934749992564	0	732812	234
1432.314453125	1	taste	trialStart	4	186	6	foodImage.97	FOODEEG_Images\0905.jpg	YN	Right	No	0.751660000067204	0	733346	251
1433.35546875	2	taste	foodImageDisplay	4	186	6	foodImage.97	FOODEEG_Images\0905.jpg	YN	Right	No	0.751660000067204	0	733879	252
1435.41796875	0.751660000067204	taste	choicePhaseStart	4	186	6	foodImage.97	FOODEEG_Images\0905.jpg	YN	Right	No	0.751660000067204	0	734935	253
1436.16015625	0	taste	response	4	186	6	foodImage.97	FOODEEG_Images\0905.jpg	YN	Right	No	0.751660000067204	0	735315	235
1437.203125	1	health	trialStart	4	187	7	foodImage.31	FOODEEG_Images\0294.jpg	YN	Right	No	1.48579189996235	0	735849	251
1438.24609375	2	health	foodImageDisplay	4	187	7	foodImage.31	FOODEEG_Images\0294.jpg	YN	Right	No	1.48579189996235	0	736383	252
1440.30859375	1.48579189996235	health	choicePhaseStart	4	187	7	foodImage.31	FOODEEG_Images\0294.jpg	YN	Right	No	1.48579189996235	0	737439	253
1441.783203125	0	health	response	4	187	7	foodImage.31	FOODEEG_Images\0294.jpg	YN	Right	No	1.48579189996235	0	738194	235
1442.828125	1	decision	trialStart	4	188	8	foodImage.74	FOODEEG_Images\0752.jpg	NY	Right	Yes	1.51522390008904	0	738729	251
1443.873046875	2	decision	foodImageDisplay	4	188	8	foodImage.74	FOODEEG_Images\0752.jpg	NY	Right	Yes	1.51522390008904	0	739264	252
1445.935546875	1.51522390008904	decision	choicePhaseStart	4	188	8	foodImage.74	FOODEEG_Images\0752.jpg	NY	Right	Yes	1.51522390008904	0	740320	253
1447.439453125	0	decision	response	4	188	8	foodImage.74	FOODEEG_Images\0752.jpg	NY	Right	Yes	1.51522390008904	0	741090	235
1448.484375	1	taste	trialStart	4	189	9	foodImage.60	FOODEEG_Images\0614.jpg	NY	Right	Yes	5.00096450001001	1	741625	251
1449.552734375	2	taste	foodImageDisplay	4	189	9	foodImage.60	FOODEEG_Images\0614.jpg	NY	Right	Yes	5.00096450001001	1	742172	252
1451.615234375	5.00096450001001	taste	choicePhaseStart	4	189	9	foodImage.60	FOODEEG_Images\0614.jpg	NY	Right	Yes	5.00096450001001	1	743228	253
1456.607421875	0	taste	response	4	189	9	foodImage.60	FOODEEG_Images\0614.jpg	NY	Right	Yes	5.00096450001001	1	745784	235
1457.6484375	1	health	trialStart	4	190	10	foodImage.70	FOODEEG_Images\0705.jpg	YN	Right	No	1.46986750001088	0	746317	251
1458.705078125	2	health	foodImageDisplay	4	190	10	foodImage.70	FOODEEG_Images\0705.jpg	YN	Right	No	1.46986750001088	0	746858	252
1460.767578125	1.46986750001088	health	choicePhaseStart	4	190	10	foodImage.70	FOODEEG_Images\0705.jpg	YN	Right	No	1.46986750001088	0	747914	253
1462.23046875	0	health	response	4	190	10	foodImage.70	FOODEEG_Images\0705.jpg	YN	Right	No	1.46986750001088	0	748663	235
1463.2734375	1	decision	trialStart	4	191	11	foodImage.35	FOODEEG_Images\0350.jpg	NY	Right	Yes	1.51944810012355	0	749197	251
1464.314453125	2	decision	foodImageDisplay	4	191	11	foodImage.35	FOODEEG_Images\0350.jpg	NY	Right	Yes	1.51944810012355	0	749730	252
1466.376953125	1.51944810012355	decision	choicePhaseStart	4	191	11	foodImage.35	FOODEEG_Images\0350.jpg	NY	Right	Yes	1.51944810012355	0	750786	253
1467.88671875	0	decision	response	4	191	11	foodImage.35	FOODEEG_Images\0350.jpg	NY	Right	Yes	1.51944810012355	0	751559	235
1468.935546875	1	health	trialStart	4	192	12	foodImage.32	FOODEEG_Images\0319.jpg	NY	Right	Yes	0.880367300007492	0	752096	251
1469.978515625	2	health	foodImageDisplay	4	192	12	foodImage.32	FOODEEG_Images\0319.jpg	NY	Right	Yes	0.880367300007492	0	752630	252
1472.041015625	0.880367300007492	health	choicePhaseStart	4	192	12	foodImage.32	FOODEEG_Images\0319.jpg	NY	Right	Yes	0.880367300007492	0	753686	253
1472.91015625	0	health	response	4	192	12	foodImage.32	FOODEEG_Images\0319.jpg	NY	Right	Yes	0.880367300007492	0	754131	235
1473.953125	1	health	trialStart	4	193	13	foodImage.111	FOODEEG_Images\0919.jpg	YN	Right	No	1.83353199996054	0	754665	251
1474.9921875	2	health	foodImageDisplay	4	193	13	foodImage.111	FOODEEG_Images\0919.jpg	YN	Right	No	1.83353199996054	0	755197	252
1477.0546875	1.83353199996054	health	choicePhaseStart	4	193	13	foodImage.111	FOODEEG_Images\0919.jpg	YN	Right	No	1.83353199996054	0	756253	253
1478.87890625	0	health	response	4	193	13	foodImage.111	FOODEEG_Images\0919.jpg	YN	Right	No	1.83353199996054	0	757187	235
1479.919921875	1	decision	trialStart	4	194	14	foodImage.6	FOODEEG_Images\0113.jpg	NY	Right	Yes	1.76858639996499	0	757720	251
1480.9609375	2	decision	foodImageDisplay	4	194	14	foodImage.6	FOODEEG_Images\0113.jpg	NY	Right	Yes	1.76858639996499	0	758253	252
1483.0234375	1.76858639996499	decision	choicePhaseStart	4	194	14	foodImage.6	FOODEEG_Images\0113.jpg	NY	Right	Yes	1.76858639996499	0	759309	253
1484.78125	0	decision	response	4	194	14	foodImage.6	FOODEEG_Images\0113.jpg	NY	Right	Yes	1.76858639996499	0	760209	235
1485.82421875	1	decision	trialStart	4	195	15	foodImage.57	FOODEEG_Images\0587.jpg	NY	Right	Yes	1.52938359999098	0	760743	251
