onset	duration	trial_type	event_type	block	trial_total	trial_in_block	food_image_code	food_image_path	button_position	resp_position	resp_choice	choice_rt	resp_too_slow	sample	trigger
523.78515625	2	n/a	blockStart	1	n/a	n/a	n/a	n/a	n/a	n/a	n/a	n/a	n/a	268179	250
525.82421875	1	health	trialStart	1	1	1	foodImage.96	FOODEEG_Images\0904.jpg	YN	Left	Yes	1.74408529998618	0	269223	251
526.869140625	2	health	foodImageDisplay	1	1	1	foodImage.96	FOODEEG_Images\0904.jpg	YN	Left	Yes	1.74408529998618	0	269758	252
528.935546875	1.74408529998618	health	choicePhaseStart	1	1	1	foodImage.96	FOODEEG_Images\0904.jpg	YN	Left	Yes	1.74408529998618	0	270816	253
530.671875	0	health	response	1	1	1	foodImage.96	FOODEEG_Images\0904.jpg	YN	Left	Yes	1.74408529998618	0	271705	234
531.76953125	1	health	trialStart	1	2	2	foodImage.61	FOODEEG_Images\0640.jpg	YN	Left	Yes	1.29690339999797	0	272267	251
532.8125	2	health	foodImageDisplay	1	2	2	foodImage.61	FOODEEG_Images\0640.jpg	YN	Left	Yes	1.29690339999797	0	272801	252
534.876953125	1.29690339999797	health	choicePhaseStart	1	2	2	foodImage.61	FOODEEG_Images\0640.jpg	YN	Left	Yes	1.29690339999797	0	273858	253
536.16796875	0	health	response	1	2	2	foodImage.61	FOODEEG_Images\0640.jpg	YN	Left	Yes	1.29690339999797	0	274519	234
537.2265625	1	decision	trialStart	1	3	3	foodImage.51	FOODEEG_Images\0536.jpg	NY	Left	No	1.71584489999805	0	275061	251
538.275390625	2	decision	foodImageDisplay	1	3	3	foodImage.51	FOODEEG_Images\0536.jpg	NY	Left	No	1.71584489999805	0	275598	252
540.337890625	1.71584489999805	decision	choicePhaseStart	1	3	3	foodImage.51	FOODEEG_Images\0536.jpg	NY	Left	No	1.71584489999805	0	276654	253
542.046875	0	decision	response	1	3	3	foodImage.51	FOODEEG_Images\0536.jpg	NY	Left	No	1.71584489999805	0	277529	234
543.091796875	1	decision	trialStart	1	4	4	foodImage.93	FOODEEG_Images\0901.jpg	YN	Right	No	1.71754889999283	0	278064	251
544.130859375	2	decision	foodImageDisplay	1	4	4	foodImage.93	FOODEEG_Images\0901.jpg	YN	Right	No	1.71754889999283	0	278596	252
546.1953125	1.71754889999283	decision	choicePhaseStart	1	4	4	foodImage.93	FOODEEG_Images\0901.jpg	YN	Right	No	1.71754889999283	0	279653	253
547.90234375	0	decision	response	1	4	4	foodImage.93	FOODEEG_Images\0901.jpg	YN	Right	No	1.71754889999283	0	280527	235
548.947265625	1	taste	trialStart	1	5	5	foodImage.61	FOODEEG_Images\0640.jpg	NY	Right	Yes	1.43070050000097	0	281062	251
549.9921875	2	taste	foodImageDisplay	1	5	5	foodImage.61	FOODEEG_Images\0640.jpg	NY	Right	Yes	1.43070050000097	0	281597	252
552.064453125	1.43070050000097	taste	choicePhaseStart	1	5	5	foodImage.61	FOODEEG_Images\0640.jpg	NY	Right	Yes	1.43070050000097	0	282658	253
553.486328125	0	taste	response	1	5	5	foodImage.61	FOODEEG_Images\0640.jpg	NY	Right	Yes	1.43070050000097	0	283386	235
554.541015625	1	health	trialStart	1	6	6	foodImage.19	FOODEEG_Images\0225.jpg	NY	Right	Yes	1.92913470001076	0	283926	251
555.583984375	2	health	foodImageDisplay	1	6	6	foodImage.19	FOODEEG_Images\0225.jpg	NY	Right	Yes	1.92913470001076	0	284460	252
557.646484375	1.92913470001076	health	choicePhaseStart	1	6	6	foodImage.19	FOODEEG_Images\0225.jpg	NY	Right	Yes	1.92913470001076	0	285516	253
559.56640625	0	health	response	1	6	6	foodImage.19	FOODEEG_Images\0225.jpg	NY	Right	Yes	1.92913470001076	0	286499	235
560.609375	1	decision	trialStart	1	7	7	foodImage.31	FOODEEG_Images\0294.jpg	NY	Right	Yes	2.72631680000632	0	287033	251
561.65234375	2	decision	foodImageDisplay	1	7	7	foodImage.31	FOODEEG_Images\0294.jpg	NY	Right	Yes	2.72631680000632	0	287567	252
563.720703125	2.72631680000632	decision	choicePhaseStart	1	7	7	foodImage.31	FOODEEG_Images\0294.jpg	NY	Right	Yes	2.72631680000632	0	288626	253
566.439453125	0	decision	response	1	7	7	foodImage.31	FOODEEG_Images\0294.jpg	NY	Right	Yes	2.72631680000632	0	290018	235
567.484375	1	health	trialStart	1	8	8	foodImage.107	FOODEEG_Images\0915.jpg	YN	Left	Yes	1.37333499999659	0	290553	251
568.5234375	2	health	foodImageDisplay	1	8	8	foodImage.107	FOODEEG_Images\0915.jpg	YN	Left	Yes	1.37333499999659	0	291085	252
570.5859375	1.37333499999659	health	choicePhaseStart	1	8	8	foodImage.107	FOODEEG_Images\0915.jpg	YN	Left	Yes	1.37333499999659	0	292141	253
571.951171875	0	health	response	1	8	8	foodImage.107	FOODEEG_Images\0915.jpg	YN	Left	Yes	1.37333499999659	0	292840	234
572.994140625	1	decision	trialStart	1	9	9	foodImage.61	FOODEEG_Images\0640.jpg	NY	Right	Yes	1.18248139999923	0	293374	251
574.03515625	2	decision	foodImageDisplay	1	9	9	foodImage.61	FOODEEG_Images\0640.jpg	NY	Right	Yes	1.18248139999923	0	293907	252
576.09765625	1.18248139999923	decision	choicePhaseStart	1	9	9	foodImage.61	FOODEEG_Images\0640.jpg	NY	Right	Yes	1.18248139999923	0	294963	253
577.279296875	0	decision	response	1	9	9	foodImage.61	FOODEEG_Images\0640.jpg	NY	Right	Yes	1.18248139999923	0	295568	235
578.322265625	1	decision	trialStart	1	10	10	foodImage.105	FOODEEG_Images\0913.jpg	NY	Left	No	1.42030729999533	0	296102	251
579.361328125	2	decision	foodImageDisplay	1	10	10	foodImage.105	FOODEEG_Images\0913.jpg	NY	Left	No	1.42030729999533	0	296634	252
581.42578125	1.42030729999533	decision	choicePhaseStart	1	10	10	foodImage.105	FOODEEG_Images\0913.jpg	NY	Left	No	1.42030729999533	0	297691	253
582.837890625	0	decision	response	1	10	10	foodImage.105	FOODEEG_Images\0913.jpg	NY	Left	No	1.42030729999533	0	298414	234
583.8828125	1	health	trialStart	1	11	11	foodImage.75	FOODEEG_Images\0763.jpg	NY	Right	Yes	1.54279250001127	0	298949	251
584.927734375	2	health	foodImageDisplay	1	11	11	foodImage.75	FOODEEG_Images\0763.jpg	NY	Right	Yes	1.54279250001127	0	299484	252
586.9921875	1.54279250001127	health	choicePhaseStart	1	11	11	foodImage.75	FOODEEG_Images\0763.jpg	NY	Right	Yes	1.54279250001127	0	300541	253
588.525390625	0	health	response	1	11	11	foodImage.75	FOODEEG_Images\0763.jpg	NY	Right	Yes	1.54279250001127	0	301326	235
589.5703125	1	taste	trialStart	1	12	12	foodImage.23	FOODEEG_Images\0244.jpg	YN	Right	No	1.55085250000411	0	301861	251
590.611328125	2	taste	foodImageDisplay	1	12	12	foodImage.23	FOODEEG_Images\0244.jpg	YN	Right	No	1.55085250000411	0	302394	252
592.673828125	1.55085250000411	taste	choicePhaseStart	1	12	12	foodImage.23	FOODEEG_Images\0244.jpg	YN	Right	No	1.55085250000411	0	303450	253
594.220703125	0	taste	response	1	12	12	foodImage.23	FOODEEG_Images\0244.jpg	YN	Right	No	1.55085250000411	0	304242	235
595.263671875	1	decision	trialStart	1	13	13	foodImage.55	FOODEEG_Images\0567.jpg	YN	Left	Yes	1.4362237000023	0	304776	251
596.322265625	2	decision	foodImageDisplay	1	13	13	foodImage.55	FOODEEG_Images\0567.jpg	YN	Left	Yes	1.4362237000023	0	305318	252
598.38671875	1.4362237000023	decision	choicePhaseStart	1	13	13	foodImage.55	FOODEEG_Images\0567.jpg	YN	Left	Yes	1.4362237000023	0	306375	253
599.8125	0	decision	response	1	13	13	foodImage.55	FOODEEG_Images\0567.jpg	YN	Left	Yes	1.4362237000023	0	307105	234
600.85546875	1	health	trialStart	1	14	14	foodImage.81	FOODEEG_Images\0797.jpg	NY	Right	Yes	0.974134300005971	0	307639	251
601.9140625	2	health	foodImageDisplay	1	14	14	foodImage.81	FOODEEG_Images\0797.jpg	NY	Right	Yes	0.974134300005971	0	308181	252
603.9765625	0.974134300005971	health	choicePhaseStart	1	14	14	foodImage.81	FOODEEG_Images\0797.jpg	NY	Right	Yes	0.974134300005971	0	309237	253
604.94140625	0	health	response	1	14	14	foodImage.81	FOODEEG_Images\0797.jpg	NY	Right	Yes	0.974134300005971	0	309731	235
605.984375	1	decision	trialStart	1	15	15	foodImage.21	FOODEEG_Images\0234.jpg	NY	Right	Yes	0.941845699999249	0	310265	251
607.04296875	2	decision	foodImageDisplay	1	15	15	foodImage.21	FOODEEG_Images\0234.jpg	NY	Right	Yes	0.941845699999249	0	310807	252
609.10546875	0.941845699999249	decision	choicePhaseStart	1	15	15	foodImage.21	FOODEEG_Images\0234.jpg	NY	Right	Yes	0.941845699999249	0	311863	253
610.037109375	0	decision	response	1	15	15	foodImage.21	FOODEEG_Images\0234.jpg	NY	Right	Yes	0.941845699999249	0	312340	235
611.080078125	1	decision	trialStart	1	16	16	foodImage.15	FOODEEG_Images\0189.jpg	YN	Left	Yes	1.51718599999731	0	312874	251
612.13671875	2	decision	foodImageDisplay	1	16	16	foodImage.15	FOODEEG_Images\0189.jpg	YN	Left	Yes	1.51718599999731	0	313415	252
614.201171875	1.51718599999731	decision	choicePhaseStart	1	16	16	foodImage.15	FOODEEG_Images\0189.jpg	YN	Left	Yes	1.51718599999731	0	314472	253
615.708984375	0	decision	response	1	16	16	foodImage.15	FOODEEG_Images\0189.jpg	YN	Left	Yes	1.51718599999731	0	315244	234
616.75	1	decision	trialStart	1	17	17	foodImage.85	FOODEEG_Images\0841.jpg	NY	Right	Yes	1.09173259999079	0	315777	251
617.810546875	2	decision	foodImageDisplay	1	17	17	foodImage.85	FOODEEG_Images\0841.jpg	NY	Right	Yes	1.09173259999079	0	316320	252
619.875	1.09173259999079	decision	choicePhaseStart	1	17	17	foodImage.85	FOODEEG_Images\0841.jpg	NY	Right	Yes	1.09173259999079	0	317377	253
620.95703125	0	decision	response	1	17	17	foodImage.85	FOODEEG_Images\0841.jpg	NY	Right	Yes	1.09173259999079	0	317931	235
622	1	health	trialStart	1	18	18	foodImage.99	FOODEEG_Images\0907.jpg	NY	Left	No	2.05372139999236	0	318465	251
623.037109375	2	health	foodImageDisplay	1	18	18	foodImage.99	FOODEEG_Images\0907.jpg	NY	Left	No	2.05372139999236	0	318996	252
625.103515625	2.05372139999236	health	choicePhaseStart	1	18	18	foodImage.99	FOODEEG_Images\0907.jpg	NY	Left	No	2.05372139999236	0	320054	253
627.1484375	0	health	response	1	18	18	foodImage.99	FOODEEG_Images\0907.jpg	NY	Left	No	2.05372139999236	0	321101	234
628.19140625	1	health	trialStart	1	19	19	foodImage.78	FOODEEG_Images\0787.jpg	YN	Left	Yes	1.00748709999607	0	321635	251
629.236328125	2	health	foodImageDisplay	1	19	19	foodImage.78	FOODEEG_Images\0787.jpg	YN	Left	Yes	1.00748709999607	0	322170	252
631.298828125	1.00748709999607	health	choicePhaseStart	1	19	19	foodImage.78	FOODEEG_Images\0787.jpg	YN	Left	Yes	1.00748709999607	0	323226	253
632.30078125	0	health	response	1	19	19	foodImage.78	FOODEEG_Images\0787.jpg	YN	Left	Yes	1.00748709999607	0	323739	234
633.34375	1	decision	trialStart	1	20	20	foodImage.17	FOODEEG_Images\0199.jpg	YN	Left	Yes	1.27559969999129	0	324273	251
634.384765625	2	decision	foodImageDisplay	1	20	20	foodImage.17	FOODEEG_Images\0199.jpg	YN	Left	Yes	1.27559969999129	0	324806	252
636.44921875	1.27559969999129	decision	choicePhaseStart	1	20	20	foodImage.17	FOODEEG_Images\0199.jpg	YN	Left	Yes	1.27559969999129	0	325863	253
637.716796875	0	decision	response	1	20	20	foodImage.17	FOODEEG_Images\0199.jpg	YN	Left	Yes	1.27559969999129	0	326512	234
638.759765625	1	decision	trialStart	1	21	21	foodImage.117	FOODEEG_Images\0925.jpg	NY	Left	No	1.78434149999521	0	327046	251
639.796875	2	decision	foodImageDisplay	1	21	21	foodImage.117	FOODEEG_Images\0925.jpg	NY	Left	No	1.78434149999521	0	327577	252
641.861328125	1.78434149999521	decision	choicePhaseStart	1	21	21	foodImage.117	FOODEEG_Images\0925.jpg	NY	Left	No	1.78434149999521	0	328634	253
643.634765625	0	decision	response	1	21	21	foodImage.117	FOODEEG_Images\0925.jpg	NY	Left	No	1.78434149999521	0	329542	234
644.6796875	1	decision	trialStart	1	22	22	foodImage.28	FOODEEG_Images\0273.jpg	NY	Right	Yes	0.93293039999844	0	330077	251
645.720703125	2	decision	foodImageDisplay	1	22	22	foodImage.28	FOODEEG_Images\0273.jpg	NY	Right	Yes	0.93293039999844	0	330610	252
647.78515625	0.93293039999844	decision	choicePhaseStart	1	22	22	foodImage.28	FOODEEG_Images\0273.jpg	NY	Right	Yes	0.93293039999844	0	331667	253
648.70703125	0	decision	response	1	22	22	foodImage.28	FOODEEG_Images\0273.jpg	NY	Right	Yes	0.93293039999844	0	332139	235
649.75	1	taste	trialStart	1	23	23	foodImage.85	FOODEEG_Images\0841.jpg	YN	Left	Yes	1.31059330000426	0	332673	251
650.806640625	2	taste	foodImageDisplay	1	23	23	foodImage.85	FOODEEG_Images\0841.jpg	YN	Left	Yes	1.31059330000426	0	333214	252
652.87109375	1.31059330000426	taste	choicePhaseStart	1	23	23	foodImage.85	FOODEEG_Images\0841.jpg	YN	Left	Yes	1.31059330000426	0	334271	253
654.171875	0	taste	response	1	23	23	foodImage.85	FOODEEG_Images\0841.jpg	YN	Left	Yes	1.31059330000426	0	334937	234
655.21875	1	health	trialStart	1	24	24	foodImage.65	FOODEEG_Images\0658.jpg	YN	Right	No	1.95210979999683	0	335473	251
656.26171875	2	health	foodImageDisplay	1	24	24	foodImage.65	FOODEEG_Images\0658.jpg	YN	Right	No	1.95210979999683	0	336007	252
658.32421875	1.95210979999683	health	choicePhaseStart	1	24	24	foodImage.65	FOODEEG_Images\0658.jpg	YN	Right	No	1.95210979999683	0	337063	253
660.267578125	0	health	response	1	24	24	foodImage.65	FOODEEG_Images\0658.jpg	YN	Right	No	1.95210979999683	0	338058	235
661.30859375	1	taste	trialStart	1	25	25	foodImage.40	FOODEEG_Images\0373.jpg	NY	Right	Yes	0.935307400010061	0	338591	251
662.349609375	2	taste	foodImageDisplay	1	25	25	foodImage.40	FOODEEG_Images\0373.jpg	NY	Right	Yes	0.935307400010061	0	339124	252
664.412109375	0.935307400010061	taste	choicePhaseStart	1	25	25	foodImage.40	FOODEEG_Images\0373.jpg	NY	Right	Yes	0.935307400010061	0	340180	253
665.33984375	0	taste	response	1	25	25	foodImage.40	FOODEEG_Images\0373.jpg	NY	Right	Yes	0.935307400010061	0	340655	235
666.3828125	1	taste	trialStart	1	26	26	foodImage.17	FOODEEG_Images\0199.jpg	NY	Right	Yes	1.78687310000532	0	341189	251
667.423828125	2	taste	foodImageDisplay	1	26	26	foodImage.17	FOODEEG_Images\0199.jpg	NY	Right	Yes	1.78687310000532	0	341722	252
669.490234375	1.78687310000532	taste	choicePhaseStart	1	26	26	foodImage.17	FOODEEG_Images\0199.jpg	NY	Right	Yes	1.78687310000532	0	342780	253
671.267578125	0	taste	response	1	26	26	foodImage.17	FOODEEG_Images\0199.jpg	NY	Right	Yes	1.78687310000532	0	343690	235
672.30859375	1	health	trialStart	1	27	27	foodImage.101	FOODEEG_Images\0909.jpg	YN	Right	No	2.42536130000371	0	344223	251
673.34765625	2	health	foodImageDisplay	1	27	27	foodImage.101	FOODEEG_Images\0909.jpg	YN	Right	No	2.42536130000371	0	344755	252
675.41015625	2.42536130000371	health	choicePhaseStart	1	27	27	foodImage.101	FOODEEG_Images\0909.jpg	YN	Right	No	2.42536130000371	0	345811	253
677.826171875	0	health	response	1	27	27	foodImage.101	FOODEEG_Images\0909.jpg	YN	Right	No	2.42536130000371	0	347048	235
678.869140625	1	taste	trialStart	1	28	28	foodImage.34	FOODEEG_Images\0339.jpg	NY	Left	No	1.57042230000661	0	347582	251
679.927734375	2	taste	foodImageDisplay	1	28	28	foodImage.34	FOODEEG_Images\0339.jpg	NY	Left	No	1.57042230000661	0	348124	252
681.994140625	1.57042230000661	taste	choicePhaseStart	1	28	28	foodImage.34	FOODEEG_Images\0339.jpg	NY	Left	No	1.57042230000661	0	349182	253
683.5546875	0	taste	response	1	28	28	foodImage.34	FOODEEG_Images\0339.jpg	NY	Left	No	1.57042230000661	0	349981	234
684.59765625	1	taste	trialStart	1	29	29	foodImage.12	FOODEEG_Images\0181.jpg	NY	Right	Yes	1.43032549999771	0	350515	251
685.638671875	2	taste	foodImageDisplay	1	29	29	foodImage.12	FOODEEG_Images\0181.jpg	NY	Right	Yes	1.43032549999771	0	351048	252
687.701171875	1.43032549999771	taste	choicePhaseStart	1	29	29	foodImage.12	FOODEEG_Images\0181.jpg	NY	Right	Yes	1.43032549999771	0	352104	253
689.123046875	0	taste	response	1	29	29	foodImage.12	FOODEEG_Images\0181.jpg	NY	Right	Yes	1.43032549999771	0	352832	235
690.166015625	1	taste	trialStart	1	30	30	foodImage.59	FOODEEG_Images\0607.jpg	YN	Right	No	2.07006759999786	0	353366	251
691.21484375	2	taste	foodImageDisplay	1	30	30	foodImage.59	FOODEEG_Images\0607.jpg	YN	Right	No	2.07006759999786	0	353903	252
693.27734375	2.07006759999786	taste	choicePhaseStart	1	30	30	foodImage.59	FOODEEG_Images\0607.jpg	YN	Right	No	2.07006759999786	0	354959	253
695.337890625	0	taste	response	1	30	30	foodImage.59	FOODEEG_Images\0607.jpg	YN	Right	No	2.07006759999786	0	356014	235
696.380859375	1	health	trialStart	1	31	31	foodImage.14	FOODEEG_Images\0188.jpg	YN	Left	Yes	1.04435639998701	0	356548	251
697.439453125	2	health	foodImageDisplay	1	31	31	foodImage.14	FOODEEG_Images\0188.jpg	YN	Left	Yes	1.04435639998701	0	357090	252
699.50390625	1.04435639998701	health	choicePhaseStart	1	31	31	foodImage.14	FOODEEG_Images\0188.jpg	YN	Left	Yes	1.04435639998701	0	358147	253
700.537109375	0	health	response	1	31	31	foodImage.14	FOODEEG_Images\0188.jpg	YN	Left	Yes	1.04435639998701	0	358676	234
701.580078125	1	decision	trialStart	1	32	32	foodImage.94	FOODEEG_Images\0902.jpg	NY	Left	No	1.43270289999782	0	359210	251
702.619140625	2	decision	foodImageDisplay	1	32	32	foodImage.94	FOODEEG_Images\0902.jpg	NY	Left	No	1.43270289999782	0	359742	252
704.68359375	1.43270289999782	decision	choicePhaseStart	1	32	32	foodImage.94	FOODEEG_Images\0902.jpg	NY	Left	No	1.43270289999782	0	360799	253
706.10546875	0	decision	response	1	32	32	foodImage.94	FOODEEG_Images\0902.jpg	NY	Left	No	1.43270289999782	0	361527	234
707.1484375	1	decision	trialStart	1	33	33	foodImage.5	FOODEEG_Images\0107.jpg	YN	Left	Yes	1.18803210000624	0	362061	251
708.20703125	2	decision	foodImageDisplay	1	33	33	foodImage.5	FOODEEG_Images\0107.jpg	YN	Left	Yes	1.18803210000624	0	362603	252
710.271484375	1.18803210000624	decision	choicePhaseStart	1	33	33	foodImage.5	FOODEEG_Images\0107.jpg	YN	Left	Yes	1.18803210000624	0	363660	253
711.44921875	0	decision	response	1	33	33	foodImage.5	FOODEEG_Images\0107.jpg	YN	Left	Yes	1.18803210000624	0	364263	234
712.4921875	1	decision	trialStart	1	34	34	foodImage.92	FOODEEG_Images\0900.jpg	YN	Right	No	1.15221169999859	0	364797	251
713.53125	2	decision	foodImageDisplay	1	34	34	foodImage.92	FOODEEG_Images\0900.jpg	YN	Right	No	1.15221169999859	0	365329	252
715.6015625	1.15221169999859	decision	choicePhaseStart	1	34	34	foodImage.92	FOODEEG_Images\0900.jpg	YN	Right	No	1.15221169999859	0	366389	253
716.74609375	0	decision	response	1	34	34	foodImage.92	FOODEEG_Images\0900.jpg	YN	Right	No	1.15221169999859	0	366975	235
717.7890625	1	taste	trialStart	1	35	35	foodImage.83	FOODEEG_Images\0827.jpg	YN	Left	Yes	1.08320020000974	0	367509	251
718.84765625	2	taste	foodImageDisplay	1	35	35	foodImage.83	FOODEEG_Images\0827.jpg	YN	Left	Yes	1.08320020000974	0	368051	252
720.912109375	1.08320020000974	taste	choicePhaseStart	1	35	35	foodImage.83	FOODEEG_Images\0827.jpg	YN	Left	Yes	1.08320020000974	0	369108	253
721.984375	0	taste	response	1	35	35	foodImage.83	FOODEEG_Images\0827.jpg	YN	Left	Yes	1.08320020000974	0	369657	234
723.033203125	1	health	trialStart	1	36	36	foodImage.18	FOODEEG_Images\0202.jpg	YN	Left	Yes	0.942102999993949	0	370194	251
724.09375	2	health	foodImageDisplay	1	36	36	foodImage.18	FOODEEG_Images\0202.jpg	YN	Left	Yes	0.942102999993949	0	370737	252
726.15625	0.942102999993949	health	choicePhaseStart	1	36	36	foodImage.18	FOODEEG_Images\0202.jpg	YN	Left	Yes	0.942102999993949	0	371793	253
727.08984375	0	health	response	1	36	36	foodImage.18	FOODEEG_Images\0202.jpg	YN	Left	Yes	0.942102999993949	0	372271	234
728.1328125	1	decision	trialStart	1	37	37	foodImage.60	FOODEEG_Images\0614.jpg	NY	Right	Yes	0.953318799991393	0	372805	251
729.19140625	2	decision	foodImageDisplay	1	37	37	foodImage.60	FOODEEG_Images\0614.jpg	NY	Right	Yes	0.953318799991393	0	373347	252
731.2578125	0.953318799991393	decision	choicePhaseStart	1	37	37	foodImage.60	FOODEEG_Images\0614.jpg	NY	Right	Yes	0.953318799991393	0	374405	253
732.201171875	0	decision	response	1	37	37	foodImage.60	FOODEEG_Images\0614.jpg	NY	Right	Yes	0.953318799991393	0	374888	235
733.244140625	1	decision	trialStart	1	38	38	foodImage.65	FOODEEG_Images\0658.jpg	NY	Left	No	0.883052799996221	0	375422	251
734.287109375	2	decision	foodImageDisplay	1	38	38	foodImage.65	FOODEEG_Images\0658.jpg	NY	Left	No	0.883052799996221	0	375956	252
736.35546875	0.883052799996221	decision	choicePhaseStart	1	38	38	foodImage.65	FOODEEG_Images\0658.jpg	NY	Left	No	0.883052799996221	0	377015	253
737.232421875	0	decision	response	1	38	38	foodImage.65	FOODEEG_Images\0658.jpg	NY	Left	No	0.883052799996221	0	377464	234
738.275390625	1	taste	trialStart	1	39	39	foodImage.94	FOODEEG_Images\0902.jpg	NY	Left	No	1.8809798000002	0	377998	251
739.314453125	2	taste	foodImageDisplay	1	39	39	foodImage.94	FOODEEG_Images\0902.jpg	NY	Left	No	1.8809798000002	0	378530	252
741.376953125	1.8809798000002	taste	choicePhaseStart	1	39	39	foodImage.94	FOODEEG_Images\0902.jpg	NY	Left	No	1.8809798000002	0	379586	253
743.248046875	0	taste	response	1	39	39	foodImage.94	FOODEEG_Images\0902.jpg	NY	Left	No	1.8809798000002	0	380544	234
744.291015625	1	taste	trialStart	1	40	40	foodImage.54	FOODEEG_Images\0560.jpg	YN	Right	No	2.30308669999067	0	381078	251
745.34765625	2	taste	foodImageDisplay	1	40	40	foodImage.54	FOODEEG_Images\0560.jpg	YN	Right	No	2.30308669999067	0	381619	252
747.41015625	2.30308669999067	taste	choicePhaseStart	1	40	40	foodImage.54	FOODEEG_Images\0560.jpg	YN	Right	No	2.30308669999067	0	382675	253
749.705078125	0	taste	response	1	40	40	foodImage.54	FOODEEG_Images\0560.jpg	YN	Right	No	2.30308669999067	0	383850	235
750.74609375	1	health	trialStart	1	41	41	foodImage.63	FOODEEG_Images\0645.jpg	NY	Left	No	1.4537818999961	0	384383	251
751.7890625	2	health	foodImageDisplay	1	41	41	foodImage.63	FOODEEG_Images\0645.jpg	NY	Left	No	1.4537818999961	0	384917	252
753.8515625	1.4537818999961	health	choicePhaseStart	1	41	41	foodImage.63	FOODEEG_Images\0645.jpg	NY	Left	No	1.4537818999961	0	385973	253
755.296875	0	health	response	1	41	41	foodImage.63	FOODEEG_Images\0645.jpg	NY	Left	No	1.4537818999961	0	386713	234
756.337890625	1	health	trialStart	1	42	42	foodImage.68	FOODEEG_Images\0685.jpg	YN	Left	Yes	1.83212639999692	0	387246	251
757.419921875	2	health	foodImageDisplay	1	42	42	foodImage.68	FOODEEG_Images\0685.jpg	YN	Left	Yes	1.83212639999692	0	387800	252
759.482421875	1.83212639999692	health	choicePhaseStart	1	42	42	foodImage.68	FOODEEG_Images\0685.jpg	YN	Left	Yes	1.83212639999692	0	388856	253
761.3046875	0	health	response	1	42	42	foodImage.68	FOODEEG_Images\0685.jpg	YN	Left	Yes	1.83212639999692	0	389789	234
762.34765625	1	health	trialStart	1	43	43	foodImage.12	FOODEEG_Images\0181.jpg	NY	Right	Yes	1.18873229999735	0	390323	251
763.3984375	2	health	foodImageDisplay	1	43	43	foodImage.12	FOODEEG_Images\0181.jpg	NY	Right	Yes	1.18873229999735	0	390861	252
765.4609375	1.18873229999735	health	choicePhaseStart	1	43	43	foodImage.12	FOODEEG_Images\0181.jpg	NY	Right	Yes	1.18873229999735	0	391917	253
766.640625	0	health	response	1	43	43	foodImage.12	FOODEEG_Images\0181.jpg	NY	Right	Yes	1.18873229999735	0	392521	235
767.68359375	1	taste	trialStart	1	44	44	foodImage.5	FOODEEG_Images\0107.jpg	NY	Right	Yes	1.04368859999522	0	393055	251
768.7421875	2	taste	foodImageDisplay	1	44	44	foodImage.5	FOODEEG_Images\0107.jpg	NY	Right	Yes	1.04368859999522	0	393597	252
770.8046875	1.04368859999522	taste	choicePhaseStart	1	44	44	foodImage.5	FOODEEG_Images\0107.jpg	NY	Right	Yes	1.04368859999522	0	394653	253
771.83984375	0	taste	response	1	44	44	foodImage.5	FOODEEG_Images\0107.jpg	NY	Right	Yes	1.04368859999522	0	395183	235
772.8828125	1	health	trialStart	1	45	45	foodImage.87	FOODEEG_Images\0873.jpg	YN	Left	Yes	1.30616670000018	0	395717	251
773.943359375	2	health	foodImageDisplay	1	45	45	foodImage.87	FOODEEG_Images\0873.jpg	YN	Left	Yes	1.30616670000018	0	396260	252
776.005859375	1.30616670000018	health	choicePhaseStart	1	45	45	foodImage.87	FOODEEG_Images\0873.jpg	YN	Left	Yes	1.30616670000018	0	397316	253
777.302734375	0	health	response	1	45	45	foodImage.87	FOODEEG_Images\0873.jpg	YN	Left	Yes	1.30616670000018	0	397980	234
778.349609375	1	health	trialStart	1	46	46	foodImage.115	FOODEEG_Images\0923.jpg	NY	Right	Yes	1.63466340000741	0	398516	251
779.390625	2	health	foodImageDisplay	1	46	46	foodImage.115	FOODEEG_Images\0923.jpg	NY	Right	Yes	1.63466340000741	0	399049	252
781.455078125	1.63466340000741	health	choicePhaseStart	1	46	46	foodImage.115	FOODEEG_Images\0923.jpg	NY	Right	Yes	1.63466340000741	0	400106	253
783.080078125	0	health	response	1	46	46	foodImage.115	FOODEEG_Images\0923.jpg	NY	Right	Yes	1.63466340000741	0	400938	235
784.123046875	1	health	trialStart	1	47	47	foodImage.56	FOODEEG_Images\0586.jpg	NY	Right	Yes	1.78102979999676	0	401472	251
785.166015625	2	health	foodImageDisplay	1	47	47	foodImage.56	FOODEEG_Images\0586.jpg	NY	Right	Yes	1.78102979999676	0	402006	252
787.228515625	1.78102979999676	health	choicePhaseStart	1	47	47	foodImage.56	FOODEEG_Images\0586.jpg	NY	Right	Yes	1.78102979999676	0	403062	253
789	0	health	response	1	47	47	foodImage.56	FOODEEG_Images\0586.jpg	NY	Right	Yes	1.78102979999676	0	403969	235
790.04296875	1	decision	trialStart	1	48	48	foodImage.7	FOODEEG_Images\0116.jpg	YN	Left	Yes	1.10063309999532	0	404503	251
791.083984375	2	decision	foodImageDisplay	1	48	48	foodImage.7	FOODEEG_Images\0116.jpg	YN	Left	Yes	1.10063309999532	0	405036	252
793.1484375	1.10063309999532	decision	choicePhaseStart	1	48	48	foodImage.7	FOODEEG_Images\0116.jpg	YN	Left	Yes	1.10063309999532	0	406093	253
794.23828125	0	decision	response	1	48	48	foodImage.7	FOODEEG_Images\0116.jpg	YN	Left	Yes	1.10063309999532	0	406651	234
795.28125	1	taste	trialStart	1	49	49	foodImage.111	FOODEEG_Images\0919.jpg	NY	Left	No	1.12068930000532	0	407185	251
796.3203125	2	taste	foodImageDisplay	1	49	49	foodImage.111	FOODEEG_Images\0919.jpg	NY	Left	No	1.12068930000532	0	407717	252
798.3828125	1.12068930000532	taste	choicePhaseStart	1	49	49	foodImage.111	FOODEEG_Images\0919.jpg	NY	Left	No	1.12068930000532	0	408773	253
799.49609375	0	taste	response	1	49	49	foodImage.111	FOODEEG_Images\0919.jpg	NY	Left	No	1.12068930000532	0	409343	234
800.537109375	1	taste	trialStart	1	50	50	foodImage.46	FOODEEG_Images\0479.jpg	NY	Right	Yes	1.66417460000957	0	409876	251
801.59375	2	taste	foodImageDisplay	1	50	50	foodImage.46	FOODEEG_Images\0479.jpg	NY	Right	Yes	1.66417460000957	0	410417	252
803.65625	1.66417460000957	taste	choicePhaseStart	1	50	50	foodImage.46	FOODEEG_Images\0479.jpg	NY	Right	Yes	1.66417460000957	0	411473	253
805.310546875	0	taste	response	1	50	50	foodImage.46	FOODEEG_Images\0479.jpg	NY	Right	Yes	1.66417460000957	0	412320	235
806.359375	1	taste	trialStart	1	51	51	foodImage.56	FOODEEG_Images\0586.jpg	YN	Left	Yes	1.08050729999377	0	412857	251
807.400390625	2	taste	foodImageDisplay	1	51	51	foodImage.56	FOODEEG_Images\0586.jpg	YN	Left	Yes	1.08050729999377	0	413390	252
809.46484375	1.08050729999377	taste	choicePhaseStart	1	51	51	foodImage.56	FOODEEG_Images\0586.jpg	YN	Left	Yes	1.08050729999377	0	414447	253
810.53515625	0	taste	response	1	51	51	foodImage.56	FOODEEG_Images\0586.jpg	YN	Left	Yes	1.08050729999377	0	414995	234
811.576171875	1	taste	trialStart	1	52	52	foodImage.41	FOODEEG_Images\0409.jpg	YN	Left	Yes	0.889657399995485	0	415528	251
812.623046875	2	taste	foodImageDisplay	1	52	52	foodImage.41	FOODEEG_Images\0409.jpg	YN	Left	Yes	0.889657399995485	0	416064	252
814.685546875	0.889657399995485	taste	choicePhaseStart	1	52	52	foodImage.41	FOODEEG_Images\0409.jpg	YN	Left	Yes	0.889657399995485	0	417120	253
815.56640625	0	taste	response	1	52	52	foodImage.41	FOODEEG_Images\0409.jpg	YN	Left	Yes	0.889657399995485	0	417571	234
816.607421875	1	health	trialStart	1	53	53	foodImage.22	FOODEEG_Images\0236.jpg	NY	Left	No	1.42381220000971	0	418104	251
817.6484375	2	health	foodImageDisplay	1	53	53	foodImage.22	FOODEEG_Images\0236.jpg	NY	Left	No	1.42381220000971	0	418637	252
819.712890625	1.42381220000971	health	choicePhaseStart	1	53	53	foodImage.22	FOODEEG_Images\0236.jpg	NY	Left	No	1.42381220000971	0	419694	253
821.126953125	0	health	response	1	53	53	foodImage.22	FOODEEG_Images\0236.jpg	NY	Left	No	1.42381220000971	0	420418	234
822.169921875	1	health	trialStart	1	54	54	foodImage.25	FOODEEG_Images\0261.jpg	NY	Right	Yes	0.708297599994694	0	420952	251
823.2109375	2	health	foodImageDisplay	1	54	54	foodImage.25	FOODEEG_Images\0261.jpg	NY	Right	Yes	0.708297599994694	0	421485	252
825.2734375	0.708297599994694	health	choicePhaseStart	1	54	54	foodImage.25	FOODEEG_Images\0261.jpg	NY	Right	Yes	0.708297599994694	0	422541	253
825.974609375	0	health	response	1	54	54	foodImage.25	FOODEEG_Images\0261.jpg	NY	Right	Yes	0.708297599994694	0	422900	235
827.015625	1	taste	trialStart	1	55	55	foodImage.24	FOODEEG_Images\0250.jpg	NY	Right	Yes	1.22084940000786	0	423433	251
828.05859375	2	taste	foodImageDisplay	1	55	55	foodImage.24	FOODEEG_Images\0250.jpg	NY	Right	Yes	1.22084940000786	0	423967	252
830.123046875	1.22084940000786	taste	choicePhaseStart	1	55	55	foodImage.24	FOODEEG_Images\0250.jpg	NY	Right	Yes	1.22084940000786	0	425024	253
831.333984375	0	taste	response	1	55	55	foodImage.24	FOODEEG_Images\0250.jpg	NY	Right	Yes	1.22084940000786	0	425644	235
832.376953125	1	decision	trialStart	1	56	56	foodImage.75	FOODEEG_Images\0763.jpg	YN	Left	Yes	1.11373149999417	0	426178	251
833.421875	2	decision	foodImageDisplay	1	56	56	foodImage.75	FOODEEG_Images\0763.jpg	YN	Left	Yes	1.11373149999417	0	426713	252
835.484375	1.11373149999417	decision	choicePhaseStart	1	56	56	foodImage.75	FOODEEG_Images\0763.jpg	YN	Left	Yes	1.11373149999417	0	427769	253
836.58984375	0	decision	response	1	56	56	foodImage.75	FOODEEG_Images\0763.jpg	YN	Left	Yes	1.11373149999417	0	428335	234
837.6328125	1	decision	trialStart	1	57	57	foodImage.73	FOODEEG_Images\0717.jpg	NY	Right	Yes	1.09351180000522	0	428869	251
838.689453125	2	decision	foodImageDisplay	1	57	57	foodImage.73	FOODEEG_Images\0717.jpg	NY	Right	Yes	1.09351180000522	0	429410	252
840.759765625	1.09351180000522	decision	choicePhaseStart	1	57	57	foodImage.73	FOODEEG_Images\0717.jpg	NY	Right	Yes	1.09351180000522	0	430470	253
841.845703125	0	decision	response	1	57	57	foodImage.73	FOODEEG_Images\0717.jpg	NY	Right	Yes	1.09351180000522	0	431026	235
842.888671875	1	health	trialStart	1	58	58	foodImage.118	FOODEEG_Images\0926.jpg	YN	Left	Yes	1.43143789999885	0	431560	251
843.927734375	2	health	foodImageDisplay	1	58	58	foodImage.118	FOODEEG_Images\0926.jpg	YN	Left	Yes	1.43143789999885	0	432092	252
845.990234375	1.43143789999885	health	choicePhaseStart	1	58	58	foodImage.118	FOODEEG_Images\0926.jpg	YN	Left	Yes	1.43143789999885	0	433148	253
847.4140625	0	health	response	1	58	58	foodImage.118	FOODEEG_Images\0926.jpg	YN	Left	Yes	1.43143789999885	0	433877	234
848.45703125	1	decision	trialStart	1	59	59	foodImage.53	FOODEEG_Images\0547.jpg	NY	Left	No	1.17339429999993	0	434411	251
849.515625	2	decision	foodImageDisplay	1	59	59	foodImage.53	FOODEEG_Images\0547.jpg	NY	Left	No	1.17339429999993	0	434953	252
851.578125	1.17339429999993	decision	choicePhaseStart	1	59	59	foodImage.53	FOODEEG_Images\0547.jpg	NY	Left	No	1.17339429999993	0	436009	253
852.7421875	0	decision	response	1	59	59	foodImage.53	FOODEEG_Images\0547.jpg	NY	Left	No	1.17339429999993	0	436605	234
853.783203125	1	taste	trialStart	1	60	60	foodImage.91	FOODEEG_Images\0896.jpg	YN	Left	Yes	1.07286790000217	0	437138	251
854.84375	2	taste	foodImageDisplay	1	60	60	foodImage.91	FOODEEG_Images\0896.jpg	YN	Left	Yes	1.07286790000217	0	437681	252
856.91015625	1.07286790000217	taste	choicePhaseStart	1	60	60	foodImage.91	FOODEEG_Images\0896.jpg	YN	Left	Yes	1.07286790000217	0	438739	253
857.97265625	0	taste	response	1	60	60	foodImage.91	FOODEEG_Images\0896.jpg	YN	Left	Yes	1.07286790000217	0	439283	234
860.015625	6.14453125	n/a	blockEnd	n/a	n/a	n/a	n/a	n/a	n/a	n/a	n/a	n/a	n/a	440329	254
866.16015625	2	n/a	blockStart	2	n/a	n/a	n/a	n/a	n/a	n/a	n/a	n/a	n/a	443475	250
868.1953125	1	taste	trialStart	2	61	1	foodImage.69	FOODEEG_Images\0693.jpg	YN	Left	Yes	1.66824149999593	0	444517	251
869.240234375	2	taste	foodImageDisplay	2	61	1	foodImage.69	FOODEEG_Images\0693.jpg	YN	Left	Yes	1.66824149999593	0	445052	252
871.302734375	1.66824149999593	taste	choicePhaseStart	2	61	1	foodImage.69	FOODEEG_Images\0693.jpg	YN	Left	Yes	1.66824149999593	0	446108	253
872.96484375	0	taste	response	2	61	1	foodImage.69	FOODEEG_Images\0693.jpg	YN	Left	Yes	1.66824149999593	0	446959	234
874.00390625	1	taste	trialStart	2	62	2	foodImage.38	FOODEEG_Images\0365.jpg	NY	Right	Yes	0.875878799997736	0	447491	251
875.04296875	2	taste	foodImageDisplay	2	62	2	foodImage.38	FOODEEG_Images\0365.jpg	NY	Right	Yes	0.875878799997736	0	448023	252
877.10546875	0.875878799997736	taste	choicePhaseStart	2	62	2	foodImage.38	FOODEEG_Images\0365.jpg	NY	Right	Yes	0.875878799997736	0	449079	253
877.97265625	0	taste	response	2	62	2	foodImage.38	FOODEEG_Images\0365.jpg	NY	Right	Yes	0.875878799997736	0	449523	235
879.013671875	1	taste	trialStart	2	63	3	foodImage.107	FOODEEG_Images\0915.jpg	NY	Left	No	1.56861199998821	0	450056	251
880.052734375	2	taste	foodImageDisplay	2	63	3	foodImage.107	FOODEEG_Images\0915.jpg	NY	Left	No	1.56861199998821	0	450588	252
882.1171875	1.56861199998821	taste	choicePhaseStart	2	63	3	foodImage.107	FOODEEG_Images\0915.jpg	NY	Left	No	1.56861199998821	0	451645	253
883.67578125	0	taste	response	2	63	3	foodImage.107	FOODEEG_Images\0915.jpg	NY	Left	No	1.56861199998821	0	452443	234
884.71875	1	taste	trialStart	2	64	4	foodImage.120	FOODEEG_Images\0928.jpg	YN	Right	No	1.11309080000501	0	452977	251
885.7578125	2	taste	foodImageDisplay	2	64	4	foodImage.120	FOODEEG_Images\0928.jpg	YN	Right	No	1.11309080000501	0	453509	252
887.8203125	1.11309080000501	taste	choicePhaseStart	2	64	4	foodImage.120	FOODEEG_Images\0928.jpg	YN	Right	No	1.11309080000501	0	454565	253
888.923828125	0	taste	response	2	64	4	foodImage.120	FOODEEG_Images\0928.jpg	YN	Right	No	1.11309080000501	0	455130	235
889.966796875	1	decision	trialStart	2	65	5	foodImage.48	FOODEEG_Images\0494.jpg	YN	Right	No	1.09381780000695	0	455664	251
891.009765625	2	decision	foodImageDisplay	2	65	5	foodImage.48	FOODEEG_Images\0494.jpg	YN	Right	No	1.09381780000695	0	456198	252
893.072265625	1.09381780000695	decision	choicePhaseStart	2	65	5	foodImage.48	FOODEEG_Images\0494.jpg	YN	Right	No	1.09381780000695	0	457254	253
894.15625	0	decision	response	2	65	5	foodImage.48	FOODEEG_Images\0494.jpg	YN	Right	No	1.09381780000695	0	457809	235
895.19921875	1	decision	trialStart	2	66	6	foodImage.26	FOODEEG_Images\0262.jpg	NY	Right	Yes	1.30762509998749	0	458343	251
896.2421875	2	decision	foodImageDisplay	2	66	6	foodImage.26	FOODEEG_Images\0262.jpg	NY	Right	Yes	1.30762509998749	0	458877	252
898.306640625	1.30762509998749	decision	choicePhaseStart	2	66	6	foodImage.26	FOODEEG_Images\0262.jpg	NY	Right	Yes	1.30762509998749	0	459934	253
899.603515625	0	decision	response	2	66	6	foodImage.26	FOODEEG_Images\0262.jpg	NY	Right	Yes	1.30762509998749	0	460598	235
900.646484375	1	taste	trialStart	2	67	7	foodImage.6	FOODEEG_Images\0113.jpg	NY	Right	Yes	0.822269700001925	0	461132	251
901.6875	2	taste	foodImageDisplay	2	67	7	foodImage.6	FOODEEG_Images\0113.jpg	NY	Right	Yes	0.822269700001925	0	461665	252
903.75	0.822269700001925	taste	choicePhaseStart	2	67	7	foodImage.6	FOODEEG_Images\0113.jpg	NY	Right	Yes	0.822269700001925	0	462721	253
904.564453125	0	taste	response	2	67	7	foodImage.6	FOODEEG_Images\0113.jpg	NY	Right	Yes	0.822269700001925	0	463138	235
905.607421875	1	health	trialStart	2	68	8	foodImage.85	FOODEEG_Images\0841.jpg	YN	Right	No	1.25331689999439	0	463672	251
906.6640625	2	health	foodImageDisplay	2	68	8	foodImage.85	FOODEEG_Images\0841.jpg	YN	Right	No	1.25331689999439	0	464213	252
908.7265625	1.25331689999439	health	choicePhaseStart	2	68	8	foodImage.85	FOODEEG_Images\0841.jpg	YN	Right	No	1.25331689999439	0	465269	253
909.970703125	0	health	response	2	68	8	foodImage.85	FOODEEG_Images\0841.jpg	YN	Right	No	1.25331689999439	0	465906	235
911.015625	1	decision	trialStart	2	69	9	foodImage.63	FOODEEG_Images\0645.jpg	NY	Left	No	0.951223199997912	0	466441	251
912.056640625	2	decision	foodImageDisplay	2	69	9	foodImage.63	FOODEEG_Images\0645.jpg	NY	Left	No	0.951223199997912	0	466974	252
914.125	0.951223199997912	decision	choicePhaseStart	2	69	9	foodImage.63	FOODEEG_Images\0645.jpg	NY	Left	No	0.951223199997912	0	468033	253
915.06640625	0	decision	response	2	69	9	foodImage.63	FOODEEG_Images\0645.jpg	NY	Left	No	0.951223199997912	0	468515	234
916.109375	1	taste	trialStart	2	70	10	foodImage.103	FOODEEG_Images\0911.jpg	YN	Right	No	1.37620219998644	0	469049	251
917.1484375	2	taste	foodImageDisplay	2	70	10	foodImage.103	FOODEEG_Images\0911.jpg	YN	Right	No	1.37620219998644	0	469581	252
919.212890625	1.37620219998644	taste	choicePhaseStart	2	70	10	foodImage.103	FOODEEG_Images\0911.jpg	YN	Right	No	1.37620219998644	0	470638	253
920.578125	0	taste	response	2	70	10	foodImage.103	FOODEEG_Images\0911.jpg	YN	Right	No	1.37620219998644	0	471337	235
921.62109375	1	health	trialStart	2	71	11	foodImage.41	FOODEEG_Images\0409.jpg	NY	Right	Yes	0.943269299998065	0	471871	251
922.66796875	2	health	foodImageDisplay	2	71	11	foodImage.41	FOODEEG_Images\0409.jpg	NY	Right	Yes	0.943269299998065	0	472407	252
924.732421875	0.943269299998065	health	choicePhaseStart	2	71	11	foodImage.41	FOODEEG_Images\0409.jpg	NY	Right	Yes	0.943269299998065	0	473464	253
925.666015625	0	health	response	2	71	11	foodImage.41	FOODEEG_Images\0409.jpg	NY	Right	Yes	0.943269299998065	0	473942	235
926.708984375	1	health	trialStart	2	72	12	foodImage.2	FOODEEG_Images\0028.jpg	NY	Left	No	0.917510200000834	0	474476	251
927.751953125	2	health	foodImageDisplay	2	72	12	foodImage.2	FOODEEG_Images\0028.jpg	NY	Left	No	0.917510200000834	0	475010	252
929.814453125	0.917510200000834	health	choicePhaseStart	2	72	12	foodImage.2	FOODEEG_Images\0028.jpg	NY	Left	No	0.917510200000834	0	476066	253
930.72265625	0	health	response	2	72	12	foodImage.2	FOODEEG_Images\0028.jpg	NY	Left	No	0.917510200000834	0	476531	234
931.767578125	1	taste	trialStart	2	73	13	foodImage.118	FOODEEG_Images\0926.jpg	NY	Left	No	1.37134440000227	0	477066	251
932.806640625	2	taste	foodImageDisplay	2	73	13	foodImage.118	FOODEEG_Images\0926.jpg	NY	Left	No	1.37134440000227	0	477598	252
934.869140625	1.37134440000227	taste	choicePhaseStart	2	73	13	foodImage.118	FOODEEG_Images\0926.jpg	NY	Left	No	1.37134440000227	0	478654	253
936.234375	0	taste	response	2	73	13	foodImage.118	FOODEEG_Images\0926.jpg	NY	Left	No	1.37134440000227	0	479353	234
937.27734375	1	health	trialStart	2	74	14	foodImage.40	FOODEEG_Images\0373.jpg	YN	Right	No	1.67565170000307	0	479887	251
938.318359375	2	health	foodImageDisplay	2	74	14	foodImage.40	FOODEEG_Images\0373.jpg	YN	Right	No	1.67565170000307	0	480420	252
940.3828125	1.67565170000307	health	choicePhaseStart	2	74	14	foodImage.40	FOODEEG_Images\0373.jpg	YN	Right	No	1.67565170000307	0	481477	253
942.05078125	0	health	response	2	74	14	foodImage.40	FOODEEG_Images\0373.jpg	YN	Right	No	1.67565170000307	0	482331	235
943.09375	1	health	trialStart	2	75	15	foodImage.57	FOODEEG_Images\0587.jpg	NY	Right	Yes	1.73048810000182	0	482865	251
944.13671875	2	health	foodImageDisplay	2	75	15	foodImage.57	FOODEEG_Images\0587.jpg	NY	Right	Yes	1.73048810000182	0	483399	252
946.201171875	1.73048810000182	health	choicePhaseStart	2	75	15	foodImage.57	FOODEEG_Images\0587.jpg	NY	Right	Yes	1.73048810000182	0	484456	253
947.921875	0	health	response	2	75	15	foodImage.57	FOODEEG_Images\0587.jpg	NY	Right	Yes	1.73048810000182	0	485337	235
948.966796875	1	taste	trialStart	2	76	16	foodImage.71	FOODEEG_Images\0713.jpg	YN	Left	Yes	0.979927400010638	0	485872	251
950.009765625	2	taste	foodImageDisplay	2	76	16	foodImage.71	FOODEEG_Images\0713.jpg	YN	Left	Yes	0.979927400010638	0	486406	252
952.072265625	0.979927400010638	taste	choicePhaseStart	2	76	16	foodImage.71	FOODEEG_Images\0713.jpg	YN	Left	Yes	0.979927400010638	0	487462	253
953.041015625	0	taste	response	2	76	16	foodImage.71	FOODEEG_Images\0713.jpg	YN	Left	Yes	0.979927400010638	0	487958	234
954.083984375	1	health	trialStart	2	77	17	foodImage.34	FOODEEG_Images\0339.jpg	YN	Right	No	1.04326730000321	0	488492	251
955.14453125	2	health	foodImageDisplay	2	77	17	foodImage.34	FOODEEG_Images\0339.jpg	YN	Right	No	1.04326730000321	0	489035	252
957.208984375	1.04326730000321	health	choicePhaseStart	2	77	17	foodImage.34	FOODEEG_Images\0339.jpg	YN	Right	No	1.04326730000321	0	490092	253
958.2421875	0	health	response	2	77	17	foodImage.34	FOODEEG_Images\0339.jpg	YN	Right	No	1.04326730000321	0	490621	235
959.287109375	1	decision	trialStart	2	78	18	foodImage.97	FOODEEG_Images\0905.jpg	NY	Left	No	0.92560489999596	0	491156	251
960.326171875	2	decision	foodImageDisplay	2	78	18	foodImage.97	FOODEEG_Images\0905.jpg	NY	Left	No	0.92560489999596	0	491688	252
962.388671875	0.92560489999596	decision	choicePhaseStart	2	78	18	foodImage.97	FOODEEG_Images\0905.jpg	NY	Left	No	0.92560489999596	0	492744	253
963.306640625	0	decision	response	2	78	18	foodImage.97	FOODEEG_Images\0905.jpg	NY	Left	No	0.92560489999596	0	493214	234
964.349609375	1	health	trialStart	2	79	19	foodImage.37	FOODEEG_Images\0359.jpg	YN	Left	Yes	1.48443209999823	0	493748	251
965.390625	2	health	foodImageDisplay	2	79	19	foodImage.37	FOODEEG_Images\0359.jpg	YN	Left	Yes	1.48443209999823	0	494281	252
967.455078125	1.48443209999823	health	choicePhaseStart	2	79	19	foodImage.37	FOODEEG_Images\0359.jpg	YN	Left	Yes	1.48443209999823	0	495338	253
968.9296875	0	health	response	2	79	19	foodImage.37	FOODEEG_Images\0359.jpg	YN	Left	Yes	1.48443209999823	0	496093	234
969.970703125	1	health	trialStart	2	80	20	foodImage.80	FOODEEG_Images\0796.jpg	NY	Right	Yes	0.761486699993839	0	496626	251
971.025390625	2	health	foodImageDisplay	2	80	20	foodImage.80	FOODEEG_Images\0796.jpg	NY	Right	Yes	0.761486699993839	0	497166	252
973.08984375	0.761486699993839	health	choicePhaseStart	2	80	20	foodImage.80	FOODEEG_Images\0796.jpg	NY	Right	Yes	0.761486699993839	0	498223	253
973.841796875	0	health	response	2	80	20	foodImage.80	FOODEEG_Images\0796.jpg	NY	Right	Yes	0.761486699993839	0	498608	235
974.89453125	1	health	trialStart	2	81	21	foodImage.15	FOODEEG_Images\0189.jpg	NY	Left	No	1.17788779998955	0	499147	251
975.978515625	2	health	foodImageDisplay	2	81	21	foodImage.15	FOODEEG_Images\0189.jpg	NY	Left	No	1.17788779998955	0	499702	252
978.041015625	1.17788779998955	health	choicePhaseStart	2	81	21	foodImage.15	FOODEEG_Images\0189.jpg	NY	Left	No	1.17788779998955	0	500758	253
979.208984375	0	health	response	2	81	21	foodImage.15	FOODEEG_Images\0189.jpg	NY	Left	No	1.17788779998955	0	501356	234
980.2578125	1	health	trialStart	2	82	22	foodImage.44	FOODEEG_Images\0459.jpg	YN	Left	Yes	1.26704629999585	0	501893	251
981.302734375	2	health	foodImageDisplay	2	82	22	foodImage.44	FOODEEG_Images\0459.jpg	YN	Left	Yes	1.26704629999585	0	502428	252
983.3671875	1.26704629999585	health	choicePhaseStart	2	82	22	foodImage.44	FOODEEG_Images\0459.jpg	YN	Left	Yes	1.26704629999585	0	503485	253
984.625	0	health	response	2	82	22	foodImage.44	FOODEEG_Images\0459.jpg	YN	Left	Yes	1.26704629999585	0	504129	234
985.66796875	1	taste	trialStart	2	83	23	foodImage.26	FOODEEG_Images\0262.jpg	YN	Right	No	1.30853720000596	0	504663	251
986.7109375	2	taste	foodImageDisplay	2	83	23	foodImage.26	FOODEEG_Images\0262.jpg	YN	Right	No	1.30853720000596	0	505197	252
988.7734375	1.30853720000596	taste	choicePhaseStart	2	83	23	foodImage.26	FOODEEG_Images\0262.jpg	YN	Right	No	1.30853720000596	0	506253	253
990.072265625	0	taste	response	2	83	23	foodImage.26	FOODEEG_Images\0262.jpg	YN	Right	No	1.30853720000596	0	506918	235
991.1171875	1	taste	trialStart	2	84	24	foodImage.96	FOODEEG_Images\0904.jpg	NY	Left	No	1.37269770000421	0	507453	251
992.158203125	2	taste	foodImageDisplay	2	84	24	foodImage.96	FOODEEG_Images\0904.jpg	NY	Left	No	1.37269770000421	0	507986	252
994.220703125	1.37269770000421	taste	choicePhaseStart	2	84	24	foodImage.96	FOODEEG_Images\0904.jpg	NY	Left	No	1.37269770000421	0	509042	253
995.583984375	0	taste	response	2	84	24	foodImage.96	FOODEEG_Images\0904.jpg	NY	Left	No	1.37269770000421	0	509740	234
996.626953125	1	decision	trialStart	2	85	25	foodImage.62	FOODEEG_Images\0644.jpg	NY	Right	Yes	0.822328299997025	0	510274	251
997.68359375	2	decision	foodImageDisplay	2	85	25	foodImage.62	FOODEEG_Images\0644.jpg	NY	Right	Yes	0.822328299997025	0	510815	252
999.748046875	0.822328299997025	decision	choicePhaseStart	2	85	25	foodImage.62	FOODEEG_Images\0644.jpg	NY	Right	Yes	0.822328299997025	0	511872	253
1000.560546875	0	decision	response	2	85	25	foodImage.62	FOODEEG_Images\0644.jpg	NY	Right	Yes	0.822328299997025	0	512288	235
1001.603515625	1	decision	trialStart	2	86	26	foodImage.22	FOODEEG_Images\0236.jpg	NY	Left	No	0.751047700003255	0	512822	251
1002.666015625	2	decision	foodImageDisplay	2	86	26	foodImage.22	FOODEEG_Images\0236.jpg	NY	Left	No	0.751047700003255	0	513366	252
1004.73046875	0.751047700003255	decision	choicePhaseStart	2	86	26	foodImage.22	FOODEEG_Images\0236.jpg	NY	Left	No	0.751047700003255	0	514423	253
1005.47265625	0	decision	response	2	86	26	foodImage.22	FOODEEG_Images\0236.jpg	NY	Left	No	0.751047700003255	0	514803	234
1006.513671875	1	health	trialStart	2	87	27	foodImage.110	FOODEEG_Images\0918.jpg	YN	Left	Yes	1.14598900001147	0	515336	251
1007.552734375	2	health	foodImageDisplay	2	87	27	foodImage.110	FOODEEG_Images\0918.jpg	YN	Left	Yes	1.14598900001147	0	515868	252
1009.615234375	1.14598900001147	health	choicePhaseStart	2	87	27	foodImage.110	FOODEEG_Images\0918.jpg	YN	Left	Yes	1.14598900001147	0	516924	253
1010.751953125	0	health	response	2	87	27	foodImage.110	FOODEEG_Images\0918.jpg	YN	Left	Yes	1.14598900001147	0	517506	234
1011.794921875	1	health	trialStart	2	88	28	foodImage.36	FOODEEG_Images\0352.jpg	YN	Left	Yes	1.98317500000121	0	518040	251
1012.853515625	2	health	foodImageDisplay	2	88	28	foodImage.36	FOODEEG_Images\0352.jpg	YN	Left	Yes	1.98317500000121	0	518582	252
1014.916015625	1.98317500000121	health	choicePhaseStart	2	88	28	foodImage.36	FOODEEG_Images\0352.jpg	YN	Left	Yes	1.98317500000121	0	519638	253
1016.888671875	0	health	response	2	88	28	foodImage.36	FOODEEG_Images\0352.jpg	YN	Left	Yes	1.98317500000121	0	520648	234
1017.931640625	1	taste	trialStart	2	89	29	foodImage.108	FOODEEG_Images\0916.jpg	YN	Right	No	1.67413359999773	0	521182	251
1018.984375	2	taste	foodImageDisplay	2	89	29	foodImage.108	FOODEEG_Images\0916.jpg	YN	Right	No	1.67413359999773	0	521721	252
1021.046875	1.67413359999773	taste	choicePhaseStart	2	89	29	foodImage.108	FOODEEG_Images\0916.jpg	YN	Right	No	1.67413359999773	0	522777	253
1022.7109375	0	taste	response	2	89	29	foodImage.108	FOODEEG_Images\0916.jpg	YN	Right	No	1.67413359999773	0	523629	235
1023.75390625	1	taste	trialStart	2	90	30	foodImage.62	FOODEEG_Images\0644.jpg	NY	Right	Yes	0.942157700003008	0	524163	251
1024.810546875	2	taste	foodImageDisplay	2	90	30	foodImage.62	FOODEEG_Images\0644.jpg	NY	Right	Yes	0.942157700003008	0	524704	252
1026.875	0.942157700003008	taste	choicePhaseStart	2	90	30	foodImage.62	FOODEEG_Images\0644.jpg	NY	Right	Yes	0.942157700003008	0	525761	253
1027.806640625	0	taste	response	2	90	30	foodImage.62	FOODEEG_Images\0644.jpg	NY	Right	Yes	0.942157700003008	0	526238	235
1028.849609375	1	taste	trialStart	2	91	31	foodImage.25	FOODEEG_Images\0261.jpg	NY	Right	Yes	1.07806329999585	0	526772	251
1029.892578125	2	taste	foodImageDisplay	2	91	31	foodImage.25	FOODEEG_Images\0261.jpg	NY	Right	Yes	1.07806329999585	0	527306	252
1031.955078125	1.07806329999585	taste	choicePhaseStart	2	91	31	foodImage.25	FOODEEG_Images\0261.jpg	NY	Right	Yes	1.07806329999585	0	528362	253
1033.0234375	0	taste	response	2	91	31	foodImage.25	FOODEEG_Images\0261.jpg	NY	Right	Yes	1.07806329999585	0	528909	235
1034.064453125	1	decision	trialStart	2	92	32	foodImage.38	FOODEEG_Images\0365.jpg	NY	Right	Yes	0.902053400001023	0	529442	251
1035.1015625	2	decision	foodImageDisplay	2	92	32	foodImage.38	FOODEEG_Images\0365.jpg	NY	Right	Yes	0.902053400001023	0	529973	252
1037.162109375	0.902053400001023	decision	choicePhaseStart	2	92	32	foodImage.38	FOODEEG_Images\0365.jpg	NY	Right	Yes	0.902053400001023	0	531028	253
1038.0546875	0	decision	response	2	92	32	foodImage.38	FOODEEG_Images\0365.jpg	NY	Right	Yes	0.902053400001023	0	531485	235
1039.09765625	1	health	trialStart	2	93	33	foodImage.11	FOODEEG_Images\0180.jpg	NY	Left	No	1.26143169999705	0	532019	251
1040.140625	2	health	foodImageDisplay	2	93	33	foodImage.11	FOODEEG_Images\0180.jpg	NY	Left	No	1.26143169999705	0	532553	252
1042.203125	1.26143169999705	health	choicePhaseStart	2	93	33	foodImage.11	FOODEEG_Images\0180.jpg	NY	Left	No	1.26143169999705	0	533609	253
1043.455078125	0	health	response	2	93	33	foodImage.11	FOODEEG_Images\0180.jpg	NY	Left	No	1.26143169999705	0	534250	234
1044.498046875	1	health	trialStart	2	94	34	foodImage.39	FOODEEG_Images\0367.jpg	NY	Left	No	0.720849000004819	0	534784	251
1045.537109375	2	health	foodImageDisplay	2	94	34	foodImage.39	FOODEEG_Images\0367.jpg	NY	Left	No	0.720849000004819	0	535316	252
1047.599609375	0.720849000004819	health	choicePhaseStart	2	94	34	foodImage.39	FOODEEG_Images\0367.jpg	NY	Left	No	0.720849000004819	0	536372	253
1048.310546875	0	health	response	2	94	34	foodImage.39	FOODEEG_Images\0367.jpg	NY	Left	No	0.720849000004819	0	536736	234
1049.353515625	1	taste	trialStart	2	95	35	foodImage.3	FOODEEG_Images\0046.jpg	YN	Left	Yes	0.854809500000556	0	537270	251
1050.39453125	2	taste	foodImageDisplay	2	95	35	foodImage.3	FOODEEG_Images\0046.jpg	YN	Left	Yes	0.854809500000556	0	537803	252
1052.45703125	0.854809500000556	taste	choicePhaseStart	2	95	35	foodImage.3	FOODEEG_Images\0046.jpg	YN	Left	Yes	0.854809500000556	0	538859	253
1053.302734375	0	taste	response	2	95	35	foodImage.3	FOODEEG_Images\0046.jpg	YN	Left	Yes	0.854809500000556	0	539292	234
1054.3515625	1	health	trialStart	2	96	36	foodImage.112	FOODEEG_Images\0920.jpg	YN	Left	Yes	1.69791160000023	0	539829	251
1055.390625	2	health	foodImageDisplay	2	96	36	foodImage.112	FOODEEG_Images\0920.jpg	YN	Left	Yes	1.69791160000023	0	540361	252
1057.453125	1.69791160000023	health	choicePhaseStart	2	96	36	foodImage.112	FOODEEG_Images\0920.jpg	YN	Left	Yes	1.69791160000023	0	541417	253
1059.142578125	0	health	response	2	96	36	foodImage.112	FOODEEG_Images\0920.jpg	YN	Left	Yes	1.69791160000023	0	542282	234
1060.185546875	1	decision	trialStart	2	97	37	foodImage.52	FOODEEG_Images\0539.jpg	NY	Right	Yes	0.916365600001882	0	542816	251
1061.244140625	2	decision	foodImageDisplay	2	97	37	foodImage.52	FOODEEG_Images\0539.jpg	NY	Right	Yes	0.916365600001882	0	543358	252
1063.306640625	0.916365600001882	decision	choicePhaseStart	2	97	37	foodImage.52	FOODEEG_Images\0539.jpg	NY	Right	Yes	0.916365600001882	0	544414	253
1064.21484375	0	decision	response	2	97	37	foodImage.52	FOODEEG_Images\0539.jpg	NY	Right	Yes	0.916365600001882	0	544879	235
1065.255859375	1	taste	trialStart	2	98	38	foodImage.84	FOODEEG_Images\0830.jpg	NY	Right	Yes	0.946911899998668	0	545412	251
1066.314453125	2	taste	foodImageDisplay	2	98	38	foodImage.84	FOODEEG_Images\0830.jpg	NY	Right	Yes	0.946911899998668	0	545954	252
1068.380859375	0.946911899998668	taste	choicePhaseStart	2	98	38	foodImage.84	FOODEEG_Images\0830.jpg	NY	Right	Yes	0.946911899998668	0	547012	253
1069.318359375	0	taste	response	2	98	38	foodImage.84	FOODEEG_Images\0830.jpg	NY	Right	Yes	0.946911899998668	0	547492	235
1070.361328125	1	health	trialStart	2	99	39	foodImage.97	FOODEEG_Images\0905.jpg	YN	Left	Yes	2.18626750000112	0	548026	251
1071.400390625	2	health	foodImageDisplay	2	99	39	foodImage.97	FOODEEG_Images\0905.jpg	YN	Left	Yes	2.18626750000112	0	548558	252
1073.46875	2.18626750000112	health	choicePhaseStart	2	99	39	foodImage.97	FOODEEG_Images\0905.jpg	YN	Left	Yes	2.18626750000112	0	549617	253
1075.646484375	0	health	response	2	99	39	foodImage.97	FOODEEG_Images\0905.jpg	YN	Left	Yes	2.18626750000112	0	550732	234
1076.689453125	1	taste	trialStart	2	100	40	foodImage.76	FOODEEG_Images\0766.jpg	YN	Left	Yes	1.04018739999447	0	551266	251
1077.734375	2	taste	foodImageDisplay	2	100	40	foodImage.76	FOODEEG_Images\0766.jpg	YN	Left	Yes	1.04018739999447	0	551801	252
1079.796875	1.04018739999447	taste	choicePhaseStart	2	100	40	foodImage.76	FOODEEG_Images\0766.jpg	YN	Left	Yes	1.04018739999447	0	552857	253
1080.830078125	0	taste	response	2	100	40	foodImage.76	FOODEEG_Images\0766.jpg	YN	Left	Yes	1.04018739999447	0	553386	234
1081.869140625	1	health	trialStart	2	101	41	foodImage.98	FOODEEG_Images\0906.jpg	NY	Right	Yes	1.43960739999602	0	553918	251
1082.90625	2	health	foodImageDisplay	2	101	41	foodImage.98	FOODEEG_Images\0906.jpg	NY	Right	Yes	1.43960739999602	0	554449	252
1084.966796875	1.43960739999602	health	choicePhaseStart	2	101	41	foodImage.98	FOODEEG_Images\0906.jpg	NY	Right	Yes	1.43960739999602	0	555504	253
1086.3984375	0	health	response	2	101	41	foodImage.98	FOODEEG_Images\0906.jpg	NY	Right	Yes	1.43960739999602	0	556237	235
1087.4453125	1	taste	trialStart	2	102	42	foodImage.20	FOODEEG_Images\0226.jpg	YN	Right	No	1.48966830001154	0	556773	251
1088.486328125	2	taste	foodImageDisplay	2	102	42	foodImage.20	FOODEEG_Images\0226.jpg	YN	Right	No	1.48966830001154	0	557306	252
1090.548828125	1.48966830001154	taste	choicePhaseStart	2	102	42	foodImage.20	FOODEEG_Images\0226.jpg	YN	Right	No	1.48966830001154	0	558362	253
1092.029296875	0	taste	response	2	102	42	foodImage.20	FOODEEG_Images\0226.jpg	YN	Right	No	1.48966830001154	0	559120	235
1093.072265625	1	health	trialStart	2	103	43	foodImage.86	FOODEEG_Images\0844.jpg	NY	Left	No	1.94553559999622	0	559654	251
1094.1328125	2	health	foodImageDisplay	2	103	43	foodImage.86	FOODEEG_Images\0844.jpg	NY	Left	No	1.94553559999622	0	560197	252
1096.197265625	1.94553559999622	health	choicePhaseStart	2	103	43	foodImage.86	FOODEEG_Images\0844.jpg	NY	Left	No	1.94553559999622	0	561254	253
1098.1328125	0	health	response	2	103	43	foodImage.86	FOODEEG_Images\0844.jpg	NY	Left	No	1.94553559999622	0	562245	234
1099.1796875	1	taste	trialStart	2	104	44	foodImage.60	FOODEEG_Images\0614.jpg	NY	Right	Yes	0.79965300000913	0	562781	251
1100.240234375	2	taste	foodImageDisplay	2	104	44	foodImage.60	FOODEEG_Images\0614.jpg	NY	Right	Yes	0.79965300000913	0	563324	252
1102.302734375	0.79965300000913	taste	choicePhaseStart	2	104	44	foodImage.60	FOODEEG_Images\0614.jpg	NY	Right	Yes	0.79965300000913	0	564380	253
1103.09375	0	taste	response	2	104	44	foodImage.60	FOODEEG_Images\0614.jpg	NY	Right	Yes	0.79965300000913	0	564785	235
1104.138671875	1	decision	trialStart	2	105	45	foodImage.76	FOODEEG_Images\0766.jpg	YN	Left	Yes	0.911921300008544	0	565320	251
1105.18359375	2	decision	foodImageDisplay	2	105	45	foodImage.76	FOODEEG_Images\0766.jpg	YN	Left	Yes	0.911921300008544	0	565855	252
1107.24609375	0.911921300008544	decision	choicePhaseStart	2	105	45	foodImage.76	FOODEEG_Images\0766.jpg	YN	Left	Yes	0.911921300008544	0	566911	253
1108.1484375	0	decision	response	2	105	45	foodImage.76	FOODEEG_Images\0766.jpg	YN	Left	Yes	0.911921300008544	0	567373	234
1109.193359375	1	taste	trialStart	2	106	46	foodImage.73	FOODEEG_Images\0717.jpg	NY	Right	Yes	0.743952100005117	0	567908	251
1110.251953125	2	taste	foodImageDisplay	2	106	46	foodImage.73	FOODEEG_Images\0717.jpg	NY	Right	Yes	0.743952100005117	0	568450	252
1112.318359375	0.743952100005117	taste	choicePhaseStart	2	106	46	foodImage.73	FOODEEG_Images\0717.jpg	NY	Right	Yes	0.743952100005117	0	569508	253
1113.052734375	0	taste	response	2	106	46	foodImage.73	FOODEEG_Images\0717.jpg	NY	Right	Yes	0.743952100005117	0	569884	235
1114.095703125	1	health	trialStart	2	107	47	foodImage.48	FOODEEG_Images\0494.jpg	NY	Left	No	0.837003299995558	0	570418	251
1115.138671875	2	health	foodImageDisplay	2	107	47	foodImage.48	FOODEEG_Images\0494.jpg	NY	Left	No	0.837003299995558	0	570952	252
1117.201171875	0.837003299995558	health	choicePhaseStart	2	107	47	foodImage.48	FOODEEG_Images\0494.jpg	NY	Left	No	0.837003299995558	0	572008	253
1118.029296875	0	health	response	2	107	47	foodImage.48	FOODEEG_Images\0494.jpg	NY	Left	No	0.837003299995558	0	572432	234
1119.072265625	1	taste	trialStart	2	108	48	foodImage.88	FOODEEG_Images\0878.jpg	NY	Right	Yes	0.782616299999063	0	572966	251
1120.12890625	2	taste	foodImageDisplay	2	108	48	foodImage.88	FOODEEG_Images\0878.jpg	NY	Right	Yes	0.782616299999063	0	573507	252
1122.19140625	0.782616299999063	taste	choicePhaseStart	2	108	48	foodImage.88	FOODEEG_Images\0878.jpg	NY	Right	Yes	0.782616299999063	0	574563	253
1122.96484375	0	taste	response	2	108	48	foodImage.88	FOODEEG_Images\0878.jpg	NY	Right	Yes	0.782616299999063	0	574959	235
1124.0078125	1	health	trialStart	2	109	49	foodImage.66	FOODEEG_Images\0676.jpg	NY	Left	No	0.823581499993452	0	575493	251
1125.048828125	2	health	foodImageDisplay	2	109	49	foodImage.66	FOODEEG_Images\0676.jpg	NY	Left	No	0.823581499993452	0	576026	252
1127.1171875	0.823581499993452	health	choicePhaseStart	2	109	49	foodImage.66	FOODEEG_Images\0676.jpg	NY	Left	No	0.823581499993452	0	577085	253
1127.931640625	0	health	response	2	109	49	foodImage.66	FOODEEG_Images\0676.jpg	NY	Left	No	0.823581499993452	0	577502	234
1128.974609375	1	taste	trialStart	2	110	50	foodImage.33	FOODEEG_Images\0329.jpg	YN	Left	Yes	1.18503130000317	0	578036	251
1130.017578125	2	taste	foodImageDisplay	2	110	50	foodImage.33	FOODEEG_Images\0329.jpg	YN	Left	Yes	1.18503130000317	0	578570	252
1132.08203125	1.18503130000317	taste	choicePhaseStart	2	110	50	foodImage.33	FOODEEG_Images\0329.jpg	YN	Left	Yes	1.18503130000317	0	579627	253
1133.259765625	0	taste	response	2	110	50	foodImage.33	FOODEEG_Images\0329.jpg	YN	Left	Yes	1.18503130000317	0	580230	234
1134.302734375	1	decision	trialStart	2	111	51	foodImage.72	FOODEEG_Images\0714.jpg	NY	Right	Yes	0.802123599991319	0	580764	251
1135.34765625	2	decision	foodImageDisplay	2	111	51	foodImage.72	FOODEEG_Images\0714.jpg	NY	Right	Yes	0.802123599991319	0	581299	252
1137.41015625	0.802123599991319	decision	choicePhaseStart	2	111	51	foodImage.72	FOODEEG_Images\0714.jpg	NY	Right	Yes	0.802123599991319	0	582355	253
1138.203125	0	decision	response	2	111	51	foodImage.72	FOODEEG_Images\0714.jpg	NY	Right	Yes	0.802123599991319	0	582761	235
1139.248046875	1	health	trialStart	2	112	52	foodImage.62	FOODEEG_Images\0644.jpg	NY	Right	Yes	0.790201700001489	0	583296	251
1140.3046875	2	health	foodImageDisplay	2	112	52	foodImage.62	FOODEEG_Images\0644.jpg	NY	Right	Yes	0.790201700001489	0	583837	252
1142.3671875	0.790201700001489	health	choicePhaseStart	2	112	52	foodImage.62	FOODEEG_Images\0644.jpg	NY	Right	Yes	0.790201700001489	0	584893	253
1143.1484375	0	health	response	2	112	52	foodImage.62	FOODEEG_Images\0644.jpg	NY	Right	Yes	0.790201700001489	0	585293	235
1144.19140625	1	decision	trialStart	2	113	53	foodImage.78	FOODEEG_Images\0787.jpg	NY	Right	Yes	0.756553899991559	0	585827	251
1145.234375	2	decision	foodImageDisplay	2	113	53	foodImage.78	FOODEEG_Images\0787.jpg	NY	Right	Yes	0.756553899991559	0	586361	252
1147.296875	0.756553899991559	decision	choicePhaseStart	2	113	53	foodImage.78	FOODEEG_Images\0787.jpg	NY	Right	Yes	0.756553899991559	0	587417	253
1148.04296875	0	decision	response	2	113	53	foodImage.78	FOODEEG_Images\0787.jpg	NY	Right	Yes	0.756553899991559	0	587799	235
1149.091796875	1	taste	trialStart	2	114	54	foodImage.15	FOODEEG_Images\0189.jpg	NY	Right	Yes	1.19752710001194	0	588336	251
1150.146484375	2	taste	foodImageDisplay	2	114	54	foodImage.15	FOODEEG_Images\0189.jpg	NY	Right	Yes	1.19752710001194	0	588876	252
1152.212890625	1.19752710001194	taste	choicePhaseStart	2	114	54	foodImage.15	FOODEEG_Images\0189.jpg	NY	Right	Yes	1.19752710001194	0	589934	253
1153.404296875	0	taste	response	2	114	54	foodImage.15	FOODEEG_Images\0189.jpg	NY	Right	Yes	1.19752710001194	0	590544	235
1154.46484375	1	decision	trialStart	2	115	55	foodImage.58	FOODEEG_Images\0605.jpg	NY	Right	Yes	0.810339299991028	0	591087	251
1155.521484375	2	decision	foodImageDisplay	2	115	55	foodImage.58	FOODEEG_Images\0605.jpg	NY	Right	Yes	0.810339299991028	0	591628	252
1157.5859375	0.810339299991028	decision	choicePhaseStart	2	115	55	foodImage.58	FOODEEG_Images\0605.jpg	NY	Right	Yes	0.810339299991028	0	592685	253
1158.38671875	0	decision	response	2	115	55	foodImage.58	FOODEEG_Images\0605.jpg	NY	Right	Yes	0.810339299991028	0	593095	235
1159.4296875	1	health	trialStart	2	116	56	foodImage.38	FOODEEG_Images\0365.jpg	YN	Left	Yes	0.984113700003945	0	593629	251
1160.46875	2	health	foodImageDisplay	2	116	56	foodImage.38	FOODEEG_Images\0365.jpg	YN	Left	Yes	0.984113700003945	0	594161	252
1162.53125	0.984113700003945	health	choicePhaseStart	2	116	56	foodImage.38	FOODEEG_Images\0365.jpg	YN	Left	Yes	0.984113700003945	0	595217	253
1163.5078125	0	health	response	2	116	56	foodImage.38	FOODEEG_Images\0365.jpg	YN	Left	Yes	0.984113700003945	0	595717	234
1164.55078125	1	decision	trialStart	2	117	57	foodImage.47	FOODEEG_Images\0488.jpg	YN	Left	Yes	0.875415699993027	0	596251	251
1165.591796875	2	decision	foodImageDisplay	2	117	57	foodImage.47	FOODEEG_Images\0488.jpg	YN	Left	Yes	0.875415699993027	0	596784	252
1167.65625	0.875415699993027	decision	choicePhaseStart	2	117	57	foodImage.47	FOODEEG_Images\0488.jpg	YN	Left	Yes	0.875415699993027	0	597841	253
1168.5234375	0	decision	response	2	117	57	foodImage.47	FOODEEG_Images\0488.jpg	YN	Left	Yes	0.875415699993027	0	598285	234
1169.564453125	1	health	trialStart	2	118	58	foodImage.117	FOODEEG_Images\0925.jpg	NY	Left	No	0.938347899995279	0	598818	251
1170.603515625	2	health	foodImageDisplay	2	118	58	foodImage.117	FOODEEG_Images\0925.jpg	NY	Left	No	0.938347899995279	0	599350	252
1172.666015625	0.938347899995279	health	choicePhaseStart	2	118	58	foodImage.117	FOODEEG_Images\0925.jpg	NY	Left	No	0.938347899995279	0	600406	253
1173.595703125	0	health	response	2	118	58	foodImage.117	FOODEEG_Images\0925.jpg	NY	Left	No	0.938347899995279	0	600882	234
1174.638671875	1	health	trialStart	2	119	59	foodImage.70	FOODEEG_Images\0705.jpg	NY	Left	No	1.21903319998819	0	601416	251
1175.697265625	2	health	foodImageDisplay	2	119	59	foodImage.70	FOODEEG_Images\0705.jpg	NY	Left	No	1.21903319998819	0	601958	252
1177.76171875	1.21903319998819	health	choicePhaseStart	2	119	59	foodImage.70	FOODEEG_Images\0705.jpg	NY	Left	No	1.21903319998819	0	603015	253
1178.970703125	0	health	response	2	119	59	foodImage.70	FOODEEG_Images\0705.jpg	NY	Left	No	1.21903319998819	0	603634	234
1180.013671875	1	decision	trialStart	2	120	60	foodImage.114	FOODEEG_Images\0922.jpg	YN	Left	Yes	1.28137320000678	0	604168	251
1181.05078125	2	decision	foodImageDisplay	2	120	60	foodImage.114	FOODEEG_Images\0922.jpg	YN	Left	Yes	1.28137320000678	0	604699	252
1183.115234375	1.28137320000678	decision	choicePhaseStart	2	120	60	foodImage.114	FOODEEG_Images\0922.jpg	YN	Left	Yes	1.28137320000678	0	605756	253
1184.38671875	0	decision	response	2	120	60	foodImage.114	FOODEEG_Images\0922.jpg	YN	Left	Yes	1.28137320000678	0	606407	234
1186.4296875	10.744140625	n/a	blockEnd	n/a	n/a	n/a	n/a	n/a	n/a	n/a	n/a	n/a	n/a	607453	254
1197.173828125	2	n/a	blockStart	3	n/a	n/a	n/a	n/a	n/a	n/a	n/a	n/a	n/a	612954	250
1199.20703125	1	decision	trialStart	3	121	1	foodImage.1	FOODEEG_Images\0004.jpg	NY	Right	Yes	0.806951399994432	0	613995	251
1200.251953125	2	decision	foodImageDisplay	3	121	1	foodImage.1	FOODEEG_Images\0004.jpg	NY	Right	Yes	0.806951399994432	0	614530	252
1202.3203125	0.806951399994432	decision	choicePhaseStart	3	121	1	foodImage.1	FOODEEG_Images\0004.jpg	NY	Right	Yes	0.806951399994432	0	615589	253
1203.12109375	0	decision	response	3	121	1	foodImage.1	FOODEEG_Images\0004.jpg	NY	Right	Yes	0.806951399994432	0	615999	235
1204.1640625	1	decision	trialStart	3	122	2	foodImage.13	FOODEEG_Images\0183.jpg	NY	Right	Yes	0.597973900003126	0	616533	251
1205.203125	2	decision	foodImageDisplay	3	122	2	foodImage.13	FOODEEG_Images\0183.jpg	NY	Right	Yes	0.597973900003126	0	617065	252
1207.265625	0.597973900003126	decision	choicePhaseStart	3	122	2	foodImage.13	FOODEEG_Images\0183.jpg	NY	Right	Yes	0.597973900003126	0	618121	253
1207.857421875	0	decision	response	3	122	2	foodImage.13	FOODEEG_Images\0183.jpg	NY	Right	Yes	0.597973900003126	0	618424	235
1208.900390625	1	health	trialStart	3	123	3	foodImage.69	FOODEEG_Images\0693.jpg	YN	Left	Yes	1.14828479998687	0	618958	251
1209.943359375	2	health	foodImageDisplay	3	123	3	foodImage.69	FOODEEG_Images\0693.jpg	YN	Left	Yes	1.14828479998687	0	619492	252
1212.005859375	1.14828479998687	health	choicePhaseStart	3	123	3	foodImage.69	FOODEEG_Images\0693.jpg	YN	Left	Yes	1.14828479998687	0	620548	253
1213.14453125	0	health	response	3	123	3	foodImage.69	FOODEEG_Images\0693.jpg	YN	Left	Yes	1.14828479998687	0	621131	234
1214.1875	1	decision	trialStart	3	124	4	foodImage.41	FOODEEG_Images\0409.jpg	YN	Left	Yes	0.944973200006643	0	621665	251
1215.234375	2	decision	foodImageDisplay	3	124	4	foodImage.41	FOODEEG_Images\0409.jpg	YN	Left	Yes	0.944973200006643	0	622201	252
1217.296875	0.944973200006643	decision	choicePhaseStart	3	124	4	foodImage.41	FOODEEG_Images\0409.jpg	YN	Left	Yes	0.944973200006643	0	623257	253
1218.234375	0	decision	response	3	124	4	foodImage.41	FOODEEG_Images\0409.jpg	YN	Left	Yes	0.944973200006643	0	623737	234
1219.27734375	1	health	trialStart	3	125	5	foodImage.95	FOODEEG_Images\0903.jpg	YN	Left	Yes	1.04689860000508	0	624271	251
1220.314453125	2	health	foodImageDisplay	3	125	5	foodImage.95	FOODEEG_Images\0903.jpg	YN	Left	Yes	1.04689860000508	0	624802	252
1222.376953125	1.04689860000508	health	choicePhaseStart	3	125	5	foodImage.95	FOODEEG_Images\0903.jpg	YN	Left	Yes	1.04689860000508	0	625858	253
1223.41796875	0	health	response	3	125	5	foodImage.95	FOODEEG_Images\0903.jpg	YN	Left	Yes	1.04689860000508	0	626391	234
1224.46484375	1	taste	trialStart	3	126	6	foodImage.75	FOODEEG_Images\0763.jpg	YN	Left	Yes	1.13687730001402	0	626927	251
1225.509765625	2	taste	foodImageDisplay	3	126	6	foodImage.75	FOODEEG_Images\0763.jpg	YN	Left	Yes	1.13687730001402	0	627462	252
1227.576171875	1.13687730001402	taste	choicePhaseStart	3	126	6	foodImage.75	FOODEEG_Images\0763.jpg	YN	Left	Yes	1.13687730001402	0	628520	253
1228.705078125	0	taste	response	3	126	6	foodImage.75	FOODEEG_Images\0763.jpg	YN	Left	Yes	1.13687730001402	0	629098	234
1229.748046875	1	health	trialStart	3	127	7	foodImage.103	FOODEEG_Images\0911.jpg	NY	Right	Yes	1.60765190000529	0	629632	251
1230.787109375	2	health	foodImageDisplay	3	127	7	foodImage.103	FOODEEG_Images\0911.jpg	NY	Right	Yes	1.60765190000529	0	630164	252
1232.849609375	1.60765190000529	health	choicePhaseStart	3	127	7	foodImage.103	FOODEEG_Images\0911.jpg	NY	Right	Yes	1.60765190000529	0	631220	253
1234.44921875	0	health	response	3	127	7	foodImage.103	FOODEEG_Images\0911.jpg	NY	Right	Yes	1.60765190000529	0	632039	235
1235.4921875	1	decision	trialStart	3	128	8	foodImage.29	FOODEEG_Images\0278.jpg	YN	Left	Yes	1.08646340000269	0	632573	251
1236.533203125	2	decision	foodImageDisplay	3	128	8	foodImage.29	FOODEEG_Images\0278.jpg	YN	Left	Yes	1.08646340000269	0	633106	252
1238.595703125	1.08646340000269	decision	choicePhaseStart	3	128	8	foodImage.29	FOODEEG_Images\0278.jpg	YN	Left	Yes	1.08646340000269	0	634162	253
1239.673828125	0	decision	response	3	128	8	foodImage.29	FOODEEG_Images\0278.jpg	YN	Left	Yes	1.08646340000269	0	634714	234
1240.716796875	1	health	trialStart	3	129	9	foodImage.119	FOODEEG_Images\0927.jpg	NY	Left	No	1.57478150000679	0	635248	251
1241.755859375	2	health	foodImageDisplay	3	129	9	foodImage.119	FOODEEG_Images\0927.jpg	NY	Left	No	1.57478150000679	0	635780	252
1243.818359375	1.57478150000679	health	choicePhaseStart	3	129	9	foodImage.119	FOODEEG_Images\0927.jpg	NY	Left	No	1.57478150000679	0	636836	253
1245.384765625	0	health	response	3	129	9	foodImage.119	FOODEEG_Images\0927.jpg	NY	Left	No	1.57478150000679	0	637638	234
1246.42578125	1	health	trialStart	3	130	10	foodImage.92	FOODEEG_Images\0900.jpg	NY	Left	No	0.905115699992166	0	638171	251
1247.462890625	2	health	foodImageDisplay	3	130	10	foodImage.92	FOODEEG_Images\0900.jpg	NY	Left	No	0.905115699992166	0	638702	252
1249.529296875	0.905115699992166	health	choicePhaseStart	3	130	10	foodImage.92	FOODEEG_Images\0900.jpg	NY	Left	No	0.905115699992166	0	639760	253
1250.423828125	0	health	response	3	130	10	foodImage.92	FOODEEG_Images\0900.jpg	NY	Left	No	0.905115699992166	0	640218	234
1251.466796875	1	decision	trialStart	3	131	11	foodImage.106	FOODEEG_Images\0914.jpg	YN	Right	No	1.22309310000855	0	640752	251
1252.5078125	2	decision	foodImageDisplay	3	131	11	foodImage.106	FOODEEG_Images\0914.jpg	YN	Right	No	1.22309310000855	0	641285	252
1254.5703125	1.22309310000855	decision	choicePhaseStart	3	131	11	foodImage.106	FOODEEG_Images\0914.jpg	YN	Right	No	1.22309310000855	0	642341	253
1255.78515625	0	decision	response	3	131	11	foodImage.106	FOODEEG_Images\0914.jpg	YN	Right	No	1.22309310000855	0	642963	235
1256.826171875	1	decision	trialStart	3	132	12	foodImage.115	FOODEEG_Images\0923.jpg	NY	Left	No	0.976839199996903	0	643496	251
1257.865234375	2	decision	foodImageDisplay	3	132	12	foodImage.115	FOODEEG_Images\0923.jpg	NY	Left	No	0.976839199996903	0	644028	252
1259.9296875	0.976839199996903	decision	choicePhaseStart	3	132	12	foodImage.115	FOODEEG_Images\0923.jpg	NY	Left	No	0.976839199996903	0	645085	253
1260.896484375	0	decision	response	3	132	12	foodImage.115	FOODEEG_Images\0923.jpg	NY	Left	No	0.976839199996903	0	645580	234
1261.9375	1	health	trialStart	3	133	13	foodImage.93	FOODEEG_Images\0901.jpg	NY	Right	Yes	0.926533399993787	0	646113	251
1262.978515625	2	health	foodImageDisplay	3	133	13	foodImage.93	FOODEEG_Images\0901.jpg	NY	Right	Yes	0.926533399993787	0	646646	252
1265.041015625	0.926533399993787	health	choicePhaseStart	3	133	13	foodImage.93	FOODEEG_Images\0901.jpg	NY	Right	Yes	0.926533399993787	0	647702	253
1265.9609375	0	health	response	3	133	13	foodImage.93	FOODEEG_Images\0901.jpg	NY	Right	Yes	0.926533399993787	0	648173	235
1267.00390625	1	decision	trialStart	3	134	14	foodImage.74	FOODEEG_Images\0752.jpg	YN	Left	Yes	0.739499299990712	0	648707	251
1268.068359375	2	decision	foodImageDisplay	3	134	14	foodImage.74	FOODEEG_Images\0752.jpg	YN	Left	Yes	0.739499299990712	0	649252	252
1270.1328125	0.739499299990712	decision	choicePhaseStart	3	134	14	foodImage.74	FOODEEG_Images\0752.jpg	YN	Left	Yes	0.739499299990712	0	650309	253
1270.86328125	0	decision	response	3	134	14	foodImage.74	FOODEEG_Images\0752.jpg	YN	Left	Yes	0.739499299990712	0	650683	234
1271.90625	1	decision	trialStart	3	135	15	foodImage.54	FOODEEG_Images\0560.jpg	YN	Right	No	1.14940700000443	0	651217	251
1272.962890625	2	decision	foodImageDisplay	3	135	15	foodImage.54	FOODEEG_Images\0560.jpg	YN	Right	No	1.14940700000443	0	651758	252
1275.02734375	1.14940700000443	decision	choicePhaseStart	3	135	15	foodImage.54	FOODEEG_Images\0560.jpg	YN	Right	No	1.14940700000443	0	652815	253
1276.16796875	0	decision	response	3	135	15	foodImage.54	FOODEEG_Images\0560.jpg	YN	Right	No	1.14940700000443	0	653399	235
1277.2109375	1	taste	trialStart	3	136	16	foodImage.98	FOODEEG_Images\0906.jpg	YN	Left	Yes	1.23250610000105	0	653933	251
1278.265625	2	taste	foodImageDisplay	3	136	16	foodImage.98	FOODEEG_Images\0906.jpg	YN	Left	Yes	1.23250610000105	0	654473	252
1280.328125	1.23250610000105	taste	choicePhaseStart	3	136	16	foodImage.98	FOODEEG_Images\0906.jpg	YN	Left	Yes	1.23250610000105	0	655529	253
1281.552734375	0	taste	response	3	136	16	foodImage.98	FOODEEG_Images\0906.jpg	YN	Left	Yes	1.23250610000105	0	656156	234
1282.595703125	1	health	trialStart	3	137	17	foodImage.83	FOODEEG_Images\0827.jpg	YN	Left	Yes	1.11470069999632	0	656690	251
1283.654296875	2	health	foodImageDisplay	3	137	17	foodImage.83	FOODEEG_Images\0827.jpg	YN	Left	Yes	1.11470069999632	0	657232	252
1285.716796875	1.11470069999632	health	choicePhaseStart	3	137	17	foodImage.83	FOODEEG_Images\0827.jpg	YN	Left	Yes	1.11470069999632	0	658288	253
1286.822265625	0	health	response	3	137	17	foodImage.83	FOODEEG_Images\0827.jpg	YN	Left	Yes	1.11470069999632	0	658854	234
1287.8671875	1	taste	trialStart	3	138	18	foodImage.82	FOODEEG_Images\0805.jpg	NY	Right	Yes	0.741684400010854	0	659389	251
1288.921875	2	taste	foodImageDisplay	3	138	18	foodImage.82	FOODEEG_Images\0805.jpg	NY	Right	Yes	0.741684400010854	0	659929	252
1290.98828125	0.741684400010854	taste	choicePhaseStart	3	138	18	foodImage.82	FOODEEG_Images\0805.jpg	NY	Right	Yes	0.741684400010854	0	660987	253
1291.71875	0	taste	response	3	138	18	foodImage.82	FOODEEG_Images\0805.jpg	NY	Right	Yes	0.741684400010854	0	661361	235
1292.76171875	1	taste	trialStart	3	139	19	foodImage.7	FOODEEG_Images\0116.jpg	NY	Right	Yes	0.619761199995992	0	661895	251
1293.806640625	2	taste	foodImageDisplay	3	139	19	foodImage.7	FOODEEG_Images\0116.jpg	NY	Right	Yes	0.619761199995992	0	662430	252
1295.869140625	0.619761199995992	taste	choicePhaseStart	3	139	19	foodImage.7	FOODEEG_Images\0116.jpg	NY	Right	Yes	0.619761199995992	0	663486	253
1296.478515625	0	taste	response	3	139	19	foodImage.7	FOODEEG_Images\0116.jpg	NY	Right	Yes	0.619761199995992	0	663798	235
1297.521484375	1	taste	trialStart	3	140	20	foodImage.112	FOODEEG_Images\0920.jpg	YN	Right	No	1.02500029999646	0	664332	251
1298.560546875	2	taste	foodImageDisplay	3	140	20	foodImage.112	FOODEEG_Images\0920.jpg	YN	Right	No	1.02500029999646	0	664864	252
1300.623046875	1.02500029999646	taste	choicePhaseStart	3	140	20	foodImage.112	FOODEEG_Images\0920.jpg	YN	Right	No	1.02500029999646	0	665920	253
1301.638671875	0	taste	response	3	140	20	foodImage.112	FOODEEG_Images\0920.jpg	YN	Right	No	1.02500029999646	0	666440	235
1302.681640625	1	taste	trialStart	3	141	21	foodImage.119	FOODEEG_Images\0927.jpg	YN	Right	No	0.820196599990595	0	666974	251
1303.7265625	2	taste	foodImageDisplay	3	141	21	foodImage.119	FOODEEG_Images\0927.jpg	YN	Right	No	0.820196599990595	0	667509	252
1305.794921875	0.820196599990595	taste	choicePhaseStart	3	141	21	foodImage.119	FOODEEG_Images\0927.jpg	YN	Right	No	0.820196599990595	0	668568	253
1306.607421875	0	taste	response	3	141	21	foodImage.119	FOODEEG_Images\0927.jpg	YN	Right	No	0.820196599990595	0	668984	235
1307.650390625	1	decision	trialStart	3	142	22	foodImage.69	FOODEEG_Images\0693.jpg	NY	Right	Yes	0.644419599993853	0	669518	251
1308.693359375	2	decision	foodImageDisplay	3	142	22	foodImage.69	FOODEEG_Images\0693.jpg	NY	Right	Yes	0.644419599993853	0	670052	252
1310.755859375	0.644419599993853	decision	choicePhaseStart	3	142	22	foodImage.69	FOODEEG_Images\0693.jpg	NY	Right	Yes	0.644419599993853	0	671108	253
1311.390625	0	decision	response	3	142	22	foodImage.69	FOODEEG_Images\0693.jpg	NY	Right	Yes	0.644419599993853	0	671433	235
1312.43359375	1	taste	trialStart	3	143	23	foodImage.109	FOODEEG_Images\0917.jpg	NY	Right	Yes	0.646954199997708	0	671967	251
1313.47265625	2	taste	foodImageDisplay	3	143	23	foodImage.109	FOODEEG_Images\0917.jpg	NY	Right	Yes	0.646954199997708	0	672499	252
1315.537109375	0.646954199997708	taste	choicePhaseStart	3	143	23	foodImage.109	FOODEEG_Images\0917.jpg	NY	Right	Yes	0.646954199997708	0	673556	253
1316.173828125	0	taste	response	3	143	23	foodImage.109	FOODEEG_Images\0917.jpg	NY	Right	Yes	0.646954199997708	0	673882	235
1317.216796875	1	taste	trialStart	3	144	24	foodImage.78	FOODEEG_Images\0787.jpg	YN	Left	Yes	1.23247109999647	0	674416	251
1318.26171875	2	taste	foodImageDisplay	3	144	24	foodImage.78	FOODEEG_Images\0787.jpg	YN	Left	Yes	1.23247109999647	0	674951	252
1320.32421875	1.23247109999647	taste	choicePhaseStart	3	144	24	foodImage.78	FOODEEG_Images\0787.jpg	YN	Left	Yes	1.23247109999647	0	676007	253
1321.55078125	0	taste	response	3	144	24	foodImage.78	FOODEEG_Images\0787.jpg	YN	Left	Yes	1.23247109999647	0	676635	234
1322.59375	1	decision	trialStart	3	145	25	foodImage.2	FOODEEG_Images\0028.jpg	YN	Left	Yes	1.20404460000282	0	677169	251
1323.63671875	2	decision	foodImageDisplay	3	145	25	foodImage.2	FOODEEG_Images\0028.jpg	YN	Left	Yes	1.20404460000282	0	677703	252
1325.69921875	1.20404460000282	decision	choicePhaseStart	3	145	25	foodImage.2	FOODEEG_Images\0028.jpg	YN	Left	Yes	1.20404460000282	0	678759	253
1326.89453125	0	decision	response	3	145	25	foodImage.2	FOODEEG_Images\0028.jpg	YN	Left	Yes	1.20404460000282	0	679371	234
1327.935546875	1	health	trialStart	3	146	26	foodImage.72	FOODEEG_Images\0714.jpg	YN	Left	Yes	0.835598899997422	0	679904	251
1328.978515625	2	health	foodImageDisplay	3	146	26	foodImage.72	FOODEEG_Images\0714.jpg	YN	Left	Yes	0.835598899997422	0	680438	252
1331.04296875	0.835598899997422	health	choicePhaseStart	3	146	26	foodImage.72	FOODEEG_Images\0714.jpg	YN	Left	Yes	0.835598899997422	0	681495	253
1331.869140625	0	health	response	3	146	26	foodImage.72	FOODEEG_Images\0714.jpg	YN	Left	Yes	0.835598899997422	0	681918	234
1332.9140625	1	health	trialStart	3	147	27	foodImage.30	FOODEEG_Images\0282.jpg	YN	Left	Yes	0.605067600001348	0	682453	251
1333.955078125	2	health	foodImageDisplay	3	147	27	foodImage.30	FOODEEG_Images\0282.jpg	YN	Left	Yes	0.605067600001348	0	682986	252
1336.01953125	0.605067600001348	health	choicePhaseStart	3	147	27	foodImage.30	FOODEEG_Images\0282.jpg	YN	Left	Yes	0.605067600001348	0	684043	253
1336.61328125	0	health	response	3	147	27	foodImage.30	FOODEEG_Images\0282.jpg	YN	Left	Yes	0.605067600001348	0	684347	234
1337.65625	1	taste	trialStart	3	148	28	foodImage.13	FOODEEG_Images\0183.jpg	NY	Right	Yes	0.803109100001166	0	684881	251
1338.701171875	2	taste	foodImageDisplay	3	148	28	foodImage.13	FOODEEG_Images\0183.jpg	NY	Right	Yes	0.803109100001166	0	685416	252
1340.763671875	0.803109100001166	taste	choicePhaseStart	3	148	28	foodImage.13	FOODEEG_Images\0183.jpg	NY	Right	Yes	0.803109100001166	0	686472	253
1341.55859375	0	taste	response	3	148	28	foodImage.13	FOODEEG_Images\0183.jpg	NY	Right	Yes	0.803109100001166	0	686879	235
1342.599609375	1	decision	trialStart	3	149	29	foodImage.20	FOODEEG_Images\0226.jpg	NY	Left	No	1.11843159999989	0	687412	251
1343.6484375	2	decision	foodImageDisplay	3	149	29	foodImage.20	FOODEEG_Images\0226.jpg	NY	Left	No	1.11843159999989	0	687949	252
1345.712890625	1.11843159999989	decision	choicePhaseStart	3	149	29	foodImage.20	FOODEEG_Images\0226.jpg	NY	Left	No	1.11843159999989	0	689006	253
1346.822265625	0	decision	response	3	149	29	foodImage.20	FOODEEG_Images\0226.jpg	NY	Left	No	1.11843159999989	0	689574	234
1347.865234375	1	taste	trialStart	3	150	30	foodImage.14	FOODEEG_Images\0188.jpg	YN	Left	Yes	0.900393900010386	0	690108	251
1348.923828125	2	taste	foodImageDisplay	3	150	30	foodImage.14	FOODEEG_Images\0188.jpg	YN	Left	Yes	0.900393900010386	0	690650	252
1350.986328125	0.900393900010386	taste	choicePhaseStart	3	150	30	foodImage.14	FOODEEG_Images\0188.jpg	YN	Left	Yes	0.900393900010386	0	691706	253
1351.876953125	0	taste	response	3	150	30	foodImage.14	FOODEEG_Images\0188.jpg	YN	Left	Yes	0.900393900010386	0	692162	234
1352.919921875	1	decision	trialStart	3	151	31	foodImage.66	FOODEEG_Images\0676.jpg	NY	Right	Yes	0.666837700002361	0	692696	251
1353.98046875	2	decision	foodImageDisplay	3	151	31	foodImage.66	FOODEEG_Images\0676.jpg	NY	Right	Yes	0.666837700002361	0	693239	252
1356.044921875	0.666837700002361	decision	choicePhaseStart	3	151	31	foodImage.66	FOODEEG_Images\0676.jpg	NY	Right	Yes	0.666837700002361	0	694296	253
1356.701171875	0	decision	response	3	151	31	foodImage.66	FOODEEG_Images\0676.jpg	NY	Right	Yes	0.666837700002361	0	694632	235
1357.74609375	1	health	trialStart	3	152	32	foodImage.105	FOODEEG_Images\0913.jpg	NY	Right	Yes	0.799346600004355	0	695167	251
1358.783203125	2	health	foodImageDisplay	3	152	32	foodImage.105	FOODEEG_Images\0913.jpg	NY	Right	Yes	0.799346600004355	0	695698	252
1360.845703125	0.799346600004355	health	choicePhaseStart	3	152	32	foodImage.105	FOODEEG_Images\0913.jpg	NY	Right	Yes	0.799346600004355	0	696754	253
1361.63671875	0	health	response	3	152	32	foodImage.105	FOODEEG_Images\0913.jpg	NY	Right	Yes	0.799346600004355	0	697159	235
1362.6796875	1	health	trialStart	3	153	33	foodImage.27	FOODEEG_Images\0263.jpg	YN	Right	No	0.677911200007657	0	697693	251
1363.72265625	2	health	foodImageDisplay	3	153	33	foodImage.27	FOODEEG_Images\0263.jpg	YN	Right	No	0.677911200007657	0	698227	252
1365.78515625	0.677911200007657	health	choicePhaseStart	3	153	33	foodImage.27	FOODEEG_Images\0263.jpg	YN	Right	No	0.677911200007657	0	699283	253
1366.453125	0	health	response	3	153	33	foodImage.27	FOODEEG_Images\0263.jpg	YN	Right	No	0.677911200007657	0	699625	235
1367.49609375	1	health	trialStart	3	154	34	foodImage.7	FOODEEG_Images\0116.jpg	YN	Right	No	1.34029159999045	0	700159	251
1368.5390625	2	health	foodImageDisplay	3	154	34	foodImage.7	FOODEEG_Images\0116.jpg	YN	Right	No	1.34029159999045	0	700693	252
1370.6015625	1.34029159999045	health	choicePhaseStart	3	154	34	foodImage.7	FOODEEG_Images\0116.jpg	YN	Right	No	1.34029159999045	0	701749	253
1371.931640625	0	health	response	3	154	34	foodImage.7	FOODEEG_Images\0116.jpg	YN	Right	No	1.34029159999045	0	702430	235
1372.974609375	1	health	trialStart	3	155	35	foodImage.102	FOODEEG_Images\0910.jpg	NY	Right	Yes	2.07135299999209	0	702964	251
1374.013671875	2	health	foodImageDisplay	3	155	35	foodImage.102	FOODEEG_Images\0910.jpg	NY	Right	Yes	2.07135299999209	0	703496	252
1376.078125	2.07135299999209	health	choicePhaseStart	3	155	35	foodImage.102	FOODEEG_Images\0910.jpg	NY	Right	Yes	2.07135299999209	0	704553	253
1378.140625	0	health	response	3	155	35	foodImage.102	FOODEEG_Images\0910.jpg	NY	Right	Yes	2.07135299999209	0	705609	235
1379.18359375	1	health	trialStart	3	156	36	foodImage.5	FOODEEG_Images\0107.jpg	NY	Left	No	1.26618170000438	0	706143	251
1380.2421875	2	health	foodImageDisplay	3	156	36	foodImage.5	FOODEEG_Images\0107.jpg	NY	Left	No	1.26618170000438	0	706685	252
1382.306640625	1.26618170000438	health	choicePhaseStart	3	156	36	foodImage.5	FOODEEG_Images\0107.jpg	NY	Left	No	1.26618170000438	0	707742	253
1383.564453125	0	health	response	3	156	36	foodImage.5	FOODEEG_Images\0107.jpg	NY	Left	No	1.26618170000438	0	708386	234
1384.607421875	1	health	trialStart	3	157	37	foodImage.8	FOODEEG_Images\0136.jpg	NY	Left	No	0.875860800006194	0	708920	251
1385.650390625	2	health	foodImageDisplay	3	157	37	foodImage.8	FOODEEG_Images\0136.jpg	NY	Left	No	0.875860800006194	0	709454	252
1387.71484375	0.875860800006194	health	choicePhaseStart	3	157	37	foodImage.8	FOODEEG_Images\0136.jpg	NY	Left	No	0.875860800006194	0	710511	253
1388.580078125	0	health	response	3	157	37	foodImage.8	FOODEEG_Images\0136.jpg	NY	Left	No	0.875860800006194	0	710954	234
1389.623046875	1	decision	trialStart	3	158	38	foodImage.35	FOODEEG_Images\0350.jpg	NY	Right	Yes	1.12399969999387	0	711488	251
1390.66015625	2	decision	foodImageDisplay	3	158	38	foodImage.35	FOODEEG_Images\0350.jpg	NY	Right	Yes	1.12399969999387	0	712019	252
1392.73046875	1.12399969999387	decision	choicePhaseStart	3	158	38	foodImage.35	FOODEEG_Images\0350.jpg	NY	Right	Yes	1.12399969999387	0	713079	253
1393.84375	0	decision	response	3	158	38	foodImage.35	FOODEEG_Images\0350.jpg	NY	Right	Yes	1.12399969999387	0	713649	235
1394.888671875	1	taste	trialStart	3	159	39	foodImage.74	FOODEEG_Images\0752.jpg	YN	Left	Yes	0.816268800001126	0	714184	251
1395.93359375	2	taste	foodImageDisplay	3	159	39	foodImage.74	FOODEEG_Images\0752.jpg	YN	Left	Yes	0.816268800001126	0	714719	252
1397.99609375	0.816268800001126	taste	choicePhaseStart	3	159	39	foodImage.74	FOODEEG_Images\0752.jpg	YN	Left	Yes	0.816268800001126	0	715775	253
1398.802734375	0	taste	response	3	159	39	foodImage.74	FOODEEG_Images\0752.jpg	YN	Left	Yes	0.816268800001126	0	716188	234
1399.845703125	1	health	trialStart	3	160	40	foodImage.114	FOODEEG_Images\0922.jpg	YN	Left	Yes	1.04758040000161	0	716722	251
1400.884765625	2	health	foodImageDisplay	3	160	40	foodImage.114	FOODEEG_Images\0922.jpg	YN	Left	Yes	1.04758040000161	0	717254	252
1402.94921875	1.04758040000161	health	choicePhaseStart	3	160	40	foodImage.114	FOODEEG_Images\0922.jpg	YN	Left	Yes	1.04758040000161	0	718311	253
1403.98828125	0	health	response	3	160	40	foodImage.114	FOODEEG_Images\0922.jpg	YN	Left	Yes	1.04758040000161	0	718843	234
1405.03125	1	decision	trialStart	3	161	41	foodImage.103	FOODEEG_Images\0911.jpg	YN	Right	No	1.12004779999552	0	719377	251
1406.0703125	2	decision	foodImageDisplay	3	161	41	foodImage.103	FOODEEG_Images\0911.jpg	YN	Right	No	1.12004779999552	0	719909	252
1408.1328125	1.12004779999552	decision	choicePhaseStart	3	161	41	foodImage.103	FOODEEG_Images\0911.jpg	YN	Right	No	1.12004779999552	0	720965	253
1409.244140625	0	decision	response	3	161	41	foodImage.103	FOODEEG_Images\0911.jpg	YN	Right	No	1.12004779999552	0	721534	235
1410.287109375	1	decision	trialStart	3	162	42	foodImage.95	FOODEEG_Images\0903.jpg	NY	Left	No	0.911048499998287	0	722068	251
1411.326171875	2	decision	foodImageDisplay	3	162	42	foodImage.95	FOODEEG_Images\0903.jpg	NY	Left	No	0.911048499998287	0	722600	252
1413.388671875	0.911048499998287	decision	choicePhaseStart	3	162	42	foodImage.95	FOODEEG_Images\0903.jpg	NY	Left	No	0.911048499998287	0	723656	253
1414.291015625	0	decision	response	3	162	42	foodImage.95	FOODEEG_Images\0903.jpg	NY	Left	No	0.911048499998287	0	724118	234
1415.3359375	1	health	trialStart	3	163	43	foodImage.21	FOODEEG_Images\0234.jpg	NY	Right	Yes	1.13120669999626	0	724653	251
1416.39453125	2	health	foodImageDisplay	3	163	43	foodImage.21	FOODEEG_Images\0234.jpg	NY	Right	Yes	1.13120669999626	0	725195	252
1418.45703125	1.13120669999626	health	choicePhaseStart	3	163	43	foodImage.21	FOODEEG_Images\0234.jpg	NY	Right	Yes	1.13120669999626	0	726251	253
1419.580078125	0	health	response	3	163	43	foodImage.21	FOODEEG_Images\0234.jpg	NY	Right	Yes	1.13120669999626	0	726826	235
1420.62109375	1	taste	trialStart	3	164	44	foodImage.57	FOODEEG_Images\0587.jpg	NY	Right	Yes	0.803861299995333	0	727359	251
1421.666015625	2	taste	foodImageDisplay	3	164	44	foodImage.57	FOODEEG_Images\0587.jpg	NY	Right	Yes	0.803861299995333	0	727894	252
1423.728515625	0.803861299995333	taste	choicePhaseStart	3	164	44	foodImage.57	FOODEEG_Images\0587.jpg	NY	Right	Yes	0.803861299995333	0	728950	253
1424.5234375	0	taste	response	3	164	44	foodImage.57	FOODEEG_Images\0587.jpg	NY	Right	Yes	0.803861299995333	0	729357	235
1425.564453125	1	taste	trialStart	3	165	45	foodImage.115	FOODEEG_Images\0923.jpg	YN	Right	No	1.63431359999231	0	729890	251
1426.603515625	2	taste	foodImageDisplay	3	165	45	foodImage.115	FOODEEG_Images\0923.jpg	YN	Right	No	1.63431359999231	0	730422	252
1428.666015625	1.63431359999231	taste	choicePhaseStart	3	165	45	foodImage.115	FOODEEG_Images\0923.jpg	YN	Right	No	1.63431359999231	0	731478	253
1430.291015625	0	taste	response	3	165	45	foodImage.115	FOODEEG_Images\0923.jpg	YN	Right	No	1.63431359999231	0	732310	235
1431.333984375	1	health	trialStart	3	166	46	foodImage.94	FOODEEG_Images\0902.jpg	YN	Left	Yes	1.06446389999473	0	732844	251
1432.373046875	2	health	foodImageDisplay	3	166	46	foodImage.94	FOODEEG_Images\0902.jpg	YN	Left	Yes	1.06446389999473	0	733376	252
1434.435546875	1.06446389999473	health	choicePhaseStart	3	166	46	foodImage.94	FOODEEG_Images\0902.jpg	YN	Left	Yes	1.06446389999473	0	734432	253
1435.490234375	0	health	response	3	166	46	foodImage.94	FOODEEG_Images\0902.jpg	YN	Left	Yes	1.06446389999473	0	734972	234
1436.533203125	1	taste	trialStart	3	167	47	foodImage.89	FOODEEG_Images\0881.jpg	YN	Left	Yes	0.894347499997821	0	735506	251
1437.58984375	2	taste	foodImageDisplay	3	167	47	foodImage.89	FOODEEG_Images\0881.jpg	YN	Left	Yes	0.894347499997821	0	736047	252
1439.654296875	0.894347499997821	taste	choicePhaseStart	3	167	47	foodImage.89	FOODEEG_Images\0881.jpg	YN	Left	Yes	0.894347499997821	0	737104	253
1440.5390625	0	taste	response	3	167	47	foodImage.89	FOODEEG_Images\0881.jpg	YN	Left	Yes	0.894347499997821	0	737557	234
1441.58203125	1	health	trialStart	3	168	48	foodImage.46	FOODEEG_Images\0479.jpg	YN	Left	Yes	0.987549499986926	0	738091	251
1442.6484375	2	health	foodImageDisplay	3	168	48	foodImage.46	FOODEEG_Images\0479.jpg	YN	Left	Yes	0.987549499986926	0	738637	252
1444.712890625	0.987549499986926	health	choicePhaseStart	3	168	48	foodImage.46	FOODEEG_Images\0479.jpg	YN	Left	Yes	0.987549499986926	0	739694	253
1445.69140625	0	health	response	3	168	48	foodImage.46	FOODEEG_Images\0479.jpg	YN	Left	Yes	0.987549499986926	0	740195	234
1446.734375	1	decision	trialStart	3	169	49	foodImage.49	FOODEEG_Images\0515.jpg	NY	Right	Yes	0.796462600002997	0	740729	251
1447.775390625	2	decision	foodImageDisplay	3	169	49	foodImage.49	FOODEEG_Images\0515.jpg	NY	Right	Yes	0.796462600002997	0	741262	252
1449.837890625	0.796462600002997	decision	choicePhaseStart	3	169	49	foodImage.49	FOODEEG_Images\0515.jpg	NY	Right	Yes	0.796462600002997	0	742318	253
1450.626953125	0	decision	response	3	169	49	foodImage.49	FOODEEG_Images\0515.jpg	NY	Right	Yes	0.796462600002997	0	742722	235
1451.669921875	1	taste	trialStart	3	170	50	foodImage.72	FOODEEG_Images\0714.jpg	YN	Left	Yes	1.02821880001284	0	743256	251
1452.712890625	2	taste	foodImageDisplay	3	170	50	foodImage.72	FOODEEG_Images\0714.jpg	YN	Left	Yes	1.02821880001284	0	743790	252
1454.775390625	1.02821880001284	taste	choicePhaseStart	3	170	50	foodImage.72	FOODEEG_Images\0714.jpg	YN	Left	Yes	1.02821880001284	0	744846	253
1455.794921875	0	taste	response	3	170	50	foodImage.72	FOODEEG_Images\0714.jpg	YN	Left	Yes	1.02821880001284	0	745368	234
1456.837890625	1	taste	trialStart	3	171	51	foodImage.22	FOODEEG_Images\0236.jpg	YN	Right	No	1.86177570000291	0	745902	251
1457.87890625	2	taste	foodImageDisplay	3	171	51	foodImage.22	FOODEEG_Images\0236.jpg	YN	Right	No	1.86177570000291	0	746435	252
1459.94140625	1.86177570000291	taste	choicePhaseStart	3	171	51	foodImage.22	FOODEEG_Images\0236.jpg	YN	Right	No	1.86177570000291	0	747491	253
1461.794921875	0	taste	response	3	171	51	foodImage.22	FOODEEG_Images\0236.jpg	YN	Right	No	1.86177570000291	0	748440	235
1462.837890625	1	taste	trialStart	3	172	52	foodImage.117	FOODEEG_Images\0925.jpg	YN	Right	No	1.5203421000042	0	748974	251
1463.875	2	taste	foodImageDisplay	3	172	52	foodImage.117	FOODEEG_Images\0925.jpg	YN	Right	No	1.5203421000042	0	749505	252
1465.939453125	1.5203421000042	taste	choicePhaseStart	3	172	52	foodImage.117	FOODEEG_Images\0925.jpg	YN	Right	No	1.5203421000042	0	750562	253
1467.44921875	0	taste	response	3	172	52	foodImage.117	FOODEEG_Images\0925.jpg	YN	Right	No	1.5203421000042	0	751335	235
1468.4921875	1	taste	trialStart	3	173	53	foodImage.86	FOODEEG_Images\0844.jpg	NY	Right	Yes	0.697121699995478	0	751869	251
1469.552734375	2	taste	foodImageDisplay	3	173	53	foodImage.86	FOODEEG_Images\0844.jpg	NY	Right	Yes	0.697121699995478	0	752412	252
1471.6171875	0.697121699995478	taste	choicePhaseStart	3	173	53	foodImage.86	FOODEEG_Images\0844.jpg	NY	Right	Yes	0.697121699995478	0	753469	253
1472.3046875	0	taste	response	3	173	53	foodImage.86	FOODEEG_Images\0844.jpg	NY	Right	Yes	0.697121699995478	0	753821	235
1473.34765625	1	health	trialStart	3	174	54	foodImage.116	FOODEEG_Images\0924.jpg	YN	Right	No	1.13472079999337	0	754355	251
1474.404296875	2	health	foodImageDisplay	3	174	54	foodImage.116	FOODEEG_Images\0924.jpg	YN	Right	No	1.13472079999337	0	754896	252
1476.46875	1.13472079999337	health	choicePhaseStart	3	174	54	foodImage.116	FOODEEG_Images\0924.jpg	YN	Right	No	1.13472079999337	0	755953	253
1477.59375	0	health	response	3	174	54	foodImage.116	FOODEEG_Images\0924.jpg	YN	Right	No	1.13472079999337	0	756529	235
1478.63671875	1	taste	trialStart	3	175	55	foodImage.92	FOODEEG_Images\0900.jpg	YN	Right	No	1.02354989999731	0	757063	251
1479.67578125	2	taste	foodImageDisplay	3	175	55	foodImage.92	FOODEEG_Images\0900.jpg	YN	Right	No	1.02354989999731	0	757595	252
1481.73828125	1.02354989999731	taste	choicePhaseStart	3	175	55	foodImage.92	FOODEEG_Images\0900.jpg	YN	Right	No	1.02354989999731	0	758651	253
1482.75390625	0	taste	response	3	175	55	foodImage.92	FOODEEG_Images\0900.jpg	YN	Right	No	1.02354989999731	0	759171	235
1483.794921875	1	taste	trialStart	3	176	56	foodImage.48	FOODEEG_Images\0494.jpg	YN	Left	Yes	1.0059820000024	0	759704	251
1484.837890625	2	taste	foodImageDisplay	3	176	56	foodImage.48	FOODEEG_Images\0494.jpg	YN	Left	Yes	1.0059820000024	0	760238	252
1486.900390625	1.0059820000024	taste	choicePhaseStart	3	176	56	foodImage.48	FOODEEG_Images\0494.jpg	YN	Left	Yes	1.0059820000024	0	761294	253
1487.8984375	0	taste	response	3	176	56	foodImage.48	FOODEEG_Images\0494.jpg	YN	Left	Yes	1.0059820000024	0	761805	234
1488.94140625	1	health	trialStart	3	177	57	foodImage.84	FOODEEG_Images\0830.jpg	YN	Left	Yes	0.989703200000804	0	762339	251
1490.001953125	2	health	foodImageDisplay	3	177	57	foodImage.84	FOODEEG_Images\0830.jpg	YN	Left	Yes	0.989703200000804	0	762882	252
1492.06640625	0.989703200000804	health	choicePhaseStart	3	177	57	foodImage.84	FOODEEG_Images\0830.jpg	YN	Left	Yes	0.989703200000804	0	763939	253
1493.048828125	0	health	response	3	177	57	foodImage.84	FOODEEG_Images\0830.jpg	YN	Left	Yes	0.989703200000804	0	764442	234
1494.091796875	1	taste	trialStart	3	178	58	foodImage.80	FOODEEG_Images\0796.jpg	YN	Left	Yes	1.40362680000544	0	764976	251
1495.150390625	2	taste	foodImageDisplay	3	178	58	foodImage.80	FOODEEG_Images\0796.jpg	YN	Left	Yes	1.40362680000544	0	765518	252
1497.21484375	1.40362680000544	taste	choicePhaseStart	3	178	58	foodImage.80	FOODEEG_Images\0796.jpg	YN	Left	Yes	1.40362680000544	0	766575	253
1498.609375	0	taste	response	3	178	58	foodImage.80	FOODEEG_Images\0796.jpg	YN	Left	Yes	1.40362680000544	0	767289	234
1499.65234375	1	taste	trialStart	3	179	59	foodImage.37	FOODEEG_Images\0359.jpg	NY	Right	Yes	1.02050520000921	0	767823	251
1500.693359375	2	taste	foodImageDisplay	3	179	59	foodImage.37	FOODEEG_Images\0359.jpg	NY	Right	Yes	1.02050520000921	0	768356	252
1502.7578125	1.02050520000921	taste	choicePhaseStart	3	179	59	foodImage.37	FOODEEG_Images\0359.jpg	NY	Right	Yes	1.02050520000921	0	769413	253
1503.767578125	0	taste	response	3	179	59	foodImage.37	FOODEEG_Images\0359.jpg	NY	Right	Yes	1.02050520000921	0	769930	235
1504.8125	1	health	trialStart	3	180	60	foodImage.29	FOODEEG_Images\0278.jpg	YN	Left	Yes	1.51638510001067	0	770465	251
1505.85546875	2	health	foodImageDisplay	3	180	60	foodImage.29	FOODEEG_Images\0278.jpg	YN	Left	Yes	1.51638510001067	0	770999	252
1507.91796875	1.51638510001067	health	choicePhaseStart	3	180	60	foodImage.29	FOODEEG_Images\0278.jpg	YN	Left	Yes	1.51638510001067	0	772055	253
1509.423828125	0	health	response	3	180	60	foodImage.29	FOODEEG_Images\0278.jpg	YN	Left	Yes	1.51638510001067	0	772826	234
1511.466796875	9.50390625	n/a	blockEnd	n/a	n/a	n/a	n/a	n/a	n/a	n/a	n/a	n/a	n/a	773872	254
1520.970703125	2	n/a	blockStart	4	n/a	n/a	n/a	n/a	n/a	n/a	n/a	n/a	n/a	778738	250
1523.001953125	1	taste	trialStart	4	181	1	foodImage.81	FOODEEG_Images\0797.jpg	NY	Right	Yes	0.811819800001103	0	779778	251
1524.060546875	2	taste	foodImageDisplay	4	181	1	foodImage.81	FOODEEG_Images\0797.jpg	NY	Right	Yes	0.811819800001103	0	780320	252
1526.125	0.811819800001103	taste	choicePhaseStart	4	181	1	foodImage.81	FOODEEG_Images\0797.jpg	NY	Right	Yes	0.811819800001103	0	781377	253
1526.927734375	0	taste	response	4	181	1	foodImage.81	FOODEEG_Images\0797.jpg	NY	Right	Yes	0.811819800001103	0	781788	235
1527.970703125	1	taste	trialStart	4	182	2	foodImage.65	FOODEEG_Images\0658.jpg	YN	Left	Yes	1.14038939999591	0	782322	251
1529.013671875	2	taste	foodImageDisplay	4	182	2	foodImage.65	FOODEEG_Images\0658.jpg	YN	Left	Yes	1.14038939999591	0	782856	252
1531.076171875	1.14038939999591	taste	choicePhaseStart	4	182	2	foodImage.65	FOODEEG_Images\0658.jpg	YN	Left	Yes	1.14038939999591	0	783912	253
1532.20703125	0	taste	response	4	182	2	foodImage.65	FOODEEG_Images\0658.jpg	YN	Left	Yes	1.14038939999591	0	784491	234
1533.251953125	1	decision	trialStart	4	183	3	foodImage.88	FOODEEG_Images\0878.jpg	YN	Left	Yes	1.06239600000845	0	785026	251
1534.306640625	2	decision	foodImageDisplay	4	183	3	foodImage.88	FOODEEG_Images\0878.jpg	YN	Left	Yes	1.06239600000845	0	785566	252
1536.37109375	1.06239600000845	decision	choicePhaseStart	4	183	3	foodImage.88	FOODEEG_Images\0878.jpg	YN	Left	Yes	1.06239600000845	0	786623	253
1537.423828125	0	decision	response	4	183	3	foodImage.88	FOODEEG_Images\0878.jpg	YN	Left	Yes	1.06239600000845	0	787162	234
1538.466796875	1	health	trialStart	4	184	4	foodImage.33	FOODEEG_Images\0329.jpg	YN	Left	Yes	0.980629500001669	0	787696	251
1539.509765625	2	health	foodImageDisplay	4	184	4	foodImage.33	FOODEEG_Images\0329.jpg	YN	Left	Yes	0.980629500001669	0	788230	252
1541.572265625	0.980629500001669	health	choicePhaseStart	4	184	4	foodImage.33	FOODEEG_Images\0329.jpg	YN	Left	Yes	0.980629500001669	0	789286	253
1542.54296875	0	health	response	4	184	4	foodImage.33	FOODEEG_Images\0329.jpg	YN	Left	Yes	0.980629500001669	0	789783	234
1543.5859375	1	decision	trialStart	4	185	5	foodImage.45	FOODEEG_Images\0478.jpg	NY	Right	Yes	0.874340300011681	0	790317	251
1544.630859375	2	decision	foodImageDisplay	4	185	5	foodImage.45	FOODEEG_Images\0478.jpg	NY	Right	Yes	0.874340300011681	0	790852	252
1546.693359375	0.874340300011681	decision	choicePhaseStart	4	185	5	foodImage.45	FOODEEG_Images\0478.jpg	NY	Right	Yes	0.874340300011681	0	791908	253
1547.55859375	0	decision	response	4	185	5	foodImage.45	FOODEEG_Images\0478.jpg	NY	Right	Yes	0.874340300011681	0	792351	235
1548.609375	1	health	trialStart	4	186	6	foodImage.77	FOODEEG_Images\0771.jpg	YN	Left	Yes	0.908255300004384	0	792889	251
1549.65234375	2	health	foodImageDisplay	4	186	6	foodImage.77	FOODEEG_Images\0771.jpg	YN	Left	Yes	0.908255300004384	0	793423	252
1551.716796875	0.908255300004384	health	choicePhaseStart	4	186	6	foodImage.77	FOODEEG_Images\0771.jpg	YN	Left	Yes	0.908255300004384	0	794480	253
1552.615234375	0	health	response	4	186	6	foodImage.77	FOODEEG_Images\0771.jpg	YN	Left	Yes	0.908255300004384	0	794940	234
1553.658203125	1	health	trialStart	4	187	7	foodImage.58	FOODEEG_Images\0605.jpg	NY	Right	Yes	2.42045610000787	0	795474	251
1554.716796875	2	health	foodImageDisplay	4	187	7	foodImage.58	FOODEEG_Images\0605.jpg	NY	Right	Yes	2.42045610000787	0	796016	252
1556.779296875	2.42045610000787	health	choicePhaseStart	4	187	7	foodImage.58	FOODEEG_Images\0605.jpg	NY	Right	Yes	2.42045610000787	0	797072	253
1559.19140625	0	health	response	4	187	7	foodImage.58	FOODEEG_Images\0605.jpg	NY	Right	Yes	2.42045610000787	0	798307	235
1560.234375	1	decision	trialStart	4	188	8	foodImage.57	FOODEEG_Images\0587.jpg	NY	Right	Yes	0.832870599988382	0	798841	251
1561.27734375	2	decision	foodImageDisplay	4	188	8	foodImage.57	FOODEEG_Images\0587.jpg	NY	Right	Yes	0.832870599988382	0	799375	252
1563.34375	0.832870599988382	decision	choicePhaseStart	4	188	8	foodImage.57	FOODEEG_Images\0587.jpg	NY	Right	Yes	0.832870599988382	0	800433	253
1564.166015625	0	decision	response	4	188	8	foodImage.57	FOODEEG_Images\0587.jpg	NY	Right	Yes	0.832870599988382	0	800854	235
1565.212890625	1	taste	trialStart	4	189	9	foodImage.31	FOODEEG_Images\0294.jpg	NY	Right	Yes	0.882575099996757	0	801390	251
1566.25390625	2	taste	foodImageDisplay	4	189	9	foodImage.31	FOODEEG_Images\0294.jpg	NY	Right	Yes	0.882575099996757	0	801923	252
1568.318359375	0.882575099996757	taste	choicePhaseStart	4	189	9	foodImage.31	FOODEEG_Images\0294.jpg	NY	Right	Yes	0.882575099996757	0	802980	253
1569.189453125	0	taste	response	4	189	9	foodImage.31	FOODEEG_Images\0294.jpg	NY	Right	Yes	0.882575099996757	0	803426	235
1570.234375	1	health	trialStart	4	190	10	foodImage.1	FOODEEG_Images\0004.jpg	YN	Right	No	1.18816999999399	0	803961	251
1571.275390625	2	health	foodImageDisplay	4	190	10	foodImage.1	FOODEEG_Images\0004.jpg	YN	Right	No	1.18816999999399	0	804494	252
1573.33984375	1.18816999999399	health	choicePhaseStart	4	190	10	foodImage.1	FOODEEG_Images\0004.jpg	YN	Right	No	1.18816999999399	0	805551	253
1574.517578125	0	health	response	4	190	10	foodImage.1	FOODEEG_Images\0004.jpg	YN	Right	No	1.18816999999399	0	806154	235
1575.560546875	1	taste	trialStart	4	191	11	foodImage.64	FOODEEG_Images\0647.jpg	YN	Left	Yes	1.25583409999672	0	806688	251
1576.62109375	2	taste	foodImageDisplay	4	191	11	foodImage.64	FOODEEG_Images\0647.jpg	YN	Left	Yes	1.25583409999672	0	807231	252
1578.6875	1.25583409999672	taste	choicePhaseStart	4	191	11	foodImage.64	FOODEEG_Images\0647.jpg	YN	Left	Yes	1.25583409999672	0	808289	253
1579.93359375	0	taste	response	4	191	11	foodImage.64	FOODEEG_Images\0647.jpg	YN	Left	Yes	1.25583409999672	0	808927	234
1580.9765625	1	decision	trialStart	4	192	12	foodImage.50	FOODEEG_Images\0529.jpg	NY	Right	Yes	1.20777320000343	0	809461	251
1582.037109375	2	decision	foodImageDisplay	4	192	12	foodImage.50	FOODEEG_Images\0529.jpg	NY	Right	Yes	1.20777320000343	0	810004	252
1584.103515625	1.20777320000343	decision	choicePhaseStart	4	192	12	foodImage.50	FOODEEG_Images\0529.jpg	NY	Right	Yes	1.20777320000343	0	811062	253
1585.30078125	0	decision	response	4	192	12	foodImage.50	FOODEEG_Images\0529.jpg	NY	Right	Yes	1.20777320000343	0	811675	235
1586.345703125	1	taste	trialStart	4	193	13	foodImage.35	FOODEEG_Images\0350.jpg	NY	Right	Yes	0.719263700011652	0	812210	251
1587.384765625	2	taste	foodImageDisplay	4	193	13	foodImage.35	FOODEEG_Images\0350.jpg	NY	Right	Yes	0.719263700011652	0	812742	252
1589.447265625	0.719263700011652	taste	choicePhaseStart	4	193	13	foodImage.35	FOODEEG_Images\0350.jpg	NY	Right	Yes	0.719263700011652	0	813798	253
1590.158203125	0	taste	response	4	193	13	foodImage.35	FOODEEG_Images\0350.jpg	NY	Right	Yes	0.719263700011652	0	814162	235
1591.201171875	1	health	trialStart	4	194	14	foodImage.45	FOODEEG_Images\0478.jpg	NY	Right	Yes	1.11208190000616	0	814696	251
1592.24609375	2	health	foodImageDisplay	4	194	14	foodImage.45	FOODEEG_Images\0478.jpg	NY	Right	Yes	1.11208190000616	0	815231	252
1594.310546875	1.11208190000616	health	choicePhaseStart	4	194	14	foodImage.45	FOODEEG_Images\0478.jpg	NY	Right	Yes	1.11208190000616	0	816288	253
