onset	duration	trial_type	event_type	block	trial_total	trial_in_block	food_image_code	food_image_path	button_position	resp_position	resp_choice	choice_rt	resp_too_slow	sample	trigger
319.283203125	2	n/a	blockStart	1	n/a	n/a	n/a	n/a	n/a	n/a	n/a	n/a	n/a	163474	250
321.318359375	1	health	trialStart	1	1	1	foodImage.113	FOODEEG_Images\0921.jpg	NY	Left	No	1.14579090010375	0	164516	251
322.361328125	2	health	foodImageDisplay	1	1	1	foodImage.113	FOODEEG_Images\0921.jpg	NY	Left	No	1.14579090010375	0	165050	252
324.427734375	1.14579090010375	health	choicePhaseStart	1	1	1	foodImage.113	FOODEEG_Images\0921.jpg	NY	Left	No	1.14579090010375	0	166108	253
325.572265625	0	health	response	1	1	1	foodImage.113	FOODEEG_Images\0921.jpg	NY	Left	No	1.14579090010375	0	166694	234
326.666015625	1	decision	trialStart	1	2	2	foodImage.116	FOODEEG_Images\0924.jpg	YN	Right	No	1.09051929996349	0	167254	251
327.70703125	2	decision	foodImageDisplay	1	2	2	foodImage.116	FOODEEG_Images\0924.jpg	YN	Right	No	1.09051929996349	0	167787	252
329.76953125	1.09051929996349	decision	choicePhaseStart	1	2	2	foodImage.116	FOODEEG_Images\0924.jpg	YN	Right	No	1.09051929996349	0	168843	253
330.8515625	0	decision	response	1	2	2	foodImage.116	FOODEEG_Images\0924.jpg	YN	Right	No	1.09051929996349	0	169397	235
331.90234375	1	health	trialStart	1	3	3	foodImage.74	FOODEEG_Images\0752.jpg	NY	Right	Yes	0.836682199966162	0	169935	251
332.9453125	2	health	foodImageDisplay	1	3	3	foodImage.74	FOODEEG_Images\0752.jpg	NY	Right	Yes	0.836682199966162	0	170469	252
335.0078125	0.836682199966162	health	choicePhaseStart	1	3	3	foodImage.74	FOODEEG_Images\0752.jpg	NY	Right	Yes	0.836682199966162	0	171525	253
335.8359375	0	health	response	1	3	3	foodImage.74	FOODEEG_Images\0752.jpg	NY	Right	Yes	0.836682199966162	0	171949	235
336.88671875	1	taste	trialStart	1	4	4	foodImage.94	FOODEEG_Images\0902.jpg	NY	Left	No	1.35246680001728	0	172487	251
337.923828125	2	taste	foodImageDisplay	1	4	4	foodImage.94	FOODEEG_Images\0902.jpg	NY	Left	No	1.35246680001728	0	173018	252
339.98828125	1.35246680001728	taste	choicePhaseStart	1	4	4	foodImage.94	FOODEEG_Images\0902.jpg	NY	Left	No	1.35246680001728	0	174075	253
341.330078125	0	taste	response	1	4	4	foodImage.94	FOODEEG_Images\0902.jpg	NY	Left	No	1.35246680001728	0	174762	234
342.376953125	1	decision	trialStart	1	5	5	foodImage.25	FOODEEG_Images\0261.jpg	YN	Right	No	1.24537859996781	0	175298	251
343.421875	2	decision	foodImageDisplay	1	5	5	foodImage.25	FOODEEG_Images\0261.jpg	YN	Right	No	1.24537859996781	0	175833	252
345.486328125	1.24537859996781	decision	choicePhaseStart	1	5	5	foodImage.25	FOODEEG_Images\0261.jpg	YN	Right	No	1.24537859996781	0	176890	253
346.72265625	0	decision	response	1	5	5	foodImage.25	FOODEEG_Images\0261.jpg	YN	Right	No	1.24537859996781	0	177523	235
347.775390625	1	health	trialStart	1	6	6	foodImage.24	FOODEEG_Images\0250.jpg	YN	Left	Yes	0.76709539978765	0	178062	251
348.818359375	2	health	foodImageDisplay	1	6	6	foodImage.24	FOODEEG_Images\0250.jpg	YN	Left	Yes	0.76709539978765	0	178596	252
350.8828125	0.76709539978765	health	choicePhaseStart	1	6	6	foodImage.24	FOODEEG_Images\0250.jpg	YN	Left	Yes	0.76709539978765	0	179653	253
351.642578125	0	health	response	1	6	6	foodImage.24	FOODEEG_Images\0250.jpg	YN	Left	Yes	0.76709539978765	0	180042	234
352.6875	1	health	trialStart	1	7	7	foodImage.52	FOODEEG_Images\0539.jpg	NY	Right	Yes	0.714254100108519	0	180577	251
353.74609375	2	health	foodImageDisplay	1	7	7	foodImage.52	FOODEEG_Images\0539.jpg	NY	Right	Yes	0.714254100108519	0	181119	252
355.80859375	0.714254100108519	health	choicePhaseStart	1	7	7	foodImage.52	FOODEEG_Images\0539.jpg	NY	Right	Yes	0.714254100108519	0	182175	253
356.513671875	0	health	response	1	7	7	foodImage.52	FOODEEG_Images\0539.jpg	NY	Right	Yes	0.714254100108519	0	182536	235
357.55859375	1	health	trialStart	1	8	8	foodImage.63	FOODEEG_Images\0645.jpg	NY	Right	Yes	1.0321122999303	0	183071	251
358.6015625	2	health	foodImageDisplay	1	8	8	foodImage.63	FOODEEG_Images\0645.jpg	NY	Right	Yes	1.0321122999303	0	183605	252
360.6640625	1.0321122999303	health	choicePhaseStart	1	8	8	foodImage.63	FOODEEG_Images\0645.jpg	NY	Right	Yes	1.0321122999303	0	184661	253
361.69140625	0	health	response	1	8	8	foodImage.63	FOODEEG_Images\0645.jpg	NY	Right	Yes	1.0321122999303	0	185187	235
362.734375	1	taste	trialStart	1	9	9	foodImage.98	FOODEEG_Images\0906.jpg	YN	Left	Yes	1.2460499999579	0	185721	251
363.7734375	2	taste	foodImageDisplay	1	9	9	foodImage.98	FOODEEG_Images\0906.jpg	YN	Left	Yes	1.2460499999579	0	186253	252
365.8359375	1.2460499999579	taste	choicePhaseStart	1	9	9	foodImage.98	FOODEEG_Images\0906.jpg	YN	Left	Yes	1.2460499999579	0	187309	253
367.07421875	0	taste	response	1	9	9	foodImage.98	FOODEEG_Images\0906.jpg	YN	Left	Yes	1.2460499999579	0	187943	234
368.1171875	1	decision	trialStart	1	10	10	foodImage.80	FOODEEG_Images\0796.jpg	NY	Right	Yes	1.15110699995421	0	188477	251
369.171875	2	decision	foodImageDisplay	1	10	10	foodImage.80	FOODEEG_Images\0796.jpg	NY	Right	Yes	1.15110699995421	0	189017	252
371.234375	1.15110699995421	decision	choicePhaseStart	1	10	10	foodImage.80	FOODEEG_Images\0796.jpg	NY	Right	Yes	1.15110699995421	0	190073	253
372.376953125	0	decision	response	1	10	10	foodImage.80	FOODEEG_Images\0796.jpg	NY	Right	Yes	1.15110699995421	0	190658	235
373.421875	1	decision	trialStart	1	11	11	foodImage.53	FOODEEG_Images\0547.jpg	NY	Right	Yes	1.05487790005282	0	191193	251
374.4765625	2	decision	foodImageDisplay	1	11	11	foodImage.53	FOODEEG_Images\0547.jpg	NY	Right	Yes	1.05487790005282	0	191733	252
376.5390625	1.05487790005282	decision	choicePhaseStart	1	11	11	foodImage.53	FOODEEG_Images\0547.jpg	NY	Right	Yes	1.05487790005282	0	192789	253
377.583984375	0	decision	response	1	11	11	foodImage.53	FOODEEG_Images\0547.jpg	NY	Right	Yes	1.05487790005282	0	193324	235
378.62890625	1	taste	trialStart	1	12	12	foodImage.107	FOODEEG_Images\0915.jpg	NY	Left	No	1.32064330019057	0	193859	251
379.666015625	2	taste	foodImageDisplay	1	12	12	foodImage.107	FOODEEG_Images\0915.jpg	NY	Left	No	1.32064330019057	0	194390	252
381.728515625	1.32064330019057	taste	choicePhaseStart	1	12	12	foodImage.107	FOODEEG_Images\0915.jpg	NY	Left	No	1.32064330019057	0	195446	253
383.041015625	0	taste	response	1	12	12	foodImage.107	FOODEEG_Images\0915.jpg	NY	Left	No	1.32064330019057	0	196118	234
384.0859375	1	decision	trialStart	1	13	13	foodImage.95	FOODEEG_Images\0903.jpg	NY	Left	No	1.05322459992021	0	196653	251
385.125	2	decision	foodImageDisplay	1	13	13	foodImage.95	FOODEEG_Images\0903.jpg	NY	Left	No	1.05322459992021	0	197185	252
387.1875	1.05322459992021	decision	choicePhaseStart	1	13	13	foodImage.95	FOODEEG_Images\0903.jpg	NY	Left	No	1.05322459992021	0	198241	253
388.232421875	0	decision	response	1	13	13	foodImage.95	FOODEEG_Images\0903.jpg	NY	Left	No	1.05322459992021	0	198776	234
389.271484375	1	decision	trialStart	1	14	14	foodImage.74	FOODEEG_Images\0752.jpg	NY	Right	Yes	1.14224499999546	0	199308	251
390.31640625	2	decision	foodImageDisplay	1	14	14	foodImage.74	FOODEEG_Images\0752.jpg	NY	Right	Yes	1.14224499999546	0	199843	252
392.37890625	1.14224499999546	decision	choicePhaseStart	1	14	14	foodImage.74	FOODEEG_Images\0752.jpg	NY	Right	Yes	1.14224499999546	0	200899	253
393.51171875	0	decision	response	1	14	14	foodImage.74	FOODEEG_Images\0752.jpg	NY	Right	Yes	1.14224499999546	0	201479	235
394.5546875	1	health	trialStart	1	15	15	foodImage.53	FOODEEG_Images\0547.jpg	NY	Left	No	1.15675659989938	0	202013	251
395.638671875	2	health	foodImageDisplay	1	15	15	foodImage.53	FOODEEG_Images\0547.jpg	NY	Left	No	1.15675659989938	0	202568	252
397.701171875	1.15675659989938	health	choicePhaseStart	1	15	15	foodImage.53	FOODEEG_Images\0547.jpg	NY	Left	No	1.15675659989938	0	203624	253
398.84765625	0	health	response	1	15	15	foodImage.53	FOODEEG_Images\0547.jpg	NY	Left	No	1.15675659989938	0	204211	234
399.89453125	1	health	trialStart	1	16	16	foodImage.70	FOODEEG_Images\0705.jpg	YN	Right	No	1.18356360006146	0	204747	251
400.955078125	2	health	foodImageDisplay	1	16	16	foodImage.70	FOODEEG_Images\0705.jpg	YN	Right	No	1.18356360006146	0	205290	252
403.017578125	1.18356360006146	health	choicePhaseStart	1	16	16	foodImage.70	FOODEEG_Images\0705.jpg	YN	Right	No	1.18356360006146	0	206346	253
404.19140625	0	health	response	1	16	16	foodImage.70	FOODEEG_Images\0705.jpg	YN	Right	No	1.18356360006146	0	206947	235
405.232421875	1	taste	trialStart	1	17	17	foodImage.91	FOODEEG_Images\0896.jpg	YN	Left	Yes	1.30412269989029	0	207480	251
406.287109375	2	taste	foodImageDisplay	1	17	17	foodImage.91	FOODEEG_Images\0896.jpg	YN	Left	Yes	1.30412269989029	0	208020	252
408.3515625	1.30412269989029	taste	choicePhaseStart	1	17	17	foodImage.91	FOODEEG_Images\0896.jpg	YN	Left	Yes	1.30412269989029	0	209077	253
409.6484375	0	taste	response	1	17	17	foodImage.91	FOODEEG_Images\0896.jpg	YN	Left	Yes	1.30412269989029	0	209741	234
410.693359375	1	taste	trialStart	1	18	18	foodImage.30	FOODEEG_Images\0282.jpg	NY	Right	Yes	1.60492169996724	0	210276	251
411.734375	2	taste	foodImageDisplay	1	18	18	foodImage.30	FOODEEG_Images\0282.jpg	NY	Right	Yes	1.60492169996724	0	210809	252
413.802734375	1.60492169996724	taste	choicePhaseStart	1	18	18	foodImage.30	FOODEEG_Images\0282.jpg	NY	Right	Yes	1.60492169996724	0	211868	253
415.3984375	0	taste	response	1	18	18	foodImage.30	FOODEEG_Images\0282.jpg	NY	Right	Yes	1.60492169996724	0	212685	235
416.44140625	1	taste	trialStart	1	19	19	foodImage.111	FOODEEG_Images\0919.jpg	YN	Right	No	1.16277669998817	0	213219	251
417.478515625	2	taste	foodImageDisplay	1	19	19	foodImage.111	FOODEEG_Images\0919.jpg	YN	Right	No	1.16277669998817	0	213750	252
419.541015625	1.16277669998817	taste	choicePhaseStart	1	19	19	foodImage.111	FOODEEG_Images\0919.jpg	YN	Right	No	1.16277669998817	0	214806	253
420.6953125	0	taste	response	1	19	19	foodImage.111	FOODEEG_Images\0919.jpg	YN	Right	No	1.16277669998817	0	215397	235
421.73828125	1	health	trialStart	1	20	20	foodImage.41	FOODEEG_Images\0409.jpg	YN	Left	Yes	1.95939740003087	0	215931	251
422.78515625	2	health	foodImageDisplay	1	20	20	foodImage.41	FOODEEG_Images\0409.jpg	YN	Left	Yes	1.95939740003087	0	216467	252
424.849609375	1.95939740003087	health	choicePhaseStart	1	20	20	foodImage.41	FOODEEG_Images\0409.jpg	YN	Left	Yes	1.95939740003087	0	217524	253
426.798828125	0	health	response	1	20	20	foodImage.41	FOODEEG_Images\0409.jpg	YN	Left	Yes	1.95939740003087	0	218522	234
427.841796875	1	decision	trialStart	1	21	21	foodImage.119	FOODEEG_Images\0927.jpg	YN	Right	No	1.26229029987007	0	219056	251
428.8828125	2	decision	foodImageDisplay	1	21	21	foodImage.119	FOODEEG_Images\0927.jpg	YN	Right	No	1.26229029987007	0	219589	252
430.9453125	1.26229029987007	decision	choicePhaseStart	1	21	21	foodImage.119	FOODEEG_Images\0927.jpg	YN	Right	No	1.26229029987007	0	220645	253
432.19921875	0	decision	response	1	21	21	foodImage.119	FOODEEG_Images\0927.jpg	YN	Right	No	1.26229029987007	0	221287	235
433.2421875	1	taste	trialStart	1	22	22	foodImage.76	FOODEEG_Images\0766.jpg	YN	Right	No	1.16461020009592	0	221821	251
434.28515625	2	taste	foodImageDisplay	1	22	22	foodImage.76	FOODEEG_Images\0766.jpg	YN	Right	No	1.16461020009592	0	222355	252
436.34765625	1.16461020009592	taste	choicePhaseStart	1	22	22	foodImage.76	FOODEEG_Images\0766.jpg	YN	Right	No	1.16461020009592	0	223411	253
437.501953125	0	taste	response	1	22	22	foodImage.76	FOODEEG_Images\0766.jpg	YN	Right	No	1.16461020009592	0	224002	235
438.552734375	1	health	trialStart	1	23	23	foodImage.80	FOODEEG_Images\0796.jpg	YN	Left	Yes	1.0956933000125	0	224540	251
439.609375	2	health	foodImageDisplay	1	23	23	foodImage.80	FOODEEG_Images\0796.jpg	YN	Left	Yes	1.0956933000125	0	225081	252
441.671875	1.0956933000125	health	choicePhaseStart	1	23	23	foodImage.80	FOODEEG_Images\0796.jpg	YN	Left	Yes	1.0956933000125	0	226137	253
442.7578125	0	health	response	1	23	23	foodImage.80	FOODEEG_Images\0796.jpg	YN	Left	Yes	1.0956933000125	0	226693	234
443.80078125	1	health	trialStart	1	24	24	foodImage.119	FOODEEG_Images\0927.jpg	NY	Left	No	1.26561510004103	0	227227	251
444.83984375	2	health	foodImageDisplay	1	24	24	foodImage.119	FOODEEG_Images\0927.jpg	NY	Left	No	1.26561510004103	0	227759	252
446.90234375	1.26561510004103	health	choicePhaseStart	1	24	24	foodImage.119	FOODEEG_Images\0927.jpg	NY	Left	No	1.26561510004103	0	228815	253
448.158203125	0	health	response	1	24	24	foodImage.119	FOODEEG_Images\0927.jpg	NY	Left	No	1.26561510004103	0	229458	234
449.201171875	1	decision	trialStart	1	25	25	foodImage.92	FOODEEG_Images\0900.jpg	NY	Left	No	1.29239709977992	0	229992	251
450.251953125	2	decision	foodImageDisplay	1	25	25	foodImage.92	FOODEEG_Images\0900.jpg	NY	Left	No	1.29239709977992	0	230530	252
452.314453125	1.29239709977992	decision	choicePhaseStart	1	25	25	foodImage.92	FOODEEG_Images\0900.jpg	NY	Left	No	1.29239709977992	0	231586	253
453.59765625	0	decision	response	1	25	25	foodImage.92	FOODEEG_Images\0900.jpg	NY	Left	No	1.29239709977992	0	232243	234
454.646484375	1	decision	trialStart	1	26	26	foodImage.26	FOODEEG_Images\0262.jpg	YN	Left	Yes	1.24872700008564	0	232780	251
455.6875	2	decision	foodImageDisplay	1	26	26	foodImage.26	FOODEEG_Images\0262.jpg	YN	Left	Yes	1.24872700008564	0	233313	252
457.75	1.24872700008564	decision	choicePhaseStart	1	26	26	foodImage.26	FOODEEG_Images\0262.jpg	YN	Left	Yes	1.24872700008564	0	234369	253
458.990234375	0	decision	response	1	26	26	foodImage.26	FOODEEG_Images\0262.jpg	YN	Left	Yes	1.24872700008564	0	235004	234
460.033203125	1	decision	trialStart	1	27	27	foodImage.50	FOODEEG_Images\0529.jpg	NY	Right	Yes	0.926243500085548	0	235538	251
461.087890625	2	decision	foodImageDisplay	1	27	27	foodImage.50	FOODEEG_Images\0529.jpg	NY	Right	Yes	0.926243500085548	0	236078	252
463.150390625	0.926243500085548	decision	choicePhaseStart	1	27	27	foodImage.50	FOODEEG_Images\0529.jpg	NY	Right	Yes	0.926243500085548	0	237134	253
464.0703125	0	decision	response	1	27	27	foodImage.50	FOODEEG_Images\0529.jpg	NY	Right	Yes	0.926243500085548	0	237605	235
465.11328125	1	decision	trialStart	1	28	28	foodImage.41	FOODEEG_Images\0409.jpg	NY	Right	Yes	1.13610509992577	0	238139	251
466.158203125	2	decision	foodImageDisplay	1	28	28	foodImage.41	FOODEEG_Images\0409.jpg	NY	Right	Yes	1.13610509992577	0	238674	252
468.220703125	1.13610509992577	decision	choicePhaseStart	1	28	28	foodImage.41	FOODEEG_Images\0409.jpg	NY	Right	Yes	1.13610509992577	0	239730	253
469.349609375	0	decision	response	1	28	28	foodImage.41	FOODEEG_Images\0409.jpg	NY	Right	Yes	1.13610509992577	0	240308	235
470.392578125	1	taste	trialStart	1	29	29	foodImage.50	FOODEEG_Images\0529.jpg	NY	Right	Yes	2.20589230000041	0	240842	251
471.451171875	2	taste	foodImageDisplay	1	29	29	foodImage.50	FOODEEG_Images\0529.jpg	NY	Right	Yes	2.20589230000041	0	241384	252
473.513671875	2.20589230000041	taste	choicePhaseStart	1	29	29	foodImage.50	FOODEEG_Images\0529.jpg	NY	Right	Yes	2.20589230000041	0	242440	253
475.708984375	0	taste	response	1	29	29	foodImage.50	FOODEEG_Images\0529.jpg	NY	Right	Yes	2.20589230000041	0	243564	235
476.751953125	1	taste	trialStart	1	30	30	foodImage.115	FOODEEG_Images\0923.jpg	NY	Left	No	1.07419319986366	0	244098	251
477.7890625	2	taste	foodImageDisplay	1	30	30	foodImage.115	FOODEEG_Images\0923.jpg	NY	Left	No	1.07419319986366	0	244629	252
479.8515625	1.07419319986366	taste	choicePhaseStart	1	30	30	foodImage.115	FOODEEG_Images\0923.jpg	NY	Left	No	1.07419319986366	0	245685	253
480.916015625	0	taste	response	1	30	30	foodImage.115	FOODEEG_Images\0923.jpg	NY	Left	No	1.07419319986366	0	246230	234
481.95703125	1	taste	trialStart	1	31	31	foodImage.61	FOODEEG_Images\0640.jpg	YN	Right	No	1.63263629982248	0	246763	251
482.998046875	2	taste	foodImageDisplay	1	31	31	foodImage.61	FOODEEG_Images\0640.jpg	YN	Right	No	1.63263629982248	0	247296	252
485.060546875	1.63263629982248	taste	choicePhaseStart	1	31	31	foodImage.61	FOODEEG_Images\0640.jpg	YN	Right	No	1.63263629982248	0	248352	253
486.68359375	0	taste	response	1	31	31	foodImage.61	FOODEEG_Images\0640.jpg	YN	Right	No	1.63263629982248	0	249183	235
487.724609375	1	decision	trialStart	1	32	32	foodImage.59	FOODEEG_Images\0607.jpg	NY	Right	Yes	1.14703729981557	0	249716	251
488.771484375	2	decision	foodImageDisplay	1	32	32	foodImage.59	FOODEEG_Images\0607.jpg	NY	Right	Yes	1.14703729981557	0	250252	252
490.833984375	1.14703729981557	decision	choicePhaseStart	1	32	32	foodImage.59	FOODEEG_Images\0607.jpg	NY	Right	Yes	1.14703729981557	0	251308	253
491.97265625	0	decision	response	1	32	32	foodImage.59	FOODEEG_Images\0607.jpg	NY	Right	Yes	1.14703729981557	0	251891	235
493.015625	1	taste	trialStart	1	33	33	foodImage.108	FOODEEG_Images\0916.jpg	NY	Left	No	1.27931250003166	0	252425	251
494.0703125	2	taste	foodImageDisplay	1	33	33	foodImage.108	FOODEEG_Images\0916.jpg	NY	Left	No	1.27931250003166	0	252965	252
496.1328125	1.27931250003166	taste	choicePhaseStart	1	33	33	foodImage.108	FOODEEG_Images\0916.jpg	NY	Left	No	1.27931250003166	0	254021	253
497.404296875	0	taste	response	1	33	33	foodImage.108	FOODEEG_Images\0916.jpg	NY	Left	No	1.27931250003166	0	254672	234
498.447265625	1	decision	trialStart	1	34	34	foodImage.113	FOODEEG_Images\0921.jpg	YN	Left	Yes	1.1230778999161	0	255206	251
499.484375	2	decision	foodImageDisplay	1	34	34	foodImage.113	FOODEEG_Images\0921.jpg	YN	Left	Yes	1.1230778999161	0	255737	252
501.5546875	1.1230778999161	decision	choicePhaseStart	1	34	34	foodImage.113	FOODEEG_Images\0921.jpg	YN	Left	Yes	1.1230778999161	0	256797	253
502.66796875	0	decision	response	1	34	34	foodImage.113	FOODEEG_Images\0921.jpg	YN	Left	Yes	1.1230778999161	0	257367	234
503.708984375	1	health	trialStart	1	35	35	foodImage.44	FOODEEG_Images\0459.jpg	NY	Right	Yes	0.999861899996176	0	257900	251
504.751953125	2	health	foodImageDisplay	1	35	35	foodImage.44	FOODEEG_Images\0459.jpg	NY	Right	Yes	0.999861899996176	0	258434	252
506.814453125	0.999861899996176	health	choicePhaseStart	1	35	35	foodImage.44	FOODEEG_Images\0459.jpg	NY	Right	Yes	0.999861899996176	0	259490	253
507.8046875	0	health	response	1	35	35	foodImage.44	FOODEEG_Images\0459.jpg	NY	Right	Yes	0.999861899996176	0	259997	235
508.8515625	1	taste	trialStart	1	36	36	foodImage.52	FOODEEG_Images\0539.jpg	YN	Right	No	1.75559450010769	0	260533	251
509.908203125	2	taste	foodImageDisplay	1	36	36	foodImage.52	FOODEEG_Images\0539.jpg	YN	Right	No	1.75559450010769	0	261074	252
511.970703125	1.75559450010769	taste	choicePhaseStart	1	36	36	foodImage.52	FOODEEG_Images\0539.jpg	YN	Right	No	1.75559450010769	0	262130	253
513.71484375	0	taste	response	1	36	36	foodImage.52	FOODEEG_Images\0539.jpg	YN	Right	No	1.75559450010769	0	263023	235
514.755859375	1	health	trialStart	1	37	37	foodImage.2	FOODEEG_Images\0028.jpg	YN	Right	No	1.26662080013193	0	263556	251
515.796875	2	health	foodImageDisplay	1	37	37	foodImage.2	FOODEEG_Images\0028.jpg	YN	Right	No	1.26662080013193	0	264089	252
517.857421875	1.26662080013193	health	choicePhaseStart	1	37	37	foodImage.2	FOODEEG_Images\0028.jpg	YN	Right	No	1.26662080013193	0	265144	253
519.115234375	0	health	response	1	37	37	foodImage.2	FOODEEG_Images\0028.jpg	YN	Right	No	1.26662080013193	0	265788	235
520.158203125	1	taste	trialStart	1	38	38	foodImage.15	FOODEEG_Images\0189.jpg	YN	Left	Yes	0.902167899999768	0	266322	251
521.216796875	2	taste	foodImageDisplay	1	38	38	foodImage.15	FOODEEG_Images\0189.jpg	YN	Left	Yes	0.902167899999768	0	266864	252
523.279296875	0.902167899999768	taste	choicePhaseStart	1	38	38	foodImage.15	FOODEEG_Images\0189.jpg	YN	Left	Yes	0.902167899999768	0	267920	253
524.171875	0	taste	response	1	38	38	foodImage.15	FOODEEG_Images\0189.jpg	YN	Left	Yes	0.902167899999768	0	268377	234
525.21484375	1	health	trialStart	1	39	39	foodImage.6	FOODEEG_Images\0113.jpg	NY	Left	No	1.18857860006392	0	268911	251
526.2578125	2	health	foodImageDisplay	1	39	39	foodImage.6	FOODEEG_Images\0113.jpg	NY	Left	No	1.18857860006392	0	269445	252
528.3203125	1.18857860006392	health	choicePhaseStart	1	39	39	foodImage.6	FOODEEG_Images\0113.jpg	NY	Left	No	1.18857860006392	0	270501	253
529.498046875	0	health	response	1	39	39	foodImage.6	FOODEEG_Images\0113.jpg	NY	Left	No	1.18857860006392	0	271104	234
530.541015625	1	decision	trialStart	1	40	40	foodImage.97	FOODEEG_Images\0905.jpg	NY	Right	Yes	0.968723800033331	0	271638	251
531.580078125	2	decision	foodImageDisplay	1	40	40	foodImage.97	FOODEEG_Images\0905.jpg	NY	Right	Yes	0.968723800033331	0	272170	252
533.642578125	0.968723800033331	decision	choicePhaseStart	1	40	40	foodImage.97	FOODEEG_Images\0905.jpg	NY	Right	Yes	0.968723800033331	0	273226	253
534.603515625	0	decision	response	1	40	40	foodImage.97	FOODEEG_Images\0905.jpg	NY	Right	Yes	0.968723800033331	0	273718	235
535.64453125	1	health	trialStart	1	41	41	foodImage.27	FOODEEG_Images\0263.jpg	YN	Left	Yes	1.220272900071	0	274251	251
536.697265625	2	health	foodImageDisplay	1	41	41	foodImage.27	FOODEEG_Images\0263.jpg	YN	Left	Yes	1.220272900071	0	274790	252
538.759765625	1.220272900071	health	choicePhaseStart	1	41	41	foodImage.27	FOODEEG_Images\0263.jpg	YN	Left	Yes	1.220272900071	0	275846	253
539.970703125	0	health	response	1	41	41	foodImage.27	FOODEEG_Images\0263.jpg	YN	Left	Yes	1.220272900071	0	276466	234
541.01171875	1	taste	trialStart	1	42	42	foodImage.48	FOODEEG_Images\0494.jpg	YN	Left	Yes	1.03297920012847	0	276999	251
542.052734375	2	taste	foodImageDisplay	1	42	42	foodImage.48	FOODEEG_Images\0494.jpg	YN	Left	Yes	1.03297920012847	0	277532	252
544.115234375	1.03297920012847	taste	choicePhaseStart	1	42	42	foodImage.48	FOODEEG_Images\0494.jpg	YN	Left	Yes	1.03297920012847	0	278588	253
545.138671875	0	taste	response	1	42	42	foodImage.48	FOODEEG_Images\0494.jpg	YN	Left	Yes	1.03297920012847	0	279112	234
546.181640625	1	decision	trialStart	1	43	43	foodImage.43	FOODEEG_Images\0445.jpg	YN	Left	Yes	1.1421849001199	0	279646	251
547.23828125	2	decision	foodImageDisplay	1	43	43	foodImage.43	FOODEEG_Images\0445.jpg	YN	Left	Yes	1.1421849001199	0	280187	252
549.30078125	1.1421849001199	decision	choicePhaseStart	1	43	43	foodImage.43	FOODEEG_Images\0445.jpg	YN	Left	Yes	1.1421849001199	0	281243	253
550.43359375	0	decision	response	1	43	43	foodImage.43	FOODEEG_Images\0445.jpg	YN	Left	Yes	1.1421849001199	0	281823	234
551.478515625	1	taste	trialStart	1	44	44	foodImage.105	FOODEEG_Images\0913.jpg	YN	Left	Yes	0.920361999887973	0	282358	251
552.515625	2	taste	foodImageDisplay	1	44	44	foodImage.105	FOODEEG_Images\0913.jpg	YN	Left	Yes	0.920361999887973	0	282889	252
554.578125	0.920361999887973	taste	choicePhaseStart	1	44	44	foodImage.105	FOODEEG_Images\0913.jpg	YN	Left	Yes	0.920361999887973	0	283945	253
555.490234375	0	taste	response	1	44	44	foodImage.105	FOODEEG_Images\0913.jpg	YN	Left	Yes	0.920361999887973	0	284412	234
556.533203125	1	taste	trialStart	1	45	45	foodImage.75	FOODEEG_Images\0763.jpg	YN	Right	No	1.86225689994171	0	284946	251
557.59765625	2	taste	foodImageDisplay	1	45	45	foodImage.75	FOODEEG_Images\0763.jpg	YN	Right	No	1.86225689994171	0	285491	252
559.66015625	1.86225689994171	taste	choicePhaseStart	1	45	45	foodImage.75	FOODEEG_Images\0763.jpg	YN	Right	No	1.86225689994171	0	286547	253
561.513671875	0	taste	response	1	45	45	foodImage.75	FOODEEG_Images\0763.jpg	YN	Right	No	1.86225689994171	0	287496	235
562.556640625	1	taste	trialStart	1	46	46	foodImage.70	FOODEEG_Images\0705.jpg	YN	Left	Yes	0.911418099887669	0	288030	251
563.61328125	2	taste	foodImageDisplay	1	46	46	foodImage.70	FOODEEG_Images\0705.jpg	YN	Left	Yes	0.911418099887669	0	288571	252
565.673828125	0.911418099887669	taste	choicePhaseStart	1	46	46	foodImage.70	FOODEEG_Images\0705.jpg	YN	Left	Yes	0.911418099887669	0	289626	253
566.578125	0	taste	response	1	46	46	foodImage.70	FOODEEG_Images\0705.jpg	YN	Left	Yes	0.911418099887669	0	290089	234
567.62109375	1	health	trialStart	1	47	47	foodImage.18	FOODEEG_Images\0202.jpg	NY	Right	Yes	0.841117100091651	0	290623	251
568.67578125	2	health	foodImageDisplay	1	47	47	foodImage.18	FOODEEG_Images\0202.jpg	NY	Right	Yes	0.841117100091651	0	291163	252
570.73828125	0.841117100091651	health	choicePhaseStart	1	47	47	foodImage.18	FOODEEG_Images\0202.jpg	NY	Right	Yes	0.841117100091651	0	292219	253
571.5703125	0	health	response	1	47	47	foodImage.18	FOODEEG_Images\0202.jpg	NY	Right	Yes	0.841117100091651	0	292645	235
572.611328125	1	decision	trialStart	1	48	48	foodImage.87	FOODEEG_Images\0873.jpg	NY	Right	Yes	1.03823229996487	0	293178	251
573.669921875	2	decision	foodImageDisplay	1	48	48	foodImage.87	FOODEEG_Images\0873.jpg	NY	Right	Yes	1.03823229996487	0	293720	252
575.732421875	1.03823229996487	decision	choicePhaseStart	1	48	48	foodImage.87	FOODEEG_Images\0873.jpg	NY	Right	Yes	1.03823229996487	0	294776	253
576.76171875	0	decision	response	1	48	48	foodImage.87	FOODEEG_Images\0873.jpg	NY	Right	Yes	1.03823229996487	0	295303	235
577.80078125	1	health	trialStart	1	49	49	foodImage.46	FOODEEG_Images\0479.jpg	NY	Right	Yes	0.752551600104198	0	295835	251
578.859375	2	health	foodImageDisplay	1	49	49	foodImage.46	FOODEEG_Images\0479.jpg	NY	Right	Yes	0.752551600104198	0	296377	252
580.919921875	0.752551600104198	health	choicePhaseStart	1	49	49	foodImage.46	FOODEEG_Images\0479.jpg	NY	Right	Yes	0.752551600104198	0	297432	253
581.666015625	0	health	response	1	49	49	foodImage.46	FOODEEG_Images\0479.jpg	NY	Right	Yes	0.752551600104198	0	297814	235
582.70703125	1	decision	trialStart	1	50	50	foodImage.11	FOODEEG_Images\0180.jpg	YN	Right	No	0.921804900048301	0	298347	251
583.76953125	2	decision	foodImageDisplay	1	50	50	foodImage.11	FOODEEG_Images\0180.jpg	YN	Right	No	0.921804900048301	0	298891	252
585.83203125	0.921804900048301	decision	choicePhaseStart	1	50	50	foodImage.11	FOODEEG_Images\0180.jpg	YN	Right	No	0.921804900048301	0	299947	253
586.744140625	0	decision	response	1	50	50	foodImage.11	FOODEEG_Images\0180.jpg	YN	Right	No	0.921804900048301	0	300414	235
587.787109375	1	taste	trialStart	1	51	51	foodImage.72	FOODEEG_Images\0714.jpg	NY	Right	Yes	1.10329449991696	0	300948	251
588.828125	2	taste	foodImageDisplay	1	51	51	foodImage.72	FOODEEG_Images\0714.jpg	NY	Right	Yes	1.10329449991696	0	301481	252
590.890625	1.10329449991696	taste	choicePhaseStart	1	51	51	foodImage.72	FOODEEG_Images\0714.jpg	NY	Right	Yes	1.10329449991696	0	302537	253
591.984375	0	taste	response	1	51	51	foodImage.72	FOODEEG_Images\0714.jpg	NY	Right	Yes	1.10329449991696	0	303097	235
593.02734375	1	health	trialStart	1	52	52	foodImage.3	FOODEEG_Images\0046.jpg	NY	Left	No	0.983911399962381	0	303631	251
594.076171875	2	health	foodImageDisplay	1	52	52	foodImage.3	FOODEEG_Images\0046.jpg	NY	Left	No	0.983911399962381	0	304168	252
596.138671875	0.983911399962381	health	choicePhaseStart	1	52	52	foodImage.3	FOODEEG_Images\0046.jpg	NY	Left	No	0.983911399962381	0	305224	253
597.11328125	0	health	response	1	52	52	foodImage.3	FOODEEG_Images\0046.jpg	NY	Left	No	0.983911399962381	0	305723	234
598.15234375	1	health	trialStart	1	53	53	foodImage.37	FOODEEG_Images\0359.jpg	YN	Left	Yes	1.0522952999454	0	306255	251
599.19140625	2	health	foodImageDisplay	1	53	53	foodImage.37	FOODEEG_Images\0359.jpg	YN	Left	Yes	1.0522952999454	0	306787	252
601.25390625	1.0522952999454	health	choicePhaseStart	1	53	53	foodImage.37	FOODEEG_Images\0359.jpg	YN	Left	Yes	1.0522952999454	0	307843	253
602.296875	0	health	response	1	53	53	foodImage.37	FOODEEG_Images\0359.jpg	YN	Left	Yes	1.0522952999454	0	308377	234
603.3359375	1	health	trialStart	1	54	54	foodImage.91	FOODEEG_Images\0896.jpg	YN	Right	No	0.956839499995112	0	308909	251
604.390625	2	health	foodImageDisplay	1	54	54	foodImage.91	FOODEEG_Images\0896.jpg	YN	Right	No	0.956839499995112	0	309449	252
606.453125	0.956839499995112	health	choicePhaseStart	1	54	54	foodImage.91	FOODEEG_Images\0896.jpg	YN	Right	No	0.956839499995112	0	310505	253
607.400390625	0	health	response	1	54	54	foodImage.91	FOODEEG_Images\0896.jpg	YN	Right	No	0.956839499995112	0	310990	235
608.443359375	1	health	trialStart	1	55	55	foodImage.29	FOODEEG_Images\0278.jpg	NY	Right	Yes	1.13091520010494	0	311524	251
609.50390625	2	health	foodImageDisplay	1	55	55	foodImage.29	FOODEEG_Images\0278.jpg	NY	Right	Yes	1.13091520010494	0	312067	252
611.56640625	1.13091520010494	health	choicePhaseStart	1	55	55	foodImage.29	FOODEEG_Images\0278.jpg	NY	Right	Yes	1.13091520010494	0	313123	253
612.6875	0	health	response	1	55	55	foodImage.29	FOODEEG_Images\0278.jpg	NY	Right	Yes	1.13091520010494	0	313697	235
613.73046875	1	health	trialStart	1	56	56	foodImage.48	FOODEEG_Images\0494.jpg	NY	Left	No	1.55091420002282	0	314231	251
614.771484375	2	health	foodImageDisplay	1	56	56	foodImage.48	FOODEEG_Images\0494.jpg	NY	Left	No	1.55091420002282	0	314764	252
616.833984375	1.55091420002282	health	choicePhaseStart	1	56	56	foodImage.48	FOODEEG_Images\0494.jpg	NY	Left	No	1.55091420002282	0	315820	253
618.375	0	health	response	1	56	56	foodImage.48	FOODEEG_Images\0494.jpg	NY	Left	No	1.55091420002282	0	316609	234
619.416015625	1	decision	trialStart	1	57	57	foodImage.91	FOODEEG_Images\0896.jpg	YN	Left	Yes	0.79257920011878	0	317142	251
620.47265625	2	decision	foodImageDisplay	1	57	57	foodImage.91	FOODEEG_Images\0896.jpg	YN	Left	Yes	0.79257920011878	0	317683	252
622.53515625	0.79257920011878	decision	choicePhaseStart	1	57	57	foodImage.91	FOODEEG_Images\0896.jpg	YN	Left	Yes	0.79257920011878	0	318739	253
623.318359375	0	decision	response	1	57	57	foodImage.91	FOODEEG_Images\0896.jpg	YN	Left	Yes	0.79257920011878	0	319140	234
624.359375	1	health	trialStart	1	58	58	foodImage.62	FOODEEG_Images\0644.jpg	YN	Left	Yes	0.946486099855974	0	319673	251
625.416015625	2	health	foodImageDisplay	1	58	58	foodImage.62	FOODEEG_Images\0644.jpg	YN	Left	Yes	0.946486099855974	0	320214	252
627.478515625	0.946486099855974	health	choicePhaseStart	1	58	58	foodImage.62	FOODEEG_Images\0644.jpg	YN	Left	Yes	0.946486099855974	0	321270	253
628.416015625	0	health	response	1	58	58	foodImage.62	FOODEEG_Images\0644.jpg	YN	Left	Yes	0.946486099855974	0	321750	234
629.45703125	1	taste	trialStart	1	59	59	foodImage.90	FOODEEG_Images\0890.jpg	YN	Right	No	1.82089149998501	0	322283	251
630.515625	2	taste	foodImageDisplay	1	59	59	foodImage.90	FOODEEG_Images\0890.jpg	YN	Right	No	1.82089149998501	0	322825	252
632.578125	1.82089149998501	taste	choicePhaseStart	1	59	59	foodImage.90	FOODEEG_Images\0890.jpg	YN	Right	No	1.82089149998501	0	323881	253
634.390625	0	taste	response	1	59	59	foodImage.90	FOODEEG_Images\0890.jpg	YN	Right	No	1.82089149998501	0	324809	235
635.431640625	1	taste	trialStart	1	60	60	foodImage.25	FOODEEG_Images\0261.jpg	NY	Left	No	2.20800729980692	0	325342	251
636.47265625	2	taste	foodImageDisplay	1	60	60	foodImage.25	FOODEEG_Images\0261.jpg	NY	Left	No	2.20800729980692	0	325875	252
638.53515625	2.20800729980692	taste	choicePhaseStart	1	60	60	foodImage.25	FOODEEG_Images\0261.jpg	NY	Left	No	2.20800729980692	0	326931	253
640.734375	0	taste	response	1	60	60	foodImage.25	FOODEEG_Images\0261.jpg	NY	Left	No	2.20800729980692	0	328057	234
642.775390625	33.333984375	n/a	blockEnd	n/a	n/a	n/a	n/a	n/a	n/a	n/a	n/a	n/a	n/a	329102	254
676.109375	2	n/a	blockStart	2	n/a	n/a	n/a	n/a	n/a	n/a	n/a	n/a	n/a	346169	250
678.140625	1	decision	trialStart	2	61	1	foodImage.20	FOODEEG_Images\0226.jpg	YN	Right	No	1.10103780007921	0	347209	251
679.18359375	2	decision	foodImageDisplay	2	61	1	foodImage.20	FOODEEG_Images\0226.jpg	YN	Right	No	1.10103780007921	0	347743	252
681.248046875	1.10103780007921	decision	choicePhaseStart	2	61	1	foodImage.20	FOODEEG_Images\0226.jpg	YN	Right	No	1.10103780007921	0	348800	253
682.33984375	0	decision	response	2	61	1	foodImage.20	FOODEEG_Images\0226.jpg	YN	Right	No	1.10103780007921	0	349359	235
683.384765625	1	taste	trialStart	2	62	2	foodImage.10	FOODEEG_Images\0145.jpg	YN	Left	Yes	0.85170209989883	0	349894	251
684.443359375	2	taste	foodImageDisplay	2	62	2	foodImage.10	FOODEEG_Images\0145.jpg	YN	Left	Yes	0.85170209989883	0	350436	252
686.505859375	0.85170209989883	taste	choicePhaseStart	2	62	2	foodImage.10	FOODEEG_Images\0145.jpg	YN	Left	Yes	0.85170209989883	0	351492	253
687.34765625	0	taste	response	2	62	2	foodImage.10	FOODEEG_Images\0145.jpg	YN	Left	Yes	0.85170209989883	0	351923	234
688.392578125	1	health	trialStart	2	63	3	foodImage.16	FOODEEG_Images\0196.jpg	NY	Right	Yes	0.636906800093129	0	352458	251
689.44921875	2	health	foodImageDisplay	2	63	3	foodImage.16	FOODEEG_Images\0196.jpg	NY	Right	Yes	0.636906800093129	0	352999	252
691.51171875	0.636906800093129	health	choicePhaseStart	2	63	3	foodImage.16	FOODEEG_Images\0196.jpg	NY	Right	Yes	0.636906800093129	0	354055	253
692.140625	0	health	response	2	63	3	foodImage.16	FOODEEG_Images\0196.jpg	NY	Right	Yes	0.636906800093129	0	354377	235
693.18359375	1	health	trialStart	2	64	4	foodImage.67	FOODEEG_Images\0679.jpg	YN	Right	No	0.871944200014696	0	354911	251
694.240234375	2	health	foodImageDisplay	2	64	4	foodImage.67	FOODEEG_Images\0679.jpg	YN	Right	No	0.871944200014696	0	355452	252
696.302734375	0.871944200014696	health	choicePhaseStart	2	64	4	foodImage.67	FOODEEG_Images\0679.jpg	YN	Right	No	0.871944200014696	0	356508	253
697.1640625	0	health	response	2	64	4	foodImage.67	FOODEEG_Images\0679.jpg	YN	Right	No	0.871944200014696	0	356949	235
698.20703125	1	taste	trialStart	2	65	5	foodImage.13	FOODEEG_Images\0183.jpg	NY	Left	No	1.46624150010757	0	357483	251
699.26953125	2	taste	foodImageDisplay	2	65	5	foodImage.13	FOODEEG_Images\0183.jpg	NY	Left	No	1.46624150010757	0	358027	252
701.33203125	1.46624150010757	taste	choicePhaseStart	2	65	5	foodImage.13	FOODEEG_Images\0183.jpg	NY	Left	No	1.46624150010757	0	359083	253
702.787109375	0	taste	response	2	65	5	foodImage.13	FOODEEG_Images\0183.jpg	NY	Left	No	1.46624150010757	0	359828	234
703.830078125	1	decision	trialStart	2	66	6	foodImage.72	FOODEEG_Images\0714.jpg	YN	Left	Yes	1.16607260005549	0	360362	251
704.873046875	2	decision	foodImageDisplay	2	66	6	foodImage.72	FOODEEG_Images\0714.jpg	YN	Left	Yes	1.16607260005549	0	360896	252
706.93359375	1.16607260005549	decision	choicePhaseStart	2	66	6	foodImage.72	FOODEEG_Images\0714.jpg	YN	Left	Yes	1.16607260005549	0	361951	253
708.091796875	0	decision	response	2	66	6	foodImage.72	FOODEEG_Images\0714.jpg	YN	Left	Yes	1.16607260005549	0	362544	234
709.134765625	1	decision	trialStart	2	67	7	foodImage.45	FOODEEG_Images\0478.jpg	NY	Right	Yes	1.59629389992915	0	363078	251
710.177734375	2	decision	foodImageDisplay	2	67	7	foodImage.45	FOODEEG_Images\0478.jpg	NY	Right	Yes	1.59629389992915	0	363612	252
712.240234375	1.59629389992915	decision	choicePhaseStart	2	67	7	foodImage.45	FOODEEG_Images\0478.jpg	NY	Right	Yes	1.59629389992915	0	364668	253
713.828125	0	decision	response	2	67	7	foodImage.45	FOODEEG_Images\0478.jpg	NY	Right	Yes	1.59629389992915	0	365481	235
714.869140625	1	health	trialStart	2	68	8	foodImage.56	FOODEEG_Images\0586.jpg	NY	Left	No	0.916855599964038	0	366014	251
715.9140625	2	health	foodImageDisplay	2	68	8	foodImage.56	FOODEEG_Images\0586.jpg	NY	Left	No	0.916855599964038	0	366549	252
717.9765625	0.916855599964038	health	choicePhaseStart	2	68	8	foodImage.56	FOODEEG_Images\0586.jpg	NY	Left	No	0.916855599964038	0	367605	253
718.8828125	0	health	response	2	68	8	foodImage.56	FOODEEG_Images\0586.jpg	NY	Left	No	0.916855599964038	0	368069	234
719.94140625	1	taste	trialStart	2	69	9	foodImage.3	FOODEEG_Images\0046.jpg	NY	Right	Yes	1.30087699997239	0	368611	251
721.001953125	2	taste	foodImageDisplay	2	69	9	foodImage.3	FOODEEG_Images\0046.jpg	NY	Right	Yes	1.30087699997239	0	369154	252
723.064453125	1.30087699997239	taste	choicePhaseStart	2	69	9	foodImage.3	FOODEEG_Images\0046.jpg	NY	Right	Yes	1.30087699997239	0	370210	253
724.35546875	0	taste	response	2	69	9	foodImage.3	FOODEEG_Images\0046.jpg	NY	Right	Yes	1.30087699997239	0	370871	235
725.396484375	1	decision	trialStart	2	70	10	foodImage.21	FOODEEG_Images\0234.jpg	NY	Right	Yes	1.07408060017042	0	371404	251
726.451171875	2	decision	foodImageDisplay	2	70	10	foodImage.21	FOODEEG_Images\0234.jpg	NY	Right	Yes	1.07408060017042	0	371944	252
728.513671875	1.07408060017042	decision	choicePhaseStart	2	70	10	foodImage.21	FOODEEG_Images\0234.jpg	NY	Right	Yes	1.07408060017042	0	373000	253
729.578125	0	decision	response	2	70	10	foodImage.21	FOODEEG_Images\0234.jpg	NY	Right	Yes	1.07408060017042	0	373545	235
730.62109375	1	taste	trialStart	2	71	11	foodImage.104	FOODEEG_Images\0912.jpg	NY	Right	Yes	3.71582900010981	0	374079	251
731.66015625	2	taste	foodImageDisplay	2	71	11	foodImage.104	FOODEEG_Images\0912.jpg	NY	Right	Yes	3.71582900010981	0	374611	252
733.728515625	3.71582900010981	taste	choicePhaseStart	2	71	11	foodImage.104	FOODEEG_Images\0912.jpg	NY	Right	Yes	3.71582900010981	0	375670	253
737.435546875	0	taste	response	2	71	11	foodImage.104	FOODEEG_Images\0912.jpg	NY	Right	Yes	3.71582900010981	0	377568	235
738.478515625	1	decision	trialStart	2	72	12	foodImage.98	FOODEEG_Images\0906.jpg	YN	Left	Yes	1.30460719997063	0	378102	251
739.515625	2	decision	foodImageDisplay	2	72	12	foodImage.98	FOODEEG_Images\0906.jpg	YN	Left	Yes	1.30460719997063	0	378633	252
741.578125	1.30460719997063	decision	choicePhaseStart	2	72	12	foodImage.98	FOODEEG_Images\0906.jpg	YN	Left	Yes	1.30460719997063	0	379689	253
742.875	0	decision	response	2	72	12	foodImage.98	FOODEEG_Images\0906.jpg	YN	Left	Yes	1.30460719997063	0	380353	234
743.9140625	1	taste	trialStart	2	73	13	foodImage.69	FOODEEG_Images\0693.jpg	YN	Left	Yes	1.08049060008489	0	380885	251
744.955078125	2	taste	foodImageDisplay	2	73	13	foodImage.69	FOODEEG_Images\0693.jpg	YN	Left	Yes	1.08049060008489	0	381418	252
747.017578125	1.08049060008489	taste	choicePhaseStart	2	73	13	foodImage.69	FOODEEG_Images\0693.jpg	YN	Left	Yes	1.08049060008489	0	382474	253
748.08984375	0	taste	response	2	73	13	foodImage.69	FOODEEG_Images\0693.jpg	YN	Left	Yes	1.08049060008489	0	383023	234
749.13671875	1	taste	trialStart	2	74	14	foodImage.71	FOODEEG_Images\0713.jpg	YN	Left	Yes	0.763568199938163	0	383559	251
750.177734375	2	taste	foodImageDisplay	2	74	14	foodImage.71	FOODEEG_Images\0713.jpg	YN	Left	Yes	0.763568199938163	0	384092	252
752.240234375	0.763568199938163	taste	choicePhaseStart	2	74	14	foodImage.71	FOODEEG_Images\0713.jpg	YN	Left	Yes	0.763568199938163	0	385148	253
752.994140625	0	taste	response	2	74	14	foodImage.71	FOODEEG_Images\0713.jpg	YN	Left	Yes	0.763568199938163	0	385534	234
754.03515625	1	taste	trialStart	2	75	15	foodImage.23	FOODEEG_Images\0244.jpg	YN	Right	No	1.8069132999517	0	386067	251
755.078125	2	taste	foodImageDisplay	2	75	15	foodImage.23	FOODEEG_Images\0244.jpg	YN	Right	No	1.8069132999517	0	386601	252
757.138671875	1.8069132999517	taste	choicePhaseStart	2	75	15	foodImage.23	FOODEEG_Images\0244.jpg	YN	Right	No	1.8069132999517	0	387656	253
758.9375	0	taste	response	2	75	15	foodImage.23	FOODEEG_Images\0244.jpg	YN	Right	No	1.8069132999517	0	388577	235
759.978515625	1	health	trialStart	2	76	16	foodImage.112	FOODEEG_Images\0920.jpg	YN	Right	No	1.00643259985372	0	389110	251
761.015625	2	health	foodImageDisplay	2	76	16	foodImage.112	FOODEEG_Images\0920.jpg	YN	Right	No	1.00643259985372	0	389641	252
763.078125	1.00643259985372	health	choicePhaseStart	2	76	16	foodImage.112	FOODEEG_Images\0920.jpg	YN	Right	No	1.00643259985372	0	390697	253
764.07421875	0	health	response	2	76	16	foodImage.112	FOODEEG_Images\0920.jpg	YN	Right	No	1.00643259985372	0	391207	235
765.119140625	1	decision	trialStart	2	77	17	foodImage.90	FOODEEG_Images\0890.jpg	YN	Left	Yes	1.42853649985045	0	391742	251
766.17578125	2	decision	foodImageDisplay	2	77	17	foodImage.90	FOODEEG_Images\0890.jpg	YN	Left	Yes	1.42853649985045	0	392283	252
768.23828125	1.42853649985045	decision	choicePhaseStart	2	77	17	foodImage.90	FOODEEG_Images\0890.jpg	YN	Left	Yes	1.42853649985045	0	393339	253
769.658203125	0	decision	response	2	77	17	foodImage.90	FOODEEG_Images\0890.jpg	YN	Left	Yes	1.42853649985045	0	394066	234
770.701171875	1	health	trialStart	2	78	18	foodImage.81	FOODEEG_Images\0797.jpg	YN	Left	Yes	0.972271100152284	0	394600	251
771.7578125	2	health	foodImageDisplay	2	78	18	foodImage.81	FOODEEG_Images\0797.jpg	YN	Left	Yes	0.972271100152284	0	395141	252
773.822265625	0.972271100152284	health	choicePhaseStart	2	78	18	foodImage.81	FOODEEG_Images\0797.jpg	YN	Left	Yes	0.972271100152284	0	396198	253
774.78515625	0	health	response	2	78	18	foodImage.81	FOODEEG_Images\0797.jpg	YN	Left	Yes	0.972271100152284	0	396691	234
775.830078125	1	taste	trialStart	2	79	19	foodImage.34	FOODEEG_Images\0339.jpg	NY	Right	Yes	0.82804309995845	0	397226	251
776.88671875	2	taste	foodImageDisplay	2	79	19	foodImage.34	FOODEEG_Images\0339.jpg	NY	Right	Yes	0.82804309995845	0	397767	252
778.94921875	0.82804309995845	taste	choicePhaseStart	2	79	19	foodImage.34	FOODEEG_Images\0339.jpg	NY	Right	Yes	0.82804309995845	0	398823	253
779.76953125	0	taste	response	2	79	19	foodImage.34	FOODEEG_Images\0339.jpg	NY	Right	Yes	0.82804309995845	0	399243	235
780.8125	1	health	trialStart	2	80	20	foodImage.10	FOODEEG_Images\0145.jpg	NY	Left	No	1.41836520005018	0	399777	251
781.873046875	2	health	foodImageDisplay	2	80	20	foodImage.10	FOODEEG_Images\0145.jpg	NY	Left	No	1.41836520005018	0	400320	252
783.935546875	1.41836520005018	health	choicePhaseStart	2	80	20	foodImage.10	FOODEEG_Images\0145.jpg	NY	Left	No	1.41836520005018	0	401376	253
785.345703125	0	health	response	2	80	20	foodImage.10	FOODEEG_Images\0145.jpg	NY	Left	No	1.41836520005018	0	402098	234
786.38671875	1	taste	trialStart	2	81	21	foodImage.11	FOODEEG_Images\0180.jpg	YN	Right	No	1.37779520009644	0	402631	251
787.4296875	2	taste	foodImageDisplay	2	81	21	foodImage.11	FOODEEG_Images\0180.jpg	YN	Right	No	1.37779520009644	0	403165	252
789.49609375	1.37779520009644	taste	choicePhaseStart	2	81	21	foodImage.11	FOODEEG_Images\0180.jpg	YN	Right	No	1.37779520009644	0	404223	253
790.865234375	0	taste	response	2	81	21	foodImage.11	FOODEEG_Images\0180.jpg	YN	Right	No	1.37779520009644	0	404924	235
791.908203125	1	health	trialStart	2	82	22	foodImage.35	FOODEEG_Images\0350.jpg	YN	Right	No	1.2905494000297	0	405458	251
792.9453125	2	health	foodImageDisplay	2	82	22	foodImage.35	FOODEEG_Images\0350.jpg	YN	Right	No	1.2905494000297	0	405989	252
795.0078125	1.2905494000297	health	choicePhaseStart	2	82	22	foodImage.35	FOODEEG_Images\0350.jpg	YN	Right	No	1.2905494000297	0	407045	253
796.2890625	0	health	response	2	82	22	foodImage.35	FOODEEG_Images\0350.jpg	YN	Right	No	1.2905494000297	0	407701	235
797.33203125	1	taste	trialStart	2	83	23	foodImage.84	FOODEEG_Images\0830.jpg	YN	Right	No	1.15065429988317	0	408235	251
798.388671875	2	taste	foodImageDisplay	2	83	23	foodImage.84	FOODEEG_Images\0830.jpg	YN	Right	No	1.15065429988317	0	408776	252
800.451171875	1.15065429988317	taste	choicePhaseStart	2	83	23	foodImage.84	FOODEEG_Images\0830.jpg	YN	Right	No	1.15065429988317	0	409832	253
801.591796875	0	taste	response	2	83	23	foodImage.84	FOODEEG_Images\0830.jpg	YN	Right	No	1.15065429988317	0	410416	235
802.634765625	1	taste	trialStart	2	84	24	foodImage.53	FOODEEG_Images\0547.jpg	NY	Right	Yes	1.49951820005663	0	410950	251
803.693359375	2	taste	foodImageDisplay	2	84	24	foodImage.53	FOODEEG_Images\0547.jpg	NY	Right	Yes	1.49951820005663	0	411492	252
805.755859375	1.49951820005663	taste	choicePhaseStart	2	84	24	foodImage.53	FOODEEG_Images\0547.jpg	NY	Right	Yes	1.49951820005663	0	412548	253
807.248046875	0	taste	response	2	84	24	foodImage.53	FOODEEG_Images\0547.jpg	NY	Right	Yes	1.49951820005663	0	413312	235
808.291015625	1	health	trialStart	2	85	25	foodImage.11	FOODEEG_Images\0180.jpg	YN	Left	Yes	0.743318699998781	0	413846	251
809.33203125	2	health	foodImageDisplay	2	85	25	foodImage.11	FOODEEG_Images\0180.jpg	YN	Left	Yes	0.743318699998781	0	414379	252
811.39453125	0.743318699998781	health	choicePhaseStart	2	85	25	foodImage.11	FOODEEG_Images\0180.jpg	YN	Left	Yes	0.743318699998781	0	415435	253
812.12890625	0	health	response	2	85	25	foodImage.11	FOODEEG_Images\0180.jpg	YN	Left	Yes	0.743318699998781	0	415811	234
813.169921875	1	health	trialStart	2	86	26	foodImage.64	FOODEEG_Images\0647.jpg	YN	Left	Yes	1.00852419994771	0	416344	251
814.2265625	2	health	foodImageDisplay	2	86	26	foodImage.64	FOODEEG_Images\0647.jpg	YN	Left	Yes	1.00852419994771	0	416885	252
816.2890625	1.00852419994771	health	choicePhaseStart	2	86	26	foodImage.64	FOODEEG_Images\0647.jpg	YN	Left	Yes	1.00852419994771	0	417941	253
817.287109375	0	health	response	2	86	26	foodImage.64	FOODEEG_Images\0647.jpg	YN	Left	Yes	1.00852419994771	0	418452	234
818.328125	1	decision	trialStart	2	87	27	foodImage.66	FOODEEG_Images\0676.jpg	NY	Right	Yes	0.928894300013781	0	418985	251
819.369140625	2	decision	foodImageDisplay	2	87	27	foodImage.66	FOODEEG_Images\0676.jpg	NY	Right	Yes	0.928894300013781	0	419518	252
821.431640625	0.928894300013781	decision	choicePhaseStart	2	87	27	foodImage.66	FOODEEG_Images\0676.jpg	NY	Right	Yes	0.928894300013781	0	420574	253
822.3515625	0	decision	response	2	87	27	foodImage.66	FOODEEG_Images\0676.jpg	NY	Right	Yes	0.928894300013781	0	421045	235
823.392578125	1	decision	trialStart	2	88	28	foodImage.60	FOODEEG_Images\0614.jpg	NY	Right	Yes	0.977690600091591	0	421578	251
824.447265625	2	decision	foodImageDisplay	2	88	28	foodImage.60	FOODEEG_Images\0614.jpg	NY	Right	Yes	0.977690600091591	0	422118	252
826.509765625	0.977690600091591	decision	choicePhaseStart	2	88	28	foodImage.60	FOODEEG_Images\0614.jpg	NY	Right	Yes	0.977690600091591	0	423174	253
827.478515625	0	decision	response	2	88	28	foodImage.60	FOODEEG_Images\0614.jpg	NY	Right	Yes	0.977690600091591	0	423670	235
828.521484375	1	decision	trialStart	2	89	29	foodImage.39	FOODEEG_Images\0367.jpg	YN	Left	Yes	0.896649000002071	0	424204	251
829.560546875	2	decision	foodImageDisplay	2	89	29	foodImage.39	FOODEEG_Images\0367.jpg	YN	Left	Yes	0.896649000002071	0	424736	252
831.623046875	0.896649000002071	decision	choicePhaseStart	2	89	29	foodImage.39	FOODEEG_Images\0367.jpg	YN	Left	Yes	0.896649000002071	0	425792	253
832.51171875	0	decision	response	2	89	29	foodImage.39	FOODEEG_Images\0367.jpg	YN	Left	Yes	0.896649000002071	0	426247	234
833.5546875	1	decision	trialStart	2	90	30	foodImage.31	FOODEEG_Images\0294.jpg	NY	Right	Yes	0.795088299782947	0	426781	251
834.59765625	2	decision	foodImageDisplay	2	90	30	foodImage.31	FOODEEG_Images\0294.jpg	NY	Right	Yes	0.795088299782947	0	427315	252
836.66015625	0.795088299782947	decision	choicePhaseStart	2	90	30	foodImage.31	FOODEEG_Images\0294.jpg	NY	Right	Yes	0.795088299782947	0	428371	253
837.447265625	0	decision	response	2	90	30	foodImage.31	FOODEEG_Images\0294.jpg	NY	Right	Yes	0.795088299782947	0	428774	235
838.486328125	1	taste	trialStart	2	91	31	foodImage.19	FOODEEG_Images\0225.jpg	YN	Left	Yes	0.953204999910668	0	429306	251
839.529296875	2	taste	foodImageDisplay	2	91	31	foodImage.19	FOODEEG_Images\0225.jpg	YN	Left	Yes	0.953204999910668	0	429840	252
841.591796875	0.953204999910668	taste	choicePhaseStart	2	91	31	foodImage.19	FOODEEG_Images\0225.jpg	YN	Left	Yes	0.953204999910668	0	430896	253
842.53515625	0	taste	response	2	91	31	foodImage.19	FOODEEG_Images\0225.jpg	YN	Left	Yes	0.953204999910668	0	431379	234
843.580078125	1	taste	trialStart	2	92	32	foodImage.22	FOODEEG_Images\0236.jpg	NY	Left	No	1.03057549986988	0	431914	251
844.62109375	2	taste	foodImageDisplay	2	92	32	foodImage.22	FOODEEG_Images\0236.jpg	NY	Left	No	1.03057549986988	0	432447	252
846.681640625	1.03057549986988	taste	choicePhaseStart	2	92	32	foodImage.22	FOODEEG_Images\0236.jpg	NY	Left	No	1.03057549986988	0	433502	253
847.703125	0	taste	response	2	92	32	foodImage.22	FOODEEG_Images\0236.jpg	NY	Left	No	1.03057549986988	0	434025	234
848.74609375	1	health	trialStart	2	93	33	foodImage.93	FOODEEG_Images\0901.jpg	NY	Left	No	1.07251240010373	0	434559	251
849.783203125	2	health	foodImageDisplay	2	93	33	foodImage.93	FOODEEG_Images\0901.jpg	NY	Left	No	1.07251240010373	0	435090	252
851.845703125	1.07251240010373	health	choicePhaseStart	2	93	33	foodImage.93	FOODEEG_Images\0901.jpg	NY	Left	No	1.07251240010373	0	436146	253
852.91015625	0	health	response	2	93	33	foodImage.93	FOODEEG_Images\0901.jpg	NY	Left	No	1.07251240010373	0	436691	234
853.953125	1	taste	trialStart	2	94	34	foodImage.14	FOODEEG_Images\0188.jpg	NY	Right	Yes	1.15731090004556	0	437225	251
855.01171875	2	taste	foodImageDisplay	2	94	34	foodImage.14	FOODEEG_Images\0188.jpg	NY	Right	Yes	1.15731090004556	0	437767	252
857.07421875	1.15731090004556	taste	choicePhaseStart	2	94	34	foodImage.14	FOODEEG_Images\0188.jpg	NY	Right	Yes	1.15731090004556	0	438823	253
858.22265625	0	taste	response	2	94	34	foodImage.14	FOODEEG_Images\0188.jpg	NY	Right	Yes	1.15731090004556	0	439411	235
859.265625	1	taste	trialStart	2	95	35	foodImage.56	FOODEEG_Images\0586.jpg	NY	Right	Yes	2.29972650017589	0	439945	251
860.30859375	2	taste	foodImageDisplay	2	95	35	foodImage.56	FOODEEG_Images\0586.jpg	NY	Right	Yes	2.29972650017589	0	440479	252
862.37109375	2.29972650017589	taste	choicePhaseStart	2	95	35	foodImage.56	FOODEEG_Images\0586.jpg	NY	Right	Yes	2.29972650017589	0	441535	253
864.662109375	0	taste	response	2	95	35	foodImage.56	FOODEEG_Images\0586.jpg	NY	Right	Yes	2.29972650017589	0	442708	235
865.705078125	1	decision	trialStart	2	96	36	foodImage.34	FOODEEG_Images\0339.jpg	YN	Right	No	3.70951119996607	0	443242	251
866.76171875	2	decision	foodImageDisplay	2	96	36	foodImage.34	FOODEEG_Images\0339.jpg	YN	Right	No	3.70951119996607	0	443783	252
868.82421875	3.70951119996607	decision	choicePhaseStart	2	96	36	foodImage.34	FOODEEG_Images\0339.jpg	YN	Right	No	3.70951119996607	0	444839	253
872.525390625	0	decision	response	2	96	36	foodImage.34	FOODEEG_Images\0339.jpg	YN	Right	No	3.70951119996607	0	446734	235
873.572265625	1	decision	trialStart	2	97	37	foodImage.96	FOODEEG_Images\0904.jpg	YN	Left	Yes	0.997634999919683	0	447270	251
874.609375	2	decision	foodImageDisplay	2	97	37	foodImage.96	FOODEEG_Images\0904.jpg	YN	Left	Yes	0.997634999919683	0	447801	252
876.671875	0.997634999919683	decision	choicePhaseStart	2	97	37	foodImage.96	FOODEEG_Images\0904.jpg	YN	Left	Yes	0.997634999919683	0	448857	253
877.662109375	0	decision	response	2	97	37	foodImage.96	FOODEEG_Images\0904.jpg	YN	Left	Yes	0.997634999919683	0	449364	234
878.701171875	1	decision	trialStart	2	98	38	foodImage.85	FOODEEG_Images\0841.jpg	NY	Right	Yes	1.6422432998661	0	449896	251
879.755859375	2	decision	foodImageDisplay	2	98	38	foodImage.85	FOODEEG_Images\0841.jpg	NY	Right	Yes	1.6422432998661	0	450436	252
881.818359375	1.6422432998661	decision	choicePhaseStart	2	98	38	foodImage.85	FOODEEG_Images\0841.jpg	NY	Right	Yes	1.6422432998661	0	451492	253
883.453125	0	decision	response	2	98	38	foodImage.85	FOODEEG_Images\0841.jpg	NY	Right	Yes	1.6422432998661	0	452329	235
884.49609375	1	decision	trialStart	2	99	39	foodImage.6	FOODEEG_Images\0113.jpg	NY	Right	Yes	0.807216200046241	0	452863	251
885.54296875	2	decision	foodImageDisplay	2	99	39	foodImage.6	FOODEEG_Images\0113.jpg	NY	Right	Yes	0.807216200046241	0	453399	252
887.60546875	0.807216200046241	decision	choicePhaseStart	2	99	39	foodImage.6	FOODEEG_Images\0113.jpg	NY	Right	Yes	0.807216200046241	0	454455	253
888.404296875	0	decision	response	2	99	39	foodImage.6	FOODEEG_Images\0113.jpg	NY	Right	Yes	0.807216200046241	0	454864	235
889.447265625	1	health	trialStart	2	100	40	foodImage.86	FOODEEG_Images\0844.jpg	YN	Right	No	1.02108670002781	0	455398	251
890.505859375	2	health	foodImageDisplay	2	100	40	foodImage.86	FOODEEG_Images\0844.jpg	YN	Right	No	1.02108670002781	0	455940	252
892.568359375	1.02108670002781	health	choicePhaseStart	2	100	40	foodImage.86	FOODEEG_Images\0844.jpg	YN	Right	No	1.02108670002781	0	456996	253
893.580078125	0	health	response	2	100	40	foodImage.86	FOODEEG_Images\0844.jpg	YN	Right	No	1.02108670002781	0	457514	235
894.626953125	1	health	trialStart	2	101	41	foodImage.21	FOODEEG_Images\0234.jpg	YN	Left	Yes	0.983399299904704	0	458050	251
895.6953125	2	health	foodImageDisplay	2	101	41	foodImage.21	FOODEEG_Images\0234.jpg	YN	Left	Yes	0.983399299904704	0	458597	252
897.7578125	0.983399299904704	health	choicePhaseStart	2	101	41	foodImage.21	FOODEEG_Images\0234.jpg	YN	Left	Yes	0.983399299904704	0	459653	253
898.732421875	0	health	response	2	101	41	foodImage.21	FOODEEG_Images\0234.jpg	YN	Left	Yes	0.983399299904704	0	460152	234
899.779296875	1	decision	trialStart	2	102	42	foodImage.81	FOODEEG_Images\0797.jpg	YN	Right	No	1.22183319996111	0	460688	251
900.833984375	2	decision	foodImageDisplay	2	102	42	foodImage.81	FOODEEG_Images\0797.jpg	YN	Right	No	1.22183319996111	0	461228	252
902.896484375	1.22183319996111	decision	choicePhaseStart	2	102	42	foodImage.81	FOODEEG_Images\0797.jpg	YN	Right	No	1.22183319996111	0	462284	253
904.107421875	0	decision	response	2	102	42	foodImage.81	FOODEEG_Images\0797.jpg	YN	Right	No	1.22183319996111	0	462904	235
905.15234375	1	taste	trialStart	2	103	43	foodImage.38	FOODEEG_Images\0365.jpg	NY	Right	Yes	1.9638094000984	0	463439	251
906.203125	2	taste	foodImageDisplay	2	103	43	foodImage.38	FOODEEG_Images\0365.jpg	NY	Right	Yes	1.9638094000984	0	463977	252
908.265625	1.9638094000984	taste	choicePhaseStart	2	103	43	foodImage.38	FOODEEG_Images\0365.jpg	NY	Right	Yes	1.9638094000984	0	465033	253
910.220703125	0	taste	response	2	103	43	foodImage.38	FOODEEG_Images\0365.jpg	NY	Right	Yes	1.9638094000984	0	466034	235
911.263671875	1	decision	trialStart	2	104	44	foodImage.75	FOODEEG_Images\0763.jpg	YN	Left	Yes	2.7978481000755	0	466568	251
912.328125	2	decision	foodImageDisplay	2	104	44	foodImage.75	FOODEEG_Images\0763.jpg	YN	Left	Yes	2.7978481000755	0	467113	252
914.390625	2.7978481000755	decision	choicePhaseStart	2	104	44	foodImage.75	FOODEEG_Images\0763.jpg	YN	Left	Yes	2.7978481000755	0	468169	253
917.1796875	0	decision	response	2	104	44	foodImage.75	FOODEEG_Images\0763.jpg	YN	Left	Yes	2.7978481000755	0	469597	234
918.22265625	1	health	trialStart	2	105	45	foodImage.30	FOODEEG_Images\0282.jpg	NY	Right	Yes	1.29192230012268	0	470131	251
919.28125	2	health	foodImageDisplay	2	105	45	foodImage.30	FOODEEG_Images\0282.jpg	NY	Right	Yes	1.29192230012268	0	470673	252
921.34375	1.29192230012268	health	choicePhaseStart	2	105	45	foodImage.30	FOODEEG_Images\0282.jpg	NY	Right	Yes	1.29192230012268	0	471729	253
922.626953125	0	health	response	2	105	45	foodImage.30	FOODEEG_Images\0282.jpg	NY	Right	Yes	1.29192230012268	0	472386	235
923.669921875	1	taste	trialStart	2	106	46	foodImage.83	FOODEEG_Images\0827.jpg	NY	Right	Yes	1.4934320000466	0	472920	251
924.728515625	2	taste	foodImageDisplay	2	106	46	foodImage.83	FOODEEG_Images\0827.jpg	NY	Right	Yes	1.4934320000466	0	473462	252
926.791015625	1.4934320000466	taste	choicePhaseStart	2	106	46	foodImage.83	FOODEEG_Images\0827.jpg	NY	Right	Yes	1.4934320000466	0	474518	253
928.275390625	0	taste	response	2	106	46	foodImage.83	FOODEEG_Images\0827.jpg	NY	Right	Yes	1.4934320000466	0	475278	235
929.318359375	1	taste	trialStart	2	107	47	foodImage.1	FOODEEG_Images\0004.jpg	YN	Left	Yes	0.859858900075778	0	475812	251
930.361328125	2	taste	foodImageDisplay	2	107	47	foodImage.1	FOODEEG_Images\0004.jpg	YN	Left	Yes	0.859858900075778	0	476346	252
932.423828125	0.859858900075778	taste	choicePhaseStart	2	107	47	foodImage.1	FOODEEG_Images\0004.jpg	YN	Left	Yes	0.859858900075778	0	477402	253
933.275390625	0	taste	response	2	107	47	foodImage.1	FOODEEG_Images\0004.jpg	YN	Left	Yes	0.859858900075778	0	477838	234
934.318359375	1	health	trialStart	2	108	48	foodImage.40	FOODEEG_Images\0373.jpg	NY	Left	No	1.50516690011136	0	478372	251
935.357421875	2	health	foodImageDisplay	2	108	48	foodImage.40	FOODEEG_Images\0373.jpg	NY	Left	No	1.50516690011136	0	478904	252
937.419921875	1.50516690011136	health	choicePhaseStart	2	108	48	foodImage.40	FOODEEG_Images\0373.jpg	NY	Left	No	1.50516690011136	0	479960	253
938.916015625	0	health	response	2	108	48	foodImage.40	FOODEEG_Images\0373.jpg	NY	Left	No	1.50516690011136	0	480726	234
939.958984375	1	health	trialStart	2	109	49	foodImage.42	FOODEEG_Images\0438.jpg	NY	Right	Yes	0.948080000001937	0	481260	251
941.05859375	2	health	foodImageDisplay	2	109	49	foodImage.42	FOODEEG_Images\0438.jpg	NY	Right	Yes	0.948080000001937	0	481823	252
943.12109375	0.948080000001937	health	choicePhaseStart	2	109	49	foodImage.42	FOODEEG_Images\0438.jpg	NY	Right	Yes	0.948080000001937	0	482879	253
944.05859375	0	health	response	2	109	49	foodImage.42	FOODEEG_Images\0438.jpg	NY	Right	Yes	0.948080000001937	0	483359	235
945.099609375	1	taste	trialStart	2	110	50	foodImage.31	FOODEEG_Images\0294.jpg	NY	Right	Yes	0.90407790010795	0	483892	251
946.140625	2	taste	foodImageDisplay	2	110	50	foodImage.31	FOODEEG_Images\0294.jpg	NY	Right	Yes	0.90407790010795	0	484425	252
948.203125	0.90407790010795	taste	choicePhaseStart	2	110	50	foodImage.31	FOODEEG_Images\0294.jpg	NY	Right	Yes	0.90407790010795	0	485481	253
949.09765625	0	taste	response	2	110	50	foodImage.31	FOODEEG_Images\0294.jpg	NY	Right	Yes	0.90407790010795	0	485939	235
950.140625	1	taste	trialStart	2	111	51	foodImage.44	FOODEEG_Images\0459.jpg	NY	Left	No	1.2836025999859	0	486473	251
951.185546875	2	taste	foodImageDisplay	2	111	51	foodImage.44	FOODEEG_Images\0459.jpg	NY	Left	No	1.2836025999859	0	487008	252
953.248046875	1.2836025999859	taste	choicePhaseStart	2	111	51	foodImage.44	FOODEEG_Images\0459.jpg	NY	Left	No	1.2836025999859	0	488064	253
954.521484375	0	taste	response	2	111	51	foodImage.44	FOODEEG_Images\0459.jpg	NY	Left	No	1.2836025999859	0	488716	234
955.56640625	1	decision	trialStart	2	112	52	foodImage.70	FOODEEG_Images\0705.jpg	YN	Left	Yes	0.880383500130847	0	489251	251
956.62109375	2	decision	foodImageDisplay	2	112	52	foodImage.70	FOODEEG_Images\0705.jpg	YN	Left	Yes	0.880383500130847	0	489791	252
958.68359375	0.880383500130847	decision	choicePhaseStart	2	112	52	foodImage.70	FOODEEG_Images\0705.jpg	YN	Left	Yes	0.880383500130847	0	490847	253
959.5546875	0	decision	response	2	112	52	foodImage.70	FOODEEG_Images\0705.jpg	YN	Left	Yes	0.880383500130847	0	491293	234
960.59765625	1	health	trialStart	2	113	53	foodImage.54	FOODEEG_Images\0560.jpg	NY	Right	Yes	1.10088820010424	0	491827	251
961.65625	2	health	foodImageDisplay	2	113	53	foodImage.54	FOODEEG_Images\0560.jpg	NY	Right	Yes	1.10088820010424	0	492369	252
963.716796875	1.10088820010424	health	choicePhaseStart	2	113	53	foodImage.54	FOODEEG_Images\0560.jpg	NY	Right	Yes	1.10088820010424	0	493424	253
964.810546875	0	health	response	2	113	53	foodImage.54	FOODEEG_Images\0560.jpg	NY	Right	Yes	1.10088820010424	0	493984	235
965.8515625	1	health	trialStart	2	114	54	foodImage.99	FOODEEG_Images\0907.jpg	YN	Right	No	1.31359750009142	0	494517	251
966.890625	2	health	foodImageDisplay	2	114	54	foodImage.99	FOODEEG_Images\0907.jpg	YN	Right	No	1.31359750009142	0	495049	252
968.953125	1.31359750009142	health	choicePhaseStart	2	114	54	foodImage.99	FOODEEG_Images\0907.jpg	YN	Right	No	1.31359750009142	0	496105	253
970.2578125	0	health	response	2	114	54	foodImage.99	FOODEEG_Images\0907.jpg	YN	Right	No	1.31359750009142	0	496773	235
971.298828125	1	health	trialStart	2	115	55	foodImage.75	FOODEEG_Images\0763.jpg	NY	Right	Yes	1.02966779982671	0	497306	251
972.341796875	2	health	foodImageDisplay	2	115	55	foodImage.75	FOODEEG_Images\0763.jpg	NY	Right	Yes	1.02966779982671	0	497840	252
974.404296875	1.02966779982671	health	choicePhaseStart	2	115	55	foodImage.75	FOODEEG_Images\0763.jpg	NY	Right	Yes	1.02966779982671	0	498896	253
975.42578125	0	health	response	2	115	55	foodImage.75	FOODEEG_Images\0763.jpg	NY	Right	Yes	1.02966779982671	0	499419	235
976.46875	1	decision	trialStart	2	116	56	foodImage.71	FOODEEG_Images\0713.jpg	YN	Left	Yes	0.990002600010484	0	499953	251
977.509765625	2	decision	foodImageDisplay	2	116	56	foodImage.71	FOODEEG_Images\0713.jpg	YN	Left	Yes	0.990002600010484	0	500486	252
979.572265625	0.990002600010484	decision	choicePhaseStart	2	116	56	foodImage.71	FOODEEG_Images\0713.jpg	YN	Left	Yes	0.990002600010484	0	501542	253
980.552734375	0	decision	response	2	116	56	foodImage.71	FOODEEG_Images\0713.jpg	YN	Left	Yes	0.990002600010484	0	502044	234
981.59375	1	decision	trialStart	2	117	57	foodImage.32	FOODEEG_Images\0319.jpg	YN	Left	Yes	0.850529300048947	0	502577	251
982.6484375	2	decision	foodImageDisplay	2	117	57	foodImage.32	FOODEEG_Images\0319.jpg	YN	Left	Yes	0.850529300048947	0	503117	252
984.7109375	0.850529300048947	decision	choicePhaseStart	2	117	57	foodImage.32	FOODEEG_Images\0319.jpg	YN	Left	Yes	0.850529300048947	0	504173	253
985.552734375	0	decision	response	2	117	57	foodImage.32	FOODEEG_Images\0319.jpg	YN	Left	Yes	0.850529300048947	0	504604	234
986.595703125	1	taste	trialStart	2	118	58	foodImage.85	FOODEEG_Images\0841.jpg	NY	Right	Yes	1.30321280006319	0	505138	251
987.65234375	2	taste	foodImageDisplay	2	118	58	foodImage.85	FOODEEG_Images\0841.jpg	NY	Right	Yes	1.30321280006319	0	505679	252
989.71484375	1.30321280006319	taste	choicePhaseStart	2	118	58	foodImage.85	FOODEEG_Images\0841.jpg	NY	Right	Yes	1.30321280006319	0	506735	253
991.009765625	0	taste	response	2	118	58	foodImage.85	FOODEEG_Images\0841.jpg	NY	Right	Yes	1.30321280006319	0	507398	235
992.052734375	1	taste	trialStart	2	119	59	foodImage.79	FOODEEG_Images\0794.jpg	YN	Left	Yes	1.8592344999779	0	507932	251
993.095703125	2	taste	foodImageDisplay	2	119	59	foodImage.79	FOODEEG_Images\0794.jpg	YN	Left	Yes	1.8592344999779	0	508466	252
995.158203125	1.8592344999779	taste	choicePhaseStart	2	119	59	foodImage.79	FOODEEG_Images\0794.jpg	YN	Left	Yes	1.8592344999779	0	509522	253
997.0078125	0	taste	response	2	119	59	foodImage.79	FOODEEG_Images\0794.jpg	YN	Left	Yes	1.8592344999779	0	510469	234
998.052734375	1	taste	trialStart	2	120	60	foodImage.32	FOODEEG_Images\0319.jpg	YN	Left	Yes	0.836952799931169	0	511004	251
999.09375	2	taste	foodImageDisplay	2	120	60	foodImage.32	FOODEEG_Images\0319.jpg	YN	Left	Yes	0.836952799931169	0	511537	252
1001.15625	0.836952799931169	taste	choicePhaseStart	2	120	60	foodImage.32	FOODEEG_Images\0319.jpg	YN	Left	Yes	0.836952799931169	0	512593	253
1001.984375	0	taste	response	2	120	60	foodImage.32	FOODEEG_Images\0319.jpg	YN	Left	Yes	0.836952799931169	0	513017	234
1004.02734375	46.3203125	n/a	blockEnd	n/a	n/a	n/a	n/a	n/a	n/a	n/a	n/a	n/a	n/a	514063	254
1050.34765625	2	n/a	blockStart	3	n/a	n/a	n/a	n/a	n/a	n/a	n/a	n/a	n/a	537779	250
1052.380859375	1	decision	trialStart	3	121	1	foodImage.19	FOODEEG_Images\0225.jpg	NY	Right	Yes	0.903960899915546	0	538820	251
1053.423828125	2	decision	foodImageDisplay	3	121	1	foodImage.19	FOODEEG_Images\0225.jpg	NY	Right	Yes	0.903960899915546	0	539354	252
1055.486328125	0.903960899915546	decision	choicePhaseStart	3	121	1	foodImage.19	FOODEEG_Images\0225.jpg	NY	Right	Yes	0.903960899915546	0	540410	253
1056.3828125	0	decision	response	3	121	1	foodImage.19	FOODEEG_Images\0225.jpg	NY	Right	Yes	0.903960899915546	0	540869	235
1057.42578125	1	taste	trialStart	3	122	2	foodImage.88	FOODEEG_Images\0878.jpg	NY	Right	Yes	0.813919399864972	0	541403	251
1058.48828125	2	taste	foodImageDisplay	3	122	2	foodImage.88	FOODEEG_Images\0878.jpg	NY	Right	Yes	0.813919399864972	0	541947	252
1060.55078125	0.813919399864972	taste	choicePhaseStart	3	122	2	foodImage.88	FOODEEG_Images\0878.jpg	NY	Right	Yes	0.813919399864972	0	543003	253
1061.357421875	0	taste	response	3	122	2	foodImage.88	FOODEEG_Images\0878.jpg	NY	Right	Yes	0.813919399864972	0	543416	235
1062.40234375	1	decision	trialStart	3	123	3	foodImage.77	FOODEEG_Images\0771.jpg	NY	Right	Yes	0.702073800144717	0	543951	251
1063.466796875	2	decision	foodImageDisplay	3	123	3	foodImage.77	FOODEEG_Images\0771.jpg	NY	Right	Yes	0.702073800144717	0	544496	252
1065.529296875	0.702073800144717	decision	choicePhaseStart	3	123	3	foodImage.77	FOODEEG_Images\0771.jpg	NY	Right	Yes	0.702073800144717	0	545552	253
1066.22265625	0	decision	response	3	123	3	foodImage.77	FOODEEG_Images\0771.jpg	NY	Right	Yes	0.702073800144717	0	545907	235
1067.265625	1	taste	trialStart	3	124	4	foodImage.9	FOODEEG_Images\0138.jpg	NY	Right	Yes	0.820785300107673	0	546441	251
1068.32421875	2	taste	foodImageDisplay	3	124	4	foodImage.9	FOODEEG_Images\0138.jpg	NY	Right	Yes	0.820785300107673	0	546983	252
1070.38671875	0.820785300107673	taste	choicePhaseStart	3	124	4	foodImage.9	FOODEEG_Images\0138.jpg	NY	Right	Yes	0.820785300107673	0	548039	253
1071.197265625	0	taste	response	3	124	4	foodImage.9	FOODEEG_Images\0138.jpg	NY	Right	Yes	0.820785300107673	0	548454	235
1072.240234375	1	health	trialStart	3	125	5	foodImage.31	FOODEEG_Images\0294.jpg	YN	Right	No	1.22861089999788	0	548988	251
1073.283203125	2	health	foodImageDisplay	3	125	5	foodImage.31	FOODEEG_Images\0294.jpg	YN	Right	No	1.22861089999788	0	549522	252
1075.345703125	1.22861089999788	health	choicePhaseStart	3	125	5	foodImage.31	FOODEEG_Images\0294.jpg	YN	Right	No	1.22861089999788	0	550578	253
1076.56640625	0	health	response	3	125	5	foodImage.31	FOODEEG_Images\0294.jpg	YN	Right	No	1.22861089999788	0	551203	235
1077.609375	1	taste	trialStart	3	126	6	foodImage.117	FOODEEG_Images\0925.jpg	NY	Left	No	1.89781749993563	0	551737	251
1078.646484375	2	taste	foodImageDisplay	3	126	6	foodImage.117	FOODEEG_Images\0925.jpg	NY	Left	No	1.89781749993563	0	552268	252
1080.708984375	1.89781749993563	taste	choicePhaseStart	3	126	6	foodImage.117	FOODEEG_Images\0925.jpg	NY	Left	No	1.89781749993563	0	553324	253
1082.59765625	0	taste	response	3	126	6	foodImage.117	FOODEEG_Images\0925.jpg	NY	Left	No	1.89781749993563	0	554291	234
1083.640625	1	taste	trialStart	3	127	7	foodImage.95	FOODEEG_Images\0903.jpg	NY	Right	Yes	0.721220399951562	0	554825	251
1084.6796875	2	taste	foodImageDisplay	3	127	7	foodImage.95	FOODEEG_Images\0903.jpg	NY	Right	Yes	0.721220399951562	0	555357	252
1086.740234375	0.721220399951562	taste	choicePhaseStart	3	127	7	foodImage.95	FOODEEG_Images\0903.jpg	NY	Right	Yes	0.721220399951562	0	556412	253
1087.453125	0	taste	response	3	127	7	foodImage.95	FOODEEG_Images\0903.jpg	NY	Right	Yes	0.721220399951562	0	556777	235
1088.49609375	1	health	trialStart	3	128	8	foodImage.105	FOODEEG_Images\0913.jpg	NY	Left	No	1.13871359988116	0	557311	251
1089.533203125	2	health	foodImageDisplay	3	128	8	foodImage.105	FOODEEG_Images\0913.jpg	NY	Left	No	1.13871359988116	0	557842	252
1091.595703125	1.13871359988116	health	choicePhaseStart	3	128	8	foodImage.105	FOODEEG_Images\0913.jpg	NY	Left	No	1.13871359988116	0	558898	253
1092.724609375	0	health	response	3	128	8	foodImage.105	FOODEEG_Images\0913.jpg	NY	Left	No	1.13871359988116	0	559476	234
1093.763671875	1	health	trialStart	3	129	9	foodImage.8	FOODEEG_Images\0136.jpg	NY	Left	No	0.850635400041938	0	560008	251
1094.8046875	2	health	foodImageDisplay	3	129	9	foodImage.8	FOODEEG_Images\0136.jpg	NY	Left	No	0.850635400041938	0	560541	252
1096.8671875	0.850635400041938	health	choicePhaseStart	3	129	9	foodImage.8	FOODEEG_Images\0136.jpg	NY	Left	No	0.850635400041938	0	561597	253
1097.708984375	0	health	response	3	129	9	foodImage.8	FOODEEG_Images\0136.jpg	NY	Left	No	0.850635400041938	0	562028	234
1098.75	1	decision	trialStart	3	130	10	foodImage.13	FOODEEG_Images\0183.jpg	NY	Right	Yes	1.31241389992647	0	562561	251
1099.791015625	2	decision	foodImageDisplay	3	130	10	foodImage.13	FOODEEG_Images\0183.jpg	NY	Right	Yes	1.31241389992647	0	563094	252
1101.853515625	1.31241389992647	decision	choicePhaseStart	3	130	10	foodImage.13	FOODEEG_Images\0183.jpg	NY	Right	Yes	1.31241389992647	0	564150	253
1103.15625	0	decision	response	3	130	10	foodImage.13	FOODEEG_Images\0183.jpg	NY	Right	Yes	1.31241389992647	0	564817	235
1104.19921875	1	taste	trialStart	3	131	11	foodImage.65	FOODEEG_Images\0658.jpg	YN	Left	Yes	0.853431500028819	0	565351	251
1105.240234375	2	taste	foodImageDisplay	3	131	11	foodImage.65	FOODEEG_Images\0658.jpg	YN	Left	Yes	0.853431500028819	0	565884	252
1107.302734375	0.853431500028819	taste	choicePhaseStart	3	131	11	foodImage.65	FOODEEG_Images\0658.jpg	YN	Left	Yes	0.853431500028819	0	566940	253
1108.1484375	0	taste	response	3	131	11	foodImage.65	FOODEEG_Images\0658.jpg	YN	Left	Yes	0.853431500028819	0	567373	234
1109.19140625	1	taste	trialStart	3	132	12	foodImage.46	FOODEEG_Images\0479.jpg	NY	Left	No	1.2943774999585	0	567907	251
1110.248046875	2	taste	foodImageDisplay	3	132	12	foodImage.46	FOODEEG_Images\0479.jpg	NY	Left	No	1.2943774999585	0	568448	252
1112.3125	1.2943774999585	taste	choicePhaseStart	3	132	12	foodImage.46	FOODEEG_Images\0479.jpg	NY	Left	No	1.2943774999585	0	569505	253
1113.595703125	0	taste	response	3	132	12	foodImage.46	FOODEEG_Images\0479.jpg	NY	Left	No	1.2943774999585	0	570162	234
1114.640625	1	decision	trialStart	3	133	13	foodImage.82	FOODEEG_Images\0805.jpg	YN	Left	Yes	0.881461900193244	0	570697	251
1115.693359375	2	decision	foodImageDisplay	3	133	13	foodImage.82	FOODEEG_Images\0805.jpg	YN	Left	Yes	0.881461900193244	0	571236	252
1117.755859375	0.881461900193244	decision	choicePhaseStart	3	133	13	foodImage.82	FOODEEG_Images\0805.jpg	YN	Left	Yes	0.881461900193244	0	572292	253
1118.62890625	0	decision	response	3	133	13	foodImage.82	FOODEEG_Images\0805.jpg	YN	Left	Yes	0.881461900193244	0	572739	234
1119.669921875	1	decision	trialStart	3	134	14	foodImage.28	FOODEEG_Images\0273.jpg	NY	Right	Yes	0.959225099999458	0	573272	251
1120.7109375	2	decision	foodImageDisplay	3	134	14	foodImage.28	FOODEEG_Images\0273.jpg	NY	Right	Yes	0.959225099999458	0	573805	252
1122.7734375	0.959225099999458	decision	choicePhaseStart	3	134	14	foodImage.28	FOODEEG_Images\0273.jpg	NY	Right	Yes	0.959225099999458	0	574861	253
1123.724609375	0	decision	response	3	134	14	foodImage.28	FOODEEG_Images\0273.jpg	NY	Right	Yes	0.959225099999458	0	575348	235
1124.765625	1	taste	trialStart	3	135	15	foodImage.35	FOODEEG_Images\0350.jpg	NY	Right	Yes	0.878599199932069	0	575881	251
1125.822265625	2	taste	foodImageDisplay	3	135	15	foodImage.35	FOODEEG_Images\0350.jpg	NY	Right	Yes	0.878599199932069	0	576422	252
1127.88671875	0.878599199932069	taste	choicePhaseStart	3	135	15	foodImage.35	FOODEEG_Images\0350.jpg	NY	Right	Yes	0.878599199932069	0	577479	253
1128.755859375	0	taste	response	3	135	15	foodImage.35	FOODEEG_Images\0350.jpg	NY	Right	Yes	0.878599199932069	0	577924	235
1129.798828125	1	taste	trialStart	3	136	16	foodImage.47	FOODEEG_Images\0488.jpg	YN	Left	Yes	0.861139100044966	0	578458	251
1130.83984375	2	taste	foodImageDisplay	3	136	16	foodImage.47	FOODEEG_Images\0488.jpg	YN	Left	Yes	0.861139100044966	0	578991	252
1132.90234375	0.861139100044966	taste	choicePhaseStart	3	136	16	foodImage.47	FOODEEG_Images\0488.jpg	YN	Left	Yes	0.861139100044966	0	580047	253
1133.755859375	0	taste	response	3	136	16	foodImage.47	FOODEEG_Images\0488.jpg	YN	Left	Yes	0.861139100044966	0	580484	234
1134.796875	1	health	trialStart	3	137	17	foodImage.51	FOODEEG_Images\0536.jpg	YN	Right	No	1.34730620007031	0	581017	251
1135.841796875	2	health	foodImageDisplay	3	137	17	foodImage.51	FOODEEG_Images\0536.jpg	YN	Right	No	1.34730620007031	0	581552	252
1137.904296875	1.34730620007031	health	choicePhaseStart	3	137	17	foodImage.51	FOODEEG_Images\0536.jpg	YN	Right	No	1.34730620007031	0	582608	253
1139.2421875	0	health	response	3	137	17	foodImage.51	FOODEEG_Images\0536.jpg	YN	Right	No	1.34730620007031	0	583293	235
1140.28515625	1	decision	trialStart	3	138	18	foodImage.111	FOODEEG_Images\0919.jpg	NY	Left	No	0.850820899941027	0	583827	251
1141.322265625	2	decision	foodImageDisplay	3	138	18	foodImage.111	FOODEEG_Images\0919.jpg	NY	Left	No	0.850820899941027	0	584358	252
1143.384765625	0.850820899941027	decision	choicePhaseStart	3	138	18	foodImage.111	FOODEEG_Images\0919.jpg	NY	Left	No	0.850820899941027	0	585414	253
1144.2265625	0	decision	response	3	138	18	foodImage.111	FOODEEG_Images\0919.jpg	NY	Left	No	0.850820899941027	0	585845	234
1145.271484375	1	decision	trialStart	3	139	19	foodImage.27	FOODEEG_Images\0263.jpg	NY	Right	Yes	1.56393639999442	0	586380	251
1146.3125	2	decision	foodImageDisplay	3	139	19	foodImage.27	FOODEEG_Images\0263.jpg	NY	Right	Yes	1.56393639999442	0	586913	252
1148.375	1.56393639999442	decision	choicePhaseStart	3	139	19	foodImage.27	FOODEEG_Images\0263.jpg	NY	Right	Yes	1.56393639999442	0	587969	253
1149.931640625	0	decision	response	3	139	19	foodImage.27	FOODEEG_Images\0263.jpg	NY	Right	Yes	1.56393639999442	0	588766	235
1150.9765625	1	health	trialStart	3	140	20	foodImage.47	FOODEEG_Images\0488.jpg	NY	Left	No	3.22682480001822	0	589301	251
1152.01953125	2	health	foodImageDisplay	3	140	20	foodImage.47	FOODEEG_Images\0488.jpg	NY	Left	No	3.22682480001822	0	589835	252
1154.080078125	3.22682480001822	health	choicePhaseStart	3	140	20	foodImage.47	FOODEEG_Images\0488.jpg	NY	Left	No	3.22682480001822	0	590890	253
1157.298828125	0	health	response	3	140	20	foodImage.47	FOODEEG_Images\0488.jpg	NY	Left	No	3.22682480001822	0	592538	234
1158.33984375	1	taste	trialStart	3	141	21	foodImage.114	FOODEEG_Images\0922.jpg	NY	Right	Yes	1.14115289994515	0	593071	251
1159.376953125	2	taste	foodImageDisplay	3	141	21	foodImage.114	FOODEEG_Images\0922.jpg	NY	Right	Yes	1.14115289994515	0	593602	252
1161.439453125	1.14115289994515	taste	choicePhaseStart	3	141	21	foodImage.114	FOODEEG_Images\0922.jpg	NY	Right	Yes	1.14115289994515	0	594658	253
1162.5703125	0	taste	response	3	141	21	foodImage.114	FOODEEG_Images\0922.jpg	NY	Right	Yes	1.14115289994515	0	595237	235
1163.61328125	1	decision	trialStart	3	142	22	foodImage.57	FOODEEG_Images\0587.jpg	NY	Right	Yes	1.06052870000713	0	595771	251
1164.65625	2	decision	foodImageDisplay	3	142	22	foodImage.57	FOODEEG_Images\0587.jpg	NY	Right	Yes	1.06052870000713	0	596305	252
1166.71875	1.06052870000713	decision	choicePhaseStart	3	142	22	foodImage.57	FOODEEG_Images\0587.jpg	NY	Right	Yes	1.06052870000713	0	597361	253
1167.76953125	0	decision	response	3	142	22	foodImage.57	FOODEEG_Images\0587.jpg	NY	Right	Yes	1.06052870000713	0	597899	235
1168.8125	1	decision	trialStart	3	143	23	foodImage.10	FOODEEG_Images\0145.jpg	YN	Left	Yes	2.69320280011743	0	598433	251
1169.87109375	2	decision	foodImageDisplay	3	143	23	foodImage.10	FOODEEG_Images\0145.jpg	YN	Left	Yes	2.69320280011743	0	598975	252
1171.93359375	2.69320280011743	decision	choicePhaseStart	3	143	23	foodImage.10	FOODEEG_Images\0145.jpg	YN	Left	Yes	2.69320280011743	0	600031	253
1174.6171875	0	decision	response	3	143	23	foodImage.10	FOODEEG_Images\0145.jpg	YN	Left	Yes	2.69320280011743	0	601405	234
1175.66015625	1	health	trialStart	3	144	24	foodImage.114	FOODEEG_Images\0922.jpg	NY	Left	No	1.13678649999201	0	601939	251
1176.69921875	2	health	foodImageDisplay	3	144	24	foodImage.114	FOODEEG_Images\0922.jpg	NY	Left	No	1.13678649999201	0	602471	252
1178.76171875	1.13678649999201	health	choicePhaseStart	3	144	24	foodImage.114	FOODEEG_Images\0922.jpg	NY	Left	No	1.13678649999201	0	603527	253
1179.888671875	0	health	response	3	144	24	foodImage.114	FOODEEG_Images\0922.jpg	NY	Left	No	1.13678649999201	0	604104	234
1180.9375	1	decision	trialStart	3	145	25	foodImage.40	FOODEEG_Images\0373.jpg	NY	Right	Yes	0.856868599774316	0	604641	251
1181.978515625	2	decision	foodImageDisplay	3	145	25	foodImage.40	FOODEEG_Images\0373.jpg	NY	Right	Yes	0.856868599774316	0	605174	252
1184.041015625	0.856868599774316	decision	choicePhaseStart	3	145	25	foodImage.40	FOODEEG_Images\0373.jpg	NY	Right	Yes	0.856868599774316	0	606230	253
1184.888671875	0	decision	response	3	145	25	foodImage.40	FOODEEG_Images\0373.jpg	NY	Right	Yes	0.856868599774316	0	606664	235
1185.935546875	1	taste	trialStart	3	146	26	foodImage.73	FOODEEG_Images\0717.jpg	NY	Right	Yes	0.844473300036043	0	607200	251
1186.9921875	2	taste	foodImageDisplay	3	146	26	foodImage.73	FOODEEG_Images\0717.jpg	NY	Right	Yes	0.844473300036043	0	607741	252
1189.0546875	0.844473300036043	taste	choicePhaseStart	3	146	26	foodImage.73	FOODEEG_Images\0717.jpg	NY	Right	Yes	0.844473300036043	0	608797	253
1189.888671875	0	taste	response	3	146	26	foodImage.73	FOODEEG_Images\0717.jpg	NY	Right	Yes	0.844473300036043	0	609224	235
1190.931640625	1	decision	trialStart	3	147	27	foodImage.104	FOODEEG_Images\0912.jpg	NY	Right	Yes	0.713292200118303	0	609758	251
1191.970703125	2	decision	foodImageDisplay	3	147	27	foodImage.104	FOODEEG_Images\0912.jpg	NY	Right	Yes	0.713292200118303	0	610290	252
1194.033203125	0.713292200118303	decision	choicePhaseStart	3	147	27	foodImage.104	FOODEEG_Images\0912.jpg	NY	Right	Yes	0.713292200118303	0	611346	253
1194.736328125	0	decision	response	3	147	27	foodImage.104	FOODEEG_Images\0912.jpg	NY	Right	Yes	0.713292200118303	0	611706	235
1195.779296875	1	health	trialStart	3	148	28	foodImage.4	FOODEEG_Images\0065.jpg	YN	Right	No	3.9563710000366	0	612240	251
1196.83984375	2	health	foodImageDisplay	3	148	28	foodImage.4	FOODEEG_Images\0065.jpg	YN	Right	No	3.9563710000366	0	612783	252
1198.90234375	3.9563710000366	health	choicePhaseStart	3	148	28	foodImage.4	FOODEEG_Images\0065.jpg	YN	Right	No	3.9563710000366	0	613839	253
1202.849609375	0	health	response	3	148	28	foodImage.4	FOODEEG_Images\0065.jpg	YN	Right	No	3.9563710000366	0	615860	235
1203.892578125	1	taste	trialStart	3	149	29	foodImage.40	FOODEEG_Images\0373.jpg	YN	Left	Yes	0.865451399935409	0	616394	251
1204.9375	2	taste	foodImageDisplay	3	149	29	foodImage.40	FOODEEG_Images\0373.jpg	YN	Left	Yes	0.865451399935409	0	616929	252
1207	0.865451399935409	taste	choicePhaseStart	3	149	29	foodImage.40	FOODEEG_Images\0373.jpg	YN	Left	Yes	0.865451399935409	0	617985	253
1207.857421875	0	taste	response	3	149	29	foodImage.40	FOODEEG_Images\0373.jpg	YN	Left	Yes	0.865451399935409	0	618424	234
1208.900390625	1	taste	trialStart	3	150	30	foodImage.55	FOODEEG_Images\0567.jpg	YN	Left	Yes	0.86779520008713	0	618958	251
1209.958984375	2	taste	foodImageDisplay	3	150	30	foodImage.55	FOODEEG_Images\0567.jpg	YN	Left	Yes	0.86779520008713	0	619500	252
1212.021484375	0.86779520008713	taste	choicePhaseStart	3	150	30	foodImage.55	FOODEEG_Images\0567.jpg	YN	Left	Yes	0.86779520008713	0	620556	253
1212.880859375	0	taste	response	3	150	30	foodImage.55	FOODEEG_Images\0567.jpg	YN	Left	Yes	0.86779520008713	0	620996	234
1213.923828125	1	health	trialStart	3	151	31	foodImage.106	FOODEEG_Images\0914.jpg	NY	Left	No	0.928612100193277	0	621530	251
1214.962890625	2	health	foodImageDisplay	3	151	31	foodImage.106	FOODEEG_Images\0914.jpg	NY	Left	No	0.928612100193277	0	622062	252
1217.025390625	0.928612100193277	health	choicePhaseStart	3	151	31	foodImage.106	FOODEEG_Images\0914.jpg	NY	Left	No	0.928612100193277	0	623118	253
1217.9453125	0	health	response	3	151	31	foodImage.106	FOODEEG_Images\0914.jpg	NY	Left	No	0.928612100193277	0	623589	234
1218.98828125	1	taste	trialStart	3	152	32	foodImage.43	FOODEEG_Images\0445.jpg	NY	Left	No	1.41488169995137	0	624123	251
1220.044921875	2	taste	foodImageDisplay	3	152	32	foodImage.43	FOODEEG_Images\0445.jpg	NY	Left	No	1.41488169995137	0	624664	252
1222.107421875	1.41488169995137	taste	choicePhaseStart	3	152	32	foodImage.43	FOODEEG_Images\0445.jpg	NY	Left	No	1.41488169995137	0	625720	253
1223.51171875	0	taste	response	3	152	32	foodImage.43	FOODEEG_Images\0445.jpg	NY	Left	No	1.41488169995137	0	626439	234
1224.560546875	1	decision	trialStart	3	153	33	foodImage.24	FOODEEG_Images\0250.jpg	YN	Left	Yes	1.00732970004901	0	626976	251
1225.603515625	2	decision	foodImageDisplay	3	153	33	foodImage.24	FOODEEG_Images\0250.jpg	YN	Left	Yes	1.00732970004901	0	627510	252
1227.6640625	1.00732970004901	decision	choicePhaseStart	3	153	33	foodImage.24	FOODEEG_Images\0250.jpg	YN	Left	Yes	1.00732970004901	0	628565	253
1228.6640625	0	decision	response	3	153	33	foodImage.24	FOODEEG_Images\0250.jpg	YN	Left	Yes	1.00732970004901	0	629077	234
1229.70703125	1	decision	trialStart	3	154	34	foodImage.63	FOODEEG_Images\0645.jpg	NY	Right	Yes	1.28569149994291	0	629611	251
1230.748046875	2	decision	foodImageDisplay	3	154	34	foodImage.63	FOODEEG_Images\0645.jpg	NY	Right	Yes	1.28569149994291	0	630144	252
1232.810546875	1.28569149994291	decision	choicePhaseStart	3	154	34	foodImage.63	FOODEEG_Images\0645.jpg	NY	Right	Yes	1.28569149994291	0	631200	253
1234.087890625	0	decision	response	3	154	34	foodImage.63	FOODEEG_Images\0645.jpg	NY	Right	Yes	1.28569149994291	0	631854	235
1235.130859375	1	taste	trialStart	3	155	35	foodImage.42	FOODEEG_Images\0438.jpg	NY	Left	No	1.0356596999336	0	632388	251
1236.21484375	2	taste	foodImageDisplay	3	155	35	foodImage.42	FOODEEG_Images\0438.jpg	NY	Left	No	1.0356596999336	0	632943	252
1238.27734375	1.0356596999336	taste	choicePhaseStart	3	155	35	foodImage.42	FOODEEG_Images\0438.jpg	NY	Left	No	1.0356596999336	0	633999	253
1239.302734375	0	taste	response	3	155	35	foodImage.42	FOODEEG_Images\0438.jpg	NY	Left	No	1.0356596999336	0	634524	234
1240.345703125	1	health	trialStart	3	156	36	foodImage.58	FOODEEG_Images\0605.jpg	NY	Left	No	1.00100699998438	0	635058	251
1241.400390625	2	health	foodImageDisplay	3	156	36	foodImage.58	FOODEEG_Images\0605.jpg	NY	Left	No	1.00100699998438	0	635598	252
1243.462890625	1.00100699998438	health	choicePhaseStart	3	156	36	foodImage.58	FOODEEG_Images\0605.jpg	NY	Left	No	1.00100699998438	0	636654	253
1244.455078125	0	health	response	3	156	36	foodImage.58	FOODEEG_Images\0605.jpg	NY	Left	No	1.00100699998438	0	637162	234
1245.494140625	1	health	trialStart	3	157	37	foodImage.92	FOODEEG_Images\0900.jpg	NY	Left	No	1.07770330016501	0	637694	251
1246.53125	2	health	foodImageDisplay	3	157	37	foodImage.92	FOODEEG_Images\0900.jpg	NY	Left	No	1.07770330016501	0	638225	252
1248.59375	1.07770330016501	health	choicePhaseStart	3	157	37	foodImage.92	FOODEEG_Images\0900.jpg	NY	Left	No	1.07770330016501	0	639281	253
1249.662109375	0	health	response	3	157	37	foodImage.92	FOODEEG_Images\0900.jpg	NY	Left	No	1.07770330016501	0	639828	234
1250.70703125	1	taste	trialStart	3	158	38	foodImage.60	FOODEEG_Images\0614.jpg	YN	Left	Yes	2.71467179991305	0	640363	251
1251.765625	2	taste	foodImageDisplay	3	158	38	foodImage.60	FOODEEG_Images\0614.jpg	YN	Left	Yes	2.71467179991305	0	640905	252
1253.828125	2.71467179991305	taste	choicePhaseStart	3	158	38	foodImage.60	FOODEEG_Images\0614.jpg	YN	Left	Yes	2.71467179991305	0	641961	253
1256.53515625	0	taste	response	3	158	38	foodImage.60	FOODEEG_Images\0614.jpg	YN	Left	Yes	2.71467179991305	0	643347	234
1257.580078125	1	decision	trialStart	3	159	39	foodImage.23	FOODEEG_Images\0244.jpg	YN	Left	Yes	0.85922019998543	0	643882	251
1258.62109375	2	decision	foodImageDisplay	3	159	39	foodImage.23	FOODEEG_Images\0244.jpg	YN	Left	Yes	0.85922019998543	0	644415	252
1260.68359375	0.85922019998543	decision	choicePhaseStart	3	159	39	foodImage.23	FOODEEG_Images\0244.jpg	YN	Left	Yes	0.85922019998543	0	645471	253
1261.53515625	0	decision	response	3	159	39	foodImage.23	FOODEEG_Images\0244.jpg	YN	Left	Yes	0.85922019998543	0	645907	234
1262.57421875	1	decision	trialStart	3	160	40	foodImage.83	FOODEEG_Images\0827.jpg	YN	Left	Yes	0.576471999986097	0	646439	251
1263.640625	2	decision	foodImageDisplay	3	160	40	foodImage.83	FOODEEG_Images\0827.jpg	YN	Left	Yes	0.576471999986097	0	646985	252
1265.703125	0.576471999986097	decision	choicePhaseStart	3	160	40	foodImage.83	FOODEEG_Images\0827.jpg	YN	Left	Yes	0.576471999986097	0	648041	253
1266.26953125	0	decision	response	3	160	40	foodImage.83	FOODEEG_Images\0827.jpg	YN	Left	Yes	0.576471999986097	0	648331	234
1267.314453125	1	taste	trialStart	3	161	41	foodImage.8	FOODEEG_Images\0136.jpg	NY	Right	Yes	1.30473740003072	0	648866	251
1268.359375	2	taste	foodImageDisplay	3	161	41	foodImage.8	FOODEEG_Images\0136.jpg	NY	Right	Yes	1.30473740003072	0	649401	252
1270.421875	1.30473740003072	taste	choicePhaseStart	3	161	41	foodImage.8	FOODEEG_Images\0136.jpg	NY	Right	Yes	1.30473740003072	0	650457	253
1271.71875	0	taste	response	3	161	41	foodImage.8	FOODEEG_Images\0136.jpg	NY	Right	Yes	1.30473740003072	0	651121	235
1272.76171875	1	taste	trialStart	3	162	42	foodImage.4	FOODEEG_Images\0065.jpg	NY	Right	Yes	0.92766089993529	0	651655	251
1273.826171875	2	taste	foodImageDisplay	3	162	42	foodImage.4	FOODEEG_Images\0065.jpg	NY	Right	Yes	0.92766089993529	0	652200	252
1275.888671875	0.92766089993529	taste	choicePhaseStart	3	162	42	foodImage.4	FOODEEG_Images\0065.jpg	NY	Right	Yes	0.92766089993529	0	653256	253
1276.806640625	0	taste	response	3	162	42	foodImage.4	FOODEEG_Images\0065.jpg	NY	Right	Yes	0.92766089993529	0	653726	235
1277.8515625	1	health	trialStart	3	163	43	foodImage.96	FOODEEG_Images\0904.jpg	YN	Right	No	1.000592000084	0	654261	251
1278.89453125	2	health	foodImageDisplay	3	163	43	foodImage.96	FOODEEG_Images\0904.jpg	YN	Right	No	1.000592000084	0	654795	252
1280.958984375	1.000592000084	health	choicePhaseStart	3	163	43	foodImage.96	FOODEEG_Images\0904.jpg	YN	Right	No	1.000592000084	0	655852	253
1281.94921875	0	health	response	3	163	43	foodImage.96	FOODEEG_Images\0904.jpg	YN	Right	No	1.000592000084	0	656359	235
1282.998046875	1	decision	trialStart	3	164	44	foodImage.22	FOODEEG_Images\0236.jpg	YN	Left	Yes	0.936770100146532	0	656896	251
1284.0390625	2	decision	foodImageDisplay	3	164	44	foodImage.22	FOODEEG_Images\0236.jpg	YN	Left	Yes	0.936770100146532	0	657429	252
1286.1015625	0.936770100146532	decision	choicePhaseStart	3	164	44	foodImage.22	FOODEEG_Images\0236.jpg	YN	Left	Yes	0.936770100146532	0	658485	253
1287.029296875	0	decision	response	3	164	44	foodImage.22	FOODEEG_Images\0236.jpg	YN	Left	Yes	0.936770100146532	0	658960	234
1288.072265625	1	taste	trialStart	3	165	45	foodImage.109	FOODEEG_Images\0917.jpg	NY	Right	Yes	2.47303029987961	0	659494	251
1289.111328125	2	taste	foodImageDisplay	3	165	45	foodImage.109	FOODEEG_Images\0917.jpg	NY	Right	Yes	2.47303029987961	0	660026	252
1291.171875	2.47303029987961	taste	choicePhaseStart	3	165	45	foodImage.109	FOODEEG_Images\0917.jpg	NY	Right	Yes	2.47303029987961	0	661081	253
1293.63671875	0	taste	response	3	165	45	foodImage.109	FOODEEG_Images\0917.jpg	NY	Right	Yes	2.47303029987961	0	662343	235
1294.677734375	1	decision	trialStart	3	166	46	foodImage.68	FOODEEG_Images\0685.jpg	NY	Right	Yes	0.936365499859676	0	662876	251
1295.751953125	2	decision	foodImageDisplay	3	166	46	foodImage.68	FOODEEG_Images\0685.jpg	NY	Right	Yes	0.936365499859676	0	663426	252
1297.814453125	0.936365499859676	decision	choicePhaseStart	3	166	46	foodImage.68	FOODEEG_Images\0685.jpg	NY	Right	Yes	0.936365499859676	0	664482	253
1298.740234375	0	decision	response	3	166	46	foodImage.68	FOODEEG_Images\0685.jpg	NY	Right	Yes	0.936365499859676	0	664956	235
1299.78125	1	taste	trialStart	3	167	47	foodImage.89	FOODEEG_Images\0881.jpg	YN	Left	Yes	1.21628959989175	0	665489	251
1300.83984375	2	taste	foodImageDisplay	3	167	47	foodImage.89	FOODEEG_Images\0881.jpg	YN	Left	Yes	1.21628959989175	0	666031	252
1302.90234375	1.21628959989175	taste	choicePhaseStart	3	167	47	foodImage.89	FOODEEG_Images\0881.jpg	YN	Left	Yes	1.21628959989175	0	667087	253
1304.109375	0	taste	response	3	167	47	foodImage.89	FOODEEG_Images\0881.jpg	YN	Left	Yes	1.21628959989175	0	667705	234
1305.15234375	1	decision	trialStart	3	168	48	foodImage.120	FOODEEG_Images\0928.jpg	YN	Left	Yes	0.739519500173628	0	668239	251
1306.1953125	2	decision	foodImageDisplay	3	168	48	foodImage.120	FOODEEG_Images\0928.jpg	YN	Left	Yes	0.739519500173628	0	668773	252
1308.2578125	0.739519500173628	decision	choicePhaseStart	3	168	48	foodImage.120	FOODEEG_Images\0928.jpg	YN	Left	Yes	0.739519500173628	0	669829	253
1308.98828125	0	decision	response	3	168	48	foodImage.120	FOODEEG_Images\0928.jpg	YN	Left	Yes	0.739519500173628	0	670203	234
1310.033203125	1	decision	trialStart	3	169	49	foodImage.14	FOODEEG_Images\0188.jpg	NY	Right	Yes	0.859981199959293	0	670738	251
1311.115234375	2	decision	foodImageDisplay	3	169	49	foodImage.14	FOODEEG_Images\0188.jpg	NY	Right	Yes	0.859981199959293	0	671292	252
1313.177734375	0.859981199959293	decision	choicePhaseStart	3	169	49	foodImage.14	FOODEEG_Images\0188.jpg	NY	Right	Yes	0.859981199959293	0	672348	253
1314.029296875	0	decision	response	3	169	49	foodImage.14	FOODEEG_Images\0188.jpg	NY	Right	Yes	0.859981199959293	0	672784	235
1315.072265625	1	taste	trialStart	3	170	50	foodImage.80	FOODEEG_Images\0796.jpg	YN	Left	Yes	1.34100760007277	0	673318	251
1316.12890625	2	taste	foodImageDisplay	3	170	50	foodImage.80	FOODEEG_Images\0796.jpg	YN	Left	Yes	1.34100760007277	0	673859	252
1318.19140625	1.34100760007277	taste	choicePhaseStart	3	170	50	foodImage.80	FOODEEG_Images\0796.jpg	YN	Left	Yes	1.34100760007277	0	674915	253
1319.5234375	0	taste	response	3	170	50	foodImage.80	FOODEEG_Images\0796.jpg	YN	Left	Yes	1.34100760007277	0	675597	234
1320.56640625	1	taste	trialStart	3	171	51	foodImage.5	FOODEEG_Images\0107.jpg	YN	Left	Yes	0.74791430006735	0	676131	251
1321.650390625	2	taste	foodImageDisplay	3	171	51	foodImage.5	FOODEEG_Images\0107.jpg	YN	Left	Yes	0.74791430006735	0	676686	252
1323.71484375	0.74791430006735	taste	choicePhaseStart	3	171	51	foodImage.5	FOODEEG_Images\0107.jpg	YN	Left	Yes	0.74791430006735	0	677743	253
1324.451171875	0	taste	response	3	171	51	foodImage.5	FOODEEG_Images\0107.jpg	YN	Left	Yes	0.74791430006735	0	678120	234
1325.49609375	1	decision	trialStart	3	172	52	foodImage.2	FOODEEG_Images\0028.jpg	YN	Left	Yes	1.34721439983696	0	678655	251
1326.556640625	2	decision	foodImageDisplay	3	172	52	foodImage.2	FOODEEG_Images\0028.jpg	YN	Left	Yes	1.34721439983696	0	679198	252
1328.6171875	1.34721439983696	decision	choicePhaseStart	3	172	52	foodImage.2	FOODEEG_Images\0028.jpg	YN	Left	Yes	1.34721439983696	0	680253	253
1329.955078125	0	decision	response	3	172	52	foodImage.2	FOODEEG_Images\0028.jpg	YN	Left	Yes	1.34721439983696	0	680938	234
1330.99609375	1	taste	trialStart	3	173	53	foodImage.118	FOODEEG_Images\0926.jpg	NY	Right	Yes	2.20979069988243	0	681471	251
1332.033203125	2	taste	foodImageDisplay	3	173	53	foodImage.118	FOODEEG_Images\0926.jpg	NY	Right	Yes	2.20979069988243	0	682002	252
1334.09765625	2.20979069988243	taste	choicePhaseStart	3	173	53	foodImage.118	FOODEEG_Images\0926.jpg	NY	Right	Yes	2.20979069988243	0	683059	253
1336.298828125	0	taste	response	3	173	53	foodImage.118	FOODEEG_Images\0926.jpg	NY	Right	Yes	2.20979069988243	0	684186	235
1337.341796875	1	taste	trialStart	3	174	54	foodImage.2	FOODEEG_Images\0028.jpg	YN	Left	Yes	0.999046600190923	0	684720	251
1338.3984375	2	taste	foodImageDisplay	3	174	54	foodImage.2	FOODEEG_Images\0028.jpg	YN	Left	Yes	0.999046600190923	0	685261	252
1340.4609375	0.999046600190923	taste	choicePhaseStart	3	174	54	foodImage.2	FOODEEG_Images\0028.jpg	YN	Left	Yes	0.999046600190923	0	686317	253
1341.451171875	0	taste	response	3	174	54	foodImage.2	FOODEEG_Images\0028.jpg	YN	Left	Yes	0.999046600190923	0	686824	234
1342.5	1	decision	trialStart	3	175	55	foodImage.47	FOODEEG_Images\0488.jpg	NY	Right	Yes	0.96861319988966	0	687361	251
1343.541015625	2	decision	foodImageDisplay	3	175	55	foodImage.47	FOODEEG_Images\0488.jpg	NY	Right	Yes	0.96861319988966	0	687894	252
1345.603515625	0.96861319988966	decision	choicePhaseStart	3	175	55	foodImage.47	FOODEEG_Images\0488.jpg	NY	Right	Yes	0.96861319988966	0	688950	253
1346.5625	0	decision	response	3	175	55	foodImage.47	FOODEEG_Images\0488.jpg	NY	Right	Yes	0.96861319988966	0	689441	235
1347.60546875	1	decision	trialStart	3	176	56	foodImage.73	FOODEEG_Images\0717.jpg	NY	Right	Yes	0.819311800180003	0	689975	251
1348.6640625	2	decision	foodImageDisplay	3	176	56	foodImage.73	FOODEEG_Images\0717.jpg	NY	Right	Yes	0.819311800180003	0	690517	252
1350.728515625	0.819311800180003	decision	choicePhaseStart	3	176	56	foodImage.73	FOODEEG_Images\0717.jpg	NY	Right	Yes	0.819311800180003	0	691574	253
1351.5390625	0	decision	response	3	176	56	foodImage.73	FOODEEG_Images\0717.jpg	NY	Right	Yes	0.819311800180003	0	691989	235
1352.58203125	1	taste	trialStart	3	177	57	foodImage.7	FOODEEG_Images\0116.jpg	YN	Left	Yes	0.775342799955979	0	692523	251
1353.623046875	2	taste	foodImageDisplay	3	177	57	foodImage.7	FOODEEG_Images\0116.jpg	YN	Left	Yes	0.775342799955979	0	693056	252
1355.685546875	0.775342799955979	taste	choicePhaseStart	3	177	57	foodImage.7	FOODEEG_Images\0116.jpg	YN	Left	Yes	0.775342799955979	0	694112	253
1356.451171875	0	taste	response	3	177	57	foodImage.7	FOODEEG_Images\0116.jpg	YN	Left	Yes	0.775342799955979	0	694504	234
1357.494140625	1	health	trialStart	3	178	58	foodImage.9	FOODEEG_Images\0138.jpg	NY	Left	No	1.33275870000944	0	695038	251
1358.552734375	2	health	foodImageDisplay	3	178	58	foodImage.9	FOODEEG_Images\0138.jpg	NY	Left	No	1.33275870000944	0	695580	252
1360.615234375	1.33275870000944	health	choicePhaseStart	3	178	58	foodImage.9	FOODEEG_Images\0138.jpg	NY	Left	No	1.33275870000944	0	696636	253
1361.9375	0	health	response	3	178	58	foodImage.9	FOODEEG_Images\0138.jpg	NY	Left	No	1.33275870000944	0	697313	234
1362.982421875	1	taste	trialStart	3	179	59	foodImage.93	FOODEEG_Images\0901.jpg	NY	Right	Yes	1.39306190004572	0	697848	251
1364.01953125	2	taste	foodImageDisplay	3	179	59	foodImage.93	FOODEEG_Images\0901.jpg	NY	Right	Yes	1.39306190004572	0	698379	252
1366.08203125	1.39306190004572	taste	choicePhaseStart	3	179	59	foodImage.93	FOODEEG_Images\0901.jpg	NY	Right	Yes	1.39306190004572	0	699435	253
1367.466796875	0	taste	response	3	179	59	foodImage.93	FOODEEG_Images\0901.jpg	NY	Right	Yes	1.39306190004572	0	700144	235
1368.509765625	1	decision	trialStart	3	180	60	foodImage.46	FOODEEG_Images\0479.jpg	YN	Left	Yes	0.927263499936089	0	700678	251
1369.564453125	2	decision	foodImageDisplay	3	180	60	foodImage.46	FOODEEG_Images\0479.jpg	YN	Left	Yes	0.927263499936089	0	701218	252
1371.626953125	0.927263499936089	decision	choicePhaseStart	3	180	60	foodImage.46	FOODEEG_Images\0479.jpg	YN	Left	Yes	0.927263499936089	0	702274	253
1372.546875	0	decision	response	3	180	60	foodImage.46	FOODEEG_Images\0479.jpg	YN	Left	Yes	0.927263499936089	0	702745	234
1374.587890625	55.01953125	n/a	blockEnd	n/a	n/a	n/a	n/a	n/a	n/a	n/a	n/a	n/a	n/a	703790	254
1429.607421875	2	n/a	blockStart	4	n/a	n/a	n/a	n/a	n/a	n/a	n/a	n/a	n/a	731960	250
1431.640625	1	decision	trialStart	4	181	1	foodImage.99	FOODEEG_Images\0907.jpg	NY	Right	Yes	2.22216830006801	0	733001	251
1432.677734375	2	decision	foodImageDisplay	4	181	1	foodImage.99	FOODEEG_Images\0907.jpg	NY	Right	Yes	2.22216830006801	0	733532	252
1434.74609375	2.22216830006801	decision	choicePhaseStart	4	181	1	foodImage.99	FOODEEG_Images\0907.jpg	NY	Right	Yes	2.22216830006801	0	734591	253
1436.958984375	0	decision	response	4	181	1	foodImage.99	FOODEEG_Images\0907.jpg	NY	Right	Yes	2.22216830006801	0	735724	235
1438.001953125	1	decision	trialStart	4	182	2	foodImage.76	FOODEEG_Images\0766.jpg	NY	Right	Yes	0.858693300047889	0	736258	251
1439.046875	2	decision	foodImageDisplay	4	182	2	foodImage.76	FOODEEG_Images\0766.jpg	NY	Right	Yes	0.858693300047889	0	736793	252
1441.109375	0.858693300047889	decision	choicePhaseStart	4	182	2	foodImage.76	FOODEEG_Images\0766.jpg	NY	Right	Yes	0.858693300047889	0	737849	253
1441.958984375	0	decision	response	4	182	2	foodImage.76	FOODEEG_Images\0766.jpg	NY	Right	Yes	0.858693300047889	0	738284	235
1443.00390625	1	health	trialStart	4	183	3	foodImage.82	FOODEEG_Images\0805.jpg	YN	Left	Yes	1.79814859991893	0	738819	251
1444.05859375	2	health	foodImageDisplay	4	183	3	foodImage.82	FOODEEG_Images\0805.jpg	YN	Left	Yes	1.79814859991893	0	739359	252
1446.12109375	1.79814859991893	health	choicePhaseStart	4	183	3	foodImage.82	FOODEEG_Images\0805.jpg	YN	Left	Yes	1.79814859991893	0	740415	253
1447.91015625	0	health	response	4	183	3	foodImage.82	FOODEEG_Images\0805.jpg	YN	Left	Yes	1.79814859991893	0	741331	234
1448.951171875	1	taste	trialStart	4	184	4	foodImage.110	FOODEEG_Images\0918.jpg	YN	Right	No	0.893041800009087	0	741864	251
1449.98828125	2	taste	foodImageDisplay	4	184	4	foodImage.110	FOODEEG_Images\0918.jpg	YN	Right	No	0.893041800009087	0	742395	252
1452.05078125	0.893041800009087	taste	choicePhaseStart	4	184	4	foodImage.110	FOODEEG_Images\0918.jpg	YN	Right	No	0.893041800009087	0	743451	253
1452.935546875	0	taste	response	4	184	4	foodImage.110	FOODEEG_Images\0918.jpg	YN	Right	No	0.893041800009087	0	743904	235
1453.978515625	1	health	trialStart	4	185	5	foodImage.7	FOODEEG_Images\0116.jpg	YN	Left	Yes	0.964885600144044	0	744438	251
1455.01953125	2	health	foodImageDisplay	4	185	5	foodImage.7	FOODEEG_Images\0116.jpg	YN	Left	Yes	0.964885600144044	0	744971	252
1457.08203125	0.964885600144044	health	choicePhaseStart	4	185	5	foodImage.7	FOODEEG_Images\0116.jpg	YN	Left	Yes	0.964885600144044	0	746027	253
1458.0390625	0	health	response	4	185	5	foodImage.7	FOODEEG_Images\0116.jpg	YN	Left	Yes	0.964885600144044	0	746517	234
1459.08203125	1	health	trialStart	4	186	6	foodImage.71	FOODEEG_Images\0713.jpg	NY	Left	No	0.90468250005506	0	747051	251
1460.123046875	2	health	foodImageDisplay	4	186	6	foodImage.71	FOODEEG_Images\0713.jpg	NY	Left	No	0.90468250005506	0	747584	252
1462.19140625	0.90468250005506	health	choicePhaseStart	4	186	6	foodImage.71	FOODEEG_Images\0713.jpg	NY	Left	No	0.90468250005506	0	748643	253
1463.0859375	0	health	response	4	186	6	foodImage.71	FOODEEG_Images\0713.jpg	NY	Left	No	0.90468250005506	0	749101	234
1464.130859375	1	health	trialStart	4	187	7	foodImage.60	FOODEEG_Images\0614.jpg	YN	Right	No	1.11260410002433	0	749636	251
1465.185546875	2	health	foodImageDisplay	4	187	7	foodImage.60	FOODEEG_Images\0614.jpg	YN	Right	No	1.11260410002433	0	750176	252
1467.24609375	1.11260410002433	health	choicePhaseStart	4	187	7	foodImage.60	FOODEEG_Images\0614.jpg	YN	Right	No	1.11260410002433	0	751231	253
1468.349609375	0	health	response	4	187	7	foodImage.60	FOODEEG_Images\0614.jpg	YN	Right	No	1.11260410002433	0	751796	235
1469.396484375	1	decision	trialStart	4	188	8	foodImage.64	FOODEEG_Images\0647.jpg	NY	Right	Yes	1.4492621999234	0	752332	251
1470.455078125	2	decision	foodImageDisplay	4	188	8	foodImage.64	FOODEEG_Images\0647.jpg	NY	Right	Yes	1.4492621999234	0	752874	252
1472.517578125	1.4492621999234	decision	choicePhaseStart	4	188	8	foodImage.64	FOODEEG_Images\0647.jpg	NY	Right	Yes	1.4492621999234	0	753930	253
1473.958984375	0	decision	response	4	188	8	foodImage.64	FOODEEG_Images\0647.jpg	NY	Right	Yes	1.4492621999234	0	754668	235
1475.005859375	1	taste	trialStart	4	189	9	foodImage.24	FOODEEG_Images\0250.jpg	NY	Right	Yes	1.0272047999315	0	755204	251
1476.044921875	2	taste	foodImageDisplay	4	189	9	foodImage.24	FOODEEG_Images\0250.jpg	NY	Right	Yes	1.0272047999315	0	755736	252
1478.107421875	1.0272047999315	taste	choicePhaseStart	4	189	9	foodImage.24	FOODEEG_Images\0250.jpg	NY	Right	Yes	1.0272047999315	0	756792	253
1479.125	0	taste	response	4	189	9	foodImage.24	FOODEEG_Images\0250.jpg	NY	Right	Yes	1.0272047999315	0	757313	235
1480.169921875	1	health	trialStart	4	190	10	foodImage.12	FOODEEG_Images\0181.jpg	YN	Left	Yes	0.828434600029141	0	757848	251
1481.2109375	2	health	foodImageDisplay	4	190	10	foodImage.12	FOODEEG_Images\0181.jpg	YN	Left	Yes	0.828434600029141	0	758381	252
1483.2734375	0.828434600029141	health	choicePhaseStart	4	190	10	foodImage.12	FOODEEG_Images\0181.jpg	YN	Left	Yes	0.828434600029141	0	759437	253
1484.09375	0	health	response	4	190	10	foodImage.12	FOODEEG_Images\0181.jpg	YN	Left	Yes	0.828434600029141	0	759857	234
1485.138671875	1	taste	trialStart	4	191	11	foodImage.20	FOODEEG_Images\0226.jpg	YN	Right	No	2.46974119986407	0	760392	251
1486.177734375	2	taste	foodImageDisplay	4	191	11	foodImage.20	FOODEEG_Images\0226.jpg	YN	Right	No	2.46974119986407	0	760924	252
1488.240234375	2.46974119986407	taste	choicePhaseStart	4	191	11	foodImage.20	FOODEEG_Images\0226.jpg	YN	Right	No	2.46974119986407	0	761980	253
1490.701171875	0	taste	response	4	191	11	foodImage.20	FOODEEG_Images\0226.jpg	YN	Right	No	2.46974119986407	0	763240	235
1491.748046875	1	health	trialStart	4	192	12	foodImage.116	FOODEEG_Images\0924.jpg	NY	Left	No	1.31317569990642	0	763776	251
1492.791015625	2	health	foodImageDisplay	4	192	12	foodImage.116	FOODEEG_Images\0924.jpg	NY	Left	No	1.31317569990642	0	764310	252
1494.853515625	1.31317569990642	health	choicePhaseStart	4	192	12	foodImage.116	FOODEEG_Images\0924.jpg	NY	Left	No	1.31317569990642	0	765366	253
1496.158203125	0	health	response	4	192	12	foodImage.116	FOODEEG_Images\0924.jpg	NY	Left	No	1.31317569990642	0	766034	234
1497.201171875	1	taste	trialStart	4	193	13	foodImage.54	FOODEEG_Images\0560.jpg	YN	Left	Yes	1.20612969994545	0	766568	251
1498.2578125	2	taste	foodImageDisplay	4	193	13	foodImage.54	FOODEEG_Images\0560.jpg	YN	Left	Yes	1.20612969994545	0	767109	252
1500.3203125	1.20612969994545	taste	choicePhaseStart	4	193	13	foodImage.54	FOODEEG_Images\0560.jpg	YN	Left	Yes	1.20612969994545	0	768165	253
1501.517578125	0	taste	response	4	193	13	foodImage.54	FOODEEG_Images\0560.jpg	YN	Left	Yes	1.20612969994545	0	768778	234
1502.55859375	1	decision	trialStart	4	194	14	foodImage.117	FOODEEG_Images\0925.jpg	NY	Right	Yes	1.2019906998612	0	769311	251
1503.59765625	2	decision	foodImageDisplay	4	194	14	foodImage.117	FOODEEG_Images\0925.jpg	NY	Right	Yes	1.2019906998612	0	769843	252
1505.66015625	1.2019906998612	decision	choicePhaseStart	4	194	14	foodImage.117	FOODEEG_Images\0925.jpg	NY	Right	Yes	1.2019906998612	0	770899	253
1506.853515625	0	decision	response	4	194	14	foodImage.117	FOODEEG_Images\0925.jpg	NY	Right	Yes	1.2019906998612	0	771510	235
1507.900390625	1	taste	trialStart	4	195	15	foodImage.27	FOODEEG_Images\0263.jpg	YN	Left	Yes	1.14472960005514	0	772046	251
