onset	duration	trial_type	event_type	block	trial_total	trial_in_block	food_image_code	food_image_path	button_position	resp_position	resp_choice	choice_rt	resp_too_slow	sample	trigger
297.8515625	2	n/a	blockStart	1	n/a	n/a	n/a	n/a	n/a	n/a	n/a	n/a	n/a	152501	250
299.888671875	1	health	trialStart	1	1	1	foodImage.77	FOODEEG_Images\0771.jpg	NY	Right	Yes	0.986104799987515	0	153544	251
300.939453125	2	health	foodImageDisplay	1	1	1	foodImage.77	FOODEEG_Images\0771.jpg	NY	Right	Yes	0.986104799987515	0	154082	252
303.00390625	0.986104799987515	health	choicePhaseStart	1	1	1	foodImage.77	FOODEEG_Images\0771.jpg	NY	Right	Yes	0.986104799987515	0	155139	253
303.982421875	0	health	response	1	1	1	foodImage.77	FOODEEG_Images\0771.jpg	NY	Right	Yes	0.986104799987515	0	155640	235
305.095703125	1	taste	trialStart	1	2	2	foodImage.18	FOODEEG_Images\0202.jpg	NY	Right	Yes	0.950473000004422	0	156210	251
306.15625	2	taste	foodImageDisplay	1	2	2	foodImage.18	FOODEEG_Images\0202.jpg	NY	Right	Yes	0.950473000004422	0	156753	252
308.220703125	0.950473000004422	taste	choicePhaseStart	1	2	2	foodImage.18	FOODEEG_Images\0202.jpg	NY	Right	Yes	0.950473000004422	0	157810	253
309.1640625	0	taste	response	1	2	2	foodImage.18	FOODEEG_Images\0202.jpg	NY	Right	Yes	0.950473000004422	0	158293	235
310.220703125	1	taste	trialStart	1	3	3	foodImage.63	FOODEEG_Images\0645.jpg	YN	Left	Yes	0.957094000012148	0	158834	251
311.263671875	2	taste	foodImageDisplay	1	3	3	foodImage.63	FOODEEG_Images\0645.jpg	YN	Left	Yes	0.957094000012148	0	159368	252
313.328125	0.957094000012148	taste	choicePhaseStart	1	3	3	foodImage.63	FOODEEG_Images\0645.jpg	YN	Left	Yes	0.957094000012148	0	160425	253
314.27734375	0	taste	response	1	3	3	foodImage.63	FOODEEG_Images\0645.jpg	YN	Left	Yes	0.957094000012148	0	160911	234
315.33984375	1	decision	trialStart	1	4	4	foodImage.27	FOODEEG_Images\0263.jpg	NY	Right	Yes	1.12188460002653	0	161455	251
316.3828125	2	decision	foodImageDisplay	1	4	4	foodImage.27	FOODEEG_Images\0263.jpg	NY	Right	Yes	1.12188460002653	0	161989	252
318.44921875	1.12188460002653	decision	choicePhaseStart	1	4	4	foodImage.27	FOODEEG_Images\0263.jpg	NY	Right	Yes	1.12188460002653	0	163047	253
319.564453125	0	decision	response	1	4	4	foodImage.27	FOODEEG_Images\0263.jpg	NY	Right	Yes	1.12188460002653	0	163618	235
320.609375	1	health	trialStart	1	5	5	foodImage.24	FOODEEG_Images\0250.jpg	NY	Right	Yes	0.890414300025441	0	164153	251
321.658203125	2	health	foodImageDisplay	1	5	5	foodImage.24	FOODEEG_Images\0250.jpg	NY	Right	Yes	0.890414300025441	0	164690	252
323.728515625	0.890414300025441	health	choicePhaseStart	1	5	5	foodImage.24	FOODEEG_Images\0250.jpg	NY	Right	Yes	0.890414300025441	0	165750	253
324.611328125	0	health	response	1	5	5	foodImage.24	FOODEEG_Images\0250.jpg	NY	Right	Yes	0.890414300025441	0	166202	235
325.662109375	1	decision	trialStart	1	6	6	foodImage.92	FOODEEG_Images\0900.jpg	NY	Left	No	1.29543790000025	0	166740	251
326.70703125	2	decision	foodImageDisplay	1	6	6	foodImage.92	FOODEEG_Images\0900.jpg	NY	Left	No	1.29543790000025	0	167275	252
328.771484375	1.29543790000025	decision	choicePhaseStart	1	6	6	foodImage.92	FOODEEG_Images\0900.jpg	NY	Left	No	1.29543790000025	0	168332	253
330.060546875	0	decision	response	1	6	6	foodImage.92	FOODEEG_Images\0900.jpg	NY	Left	No	1.29543790000025	0	168992	234
331.103515625	1	health	trialStart	1	7	7	foodImage.70	FOODEEG_Images\0705.jpg	NY	Left	No	1.78723879999598	0	169526	251
332.162109375	2	health	foodImageDisplay	1	7	7	foodImage.70	FOODEEG_Images\0705.jpg	NY	Left	No	1.78723879999598	0	170068	252
334.224609375	1.78723879999598	health	choicePhaseStart	1	7	7	foodImage.70	FOODEEG_Images\0705.jpg	NY	Left	No	1.78723879999598	0	171124	253
336.00390625	0	health	response	1	7	7	foodImage.70	FOODEEG_Images\0705.jpg	NY	Left	No	1.78723879999598	0	172035	234
337.046875	1	decision	trialStart	1	8	8	foodImage.53	FOODEEG_Images\0547.jpg	NY	Left	No	1.62111279999954	0	172569	251
338.103515625	2	decision	foodImageDisplay	1	8	8	foodImage.53	FOODEEG_Images\0547.jpg	NY	Left	No	1.62111279999954	0	173110	252
340.16796875	1.62111279999954	decision	choicePhaseStart	1	8	8	foodImage.53	FOODEEG_Images\0547.jpg	NY	Left	No	1.62111279999954	0	174167	253
341.779296875	0	decision	response	1	8	8	foodImage.53	FOODEEG_Images\0547.jpg	NY	Left	No	1.62111279999954	0	174992	234
342.826171875	1	taste	trialStart	1	9	9	foodImage.90	FOODEEG_Images\0890.jpg	YN	Left	Yes	1.2079773999867	0	175528	251
343.88671875	2	taste	foodImageDisplay	1	9	9	foodImage.90	FOODEEG_Images\0890.jpg	YN	Left	Yes	1.2079773999867	0	176071	252
345.94921875	1.2079773999867	taste	choicePhaseStart	1	9	9	foodImage.90	FOODEEG_Images\0890.jpg	YN	Left	Yes	1.2079773999867	0	177127	253
347.1484375	0	taste	response	1	9	9	foodImage.90	FOODEEG_Images\0890.jpg	YN	Left	Yes	1.2079773999867	0	177741	234
348.19140625	1	taste	trialStart	1	10	10	foodImage.35	FOODEEG_Images\0350.jpg	YN	Left	Yes	0.8517492999963	0	178275	251
349.23046875	2	taste	foodImageDisplay	1	10	10	foodImage.35	FOODEEG_Images\0350.jpg	YN	Left	Yes	0.8517492999963	0	178807	252
351.294921875	0.8517492999963	taste	choicePhaseStart	1	10	10	foodImage.35	FOODEEG_Images\0350.jpg	YN	Left	Yes	0.8517492999963	0	179864	253
352.140625	0	taste	response	1	10	10	foodImage.35	FOODEEG_Images\0350.jpg	YN	Left	Yes	0.8517492999963	0	180297	234
353.181640625	1	health	trialStart	1	11	11	foodImage.55	FOODEEG_Images\0567.jpg	YN	Left	Yes	0.930315000005066	0	180830	251
354.2421875	2	health	foodImageDisplay	1	11	11	foodImage.55	FOODEEG_Images\0567.jpg	YN	Left	Yes	0.930315000005066	0	181373	252
356.306640625	0.930315000005066	health	choicePhaseStart	1	11	11	foodImage.55	FOODEEG_Images\0567.jpg	YN	Left	Yes	0.930315000005066	0	182430	253
357.2265625	0	health	response	1	11	11	foodImage.55	FOODEEG_Images\0567.jpg	YN	Left	Yes	0.930315000005066	0	182901	234
358.26953125	1	taste	trialStart	1	12	12	foodImage.75	FOODEEG_Images\0763.jpg	NY	Right	Yes	1.9202594999806	0	183435	251
359.314453125	2	taste	foodImageDisplay	1	12	12	foodImage.75	FOODEEG_Images\0763.jpg	NY	Right	Yes	1.9202594999806	0	183970	252
361.37890625	1.9202594999806	taste	choicePhaseStart	1	12	12	foodImage.75	FOODEEG_Images\0763.jpg	NY	Right	Yes	1.9202594999806	0	185027	253
363.291015625	0	taste	response	1	12	12	foodImage.75	FOODEEG_Images\0763.jpg	NY	Right	Yes	1.9202594999806	0	186006	235
364.3359375	1	taste	trialStart	1	13	13	foodImage.120	FOODEEG_Images\0928.jpg	YN	Right	No	1.47390030001407	0	186541	251
365.376953125	2	taste	foodImageDisplay	1	13	13	foodImage.120	FOODEEG_Images\0928.jpg	YN	Right	No	1.47390030001407	0	187074	252
367.44140625	1.47390030001407	taste	choicePhaseStart	1	13	13	foodImage.120	FOODEEG_Images\0928.jpg	YN	Right	No	1.47390030001407	0	188131	253
368.90625	0	taste	response	1	13	13	foodImage.120	FOODEEG_Images\0928.jpg	YN	Right	No	1.47390030001407	0	188881	235
369.9609375	1	health	trialStart	1	14	14	foodImage.8	FOODEEG_Images\0136.jpg	YN	Right	No	1.59821399999782	0	189421	251
371.00390625	2	health	foodImageDisplay	1	14	14	foodImage.8	FOODEEG_Images\0136.jpg	YN	Right	No	1.59821399999782	0	189955	252
373.068359375	1.59821399999782	health	choicePhaseStart	1	14	14	foodImage.8	FOODEEG_Images\0136.jpg	YN	Right	No	1.59821399999782	0	191012	253
374.658203125	0	health	response	1	14	14	foodImage.8	FOODEEG_Images\0136.jpg	YN	Right	No	1.59821399999782	0	191826	235
375.701171875	1	decision	trialStart	1	15	15	foodImage.35	FOODEEG_Images\0350.jpg	NY	Right	Yes	1.03249559999676	0	192360	251
376.73828125	2	decision	foodImageDisplay	1	15	15	foodImage.35	FOODEEG_Images\0350.jpg	NY	Right	Yes	1.03249559999676	0	192891	252
378.802734375	1.03249559999676	decision	choicePhaseStart	1	15	15	foodImage.35	FOODEEG_Images\0350.jpg	NY	Right	Yes	1.03249559999676	0	193948	253
379.826171875	0	decision	response	1	15	15	foodImage.35	FOODEEG_Images\0350.jpg	NY	Right	Yes	1.03249559999676	0	194472	235
380.869140625	1	health	trialStart	1	16	16	foodImage.34	FOODEEG_Images\0339.jpg	NY	Left	No	0.844163400004618	0	195006	251
381.92578125	2	health	foodImageDisplay	1	16	16	foodImage.34	FOODEEG_Images\0339.jpg	NY	Left	No	0.844163400004618	0	195547	252
383.98828125	0.844163400004618	health	choicePhaseStart	1	16	16	foodImage.34	FOODEEG_Images\0339.jpg	NY	Left	No	0.844163400004618	0	196603	253
384.826171875	0	health	response	1	16	16	foodImage.34	FOODEEG_Images\0339.jpg	NY	Left	No	0.844163400004618	0	197032	234
385.87109375	1	taste	trialStart	1	17	17	foodImage.38	FOODEEG_Images\0365.jpg	NY	Right	Yes	0.826626699999906	0	197567	251
386.912109375	2	taste	foodImageDisplay	1	17	17	foodImage.38	FOODEEG_Images\0365.jpg	NY	Right	Yes	0.826626699999906	0	198100	252
388.974609375	0.826626699999906	taste	choicePhaseStart	1	17	17	foodImage.38	FOODEEG_Images\0365.jpg	NY	Right	Yes	0.826626699999906	0	199156	253
389.79296875	0	taste	response	1	17	17	foodImage.38	FOODEEG_Images\0365.jpg	NY	Right	Yes	0.826626699999906	0	199575	235
390.841796875	1	health	trialStart	1	18	18	foodImage.44	FOODEEG_Images\0459.jpg	YN	Left	Yes	0.906460600002902	0	200112	251
391.888671875	2	health	foodImageDisplay	1	18	18	foodImage.44	FOODEEG_Images\0459.jpg	YN	Left	Yes	0.906460600002902	0	200648	252
393.953125	0.906460600002902	health	choicePhaseStart	1	18	18	foodImage.44	FOODEEG_Images\0459.jpg	YN	Left	Yes	0.906460600002902	0	201705	253
394.849609375	0	health	response	1	18	18	foodImage.44	FOODEEG_Images\0459.jpg	YN	Left	Yes	0.906460600002902	0	202164	234
395.890625	1	health	trialStart	1	19	19	foodImage.98	FOODEEG_Images\0906.jpg	YN	Left	Yes	1.55736099998467	0	202697	251
396.9296875	2	health	foodImageDisplay	1	19	19	foodImage.98	FOODEEG_Images\0906.jpg	YN	Left	Yes	1.55736099998467	0	203229	252
398.99609375	1.55736099998467	health	choicePhaseStart	1	19	19	foodImage.98	FOODEEG_Images\0906.jpg	YN	Left	Yes	1.55736099998467	0	204287	253
400.544921875	0	health	response	1	19	19	foodImage.98	FOODEEG_Images\0906.jpg	YN	Left	Yes	1.55736099998467	0	205080	234
401.587890625	1	taste	trialStart	1	20	20	foodImage.71	FOODEEG_Images\0713.jpg	YN	Left	Yes	1.2419504999998	0	205614	251
402.6328125	2	taste	foodImageDisplay	1	20	20	foodImage.71	FOODEEG_Images\0713.jpg	YN	Left	Yes	1.2419504999998	0	206149	252
404.697265625	1.2419504999998	taste	choicePhaseStart	1	20	20	foodImage.71	FOODEEG_Images\0713.jpg	YN	Left	Yes	1.2419504999998	0	207206	253
405.9296875	0	taste	response	1	20	20	foodImage.71	FOODEEG_Images\0713.jpg	YN	Left	Yes	1.2419504999998	0	207837	234
406.97265625	1	health	trialStart	1	21	21	foodImage.4	FOODEEG_Images\0065.jpg	YN	Right	No	2.156089600001	0	208371	251
408.03125	2	health	foodImageDisplay	1	21	21	foodImage.4	FOODEEG_Images\0065.jpg	YN	Right	No	2.156089600001	0	208913	252
410.09375	2.156089600001	health	choicePhaseStart	1	21	21	foodImage.4	FOODEEG_Images\0065.jpg	YN	Right	No	2.156089600001	0	209969	253
412.240234375	0	health	response	1	21	21	foodImage.4	FOODEEG_Images\0065.jpg	YN	Right	No	2.156089600001	0	211068	235
413.2890625	1	decision	trialStart	1	22	22	foodImage.107	FOODEEG_Images\0915.jpg	NY	Right	Yes	0.969351900013862	0	211605	251
414.326171875	2	decision	foodImageDisplay	1	22	22	foodImage.107	FOODEEG_Images\0915.jpg	NY	Right	Yes	0.969351900013862	0	212136	252
416.392578125	0.969351900013862	decision	choicePhaseStart	1	22	22	foodImage.107	FOODEEG_Images\0915.jpg	NY	Right	Yes	0.969351900013862	0	213194	253
417.353515625	0	decision	response	1	22	22	foodImage.107	FOODEEG_Images\0915.jpg	NY	Right	Yes	0.969351900013862	0	213686	235
418.396484375	1	decision	trialStart	1	23	23	foodImage.48	FOODEEG_Images\0494.jpg	NY	Right	Yes	0.931756500009215	0	214220	251
419.4375	2	decision	foodImageDisplay	1	23	23	foodImage.48	FOODEEG_Images\0494.jpg	NY	Right	Yes	0.931756500009215	0	214753	252
421.501953125	0.931756500009215	decision	choicePhaseStart	1	23	23	foodImage.48	FOODEEG_Images\0494.jpg	NY	Right	Yes	0.931756500009215	0	215810	253
422.423828125	0	decision	response	1	23	23	foodImage.48	FOODEEG_Images\0494.jpg	NY	Right	Yes	0.931756500009215	0	216282	235
423.466796875	1	taste	trialStart	1	24	24	foodImage.21	FOODEEG_Images\0234.jpg	NY	Right	Yes	0.788761200004956	0	216816	251
424.525390625	2	taste	foodImageDisplay	1	24	24	foodImage.21	FOODEEG_Images\0234.jpg	NY	Right	Yes	0.788761200004956	0	217358	252
426.58984375	0.788761200004956	taste	choicePhaseStart	1	24	24	foodImage.21	FOODEEG_Images\0234.jpg	NY	Right	Yes	0.788761200004956	0	218415	253
427.369140625	0	taste	response	1	24	24	foodImage.21	FOODEEG_Images\0234.jpg	NY	Right	Yes	0.788761200004956	0	218814	235
428.41015625	1	taste	trialStart	1	25	25	foodImage.99	FOODEEG_Images\0907.jpg	NY	Left	No	1.35226240000338	0	219347	251
429.451171875	2	taste	foodImageDisplay	1	25	25	foodImage.99	FOODEEG_Images\0907.jpg	NY	Left	No	1.35226240000338	0	219880	252
431.513671875	1.35226240000338	taste	choicePhaseStart	1	25	25	foodImage.99	FOODEEG_Images\0907.jpg	NY	Left	No	1.35226240000338	0	220936	253
432.85546875	0	taste	response	1	25	25	foodImage.99	FOODEEG_Images\0907.jpg	NY	Left	No	1.35226240000338	0	221623	234
433.8984375	1	decision	trialStart	1	26	26	foodImage.8	FOODEEG_Images\0136.jpg	YN	Left	Yes	0.868693399999756	0	222157	251
434.94140625	2	decision	foodImageDisplay	1	26	26	foodImage.8	FOODEEG_Images\0136.jpg	YN	Left	Yes	0.868693399999756	0	222691	252
437.00390625	0.868693399999756	decision	choicePhaseStart	1	26	26	foodImage.8	FOODEEG_Images\0136.jpg	YN	Left	Yes	0.868693399999756	0	223747	253
437.86328125	0	decision	response	1	26	26	foodImage.8	FOODEEG_Images\0136.jpg	YN	Left	Yes	0.868693399999756	0	224187	234
438.90625	1	decision	trialStart	1	27	27	foodImage.65	FOODEEG_Images\0658.jpg	YN	Right	No	0.939591700007441	0	224721	251
439.94921875	2	decision	foodImageDisplay	1	27	27	foodImage.65	FOODEEG_Images\0658.jpg	YN	Right	No	0.939591700007441	0	225255	252
442.013671875	0.939591700007441	decision	choicePhaseStart	1	27	27	foodImage.65	FOODEEG_Images\0658.jpg	YN	Right	No	0.939591700007441	0	226312	253
442.943359375	0	decision	response	1	27	27	foodImage.65	FOODEEG_Images\0658.jpg	YN	Right	No	0.939591700007441	0	226788	235
443.986328125	1	decision	trialStart	1	28	28	foodImage.99	FOODEEG_Images\0907.jpg	NY	Left	No	0.979061499994714	0	227322	251
445.0234375	2	decision	foodImageDisplay	1	28	28	foodImage.99	FOODEEG_Images\0907.jpg	NY	Left	No	0.979061499994714	0	227853	252
447.0859375	0.979061499994714	decision	choicePhaseStart	1	28	28	foodImage.99	FOODEEG_Images\0907.jpg	NY	Left	No	0.979061499994714	0	228909	253
448.0546875	0	decision	response	1	28	28	foodImage.99	FOODEEG_Images\0907.jpg	NY	Left	No	0.979061499994714	0	229405	234
449.09765625	1	decision	trialStart	1	29	29	foodImage.68	FOODEEG_Images\0685.jpg	YN	Left	Yes	0.887150399998063	0	229939	251
450.177734375	2	decision	foodImageDisplay	1	29	29	foodImage.68	FOODEEG_Images\0685.jpg	YN	Left	Yes	0.887150399998063	0	230492	252
452.2421875	0.887150399998063	decision	choicePhaseStart	1	29	29	foodImage.68	FOODEEG_Images\0685.jpg	YN	Left	Yes	0.887150399998063	0	231549	253
453.119140625	0	decision	response	1	29	29	foodImage.68	FOODEEG_Images\0685.jpg	YN	Left	Yes	0.887150399998063	0	231998	234
454.162109375	1	health	trialStart	1	30	30	foodImage.118	FOODEEG_Images\0926.jpg	NY	Left	No	1.83819439998479	0	232532	251
455.201171875	2	health	foodImageDisplay	1	30	30	foodImage.118	FOODEEG_Images\0926.jpg	NY	Left	No	1.83819439998479	0	233064	252
457.263671875	1.83819439998479	health	choicePhaseStart	1	30	30	foodImage.118	FOODEEG_Images\0926.jpg	NY	Left	No	1.83819439998479	0	234120	253
459.095703125	0	health	response	1	30	30	foodImage.118	FOODEEG_Images\0926.jpg	NY	Left	No	1.83819439998479	0	235058	234
460.138671875	1	decision	trialStart	1	31	31	foodImage.24	FOODEEG_Images\0250.jpg	YN	Left	Yes	0.989054400008172	0	235592	251
461.1796875	2	decision	foodImageDisplay	1	31	31	foodImage.24	FOODEEG_Images\0250.jpg	YN	Left	Yes	0.989054400008172	0	236125	252
463.244140625	0.989054400008172	decision	choicePhaseStart	1	31	31	foodImage.24	FOODEEG_Images\0250.jpg	YN	Left	Yes	0.989054400008172	0	237182	253
464.22265625	0	decision	response	1	31	31	foodImage.24	FOODEEG_Images\0250.jpg	YN	Left	Yes	0.989054400008172	0	237683	234
465.263671875	1	taste	trialStart	1	32	32	foodImage.22	FOODEEG_Images\0236.jpg	YN	Left	Yes	1.21322079998208	0	238216	251
466.306640625	2	taste	foodImageDisplay	1	32	32	foodImage.22	FOODEEG_Images\0236.jpg	YN	Left	Yes	1.21322079998208	0	238750	252
468.37109375	1.21322079998208	taste	choicePhaseStart	1	32	32	foodImage.22	FOODEEG_Images\0236.jpg	YN	Left	Yes	1.21322079998208	0	239807	253
469.57421875	0	taste	response	1	32	32	foodImage.22	FOODEEG_Images\0236.jpg	YN	Left	Yes	1.21322079998208	0	240423	234
470.6171875	1	taste	trialStart	1	33	33	foodImage.117	FOODEEG_Images\0925.jpg	NY	Right	Yes	0.762181699974462	0	240957	251
471.654296875	2	taste	foodImageDisplay	1	33	33	foodImage.117	FOODEEG_Images\0925.jpg	NY	Right	Yes	0.762181699974462	0	241488	252
473.716796875	0.762181699974462	taste	choicePhaseStart	1	33	33	foodImage.117	FOODEEG_Images\0925.jpg	NY	Right	Yes	0.762181699974462	0	242544	253
474.470703125	0	taste	response	1	33	33	foodImage.117	FOODEEG_Images\0925.jpg	NY	Right	Yes	0.762181699974462	0	242930	235
475.515625	1	decision	trialStart	1	34	34	foodImage.88	FOODEEG_Images\0878.jpg	NY	Right	Yes	0.8364401999861	0	243465	251
476.572265625	2	decision	foodImageDisplay	1	34	34	foodImage.88	FOODEEG_Images\0878.jpg	NY	Right	Yes	0.8364401999861	0	244006	252
478.634765625	0.8364401999861	decision	choicePhaseStart	1	34	34	foodImage.88	FOODEEG_Images\0878.jpg	NY	Right	Yes	0.8364401999861	0	245062	253
479.462890625	0	decision	response	1	34	34	foodImage.88	FOODEEG_Images\0878.jpg	NY	Right	Yes	0.8364401999861	0	245486	235
480.50390625	1	decision	trialStart	1	35	35	foodImage.38	FOODEEG_Images\0365.jpg	NY	Right	Yes	0.762392900011037	0	246019	251
481.541015625	2	decision	foodImageDisplay	1	35	35	foodImage.38	FOODEEG_Images\0365.jpg	NY	Right	Yes	0.762392900011037	0	246550	252
483.60546875	0.762392900011037	decision	choicePhaseStart	1	35	35	foodImage.38	FOODEEG_Images\0365.jpg	NY	Right	Yes	0.762392900011037	0	247607	253
484.357421875	0	decision	response	1	35	35	foodImage.38	FOODEEG_Images\0365.jpg	NY	Right	Yes	0.762392900011037	0	247992	235
485.40625	1	decision	trialStart	1	36	36	foodImage.17	FOODEEG_Images\0199.jpg	NY	Right	Yes	0.658152000018163	0	248529	251
486.44921875	2	decision	foodImageDisplay	1	36	36	foodImage.17	FOODEEG_Images\0199.jpg	NY	Right	Yes	0.658152000018163	0	249063	252
488.517578125	0.658152000018163	decision	choicePhaseStart	1	36	36	foodImage.17	FOODEEG_Images\0199.jpg	NY	Right	Yes	0.658152000018163	0	250122	253
489.166015625	0	decision	response	1	36	36	foodImage.17	FOODEEG_Images\0199.jpg	NY	Right	Yes	0.658152000018163	0	250454	235
490.208984375	1	health	trialStart	1	37	37	foodImage.64	FOODEEG_Images\0647.jpg	YN	Left	Yes	0.823211799986893	0	250988	251
491.265625	2	health	foodImageDisplay	1	37	37	foodImage.64	FOODEEG_Images\0647.jpg	YN	Left	Yes	0.823211799986893	0	251529	252
493.328125	0.823211799986893	health	choicePhaseStart	1	37	37	foodImage.64	FOODEEG_Images\0647.jpg	YN	Left	Yes	0.823211799986893	0	252585	253
494.140625	0	health	response	1	37	37	foodImage.64	FOODEEG_Images\0647.jpg	YN	Left	Yes	0.823211799986893	0	253001	234
495.185546875	1	taste	trialStart	1	38	38	foodImage.60	FOODEEG_Images\0614.jpg	NY	Right	Yes	0.668262799998047	0	253536	251
496.2421875	2	taste	foodImageDisplay	1	38	38	foodImage.60	FOODEEG_Images\0614.jpg	NY	Right	Yes	0.668262799998047	0	254077	252
498.306640625	0.668262799998047	taste	choicePhaseStart	1	38	38	foodImage.60	FOODEEG_Images\0614.jpg	NY	Right	Yes	0.668262799998047	0	255134	253
498.96484375	0	taste	response	1	38	38	foodImage.60	FOODEEG_Images\0614.jpg	NY	Right	Yes	0.668262799998047	0	255471	235
500.0078125	1	decision	trialStart	1	39	39	foodImage.22	FOODEEG_Images\0236.jpg	YN	Left	Yes	0.757690600003116	0	256005	251
501.048828125	2	decision	foodImageDisplay	1	39	39	foodImage.22	FOODEEG_Images\0236.jpg	YN	Left	Yes	0.757690600003116	0	256538	252
503.111328125	0.757690600003116	decision	choicePhaseStart	1	39	39	foodImage.22	FOODEEG_Images\0236.jpg	YN	Left	Yes	0.757690600003116	0	257594	253
503.861328125	0	decision	response	1	39	39	foodImage.22	FOODEEG_Images\0236.jpg	YN	Left	Yes	0.757690600003116	0	257978	234
504.904296875	1	taste	trialStart	1	40	40	foodImage.36	FOODEEG_Images\0352.jpg	NY	Right	Yes	0.845572799997171	0	258512	251
505.962890625	2	taste	foodImageDisplay	1	40	40	foodImage.36	FOODEEG_Images\0352.jpg	NY	Right	Yes	0.845572799997171	0	259054	252
508.025390625	0.845572799997171	taste	choicePhaseStart	1	40	40	foodImage.36	FOODEEG_Images\0352.jpg	NY	Right	Yes	0.845572799997171	0	260110	253
508.861328125	0	taste	response	1	40	40	foodImage.36	FOODEEG_Images\0352.jpg	NY	Right	Yes	0.845572799997171	0	260538	235
509.904296875	1	health	trialStart	1	41	41	foodImage.100	FOODEEG_Images\0908.jpg	YN	Left	Yes	2.27641530000255	0	261072	251
510.943359375	2	health	foodImageDisplay	1	41	41	foodImage.100	FOODEEG_Images\0908.jpg	YN	Left	Yes	2.27641530000255	0	261604	252
513.009765625	2.27641530000255	health	choicePhaseStart	1	41	41	foodImage.100	FOODEEG_Images\0908.jpg	YN	Left	Yes	2.27641530000255	0	262662	253
515.27734375	0	health	response	1	41	41	foodImage.100	FOODEEG_Images\0908.jpg	YN	Left	Yes	2.27641530000255	0	263823	234
516.31640625	1	taste	trialStart	1	42	42	foodImage.64	FOODEEG_Images\0647.jpg	YN	Left	Yes	1.12083129998064	0	264355	251
517.373046875	2	taste	foodImageDisplay	1	42	42	foodImage.64	FOODEEG_Images\0647.jpg	YN	Left	Yes	1.12083129998064	0	264896	252
519.435546875	1.12083129998064	taste	choicePhaseStart	1	42	42	foodImage.64	FOODEEG_Images\0647.jpg	YN	Left	Yes	1.12083129998064	0	265952	253
520.548828125	0	taste	response	1	42	42	foodImage.64	FOODEEG_Images\0647.jpg	YN	Left	Yes	1.12083129998064	0	266522	234
521.591796875	1	taste	trialStart	1	43	43	foodImage.47	FOODEEG_Images\0488.jpg	NY	Right	Yes	0.700593199988361	0	267056	251
522.634765625	2	taste	foodImageDisplay	1	43	43	foodImage.47	FOODEEG_Images\0488.jpg	NY	Right	Yes	0.700593199988361	0	267590	252
524.697265625	0.700593199988361	taste	choicePhaseStart	1	43	43	foodImage.47	FOODEEG_Images\0488.jpg	NY	Right	Yes	0.700593199988361	0	268646	253
525.388671875	0	taste	response	1	43	43	foodImage.47	FOODEEG_Images\0488.jpg	NY	Right	Yes	0.700593199988361	0	269000	235
526.431640625	1	health	trialStart	1	44	44	foodImage.13	FOODEEG_Images\0183.jpg	YN	Left	Yes	1.35621869997703	0	269534	251
527.474609375	2	health	foodImageDisplay	1	44	44	foodImage.13	FOODEEG_Images\0183.jpg	YN	Left	Yes	1.35621869997703	0	270068	252
529.537109375	1.35621869997703	health	choicePhaseStart	1	44	44	foodImage.13	FOODEEG_Images\0183.jpg	YN	Left	Yes	1.35621869997703	0	271124	253
530.884765625	0	health	response	1	44	44	foodImage.13	FOODEEG_Images\0183.jpg	YN	Left	Yes	1.35621869997703	0	271814	234
531.927734375	1	taste	trialStart	1	45	45	foodImage.89	FOODEEG_Images\0881.jpg	YN	Left	Yes	1.32698179999716	0	272348	251
532.984375	2	taste	foodImageDisplay	1	45	45	foodImage.89	FOODEEG_Images\0881.jpg	YN	Left	Yes	1.32698179999716	0	272889	252
535.046875	1.32698179999716	taste	choicePhaseStart	1	45	45	foodImage.89	FOODEEG_Images\0881.jpg	YN	Left	Yes	1.32698179999716	0	273945	253
536.36328125	0	taste	response	1	45	45	foodImage.89	FOODEEG_Images\0881.jpg	YN	Left	Yes	1.32698179999716	0	274619	234
537.40625	1	decision	trialStart	1	46	46	foodImage.77	FOODEEG_Images\0771.jpg	YN	Left	Yes	0.806872799992561	0	275153	251
538.44921875	2	decision	foodImageDisplay	1	46	46	foodImage.77	FOODEEG_Images\0771.jpg	YN	Left	Yes	0.806872799992561	0	275687	252
540.517578125	0.806872799992561	decision	choicePhaseStart	1	46	46	foodImage.77	FOODEEG_Images\0771.jpg	YN	Left	Yes	0.806872799992561	0	276746	253
541.31640625	0	decision	response	1	46	46	foodImage.77	FOODEEG_Images\0771.jpg	YN	Left	Yes	0.806872799992561	0	277155	234
542.359375	1	decision	trialStart	1	47	47	foodImage.80	FOODEEG_Images\0796.jpg	NY	Right	Yes	0.90937550002127	0	277689	251
543.41796875	2	decision	foodImageDisplay	1	47	47	foodImage.80	FOODEEG_Images\0796.jpg	NY	Right	Yes	0.90937550002127	0	278231	252
545.48046875	0.90937550002127	decision	choicePhaseStart	1	47	47	foodImage.80	FOODEEG_Images\0796.jpg	NY	Right	Yes	0.90937550002127	0	279287	253
546.37890625	0	decision	response	1	47	47	foodImage.80	FOODEEG_Images\0796.jpg	NY	Right	Yes	0.90937550002127	0	279747	235
547.421875	1	taste	trialStart	1	48	48	foodImage.70	FOODEEG_Images\0705.jpg	YN	Left	Yes	0.845836199994665	0	280281	251
548.478515625	2	taste	foodImageDisplay	1	48	48	foodImage.70	FOODEEG_Images\0705.jpg	YN	Left	Yes	0.845836199994665	0	280822	252
550.54296875	0.845836199994665	taste	choicePhaseStart	1	48	48	foodImage.70	FOODEEG_Images\0705.jpg	YN	Left	Yes	0.845836199994665	0	281879	253
551.37890625	0	taste	response	1	48	48	foodImage.70	FOODEEG_Images\0705.jpg	YN	Left	Yes	0.845836199994665	0	282307	234
552.427734375	1	taste	trialStart	1	49	49	foodImage.73	FOODEEG_Images\0717.jpg	YN	Left	Yes	0.730593300017063	0	282844	251
553.490234375	2	taste	foodImageDisplay	1	49	49	foodImage.73	FOODEEG_Images\0717.jpg	YN	Left	Yes	0.730593300017063	0	283388	252
555.5546875	0.730593300017063	taste	choicePhaseStart	1	49	49	foodImage.73	FOODEEG_Images\0717.jpg	YN	Left	Yes	0.730593300017063	0	284445	253
556.275390625	0	taste	response	1	49	49	foodImage.73	FOODEEG_Images\0717.jpg	YN	Left	Yes	0.730593300017063	0	284814	234
557.318359375	1	decision	trialStart	1	50	50	foodImage.66	FOODEEG_Images\0676.jpg	YN	Left	Yes	1.14141369998106	0	285348	251
558.361328125	2	decision	foodImageDisplay	1	50	50	foodImage.66	FOODEEG_Images\0676.jpg	YN	Left	Yes	1.14141369998106	0	285882	252
560.435546875	1.14141369998106	decision	choicePhaseStart	1	50	50	foodImage.66	FOODEEG_Images\0676.jpg	YN	Left	Yes	1.14141369998106	0	286944	253
561.5703125	0	decision	response	1	50	50	foodImage.66	FOODEEG_Images\0676.jpg	YN	Left	Yes	1.14141369998106	0	287525	234
562.61328125	1	decision	trialStart	1	51	51	foodImage.87	FOODEEG_Images\0873.jpg	YN	Left	Yes	0.681512400013162	0	288059	251
563.671875	2	decision	foodImageDisplay	1	51	51	foodImage.87	FOODEEG_Images\0873.jpg	YN	Left	Yes	0.681512400013162	0	288601	252
565.73828125	0.681512400013162	decision	choicePhaseStart	1	51	51	foodImage.87	FOODEEG_Images\0873.jpg	YN	Left	Yes	0.681512400013162	0	289659	253
566.41015625	0	decision	response	1	51	51	foodImage.87	FOODEEG_Images\0873.jpg	YN	Left	Yes	0.681512400013162	0	290003	234
567.453125	1	taste	trialStart	1	52	52	foodImage.84	FOODEEG_Images\0830.jpg	NY	Right	Yes	0.598396999994293	0	290537	251
568.513671875	2	taste	foodImageDisplay	1	52	52	foodImage.84	FOODEEG_Images\0830.jpg	NY	Right	Yes	0.598396999994293	0	291080	252
570.58203125	0.598396999994293	taste	choicePhaseStart	1	52	52	foodImage.84	FOODEEG_Images\0830.jpg	NY	Right	Yes	0.598396999994293	0	292139	253
571.169921875	0	taste	response	1	52	52	foodImage.84	FOODEEG_Images\0830.jpg	NY	Right	Yes	0.598396999994293	0	292440	235
572.21484375	1	health	trialStart	1	53	53	foodImage.74	FOODEEG_Images\0752.jpg	YN	Left	Yes	1.33488049998414	0	292975	251
573.259765625	2	health	foodImageDisplay	1	53	53	foodImage.74	FOODEEG_Images\0752.jpg	YN	Left	Yes	1.33488049998414	0	293510	252
575.326171875	1.33488049998414	health	choicePhaseStart	1	53	53	foodImage.74	FOODEEG_Images\0752.jpg	YN	Left	Yes	1.33488049998414	0	294568	253
576.650390625	0	health	response	1	53	53	foodImage.74	FOODEEG_Images\0752.jpg	YN	Left	Yes	1.33488049998414	0	295246	234
577.693359375	1	health	trialStart	1	54	54	foodImage.62	FOODEEG_Images\0644.jpg	YN	Left	Yes	0.70747819999815	0	295780	251
578.75390625	2	health	foodImageDisplay	1	54	54	foodImage.62	FOODEEG_Images\0644.jpg	YN	Left	Yes	0.70747819999815	0	296323	252
580.81640625	0.70747819999815	health	choicePhaseStart	1	54	54	foodImage.62	FOODEEG_Images\0644.jpg	YN	Left	Yes	0.70747819999815	0	297379	253
581.513671875	0	health	response	1	54	54	foodImage.62	FOODEEG_Images\0644.jpg	YN	Left	Yes	0.70747819999815	0	297736	234
582.55859375	1	decision	trialStart	1	55	55	foodImage.44	FOODEEG_Images\0459.jpg	YN	Left	Yes	1.10497970000142	0	298271	251
583.603515625	2	decision	foodImageDisplay	1	55	55	foodImage.44	FOODEEG_Images\0459.jpg	YN	Left	Yes	1.10497970000142	0	298806	252
585.666015625	1.10497970000142	decision	choicePhaseStart	1	55	55	foodImage.44	FOODEEG_Images\0459.jpg	YN	Left	Yes	1.10497970000142	0	299862	253
586.76171875	0	decision	response	1	55	55	foodImage.44	FOODEEG_Images\0459.jpg	YN	Left	Yes	1.10497970000142	0	300423	234
587.806640625	1	decision	trialStart	1	56	56	foodImage.96	FOODEEG_Images\0904.jpg	YN	Right	No	0.996898600016721	0	300958	251
588.84375	2	decision	foodImageDisplay	1	56	56	foodImage.96	FOODEEG_Images\0904.jpg	YN	Right	No	0.996898600016721	0	301489	252
590.908203125	0.996898600016721	decision	choicePhaseStart	1	56	56	foodImage.96	FOODEEG_Images\0904.jpg	YN	Right	No	0.996898600016721	0	302546	253
591.8984375	0	decision	response	1	56	56	foodImage.96	FOODEEG_Images\0904.jpg	YN	Right	No	0.996898600016721	0	303053	235
592.943359375	1	decision	trialStart	1	57	57	foodImage.63	FOODEEG_Images\0645.jpg	NY	Right	Yes	0.692222500016214	0	303588	251
593.984375	2	decision	foodImageDisplay	1	57	57	foodImage.63	FOODEEG_Images\0645.jpg	NY	Right	Yes	0.692222500016214	0	304121	252
596.046875	0.692222500016214	decision	choicePhaseStart	1	57	57	foodImage.63	FOODEEG_Images\0645.jpg	NY	Right	Yes	0.692222500016214	0	305177	253
596.73046875	0	decision	response	1	57	57	foodImage.63	FOODEEG_Images\0645.jpg	NY	Right	Yes	0.692222500016214	0	305527	235
597.7734375	1	decision	trialStart	1	58	58	foodImage.4	FOODEEG_Images\0065.jpg	NY	Right	Yes	0.837488399993163	0	306061	251
598.830078125	2	decision	foodImageDisplay	1	58	58	foodImage.4	FOODEEG_Images\0065.jpg	NY	Right	Yes	0.837488399993163	0	306602	252
600.892578125	0.837488399993163	decision	choicePhaseStart	1	58	58	foodImage.4	FOODEEG_Images\0065.jpg	NY	Right	Yes	0.837488399993163	0	307658	253
601.720703125	0	decision	response	1	58	58	foodImage.4	FOODEEG_Images\0065.jpg	NY	Right	Yes	0.837488399993163	0	308082	235
602.763671875	1	decision	trialStart	1	59	59	foodImage.28	FOODEEG_Images\0273.jpg	YN	Right	No	1.50872660000459	0	308616	251
603.806640625	2	decision	foodImageDisplay	1	59	59	foodImage.28	FOODEEG_Images\0273.jpg	YN	Right	No	1.50872660000459	0	309150	252
605.869140625	1.50872660000459	decision	choicePhaseStart	1	59	59	foodImage.28	FOODEEG_Images\0273.jpg	YN	Right	No	1.50872660000459	0	310206	253
607.369140625	0	decision	response	1	59	59	foodImage.28	FOODEEG_Images\0273.jpg	YN	Right	No	1.50872660000459	0	310974	235
608.412109375	1	health	trialStart	1	60	60	foodImage.51	FOODEEG_Images\0536.jpg	YN	Right	No	2.10221470001852	0	311508	251
609.4609375	2	health	foodImageDisplay	1	60	60	foodImage.51	FOODEEG_Images\0536.jpg	YN	Right	No	2.10221470001852	0	312045	252
611.525390625	2.10221470001852	health	choicePhaseStart	1	60	60	foodImage.51	FOODEEG_Images\0536.jpg	YN	Right	No	2.10221470001852	0	313102	253
613.6171875	0	health	response	1	60	60	foodImage.51	FOODEEG_Images\0536.jpg	YN	Right	No	2.10221470001852	0	314173	235
615.658203125	13.650390625	n/a	blockEnd	n/a	n/a	n/a	n/a	n/a	n/a	n/a	n/a	n/a	n/a	315218	254
629.30859375	2	n/a	blockStart	2	n/a	n/a	n/a	n/a	n/a	n/a	n/a	n/a	n/a	322207	250
631.345703125	1	health	trialStart	2	61	1	foodImage.99	FOODEEG_Images\0907.jpg	NY	Left	No	1.63308859997778	0	323250	251
632.3828125	2	health	foodImageDisplay	2	61	1	foodImage.99	FOODEEG_Images\0907.jpg	NY	Left	No	1.63308859997778	0	323781	252
634.447265625	1.63308859997778	health	choicePhaseStart	2	61	1	foodImage.99	FOODEEG_Images\0907.jpg	NY	Left	No	1.63308859997778	0	324838	253
636.072265625	0	health	response	2	61	1	foodImage.99	FOODEEG_Images\0907.jpg	NY	Left	No	1.63308859997778	0	325670	234
637.11328125	1	health	trialStart	2	62	2	foodImage.17	FOODEEG_Images\0199.jpg	NY	Right	Yes	0.806166900001699	0	326203	251
638.15625	2	health	foodImageDisplay	2	62	2	foodImage.17	FOODEEG_Images\0199.jpg	NY	Right	Yes	0.806166900001699	0	326737	252
640.21875	0.806166900001699	health	choicePhaseStart	2	62	2	foodImage.17	FOODEEG_Images\0199.jpg	NY	Right	Yes	0.806166900001699	0	327793	253
641.015625	0	health	response	2	62	2	foodImage.17	FOODEEG_Images\0199.jpg	NY	Right	Yes	0.806166900001699	0	328201	235
642.060546875	1	health	trialStart	2	63	3	foodImage.101	FOODEEG_Images\0909.jpg	YN	Right	No	1.29340140000568	0	328736	251
643.09765625	2	health	foodImageDisplay	2	63	3	foodImage.101	FOODEEG_Images\0909.jpg	YN	Right	No	1.29340140000568	0	329267	252
645.16015625	1.29340140000568	health	choicePhaseStart	2	63	3	foodImage.101	FOODEEG_Images\0909.jpg	YN	Right	No	1.29340140000568	0	330323	253
646.447265625	0	health	response	2	63	3	foodImage.101	FOODEEG_Images\0909.jpg	YN	Right	No	1.29340140000568	0	330982	235
647.490234375	1	decision	trialStart	2	64	4	foodImage.104	FOODEEG_Images\0912.jpg	YN	Left	Yes	0.824552299978677	0	331516	251
648.529296875	2	decision	foodImageDisplay	2	64	4	foodImage.104	FOODEEG_Images\0912.jpg	YN	Left	Yes	0.824552299978677	0	332048	252
650.591796875	0.824552299978677	decision	choicePhaseStart	2	64	4	foodImage.104	FOODEEG_Images\0912.jpg	YN	Left	Yes	0.824552299978677	0	333104	253
651.408203125	0	decision	response	2	64	4	foodImage.104	FOODEEG_Images\0912.jpg	YN	Left	Yes	0.824552299978677	0	333522	234
652.451171875	1	taste	trialStart	2	65	5	foodImage.94	FOODEEG_Images\0902.jpg	YN	Right	No	1.07999319999362	0	334056	251
653.490234375	2	taste	foodImageDisplay	2	65	5	foodImage.94	FOODEEG_Images\0902.jpg	YN	Right	No	1.07999319999362	0	334588	252
655.55859375	1.07999319999362	taste	choicePhaseStart	2	65	5	foodImage.94	FOODEEG_Images\0902.jpg	YN	Right	No	1.07999319999362	0	335647	253
656.630859375	0	taste	response	2	65	5	foodImage.94	FOODEEG_Images\0902.jpg	YN	Right	No	1.07999319999362	0	336196	235
657.677734375	1	taste	trialStart	2	66	6	foodImage.7	FOODEEG_Images\0116.jpg	NY	Right	Yes	0.882608899992192	0	336732	251
658.720703125	2	taste	foodImageDisplay	2	66	6	foodImage.7	FOODEEG_Images\0116.jpg	NY	Right	Yes	0.882608899992192	0	337266	252
660.783203125	0.882608899992192	taste	choicePhaseStart	2	66	6	foodImage.7	FOODEEG_Images\0116.jpg	NY	Right	Yes	0.882608899992192	0	338322	253
661.654296875	0	taste	response	2	66	6	foodImage.7	FOODEEG_Images\0116.jpg	NY	Right	Yes	0.882608899992192	0	338768	235
662.697265625	1	decision	trialStart	2	67	7	foodImage.18	FOODEEG_Images\0202.jpg	NY	Right	Yes	0.699422000005143	0	339302	251
663.7578125	2	decision	foodImageDisplay	2	67	7	foodImage.18	FOODEEG_Images\0202.jpg	NY	Right	Yes	0.699422000005143	0	339845	252
665.826171875	0.699422000005143	decision	choicePhaseStart	2	67	7	foodImage.18	FOODEEG_Images\0202.jpg	NY	Right	Yes	0.699422000005143	0	340904	253
666.51953125	0	decision	response	2	67	7	foodImage.18	FOODEEG_Images\0202.jpg	NY	Right	Yes	0.699422000005143	0	341259	235
667.5625	1	decision	trialStart	2	68	8	foodImage.52	FOODEEG_Images\0539.jpg	YN	Left	Yes	0.938346000009915	0	341793	251
668.619140625	2	decision	foodImageDisplay	2	68	8	foodImage.52	FOODEEG_Images\0539.jpg	YN	Left	Yes	0.938346000009915	0	342334	252
670.685546875	0.938346000009915	decision	choicePhaseStart	2	68	8	foodImage.52	FOODEEG_Images\0539.jpg	YN	Left	Yes	0.938346000009915	0	343392	253
671.615234375	0	decision	response	2	68	8	foodImage.52	FOODEEG_Images\0539.jpg	YN	Left	Yes	0.938346000009915	0	343868	234
672.65625	1	taste	trialStart	2	69	9	foodImage.82	FOODEEG_Images\0805.jpg	NY	Right	Yes	0.825217400008114	0	344401	251
673.732421875	2	taste	foodImageDisplay	2	69	9	foodImage.82	FOODEEG_Images\0805.jpg	NY	Right	Yes	0.825217400008114	0	344952	252
675.796875	0.825217400008114	taste	choicePhaseStart	2	69	9	foodImage.82	FOODEEG_Images\0805.jpg	NY	Right	Yes	0.825217400008114	0	346009	253
676.615234375	0	taste	response	2	69	9	foodImage.82	FOODEEG_Images\0805.jpg	NY	Right	Yes	0.825217400008114	0	346428	235
677.65625	1	health	trialStart	2	70	10	foodImage.45	FOODEEG_Images\0478.jpg	YN	Left	Yes	0.64902839998831	0	346961	251
678.703125	2	health	foodImageDisplay	2	70	10	foodImage.45	FOODEEG_Images\0478.jpg	YN	Left	Yes	0.64902839998831	0	347497	252
680.765625	0.64902839998831	health	choicePhaseStart	2	70	10	foodImage.45	FOODEEG_Images\0478.jpg	YN	Left	Yes	0.64902839998831	0	348553	253
681.40625	0	health	response	2	70	10	foodImage.45	FOODEEG_Images\0478.jpg	YN	Left	Yes	0.64902839998831	0	348881	234
682.447265625	1	health	trialStart	2	71	11	foodImage.22	FOODEEG_Images\0236.jpg	NY	Left	No	2.10332329999073	0	349414	251
683.48828125	2	health	foodImageDisplay	2	71	11	foodImage.22	FOODEEG_Images\0236.jpg	NY	Left	No	2.10332329999073	0	349947	252
685.552734375	2.10332329999073	health	choicePhaseStart	2	71	11	foodImage.22	FOODEEG_Images\0236.jpg	NY	Left	No	2.10332329999073	0	351004	253
687.646484375	0	health	response	2	71	11	foodImage.22	FOODEEG_Images\0236.jpg	NY	Left	No	2.10332329999073	0	352076	234
688.689453125	1	health	trialStart	2	72	12	foodImage.49	FOODEEG_Images\0515.jpg	NY	Left	No	2.4614001000009	0	352610	251
689.732421875	2	health	foodImageDisplay	2	72	12	foodImage.49	FOODEEG_Images\0515.jpg	NY	Left	No	2.4614001000009	0	353144	252
691.794921875	2.4614001000009	health	choicePhaseStart	2	72	12	foodImage.49	FOODEEG_Images\0515.jpg	NY	Left	No	2.4614001000009	0	354200	253
694.24609375	0	health	response	2	72	12	foodImage.49	FOODEEG_Images\0515.jpg	NY	Left	No	2.4614001000009	0	355455	234
695.287109375	1	taste	trialStart	2	73	13	foodImage.1	FOODEEG_Images\0004.jpg	YN	Left	Yes	0.765559999999823	0	355988	251
696.330078125	2	taste	foodImageDisplay	2	73	13	foodImage.1	FOODEEG_Images\0004.jpg	YN	Left	Yes	0.765559999999823	0	356522	252
698.39453125	0.765559999999823	taste	choicePhaseStart	2	73	13	foodImage.1	FOODEEG_Images\0004.jpg	YN	Left	Yes	0.765559999999823	0	357579	253
699.150390625	0	taste	response	2	73	13	foodImage.1	FOODEEG_Images\0004.jpg	YN	Left	Yes	0.765559999999823	0	357966	234
700.193359375	1	decision	trialStart	2	74	14	foodImage.14	FOODEEG_Images\0188.jpg	NY	Right	Yes	0.682097999990219	0	358500	251
701.25390625	2	decision	foodImageDisplay	2	74	14	foodImage.14	FOODEEG_Images\0188.jpg	NY	Right	Yes	0.682097999990219	0	359043	252
703.31640625	0.682097999990219	decision	choicePhaseStart	2	74	14	foodImage.14	FOODEEG_Images\0188.jpg	NY	Right	Yes	0.682097999990219	0	360099	253
703.990234375	0	decision	response	2	74	14	foodImage.14	FOODEEG_Images\0188.jpg	NY	Right	Yes	0.682097999990219	0	360444	235
705.03125	1	health	trialStart	2	75	15	foodImage.102	FOODEEG_Images\0910.jpg	YN	Right	No	1.54367899999488	0	360977	251
706.072265625	2	health	foodImageDisplay	2	75	15	foodImage.102	FOODEEG_Images\0910.jpg	YN	Right	No	1.54367899999488	0	361510	252
708.134765625	1.54367899999488	health	choicePhaseStart	2	75	15	foodImage.102	FOODEEG_Images\0910.jpg	YN	Right	No	1.54367899999488	0	362566	253
709.669921875	0	health	response	2	75	15	foodImage.102	FOODEEG_Images\0910.jpg	YN	Right	No	1.54367899999488	0	363352	235
710.7109375	1	decision	trialStart	2	76	16	foodImage.9	FOODEEG_Images\0138.jpg	NY	Right	Yes	0.642774900014047	0	363885	251
711.771484375	2	decision	foodImageDisplay	2	76	16	foodImage.9	FOODEEG_Images\0138.jpg	NY	Right	Yes	0.642774900014047	0	364428	252
713.833984375	0.642774900014047	decision	choicePhaseStart	2	76	16	foodImage.9	FOODEEG_Images\0138.jpg	NY	Right	Yes	0.642774900014047	0	365484	253
714.46875	0	decision	response	2	76	16	foodImage.9	FOODEEG_Images\0138.jpg	NY	Right	Yes	0.642774900014047	0	365809	235
715.517578125	1	decision	trialStart	2	77	17	foodImage.21	FOODEEG_Images\0234.jpg	NY	Right	Yes	0.858274600002915	0	366346	251
716.57421875	2	decision	foodImageDisplay	2	77	17	foodImage.21	FOODEEG_Images\0234.jpg	NY	Right	Yes	0.858274600002915	0	366887	252
718.63671875	0.858274600002915	decision	choicePhaseStart	2	77	17	foodImage.21	FOODEEG_Images\0234.jpg	NY	Right	Yes	0.858274600002915	0	367943	253
719.484375	0	decision	response	2	77	17	foodImage.21	FOODEEG_Images\0234.jpg	NY	Right	Yes	0.858274600002915	0	368377	235
720.52734375	1	health	trialStart	2	78	18	foodImage.72	FOODEEG_Images\0714.jpg	NY	Right	Yes	1.14071480001439	0	368911	251
721.568359375	2	health	foodImageDisplay	2	78	18	foodImage.72	FOODEEG_Images\0714.jpg	NY	Right	Yes	1.14071480001439	0	369444	252
723.6328125	1.14071480001439	health	choicePhaseStart	2	78	18	foodImage.72	FOODEEG_Images\0714.jpg	NY	Right	Yes	1.14071480001439	0	370501	253
724.765625	0	health	response	2	78	18	foodImage.72	FOODEEG_Images\0714.jpg	NY	Right	Yes	1.14071480001439	0	371081	235
725.806640625	1	health	trialStart	2	79	19	foodImage.39	FOODEEG_Images\0367.jpg	NY	Left	No	1.0080292999919	0	371614	251
726.845703125	2	health	foodImageDisplay	2	79	19	foodImage.39	FOODEEG_Images\0367.jpg	NY	Left	No	1.0080292999919	0	372146	252
728.91015625	1.0080292999919	health	choicePhaseStart	2	79	19	foodImage.39	FOODEEG_Images\0367.jpg	NY	Left	No	1.0080292999919	0	373203	253
729.908203125	0	health	response	2	79	19	foodImage.39	FOODEEG_Images\0367.jpg	NY	Left	No	1.0080292999919	0	373714	234
730.951171875	1	decision	trialStart	2	80	20	foodImage.98	FOODEEG_Images\0906.jpg	YN	Right	No	0.986404099996435	0	374248	251
731.990234375	2	decision	foodImageDisplay	2	80	20	foodImage.98	FOODEEG_Images\0906.jpg	YN	Right	No	0.986404099996435	0	374780	252
734.052734375	0.986404099996435	decision	choicePhaseStart	2	80	20	foodImage.98	FOODEEG_Images\0906.jpg	YN	Right	No	0.986404099996435	0	375836	253
735.02734375	0	decision	response	2	80	20	foodImage.98	FOODEEG_Images\0906.jpg	YN	Right	No	0.986404099996435	0	376335	235
736.072265625	1	taste	trialStart	2	81	21	foodImage.97	FOODEEG_Images\0905.jpg	NY	Left	No	0.918053700006567	0	376870	251
737.109375	2	taste	foodImageDisplay	2	81	21	foodImage.97	FOODEEG_Images\0905.jpg	NY	Left	No	0.918053700006567	0	377401	252
739.17578125	0.918053700006567	taste	choicePhaseStart	2	81	21	foodImage.97	FOODEEG_Images\0905.jpg	NY	Left	No	0.918053700006567	0	378459	253
740.083984375	0	taste	response	2	81	21	foodImage.97	FOODEEG_Images\0905.jpg	NY	Left	No	0.918053700006567	0	378924	234
741.126953125	1	taste	trialStart	2	82	22	foodImage.100	FOODEEG_Images\0908.jpg	YN	Right	No	1.2473045999941	0	379458	251
742.166015625	2	taste	foodImageDisplay	2	82	22	foodImage.100	FOODEEG_Images\0908.jpg	YN	Right	No	1.2473045999941	0	379990	252
744.228515625	1.2473045999941	taste	choicePhaseStart	2	82	22	foodImage.100	FOODEEG_Images\0908.jpg	YN	Right	No	1.2473045999941	0	381046	253
745.466796875	0	taste	response	2	82	22	foodImage.100	FOODEEG_Images\0908.jpg	YN	Right	No	1.2473045999941	0	381680	235
746.51171875	1	health	trialStart	2	83	23	foodImage.21	FOODEEG_Images\0234.jpg	NY	Right	Yes	0.990040599979693	0	382215	251
747.576171875	2	health	foodImageDisplay	2	83	23	foodImage.21	FOODEEG_Images\0234.jpg	NY	Right	Yes	0.990040599979693	0	382760	252
749.638671875	0.990040599979693	health	choicePhaseStart	2	83	23	foodImage.21	FOODEEG_Images\0234.jpg	NY	Right	Yes	0.990040599979693	0	383816	253
750.62109375	0	health	response	2	83	23	foodImage.21	FOODEEG_Images\0234.jpg	NY	Right	Yes	0.990040599979693	0	384319	235
751.6640625	1	decision	trialStart	2	84	24	foodImage.33	FOODEEG_Images\0329.jpg	NY	Right	Yes	0.763775300001726	0	384853	251
752.705078125	2	decision	foodImageDisplay	2	84	24	foodImage.33	FOODEEG_Images\0329.jpg	NY	Right	Yes	0.763775300001726	0	385386	252
754.76953125	0.763775300001726	decision	choicePhaseStart	2	84	24	foodImage.33	FOODEEG_Images\0329.jpg	NY	Right	Yes	0.763775300001726	0	386443	253
755.5234375	0	decision	response	2	84	24	foodImage.33	FOODEEG_Images\0329.jpg	NY	Right	Yes	0.763775300001726	0	386829	235
756.56640625	1	taste	trialStart	2	85	25	foodImage.85	FOODEEG_Images\0841.jpg	YN	Left	Yes	0.70927959997789	0	387363	251
757.640625	2	taste	foodImageDisplay	2	85	25	foodImage.85	FOODEEG_Images\0841.jpg	YN	Left	Yes	0.70927959997789	0	387913	252
759.703125	0.70927959997789	taste	choicePhaseStart	2	85	25	foodImage.85	FOODEEG_Images\0841.jpg	YN	Left	Yes	0.70927959997789	0	388969	253
760.40234375	0	taste	response	2	85	25	foodImage.85	FOODEEG_Images\0841.jpg	YN	Left	Yes	0.70927959997789	0	389327	234
761.447265625	1	taste	trialStart	2	86	26	foodImage.4	FOODEEG_Images\0065.jpg	YN	Left	Yes	0.990570699999807	0	389862	251
762.501953125	2	taste	foodImageDisplay	2	86	26	foodImage.4	FOODEEG_Images\0065.jpg	YN	Left	Yes	0.990570699999807	0	390402	252
764.56640625	0.990570699999807	taste	choicePhaseStart	2	86	26	foodImage.4	FOODEEG_Images\0065.jpg	YN	Left	Yes	0.990570699999807	0	391459	253
765.546875	0	taste	response	2	86	26	foodImage.4	FOODEEG_Images\0065.jpg	YN	Left	Yes	0.990570699999807	0	391961	234
766.58984375	1	taste	trialStart	2	87	27	foodImage.56	FOODEEG_Images\0586.jpg	NY	Right	Yes	1.18700549998903	0	392495	251
767.6328125	2	taste	foodImageDisplay	2	87	27	foodImage.56	FOODEEG_Images\0586.jpg	NY	Right	Yes	1.18700549998903	0	393029	252
769.697265625	1.18700549998903	taste	choicePhaseStart	2	87	27	foodImage.56	FOODEEG_Images\0586.jpg	NY	Right	Yes	1.18700549998903	0	394086	253
770.875	0	taste	response	2	87	27	foodImage.56	FOODEEG_Images\0586.jpg	NY	Right	Yes	1.18700549998903	0	394689	235
771.91796875	1	decision	trialStart	2	88	28	foodImage.39	FOODEEG_Images\0367.jpg	NY	Right	Yes	0.759508899995126	0	395223	251
772.966796875	2	decision	foodImageDisplay	2	88	28	foodImage.39	FOODEEG_Images\0367.jpg	NY	Right	Yes	0.759508899995126	0	395760	252
775.029296875	0.759508899995126	decision	choicePhaseStart	2	88	28	foodImage.39	FOODEEG_Images\0367.jpg	NY	Right	Yes	0.759508899995126	0	396816	253
775.779296875	0	decision	response	2	88	28	foodImage.39	FOODEEG_Images\0367.jpg	NY	Right	Yes	0.759508899995126	0	397200	235
776.8203125	1	health	trialStart	2	89	29	foodImage.42	FOODEEG_Images\0438.jpg	NY	Right	Yes	1.26583129999926	0	397733	251
777.9140625	2	health	foodImageDisplay	2	89	29	foodImage.42	FOODEEG_Images\0438.jpg	NY	Right	Yes	1.26583129999926	0	398293	252
779.978515625	1.26583129999926	health	choicePhaseStart	2	89	29	foodImage.42	FOODEEG_Images\0438.jpg	NY	Right	Yes	1.26583129999926	0	399350	253
781.234375	0	health	response	2	89	29	foodImage.42	FOODEEG_Images\0438.jpg	NY	Right	Yes	1.26583129999926	0	399993	235
782.287109375	1	taste	trialStart	2	90	30	foodImage.87	FOODEEG_Images\0873.jpg	NY	Right	Yes	1.46898610002245	0	400532	251
783.341796875	2	taste	foodImageDisplay	2	90	30	foodImage.87	FOODEEG_Images\0873.jpg	NY	Right	Yes	1.46898610002245	0	401072	252
785.412109375	1.46898610002245	taste	choicePhaseStart	2	90	30	foodImage.87	FOODEEG_Images\0873.jpg	NY	Right	Yes	1.46898610002245	0	402132	253
786.875	0	taste	response	2	90	30	foodImage.87	FOODEEG_Images\0873.jpg	NY	Right	Yes	1.46898610002245	0	402881	235
787.916015625	1	health	trialStart	2	91	31	foodImage.84	FOODEEG_Images\0830.jpg	NY	Right	Yes	0.768256700015627	0	403414	251
788.970703125	2	health	foodImageDisplay	2	91	31	foodImage.84	FOODEEG_Images\0830.jpg	NY	Right	Yes	0.768256700015627	0	403954	252
791.03515625	0.768256700015627	health	choicePhaseStart	2	91	31	foodImage.84	FOODEEG_Images\0830.jpg	NY	Right	Yes	0.768256700015627	0	405011	253
791.794921875	0	health	response	2	91	31	foodImage.84	FOODEEG_Images\0830.jpg	NY	Right	Yes	0.768256700015627	0	405400	235
792.837890625	1	taste	trialStart	2	92	32	foodImage.105	FOODEEG_Images\0913.jpg	YN	Left	Yes	0.961852899985388	0	405934	251
793.876953125	2	taste	foodImageDisplay	2	92	32	foodImage.105	FOODEEG_Images\0913.jpg	YN	Left	Yes	0.961852899985388	0	406466	252
795.9453125	0.961852899985388	taste	choicePhaseStart	2	92	32	foodImage.105	FOODEEG_Images\0913.jpg	YN	Left	Yes	0.961852899985388	0	407525	253
796.8984375	0	taste	response	2	92	32	foodImage.105	FOODEEG_Images\0913.jpg	YN	Left	Yes	0.961852899985388	0	408013	234
797.94140625	1	decision	trialStart	2	93	33	foodImage.23	FOODEEG_Images\0244.jpg	YN	Left	Yes	0.857101800007513	0	408547	251
798.982421875	2	decision	foodImageDisplay	2	93	33	foodImage.23	FOODEEG_Images\0244.jpg	YN	Left	Yes	0.857101800007513	0	409080	252
801.048828125	0.857101800007513	decision	choicePhaseStart	2	93	33	foodImage.23	FOODEEG_Images\0244.jpg	YN	Left	Yes	0.857101800007513	0	410138	253
801.8984375	0	decision	response	2	93	33	foodImage.23	FOODEEG_Images\0244.jpg	YN	Left	Yes	0.857101800007513	0	410573	234
802.94140625	1	decision	trialStart	2	94	34	foodImage.119	FOODEEG_Images\0927.jpg	NY	Left	No	0.818555500009097	0	411107	251
803.98046875	2	decision	foodImageDisplay	2	94	34	foodImage.119	FOODEEG_Images\0927.jpg	NY	Left	No	0.818555500009097	0	411639	252
806.046875	0.818555500009097	decision	choicePhaseStart	2	94	34	foodImage.119	FOODEEG_Images\0927.jpg	NY	Left	No	0.818555500009097	0	412697	253
806.857421875	0	decision	response	2	94	34	foodImage.119	FOODEEG_Images\0927.jpg	NY	Left	No	0.818555500009097	0	413112	234
807.904296875	1	health	trialStart	2	95	35	foodImage.95	FOODEEG_Images\0903.jpg	NY	Right	Yes	1.35065130001749	0	413648	251
808.94140625	2	health	foodImageDisplay	2	95	35	foodImage.95	FOODEEG_Images\0903.jpg	NY	Right	Yes	1.35065130001749	0	414179	252
811.00390625	1.35065130001749	health	choicePhaseStart	2	95	35	foodImage.95	FOODEEG_Images\0903.jpg	NY	Right	Yes	1.35065130001749	0	415235	253
812.345703125	0	health	response	2	95	35	foodImage.95	FOODEEG_Images\0903.jpg	NY	Right	Yes	1.35065130001749	0	415922	235
813.388671875	1	decision	trialStart	2	96	36	foodImage.76	FOODEEG_Images\0766.jpg	YN	Left	Yes	1.05725869999151	0	416456	251
814.43359375	2	decision	foodImageDisplay	2	96	36	foodImage.76	FOODEEG_Images\0766.jpg	YN	Left	Yes	1.05725869999151	0	416991	252
816.498046875	1.05725869999151	decision	choicePhaseStart	2	96	36	foodImage.76	FOODEEG_Images\0766.jpg	YN	Left	Yes	1.05725869999151	0	418048	253
817.544921875	0	decision	response	2	96	36	foodImage.76	FOODEEG_Images\0766.jpg	YN	Left	Yes	1.05725869999151	0	418584	234
818.587890625	1	taste	trialStart	2	97	37	foodImage.26	FOODEEG_Images\0262.jpg	YN	Right	No	1.3225743000221	0	419118	251
819.6328125	2	taste	foodImageDisplay	2	97	37	foodImage.26	FOODEEG_Images\0262.jpg	YN	Right	No	1.3225743000221	0	419653	252
821.6953125	1.3225743000221	taste	choicePhaseStart	2	97	37	foodImage.26	FOODEEG_Images\0262.jpg	YN	Right	No	1.3225743000221	0	420709	253
823.009765625	0	taste	response	2	97	37	foodImage.26	FOODEEG_Images\0262.jpg	YN	Right	No	1.3225743000221	0	421382	235
824.05078125	1	health	trialStart	2	98	38	foodImage.65	FOODEEG_Images\0658.jpg	NY	Left	No	1.87794929998927	0	421915	251
825.091796875	2	health	foodImageDisplay	2	98	38	foodImage.65	FOODEEG_Images\0658.jpg	NY	Left	No	1.87794929998927	0	422448	252
827.15625	1.87794929998927	health	choicePhaseStart	2	98	38	foodImage.65	FOODEEG_Images\0658.jpg	NY	Left	No	1.87794929998927	0	423505	253
829.025390625	0	health	response	2	98	38	foodImage.65	FOODEEG_Images\0658.jpg	NY	Left	No	1.87794929998927	0	424462	234
830.06640625	1	health	trialStart	2	99	39	foodImage.36	FOODEEG_Images\0352.jpg	YN	Left	Yes	2.11880150000798	0	424995	251
831.123046875	2	health	foodImageDisplay	2	99	39	foodImage.36	FOODEEG_Images\0352.jpg	YN	Left	Yes	2.11880150000798	0	425536	252
833.185546875	2.11880150000798	health	choicePhaseStart	2	99	39	foodImage.36	FOODEEG_Images\0352.jpg	YN	Left	Yes	2.11880150000798	0	426592	253
835.296875	0	health	response	2	99	39	foodImage.36	FOODEEG_Images\0352.jpg	YN	Left	Yes	2.11880150000798	0	427673	234
836.33984375	1	health	trialStart	2	100	40	foodImage.116	FOODEEG_Images\0924.jpg	YN	Right	No	1.42567460000282	0	428207	251
837.37890625	2	health	foodImageDisplay	2	100	40	foodImage.116	FOODEEG_Images\0924.jpg	YN	Right	No	1.42567460000282	0	428739	252
839.44140625	1.42567460000282	health	choicePhaseStart	2	100	40	foodImage.116	FOODEEG_Images\0924.jpg	YN	Right	No	1.42567460000282	0	429795	253
840.85546875	0	health	response	2	100	40	foodImage.116	FOODEEG_Images\0924.jpg	YN	Right	No	1.42567460000282	0	430519	235
841.8984375	1	taste	trialStart	2	101	41	foodImage.54	FOODEEG_Images\0560.jpg	NY	Right	Yes	0.819629200006602	0	431053	251
842.958984375	2	taste	foodImageDisplay	2	101	41	foodImage.54	FOODEEG_Images\0560.jpg	NY	Right	Yes	0.819629200006602	0	431596	252
845.021484375	0.819629200006602	taste	choicePhaseStart	2	101	41	foodImage.54	FOODEEG_Images\0560.jpg	NY	Right	Yes	0.819629200006602	0	432652	253
845.83203125	0	taste	response	2	101	41	foodImage.54	FOODEEG_Images\0560.jpg	NY	Right	Yes	0.819629200006602	0	433067	235
846.875	1	decision	trialStart	2	102	42	foodImage.30	FOODEEG_Images\0282.jpg	YN	Left	Yes	0.843425600003684	0	433601	251
847.91796875	2	decision	foodImageDisplay	2	102	42	foodImage.30	FOODEEG_Images\0282.jpg	YN	Left	Yes	0.843425600003684	0	434135	252
849.982421875	0.843425600003684	decision	choicePhaseStart	2	102	42	foodImage.30	FOODEEG_Images\0282.jpg	YN	Left	Yes	0.843425600003684	0	435192	253
850.81640625	0	decision	response	2	102	42	foodImage.30	FOODEEG_Images\0282.jpg	YN	Left	Yes	0.843425600003684	0	435619	234
851.859375	1	health	trialStart	2	103	43	foodImage.3	FOODEEG_Images\0046.jpg	NY	Left	No	1.71643120000954	0	436153	251
852.90234375	2	health	foodImageDisplay	2	103	43	foodImage.3	FOODEEG_Images\0046.jpg	NY	Left	No	1.71643120000954	0	436687	252
854.96484375	1.71643120000954	health	choicePhaseStart	2	103	43	foodImage.3	FOODEEG_Images\0046.jpg	NY	Left	No	1.71643120000954	0	437743	253
856.671875	0	health	response	2	103	43	foodImage.3	FOODEEG_Images\0046.jpg	NY	Left	No	1.71643120000954	0	438617	234
857.712890625	1	health	trialStart	2	104	44	foodImage.82	FOODEEG_Images\0805.jpg	YN	Left	Yes	0.814984099997673	0	439150	251
858.76953125	2	health	foodImageDisplay	2	104	44	foodImage.82	FOODEEG_Images\0805.jpg	YN	Left	Yes	0.814984099997673	0	439691	252
860.83203125	0.814984099997673	health	choicePhaseStart	2	104	44	foodImage.82	FOODEEG_Images\0805.jpg	YN	Left	Yes	0.814984099997673	0	440747	253
861.638671875	0	health	response	2	104	44	foodImage.82	FOODEEG_Images\0805.jpg	YN	Left	Yes	0.814984099997673	0	441160	234
862.681640625	1	taste	trialStart	2	105	45	foodImage.104	FOODEEG_Images\0912.jpg	NY	Right	Yes	0.832159799989313	0	441694	251
863.71875	2	taste	foodImageDisplay	2	105	45	foodImage.104	FOODEEG_Images\0912.jpg	NY	Right	Yes	0.832159799989313	0	442225	252
865.783203125	0.832159799989313	taste	choicePhaseStart	2	105	45	foodImage.104	FOODEEG_Images\0912.jpg	NY	Right	Yes	0.832159799989313	0	443282	253
866.607421875	0	taste	response	2	105	45	foodImage.104	FOODEEG_Images\0912.jpg	NY	Right	Yes	0.832159799989313	0	443704	235
867.6484375	1	decision	trialStart	2	106	46	foodImage.60	FOODEEG_Images\0614.jpg	NY	Right	Yes	1.34761939998134	0	444237	251
868.70703125	2	decision	foodImageDisplay	2	106	46	foodImage.60	FOODEEG_Images\0614.jpg	NY	Right	Yes	1.34761939998134	0	444779	252
870.771484375	1.34761939998134	decision	choicePhaseStart	2	106	46	foodImage.60	FOODEEG_Images\0614.jpg	NY	Right	Yes	1.34761939998134	0	445836	253
872.111328125	0	decision	response	2	106	46	foodImage.60	FOODEEG_Images\0614.jpg	NY	Right	Yes	1.34761939998134	0	446522	235
873.154296875	1	decision	trialStart	2	107	47	foodImage.61	FOODEEG_Images\0640.jpg	NY	Right	Yes	0.729963699996006	0	447056	251
874.197265625	2	decision	foodImageDisplay	2	107	47	foodImage.61	FOODEEG_Images\0640.jpg	NY	Right	Yes	0.729963699996006	0	447590	252
876.26171875	0.729963699996006	decision	choicePhaseStart	2	107	47	foodImage.61	FOODEEG_Images\0640.jpg	NY	Right	Yes	0.729963699996006	0	448647	253
876.982421875	0	decision	response	2	107	47	foodImage.61	FOODEEG_Images\0640.jpg	NY	Right	Yes	0.729963699996006	0	449016	235
878.025390625	1	taste	trialStart	2	108	48	foodImage.34	FOODEEG_Images\0339.jpg	YN	Left	Yes	0.768155099998694	0	449550	251
879.083984375	2	taste	foodImageDisplay	2	108	48	foodImage.34	FOODEEG_Images\0339.jpg	YN	Left	Yes	0.768155099998694	0	450092	252
881.1484375	0.768155099998694	taste	choicePhaseStart	2	108	48	foodImage.34	FOODEEG_Images\0339.jpg	YN	Left	Yes	0.768155099998694	0	451149	253
881.91015625	0	taste	response	2	108	48	foodImage.34	FOODEEG_Images\0339.jpg	YN	Left	Yes	0.768155099998694	0	451539	234
882.958984375	1	health	trialStart	2	109	49	foodImage.6	FOODEEG_Images\0113.jpg	YN	Right	No	1.0048844999983	0	452076	251
884.00390625	2	health	foodImageDisplay	2	109	49	foodImage.6	FOODEEG_Images\0113.jpg	YN	Right	No	1.0048844999983	0	452611	252
886.06640625	1.0048844999983	health	choicePhaseStart	2	109	49	foodImage.6	FOODEEG_Images\0113.jpg	YN	Right	No	1.0048844999983	0	453667	253
887.0625	0	health	response	2	109	49	foodImage.6	FOODEEG_Images\0113.jpg	YN	Right	No	1.0048844999983	0	454177	235
888.10546875	1	decision	trialStart	2	110	50	foodImage.29	FOODEEG_Images\0278.jpg	YN	Right	No	0.882933799992315	0	454711	251
889.1484375	2	decision	foodImageDisplay	2	110	50	foodImage.29	FOODEEG_Images\0278.jpg	YN	Right	No	0.882933799992315	0	455245	252
891.212890625	0.882933799992315	decision	choicePhaseStart	2	110	50	foodImage.29	FOODEEG_Images\0278.jpg	YN	Right	No	0.882933799992315	0	456302	253
892.0859375	0	decision	response	2	110	50	foodImage.29	FOODEEG_Images\0278.jpg	YN	Right	No	0.882933799992315	0	456749	235
893.12890625	1	health	trialStart	2	111	51	foodImage.105	FOODEEG_Images\0913.jpg	YN	Left	Yes	1.27833900001133	0	457283	251
894.16796875	2	health	foodImageDisplay	2	111	51	foodImage.105	FOODEEG_Images\0913.jpg	YN	Left	Yes	1.27833900001133	0	457815	252
896.23046875	1.27833900001133	health	choicePhaseStart	2	111	51	foodImage.105	FOODEEG_Images\0913.jpg	YN	Left	Yes	1.27833900001133	0	458871	253
897.501953125	0	health	response	2	111	51	foodImage.105	FOODEEG_Images\0913.jpg	YN	Left	Yes	1.27833900001133	0	459522	234
898.544921875	1	decision	trialStart	2	112	52	foodImage.109	FOODEEG_Images\0917.jpg	NY	Left	No	0.857015499990666	0	460056	251
899.583984375	2	decision	foodImageDisplay	2	112	52	foodImage.109	FOODEEG_Images\0917.jpg	NY	Left	No	0.857015499990666	0	460588	252
901.646484375	0.857015499990666	decision	choicePhaseStart	2	112	52	foodImage.109	FOODEEG_Images\0917.jpg	NY	Left	No	0.857015499990666	0	461644	253
902.494140625	0	decision	response	2	112	52	foodImage.109	FOODEEG_Images\0917.jpg	NY	Left	No	0.857015499990666	0	462078	234
903.537109375	1	taste	trialStart	2	113	53	foodImage.96	FOODEEG_Images\0904.jpg	NY	Left	No	1.16905679999036	0	462612	251
904.57421875	2	taste	foodImageDisplay	2	113	53	foodImage.96	FOODEEG_Images\0904.jpg	NY	Left	No	1.16905679999036	0	463143	252
906.63671875	1.16905679999036	taste	choicePhaseStart	2	113	53	foodImage.96	FOODEEG_Images\0904.jpg	NY	Left	No	1.16905679999036	0	464199	253
907.796875	0	taste	response	2	113	53	foodImage.96	FOODEEG_Images\0904.jpg	NY	Left	No	1.16905679999036	0	464793	234
908.83984375	1	taste	trialStart	2	114	54	foodImage.74	FOODEEG_Images\0752.jpg	NY	Right	Yes	0.95760120000341	0	465327	251
909.90625	2	taste	foodImageDisplay	2	114	54	foodImage.74	FOODEEG_Images\0752.jpg	NY	Right	Yes	0.95760120000341	0	465873	252
911.96875	0.95760120000341	taste	choicePhaseStart	2	114	54	foodImage.74	FOODEEG_Images\0752.jpg	NY	Right	Yes	0.95760120000341	0	466929	253
912.91796875	0	taste	response	2	114	54	foodImage.74	FOODEEG_Images\0752.jpg	NY	Right	Yes	0.95760120000341	0	467415	235
913.96875	1	health	trialStart	2	115	55	foodImage.40	FOODEEG_Images\0373.jpg	YN	Right	No	1.10343650000868	0	467953	251
915.01171875	2	health	foodImageDisplay	2	115	55	foodImage.40	FOODEEG_Images\0373.jpg	YN	Right	No	1.10343650000868	0	468487	252
917.078125	1.10343650000868	health	choicePhaseStart	2	115	55	foodImage.40	FOODEEG_Images\0373.jpg	YN	Right	No	1.10343650000868	0	469545	253
918.173828125	0	health	response	2	115	55	foodImage.40	FOODEEG_Images\0373.jpg	YN	Right	No	1.10343650000868	0	470106	235
919.22265625	1	health	trialStart	2	116	56	foodImage.20	FOODEEG_Images\0226.jpg	NY	Left	No	1.9257903000107	0	470643	251
920.263671875	2	health	foodImageDisplay	2	116	56	foodImage.20	FOODEEG_Images\0226.jpg	NY	Left	No	1.9257903000107	0	471176	252
922.328125	1.9257903000107	health	choicePhaseStart	2	116	56	foodImage.20	FOODEEG_Images\0226.jpg	NY	Left	No	1.9257903000107	0	472233	253
924.244140625	0	health	response	2	116	56	foodImage.20	FOODEEG_Images\0226.jpg	NY	Left	No	1.9257903000107	0	473214	234
925.287109375	1	health	trialStart	2	117	57	foodImage.41	FOODEEG_Images\0409.jpg	YN	Left	Yes	0.720460400014417	0	473748	251
926.333984375	2	health	foodImageDisplay	2	117	57	foodImage.41	FOODEEG_Images\0409.jpg	YN	Left	Yes	0.720460400014417	0	474284	252
928.396484375	0.720460400014417	health	choicePhaseStart	2	117	57	foodImage.41	FOODEEG_Images\0409.jpg	YN	Left	Yes	0.720460400014417	0	475340	253
929.109375	0	health	response	2	117	57	foodImage.41	FOODEEG_Images\0409.jpg	YN	Left	Yes	0.720460400014417	0	475705	234
930.15625	1	taste	trialStart	2	118	58	foodImage.50	FOODEEG_Images\0529.jpg	YN	Left	Yes	1.74460989999352	0	476241	251
931.22265625	2	taste	foodImageDisplay	2	118	58	foodImage.50	FOODEEG_Images\0529.jpg	YN	Left	Yes	1.74460989999352	0	476787	252
933.28515625	1.74460989999352	taste	choicePhaseStart	2	118	58	foodImage.50	FOODEEG_Images\0529.jpg	YN	Left	Yes	1.74460989999352	0	477843	253
935.01953125	0	taste	response	2	118	58	foodImage.50	FOODEEG_Images\0529.jpg	YN	Left	Yes	1.74460989999352	0	478731	234
936.0625	1	taste	trialStart	2	119	59	foodImage.66	FOODEEG_Images\0676.jpg	YN	Left	Yes	0.961672799981898	0	479265	251
937.1015625	2	taste	foodImageDisplay	2	119	59	foodImage.66	FOODEEG_Images\0676.jpg	YN	Left	Yes	0.961672799981898	0	479797	252
939.16796875	0.961672799981898	taste	choicePhaseStart	2	119	59	foodImage.66	FOODEEG_Images\0676.jpg	YN	Left	Yes	0.961672799981898	0	480855	253
940.125	0	taste	response	2	119	59	foodImage.66	FOODEEG_Images\0676.jpg	YN	Left	Yes	0.961672799981898	0	481345	234
941.171875	1	decision	trialStart	2	120	60	foodImage.42	FOODEEG_Images\0438.jpg	YN	Left	Yes	1.29374279998592	0	481881	251
942.255859375	2	decision	foodImageDisplay	2	120	60	foodImage.42	FOODEEG_Images\0438.jpg	YN	Left	Yes	1.29374279998592	0	482436	252
944.318359375	1.29374279998592	decision	choicePhaseStart	2	120	60	foodImage.42	FOODEEG_Images\0438.jpg	YN	Left	Yes	1.29374279998592	0	483492	253
945.603515625	0	decision	response	2	120	60	foodImage.42	FOODEEG_Images\0438.jpg	YN	Left	Yes	1.29374279998592	0	484150	234
947.64453125	29.302734375	n/a	blockEnd	n/a	n/a	n/a	n/a	n/a	n/a	n/a	n/a	n/a	n/a	485195	254
976.947265625	2	n/a	blockStart	3	n/a	n/a	n/a	n/a	n/a	n/a	n/a	n/a	n/a	500198	250
978.98046875	1	taste	trialStart	3	121	1	foodImage.109	FOODEEG_Images\0917.jpg	NY	Left	No	1.54541169997538	0	501239	251
980.01953125	2	taste	foodImageDisplay	3	121	1	foodImage.109	FOODEEG_Images\0917.jpg	NY	Left	No	1.54541169997538	0	501771	252
982.08203125	1.54541169997538	taste	choicePhaseStart	3	121	1	foodImage.109	FOODEEG_Images\0917.jpg	NY	Left	No	1.54541169997538	0	502827	253
983.619140625	0	taste	response	3	121	1	foodImage.109	FOODEEG_Images\0917.jpg	NY	Left	No	1.54541169997538	0	503614	234
984.66015625	1	health	trialStart	3	122	2	foodImage.89	FOODEEG_Images\0881.jpg	YN	Left	Yes	0.789458900020691	0	504147	251
985.716796875	2	health	foodImageDisplay	3	122	2	foodImage.89	FOODEEG_Images\0881.jpg	YN	Left	Yes	0.789458900020691	0	504688	252
987.783203125	0.789458900020691	health	choicePhaseStart	3	122	2	foodImage.89	FOODEEG_Images\0881.jpg	YN	Left	Yes	0.789458900020691	0	505746	253
988.5625	0	health	response	3	122	2	foodImage.89	FOODEEG_Images\0881.jpg	YN	Left	Yes	0.789458900020691	0	506145	234
989.611328125	1	taste	trialStart	3	123	3	foodImage.6	FOODEEG_Images\0113.jpg	YN	Left	Yes	1.08938190000481	0	506682	251
990.650390625	2	taste	foodImageDisplay	3	123	3	foodImage.6	FOODEEG_Images\0113.jpg	YN	Left	Yes	1.08938190000481	0	507214	252
992.71484375	1.08938190000481	taste	choicePhaseStart	3	123	3	foodImage.6	FOODEEG_Images\0113.jpg	YN	Left	Yes	1.08938190000481	0	508271	253
993.794921875	0	taste	response	3	123	3	foodImage.6	FOODEEG_Images\0113.jpg	YN	Left	Yes	1.08938190000481	0	508824	234
994.8359375	1	taste	trialStart	3	124	4	foodImage.76	FOODEEG_Images\0766.jpg	NY	Right	Yes	0.836303299991414	0	509357	251
995.87890625	2	taste	foodImageDisplay	3	124	4	foodImage.76	FOODEEG_Images\0766.jpg	NY	Right	Yes	0.836303299991414	0	509891	252
997.943359375	0.836303299991414	taste	choicePhaseStart	3	124	4	foodImage.76	FOODEEG_Images\0766.jpg	NY	Right	Yes	0.836303299991414	0	510948	253
998.76953125	0	taste	response	3	124	4	foodImage.76	FOODEEG_Images\0766.jpg	NY	Right	Yes	0.836303299991414	0	511371	235
999.814453125	1	decision	trialStart	3	125	5	foodImage.55	FOODEEG_Images\0567.jpg	NY	Left	No	1.46070990001317	0	511906	251
1000.88671875	2	decision	foodImageDisplay	3	125	5	foodImage.55	FOODEEG_Images\0567.jpg	NY	Left	No	1.46070990001317	0	512455	252
1002.951171875	1.46070990001317	decision	choicePhaseStart	3	125	5	foodImage.55	FOODEEG_Images\0567.jpg	NY	Left	No	1.46070990001317	0	513512	253
1004.40234375	0	decision	response	3	125	5	foodImage.55	FOODEEG_Images\0567.jpg	NY	Left	No	1.46070990001317	0	514255	234
1005.443359375	1	decision	trialStart	3	126	6	foodImage.32	FOODEEG_Images\0319.jpg	YN	Left	Yes	0.769434599991655	0	514788	251
1006.48828125	2	decision	foodImageDisplay	3	126	6	foodImage.32	FOODEEG_Images\0319.jpg	YN	Left	Yes	0.769434599991655	0	515323	252
1008.552734375	0.769434599991655	decision	choicePhaseStart	3	126	6	foodImage.32	FOODEEG_Images\0319.jpg	YN	Left	Yes	0.769434599991655	0	516380	253
1009.314453125	0	decision	response	3	126	6	foodImage.32	FOODEEG_Images\0319.jpg	YN	Left	Yes	0.769434599991655	0	516770	234
1010.357421875	1	taste	trialStart	3	127	7	foodImage.102	FOODEEG_Images\0910.jpg	YN	Right	No	1.75823700000183	0	517304	251
1011.396484375	2	taste	foodImageDisplay	3	127	7	foodImage.102	FOODEEG_Images\0910.jpg	YN	Right	No	1.75823700000183	0	517836	252
1013.4609375	1.75823700000183	taste	choicePhaseStart	3	127	7	foodImage.102	FOODEEG_Images\0910.jpg	YN	Right	No	1.75823700000183	0	518893	253
1015.208984375	0	taste	response	3	127	7	foodImage.102	FOODEEG_Images\0910.jpg	YN	Right	No	1.75823700000183	0	519788	235
1016.267578125	1	taste	trialStart	3	128	8	foodImage.69	FOODEEG_Images\0693.jpg	YN	Left	Yes	1.05915680000908	0	520330	251
1017.3125	2	taste	foodImageDisplay	3	128	8	foodImage.69	FOODEEG_Images\0693.jpg	YN	Left	Yes	1.05915680000908	0	520865	252
1019.380859375	1.05915680000908	taste	choicePhaseStart	3	128	8	foodImage.69	FOODEEG_Images\0693.jpg	YN	Left	Yes	1.05915680000908	0	521924	253
1020.43359375	0	taste	response	3	128	8	foodImage.69	FOODEEG_Images\0693.jpg	YN	Left	Yes	1.05915680000908	0	522463	234
1021.474609375	1	taste	trialStart	3	129	9	foodImage.95	FOODEEG_Images\0903.jpg	YN	Right	No	1.35298100000364	0	522996	251
1022.51171875	2	taste	foodImageDisplay	3	129	9	foodImage.95	FOODEEG_Images\0903.jpg	YN	Right	No	1.35298100000364	0	523527	252
1024.57421875	1.35298100000364	taste	choicePhaseStart	3	129	9	foodImage.95	FOODEEG_Images\0903.jpg	YN	Right	No	1.35298100000364	0	524583	253
1025.919921875	0	taste	response	3	129	9	foodImage.95	FOODEEG_Images\0903.jpg	YN	Right	No	1.35298100000364	0	525272	235
1026.96484375	1	taste	trialStart	3	130	10	foodImage.37	FOODEEG_Images\0359.jpg	YN	Left	Yes	0.689735599997221	0	525807	251
1028.005859375	2	taste	foodImageDisplay	3	130	10	foodImage.37	FOODEEG_Images\0359.jpg	YN	Left	Yes	0.689735599997221	0	526340	252
1030.0703125	0.689735599997221	taste	choicePhaseStart	3	130	10	foodImage.37	FOODEEG_Images\0359.jpg	YN	Left	Yes	0.689735599997221	0	527397	253
1030.751953125	0	taste	response	3	130	10	foodImage.37	FOODEEG_Images\0359.jpg	YN	Left	Yes	0.689735599997221	0	527746	234
1031.796875	1	decision	trialStart	3	131	11	foodImage.100	FOODEEG_Images\0908.jpg	NY	Left	No	0.959602799994173	0	528281	251
1032.833984375	2	decision	foodImageDisplay	3	131	11	foodImage.100	FOODEEG_Images\0908.jpg	NY	Left	No	0.959602799994173	0	528812	252
1034.8984375	0.959602799994173	decision	choicePhaseStart	3	131	11	foodImage.100	FOODEEG_Images\0908.jpg	NY	Left	No	0.959602799994173	0	529869	253
1035.84765625	0	decision	response	3	131	11	foodImage.100	FOODEEG_Images\0908.jpg	NY	Left	No	0.959602799994173	0	530355	234
1036.892578125	1	health	trialStart	3	132	12	foodImage.11	FOODEEG_Images\0180.jpg	YN	Right	No	1.11781160000828	0	530890	251
1037.93359375	2	health	foodImageDisplay	3	132	12	foodImage.11	FOODEEG_Images\0180.jpg	YN	Right	No	1.11781160000828	0	531423	252
1039.99609375	1.11781160000828	health	choicePhaseStart	3	132	12	foodImage.11	FOODEEG_Images\0180.jpg	YN	Right	No	1.11781160000828	0	532479	253
1041.103515625	0	health	response	3	132	12	foodImage.11	FOODEEG_Images\0180.jpg	YN	Right	No	1.11781160000828	0	533046	235
1042.154296875	1	taste	trialStart	3	133	13	foodImage.72	FOODEEG_Images\0714.jpg	YN	Right	No	0.981503400020301	0	533584	251
1043.1953125	2	taste	foodImageDisplay	3	133	13	foodImage.72	FOODEEG_Images\0714.jpg	YN	Right	No	0.981503400020301	0	534117	252
1045.259765625	0.981503400020301	taste	choicePhaseStart	3	133	13	foodImage.72	FOODEEG_Images\0714.jpg	YN	Right	No	0.981503400020301	0	535174	253
1046.232421875	0	taste	response	3	133	13	foodImage.72	FOODEEG_Images\0714.jpg	YN	Right	No	0.981503400020301	0	535672	235
1047.279296875	1	taste	trialStart	3	134	14	foodImage.58	FOODEEG_Images\0605.jpg	YN	Left	Yes	0.619680600007996	0	536208	251
1048.33984375	2	taste	foodImageDisplay	3	134	14	foodImage.58	FOODEEG_Images\0605.jpg	YN	Left	Yes	0.619680600007996	0	536751	252
1050.40625	0.619680600007996	taste	choicePhaseStart	3	134	14	foodImage.58	FOODEEG_Images\0605.jpg	YN	Left	Yes	0.619680600007996	0	537809	253
1051.015625	0	taste	response	3	134	14	foodImage.58	FOODEEG_Images\0605.jpg	YN	Left	Yes	0.619680600007996	0	538121	234
1052.08203125	1	decision	trialStart	3	135	15	foodImage.86	FOODEEG_Images\0844.jpg	NY	Right	Yes	0.755929500010097	0	538667	251
1053.142578125	2	decision	foodImageDisplay	3	135	15	foodImage.86	FOODEEG_Images\0844.jpg	NY	Right	Yes	0.755929500010097	0	539210	252
1055.205078125	0.755929500010097	decision	choicePhaseStart	3	135	15	foodImage.86	FOODEEG_Images\0844.jpg	NY	Right	Yes	0.755929500010097	0	540266	253
1055.951171875	0	decision	response	3	135	15	foodImage.86	FOODEEG_Images\0844.jpg	NY	Right	Yes	0.755929500010097	0	540648	235
1056.994140625	1	health	trialStart	3	136	16	foodImage.14	FOODEEG_Images\0188.jpg	NY	Left	No	1.13241230000858	0	541182	251
1058.0546875	2	health	foodImageDisplay	3	136	16	foodImage.14	FOODEEG_Images\0188.jpg	NY	Left	No	1.13241230000858	0	541725	252
1060.1171875	1.13241230000858	health	choicePhaseStart	3	136	16	foodImage.14	FOODEEG_Images\0188.jpg	NY	Left	No	1.13241230000858	0	542781	253
1061.240234375	0	health	response	3	136	16	foodImage.14	FOODEEG_Images\0188.jpg	NY	Left	No	1.13241230000858	0	543356	234
1062.283203125	1	decision	trialStart	3	137	17	foodImage.46	FOODEEG_Images\0479.jpg	NY	Right	Yes	0.77288239999325	0	543890	251
1063.33984375	2	decision	foodImageDisplay	3	137	17	foodImage.46	FOODEEG_Images\0479.jpg	NY	Right	Yes	0.77288239999325	0	544431	252
1065.40234375	0.77288239999325	decision	choicePhaseStart	3	137	17	foodImage.46	FOODEEG_Images\0479.jpg	NY	Right	Yes	0.77288239999325	0	545487	253
1066.16796875	0	decision	response	3	137	17	foodImage.46	FOODEEG_Images\0479.jpg	NY	Right	Yes	0.77288239999325	0	545879	235
1067.21484375	1	taste	trialStart	3	138	18	foodImage.5	FOODEEG_Images\0107.jpg	YN	Left	Yes	0.706532900017919	0	546415	251
1068.271484375	2	taste	foodImageDisplay	3	138	18	foodImage.5	FOODEEG_Images\0107.jpg	YN	Left	Yes	0.706532900017919	0	546956	252
1070.333984375	0.706532900017919	taste	choicePhaseStart	3	138	18	foodImage.5	FOODEEG_Images\0107.jpg	YN	Left	Yes	0.706532900017919	0	548012	253
1071.03125	0	taste	response	3	138	18	foodImage.5	FOODEEG_Images\0107.jpg	YN	Left	Yes	0.706532900017919	0	548369	234
1072.07421875	1	health	trialStart	3	139	19	foodImage.73	FOODEEG_Images\0717.jpg	NY	Right	Yes	1.22814449999714	0	548903	251
1073.1328125	2	health	foodImageDisplay	3	139	19	foodImage.73	FOODEEG_Images\0717.jpg	NY	Right	Yes	1.22814449999714	0	549445	252
1075.197265625	1.22814449999714	health	choicePhaseStart	3	139	19	foodImage.73	FOODEEG_Images\0717.jpg	NY	Right	Yes	1.22814449999714	0	550502	253
1076.4140625	0	health	response	3	139	19	foodImage.73	FOODEEG_Images\0717.jpg	NY	Right	Yes	1.22814449999714	0	551125	235
1077.458984375	1	health	trialStart	3	140	20	foodImage.46	FOODEEG_Images\0479.jpg	NY	Right	Yes	0.692554999986896	0	551660	251
1078.515625	2	health	foodImageDisplay	3	140	20	foodImage.46	FOODEEG_Images\0479.jpg	NY	Right	Yes	0.692554999986896	0	552201	252
1080.578125	0.692554999986896	health	choicePhaseStart	3	140	20	foodImage.46	FOODEEG_Images\0479.jpg	NY	Right	Yes	0.692554999986896	0	553257	253
1081.263671875	0	health	response	3	140	20	foodImage.46	FOODEEG_Images\0479.jpg	NY	Right	Yes	0.692554999986896	0	553608	235
1082.306640625	1	decision	trialStart	3	141	21	foodImage.95	FOODEEG_Images\0903.jpg	YN	Right	No	0.877896299993154	0	554142	251
1083.34375	2	decision	foodImageDisplay	3	141	21	foodImage.95	FOODEEG_Images\0903.jpg	YN	Right	No	0.877896299993154	0	554673	252
1085.41015625	0.877896299993154	decision	choicePhaseStart	3	141	21	foodImage.95	FOODEEG_Images\0903.jpg	YN	Right	No	0.877896299993154	0	555731	253
1086.279296875	0	decision	response	3	141	21	foodImage.95	FOODEEG_Images\0903.jpg	YN	Right	No	0.877896299993154	0	556176	235
1087.322265625	1	health	trialStart	3	142	22	foodImage.43	FOODEEG_Images\0445.jpg	YN	Left	Yes	0.690570700011449	0	556710	251
1088.380859375	2	health	foodImageDisplay	3	142	22	foodImage.43	FOODEEG_Images\0445.jpg	YN	Left	Yes	0.690570700011449	0	557252	252
1090.4453125	0.690570700011449	health	choicePhaseStart	3	142	22	foodImage.43	FOODEEG_Images\0445.jpg	YN	Left	Yes	0.690570700011449	0	558309	253
1091.126953125	0	health	response	3	142	22	foodImage.43	FOODEEG_Images\0445.jpg	YN	Left	Yes	0.690570700011449	0	558658	234
1092.169921875	1	taste	trialStart	3	143	23	foodImage.101	FOODEEG_Images\0909.jpg	NY	Left	No	0.805635900003836	0	559192	251
1093.20703125	2	taste	foodImageDisplay	3	143	23	foodImage.101	FOODEEG_Images\0909.jpg	NY	Left	No	0.805635900003836	0	559723	252
1095.271484375	0.805635900003836	taste	choicePhaseStart	3	143	23	foodImage.101	FOODEEG_Images\0909.jpg	NY	Left	No	0.805635900003836	0	560780	253
1096.0703125	0	taste	response	3	143	23	foodImage.101	FOODEEG_Images\0909.jpg	NY	Left	No	0.805635900003836	0	561189	234
1097.11328125	1	decision	trialStart	3	144	24	foodImage.74	FOODEEG_Images\0752.jpg	YN	Left	Yes	0.953184300014982	0	561723	251
1098.158203125	2	decision	foodImageDisplay	3	144	24	foodImage.74	FOODEEG_Images\0752.jpg	YN	Left	Yes	0.953184300014982	0	562258	252
1100.22265625	0.953184300014982	decision	choicePhaseStart	3	144	24	foodImage.74	FOODEEG_Images\0752.jpg	YN	Left	Yes	0.953184300014982	0	563315	253
1101.166015625	0	decision	response	3	144	24	foodImage.74	FOODEEG_Images\0752.jpg	YN	Left	Yes	0.953184300014982	0	563798	234
1102.205078125	1	taste	trialStart	3	145	25	foodImage.106	FOODEEG_Images\0914.jpg	YN	Left	Yes	0.716600699990522	0	564330	251
1103.244140625	2	taste	foodImageDisplay	3	145	25	foodImage.106	FOODEEG_Images\0914.jpg	YN	Left	Yes	0.716600699990522	0	564862	252
1105.306640625	0.716600699990522	taste	choicePhaseStart	3	145	25	foodImage.106	FOODEEG_Images\0914.jpg	YN	Left	Yes	0.716600699990522	0	565918	253
1106.013671875	0	taste	response	3	145	25	foodImage.106	FOODEEG_Images\0914.jpg	YN	Left	Yes	0.716600699990522	0	566280	234
1107.056640625	1	taste	trialStart	3	146	26	foodImage.46	FOODEEG_Images\0479.jpg	NY	Right	Yes	0.611413900012849	0	566814	251
1108.115234375	2	taste	foodImageDisplay	3	146	26	foodImage.46	FOODEEG_Images\0479.jpg	NY	Right	Yes	0.611413900012849	0	567356	252
1110.1796875	0.611413900012849	taste	choicePhaseStart	3	146	26	foodImage.46	FOODEEG_Images\0479.jpg	NY	Right	Yes	0.611413900012849	0	568413	253
1110.78125	0	taste	response	3	146	26	foodImage.46	FOODEEG_Images\0479.jpg	NY	Right	Yes	0.611413900012849	0	568721	235
1111.82421875	1	decision	trialStart	3	147	27	foodImage.20	FOODEEG_Images\0226.jpg	YN	Left	Yes	0.645079200010514	0	569255	251
1112.865234375	2	decision	foodImageDisplay	3	147	27	foodImage.20	FOODEEG_Images\0226.jpg	YN	Left	Yes	0.645079200010514	0	569788	252
1114.935546875	0.645079200010514	decision	choicePhaseStart	3	147	27	foodImage.20	FOODEEG_Images\0226.jpg	YN	Left	Yes	0.645079200010514	0	570848	253
1115.57421875	0	decision	response	3	147	27	foodImage.20	FOODEEG_Images\0226.jpg	YN	Left	Yes	0.645079200010514	0	571175	234
1116.615234375	1	taste	trialStart	3	148	28	foodImage.107	FOODEEG_Images\0915.jpg	NY	Right	Yes	0.650695000018459	0	571708	251
1117.654296875	2	taste	foodImageDisplay	3	148	28	foodImage.107	FOODEEG_Images\0915.jpg	NY	Right	Yes	0.650695000018459	0	572240	252
1119.716796875	0.650695000018459	taste	choicePhaseStart	3	148	28	foodImage.107	FOODEEG_Images\0915.jpg	NY	Right	Yes	0.650695000018459	0	573296	253
1120.357421875	0	taste	response	3	148	28	foodImage.107	FOODEEG_Images\0915.jpg	NY	Right	Yes	0.650695000018459	0	573624	235
1121.408203125	1	taste	trialStart	3	149	29	foodImage.29	FOODEEG_Images\0278.jpg	NY	Left	No	0.883244199998444	0	574162	251
1122.46875	2	taste	foodImageDisplay	3	149	29	foodImage.29	FOODEEG_Images\0278.jpg	NY	Left	No	0.883244199998444	0	574705	252
1124.53125	0.883244199998444	taste	choicePhaseStart	3	149	29	foodImage.29	FOODEEG_Images\0278.jpg	NY	Left	No	0.883244199998444	0	575761	253
1125.404296875	0	taste	response	3	149	29	foodImage.29	FOODEEG_Images\0278.jpg	NY	Left	No	0.883244199998444	0	576208	234
1126.470703125	1	health	trialStart	3	150	30	foodImage.104	FOODEEG_Images\0912.jpg	NY	Left	No	1.67424150000443	0	576754	251
1127.509765625	2	health	foodImageDisplay	3	150	30	foodImage.104	FOODEEG_Images\0912.jpg	NY	Left	No	1.67424150000443	0	577286	252
1129.572265625	1.67424150000443	health	choicePhaseStart	3	150	30	foodImage.104	FOODEEG_Images\0912.jpg	NY	Left	No	1.67424150000443	0	578342	253
1131.236328125	0	health	response	3	150	30	foodImage.104	FOODEEG_Images\0912.jpg	NY	Left	No	1.67424150000443	0	579194	234
1132.279296875	1	taste	trialStart	3	151	31	foodImage.103	FOODEEG_Images\0911.jpg	NY	Left	No	1.01143680000678	0	579728	251
1133.318359375	2	taste	foodImageDisplay	3	151	31	foodImage.103	FOODEEG_Images\0911.jpg	NY	Left	No	1.01143680000678	0	580260	252
1135.392578125	1.01143680000678	taste	choicePhaseStart	3	151	31	foodImage.103	FOODEEG_Images\0911.jpg	NY	Left	No	1.01143680000678	0	581322	253
1136.396484375	0	taste	response	3	151	31	foodImage.103	FOODEEG_Images\0911.jpg	NY	Left	No	1.01143680000678	0	581836	234
1137.4453125	1	decision	trialStart	3	152	32	foodImage.101	FOODEEG_Images\0909.jpg	NY	Left	No	0.723538899997948	0	582373	251
1138.498046875	2	decision	foodImageDisplay	3	152	32	foodImage.101	FOODEEG_Images\0909.jpg	NY	Left	No	0.723538899997948	0	582912	252
1140.560546875	0.723538899997948	decision	choicePhaseStart	3	152	32	foodImage.101	FOODEEG_Images\0909.jpg	NY	Left	No	0.723538899997948	0	583968	253
1141.27734375	0	decision	response	3	152	32	foodImage.101	FOODEEG_Images\0909.jpg	NY	Left	No	0.723538899997948	0	584335	234
1142.3203125	1	health	trialStart	3	153	33	foodImage.32	FOODEEG_Images\0319.jpg	NY	Right	Yes	1.25277059999644	0	584869	251
1143.36328125	2	health	foodImageDisplay	3	153	33	foodImage.32	FOODEEG_Images\0319.jpg	NY	Right	Yes	1.25277059999644	0	585403	252
1145.431640625	1.25277059999644	health	choicePhaseStart	3	153	33	foodImage.32	FOODEEG_Images\0319.jpg	NY	Right	Yes	1.25277059999644	0	586462	253
1146.67578125	0	health	response	3	153	33	foodImage.32	FOODEEG_Images\0319.jpg	NY	Right	Yes	1.25277059999644	0	587099	235
1147.71875	1	taste	trialStart	3	154	34	foodImage.108	FOODEEG_Images\0916.jpg	YN	Right	No	0.856821099994704	0	587633	251
1148.7578125	2	taste	foodImageDisplay	3	154	34	foodImage.108	FOODEEG_Images\0916.jpg	YN	Right	No	0.856821099994704	0	588165	252
1150.8203125	0.856821099994704	taste	choicePhaseStart	3	154	34	foodImage.108	FOODEEG_Images\0916.jpg	YN	Right	No	0.856821099994704	0	589221	253
1151.66796875	0	taste	response	3	154	34	foodImage.108	FOODEEG_Images\0916.jpg	YN	Right	No	0.856821099994704	0	589655	235
1152.7109375	1	decision	trialStart	3	155	35	foodImage.118	FOODEEG_Images\0926.jpg	NY	Left	No	1.34935190001852	0	590189	251
1153.748046875	2	decision	foodImageDisplay	3	155	35	foodImage.118	FOODEEG_Images\0926.jpg	NY	Left	No	1.34935190001852	0	590720	252
1155.8125	1.34935190001852	decision	choicePhaseStart	3	155	35	foodImage.118	FOODEEG_Images\0926.jpg	NY	Left	No	1.34935190001852	0	591777	253
1157.15625	0	decision	response	3	155	35	foodImage.118	FOODEEG_Images\0926.jpg	NY	Left	No	1.34935190001852	0	592465	234
1158.19921875	1	health	trialStart	3	156	36	foodImage.37	FOODEEG_Images\0359.jpg	YN	Left	Yes	0.860913700016681	0	592999	251
1159.240234375	2	health	foodImageDisplay	3	156	36	foodImage.37	FOODEEG_Images\0359.jpg	YN	Left	Yes	0.860913700016681	0	593532	252
1161.3046875	0.860913700016681	health	choicePhaseStart	3	156	36	foodImage.37	FOODEEG_Images\0359.jpg	YN	Left	Yes	0.860913700016681	0	594589	253
1162.15625	0	health	response	3	156	36	foodImage.37	FOODEEG_Images\0359.jpg	YN	Left	Yes	0.860913700016681	0	595025	234
1163.19921875	1	health	trialStart	3	157	37	foodImage.9	FOODEEG_Images\0138.jpg	YN	Right	No	1.09601300000213	0	595559	251
1164.25390625	2	health	foodImageDisplay	3	157	37	foodImage.9	FOODEEG_Images\0138.jpg	YN	Right	No	1.09601300000213	0	596099	252
1166.31640625	1.09601300000213	health	choicePhaseStart	3	157	37	foodImage.9	FOODEEG_Images\0138.jpg	YN	Right	No	1.09601300000213	0	597155	253
1167.40234375	0	health	response	3	157	37	foodImage.9	FOODEEG_Images\0138.jpg	YN	Right	No	1.09601300000213	0	597711	235
1168.447265625	1	taste	trialStart	3	158	38	foodImage.17	FOODEEG_Images\0199.jpg	NY	Right	Yes	0.653168899996672	0	598246	251
1169.48828125	2	taste	foodImageDisplay	3	158	38	foodImage.17	FOODEEG_Images\0199.jpg	NY	Right	Yes	0.653168899996672	0	598779	252
1171.556640625	0.653168899996672	taste	choicePhaseStart	3	158	38	foodImage.17	FOODEEG_Images\0199.jpg	NY	Right	Yes	0.653168899996672	0	599838	253
1172.203125	0	taste	response	3	158	38	foodImage.17	FOODEEG_Images\0199.jpg	NY	Right	Yes	0.653168899996672	0	600169	235
1173.24609375	1	taste	trialStart	3	159	39	foodImage.116	FOODEEG_Images\0924.jpg	NY	Left	No	0.784153400018113	0	600703	251
1174.28515625	2	taste	foodImageDisplay	3	159	39	foodImage.116	FOODEEG_Images\0924.jpg	NY	Left	No	0.784153400018113	0	601235	252
1176.34765625	0.784153400018113	taste	choicePhaseStart	3	159	39	foodImage.116	FOODEEG_Images\0924.jpg	NY	Left	No	0.784153400018113	0	602291	253
1177.123046875	0	taste	response	3	159	39	foodImage.116	FOODEEG_Images\0924.jpg	NY	Left	No	0.784153400018113	0	602688	234
1178.166015625	1	taste	trialStart	3	160	40	foodImage.3	FOODEEG_Images\0046.jpg	YN	Left	Yes	1.67644160002237	0	603222	251
1179.20703125	2	taste	foodImageDisplay	3	160	40	foodImage.3	FOODEEG_Images\0046.jpg	YN	Left	Yes	1.67644160002237	0	603755	252
1181.271484375	1.67644160002237	taste	choicePhaseStart	3	160	40	foodImage.3	FOODEEG_Images\0046.jpg	YN	Left	Yes	1.67644160002237	0	604812	253
1182.939453125	0	taste	response	3	160	40	foodImage.3	FOODEEG_Images\0046.jpg	YN	Left	Yes	1.67644160002237	0	605666	234
1183.98046875	1	health	trialStart	3	161	41	foodImage.5	FOODEEG_Images\0107.jpg	NY	Left	No	0.858228500001132	0	606199	251
1185.03515625	2	health	foodImageDisplay	3	161	41	foodImage.5	FOODEEG_Images\0107.jpg	NY	Left	No	0.858228500001132	0	606739	252
1187.09765625	0.858228500001132	health	choicePhaseStart	3	161	41	foodImage.5	FOODEEG_Images\0107.jpg	NY	Left	No	0.858228500001132	0	607795	253
1187.947265625	0	health	response	3	161	41	foodImage.5	FOODEEG_Images\0107.jpg	NY	Left	No	0.858228500001132	0	608230	234
1188.98828125	1	taste	trialStart	3	162	42	foodImage.42	FOODEEG_Images\0438.jpg	YN	Left	Yes	1.18459150000126	0	608763	251
1190.076171875	2	taste	foodImageDisplay	3	162	42	foodImage.42	FOODEEG_Images\0438.jpg	YN	Left	Yes	1.18459150000126	0	609320	252
1192.138671875	1.18459150000126	taste	choicePhaseStart	3	162	42	foodImage.42	FOODEEG_Images\0438.jpg	YN	Left	Yes	1.18459150000126	0	610376	253
1193.314453125	0	taste	response	3	162	42	foodImage.42	FOODEEG_Images\0438.jpg	YN	Left	Yes	1.18459150000126	0	610978	234
1194.359375	1	decision	trialStart	3	163	43	foodImage.116	FOODEEG_Images\0924.jpg	YN	Right	No	1.10171439999249	0	611513	251
1195.3984375	2	decision	foodImageDisplay	3	163	43	foodImage.116	FOODEEG_Images\0924.jpg	YN	Right	No	1.10171439999249	0	612045	252
1197.462890625	1.10171439999249	decision	choicePhaseStart	3	163	43	foodImage.116	FOODEEG_Images\0924.jpg	YN	Right	No	1.10171439999249	0	613102	253
1198.5546875	0	decision	response	3	163	43	foodImage.116	FOODEEG_Images\0924.jpg	YN	Right	No	1.10171439999249	0	613661	235
1199.59765625	1	taste	trialStart	3	164	44	foodImage.19	FOODEEG_Images\0225.jpg	NY	Left	No	0.903707899997244	0	614195	251
1200.638671875	2	taste	foodImageDisplay	3	164	44	foodImage.19	FOODEEG_Images\0225.jpg	NY	Left	No	0.903707899997244	0	614728	252
1202.70703125	0.903707899997244	taste	choicePhaseStart	3	164	44	foodImage.19	FOODEEG_Images\0225.jpg	NY	Left	No	0.903707899997244	0	615787	253
1203.6015625	0	taste	response	3	164	44	foodImage.19	FOODEEG_Images\0225.jpg	NY	Left	No	0.903707899997244	0	616245	234
1204.646484375	1	decision	trialStart	3	165	45	foodImage.83	FOODEEG_Images\0827.jpg	YN	Right	No	1.29648520000046	0	616780	251
1205.703125	2	decision	foodImageDisplay	3	165	45	foodImage.83	FOODEEG_Images\0827.jpg	YN	Right	No	1.29648520000046	0	617321	252
1207.771484375	1.29648520000046	decision	choicePhaseStart	3	165	45	foodImage.83	FOODEEG_Images\0827.jpg	YN	Right	No	1.29648520000046	0	618380	253
1209.05859375	0	decision	response	3	165	45	foodImage.83	FOODEEG_Images\0827.jpg	YN	Right	No	1.29648520000046	0	619039	235
1210.103515625	1	health	trialStart	3	166	46	foodImage.94	FOODEEG_Images\0902.jpg	YN	Right	No	2.47047369999927	0	619574	251
1211.140625	2	health	foodImageDisplay	3	166	46	foodImage.94	FOODEEG_Images\0902.jpg	YN	Right	No	2.47047369999927	0	620105	252
1213.205078125	2.47047369999927	health	choicePhaseStart	3	166	46	foodImage.94	FOODEEG_Images\0902.jpg	YN	Right	No	2.47047369999927	0	621162	253
1215.666015625	0	health	response	3	166	46	foodImage.94	FOODEEG_Images\0902.jpg	YN	Right	No	2.47047369999927	0	622422	235
1216.712890625	1	taste	trialStart	3	167	47	foodImage.51	FOODEEG_Images\0536.jpg	YN	Left	Yes	0.678176999994321	0	622958	251
1217.7578125	2	taste	foodImageDisplay	3	167	47	foodImage.51	FOODEEG_Images\0536.jpg	YN	Left	Yes	0.678176999994321	0	623493	252
1219.8203125	0.678176999994321	taste	choicePhaseStart	3	167	47	foodImage.51	FOODEEG_Images\0536.jpg	YN	Left	Yes	0.678176999994321	0	624549	253
1220.490234375	0	taste	response	3	167	47	foodImage.51	FOODEEG_Images\0536.jpg	YN	Left	Yes	0.678176999994321	0	624892	234
1221.53125	1	health	trialStart	3	168	48	foodImage.1	FOODEEG_Images\0004.jpg	NY	Left	No	1.40527250000741	0	625425	251
1222.57421875	2	health	foodImageDisplay	3	168	48	foodImage.1	FOODEEG_Images\0004.jpg	NY	Left	No	1.40527250000741	0	625959	252
1224.642578125	1.40527250000741	health	choicePhaseStart	3	168	48	foodImage.1	FOODEEG_Images\0004.jpg	NY	Left	No	1.40527250000741	0	627018	253
1226.041015625	0	health	response	3	168	48	foodImage.1	FOODEEG_Images\0004.jpg	NY	Left	No	1.40527250000741	0	627734	234
1227.0859375	1	decision	trialStart	3	169	49	foodImage.43	FOODEEG_Images\0445.jpg	YN	Left	Yes	0.900865800009342	0	628269	251
1228.142578125	2	decision	foodImageDisplay	3	169	49	foodImage.43	FOODEEG_Images\0445.jpg	YN	Left	Yes	0.900865800009342	0	628810	252
1230.2109375	0.900865800009342	decision	choicePhaseStart	3	169	49	foodImage.43	FOODEEG_Images\0445.jpg	YN	Left	Yes	0.900865800009342	0	629869	253
1231.10546875	0	decision	response	3	169	49	foodImage.43	FOODEEG_Images\0445.jpg	YN	Left	Yes	0.900865800009342	0	630327	234
1232.1484375	1	health	trialStart	3	170	50	foodImage.106	FOODEEG_Images\0914.jpg	NY	Right	Yes	1.70125460001873	0	630861	251
1233.1875	2	health	foodImageDisplay	3	170	50	foodImage.106	FOODEEG_Images\0914.jpg	NY	Right	Yes	1.70125460001873	0	631393	252
1235.251953125	1.70125460001873	health	choicePhaseStart	3	170	50	foodImage.106	FOODEEG_Images\0914.jpg	NY	Right	Yes	1.70125460001873	0	632450	253
1236.9453125	0	health	response	3	170	50	foodImage.106	FOODEEG_Images\0914.jpg	NY	Right	Yes	1.70125460001873	0	633317	235
1237.98828125	1	taste	trialStart	3	171	51	foodImage.88	FOODEEG_Images\0878.jpg	NY	Right	Yes	1.21413830001256	0	633851	251
1239.044921875	2	taste	foodImageDisplay	3	171	51	foodImage.88	FOODEEG_Images\0878.jpg	NY	Right	Yes	1.21413830001256	0	634392	252
1241.107421875	1.21413830001256	taste	choicePhaseStart	3	171	51	foodImage.88	FOODEEG_Images\0878.jpg	NY	Right	Yes	1.21413830001256	0	635448	253
1242.3125	0	taste	response	3	171	51	foodImage.88	FOODEEG_Images\0878.jpg	NY	Right	Yes	1.21413830001256	0	636065	235
1243.35546875	1	taste	trialStart	3	172	52	foodImage.61	FOODEEG_Images\0640.jpg	NY	Right	Yes	0.8619544999965	0	636599	251
1244.396484375	2	taste	foodImageDisplay	3	172	52	foodImage.61	FOODEEG_Images\0640.jpg	NY	Right	Yes	0.8619544999965	0	637132	252
1246.46484375	0.8619544999965	taste	choicePhaseStart	3	172	52	foodImage.61	FOODEEG_Images\0640.jpg	NY	Right	Yes	0.8619544999965	0	638191	253
1247.3203125	0	taste	response	3	172	52	foodImage.61	FOODEEG_Images\0640.jpg	NY	Right	Yes	0.8619544999965	0	638629	235
1248.36328125	1	health	trialStart	3	173	53	foodImage.28	FOODEEG_Images\0273.jpg	YN	Left	Yes	0.876524999999674	0	639163	251
1249.40625	2	health	foodImageDisplay	3	173	53	foodImage.28	FOODEEG_Images\0273.jpg	YN	Left	Yes	0.876524999999674	0	639697	252
1251.470703125	0.876524999999674	health	choicePhaseStart	3	173	53	foodImage.28	FOODEEG_Images\0273.jpg	YN	Left	Yes	0.876524999999674	0	640754	253
1252.3359375	0	health	response	3	173	53	foodImage.28	FOODEEG_Images\0273.jpg	YN	Left	Yes	0.876524999999674	0	641197	234
1253.37890625	1	decision	trialStart	3	174	54	foodImage.37	FOODEEG_Images\0359.jpg	NY	Right	Yes	0.718030699994415	0	641731	251
1254.419921875	2	decision	foodImageDisplay	3	174	54	foodImage.37	FOODEEG_Images\0359.jpg	NY	Right	Yes	0.718030699994415	0	642264	252
1256.484375	0.718030699994415	decision	choicePhaseStart	3	174	54	foodImage.37	FOODEEG_Images\0359.jpg	NY	Right	Yes	0.718030699994415	0	643321	253
1257.19140625	0	decision	response	3	174	54	foodImage.37	FOODEEG_Images\0359.jpg	NY	Right	Yes	0.718030699994415	0	643683	235
1258.234375	1	taste	trialStart	3	175	55	foodImage.57	FOODEEG_Images\0587.jpg	YN	Left	Yes	0.697540299996035	0	644217	251
1259.279296875	2	taste	foodImageDisplay	3	175	55	foodImage.57	FOODEEG_Images\0587.jpg	YN	Left	Yes	0.697540299996035	0	644752	252
1261.341796875	0.697540299996035	taste	choicePhaseStart	3	175	55	foodImage.57	FOODEEG_Images\0587.jpg	YN	Left	Yes	0.697540299996035	0	645808	253
1262.03125	0	taste	response	3	175	55	foodImage.57	FOODEEG_Images\0587.jpg	YN	Left	Yes	0.697540299996035	0	646161	234
1263.07421875	1	decision	trialStart	3	176	56	foodImage.59	FOODEEG_Images\0607.jpg	YN	Left	Yes	0.888933000009274	0	646695	251
1264.12109375	2	decision	foodImageDisplay	3	176	56	foodImage.59	FOODEEG_Images\0607.jpg	YN	Left	Yes	0.888933000009274	0	647231	252
1266.18359375	0.888933000009274	decision	choicePhaseStart	3	176	56	foodImage.59	FOODEEG_Images\0607.jpg	YN	Left	Yes	0.888933000009274	0	648287	253
1267.064453125	0	decision	response	3	176	56	foodImage.59	FOODEEG_Images\0607.jpg	YN	Left	Yes	0.888933000009274	0	648738	234
1268.1171875	1	taste	trialStart	3	177	57	foodImage.118	FOODEEG_Images\0926.jpg	YN	Right	No	1.3502937000012	0	649277	251
1269.1640625	2	taste	foodImageDisplay	3	177	57	foodImage.118	FOODEEG_Images\0926.jpg	YN	Right	No	1.3502937000012	0	649813	252
1271.2265625	1.3502937000012	taste	choicePhaseStart	3	177	57	foodImage.118	FOODEEG_Images\0926.jpg	YN	Right	No	1.3502937000012	0	650869	253
1272.568359375	0	taste	response	3	177	57	foodImage.118	FOODEEG_Images\0926.jpg	YN	Right	No	1.3502937000012	0	651556	235
1273.611328125	1	decision	trialStart	3	178	58	foodImage.81	FOODEEG_Images\0797.jpg	NY	Left	No	0.736796100012725	0	652090	251
1274.666015625	2	decision	foodImageDisplay	3	178	58	foodImage.81	FOODEEG_Images\0797.jpg	NY	Left	No	0.736796100012725	0	652630	252
1276.732421875	0.736796100012725	decision	choicePhaseStart	3	178	58	foodImage.81	FOODEEG_Images\0797.jpg	NY	Left	No	0.736796100012725	0	653688	253
1277.462890625	0	decision	response	3	178	58	foodImage.81	FOODEEG_Images\0797.jpg	NY	Left	No	0.736796100012725	0	654062	234
1278.505859375	1	health	trialStart	3	179	59	foodImage.75	FOODEEG_Images\0763.jpg	NY	Right	Yes	0.789056600013282	0	654596	251
1279.548828125	2	health	foodImageDisplay	3	179	59	foodImage.75	FOODEEG_Images\0763.jpg	NY	Right	Yes	0.789056600013282	0	655130	252
1281.611328125	0.789056600013282	health	choicePhaseStart	3	179	59	foodImage.75	FOODEEG_Images\0763.jpg	NY	Right	Yes	0.789056600013282	0	656186	253
1282.390625	0	health	response	3	179	59	foodImage.75	FOODEEG_Images\0763.jpg	NY	Right	Yes	0.789056600013282	0	656585	235
1283.43359375	1	health	trialStart	3	180	60	foodImage.26	FOODEEG_Images\0262.jpg	NY	Right	Yes	1.02244490000885	0	657119	251
1284.474609375	2	health	foodImageDisplay	3	180	60	foodImage.26	FOODEEG_Images\0262.jpg	NY	Right	Yes	1.02244490000885	0	657652	252
1286.537109375	1.02244490000885	health	choicePhaseStart	3	180	60	foodImage.26	FOODEEG_Images\0262.jpg	NY	Right	Yes	1.02244490000885	0	658708	253
1287.55078125	0	health	response	3	180	60	foodImage.26	FOODEEG_Images\0262.jpg	NY	Right	Yes	1.02244490000885	0	659227	235
1289.59375	24.3203125	n/a	blockEnd	n/a	n/a	n/a	n/a	n/a	n/a	n/a	n/a	n/a	n/a	660273	254
1313.9140625	2	n/a	blockStart	4	n/a	n/a	n/a	n/a	n/a	n/a	n/a	n/a	n/a	672725	250
1315.9453125	1	health	trialStart	4	181	1	foodImage.35	FOODEEG_Images\0350.jpg	YN	Right	No	1.60357800000929	0	673765	251
1316.986328125	2	health	foodImageDisplay	4	181	1	foodImage.35	FOODEEG_Images\0350.jpg	YN	Right	No	1.60357800000929	0	674298	252
1319.05078125	1.60357800000929	health	choicePhaseStart	4	181	1	foodImage.35	FOODEEG_Images\0350.jpg	YN	Right	No	1.60357800000929	0	675355	253
1320.646484375	0	health	response	4	181	1	foodImage.35	FOODEEG_Images\0350.jpg	YN	Right	No	1.60357800000929	0	676172	235
1321.6875	1	decision	trialStart	4	182	2	foodImage.40	FOODEEG_Images\0373.jpg	NY	Right	Yes	0.708299399993848	0	676705	251
1322.728515625	2	decision	foodImageDisplay	4	182	2	foodImage.40	FOODEEG_Images\0373.jpg	NY	Right	Yes	0.708299399993848	0	677238	252
1324.79296875	0.708299399993848	decision	choicePhaseStart	4	182	2	foodImage.40	FOODEEG_Images\0373.jpg	NY	Right	Yes	0.708299399993848	0	678295	253
1325.4921875	0	decision	response	4	182	2	foodImage.40	FOODEEG_Images\0373.jpg	NY	Right	Yes	0.708299399993848	0	678653	235
1326.541015625	1	health	trialStart	4	183	3	foodImage.91	FOODEEG_Images\0896.jpg	YN	Left	Yes	2.40737610001815	0	679190	251
1327.599609375	2	health	foodImageDisplay	4	183	3	foodImage.91	FOODEEG_Images\0896.jpg	YN	Left	Yes	2.40737610001815	0	679732	252
1329.662109375	2.40737610001815	health	choicePhaseStart	4	183	3	foodImage.91	FOODEEG_Images\0896.jpg	YN	Left	Yes	2.40737610001815	0	680788	253
1332.060546875	0	health	response	4	183	3	foodImage.91	FOODEEG_Images\0896.jpg	YN	Left	Yes	2.40737610001815	0	682016	234
1333.10546875	1	health	trialStart	4	184	4	foodImage.71	FOODEEG_Images\0713.jpg	NY	Left	No	1.02642010001	0	682551	251
1334.146484375	2	health	foodImageDisplay	4	184	4	foodImage.71	FOODEEG_Images\0713.jpg	NY	Left	No	1.02642010001	0	683084	252
1336.2109375	1.02642010001	health	choicePhaseStart	4	184	4	foodImage.71	FOODEEG_Images\0713.jpg	NY	Left	No	1.02642010001	0	684141	253
1337.228515625	0	health	response	4	184	4	foodImage.71	FOODEEG_Images\0713.jpg	NY	Left	No	1.02642010001	0	684662	234
1338.27734375	1	health	trialStart	4	185	5	foodImage.66	FOODEEG_Images\0676.jpg	NY	Left	No	1.07355090000783	0	685199	251
1339.318359375	2	health	foodImageDisplay	4	185	5	foodImage.66	FOODEEG_Images\0676.jpg	NY	Left	No	1.07355090000783	0	685732	252
1341.380859375	1.07355090000783	health	choicePhaseStart	4	185	5	foodImage.66	FOODEEG_Images\0676.jpg	NY	Left	No	1.07355090000783	0	686788	253
1342.4453125	0	health	response	4	185	5	foodImage.66	FOODEEG_Images\0676.jpg	NY	Left	No	1.07355090000783	0	687333	234
1343.486328125	1	decision	trialStart	4	186	6	foodImage.45	FOODEEG_Images\0478.jpg	YN	Left	Yes	1.06164480000734	0	687866	251
1344.54296875	2	decision	foodImageDisplay	4	186	6	foodImage.45	FOODEEG_Images\0478.jpg	YN	Left	Yes	1.06164480000734	0	688407	252
1346.607421875	1.06164480000734	decision	choicePhaseStart	4	186	6	foodImage.45	FOODEEG_Images\0478.jpg	YN	Left	Yes	1.06164480000734	0	689464	253
1347.66015625	0	decision	response	4	186	6	foodImage.45	FOODEEG_Images\0478.jpg	YN	Left	Yes	1.06164480000734	0	690003	234
1348.705078125	1	health	trialStart	4	187	7	foodImage.52	FOODEEG_Images\0539.jpg	NY	Right	Yes	1.01289600000018	0	690538	251
1349.763671875	2	health	foodImageDisplay	4	187	7	foodImage.52	FOODEEG_Images\0539.jpg	NY	Right	Yes	1.01289600000018	0	691080	252
1351.826171875	1.01289600000018	health	choicePhaseStart	4	187	7	foodImage.52	FOODEEG_Images\0539.jpg	NY	Right	Yes	1.01289600000018	0	692136	253
1352.828125	0	health	response	4	187	7	foodImage.52	FOODEEG_Images\0539.jpg	NY	Right	Yes	1.01289600000018	0	692649	235
1353.87109375	1	health	trialStart	4	188	8	foodImage.87	FOODEEG_Images\0873.jpg	YN	Left	Yes	0.844154800026445	0	693183	251
1354.9296875	2	health	foodImageDisplay	4	188	8	foodImage.87	FOODEEG_Images\0873.jpg	YN	Left	Yes	0.844154800026445	0	693725	252
1356.9921875	0.844154800026445	health	choicePhaseStart	4	188	8	foodImage.87	FOODEEG_Images\0873.jpg	YN	Left	Yes	0.844154800026445	0	694781	253
1357.828125	0	health	response	4	188	8	foodImage.87	FOODEEG_Images\0873.jpg	YN	Left	Yes	0.844154800026445	0	695209	234
1358.876953125	1	health	trialStart	4	189	9	foodImage.18	FOODEEG_Images\0202.jpg	NY	Right	Yes	0.727732400002424	0	695746	251
1359.935546875	2	health	foodImageDisplay	4	189	9	foodImage.18	FOODEEG_Images\0202.jpg	NY	Right	Yes	0.727732400002424	0	696288	252
1361.998046875	0.727732400002424	health	choicePhaseStart	4	189	9	foodImage.18	FOODEEG_Images\0202.jpg	NY	Right	Yes	0.727732400002424	0	697344	253
1362.71484375	0	health	response	4	189	9	foodImage.18	FOODEEG_Images\0202.jpg	NY	Right	Yes	0.727732400002424	0	697711	235
1363.7578125	1	health	trialStart	4	190	10	foodImage.15	FOODEEG_Images\0189.jpg	NY	Left	No	1.61311850001221	0	698245	251
1364.818359375	2	health	foodImageDisplay	4	190	10	foodImage.15	FOODEEG_Images\0189.jpg	NY	Left	No	1.61311850001221	0	698788	252
1366.880859375	1.61311850001221	health	choicePhaseStart	4	190	10	foodImage.15	FOODEEG_Images\0189.jpg	NY	Left	No	1.61311850001221	0	699844	253
1368.484375	0	health	response	4	190	10	foodImage.15	FOODEEG_Images\0189.jpg	NY	Left	No	1.61311850001221	0	700665	234
1369.52734375	1	health	trialStart	4	191	11	foodImage.61	FOODEEG_Images\0640.jpg	NY	Right	Yes	0.924501600005897	0	701199	251
1370.5703125	2	health	foodImageDisplay	4	191	11	foodImage.61	FOODEEG_Images\0640.jpg	NY	Right	Yes	0.924501600005897	0	701733	252
1372.6328125	0.924501600005897	health	choicePhaseStart	4	191	11	foodImage.61	FOODEEG_Images\0640.jpg	NY	Right	Yes	0.924501600005897	0	702789	253
1373.546875	0	health	response	4	191	11	foodImage.61	FOODEEG_Images\0640.jpg	NY	Right	Yes	0.924501600005897	0	703257	235
1374.58984375	1	health	trialStart	4	192	12	foodImage.109	FOODEEG_Images\0917.jpg	YN	Right	No	1.85663600001135	0	703791	251
1375.62890625	2	health	foodImageDisplay	4	192	12	foodImage.109	FOODEEG_Images\0917.jpg	YN	Right	No	1.85663600001135	0	704323	252
1377.69140625	1.85663600001135	health	choicePhaseStart	4	192	12	foodImage.109	FOODEEG_Images\0917.jpg	YN	Right	No	1.85663600001135	0	705379	253
1379.5390625	0	health	response	4	192	12	foodImage.109	FOODEEG_Images\0917.jpg	YN	Right	No	1.85663600001135	0	706325	235
1380.583984375	1	health	trialStart	4	193	13	foodImage.85	FOODEEG_Images\0841.jpg	YN	Right	No	1.22812119999435	0	706860	251
