onset	duration	trial_type	event_type	block	trial_total	trial_in_block	food_image_code	food_image_path	button_position	resp_position	resp_choice	choice_rt	resp_too_slow	sample	trigger
431.013671875	2	n/a	blockStart	1	n/a	n/a	n/a	n/a	n/a	n/a	n/a	n/a	n/a	220680	250
433.05078125	1	decision	trialStart	1	1	1	foodImage.88	FOODEEG_Images\0878.jpg	NY	Right	Yes	1.04653679998592	0	221723	251
434.1171875	2	decision	foodImageDisplay	1	1	1	foodImage.88	FOODEEG_Images\0878.jpg	NY	Right	Yes	1.04653679998592	0	222269	252
436.181640625	1.04653679998592	decision	choicePhaseStart	1	1	1	foodImage.88	FOODEEG_Images\0878.jpg	NY	Right	Yes	1.04653679998592	0	223326	253
437.220703125	0	decision	response	1	1	1	foodImage.88	FOODEEG_Images\0878.jpg	NY	Right	Yes	1.04653679998592	0	223858	235
438.314453125	1	decision	trialStart	1	2	2	foodImage.35	FOODEEG_Images\0350.jpg	NY	Right	Yes	1.002082199906	0	224418	251
439.357421875	2	decision	foodImageDisplay	1	2	2	foodImage.35	FOODEEG_Images\0350.jpg	NY	Right	Yes	1.002082199906	0	224952	252
441.4296875	1.002082199906	decision	choicePhaseStart	1	2	2	foodImage.35	FOODEEG_Images\0350.jpg	NY	Right	Yes	1.002082199906	0	226013	253
442.427734375	0	decision	response	1	2	2	foodImage.35	FOODEEG_Images\0350.jpg	NY	Right	Yes	1.002082199906	0	226524	235
443.478515625	1	taste	trialStart	1	3	3	foodImage.37	FOODEEG_Images\0359.jpg	YN	Left	Yes	0.556417800020427	0	227062	251
444.5234375	2	taste	foodImageDisplay	1	3	3	foodImage.37	FOODEEG_Images\0359.jpg	YN	Left	Yes	0.556417800020427	0	227597	252
446.587890625	0.556417800020427	taste	choicePhaseStart	1	3	3	foodImage.37	FOODEEG_Images\0359.jpg	YN	Left	Yes	0.556417800020427	0	228654	253
447.138671875	0	taste	response	1	3	3	foodImage.37	FOODEEG_Images\0359.jpg	YN	Left	Yes	0.556417800020427	0	228936	234
448.18359375	1	health	trialStart	1	4	4	foodImage.42	FOODEEG_Images\0438.jpg	YN	Left	Yes	0.670344199985266	0	229471	251
449.275390625	2	health	foodImageDisplay	1	4	4	foodImage.42	FOODEEG_Images\0438.jpg	YN	Left	Yes	0.670344199985266	0	230030	252
451.345703125	0.670344199985266	health	choicePhaseStart	1	4	4	foodImage.42	FOODEEG_Images\0438.jpg	YN	Left	Yes	0.670344199985266	0	231090	253
452.01171875	0	health	response	1	4	4	foodImage.42	FOODEEG_Images\0438.jpg	YN	Left	Yes	0.670344199985266	0	231431	234
453.05859375	1	taste	trialStart	1	5	5	foodImage.55	FOODEEG_Images\0567.jpg	YN	Left	Yes	0.933812099974602	0	231967	251
454.125	2	taste	foodImageDisplay	1	5	5	foodImage.55	FOODEEG_Images\0567.jpg	YN	Left	Yes	0.933812099974602	0	232513	252
456.1953125	0.933812099974602	taste	choicePhaseStart	1	5	5	foodImage.55	FOODEEG_Images\0567.jpg	YN	Left	Yes	0.933812099974602	0	233573	253
457.123046875	0	taste	response	1	5	5	foodImage.55	FOODEEG_Images\0567.jpg	YN	Left	Yes	0.933812099974602	0	234048	234
458.173828125	1	decision	trialStart	1	6	6	foodImage.87	FOODEEG_Images\0873.jpg	NY	Right	Yes	0.672718100016937	0	234586	251
459.234375	2	decision	foodImageDisplay	1	6	6	foodImage.87	FOODEEG_Images\0873.jpg	NY	Right	Yes	0.672718100016937	0	235129	252
461.298828125	0.672718100016937	decision	choicePhaseStart	1	6	6	foodImage.87	FOODEEG_Images\0873.jpg	NY	Right	Yes	0.672718100016937	0	236186	253
461.962890625	0	decision	response	1	6	6	foodImage.87	FOODEEG_Images\0873.jpg	NY	Right	Yes	0.672718100016937	0	236526	235
463.0078125	1	decision	trialStart	1	7	7	foodImage.15	FOODEEG_Images\0189.jpg	NY	Left	No	0.826560899964534	0	237061	251
464.0703125	2	decision	foodImageDisplay	1	7	7	foodImage.15	FOODEEG_Images\0189.jpg	NY	Left	No	0.826560899964534	0	237605	252
466.134765625	0.826560899964534	decision	choicePhaseStart	1	7	7	foodImage.15	FOODEEG_Images\0189.jpg	NY	Left	No	0.826560899964534	0	238662	253
466.955078125	0	decision	response	1	7	7	foodImage.15	FOODEEG_Images\0189.jpg	NY	Left	No	0.826560899964534	0	239082	234
468.00390625	1	taste	trialStart	1	8	8	foodImage.27	FOODEEG_Images\0263.jpg	YN	Right	No	0.846846399945207	0	239619	251
469.05859375	2	taste	foodImageDisplay	1	8	8	foodImage.27	FOODEEG_Images\0263.jpg	YN	Right	No	0.846846399945207	0	240159	252
471.123046875	0.846846399945207	taste	choicePhaseStart	1	8	8	foodImage.27	FOODEEG_Images\0263.jpg	YN	Right	No	0.846846399945207	0	241216	253
471.962890625	0	taste	response	1	8	8	foodImage.27	FOODEEG_Images\0263.jpg	YN	Right	No	0.846846399945207	0	241646	235
473.01171875	1	health	trialStart	1	9	9	foodImage.45	FOODEEG_Images\0478.jpg	YN	Left	Yes	1.0152007000288	0	242183	251
474.060546875	2	health	foodImageDisplay	1	9	9	foodImage.45	FOODEEG_Images\0478.jpg	YN	Left	Yes	1.0152007000288	0	242720	252
476.123046875	1.0152007000288	health	choicePhaseStart	1	9	9	foodImage.45	FOODEEG_Images\0478.jpg	YN	Left	Yes	1.0152007000288	0	243776	253
477.130859375	0	health	response	1	9	9	foodImage.45	FOODEEG_Images\0478.jpg	YN	Left	Yes	1.0152007000288	0	244292	234
478.1796875	1	decision	trialStart	1	10	10	foodImage.44	FOODEEG_Images\0459.jpg	NY	Right	Yes	0.630059599992819	0	244829	251
479.228515625	2	decision	foodImageDisplay	1	10	10	foodImage.44	FOODEEG_Images\0459.jpg	NY	Right	Yes	0.630059599992819	0	245366	252
481.298828125	0.630059599992819	decision	choicePhaseStart	1	10	10	foodImage.44	FOODEEG_Images\0459.jpg	NY	Right	Yes	0.630059599992819	0	246426	253
481.921875	0	decision	response	1	10	10	foodImage.44	FOODEEG_Images\0459.jpg	NY	Right	Yes	0.630059599992819	0	246745	235
482.966796875	1	taste	trialStart	1	11	11	foodImage.35	FOODEEG_Images\0350.jpg	NY	Right	Yes	0.636656799935736	0	247280	251
484.005859375	2	taste	foodImageDisplay	1	11	11	foodImage.35	FOODEEG_Images\0350.jpg	NY	Right	Yes	0.636656799935736	0	247812	252
486.0703125	0.636656799935736	taste	choicePhaseStart	1	11	11	foodImage.35	FOODEEG_Images\0350.jpg	NY	Right	Yes	0.636656799935736	0	248869	253
486.69921875	0	taste	response	1	11	11	foodImage.35	FOODEEG_Images\0350.jpg	NY	Right	Yes	0.636656799935736	0	249191	235
487.748046875	1	taste	trialStart	1	12	12	foodImage.98	FOODEEG_Images\0906.jpg	NY	Left	No	0.758953600074165	0	249728	251
488.787109375	2	taste	foodImageDisplay	1	12	12	foodImage.98	FOODEEG_Images\0906.jpg	NY	Left	No	0.758953600074165	0	250260	252
490.849609375	0.758953600074165	taste	choicePhaseStart	1	12	12	foodImage.98	FOODEEG_Images\0906.jpg	NY	Left	No	0.758953600074165	0	251316	253
491.6015625	0	taste	response	1	12	12	foodImage.98	FOODEEG_Images\0906.jpg	NY	Left	No	0.758953600074165	0	251701	234
492.642578125	1	decision	trialStart	1	13	13	foodImage.21	FOODEEG_Images\0234.jpg	NY	Right	Yes	0.651532300049439	0	252234	251
493.708984375	2	decision	foodImageDisplay	1	13	13	foodImage.21	FOODEEG_Images\0234.jpg	NY	Right	Yes	0.651532300049439	0	252780	252
495.78125	0.651532300049439	decision	choicePhaseStart	1	13	13	foodImage.21	FOODEEG_Images\0234.jpg	NY	Right	Yes	0.651532300049439	0	253841	253
496.42578125	0	decision	response	1	13	13	foodImage.21	FOODEEG_Images\0234.jpg	NY	Right	Yes	0.651532300049439	0	254171	235
497.466796875	1	health	trialStart	1	14	14	foodImage.69	FOODEEG_Images\0693.jpg	NY	Right	Yes	1.08315459999721	0	254704	251
498.51171875	2	health	foodImageDisplay	1	14	14	foodImage.69	FOODEEG_Images\0693.jpg	NY	Right	Yes	1.08315459999721	0	255239	252
500.57421875	1.08315459999721	health	choicePhaseStart	1	14	14	foodImage.69	FOODEEG_Images\0693.jpg	NY	Right	Yes	1.08315459999721	0	256295	253
501.6484375	0	health	response	1	14	14	foodImage.69	FOODEEG_Images\0693.jpg	NY	Right	Yes	1.08315459999721	0	256845	235
502.69140625	1	taste	trialStart	1	15	15	foodImage.4	FOODEEG_Images\0065.jpg	YN	Left	Yes	2.25195199996233	0	257379	251
503.765625	2	taste	foodImageDisplay	1	15	15	foodImage.4	FOODEEG_Images\0065.jpg	YN	Left	Yes	2.25195199996233	0	257929	252
505.8359375	2.25195199996233	taste	choicePhaseStart	1	15	15	foodImage.4	FOODEEG_Images\0065.jpg	YN	Left	Yes	2.25195199996233	0	258989	253
508.080078125	0	taste	response	1	15	15	foodImage.4	FOODEEG_Images\0065.jpg	YN	Left	Yes	2.25195199996233	0	260138	234
509.12109375	1	health	trialStart	1	16	16	foodImage.80	FOODEEG_Images\0796.jpg	NY	Right	Yes	0.629563599941321	0	260671	251
510.1796875	2	health	foodImageDisplay	1	16	16	foodImage.80	FOODEEG_Images\0796.jpg	NY	Right	Yes	0.629563599941321	0	261213	252
512.244140625	0.629563599941321	health	choicePhaseStart	1	16	16	foodImage.80	FOODEEG_Images\0796.jpg	NY	Right	Yes	0.629563599941321	0	262270	253
512.865234375	0	health	response	1	16	16	foodImage.80	FOODEEG_Images\0796.jpg	NY	Right	Yes	0.629563599941321	0	262588	235
513.908203125	1	health	trialStart	1	17	17	foodImage.23	FOODEEG_Images\0244.jpg	NY	Right	Yes	0.699920499930158	0	263122	251
514.951171875	2	health	foodImageDisplay	1	17	17	foodImage.23	FOODEEG_Images\0244.jpg	NY	Right	Yes	0.699920499930158	0	263656	252
517.017578125	0.699920499930158	health	choicePhaseStart	1	17	17	foodImage.23	FOODEEG_Images\0244.jpg	NY	Right	Yes	0.699920499930158	0	264714	253
517.712890625	0	health	response	1	17	17	foodImage.23	FOODEEG_Images\0244.jpg	NY	Right	Yes	0.699920499930158	0	265070	235
518.7578125	1	decision	trialStart	1	18	18	foodImage.57	FOODEEG_Images\0587.jpg	NY	Left	No	0.69395850005094	0	265605	251
519.802734375	2	decision	foodImageDisplay	1	18	18	foodImage.57	FOODEEG_Images\0587.jpg	NY	Left	No	0.69395850005094	0	266140	252
521.8671875	0.69395850005094	decision	choicePhaseStart	1	18	18	foodImage.57	FOODEEG_Images\0587.jpg	NY	Left	No	0.69395850005094	0	267197	253
522.552734375	0	decision	response	1	18	18	foodImage.57	FOODEEG_Images\0587.jpg	NY	Left	No	0.69395850005094	0	267548	234
523.59375	1	taste	trialStart	1	19	19	foodImage.43	FOODEEG_Images\0445.jpg	NY	Right	Yes	0.843154400005005	0	268081	251
524.650390625	2	taste	foodImageDisplay	1	19	19	foodImage.43	FOODEEG_Images\0445.jpg	NY	Right	Yes	0.843154400005005	0	268622	252
526.71875	0.843154400005005	taste	choicePhaseStart	1	19	19	foodImage.43	FOODEEG_Images\0445.jpg	NY	Right	Yes	0.843154400005005	0	269681	253
527.552734375	0	taste	response	1	19	19	foodImage.43	FOODEEG_Images\0445.jpg	NY	Right	Yes	0.843154400005005	0	270108	235
528.595703125	1	decision	trialStart	1	20	20	foodImage.28	FOODEEG_Images\0273.jpg	NY	Right	Yes	0.595125899999402	0	270642	251
529.638671875	2	decision	foodImageDisplay	1	20	20	foodImage.28	FOODEEG_Images\0273.jpg	NY	Right	Yes	0.595125899999402	0	271176	252
531.703125	0.595125899999402	decision	choicePhaseStart	1	20	20	foodImage.28	FOODEEG_Images\0273.jpg	NY	Right	Yes	0.595125899999402	0	272233	253
532.2890625	0	decision	response	1	20	20	foodImage.28	FOODEEG_Images\0273.jpg	NY	Right	Yes	0.595125899999402	0	272533	235
533.330078125	1	taste	trialStart	1	21	21	foodImage.38	FOODEEG_Images\0365.jpg	YN	Left	Yes	0.961142600048333	0	273066	251
534.375	2	taste	foodImageDisplay	1	21	21	foodImage.38	FOODEEG_Images\0365.jpg	YN	Left	Yes	0.961142600048333	0	273601	252
536.4375	0.961142600048333	taste	choicePhaseStart	1	21	21	foodImage.38	FOODEEG_Images\0365.jpg	YN	Left	Yes	0.961142600048333	0	274657	253
537.392578125	0	taste	response	1	21	21	foodImage.38	FOODEEG_Images\0365.jpg	YN	Left	Yes	0.961142600048333	0	275146	234
538.43359375	1	taste	trialStart	1	22	22	foodImage.58	FOODEEG_Images\0605.jpg	NY	Left	No	0.799929999979213	0	275679	251
539.49609375	2	taste	foodImageDisplay	1	22	22	foodImage.58	FOODEEG_Images\0605.jpg	NY	Left	No	0.799929999979213	0	276223	252
541.55859375	0.799929999979213	taste	choicePhaseStart	1	22	22	foodImage.58	FOODEEG_Images\0605.jpg	NY	Left	No	0.799929999979213	0	277279	253
542.3515625	0	taste	response	1	22	22	foodImage.58	FOODEEG_Images\0605.jpg	NY	Left	No	0.799929999979213	0	277685	234
543.40234375	1	taste	trialStart	1	23	23	foodImage.30	FOODEEG_Images\0282.jpg	YN	Left	Yes	0.821125800022855	0	278223	251
544.4453125	2	taste	foodImageDisplay	1	23	23	foodImage.30	FOODEEG_Images\0282.jpg	YN	Left	Yes	0.821125800022855	0	278757	252
546.5078125	0.821125800022855	taste	choicePhaseStart	1	23	23	foodImage.30	FOODEEG_Images\0282.jpg	YN	Left	Yes	0.821125800022855	0	279813	253
547.3203125	0	taste	response	1	23	23	foodImage.30	FOODEEG_Images\0282.jpg	YN	Left	Yes	0.821125800022855	0	280229	234
548.365234375	1	decision	trialStart	1	24	24	foodImage.18	FOODEEG_Images\0202.jpg	NY	Right	Yes	0.802101299981587	0	280764	251
549.43359375	2	decision	foodImageDisplay	1	24	24	foodImage.18	FOODEEG_Images\0202.jpg	NY	Right	Yes	0.802101299981587	0	281311	252
551.494140625	0.802101299981587	decision	choicePhaseStart	1	24	24	foodImage.18	FOODEEG_Images\0202.jpg	NY	Right	Yes	0.802101299981587	0	282366	253
552.287109375	0	decision	response	1	24	24	foodImage.18	FOODEEG_Images\0202.jpg	NY	Right	Yes	0.802101299981587	0	282772	235
553.3359375	1	health	trialStart	1	25	25	foodImage.64	FOODEEG_Images\0647.jpg	YN	Left	Yes	0.812859200057574	0	283309	251
554.39453125	2	health	foodImageDisplay	1	25	25	foodImage.64	FOODEEG_Images\0647.jpg	YN	Left	Yes	0.812859200057574	0	283851	252
556.466796875	0.812859200057574	health	choicePhaseStart	1	25	25	foodImage.64	FOODEEG_Images\0647.jpg	YN	Left	Yes	0.812859200057574	0	284912	253
557.271484375	0	health	response	1	25	25	foodImage.64	FOODEEG_Images\0647.jpg	YN	Left	Yes	0.812859200057574	0	285324	234
558.314453125	1	decision	trialStart	1	26	26	foodImage.85	FOODEEG_Images\0841.jpg	NY	Right	Yes	0.998942999984138	0	285858	251
559.388671875	2	decision	foodImageDisplay	1	26	26	foodImage.85	FOODEEG_Images\0841.jpg	NY	Right	Yes	0.998942999984138	0	286408	252
561.45703125	0.998942999984138	decision	choicePhaseStart	1	26	26	foodImage.85	FOODEEG_Images\0841.jpg	NY	Right	Yes	0.998942999984138	0	287467	253
562.447265625	0	decision	response	1	26	26	foodImage.85	FOODEEG_Images\0841.jpg	NY	Right	Yes	0.998942999984138	0	287974	235
563.490234375	1	decision	trialStart	1	27	27	foodImage.81	FOODEEG_Images\0797.jpg	YN	Left	Yes	0.772458099992946	0	288508	251
564.548828125	2	decision	foodImageDisplay	1	27	27	foodImage.81	FOODEEG_Images\0797.jpg	YN	Left	Yes	0.772458099992946	0	289050	252
566.61328125	0.772458099992946	decision	choicePhaseStart	1	27	27	foodImage.81	FOODEEG_Images\0797.jpg	YN	Left	Yes	0.772458099992946	0	290107	253
567.375	0	decision	response	1	27	27	foodImage.81	FOODEEG_Images\0797.jpg	YN	Left	Yes	0.772458099992946	0	290497	234
568.419921875	1	health	trialStart	1	28	28	foodImage.10	FOODEEG_Images\0145.jpg	YN	Right	No	0.617872099974193	0	291032	251
569.478515625	2	health	foodImageDisplay	1	28	28	foodImage.10	FOODEEG_Images\0145.jpg	YN	Right	No	0.617872099974193	0	291574	252
571.541015625	0.617872099974193	health	choicePhaseStart	1	28	28	foodImage.10	FOODEEG_Images\0145.jpg	YN	Right	No	0.617872099974193	0	292630	253
572.150390625	0	health	response	1	28	28	foodImage.10	FOODEEG_Images\0145.jpg	YN	Right	No	0.617872099974193	0	292942	235
573.19140625	1	taste	trialStart	1	29	29	foodImage.39	FOODEEG_Images\0367.jpg	NY	Left	No	0.821130400057882	0	293475	251
574.23046875	2	taste	foodImageDisplay	1	29	29	foodImage.39	FOODEEG_Images\0367.jpg	NY	Left	No	0.821130400057882	0	294007	252
576.29296875	0.821130400057882	taste	choicePhaseStart	1	29	29	foodImage.39	FOODEEG_Images\0367.jpg	NY	Left	No	0.821130400057882	0	295063	253
577.103515625	0	taste	response	1	29	29	foodImage.39	FOODEEG_Images\0367.jpg	NY	Left	No	0.821130400057882	0	295478	234
578.16796875	1	taste	trialStart	1	30	30	foodImage.105	FOODEEG_Images\0913.jpg	NY	Left	No	0.918169200071134	0	296023	251
579.216796875	2	taste	foodImageDisplay	1	30	30	foodImage.105	FOODEEG_Images\0913.jpg	NY	Left	No	0.918169200071134	0	296560	252
581.283203125	0.918169200071134	taste	choicePhaseStart	1	30	30	foodImage.105	FOODEEG_Images\0913.jpg	NY	Left	No	0.918169200071134	0	297618	253
582.19140625	0	taste	response	1	30	30	foodImage.105	FOODEEG_Images\0913.jpg	NY	Left	No	0.918169200071134	0	298083	234
583.234375	1	decision	trialStart	1	31	31	foodImage.47	FOODEEG_Images\0488.jpg	NY	Right	Yes	0.97312769992277	0	298617	251
584.279296875	2	decision	foodImageDisplay	1	31	31	foodImage.47	FOODEEG_Images\0488.jpg	NY	Right	Yes	0.97312769992277	0	299152	252
586.345703125	0.97312769992277	decision	choicePhaseStart	1	31	31	foodImage.47	FOODEEG_Images\0488.jpg	NY	Right	Yes	0.97312769992277	0	300210	253
587.310546875	0	decision	response	1	31	31	foodImage.47	FOODEEG_Images\0488.jpg	NY	Right	Yes	0.97312769992277	0	300704	235
588.3515625	1	health	trialStart	1	32	32	foodImage.62	FOODEEG_Images\0644.jpg	NY	Right	Yes	1.88119250000454	0	301237	251
589.408203125	2	health	foodImageDisplay	1	32	32	foodImage.62	FOODEEG_Images\0644.jpg	NY	Right	Yes	1.88119250000454	0	301778	252
591.470703125	1.88119250000454	health	choicePhaseStart	1	32	32	foodImage.62	FOODEEG_Images\0644.jpg	NY	Right	Yes	1.88119250000454	0	302834	253
593.341796875	0	health	response	1	32	32	foodImage.62	FOODEEG_Images\0644.jpg	NY	Right	Yes	1.88119250000454	0	303792	235
594.390625	1	taste	trialStart	1	33	33	foodImage.50	FOODEEG_Images\0529.jpg	YN	Left	Yes	0.962960500037298	0	304329	251
595.470703125	2	taste	foodImageDisplay	1	33	33	foodImage.50	FOODEEG_Images\0529.jpg	YN	Left	Yes	0.962960500037298	0	304882	252
597.5390625	0.962960500037298	taste	choicePhaseStart	1	33	33	foodImage.50	FOODEEG_Images\0529.jpg	YN	Left	Yes	0.962960500037298	0	305941	253
598.494140625	0	taste	response	1	33	33	foodImage.50	FOODEEG_Images\0529.jpg	YN	Left	Yes	0.962960500037298	0	306430	234
599.544921875	1	taste	trialStart	1	34	34	foodImage.3	FOODEEG_Images\0046.jpg	YN	Right	No	0.883668399997987	0	306968	251
600.58984375	2	taste	foodImageDisplay	1	34	34	foodImage.3	FOODEEG_Images\0046.jpg	YN	Right	No	0.883668399997987	0	307503	252
602.65234375	0.883668399997987	taste	choicePhaseStart	1	34	34	foodImage.3	FOODEEG_Images\0046.jpg	YN	Right	No	0.883668399997987	0	308559	253
603.525390625	0	taste	response	1	34	34	foodImage.3	FOODEEG_Images\0046.jpg	YN	Right	No	0.883668399997987	0	309006	235
604.57421875	1	health	trialStart	1	35	35	foodImage.11	FOODEEG_Images\0180.jpg	YN	Left	Yes	0.687625900027342	0	309543	251
605.6171875	2	health	foodImageDisplay	1	35	35	foodImage.11	FOODEEG_Images\0180.jpg	YN	Left	Yes	0.687625900027342	0	310077	252
607.685546875	0.687625900027342	health	choicePhaseStart	1	35	35	foodImage.11	FOODEEG_Images\0180.jpg	YN	Left	Yes	0.687625900027342	0	311136	253
608.365234375	0	health	response	1	35	35	foodImage.11	FOODEEG_Images\0180.jpg	YN	Left	Yes	0.687625900027342	0	311484	234
609.41015625	1	taste	trialStart	1	36	36	foodImage.52	FOODEEG_Images\0539.jpg	NY	Right	Yes	0.743485099985264	0	312019	251
610.470703125	2	taste	foodImageDisplay	1	36	36	foodImage.52	FOODEEG_Images\0539.jpg	NY	Right	Yes	0.743485099985264	0	312562	252
612.537109375	0.743485099985264	taste	choicePhaseStart	1	36	36	foodImage.52	FOODEEG_Images\0539.jpg	NY	Right	Yes	0.743485099985264	0	313620	253
613.26953125	0	taste	response	1	36	36	foodImage.52	FOODEEG_Images\0539.jpg	NY	Right	Yes	0.743485099985264	0	313995	235
614.314453125	1	taste	trialStart	1	37	37	foodImage.91	FOODEEG_Images\0896.jpg	NY	Right	Yes	0.697658599936403	0	314530	251
615.375	2	taste	foodImageDisplay	1	37	37	foodImage.91	FOODEEG_Images\0896.jpg	NY	Right	Yes	0.697658599936403	0	315073	252
617.443359375	0.697658599936403	taste	choicePhaseStart	1	37	37	foodImage.91	FOODEEG_Images\0896.jpg	NY	Right	Yes	0.697658599936403	0	316132	253
618.1328125	0	taste	response	1	37	37	foodImage.91	FOODEEG_Images\0896.jpg	NY	Right	Yes	0.697658599936403	0	316485	235
619.1796875	1	taste	trialStart	1	38	38	foodImage.47	FOODEEG_Images\0488.jpg	NY	Right	Yes	0.69018649996724	0	317021	251
620.220703125	2	taste	foodImageDisplay	1	38	38	foodImage.47	FOODEEG_Images\0488.jpg	NY	Right	Yes	0.69018649996724	0	317554	252
622.28515625	0.69018649996724	taste	choicePhaseStart	1	38	38	foodImage.47	FOODEEG_Images\0488.jpg	NY	Right	Yes	0.69018649996724	0	318611	253
622.96484375	0	taste	response	1	38	38	foodImage.47	FOODEEG_Images\0488.jpg	NY	Right	Yes	0.69018649996724	0	318959	235
624.0078125	1	health	trialStart	1	39	39	foodImage.63	FOODEEG_Images\0645.jpg	NY	Left	No	1.31250870006625	0	319493	251
625.068359375	2	health	foodImageDisplay	1	39	39	foodImage.63	FOODEEG_Images\0645.jpg	NY	Left	No	1.31250870006625	0	320036	252
627.130859375	1.31250870006625	health	choicePhaseStart	1	39	39	foodImage.63	FOODEEG_Images\0645.jpg	NY	Left	No	1.31250870006625	0	321092	253
628.4375	0	health	response	1	39	39	foodImage.63	FOODEEG_Images\0645.jpg	NY	Left	No	1.31250870006625	0	321761	234
629.48046875	1	decision	trialStart	1	40	40	foodImage.117	FOODEEG_Images\0925.jpg	NY	Right	Yes	1.1587960999459	0	322295	251
630.521484375	2	decision	foodImageDisplay	1	40	40	foodImage.117	FOODEEG_Images\0925.jpg	NY	Right	Yes	1.1587960999459	0	322828	252
632.583984375	1.1587960999459	decision	choicePhaseStart	1	40	40	foodImage.117	FOODEEG_Images\0925.jpg	NY	Right	Yes	1.1587960999459	0	323884	253
633.732421875	0	decision	response	1	40	40	foodImage.117	FOODEEG_Images\0925.jpg	NY	Right	Yes	1.1587960999459	0	324472	235
634.78125	1	decision	trialStart	1	41	41	foodImage.19	FOODEEG_Images\0225.jpg	NY	Right	Yes	0.729696400114335	0	325009	251
635.828125	2	decision	foodImageDisplay	1	41	41	foodImage.19	FOODEEG_Images\0225.jpg	NY	Right	Yes	0.729696400114335	0	325545	252
637.892578125	0.729696400114335	decision	choicePhaseStart	1	41	41	foodImage.19	FOODEEG_Images\0225.jpg	NY	Right	Yes	0.729696400114335	0	326602	253
638.61328125	0	decision	response	1	41	41	foodImage.19	FOODEEG_Images\0225.jpg	NY	Right	Yes	0.729696400114335	0	326971	235
639.65625	1	taste	trialStart	1	42	42	foodImage.54	FOODEEG_Images\0560.jpg	NY	Right	Yes	0.650842800037935	0	327505	251
640.732421875	2	taste	foodImageDisplay	1	42	42	foodImage.54	FOODEEG_Images\0560.jpg	NY	Right	Yes	0.650842800037935	0	328056	252
642.794921875	0.650842800037935	taste	choicePhaseStart	1	42	42	foodImage.54	FOODEEG_Images\0560.jpg	NY	Right	Yes	0.650842800037935	0	329112	253
643.4375	0	taste	response	1	42	42	foodImage.54	FOODEEG_Images\0560.jpg	NY	Right	Yes	0.650842800037935	0	329441	235
644.48046875	1	decision	trialStart	1	43	43	foodImage.40	FOODEEG_Images\0373.jpg	NY	Left	No	0.9686808999395	0	329975	251
645.5234375	2	decision	foodImageDisplay	1	43	43	foodImage.40	FOODEEG_Images\0373.jpg	NY	Left	No	0.9686808999395	0	330509	252
647.587890625	0.9686808999395	decision	choicePhaseStart	1	43	43	foodImage.40	FOODEEG_Images\0373.jpg	NY	Left	No	0.9686808999395	0	331566	253
648.548828125	0	decision	response	1	43	43	foodImage.40	FOODEEG_Images\0373.jpg	NY	Left	No	0.9686808999395	0	332058	234
649.591796875	1	taste	trialStart	1	44	44	foodImage.112	FOODEEG_Images\0920.jpg	NY	Left	No	0.849607000011019	0	332592	251
650.642578125	2	taste	foodImageDisplay	1	44	44	foodImage.112	FOODEEG_Images\0920.jpg	NY	Left	No	0.849607000011019	0	333130	252
652.70703125	0.849607000011019	taste	choicePhaseStart	1	44	44	foodImage.112	FOODEEG_Images\0920.jpg	NY	Left	No	0.849607000011019	0	334187	253
653.548828125	0	taste	response	1	44	44	foodImage.112	FOODEEG_Images\0920.jpg	NY	Left	No	0.849607000011019	0	334618	234
654.591796875	1	health	trialStart	1	45	45	foodImage.26	FOODEEG_Images\0262.jpg	NY	Right	Yes	0.90756840002723	0	335152	251
655.634765625	2	health	foodImageDisplay	1	45	45	foodImage.26	FOODEEG_Images\0262.jpg	NY	Right	Yes	0.90756840002723	0	335686	252
657.697265625	0.90756840002723	health	choicePhaseStart	1	45	45	foodImage.26	FOODEEG_Images\0262.jpg	NY	Right	Yes	0.90756840002723	0	336742	253
658.595703125	0	health	response	1	45	45	foodImage.26	FOODEEG_Images\0262.jpg	NY	Right	Yes	0.90756840002723	0	337202	235
659.640625	1	decision	trialStart	1	46	46	foodImage.77	FOODEEG_Images\0771.jpg	NY	Right	Yes	0.91714320005849	0	337737	251
660.703125	2	decision	foodImageDisplay	1	46	46	foodImage.77	FOODEEG_Images\0771.jpg	NY	Right	Yes	0.91714320005849	0	338281	252
662.767578125	0.91714320005849	decision	choicePhaseStart	1	46	46	foodImage.77	FOODEEG_Images\0771.jpg	NY	Right	Yes	0.91714320005849	0	339338	253
663.67578125	0	decision	response	1	46	46	foodImage.77	FOODEEG_Images\0771.jpg	NY	Right	Yes	0.91714320005849	0	339803	235
664.71875	1	decision	trialStart	1	47	47	foodImage.9	FOODEEG_Images\0138.jpg	YN	Right	No	0.81977319996804	0	340337	251
665.78515625	2	decision	foodImageDisplay	1	47	47	foodImage.9	FOODEEG_Images\0138.jpg	YN	Right	No	0.81977319996804	0	340883	252
667.853515625	0.81977319996804	decision	choicePhaseStart	1	47	47	foodImage.9	FOODEEG_Images\0138.jpg	YN	Right	No	0.81977319996804	0	341942	253
668.66796875	0	decision	response	1	47	47	foodImage.9	FOODEEG_Images\0138.jpg	YN	Right	No	0.81977319996804	0	342359	235
669.7109375	1	taste	trialStart	1	48	48	foodImage.2	FOODEEG_Images\0028.jpg	NY	Right	Yes	0.891113099991344	0	342893	251
670.76171875	2	taste	foodImageDisplay	1	48	48	foodImage.2	FOODEEG_Images\0028.jpg	NY	Right	Yes	0.891113099991344	0	343431	252
672.826171875	0.891113099991344	taste	choicePhaseStart	1	48	48	foodImage.2	FOODEEG_Images\0028.jpg	NY	Right	Yes	0.891113099991344	0	344488	253
673.708984375	0	taste	response	1	48	48	foodImage.2	FOODEEG_Images\0028.jpg	NY	Right	Yes	0.891113099991344	0	344940	235
674.75	1	decision	trialStart	1	49	49	foodImage.74	FOODEEG_Images\0752.jpg	YN	Left	Yes	0.758734300034121	0	345473	251
675.798828125	2	decision	foodImageDisplay	1	49	49	foodImage.74	FOODEEG_Images\0752.jpg	YN	Left	Yes	0.758734300034121	0	346010	252
677.86328125	0.758734300034121	decision	choicePhaseStart	1	49	49	foodImage.74	FOODEEG_Images\0752.jpg	YN	Left	Yes	0.758734300034121	0	347067	253
678.611328125	0	decision	response	1	49	49	foodImage.74	FOODEEG_Images\0752.jpg	YN	Left	Yes	0.758734300034121	0	347450	234
679.65625	1	taste	trialStart	1	50	50	foodImage.22	FOODEEG_Images\0236.jpg	NY	Right	Yes	0.815526199992746	0	347985	251
680.708984375	2	taste	foodImageDisplay	1	50	50	foodImage.22	FOODEEG_Images\0236.jpg	NY	Right	Yes	0.815526199992746	0	348524	252
682.7734375	0.815526199992746	taste	choicePhaseStart	1	50	50	foodImage.22	FOODEEG_Images\0236.jpg	NY	Right	Yes	0.815526199992746	0	349581	253
683.580078125	0	taste	response	1	50	50	foodImage.22	FOODEEG_Images\0236.jpg	NY	Right	Yes	0.815526199992746	0	349994	235
684.625	1	taste	trialStart	1	51	51	foodImage.77	FOODEEG_Images\0771.jpg	NY	Right	Yes	0.603871300001629	0	350529	251
685.669921875	2	taste	foodImageDisplay	1	51	51	foodImage.77	FOODEEG_Images\0771.jpg	NY	Right	Yes	0.603871300001629	0	351064	252
687.73828125	0.603871300001629	taste	choicePhaseStart	1	51	51	foodImage.77	FOODEEG_Images\0771.jpg	NY	Right	Yes	0.603871300001629	0	352123	253
688.33203125	0	taste	response	1	51	51	foodImage.77	FOODEEG_Images\0771.jpg	NY	Right	Yes	0.603871300001629	0	352427	235
689.373046875	1	health	trialStart	1	52	52	foodImage.111	FOODEEG_Images\0919.jpg	NY	Left	No	0.733704899903387	0	352960	251
690.4140625	2	health	foodImageDisplay	1	52	52	foodImage.111	FOODEEG_Images\0919.jpg	NY	Left	No	0.733704899903387	0	353493	252
692.478515625	0.733704899903387	health	choicePhaseStart	1	52	52	foodImage.111	FOODEEG_Images\0919.jpg	NY	Left	No	0.733704899903387	0	354550	253
693.203125	0	health	response	1	52	52	foodImage.111	FOODEEG_Images\0919.jpg	NY	Left	No	0.733704899903387	0	354921	234
694.248046875	1	taste	trialStart	1	53	53	foodImage.45	FOODEEG_Images\0478.jpg	NY	Right	Yes	0.777201000018977	0	355456	251
695.306640625	2	taste	foodImageDisplay	1	53	53	foodImage.45	FOODEEG_Images\0478.jpg	NY	Right	Yes	0.777201000018977	0	355998	252
697.37109375	0.777201000018977	taste	choicePhaseStart	1	53	53	foodImage.45	FOODEEG_Images\0478.jpg	NY	Right	Yes	0.777201000018977	0	357055	253
698.138671875	0	taste	response	1	53	53	foodImage.45	FOODEEG_Images\0478.jpg	NY	Right	Yes	0.777201000018977	0	357448	235
699.1875	1	decision	trialStart	1	54	54	foodImage.104	FOODEEG_Images\0912.jpg	NY	Left	No	1.21397679997608	0	357985	251
700.234375	2	decision	foodImageDisplay	1	54	54	foodImage.104	FOODEEG_Images\0912.jpg	NY	Left	No	1.21397679997608	0	358521	252
702.298828125	1.21397679997608	decision	choicePhaseStart	1	54	54	foodImage.104	FOODEEG_Images\0912.jpg	NY	Left	No	1.21397679997608	0	359578	253
703.505859375	0	decision	response	1	54	54	foodImage.104	FOODEEG_Images\0912.jpg	NY	Left	No	1.21397679997608	0	360196	234
704.548828125	1	taste	trialStart	1	55	55	foodImage.20	FOODEEG_Images\0226.jpg	NY	Left	No	0.835503399954177	0	360730	251
705.59375	2	taste	foodImageDisplay	1	55	55	foodImage.20	FOODEEG_Images\0226.jpg	NY	Left	No	0.835503399954177	0	361265	252
707.662109375	0.835503399954177	taste	choicePhaseStart	1	55	55	foodImage.20	FOODEEG_Images\0226.jpg	NY	Left	No	0.835503399954177	0	362324	253
708.490234375	0	taste	response	1	55	55	foodImage.20	FOODEEG_Images\0226.jpg	NY	Left	No	0.835503399954177	0	362748	234
709.533203125	1	health	trialStart	1	56	56	foodImage.27	FOODEEG_Images\0263.jpg	NY	Right	Yes	0.744454000028782	0	363282	251
710.591796875	2	health	foodImageDisplay	1	56	56	foodImage.27	FOODEEG_Images\0263.jpg	NY	Right	Yes	0.744454000028782	0	363824	252
712.66015625	0.744454000028782	health	choicePhaseStart	1	56	56	foodImage.27	FOODEEG_Images\0263.jpg	NY	Right	Yes	0.744454000028782	0	364883	253
713.39453125	0	health	response	1	56	56	foodImage.27	FOODEEG_Images\0263.jpg	NY	Right	Yes	0.744454000028782	0	365259	235
714.43359375	1	decision	trialStart	1	57	57	foodImage.4	FOODEEG_Images\0065.jpg	NY	Right	Yes	0.77839250001125	0	365791	251
715.4921875	2	decision	foodImageDisplay	1	57	57	foodImage.4	FOODEEG_Images\0065.jpg	NY	Right	Yes	0.77839250001125	0	366333	252
717.5546875	0.77839250001125	decision	choicePhaseStart	1	57	57	foodImage.4	FOODEEG_Images\0065.jpg	NY	Right	Yes	0.77839250001125	0	367389	253
718.322265625	0	decision	response	1	57	57	foodImage.4	FOODEEG_Images\0065.jpg	NY	Right	Yes	0.77839250001125	0	367782	235
719.3671875	1	health	trialStart	1	58	58	foodImage.118	FOODEEG_Images\0926.jpg	NY	Left	No	0.987114700023085	0	368317	251
720.40625	2	health	foodImageDisplay	1	58	58	foodImage.118	FOODEEG_Images\0926.jpg	NY	Left	No	0.987114700023085	0	368849	252
722.47265625	0.987114700023085	health	choicePhaseStart	1	58	58	foodImage.118	FOODEEG_Images\0926.jpg	NY	Left	No	0.987114700023085	0	369907	253
723.451171875	0	health	response	1	58	58	foodImage.118	FOODEEG_Images\0926.jpg	NY	Left	No	0.987114700023085	0	370408	234
724.494140625	1	taste	trialStart	1	59	59	foodImage.23	FOODEEG_Images\0244.jpg	YN	Right	No	1.37476909998804	0	370942	251
725.55078125	2	taste	foodImageDisplay	1	59	59	foodImage.23	FOODEEG_Images\0244.jpg	YN	Right	No	1.37476909998804	0	371483	252
727.619140625	1.37476909998804	taste	choicePhaseStart	1	59	59	foodImage.23	FOODEEG_Images\0244.jpg	YN	Right	No	1.37476909998804	0	372542	253
728.986328125	0	taste	response	1	59	59	foodImage.23	FOODEEG_Images\0244.jpg	YN	Right	No	1.37476909998804	0	373242	235
730.03125	1	decision	trialStart	1	60	60	foodImage.101	FOODEEG_Images\0909.jpg	NY	Right	Yes	0.852847900008783	0	373777	251
731.0703125	2	decision	foodImageDisplay	1	60	60	foodImage.101	FOODEEG_Images\0909.jpg	NY	Right	Yes	0.852847900008783	0	374309	252
733.1328125	0.852847900008783	decision	choicePhaseStart	1	60	60	foodImage.101	FOODEEG_Images\0909.jpg	NY	Right	Yes	0.852847900008783	0	375365	253
733.978515625	0	decision	response	1	60	60	foodImage.101	FOODEEG_Images\0909.jpg	NY	Right	Yes	0.852847900008783	0	375798	235
736.01953125	6.890625	n/a	blockEnd	n/a	n/a	n/a	n/a	n/a	n/a	n/a	n/a	n/a	n/a	376843	254
742.91015625	2	n/a	blockStart	2	n/a	n/a	n/a	n/a	n/a	n/a	n/a	n/a	n/a	380371	250
744.94140625	1	taste	trialStart	2	61	1	foodImage.70	FOODEEG_Images\0705.jpg	YN	Left	Yes	0.863071799976751	0	381411	251
746.00390625	2	taste	foodImageDisplay	2	61	1	foodImage.70	FOODEEG_Images\0705.jpg	YN	Left	Yes	0.863071799976751	0	381955	252
748.06640625	0.863071799976751	taste	choicePhaseStart	2	61	1	foodImage.70	FOODEEG_Images\0705.jpg	YN	Left	Yes	0.863071799976751	0	383011	253
748.921875	0	taste	response	2	61	1	foodImage.70	FOODEEG_Images\0705.jpg	YN	Left	Yes	0.863071799976751	0	383449	234
749.96484375	1	health	trialStart	2	62	2	foodImage.7	FOODEEG_Images\0116.jpg	NY	Left	No	0.820587599999271	0	383983	251
751.005859375	2	health	foodImageDisplay	2	62	2	foodImage.7	FOODEEG_Images\0116.jpg	NY	Left	No	0.820587599999271	0	384516	252
753.0703125	0.820587599999271	health	choicePhaseStart	2	62	2	foodImage.7	FOODEEG_Images\0116.jpg	NY	Left	No	0.820587599999271	0	385573	253
753.880859375	0	health	response	2	62	2	foodImage.7	FOODEEG_Images\0116.jpg	NY	Left	No	0.820587599999271	0	385988	234
754.923828125	1	decision	trialStart	2	63	3	foodImage.46	FOODEEG_Images\0479.jpg	YN	Left	Yes	0.811717899981886	0	386522	251
755.984375	2	decision	foodImageDisplay	2	63	3	foodImage.46	FOODEEG_Images\0479.jpg	YN	Left	Yes	0.811717899981886	0	387065	252
758.046875	0.811717899981886	decision	choicePhaseStart	2	63	3	foodImage.46	FOODEEG_Images\0479.jpg	YN	Left	Yes	0.811717899981886	0	388121	253
758.849609375	0	decision	response	2	63	3	foodImage.46	FOODEEG_Images\0479.jpg	YN	Left	Yes	0.811717899981886	0	388532	234
759.900390625	1	taste	trialStart	2	64	4	foodImage.101	FOODEEG_Images\0909.jpg	YN	Right	No	0.995193100068718	0	389070	251
760.939453125	2	taste	foodImageDisplay	2	64	4	foodImage.101	FOODEEG_Images\0909.jpg	YN	Right	No	0.995193100068718	0	389602	252
763.0078125	0.995193100068718	taste	choicePhaseStart	2	64	4	foodImage.101	FOODEEG_Images\0909.jpg	YN	Right	No	0.995193100068718	0	390661	253
763.994140625	0	taste	response	2	64	4	foodImage.101	FOODEEG_Images\0909.jpg	YN	Right	No	0.995193100068718	0	391166	235
765.03515625	1	taste	trialStart	2	65	5	foodImage.116	FOODEEG_Images\0924.jpg	NY	Left	No	0.666884999955073	0	391699	251
766.076171875	2	taste	foodImageDisplay	2	65	5	foodImage.116	FOODEEG_Images\0924.jpg	NY	Left	No	0.666884999955073	0	392232	252
768.142578125	0.666884999955073	taste	choicePhaseStart	2	65	5	foodImage.116	FOODEEG_Images\0924.jpg	NY	Left	No	0.666884999955073	0	393290	253
768.80078125	0	taste	response	2	65	5	foodImage.116	FOODEEG_Images\0924.jpg	NY	Left	No	0.666884999955073	0	393627	234
769.84375	1	taste	trialStart	2	66	6	foodImage.31	FOODEEG_Images\0294.jpg	YN	Left	Yes	0.863252199953422	0	394161	251
770.892578125	2	taste	foodImageDisplay	2	66	6	foodImage.31	FOODEEG_Images\0294.jpg	YN	Left	Yes	0.863252199953422	0	394698	252
772.955078125	0.863252199953422	taste	choicePhaseStart	2	66	6	foodImage.31	FOODEEG_Images\0294.jpg	YN	Left	Yes	0.863252199953422	0	395754	253
773.80859375	0	taste	response	2	66	6	foodImage.31	FOODEEG_Images\0294.jpg	YN	Left	Yes	0.863252199953422	0	396191	234
774.853515625	1	taste	trialStart	2	67	7	foodImage.59	FOODEEG_Images\0607.jpg	YN	Left	Yes	0.960797799983993	0	396726	251
775.9140625	2	taste	foodImageDisplay	2	67	7	foodImage.59	FOODEEG_Images\0607.jpg	YN	Left	Yes	0.960797799983993	0	397269	252
777.9765625	0.960797799983993	taste	choicePhaseStart	2	67	7	foodImage.59	FOODEEG_Images\0607.jpg	YN	Left	Yes	0.960797799983993	0	398325	253
778.927734375	0	taste	response	2	67	7	foodImage.59	FOODEEG_Images\0607.jpg	YN	Left	Yes	0.960797799983993	0	398812	234
779.970703125	1	taste	trialStart	2	68	8	foodImage.103	FOODEEG_Images\0911.jpg	NY	Left	No	0.710106799961068	0	399346	251
781.009765625	2	taste	foodImageDisplay	2	68	8	foodImage.103	FOODEEG_Images\0911.jpg	NY	Left	No	0.710106799961068	0	399878	252
783.072265625	0.710106799961068	taste	choicePhaseStart	2	68	8	foodImage.103	FOODEEG_Images\0911.jpg	NY	Left	No	0.710106799961068	0	400934	253
783.77734375	0	taste	response	2	68	8	foodImage.103	FOODEEG_Images\0911.jpg	NY	Left	No	0.710106799961068	0	401295	234
784.826171875	1	taste	trialStart	2	69	9	foodImage.68	FOODEEG_Images\0685.jpg	NY	Right	Yes	0.941370800021105	0	401832	251
785.904296875	2	taste	foodImageDisplay	2	69	9	foodImage.68	FOODEEG_Images\0685.jpg	NY	Right	Yes	0.941370800021105	0	402384	252
787.97265625	0.941370800021105	taste	choicePhaseStart	2	69	9	foodImage.68	FOODEEG_Images\0685.jpg	NY	Right	Yes	0.941370800021105	0	403443	253
788.904296875	0	taste	response	2	69	9	foodImage.68	FOODEEG_Images\0685.jpg	NY	Right	Yes	0.941370800021105	0	403920	235
789.947265625	1	decision	trialStart	2	70	10	foodImage.55	FOODEEG_Images\0567.jpg	YN	Left	Yes	0.835124100092798	0	404454	251
791.0078125	2	decision	foodImageDisplay	2	70	10	foodImage.55	FOODEEG_Images\0567.jpg	YN	Left	Yes	0.835124100092798	0	404997	252
793.0703125	0.835124100092798	decision	choicePhaseStart	2	70	10	foodImage.55	FOODEEG_Images\0567.jpg	YN	Left	Yes	0.835124100092798	0	406053	253
793.896484375	0	decision	response	2	70	10	foodImage.55	FOODEEG_Images\0567.jpg	YN	Left	Yes	0.835124100092798	0	406476	234
794.939453125	1	health	trialStart	2	71	11	foodImage.44	FOODEEG_Images\0459.jpg	YN	Left	Yes	0.768198299920186	0	407010	251
795.986328125	2	health	foodImageDisplay	2	71	11	foodImage.44	FOODEEG_Images\0459.jpg	YN	Left	Yes	0.768198299920186	0	407546	252
798.048828125	0.768198299920186	health	choicePhaseStart	2	71	11	foodImage.44	FOODEEG_Images\0459.jpg	YN	Left	Yes	0.768198299920186	0	408602	253
798.80859375	0	health	response	2	71	11	foodImage.44	FOODEEG_Images\0459.jpg	YN	Left	Yes	0.768198299920186	0	408991	234
799.8515625	1	taste	trialStart	2	72	12	foodImage.64	FOODEEG_Images\0647.jpg	YN	Left	Yes	0.582456600037403	0	409525	251
800.912109375	2	taste	foodImageDisplay	2	72	12	foodImage.64	FOODEEG_Images\0647.jpg	YN	Left	Yes	0.582456600037403	0	410068	252
802.9765625	0.582456600037403	taste	choicePhaseStart	2	72	12	foodImage.64	FOODEEG_Images\0647.jpg	YN	Left	Yes	0.582456600037403	0	411125	253
803.552734375	0	taste	response	2	72	12	foodImage.64	FOODEEG_Images\0647.jpg	YN	Left	Yes	0.582456600037403	0	411420	234
804.595703125	1	health	trialStart	2	73	13	foodImage.93	FOODEEG_Images\0901.jpg	YN	Right	No	0.759496200014837	0	411954	251
805.634765625	2	health	foodImageDisplay	2	73	13	foodImage.93	FOODEEG_Images\0901.jpg	YN	Right	No	0.759496200014837	0	412486	252
807.697265625	0.759496200014837	health	choicePhaseStart	2	73	13	foodImage.93	FOODEEG_Images\0901.jpg	YN	Right	No	0.759496200014837	0	413542	253
808.447265625	0	health	response	2	73	13	foodImage.93	FOODEEG_Images\0901.jpg	YN	Right	No	0.759496200014837	0	413926	235
809.4921875	1	health	trialStart	2	74	14	foodImage.86	FOODEEG_Images\0844.jpg	NY	Left	No	0.682891199947335	0	414461	251
810.55078125	2	health	foodImageDisplay	2	74	14	foodImage.86	FOODEEG_Images\0844.jpg	NY	Left	No	0.682891199947335	0	415003	252
812.61328125	0.682891199947335	health	choicePhaseStart	2	74	14	foodImage.86	FOODEEG_Images\0844.jpg	NY	Left	No	0.682891199947335	0	416059	253
813.287109375	0	health	response	2	74	14	foodImage.86	FOODEEG_Images\0844.jpg	NY	Left	No	0.682891199947335	0	416404	234
814.328125	1	decision	trialStart	2	75	15	foodImage.58	FOODEEG_Images\0605.jpg	YN	Right	No	0.752630700008012	0	416937	251
815.388671875	2	decision	foodImageDisplay	2	75	15	foodImage.58	FOODEEG_Images\0605.jpg	YN	Right	No	0.752630700008012	0	417480	252
817.45703125	0.752630700008012	decision	choicePhaseStart	2	75	15	foodImage.58	FOODEEG_Images\0605.jpg	YN	Right	No	0.752630700008012	0	418539	253
818.19921875	0	decision	response	2	75	15	foodImage.58	FOODEEG_Images\0605.jpg	YN	Right	No	0.752630700008012	0	418919	235
819.2421875	1	decision	trialStart	2	76	16	foodImage.71	FOODEEG_Images\0713.jpg	NY	Left	No	0.688206400023773	0	419453	251
820.28515625	2	decision	foodImageDisplay	2	76	16	foodImage.71	FOODEEG_Images\0713.jpg	NY	Left	No	0.688206400023773	0	419987	252
822.353515625	0.688206400023773	decision	choicePhaseStart	2	76	16	foodImage.71	FOODEEG_Images\0713.jpg	NY	Left	No	0.688206400023773	0	421046	253
823.03125	0	decision	response	2	76	16	foodImage.71	FOODEEG_Images\0713.jpg	NY	Left	No	0.688206400023773	0	421393	234
824.07421875	1	taste	trialStart	2	77	17	foodImage.87	FOODEEG_Images\0873.jpg	NY	Right	Yes	0.640175700071268	0	421927	251
825.1484375	2	taste	foodImageDisplay	2	77	17	foodImage.87	FOODEEG_Images\0873.jpg	NY	Right	Yes	0.640175700071268	0	422477	252
827.216796875	0.640175700071268	taste	choicePhaseStart	2	77	17	foodImage.87	FOODEEG_Images\0873.jpg	NY	Right	Yes	0.640175700071268	0	423536	253
827.84765625	0	taste	response	2	77	17	foodImage.87	FOODEEG_Images\0873.jpg	NY	Right	Yes	0.640175700071268	0	423859	235
828.896484375	1	taste	trialStart	2	78	18	foodImage.25	FOODEEG_Images\0261.jpg	NY	Left	No	0.815952199976891	0	424396	251
829.94921875	2	taste	foodImageDisplay	2	78	18	foodImage.25	FOODEEG_Images\0261.jpg	NY	Left	No	0.815952199976891	0	424935	252
832.015625	0.815952199976891	taste	choicePhaseStart	2	78	18	foodImage.25	FOODEEG_Images\0261.jpg	NY	Left	No	0.815952199976891	0	425993	253
832.822265625	0	taste	response	2	78	18	foodImage.25	FOODEEG_Images\0261.jpg	NY	Left	No	0.815952199976891	0	426406	234
833.865234375	1	decision	trialStart	2	79	19	foodImage.51	FOODEEG_Images\0536.jpg	YN	Right	No	1.14001970004756	0	426940	251
834.91796875	2	decision	foodImageDisplay	2	79	19	foodImage.51	FOODEEG_Images\0536.jpg	YN	Right	No	1.14001970004756	0	427479	252
836.98046875	1.14001970004756	decision	choicePhaseStart	2	79	19	foodImage.51	FOODEEG_Images\0536.jpg	YN	Right	No	1.14001970004756	0	428535	253
838.111328125	0	decision	response	2	79	19	foodImage.51	FOODEEG_Images\0536.jpg	YN	Right	No	1.14001970004756	0	429114	235
839.15234375	1	decision	trialStart	2	80	20	foodImage.103	FOODEEG_Images\0911.jpg	NY	Left	No	0.632961599971168	0	429647	251
840.19140625	2	decision	foodImageDisplay	2	80	20	foodImage.103	FOODEEG_Images\0911.jpg	NY	Left	No	0.632961599971168	0	430179	252
842.255859375	0.632961599971168	decision	choicePhaseStart	2	80	20	foodImage.103	FOODEEG_Images\0911.jpg	NY	Left	No	0.632961599971168	0	431236	253
842.87890625	0	decision	response	2	80	20	foodImage.103	FOODEEG_Images\0911.jpg	NY	Left	No	0.632961599971168	0	431555	234
843.927734375	1	health	trialStart	2	81	21	foodImage.25	FOODEEG_Images\0261.jpg	NY	Left	No	0.678841799963266	0	432092	251
844.982421875	2	health	foodImageDisplay	2	81	21	foodImage.25	FOODEEG_Images\0261.jpg	NY	Left	No	0.678841799963266	0	432632	252
847.048828125	0.678841799963266	health	choicePhaseStart	2	81	21	foodImage.25	FOODEEG_Images\0261.jpg	NY	Left	No	0.678841799963266	0	433690	253
847.71875	0	health	response	2	81	21	foodImage.25	FOODEEG_Images\0261.jpg	NY	Left	No	0.678841799963266	0	434033	234
848.76171875	1	health	trialStart	2	82	22	foodImage.91	FOODEEG_Images\0896.jpg	YN	Left	Yes	1.01090739993379	0	434567	251
849.845703125	2	health	foodImageDisplay	2	82	22	foodImage.91	FOODEEG_Images\0896.jpg	YN	Left	Yes	1.01090739993379	0	435122	252
851.908203125	1.01090739993379	health	choicePhaseStart	2	82	22	foodImage.91	FOODEEG_Images\0896.jpg	YN	Left	Yes	1.01090739993379	0	436178	253
852.91015625	0	health	response	2	82	22	foodImage.91	FOODEEG_Images\0896.jpg	YN	Left	Yes	1.01090739993379	0	436691	234
853.958984375	1	health	trialStart	2	83	23	foodImage.120	FOODEEG_Images\0928.jpg	YN	Right	No	0.559617099934258	0	437228	251
855	2	health	foodImageDisplay	2	83	23	foodImage.120	FOODEEG_Images\0928.jpg	YN	Right	No	0.559617099934258	0	437761	252
857.064453125	0.559617099934258	health	choicePhaseStart	2	83	23	foodImage.120	FOODEEG_Images\0928.jpg	YN	Right	No	0.559617099934258	0	438818	253
857.61328125	0	health	response	2	83	23	foodImage.120	FOODEEG_Images\0928.jpg	YN	Right	No	0.559617099934258	0	439099	235
858.658203125	1	health	trialStart	2	84	24	foodImage.34	FOODEEG_Images\0339.jpg	NY	Left	No	1.16546569997445	0	439634	251
859.71484375	2	health	foodImageDisplay	2	84	24	foodImage.34	FOODEEG_Images\0339.jpg	NY	Left	No	1.16546569997445	0	440175	252
861.77734375	1.16546569997445	health	choicePhaseStart	2	84	24	foodImage.34	FOODEEG_Images\0339.jpg	NY	Left	No	1.16546569997445	0	441231	253
862.93359375	0	health	response	2	84	24	foodImage.34	FOODEEG_Images\0339.jpg	NY	Left	No	1.16546569997445	0	441823	234
863.98046875	1	decision	trialStart	2	85	25	foodImage.112	FOODEEG_Images\0920.jpg	YN	Right	No	0.829428100027144	0	442359	251
865.0234375	2	decision	foodImageDisplay	2	85	25	foodImage.112	FOODEEG_Images\0920.jpg	YN	Right	No	0.829428100027144	0	442893	252
867.08984375	0.829428100027144	decision	choicePhaseStart	2	85	25	foodImage.112	FOODEEG_Images\0920.jpg	YN	Right	No	0.829428100027144	0	443951	253
867.91015625	0	decision	response	2	85	25	foodImage.112	FOODEEG_Images\0920.jpg	YN	Right	No	0.829428100027144	0	444371	235
868.953125	1	decision	trialStart	2	86	26	foodImage.39	FOODEEG_Images\0367.jpg	YN	Right	No	0.849012199905701	0	444905	251
870.00390625	2	decision	foodImageDisplay	2	86	26	foodImage.39	FOODEEG_Images\0367.jpg	YN	Right	No	0.849012199905701	0	445443	252
872.068359375	0.849012199905701	decision	choicePhaseStart	2	86	26	foodImage.39	FOODEEG_Images\0367.jpg	YN	Right	No	0.849012199905701	0	446500	253
872.91015625	0	decision	response	2	86	26	foodImage.39	FOODEEG_Images\0367.jpg	YN	Right	No	0.849012199905701	0	446931	235
873.951171875	1	taste	trialStart	2	87	27	foodImage.88	FOODEEG_Images\0878.jpg	NY	Right	Yes	0.713857099995948	0	447464	251
875.01953125	2	taste	foodImageDisplay	2	87	27	foodImage.88	FOODEEG_Images\0878.jpg	NY	Right	Yes	0.713857099995948	0	448011	252
877.083984375	0.713857099995948	taste	choicePhaseStart	2	87	27	foodImage.88	FOODEEG_Images\0878.jpg	NY	Right	Yes	0.713857099995948	0	449068	253
877.7890625	0	taste	response	2	87	27	foodImage.88	FOODEEG_Images\0878.jpg	NY	Right	Yes	0.713857099995948	0	449429	235
878.83203125	1	decision	trialStart	2	88	28	foodImage.92	FOODEEG_Images\0900.jpg	YN	Right	No	0.664547299966216	0	449963	251
879.87109375	2	decision	foodImageDisplay	2	88	28	foodImage.92	FOODEEG_Images\0900.jpg	YN	Right	No	0.664547299966216	0	450495	252
881.93359375	0.664547299966216	decision	choicePhaseStart	2	88	28	foodImage.92	FOODEEG_Images\0900.jpg	YN	Right	No	0.664547299966216	0	451551	253
882.58984375	0	decision	response	2	88	28	foodImage.92	FOODEEG_Images\0900.jpg	YN	Right	No	0.664547299966216	0	451887	235
883.6328125	1	health	trialStart	2	89	29	foodImage.30	FOODEEG_Images\0282.jpg	NY	Left	No	0.734058400033973	0	452421	251
884.6953125	2	health	foodImageDisplay	2	89	29	foodImage.30	FOODEEG_Images\0282.jpg	NY	Left	No	0.734058400033973	0	452965	252
886.759765625	0.734058400033973	health	choicePhaseStart	2	89	29	foodImage.30	FOODEEG_Images\0282.jpg	NY	Left	No	0.734058400033973	0	454022	253
887.484375	0	health	response	2	89	29	foodImage.30	FOODEEG_Images\0282.jpg	NY	Left	No	0.734058400033973	0	454393	234
888.52734375	1	decision	trialStart	2	90	30	foodImage.38	FOODEEG_Images\0365.jpg	YN	Left	Yes	0.599162700003944	0	454927	251
889.56640625	2	decision	foodImageDisplay	2	90	30	foodImage.38	FOODEEG_Images\0365.jpg	YN	Left	Yes	0.599162700003944	0	455459	252
891.630859375	0.599162700003944	decision	choicePhaseStart	2	90	30	foodImage.38	FOODEEG_Images\0365.jpg	YN	Left	Yes	0.599162700003944	0	456516	253
892.220703125	0	decision	response	2	90	30	foodImage.38	FOODEEG_Images\0365.jpg	YN	Left	Yes	0.599162700003944	0	456818	234
893.26953125	1	health	trialStart	2	91	31	foodImage.89	FOODEEG_Images\0881.jpg	YN	Left	Yes	0.589107200037688	0	457355	251
894.330078125	2	health	foodImageDisplay	2	91	31	foodImage.89	FOODEEG_Images\0881.jpg	YN	Left	Yes	0.589107200037688	0	457898	252
896.3984375	0.589107200037688	health	choicePhaseStart	2	91	31	foodImage.89	FOODEEG_Images\0881.jpg	YN	Left	Yes	0.589107200037688	0	458957	253
896.98046875	0	health	response	2	91	31	foodImage.89	FOODEEG_Images\0881.jpg	YN	Left	Yes	0.589107200037688	0	459255	234
898.025390625	1	health	trialStart	2	92	32	foodImage.112	FOODEEG_Images\0920.jpg	YN	Right	No	0.885145300067961	0	459790	251
899.064453125	2	health	foodImageDisplay	2	92	32	foodImage.112	FOODEEG_Images\0920.jpg	YN	Right	No	0.885145300067961	0	460322	252
901.12890625	0.885145300067961	health	choicePhaseStart	2	92	32	foodImage.112	FOODEEG_Images\0920.jpg	YN	Right	No	0.885145300067961	0	461379	253
902.00390625	0	health	response	2	92	32	foodImage.112	FOODEEG_Images\0920.jpg	YN	Right	No	0.885145300067961	0	461827	235
903.044921875	1	health	trialStart	2	93	33	foodImage.77	FOODEEG_Images\0771.jpg	NY	Right	Yes	0.669610199984163	0	462360	251
904.08984375	2	health	foodImageDisplay	2	93	33	foodImage.77	FOODEEG_Images\0771.jpg	NY	Right	Yes	0.669610199984163	0	462895	252
906.15234375	0.669610199984163	health	choicePhaseStart	2	93	33	foodImage.77	FOODEEG_Images\0771.jpg	NY	Right	Yes	0.669610199984163	0	463951	253
906.8125	0	health	response	2	93	33	foodImage.77	FOODEEG_Images\0771.jpg	NY	Right	Yes	0.669610199984163	0	464289	235
907.85546875	1	taste	trialStart	2	94	34	foodImage.57	FOODEEG_Images\0587.jpg	NY	Right	Yes	1.12287439999636	0	464823	251
908.900390625	2	taste	foodImageDisplay	2	94	34	foodImage.57	FOODEEG_Images\0587.jpg	NY	Right	Yes	1.12287439999636	0	465358	252
910.962890625	1.12287439999636	taste	choicePhaseStart	2	94	34	foodImage.57	FOODEEG_Images\0587.jpg	NY	Right	Yes	1.12287439999636	0	466414	253
912.076171875	0	taste	response	2	94	34	foodImage.57	FOODEEG_Images\0587.jpg	NY	Right	Yes	1.12287439999636	0	466984	235
913.119140625	1	health	trialStart	2	95	35	foodImage.79	FOODEEG_Images\0794.jpg	YN	Left	Yes	1.1331649000058	0	467518	251
914.162109375	2	health	foodImageDisplay	2	95	35	foodImage.79	FOODEEG_Images\0794.jpg	YN	Left	Yes	1.1331649000058	0	468052	252
916.224609375	1.1331649000058	health	choicePhaseStart	2	95	35	foodImage.79	FOODEEG_Images\0794.jpg	YN	Left	Yes	1.1331649000058	0	469108	253
917.34765625	0	health	response	2	95	35	foodImage.79	FOODEEG_Images\0794.jpg	YN	Left	Yes	1.1331649000058	0	469683	234
918.392578125	1	health	trialStart	2	96	36	foodImage.116	FOODEEG_Images\0924.jpg	NY	Left	No	1.49731959996279	0	470218	251
919.43359375	2	health	foodImageDisplay	2	96	36	foodImage.116	FOODEEG_Images\0924.jpg	NY	Left	No	1.49731959996279	0	470751	252
921.5	1.49731959996279	health	choicePhaseStart	2	96	36	foodImage.116	FOODEEG_Images\0924.jpg	NY	Left	No	1.49731959996279	0	471809	253
922.98828125	0	health	response	2	96	36	foodImage.116	FOODEEG_Images\0924.jpg	NY	Left	No	1.49731959996279	0	472571	234
924.03125	1	taste	trialStart	2	97	37	foodImage.118	FOODEEG_Images\0926.jpg	NY	Left	No	0.953001599991694	0	473105	251
925.068359375	2	taste	foodImageDisplay	2	97	37	foodImage.118	FOODEEG_Images\0926.jpg	NY	Left	No	0.953001599991694	0	473636	252
927.130859375	0.953001599991694	taste	choicePhaseStart	2	97	37	foodImage.118	FOODEEG_Images\0926.jpg	NY	Left	No	0.953001599991694	0	474692	253
928.076171875	0	taste	response	2	97	37	foodImage.118	FOODEEG_Images\0926.jpg	NY	Left	No	0.953001599991694	0	475176	234
929.1171875	1	taste	trialStart	2	98	38	foodImage.29	FOODEEG_Images\0278.jpg	NY	Left	No	0.860391999944113	0	475709	251
930.16015625	2	taste	foodImageDisplay	2	98	38	foodImage.29	FOODEEG_Images\0278.jpg	NY	Left	No	0.860391999944113	0	476243	252
932.224609375	0.860391999944113	taste	choicePhaseStart	2	98	38	foodImage.29	FOODEEG_Images\0278.jpg	NY	Left	No	0.860391999944113	0	477300	253
933.076171875	0	taste	response	2	98	38	foodImage.29	FOODEEG_Images\0278.jpg	NY	Left	No	0.860391999944113	0	477736	234
934.1171875	1	decision	trialStart	2	99	39	foodImage.90	FOODEEG_Images\0890.jpg	YN	Left	Yes	0.653369300067425	0	478269	251
935.17578125	2	decision	foodImageDisplay	2	99	39	foodImage.90	FOODEEG_Images\0890.jpg	YN	Left	Yes	0.653369300067425	0	478811	252
937.23828125	0.653369300067425	decision	choicePhaseStart	2	99	39	foodImage.90	FOODEEG_Images\0890.jpg	YN	Left	Yes	0.653369300067425	0	479867	253
937.8828125	0	decision	response	2	99	39	foodImage.90	FOODEEG_Images\0890.jpg	YN	Left	Yes	0.653369300067425	0	480197	234
938.927734375	1	taste	trialStart	2	100	40	foodImage.99	FOODEEG_Images\0907.jpg	NY	Left	No	0.646926200017333	0	480732	251
939.966796875	2	taste	foodImageDisplay	2	100	40	foodImage.99	FOODEEG_Images\0907.jpg	NY	Left	No	0.646926200017333	0	481264	252
942.029296875	0.646926200017333	taste	choicePhaseStart	2	100	40	foodImage.99	FOODEEG_Images\0907.jpg	NY	Left	No	0.646926200017333	0	482320	253
942.66796875	0	taste	response	2	100	40	foodImage.99	FOODEEG_Images\0907.jpg	NY	Left	No	0.646926200017333	0	482647	234
943.7109375	1	health	trialStart	2	101	41	foodImage.55	FOODEEG_Images\0567.jpg	NY	Right	Yes	1.10053659998812	0	483181	251
944.78515625	2	health	foodImageDisplay	2	101	41	foodImage.55	FOODEEG_Images\0567.jpg	NY	Right	Yes	1.10053659998812	0	483731	252
946.84765625	1.10053659998812	health	choicePhaseStart	2	101	41	foodImage.55	FOODEEG_Images\0567.jpg	NY	Right	Yes	1.10053659998812	0	484787	253
947.939453125	0	health	response	2	101	41	foodImage.55	FOODEEG_Images\0567.jpg	NY	Right	Yes	1.10053659998812	0	485346	235
948.9921875	1	decision	trialStart	2	102	42	foodImage.100	FOODEEG_Images\0908.jpg	YN	Right	No	1.2268140000524	0	485885	251
950.041015625	2	decision	foodImageDisplay	2	102	42	foodImage.100	FOODEEG_Images\0908.jpg	YN	Right	No	1.2268140000524	0	486422	252
952.10546875	1.2268140000524	decision	choicePhaseStart	2	102	42	foodImage.100	FOODEEG_Images\0908.jpg	YN	Right	No	1.2268140000524	0	487479	253
953.322265625	0	decision	response	2	102	42	foodImage.100	FOODEEG_Images\0908.jpg	YN	Right	No	1.2268140000524	0	488102	235
954.365234375	1	taste	trialStart	2	103	43	foodImage.49	FOODEEG_Images\0515.jpg	NY	Right	Yes	0.661022900021635	0	488636	251
955.408203125	2	taste	foodImageDisplay	2	103	43	foodImage.49	FOODEEG_Images\0515.jpg	NY	Right	Yes	0.661022900021635	0	489170	252
957.47265625	0.661022900021635	taste	choicePhaseStart	2	103	43	foodImage.49	FOODEEG_Images\0515.jpg	NY	Right	Yes	0.661022900021635	0	490227	253
958.123046875	0	taste	response	2	103	43	foodImage.49	FOODEEG_Images\0515.jpg	NY	Right	Yes	0.661022900021635	0	490560	235
959.166015625	1	taste	trialStart	2	104	44	foodImage.67	FOODEEG_Images\0679.jpg	YN	Left	Yes	0.596204299945384	0	491094	251
960.244140625	2	taste	foodImageDisplay	2	104	44	foodImage.67	FOODEEG_Images\0679.jpg	YN	Left	Yes	0.596204299945384	0	491646	252
962.310546875	0.596204299945384	taste	choicePhaseStart	2	104	44	foodImage.67	FOODEEG_Images\0679.jpg	YN	Left	Yes	0.596204299945384	0	492704	253
962.8984375	0	taste	response	2	104	44	foodImage.67	FOODEEG_Images\0679.jpg	YN	Left	Yes	0.596204299945384	0	493005	234
963.94140625	1	decision	trialStart	2	105	45	foodImage.108	FOODEEG_Images\0916.jpg	YN	Right	No	0.635058299987577	0	493539	251
964.9921875	2	decision	foodImageDisplay	2	105	45	foodImage.108	FOODEEG_Images\0916.jpg	YN	Right	No	0.635058299987577	0	494077	252
967.056640625	0.635058299987577	decision	choicePhaseStart	2	105	45	foodImage.108	FOODEEG_Images\0916.jpg	YN	Right	No	0.635058299987577	0	495134	253
967.681640625	0	decision	response	2	105	45	foodImage.108	FOODEEG_Images\0916.jpg	YN	Right	No	0.635058299987577	0	495454	235
968.7265625	1	taste	trialStart	2	106	46	foodImage.17	FOODEEG_Images\0199.jpg	NY	Right	Yes	0.872267000027932	0	495989	251
969.7734375	2	taste	foodImageDisplay	2	106	46	foodImage.17	FOODEEG_Images\0199.jpg	NY	Right	Yes	0.872267000027932	0	496525	252
971.841796875	0.872267000027932	taste	choicePhaseStart	2	106	46	foodImage.17	FOODEEG_Images\0199.jpg	NY	Right	Yes	0.872267000027932	0	497584	253
972.70703125	0	taste	response	2	106	46	foodImage.17	FOODEEG_Images\0199.jpg	NY	Right	Yes	0.872267000027932	0	498027	235
973.748046875	1	health	trialStart	2	107	47	foodImage.74	FOODEEG_Images\0752.jpg	NY	Right	Yes	0.773947000037879	0	498560	251
974.79296875	2	health	foodImageDisplay	2	107	47	foodImage.74	FOODEEG_Images\0752.jpg	NY	Right	Yes	0.773947000037879	0	499095	252
976.861328125	0.773947000037879	health	choicePhaseStart	2	107	47	foodImage.74	FOODEEG_Images\0752.jpg	NY	Right	Yes	0.773947000037879	0	500154	253
977.626953125	0	health	response	2	107	47	foodImage.74	FOODEEG_Images\0752.jpg	NY	Right	Yes	0.773947000037879	0	500546	235
978.67578125	1	health	trialStart	2	108	48	foodImage.43	FOODEEG_Images\0445.jpg	NY	Right	Yes	0.782985700061545	0	501083	251
979.732421875	2	health	foodImageDisplay	2	108	48	foodImage.43	FOODEEG_Images\0445.jpg	NY	Right	Yes	0.782985700061545	0	501624	252
981.80078125	0.782985700061545	health	choicePhaseStart	2	108	48	foodImage.43	FOODEEG_Images\0445.jpg	NY	Right	Yes	0.782985700061545	0	502683	253
982.578125	0	health	response	2	108	48	foodImage.43	FOODEEG_Images\0445.jpg	NY	Right	Yes	0.782985700061545	0	503081	235
983.619140625	1	decision	trialStart	2	109	49	foodImage.64	FOODEEG_Images\0647.jpg	NY	Right	Yes	0.86975860001985	0	503614	251
984.677734375	2	decision	foodImageDisplay	2	109	49	foodImage.64	FOODEEG_Images\0647.jpg	NY	Right	Yes	0.86975860001985	0	504156	252
986.740234375	0.86975860001985	decision	choicePhaseStart	2	109	49	foodImage.64	FOODEEG_Images\0647.jpg	NY	Right	Yes	0.86975860001985	0	505212	253
987.6015625	0	decision	response	2	109	49	foodImage.64	FOODEEG_Images\0647.jpg	NY	Right	Yes	0.86975860001985	0	505653	235
988.64453125	1	decision	trialStart	2	110	50	foodImage.65	FOODEEG_Images\0658.jpg	NY	Left	No	0.642423499957658	0	506187	251
989.685546875	2	decision	foodImageDisplay	2	110	50	foodImage.65	FOODEEG_Images\0658.jpg	NY	Left	No	0.642423499957658	0	506720	252
991.75	0.642423499957658	decision	choicePhaseStart	2	110	50	foodImage.65	FOODEEG_Images\0658.jpg	NY	Left	No	0.642423499957658	0	507777	253
992.38671875	0	decision	response	2	110	50	foodImage.65	FOODEEG_Images\0658.jpg	NY	Left	No	0.642423499957658	0	508103	234
993.4296875	1	decision	trialStart	2	111	51	foodImage.98	FOODEEG_Images\0906.jpg	NY	Left	No	0.579130899976008	0	508637	251
994.48046875	2	decision	foodImageDisplay	2	111	51	foodImage.98	FOODEEG_Images\0906.jpg	NY	Left	No	0.579130899976008	0	509175	252
996.548828125	0.579130899976008	decision	choicePhaseStart	2	111	51	foodImage.98	FOODEEG_Images\0906.jpg	NY	Left	No	0.579130899976008	0	510234	253
997.12109375	0	decision	response	2	111	51	foodImage.98	FOODEEG_Images\0906.jpg	NY	Left	No	0.579130899976008	0	510527	234
998.1640625	1	taste	trialStart	2	112	52	foodImage.36	FOODEEG_Images\0352.jpg	NY	Right	Yes	0.681207200046629	0	511061	251
999.22265625	2	taste	foodImageDisplay	2	112	52	foodImage.36	FOODEEG_Images\0352.jpg	NY	Right	Yes	0.681207200046629	0	511603	252
1001.287109375	0.681207200046629	taste	choicePhaseStart	2	112	52	foodImage.36	FOODEEG_Images\0352.jpg	NY	Right	Yes	0.681207200046629	0	512660	253
1001.9609375	0	taste	response	2	112	52	foodImage.36	FOODEEG_Images\0352.jpg	NY	Right	Yes	0.681207200046629	0	513005	235
1003.005859375	1	health	trialStart	2	113	53	foodImage.104	FOODEEG_Images\0912.jpg	NY	Left	No	0.90338419994805	0	513540	251
1004.04296875	2	health	foodImageDisplay	2	113	53	foodImage.104	FOODEEG_Images\0912.jpg	NY	Left	No	0.90338419994805	0	514071	252
1006.107421875	0.90338419994805	health	choicePhaseStart	2	113	53	foodImage.104	FOODEEG_Images\0912.jpg	NY	Left	No	0.90338419994805	0	515128	253
1007.001953125	0	health	response	2	113	53	foodImage.104	FOODEEG_Images\0912.jpg	NY	Left	No	0.90338419994805	0	515586	234
1008.044921875	1	taste	trialStart	2	114	54	foodImage.9	FOODEEG_Images\0138.jpg	NY	Left	No	0.663885200046934	0	516120	251
1009.107421875	2	taste	foodImageDisplay	2	114	54	foodImage.9	FOODEEG_Images\0138.jpg	NY	Left	No	0.663885200046934	0	516664	252
1011.17578125	0.663885200046934	taste	choicePhaseStart	2	114	54	foodImage.9	FOODEEG_Images\0138.jpg	NY	Left	No	0.663885200046934	0	517723	253
1011.833984375	0	taste	response	2	114	54	foodImage.9	FOODEEG_Images\0138.jpg	NY	Left	No	0.663885200046934	0	518060	234
1012.875	1	taste	trialStart	2	115	55	foodImage.100	FOODEEG_Images\0908.jpg	YN	Right	No	0.948177799931727	0	518593	251
1013.912109375	2	taste	foodImageDisplay	2	115	55	foodImage.100	FOODEEG_Images\0908.jpg	YN	Right	No	0.948177799931727	0	519124	252
1015.974609375	0.948177799931727	taste	choicePhaseStart	2	115	55	foodImage.100	FOODEEG_Images\0908.jpg	YN	Right	No	0.948177799931727	0	520180	253
1016.9140625	0	taste	response	2	115	55	foodImage.100	FOODEEG_Images\0908.jpg	YN	Right	No	0.948177799931727	0	520661	235
1017.95703125	1	taste	trialStart	2	116	56	foodImage.108	FOODEEG_Images\0916.jpg	NY	Left	No	0.789081100025214	0	521195	251
1018.998046875	2	taste	foodImageDisplay	2	116	56	foodImage.108	FOODEEG_Images\0916.jpg	NY	Left	No	0.789081100025214	0	521728	252
1021.060546875	0.789081100025214	taste	choicePhaseStart	2	116	56	foodImage.108	FOODEEG_Images\0916.jpg	NY	Left	No	0.789081100025214	0	522784	253
1021.841796875	0	taste	response	2	116	56	foodImage.108	FOODEEG_Images\0916.jpg	NY	Left	No	0.789081100025214	0	523184	234
1022.890625	1	health	trialStart	2	117	57	foodImage.81	FOODEEG_Images\0797.jpg	YN	Left	Yes	0.853182999999262	0	523721	251
1023.94921875	2	health	foodImageDisplay	2	117	57	foodImage.81	FOODEEG_Images\0797.jpg	YN	Left	Yes	0.853182999999262	0	524263	252
1026.013671875	0.853182999999262	health	choicePhaseStart	2	117	57	foodImage.81	FOODEEG_Images\0797.jpg	YN	Left	Yes	0.853182999999262	0	525320	253
1026.857421875	0	health	response	2	117	57	foodImage.81	FOODEEG_Images\0797.jpg	YN	Left	Yes	0.853182999999262	0	525752	234
1027.90625	1	health	trialStart	2	118	58	foodImage.59	FOODEEG_Images\0607.jpg	YN	Right	No	0.632977199973539	0	526289	251
1028.955078125	2	health	foodImageDisplay	2	118	58	foodImage.59	FOODEEG_Images\0607.jpg	YN	Right	No	0.632977199973539	0	526826	252
1031.017578125	0.632977199973539	health	choicePhaseStart	2	118	58	foodImage.59	FOODEEG_Images\0607.jpg	YN	Right	No	0.632977199973539	0	527882	253
1031.640625	0	health	response	2	118	58	foodImage.59	FOODEEG_Images\0607.jpg	YN	Right	No	0.632977199973539	0	528201	235
1032.689453125	1	decision	trialStart	2	119	59	foodImage.11	FOODEEG_Images\0180.jpg	NY	Right	Yes	1.18853029992897	0	528738	251
1033.732421875	2	decision	foodImageDisplay	2	119	59	foodImage.11	FOODEEG_Images\0180.jpg	NY	Right	Yes	1.18853029992897	0	529272	252
1035.796875	1.18853029992897	decision	choicePhaseStart	2	119	59	foodImage.11	FOODEEG_Images\0180.jpg	NY	Right	Yes	1.18853029992897	0	530329	253
1036.9765625	0	decision	response	2	119	59	foodImage.11	FOODEEG_Images\0180.jpg	NY	Right	Yes	1.18853029992897	0	530933	235
1038.017578125	1	health	trialStart	2	120	60	foodImage.16	FOODEEG_Images\0196.jpg	YN	Left	Yes	0.620665699942037	0	531466	251
1039.078125	2	health	foodImageDisplay	2	120	60	foodImage.16	FOODEEG_Images\0196.jpg	YN	Left	Yes	0.620665699942037	0	532009	252
1041.140625	0.620665699942037	health	choicePhaseStart	2	120	60	foodImage.16	FOODEEG_Images\0196.jpg	YN	Left	Yes	0.620665699942037	0	533065	253
1041.751953125	0	health	response	2	120	60	foodImage.16	FOODEEG_Images\0196.jpg	YN	Left	Yes	0.620665699942037	0	533378	234
1043.802734375	11.345703125	n/a	blockEnd	n/a	n/a	n/a	n/a	n/a	n/a	n/a	n/a	n/a	n/a	534428	254
1055.1484375	2	n/a	blockStart	3	n/a	n/a	n/a	n/a	n/a	n/a	n/a	n/a	n/a	540237	250
1057.1796875	1	decision	trialStart	3	121	1	foodImage.17	FOODEEG_Images\0199.jpg	YN	Right	No	0.810071300016716	0	541277	251
1058.22265625	2	decision	foodImageDisplay	3	121	1	foodImage.17	FOODEEG_Images\0199.jpg	YN	Right	No	0.810071300016716	0	541811	252
1060.287109375	0.810071300016716	decision	choicePhaseStart	3	121	1	foodImage.17	FOODEEG_Images\0199.jpg	YN	Right	No	0.810071300016716	0	542868	253
1061.087890625	0	decision	response	3	121	1	foodImage.17	FOODEEG_Images\0199.jpg	YN	Right	No	0.810071300016716	0	543278	235
1062.13671875	1	health	trialStart	3	122	2	foodImage.117	FOODEEG_Images\0925.jpg	NY	Right	Yes	0.83295559999533	0	543815	251
1063.17578125	2	health	foodImageDisplay	3	122	2	foodImage.117	FOODEEG_Images\0925.jpg	NY	Right	Yes	0.83295559999533	0	544347	252
1065.240234375	0.83295559999533	health	choicePhaseStart	3	122	2	foodImage.117	FOODEEG_Images\0925.jpg	NY	Right	Yes	0.83295559999533	0	545404	253
1066.064453125	0	health	response	3	122	2	foodImage.117	FOODEEG_Images\0925.jpg	NY	Right	Yes	0.83295559999533	0	545826	235
1067.11328125	1	decision	trialStart	3	123	3	foodImage.115	FOODEEG_Images\0923.jpg	NY	Left	No	0.540796900051646	0	546363	251
1068.154296875	2	decision	foodImageDisplay	3	123	3	foodImage.115	FOODEEG_Images\0923.jpg	NY	Left	No	0.540796900051646	0	546896	252
1070.21875	0.540796900051646	decision	choicePhaseStart	3	123	3	foodImage.115	FOODEEG_Images\0923.jpg	NY	Left	No	0.540796900051646	0	547953	253
1070.751953125	0	decision	response	3	123	3	foodImage.115	FOODEEG_Images\0923.jpg	NY	Left	No	0.540796900051646	0	548226	234
1071.794921875	1	health	trialStart	3	124	4	foodImage.8	FOODEEG_Images\0136.jpg	YN	Right	No	0.887085600057617	0	548760	251
1072.837890625	2	health	foodImageDisplay	3	124	4	foodImage.8	FOODEEG_Images\0136.jpg	YN	Right	No	0.887085600057617	0	549294	252
1074.904296875	0.887085600057617	health	choicePhaseStart	3	124	4	foodImage.8	FOODEEG_Images\0136.jpg	YN	Right	No	0.887085600057617	0	550352	253
1075.783203125	0	health	response	3	124	4	foodImage.8	FOODEEG_Images\0136.jpg	YN	Right	No	0.887085600057617	0	550802	235
1076.83203125	1	decision	trialStart	3	125	5	foodImage.111	FOODEEG_Images\0919.jpg	NY	Left	No	0.615771800046787	0	551339	251
1077.873046875	2	decision	foodImageDisplay	3	125	5	foodImage.111	FOODEEG_Images\0919.jpg	NY	Left	No	0.615771800046787	0	551872	252
1079.935546875	0.615771800046787	decision	choicePhaseStart	3	125	5	foodImage.111	FOODEEG_Images\0919.jpg	NY	Left	No	0.615771800046787	0	552928	253
1080.54296875	0	decision	response	3	125	5	foodImage.111	FOODEEG_Images\0919.jpg	NY	Left	No	0.615771800046787	0	553239	234
1081.5859375	1	decision	trialStart	3	126	6	foodImage.37	FOODEEG_Images\0359.jpg	YN	Left	Yes	1.0991042999085	0	553773	251
1082.62890625	2	decision	foodImageDisplay	3	126	6	foodImage.37	FOODEEG_Images\0359.jpg	YN	Left	Yes	1.0991042999085	0	554307	252
1084.697265625	1.0991042999085	decision	choicePhaseStart	3	126	6	foodImage.37	FOODEEG_Images\0359.jpg	YN	Left	Yes	1.0991042999085	0	555366	253
1085.791015625	0	decision	response	3	126	6	foodImage.37	FOODEEG_Images\0359.jpg	YN	Left	Yes	1.0991042999085	0	555926	234
1086.8359375	1	decision	trialStart	3	127	7	foodImage.102	FOODEEG_Images\0910.jpg	YN	Right	No	1.23633580002934	0	556461	251
1087.876953125	2	decision	foodImageDisplay	3	127	7	foodImage.102	FOODEEG_Images\0910.jpg	YN	Right	No	1.23633580002934	0	556994	252
1089.939453125	1.23633580002934	decision	choicePhaseStart	3	127	7	foodImage.102	FOODEEG_Images\0910.jpg	YN	Right	No	1.23633580002934	0	558050	253
1091.166015625	0	decision	response	3	127	7	foodImage.102	FOODEEG_Images\0910.jpg	YN	Right	No	1.23633580002934	0	558678	235
1092.2109375	1	health	trialStart	3	128	8	foodImage.40	FOODEEG_Images\0373.jpg	NY	Left	No	1.06035639997572	0	559213	251
1093.251953125	2	health	foodImageDisplay	3	128	8	foodImage.40	FOODEEG_Images\0373.jpg	NY	Left	No	1.06035639997572	0	559746	252
1095.31640625	1.06035639997572	health	choicePhaseStart	3	128	8	foodImage.40	FOODEEG_Images\0373.jpg	NY	Left	No	1.06035639997572	0	560803	253
1096.3671875	0	health	response	3	128	8	foodImage.40	FOODEEG_Images\0373.jpg	NY	Left	No	1.06035639997572	0	561341	234
1097.408203125	1	taste	trialStart	3	129	9	foodImage.15	FOODEEG_Images\0189.jpg	NY	Right	Yes	1.02133090002462	0	561874	251
1098.46875	2	taste	foodImageDisplay	3	129	9	foodImage.15	FOODEEG_Images\0189.jpg	NY	Right	Yes	1.02133090002462	0	562417	252
1100.53125	1.02133090002462	taste	choicePhaseStart	3	129	9	foodImage.15	FOODEEG_Images\0189.jpg	NY	Right	Yes	1.02133090002462	0	563473	253
1101.54296875	0	taste	response	3	129	9	foodImage.15	FOODEEG_Images\0189.jpg	NY	Right	Yes	1.02133090002462	0	563991	235
1102.583984375	1	decision	trialStart	3	130	10	foodImage.67	FOODEEG_Images\0679.jpg	NY	Right	Yes	0.624148899922147	0	564524	251
1103.640625	2	decision	foodImageDisplay	3	130	10	foodImage.67	FOODEEG_Images\0679.jpg	NY	Right	Yes	0.624148899922147	0	565065	252
1105.703125	0.624148899922147	decision	choicePhaseStart	3	130	10	foodImage.67	FOODEEG_Images\0679.jpg	NY	Right	Yes	0.624148899922147	0	566121	253
1106.318359375	0	decision	response	3	130	10	foodImage.67	FOODEEG_Images\0679.jpg	NY	Right	Yes	0.624148899922147	0	566436	235
1107.361328125	1	health	trialStart	3	131	11	foodImage.99	FOODEEG_Images\0907.jpg	NY	Left	No	0.63149139995221	0	566970	251
1108.400390625	2	health	foodImageDisplay	3	131	11	foodImage.99	FOODEEG_Images\0907.jpg	NY	Left	No	0.63149139995221	0	567502	252
1110.462890625	0.63149139995221	health	choicePhaseStart	3	131	11	foodImage.99	FOODEEG_Images\0907.jpg	NY	Left	No	0.63149139995221	0	568558	253
1111.0859375	0	health	response	3	131	11	foodImage.99	FOODEEG_Images\0907.jpg	NY	Left	No	0.63149139995221	0	568877	234
1112.12890625	1	health	trialStart	3	132	12	foodImage.15	FOODEEG_Images\0189.jpg	YN	Right	No	0.653872000053525	0	569411	251
1113.189453125	2	health	foodImageDisplay	3	132	12	foodImage.15	FOODEEG_Images\0189.jpg	YN	Right	No	0.653872000053525	0	569954	252
1115.255859375	0.653872000053525	health	choicePhaseStart	3	132	12	foodImage.15	FOODEEG_Images\0189.jpg	YN	Right	No	0.653872000053525	0	571012	253
1115.90234375	0	health	response	3	132	12	foodImage.15	FOODEEG_Images\0189.jpg	YN	Right	No	0.653872000053525	0	571343	235
1116.94921875	1	health	trialStart	3	133	13	foodImage.51	FOODEEG_Images\0536.jpg	NY	Left	No	1.11228889995255	0	571879	251
1118.009765625	2	health	foodImageDisplay	3	133	13	foodImage.51	FOODEEG_Images\0536.jpg	NY	Left	No	1.11228889995255	0	572422	252
1120.076171875	1.11228889995255	health	choicePhaseStart	3	133	13	foodImage.51	FOODEEG_Images\0536.jpg	NY	Left	No	1.11228889995255	0	573480	253
1121.181640625	0	health	response	3	133	13	foodImage.51	FOODEEG_Images\0536.jpg	NY	Left	No	1.11228889995255	0	574046	234
1122.22265625	1	taste	trialStart	3	134	14	foodImage.94	FOODEEG_Images\0902.jpg	YN	Left	Yes	0.974516799906269	0	574579	251
1123.27734375	2	taste	foodImageDisplay	3	134	14	foodImage.94	FOODEEG_Images\0902.jpg	YN	Left	Yes	0.974516799906269	0	575119	252
1125.34375	0.974516799906269	taste	choicePhaseStart	3	134	14	foodImage.94	FOODEEG_Images\0902.jpg	YN	Left	Yes	0.974516799906269	0	576177	253
1126.310546875	0	taste	response	3	134	14	foodImage.94	FOODEEG_Images\0902.jpg	YN	Left	Yes	0.974516799906269	0	576672	234
1127.353515625	1	health	trialStart	3	135	15	foodImage.113	FOODEEG_Images\0921.jpg	NY	Left	No	1.10057499993127	0	577206	251
1128.39453125	2	health	foodImageDisplay	3	135	15	foodImage.113	FOODEEG_Images\0921.jpg	NY	Left	No	1.10057499993127	0	577739	252
1130.458984375	1.10057499993127	health	choicePhaseStart	3	135	15	foodImage.113	FOODEEG_Images\0921.jpg	NY	Left	No	1.10057499993127	0	578796	253
1131.548828125	0	health	response	3	135	15	foodImage.113	FOODEEG_Images\0921.jpg	NY	Left	No	1.10057499993127	0	579354	234
1132.58984375	1	health	trialStart	3	136	16	foodImage.82	FOODEEG_Images\0805.jpg	YN	Right	No	1.25184659997467	0	579887	251
1133.66015625	2	health	foodImageDisplay	3	136	16	foodImage.82	FOODEEG_Images\0805.jpg	YN	Right	No	1.25184659997467	0	580435	252
1135.728515625	1.25184659997467	health	choicePhaseStart	3	136	16	foodImage.82	FOODEEG_Images\0805.jpg	YN	Right	No	1.25184659997467	0	581494	253
1136.97265625	0	health	response	3	136	16	foodImage.82	FOODEEG_Images\0805.jpg	YN	Right	No	1.25184659997467	0	582131	235
1138.015625	1	health	trialStart	3	137	17	foodImage.47	FOODEEG_Images\0488.jpg	NY	Left	No	0.795931500033475	0	582665	251
1139.05859375	2	health	foodImageDisplay	3	137	17	foodImage.47	FOODEEG_Images\0488.jpg	NY	Left	No	0.795931500033475	0	583199	252
1141.123046875	0.795931500033475	health	choicePhaseStart	3	137	17	foodImage.47	FOODEEG_Images\0488.jpg	NY	Left	No	0.795931500033475	0	584256	253
1141.91015625	0	health	response	3	137	17	foodImage.47	FOODEEG_Images\0488.jpg	NY	Left	No	0.795931500033475	0	584659	234
1142.951171875	1	decision	trialStart	3	138	18	foodImage.49	FOODEEG_Images\0515.jpg	YN	Left	Yes	0.63547410001047	0	585192	251
1143.994140625	2	decision	foodImageDisplay	3	138	18	foodImage.49	FOODEEG_Images\0515.jpg	YN	Left	Yes	0.63547410001047	0	585726	252
1146.05859375	0.63547410001047	decision	choicePhaseStart	3	138	18	foodImage.49	FOODEEG_Images\0515.jpg	YN	Left	Yes	0.63547410001047	0	586783	253
1146.685546875	0	decision	response	3	138	18	foodImage.49	FOODEEG_Images\0515.jpg	YN	Left	Yes	0.63547410001047	0	587104	234
1147.728515625	1	decision	trialStart	3	139	19	foodImage.59	FOODEEG_Images\0607.jpg	NY	Right	Yes	0.894449100014754	0	587638	251
1148.77734375	2	decision	foodImageDisplay	3	139	19	foodImage.59	FOODEEG_Images\0607.jpg	NY	Right	Yes	0.894449100014754	0	588175	252
1150.845703125	0.894449100014754	decision	choicePhaseStart	3	139	19	foodImage.59	FOODEEG_Images\0607.jpg	NY	Right	Yes	0.894449100014754	0	589234	253
1151.732421875	0	decision	response	3	139	19	foodImage.59	FOODEEG_Images\0607.jpg	NY	Right	Yes	0.894449100014754	0	589688	235
1152.775390625	1	decision	trialStart	3	140	20	foodImage.6	FOODEEG_Images\0113.jpg	YN	Left	Yes	0.718757000053301	0	590222	251
1153.8203125	2	decision	foodImageDisplay	3	140	20	foodImage.6	FOODEEG_Images\0113.jpg	YN	Left	Yes	0.718757000053301	0	590757	252
1155.884765625	0.718757000053301	decision	choicePhaseStart	3	140	20	foodImage.6	FOODEEG_Images\0113.jpg	YN	Left	Yes	0.718757000053301	0	591814	253
1156.59765625	0	decision	response	3	140	20	foodImage.6	FOODEEG_Images\0113.jpg	YN	Left	Yes	0.718757000053301	0	592179	234
1157.640625	1	health	trialStart	3	141	21	foodImage.95	FOODEEG_Images\0903.jpg	YN	Right	No	0.495903999893926	0	592713	251
1158.685546875	2	health	foodImageDisplay	3	141	21	foodImage.95	FOODEEG_Images\0903.jpg	YN	Right	No	0.495903999893926	0	593248	252
1160.75	0.495903999893926	health	choicePhaseStart	3	141	21	foodImage.95	FOODEEG_Images\0903.jpg	YN	Right	No	0.495903999893926	0	594305	253
1161.236328125	0	health	response	3	141	21	foodImage.95	FOODEEG_Images\0903.jpg	YN	Right	No	0.495903999893926	0	594554	235
1162.279296875	1	taste	trialStart	3	142	22	foodImage.7	FOODEEG_Images\0116.jpg	NY	Right	Yes	1.16604109993204	0	595088	251
1163.322265625	2	taste	foodImageDisplay	3	142	22	foodImage.7	FOODEEG_Images\0116.jpg	NY	Right	Yes	1.16604109993204	0	595622	252
1165.388671875	1.16604109993204	taste	choicePhaseStart	3	142	22	foodImage.7	FOODEEG_Images\0116.jpg	NY	Right	Yes	1.16604109993204	0	596680	253
1166.548828125	0	taste	response	3	142	22	foodImage.7	FOODEEG_Images\0116.jpg	NY	Right	Yes	1.16604109993204	0	597274	235
1167.591796875	1	health	trialStart	3	143	23	foodImage.65	FOODEEG_Images\0658.jpg	YN	Right	No	1.14668460004032	0	597808	251
1168.634765625	2	health	foodImageDisplay	3	143	23	foodImage.65	FOODEEG_Images\0658.jpg	YN	Right	No	1.14668460004032	0	598342	252
1170.703125	1.14668460004032	health	choicePhaseStart	3	143	23	foodImage.65	FOODEEG_Images\0658.jpg	YN	Right	No	1.14668460004032	0	599401	253
1171.84375	0	health	response	3	143	23	foodImage.65	FOODEEG_Images\0658.jpg	YN	Right	No	1.14668460004032	0	599985	235
1172.88671875	1	taste	trialStart	3	144	24	foodImage.106	FOODEEG_Images\0914.jpg	NY	Right	Yes	0.879495799890719	0	600519	251
1173.927734375	2	taste	foodImageDisplay	3	144	24	foodImage.106	FOODEEG_Images\0914.jpg	NY	Right	Yes	0.879495799890719	0	601052	252
1175.99609375	0.879495799890719	taste	choicePhaseStart	3	144	24	foodImage.106	FOODEEG_Images\0914.jpg	NY	Right	Yes	0.879495799890719	0	602111	253
1176.8671875	0	taste	response	3	144	24	foodImage.106	FOODEEG_Images\0914.jpg	NY	Right	Yes	0.879495799890719	0	602557	235
1177.912109375	1	health	trialStart	3	145	25	foodImage.33	FOODEEG_Images\0329.jpg	NY	Right	Yes	0.793131000013091	0	603092	251
1178.95703125	2	health	foodImageDisplay	3	145	25	foodImage.33	FOODEEG_Images\0329.jpg	NY	Right	Yes	0.793131000013091	0	603627	252
1181.021484375	0.793131000013091	health	choicePhaseStart	3	145	25	foodImage.33	FOODEEG_Images\0329.jpg	NY	Right	Yes	0.793131000013091	0	604684	253
1181.8046875	0	health	response	3	145	25	foodImage.33	FOODEEG_Images\0329.jpg	NY	Right	Yes	0.793131000013091	0	605085	235
1182.84765625	1	taste	trialStart	3	146	26	foodImage.53	FOODEEG_Images\0547.jpg	NY	Left	No	1.08914900000673	0	605619	251
1183.90625	2	taste	foodImageDisplay	3	146	26	foodImage.53	FOODEEG_Images\0547.jpg	NY	Left	No	1.08914900000673	0	606161	252
1185.96875	1.08914900000673	taste	choicePhaseStart	3	146	26	foodImage.53	FOODEEG_Images\0547.jpg	NY	Left	No	1.08914900000673	0	607217	253
1187.052734375	0	taste	response	3	146	26	foodImage.53	FOODEEG_Images\0547.jpg	NY	Left	No	1.08914900000673	0	607772	234
1188.095703125	1	health	trialStart	3	147	27	foodImage.92	FOODEEG_Images\0900.jpg	YN	Right	No	0.719649699982256	0	608306	251
1189.1328125	2	health	foodImageDisplay	3	147	27	foodImage.92	FOODEEG_Images\0900.jpg	YN	Right	No	0.719649699982256	0	608837	252
1191.197265625	0.719649699982256	health	choicePhaseStart	3	147	27	foodImage.92	FOODEEG_Images\0900.jpg	YN	Right	No	0.719649699982256	0	609894	253
1191.908203125	0	health	response	3	147	27	foodImage.92	FOODEEG_Images\0900.jpg	YN	Right	No	0.719649699982256	0	610258	235
1192.94921875	1	health	trialStart	3	148	28	foodImage.73	FOODEEG_Images\0717.jpg	YN	Left	Yes	1.66113440005574	0	610791	251
1194.0078125	2	health	foodImageDisplay	3	148	28	foodImage.73	FOODEEG_Images\0717.jpg	YN	Left	Yes	1.66113440005574	0	611333	252
1196.072265625	1.66113440005574	health	choicePhaseStart	3	148	28	foodImage.73	FOODEEG_Images\0717.jpg	YN	Left	Yes	1.66113440005574	0	612390	253
1197.72265625	0	health	response	3	148	28	foodImage.73	FOODEEG_Images\0717.jpg	YN	Left	Yes	1.66113440005574	0	613235	234
1198.765625	1	health	trialStart	3	149	29	foodImage.66	FOODEEG_Images\0676.jpg	YN	Right	No	1.20329750003293	0	613769	251
1199.810546875	2	health	foodImageDisplay	3	149	29	foodImage.66	FOODEEG_Images\0676.jpg	YN	Right	No	1.20329750003293	0	614304	252
1201.873046875	1.20329750003293	health	choicePhaseStart	3	149	29	foodImage.66	FOODEEG_Images\0676.jpg	YN	Right	No	1.20329750003293	0	615360	253
1203.06640625	0	health	response	3	149	29	foodImage.66	FOODEEG_Images\0676.jpg	YN	Right	No	1.20329750003293	0	615971	235
1204.111328125	1	decision	trialStart	3	150	30	foodImage.50	FOODEEG_Images\0529.jpg	NY	Right	Yes	0.868798899929971	0	616506	251
1205.16796875	2	decision	foodImageDisplay	3	150	30	foodImage.50	FOODEEG_Images\0529.jpg	NY	Right	Yes	0.868798899929971	0	617047	252
1207.23046875	0.868798899929971	decision	choicePhaseStart	3	150	30	foodImage.50	FOODEEG_Images\0529.jpg	NY	Right	Yes	0.868798899929971	0	618103	253
1208.091796875	0	decision	response	3	150	30	foodImage.50	FOODEEG_Images\0529.jpg	NY	Right	Yes	0.868798899929971	0	618544	235
1209.134765625	1	health	trialStart	3	151	31	foodImage.2	FOODEEG_Images\0028.jpg	YN	Right	No	1.23433990008198	0	619078	251
1210.177734375	2	health	foodImageDisplay	3	151	31	foodImage.2	FOODEEG_Images\0028.jpg	YN	Right	No	1.23433990008198	0	619612	252
1212.24609375	1.23433990008198	health	choicePhaseStart	3	151	31	foodImage.2	FOODEEG_Images\0028.jpg	YN	Right	No	1.23433990008198	0	620671	253
1213.474609375	0	health	response	3	151	31	foodImage.2	FOODEEG_Images\0028.jpg	YN	Right	No	1.23433990008198	0	621300	235
1214.515625	1	health	trialStart	3	152	32	foodImage.78	FOODEEG_Images\0787.jpg	NY	Right	Yes	0.690283000003546	0	621833	251
1215.5625	2	health	foodImageDisplay	3	152	32	foodImage.78	FOODEEG_Images\0787.jpg	NY	Right	Yes	0.690283000003546	0	622369	252
1217.625	0.690283000003546	health	choicePhaseStart	3	152	32	foodImage.78	FOODEEG_Images\0787.jpg	NY	Right	Yes	0.690283000003546	0	623425	253
1218.306640625	0	health	response	3	152	32	foodImage.78	FOODEEG_Images\0787.jpg	NY	Right	Yes	0.690283000003546	0	623774	235
1219.349609375	1	taste	trialStart	3	153	33	foodImage.13	FOODEEG_Images\0183.jpg	NY	Right	Yes	0.754142399993725	0	624308	251
1220.39453125	2	taste	foodImageDisplay	3	153	33	foodImage.13	FOODEEG_Images\0183.jpg	NY	Right	Yes	0.754142399993725	0	624843	252
1222.45703125	0.754142399993725	taste	choicePhaseStart	3	153	33	foodImage.13	FOODEEG_Images\0183.jpg	NY	Right	Yes	0.754142399993725	0	625899	253
1223.203125	0	taste	response	3	153	33	foodImage.13	FOODEEG_Images\0183.jpg	NY	Right	Yes	0.754142399993725	0	626281	235
1224.248046875	1	taste	trialStart	3	154	34	foodImage.104	FOODEEG_Images\0912.jpg	YN	Right	No	1.20673949993216	0	626816	251
1225.28515625	2	taste	foodImageDisplay	3	154	34	foodImage.104	FOODEEG_Images\0912.jpg	YN	Right	No	1.20673949993216	0	627347	252
1227.349609375	1.20673949993216	taste	choicePhaseStart	3	154	34	foodImage.104	FOODEEG_Images\0912.jpg	YN	Right	No	1.20673949993216	0	628404	253
1228.546875	0	taste	response	3	154	34	foodImage.104	FOODEEG_Images\0912.jpg	YN	Right	No	1.20673949993216	0	629017	235
1229.58984375	1	health	trialStart	3	155	35	foodImage.3	FOODEEG_Images\0046.jpg	NY	Left	No	0.700126599986106	0	629551	251
1230.6328125	2	health	foodImageDisplay	3	155	35	foodImage.3	FOODEEG_Images\0046.jpg	NY	Left	No	0.700126599986106	0	630085	252
1232.6953125	0.700126599986106	health	choicePhaseStart	3	155	35	foodImage.3	FOODEEG_Images\0046.jpg	NY	Left	No	0.700126599986106	0	631141	253
1233.38671875	0	health	response	3	155	35	foodImage.3	FOODEEG_Images\0046.jpg	NY	Left	No	0.700126599986106	0	631495	234
1234.4296875	1	taste	trialStart	3	156	36	foodImage.33	FOODEEG_Images\0329.jpg	NY	Right	Yes	0.668340800097212	0	632029	251
1235.48046875	2	taste	foodImageDisplay	3	156	36	foodImage.33	FOODEEG_Images\0329.jpg	NY	Right	Yes	0.668340800097212	0	632567	252
1237.54296875	0.668340800097212	taste	choicePhaseStart	3	156	36	foodImage.33	FOODEEG_Images\0329.jpg	NY	Right	Yes	0.668340800097212	0	633623	253
1238.203125	0	taste	response	3	156	36	foodImage.33	FOODEEG_Images\0329.jpg	NY	Right	Yes	0.668340800097212	0	633961	235
1239.24609375	1	taste	trialStart	3	157	37	foodImage.119	FOODEEG_Images\0927.jpg	YN	Right	No	1.38466809992678	0	634495	251
1240.287109375	2	taste	foodImageDisplay	3	157	37	foodImage.119	FOODEEG_Images\0927.jpg	YN	Right	No	1.38466809992678	0	635028	252
1242.3515625	1.38466809992678	taste	choicePhaseStart	3	157	37	foodImage.119	FOODEEG_Images\0927.jpg	YN	Right	No	1.38466809992678	0	636085	253
1243.73046875	0	taste	response	3	157	37	foodImage.119	FOODEEG_Images\0927.jpg	YN	Right	No	1.38466809992678	0	636791	235
1244.76953125	1	taste	trialStart	3	158	38	foodImage.120	FOODEEG_Images\0928.jpg	YN	Right	No	0.700374300009571	0	637323	251
1245.80859375	2	taste	foodImageDisplay	3	158	38	foodImage.120	FOODEEG_Images\0928.jpg	YN	Right	No	0.700374300009571	0	637855	252
1247.87109375	0.700374300009571	taste	choicePhaseStart	3	158	38	foodImage.120	FOODEEG_Images\0928.jpg	YN	Right	No	0.700374300009571	0	638911	253
1248.5625	0	taste	response	3	158	38	foodImage.120	FOODEEG_Images\0928.jpg	YN	Right	No	0.700374300009571	0	639265	235
1249.60546875	1	decision	trialStart	3	159	39	foodImage.93	FOODEEG_Images\0901.jpg	NY	Left	No	0.823047799989581	0	639799	251
1250.646484375	2	decision	foodImageDisplay	3	159	39	foodImage.93	FOODEEG_Images\0901.jpg	NY	Left	No	0.823047799989581	0	640332	252
1252.71484375	0.823047799989581	decision	choicePhaseStart	3	159	39	foodImage.93	FOODEEG_Images\0901.jpg	NY	Left	No	0.823047799989581	0	641391	253
1253.529296875	0	decision	response	3	159	39	foodImage.93	FOODEEG_Images\0901.jpg	NY	Left	No	0.823047799989581	0	641808	234
1254.572265625	1	taste	trialStart	3	160	40	foodImage.110	FOODEEG_Images\0918.jpg	YN	Left	Yes	1.08541139995214	0	642342	251
1255.611328125	2	taste	foodImageDisplay	3	160	40	foodImage.110	FOODEEG_Images\0918.jpg	YN	Left	Yes	1.08541139995214	0	642874	252
1257.67578125	1.08541139995214	taste	choicePhaseStart	3	160	40	foodImage.110	FOODEEG_Images\0918.jpg	YN	Left	Yes	1.08541139995214	0	643931	253
1258.75390625	0	taste	response	3	160	40	foodImage.110	FOODEEG_Images\0918.jpg	YN	Left	Yes	1.08541139995214	0	644483	234
1259.796875	1	decision	trialStart	3	161	41	foodImage.22	FOODEEG_Images\0236.jpg	NY	Right	Yes	0.880147200077772	0	645017	251
1260.837890625	2	decision	foodImageDisplay	3	161	41	foodImage.22	FOODEEG_Images\0236.jpg	NY	Right	Yes	0.880147200077772	0	645550	252
1262.904296875	0.880147200077772	decision	choicePhaseStart	3	161	41	foodImage.22	FOODEEG_Images\0236.jpg	NY	Right	Yes	0.880147200077772	0	646608	253
1263.77734375	0	decision	response	3	161	41	foodImage.22	FOODEEG_Images\0236.jpg	NY	Right	Yes	0.880147200077772	0	647055	235
1264.8203125	1	taste	trialStart	3	162	42	foodImage.26	FOODEEG_Images\0262.jpg	NY	Right	Yes	1.03100019996054	0	647589	251
1265.86328125	2	taste	foodImageDisplay	3	162	42	foodImage.26	FOODEEG_Images\0262.jpg	NY	Right	Yes	1.03100019996054	0	648123	252
1267.931640625	1.03100019996054	taste	choicePhaseStart	3	162	42	foodImage.26	FOODEEG_Images\0262.jpg	NY	Right	Yes	1.03100019996054	0	649182	253
1268.953125	0	taste	response	3	162	42	foodImage.26	FOODEEG_Images\0262.jpg	NY	Right	Yes	1.03100019996054	0	649705	235
1269.994140625	1	health	trialStart	3	163	43	foodImage.53	FOODEEG_Images\0547.jpg	NY	Left	No	0.869886800064705	0	650238	251
1271.052734375	2	health	foodImageDisplay	3	163	43	foodImage.53	FOODEEG_Images\0547.jpg	NY	Left	No	0.869886800064705	0	650780	252
1273.1171875	0.869886800064705	health	choicePhaseStart	3	163	43	foodImage.53	FOODEEG_Images\0547.jpg	NY	Left	No	0.869886800064705	0	651837	253
1273.9765625	0	health	response	3	163	43	foodImage.53	FOODEEG_Images\0547.jpg	NY	Left	No	0.869886800064705	0	652277	234
1275.01953125	1	taste	trialStart	3	164	44	foodImage.10	FOODEEG_Images\0145.jpg	NY	Right	Yes	0.755008800071664	0	652811	251
1276.080078125	2	taste	foodImageDisplay	3	164	44	foodImage.10	FOODEEG_Images\0145.jpg	NY	Right	Yes	0.755008800071664	0	653354	252
1278.142578125	0.755008800071664	taste	choicePhaseStart	3	164	44	foodImage.10	FOODEEG_Images\0145.jpg	NY	Right	Yes	0.755008800071664	0	654410	253
1278.888671875	0	taste	response	3	164	44	foodImage.10	FOODEEG_Images\0145.jpg	NY	Right	Yes	0.755008800071664	0	654792	235
1279.93359375	1	taste	trialStart	3	165	45	foodImage.21	FOODEEG_Images\0234.jpg	NY	Right	Yes	0.6457236999413	0	655327	251
1280.9921875	2	taste	foodImageDisplay	3	165	45	foodImage.21	FOODEEG_Images\0234.jpg	NY	Right	Yes	0.6457236999413	0	655869	252
1283.052734375	0.6457236999413	taste	choicePhaseStart	3	165	45	foodImage.21	FOODEEG_Images\0234.jpg	NY	Right	Yes	0.6457236999413	0	656924	253
1283.689453125	0	taste	response	3	165	45	foodImage.21	FOODEEG_Images\0234.jpg	NY	Right	Yes	0.6457236999413	0	657250	235
1284.732421875	1	health	trialStart	3	166	46	foodImage.90	FOODEEG_Images\0890.jpg	NY	Right	Yes	0.716579499887303	0	657784	251
1285.7890625	2	health	foodImageDisplay	3	166	46	foodImage.90	FOODEEG_Images\0890.jpg	NY	Right	Yes	0.716579499887303	0	658325	252
1287.859375	0.716579499887303	health	choicePhaseStart	3	166	46	foodImage.90	FOODEEG_Images\0890.jpg	NY	Right	Yes	0.716579499887303	0	659385	253
1288.568359375	0	health	response	3	166	46	foodImage.90	FOODEEG_Images\0890.jpg	NY	Right	Yes	0.716579499887303	0	659748	235
1289.611328125	1	health	trialStart	3	167	47	foodImage.46	FOODEEG_Images\0479.jpg	YN	Left	Yes	0.671260199975222	0	660282	251
1290.681640625	2	health	foodImageDisplay	3	167	47	foodImage.46	FOODEEG_Images\0479.jpg	YN	Left	Yes	0.671260199975222	0	660830	252
1292.751953125	0.671260199975222	health	choicePhaseStart	3	167	47	foodImage.46	FOODEEG_Images\0479.jpg	YN	Left	Yes	0.671260199975222	0	661890	253
1293.416015625	0	health	response	3	167	47	foodImage.46	FOODEEG_Images\0479.jpg	YN	Left	Yes	0.671260199975222	0	662230	234
1294.458984375	1	decision	trialStart	3	168	48	foodImage.14	FOODEEG_Images\0188.jpg	NY	Right	Yes	0.641543700010516	0	662764	251
1295.521484375	2	decision	foodImageDisplay	3	168	48	foodImage.14	FOODEEG_Images\0188.jpg	NY	Right	Yes	0.641543700010516	0	663308	252
1297.583984375	0.641543700010516	decision	choicePhaseStart	3	168	48	foodImage.14	FOODEEG_Images\0188.jpg	NY	Right	Yes	0.641543700010516	0	664364	253
1298.216796875	0	decision	response	3	168	48	foodImage.14	FOODEEG_Images\0188.jpg	NY	Right	Yes	0.641543700010516	0	664688	235
1299.2578125	1	health	trialStart	3	169	49	foodImage.1	FOODEEG_Images\0004.jpg	NY	Left	No	0.748265499947593	0	665221	251
1300.30078125	2	health	foodImageDisplay	3	169	49	foodImage.1	FOODEEG_Images\0004.jpg	NY	Left	No	0.748265499947593	0	665755	252
1302.365234375	0.748265499947593	health	choicePhaseStart	3	169	49	foodImage.1	FOODEEG_Images\0004.jpg	NY	Left	No	0.748265499947593	0	666812	253
1303.103515625	0	health	response	3	169	49	foodImage.1	FOODEEG_Images\0004.jpg	NY	Left	No	0.748265499947593	0	667190	234
1304.1484375	1	health	trialStart	3	170	50	foodImage.29	FOODEEG_Images\0278.jpg	YN	Left	Yes	0.608292500022799	0	667725	251
1305.193359375	2	health	foodImageDisplay	3	170	50	foodImage.29	FOODEEG_Images\0278.jpg	YN	Left	Yes	0.608292500022799	0	668260	252
1307.255859375	0.608292500022799	health	choicePhaseStart	3	170	50	foodImage.29	FOODEEG_Images\0278.jpg	YN	Left	Yes	0.608292500022799	0	669316	253
1307.85546875	0	health	response	3	170	50	foodImage.29	FOODEEG_Images\0278.jpg	YN	Left	Yes	0.608292500022799	0	669623	234
1308.900390625	1	taste	trialStart	3	171	51	foodImage.86	FOODEEG_Images\0844.jpg	NY	Left	No	0.76092879998032	0	670158	251
1309.9609375	2	taste	foodImageDisplay	3	171	51	foodImage.86	FOODEEG_Images\0844.jpg	NY	Left	No	0.76092879998032	0	670701	252
1312.0234375	0.76092879998032	taste	choicePhaseStart	3	171	51	foodImage.86	FOODEEG_Images\0844.jpg	NY	Left	No	0.76092879998032	0	671757	253
1312.775390625	0	taste	response	3	171	51	foodImage.86	FOODEEG_Images\0844.jpg	NY	Left	No	0.76092879998032	0	672142	234
1313.818359375	1	taste	trialStart	3	172	52	foodImage.61	FOODEEG_Images\0640.jpg	NY	Right	Yes	0.586223799968138	0	672676	251
1314.86328125	2	taste	foodImageDisplay	3	172	52	foodImage.61	FOODEEG_Images\0640.jpg	NY	Right	Yes	0.586223799968138	0	673211	252
1316.93359375	0.586223799968138	taste	choicePhaseStart	3	172	52	foodImage.61	FOODEEG_Images\0640.jpg	NY	Right	Yes	0.586223799968138	0	674271	253
1317.51171875	0	taste	response	3	172	52	foodImage.61	FOODEEG_Images\0640.jpg	NY	Right	Yes	0.586223799968138	0	674567	235
1318.55078125	1	taste	trialStart	3	173	53	foodImage.111	FOODEEG_Images\0919.jpg	NY	Left	No	0.592394000035711	0	675099	251
1319.6015625	2	taste	foodImageDisplay	3	173	53	foodImage.111	FOODEEG_Images\0919.jpg	NY	Left	No	0.592394000035711	0	675637	252
1321.6640625	0.592394000035711	taste	choicePhaseStart	3	173	53	foodImage.111	FOODEEG_Images\0919.jpg	NY	Left	No	0.592394000035711	0	676693	253
1322.248046875	0	taste	response	3	173	53	foodImage.111	FOODEEG_Images\0919.jpg	NY	Left	No	0.592394000035711	0	676992	234
1323.291015625	1	decision	trialStart	3	174	54	foodImage.25	FOODEEG_Images\0261.jpg	YN	Right	No	0.955331500037573	0	677526	251
1324.333984375	2	decision	foodImageDisplay	3	174	54	foodImage.25	FOODEEG_Images\0261.jpg	YN	Right	No	0.955331500037573	0	678060	252
1326.3984375	0.955331500037573	decision	choicePhaseStart	3	174	54	foodImage.25	FOODEEG_Images\0261.jpg	YN	Right	No	0.955331500037573	0	679117	253
1327.34375	0	decision	response	3	174	54	foodImage.25	FOODEEG_Images\0261.jpg	YN	Right	No	0.955331500037573	0	679601	235
1328.392578125	1	health	trialStart	3	175	55	foodImage.41	FOODEEG_Images\0409.jpg	NY	Right	Yes	0.768821000005119	0	680138	251
1329.44140625	2	health	foodImageDisplay	3	175	55	foodImage.41	FOODEEG_Images\0409.jpg	NY	Right	Yes	0.768821000005119	0	680675	252
1331.50390625	0.768821000005119	health	choicePhaseStart	3	175	55	foodImage.41	FOODEEG_Images\0409.jpg	NY	Right	Yes	0.768821000005119	0	681731	253
1332.263671875	0	health	response	3	175	55	foodImage.41	FOODEEG_Images\0409.jpg	NY	Right	Yes	0.768821000005119	0	682120	235
1333.306640625	1	taste	trialStart	3	176	56	foodImage.56	FOODEEG_Images\0586.jpg	YN	Left	Yes	1.15310210001189	0	682654	251
1334.3515625	2	taste	foodImageDisplay	3	176	56	foodImage.56	FOODEEG_Images\0586.jpg	YN	Left	Yes	1.15310210001189	0	683189	252
1336.416015625	1.15310210001189	taste	choicePhaseStart	3	176	56	foodImage.56	FOODEEG_Images\0586.jpg	YN	Left	Yes	1.15310210001189	0	684246	253
1337.55859375	0	taste	response	3	176	56	foodImage.56	FOODEEG_Images\0586.jpg	YN	Left	Yes	1.15310210001189	0	684831	234
1338.603515625	1	taste	trialStart	3	177	57	foodImage.72	FOODEEG_Images\0714.jpg	YN	Left	Yes	0.827349200029857	0	685366	251
1339.646484375	2	taste	foodImageDisplay	3	177	57	foodImage.72	FOODEEG_Images\0714.jpg	YN	Left	Yes	0.827349200029857	0	685900	252
1341.71484375	0.827349200029857	taste	choicePhaseStart	3	177	57	foodImage.72	FOODEEG_Images\0714.jpg	YN	Left	Yes	0.827349200029857	0	686959	253
1342.53515625	0	taste	response	3	177	57	foodImage.72	FOODEEG_Images\0714.jpg	YN	Left	Yes	0.827349200029857	0	687379	234
1343.576171875	1	decision	trialStart	3	178	58	foodImage.69	FOODEEG_Images\0693.jpg	NY	Right	Yes	0.857356399996206	0	687912	251
1344.623046875	2	decision	foodImageDisplay	3	178	58	foodImage.69	FOODEEG_Images\0693.jpg	NY	Right	Yes	0.857356399996206	0	688448	252
1346.685546875	0.857356399996206	decision	choicePhaseStart	3	178	58	foodImage.69	FOODEEG_Images\0693.jpg	NY	Right	Yes	0.857356399996206	0	689504	253
1347.53515625	0	decision	response	3	178	58	foodImage.69	FOODEEG_Images\0693.jpg	NY	Right	Yes	0.857356399996206	0	689939	235
1348.576171875	1	health	trialStart	3	179	59	foodImage.115	FOODEEG_Images\0923.jpg	NY	Left	No	0.634486900060438	0	690472	251
1349.615234375	2	health	foodImageDisplay	3	179	59	foodImage.115	FOODEEG_Images\0923.jpg	NY	Left	No	0.634486900060438	0	691004	252
1351.681640625	0.634486900060438	health	choicePhaseStart	3	179	59	foodImage.115	FOODEEG_Images\0923.jpg	NY	Left	No	0.634486900060438	0	692062	253
1352.310546875	0	health	response	3	179	59	foodImage.115	FOODEEG_Images\0923.jpg	NY	Left	No	0.634486900060438	0	692384	234
1353.35546875	1	decision	trialStart	3	180	60	foodImage.10	FOODEEG_Images\0145.jpg	NY	Right	Yes	1.07270109991077	0	692919	251
1354.416015625	2	decision	foodImageDisplay	3	180	60	foodImage.10	FOODEEG_Images\0145.jpg	NY	Right	Yes	1.07270109991077	0	693462	252
1356.478515625	1.07270109991077	decision	choicePhaseStart	3	180	60	foodImage.10	FOODEEG_Images\0145.jpg	NY	Right	Yes	1.07270109991077	0	694518	253
1357.54296875	0	decision	response	3	180	60	foodImage.10	FOODEEG_Images\0145.jpg	NY	Right	Yes	1.07270109991077	0	695063	235
1359.58203125	7.5625	n/a	blockEnd	n/a	n/a	n/a	n/a	n/a	n/a	n/a	n/a	n/a	n/a	696107	254
1367.14453125	2	n/a	blockStart	4	n/a	n/a	n/a	n/a	n/a	n/a	n/a	n/a	n/a	699979	250
1369.177734375	1	decision	trialStart	4	181	1	foodImage.109	FOODEEG_Images\0917.jpg	YN	Right	No	0.593705600011162	0	701020	251
1370.220703125	2	decision	foodImageDisplay	4	181	1	foodImage.109	FOODEEG_Images\0917.jpg	YN	Right	No	0.593705600011162	0	701554	252
1372.28515625	0.593705600011162	decision	choicePhaseStart	4	181	1	foodImage.109	FOODEEG_Images\0917.jpg	YN	Right	No	0.593705600011162	0	702611	253
1372.869140625	0	decision	response	4	181	1	foodImage.109	FOODEEG_Images\0917.jpg	YN	Right	No	0.593705600011162	0	702910	235
1373.9140625	1	taste	trialStart	4	182	2	foodImage.60	FOODEEG_Images\0614.jpg	NY	Right	Yes	0.625047900015488	0	703445	251
1374.974609375	2	taste	foodImageDisplay	4	182	2	foodImage.60	FOODEEG_Images\0614.jpg	NY	Right	Yes	0.625047900015488	0	703988	252
1377.037109375	0.625047900015488	taste	choicePhaseStart	4	182	2	foodImage.60	FOODEEG_Images\0614.jpg	NY	Right	Yes	0.625047900015488	0	705044	253
1377.654296875	0	taste	response	4	182	2	foodImage.60	FOODEEG_Images\0614.jpg	NY	Right	Yes	0.625047900015488	0	705360	235
1378.6953125	1	health	trialStart	4	183	3	foodImage.50	FOODEEG_Images\0529.jpg	NY	Right	Yes	0.789244299987331	0	705893	251
1379.75390625	2	health	foodImageDisplay	4	183	3	foodImage.50	FOODEEG_Images\0529.jpg	NY	Right	Yes	0.789244299987331	0	706435	252
1381.81640625	0.789244299987331	health	choicePhaseStart	4	183	3	foodImage.50	FOODEEG_Images\0529.jpg	NY	Right	Yes	0.789244299987331	0	707491	253
1382.59765625	0	health	response	4	183	3	foodImage.50	FOODEEG_Images\0529.jpg	NY	Right	Yes	0.789244299987331	0	707891	235
1383.646484375	1	decision	trialStart	4	184	4	foodImage.82	FOODEEG_Images\0805.jpg	NY	Right	Yes	1.09555470000487	0	708428	251
1384.703125	2	decision	foodImageDisplay	4	184	4	foodImage.82	FOODEEG_Images\0805.jpg	NY	Right	Yes	1.09555470000487	0	708969	252
1386.765625	1.09555470000487	decision	choicePhaseStart	4	184	4	foodImage.82	FOODEEG_Images\0805.jpg	NY	Right	Yes	1.09555470000487	0	710025	253
1387.853515625	0	decision	response	4	184	4	foodImage.82	FOODEEG_Images\0805.jpg	NY	Right	Yes	1.09555470000487	0	710582	235
1388.896484375	1	decision	trialStart	4	185	5	foodImage.13	FOODEEG_Images\0183.jpg	NY	Right	Yes	0.555510899983346	0	711116	251
1389.939453125	2	decision	foodImageDisplay	4	185	5	foodImage.13	FOODEEG_Images\0183.jpg	NY	Right	Yes	0.555510899983346	0	711650	252
1392.00390625	0.555510899983346	decision	choicePhaseStart	4	185	5	foodImage.13	FOODEEG_Images\0183.jpg	NY	Right	Yes	0.555510899983346	0	712707	253
1392.548828125	0	decision	response	4	185	5	foodImage.13	FOODEEG_Images\0183.jpg	NY	Right	Yes	0.555510899983346	0	712986	235
1393.59375	1	decision	trialStart	4	186	6	foodImage.116	FOODEEG_Images\0924.jpg	NY	Left	No	0.734650100115687	0	713521	251
1394.646484375	2	decision	foodImageDisplay	4	186	6	foodImage.116	FOODEEG_Images\0924.jpg	NY	Left	No	0.734650100115687	0	714060	252
1396.7109375	0.734650100115687	decision	choicePhaseStart	4	186	6	foodImage.116	FOODEEG_Images\0924.jpg	NY	Left	No	0.734650100115687	0	715117	253
1397.4375	0	decision	response	4	186	6	foodImage.116	FOODEEG_Images\0924.jpg	NY	Left	No	0.734650100115687	0	715489	234
1398.478515625	1	health	trialStart	4	187	7	foodImage.106	FOODEEG_Images\0914.jpg	YN	Right	No	0.841094599920325	0	716022	251
1399.51953125	2	health	foodImageDisplay	4	187	7	foodImage.106	FOODEEG_Images\0914.jpg	YN	Right	No	0.841094599920325	0	716555	252
1401.587890625	0.841094599920325	health	choicePhaseStart	4	187	7	foodImage.106	FOODEEG_Images\0914.jpg	YN	Right	No	0.841094599920325	0	717614	253
1402.421875	0	health	response	4	187	7	foodImage.106	FOODEEG_Images\0914.jpg	YN	Right	No	0.841094599920325	0	718041	235
1403.462890625	1	decision	trialStart	4	188	8	foodImage.70	FOODEEG_Images\0705.jpg	NY	Right	Yes	0.77888689993415	0	718574	251
1404.5234375	2	decision	foodImageDisplay	4	188	8	foodImage.70	FOODEEG_Images\0705.jpg	NY	Right	Yes	0.77888689993415	0	719117	252
1406.59375	0.77888689993415	decision	choicePhaseStart	4	188	8	foodImage.70	FOODEEG_Images\0705.jpg	NY	Right	Yes	0.77888689993415	0	720177	253
1407.365234375	0	decision	response	4	188	8	foodImage.70	FOODEEG_Images\0705.jpg	NY	Right	Yes	0.77888689993415	0	720572	235
1408.41015625	1	decision	trialStart	4	189	9	foodImage.94	FOODEEG_Images\0902.jpg	NY	Left	No	1.22028009989299	0	721107	251
1409.44921875	2	decision	foodImageDisplay	4	189	9	foodImage.94	FOODEEG_Images\0902.jpg	NY	Left	No	1.22028009989299	0	721639	252
1411.513671875	1.22028009989299	decision	choicePhaseStart	4	189	9	foodImage.94	FOODEEG_Images\0902.jpg	NY	Left	No	1.22028009989299	0	722696	253
1412.724609375	0	decision	response	4	189	9	foodImage.94	FOODEEG_Images\0902.jpg	NY	Left	No	1.22028009989299	0	723316	234
1413.76953125	1	decision	trialStart	4	190	10	foodImage.16	FOODEEG_Images\0196.jpg	YN	Left	Yes	0.898584400070831	0	723851	251
1414.828125	2	decision	foodImageDisplay	4	190	10	foodImage.16	FOODEEG_Images\0196.jpg	YN	Left	Yes	0.898584400070831	0	724393	252
1416.890625	0.898584400070831	decision	choicePhaseStart	4	190	10	foodImage.16	FOODEEG_Images\0196.jpg	YN	Left	Yes	0.898584400070831	0	725449	253
1417.78125	0	decision	response	4	190	10	foodImage.16	FOODEEG_Images\0196.jpg	YN	Left	Yes	0.898584400070831	0	725905	234
1418.830078125	1	taste	trialStart	4	191	11	foodImage.84	FOODEEG_Images\0830.jpg	NY	Right	Yes	0.994369299965911	0	726442	251
1419.89453125	2	taste	foodImageDisplay	4	191	11	foodImage.84	FOODEEG_Images\0830.jpg	NY	Right	Yes	0.994369299965911	0	726987	252
1421.955078125	0.994369299965911	taste	choicePhaseStart	4	191	11	foodImage.84	FOODEEG_Images\0830.jpg	NY	Right	Yes	0.994369299965911	0	728042	253
1422.939453125	0	taste	response	4	191	11	foodImage.84	FOODEEG_Images\0830.jpg	NY	Right	Yes	0.994369299965911	0	728546	235
1423.982421875	1	health	trialStart	4	192	12	foodImage.56	FOODEEG_Images\0586.jpg	YN	Left	Yes	0.63654029997997	0	729080	251
1425.025390625	2	health	foodImageDisplay	4	192	12	foodImage.56	FOODEEG_Images\0586.jpg	YN	Left	Yes	0.63654029997997	0	729614	252
1427.08984375	0.63654029997997	health	choicePhaseStart	4	192	12	foodImage.56	FOODEEG_Images\0586.jpg	YN	Left	Yes	0.63654029997997	0	730671	253
1427.716796875	0	health	response	4	192	12	foodImage.56	FOODEEG_Images\0586.jpg	YN	Left	Yes	0.63654029997997	0	730992	234
1428.759765625	1	decision	trialStart	4	193	13	foodImage.78	FOODEEG_Images\0787.jpg	NY	Right	Yes	0.56246059993282	0	731526	251
1429.802734375	2	decision	foodImageDisplay	4	193	13	foodImage.78	FOODEEG_Images\0787.jpg	NY	Right	Yes	0.56246059993282	0	732060	252
1431.8671875	0.56246059993282	decision	choicePhaseStart	4	193	13	foodImage.78	FOODEEG_Images\0787.jpg	NY	Right	Yes	0.56246059993282	0	733117	253
1432.419921875	0	decision	response	4	193	13	foodImage.78	FOODEEG_Images\0787.jpg	NY	Right	Yes	0.56246059993282	0	733400	235
1433.46484375	1	health	trialStart	4	194	14	foodImage.84	FOODEEG_Images\0830.jpg	YN	Left	Yes	0.688743200036697	0	733935	251
