onset	duration	trial_type	event_type	block	trial_total	trial_in_block	food_image_code	food_image_path	button_position	resp_position	resp_choice	choice_rt	resp_too_slow	sample	trigger
284.708984375	2	n/a	blockStart	1	n/a	n/a	n/a	n/a	n/a	n/a	n/a	n/a	n/a	145772	250
286.74609375	1	health	trialStart	1	1	1	foodImage.100	FOODEEG_Images\0908.jpg	YN	Left	Yes	2.25717870000517	0	146815	251
287.8125	2	health	foodImageDisplay	1	1	1	foodImage.100	FOODEEG_Images\0908.jpg	YN	Left	Yes	2.25717870000517	0	147361	252
289.876953125	2.25717870000517	health	choicePhaseStart	1	1	1	foodImage.100	FOODEEG_Images\0908.jpg	YN	Left	Yes	2.25717870000517	0	148418	253
292.125	0	health	response	1	1	1	foodImage.100	FOODEEG_Images\0908.jpg	YN	Left	Yes	2.25717870000517	0	149569	234
293.216796875	1	taste	trialStart	1	2	2	foodImage.28	FOODEEG_Images\0273.jpg	YN	Right	No	2.00210789998528	0	150128	251
294.259765625	2	taste	foodImageDisplay	1	2	2	foodImage.28	FOODEEG_Images\0273.jpg	YN	Right	No	2.00210789998528	0	150662	252
296.322265625	2.00210789998528	taste	choicePhaseStart	1	2	2	foodImage.28	FOODEEG_Images\0273.jpg	YN	Right	No	2.00210789998528	0	151718	253
298.31640625	0	taste	response	1	2	2	foodImage.28	FOODEEG_Images\0273.jpg	YN	Right	No	2.00210789998528	0	152739	235
299.3671875	1	taste	trialStart	1	3	3	foodImage.105	FOODEEG_Images\0913.jpg	YN	Right	No	1.51480780000566	0	153277	251
300.404296875	2	taste	foodImageDisplay	1	3	3	foodImage.105	FOODEEG_Images\0913.jpg	YN	Right	No	1.51480780000566	0	153808	252
302.47265625	1.51480780000566	taste	choicePhaseStart	1	3	3	foodImage.105	FOODEEG_Images\0913.jpg	YN	Right	No	1.51480780000566	0	154867	253
303.98046875	0	taste	response	1	3	3	foodImage.105	FOODEEG_Images\0913.jpg	YN	Right	No	1.51480780000566	0	155639	235
305.03125	1	health	trialStart	1	4	4	foodImage.71	FOODEEG_Images\0713.jpg	NY	Left	No	1.739113299991	0	156177	251
306.07421875	2	health	foodImageDisplay	1	4	4	foodImage.71	FOODEEG_Images\0713.jpg	NY	Left	No	1.739113299991	0	156711	252
308.13671875	1.739113299991	health	choicePhaseStart	1	4	4	foodImage.71	FOODEEG_Images\0713.jpg	NY	Left	No	1.739113299991	0	157767	253
309.869140625	0	health	response	1	4	4	foodImage.71	FOODEEG_Images\0713.jpg	NY	Left	No	1.739113299991	0	158654	234
310.919921875	1	decision	trialStart	1	5	5	foodImage.118	FOODEEG_Images\0926.jpg	NY	Left	No	2.76436900004046	0	159192	251
311.9609375	2	decision	foodImageDisplay	1	5	5	foodImage.118	FOODEEG_Images\0926.jpg	NY	Left	No	2.76436900004046	0	159725	252
314.0234375	2.76436900004046	decision	choicePhaseStart	1	5	5	foodImage.118	FOODEEG_Images\0926.jpg	NY	Left	No	2.76436900004046	0	160781	253
316.779296875	0	decision	response	1	5	5	foodImage.118	FOODEEG_Images\0926.jpg	NY	Left	No	2.76436900004046	0	162192	234
317.830078125	1	taste	trialStart	1	6	6	foodImage.52	FOODEEG_Images\0539.jpg	YN	Left	Yes	1.6437014999683	0	162730	251
318.8984375	2	taste	foodImageDisplay	1	6	6	foodImage.52	FOODEEG_Images\0539.jpg	YN	Left	Yes	1.6437014999683	0	163277	252
320.9609375	1.6437014999683	taste	choicePhaseStart	1	6	6	foodImage.52	FOODEEG_Images\0539.jpg	YN	Left	Yes	1.6437014999683	0	164333	253
322.595703125	0	taste	response	1	6	6	foodImage.52	FOODEEG_Images\0539.jpg	YN	Left	Yes	1.6437014999683	0	165170	234
323.63671875	1	taste	trialStart	1	7	7	foodImage.42	FOODEEG_Images\0438.jpg	YN	Right	No	1.95281619997695	0	165703	251
324.72265625	2	taste	foodImageDisplay	1	7	7	foodImage.42	FOODEEG_Images\0438.jpg	YN	Right	No	1.95281619997695	0	166259	252
326.78515625	1.95281619997695	taste	choicePhaseStart	1	7	7	foodImage.42	FOODEEG_Images\0438.jpg	YN	Right	No	1.95281619997695	0	167315	253
328.732421875	0	taste	response	1	7	7	foodImage.42	FOODEEG_Images\0438.jpg	YN	Right	No	1.95281619997695	0	168312	235
329.775390625	1	taste	trialStart	1	8	8	foodImage.32	FOODEEG_Images\0319.jpg	NY	Right	Yes	1.66642789996695	0	168846	251
330.818359375	2	taste	foodImageDisplay	1	8	8	foodImage.32	FOODEEG_Images\0319.jpg	NY	Right	Yes	1.66642789996695	0	169380	252
332.880859375	1.66642789996695	taste	choicePhaseStart	1	8	8	foodImage.32	FOODEEG_Images\0319.jpg	NY	Right	Yes	1.66642789996695	0	170436	253
334.5390625	0	taste	response	1	8	8	foodImage.32	FOODEEG_Images\0319.jpg	NY	Right	Yes	1.66642789996695	0	171285	235
335.580078125	1	taste	trialStart	1	9	9	foodImage.36	FOODEEG_Images\0352.jpg	YN	Right	No	4.75140399998054	0	171818	251
336.63671875	2	taste	foodImageDisplay	1	9	9	foodImage.36	FOODEEG_Images\0352.jpg	YN	Right	No	4.75140399998054	0	172359	252
338.69921875	4.75140399998054	taste	choicePhaseStart	1	9	9	foodImage.36	FOODEEG_Images\0352.jpg	YN	Right	No	4.75140399998054	0	173415	253
343.443359375	0	taste	response	1	9	9	foodImage.36	FOODEEG_Images\0352.jpg	YN	Right	No	4.75140399998054	0	175844	235
344.4921875	1	taste	trialStart	1	10	10	foodImage.70	FOODEEG_Images\0705.jpg	YN	Left	Yes	1.0015080999583	0	176381	251
345.546875	2	taste	foodImageDisplay	1	10	10	foodImage.70	FOODEEG_Images\0705.jpg	YN	Left	Yes	1.0015080999583	0	176921	252
347.609375	1.0015080999583	taste	choicePhaseStart	1	10	10	foodImage.70	FOODEEG_Images\0705.jpg	YN	Left	Yes	1.0015080999583	0	177977	253
348.603515625	0	taste	response	1	10	10	foodImage.70	FOODEEG_Images\0705.jpg	YN	Left	Yes	1.0015080999583	0	178486	234
349.646484375	1	decision	trialStart	1	11	11	foodImage.102	FOODEEG_Images\0910.jpg	NY	Left	No	3.42208590003429	0	179020	251
350.685546875	2	decision	foodImageDisplay	1	11	11	foodImage.102	FOODEEG_Images\0910.jpg	NY	Left	No	3.42208590003429	0	179552	252
352.748046875	3.42208590003429	decision	choicePhaseStart	1	11	11	foodImage.102	FOODEEG_Images\0910.jpg	NY	Left	No	3.42208590003429	0	180608	253
356.162109375	0	decision	response	1	11	11	foodImage.102	FOODEEG_Images\0910.jpg	NY	Left	No	3.42208590003429	0	182356	234
357.208984375	1	health	trialStart	1	12	12	foodImage.5	FOODEEG_Images\0107.jpg	YN	Right	No	1.50669409998227	0	182892	251
358.263671875	2	health	foodImageDisplay	1	12	12	foodImage.5	FOODEEG_Images\0107.jpg	YN	Right	No	1.50669409998227	0	183432	252
360.328125	1.50669409998227	health	choicePhaseStart	1	12	12	foodImage.5	FOODEEG_Images\0107.jpg	YN	Right	No	1.50669409998227	0	184489	253
361.826171875	0	health	response	1	12	12	foodImage.5	FOODEEG_Images\0107.jpg	YN	Right	No	1.50669409998227	0	185256	235
362.8671875	1	decision	trialStart	1	13	13	foodImage.60	FOODEEG_Images\0614.jpg	YN	Left	Yes	1.50622550002299	0	185789	251
363.921875	2	decision	foodImageDisplay	1	13	13	foodImage.60	FOODEEG_Images\0614.jpg	YN	Left	Yes	1.50622550002299	0	186329	252
365.986328125	1.50622550002299	decision	choicePhaseStart	1	13	13	foodImage.60	FOODEEG_Images\0614.jpg	YN	Left	Yes	1.50622550002299	0	187386	253
367.482421875	0	decision	response	1	13	13	foodImage.60	FOODEEG_Images\0614.jpg	YN	Left	Yes	1.50622550002299	0	188152	234
368.53125	1	taste	trialStart	1	14	14	foodImage.5	FOODEEG_Images\0107.jpg	YN	Left	Yes	4.69726289995015	0	188689	251
369.5859375	2	taste	foodImageDisplay	1	14	14	foodImage.5	FOODEEG_Images\0107.jpg	YN	Left	Yes	4.69726289995015	0	189229	252
371.6484375	4.69726289995015	taste	choicePhaseStart	1	14	14	foodImage.5	FOODEEG_Images\0107.jpg	YN	Left	Yes	4.69726289995015	0	190285	253
376.337890625	0	taste	response	1	14	14	foodImage.5	FOODEEG_Images\0107.jpg	YN	Left	Yes	4.69726289995015	0	192686	234
377.3828125	1	health	trialStart	1	15	15	foodImage.75	FOODEEG_Images\0763.jpg	NY	Right	Yes	1.33577850001166	0	193221	251
378.42578125	2	health	foodImageDisplay	1	15	15	foodImage.75	FOODEEG_Images\0763.jpg	NY	Right	Yes	1.33577850001166	0	193755	252
380.48828125	1.33577850001166	health	choicePhaseStart	1	15	15	foodImage.75	FOODEEG_Images\0763.jpg	NY	Right	Yes	1.33577850001166	0	194811	253
381.81640625	0	health	response	1	15	15	foodImage.75	FOODEEG_Images\0763.jpg	NY	Right	Yes	1.33577850001166	0	195491	235
382.859375	1	health	trialStart	1	16	16	foodImage.58	FOODEEG_Images\0605.jpg	YN	Left	Yes	1.78444160002982	0	196025	251
383.9140625	2	health	foodImageDisplay	1	16	16	foodImage.58	FOODEEG_Images\0605.jpg	YN	Left	Yes	1.78444160002982	0	196565	252
385.9765625	1.78444160002982	health	choicePhaseStart	1	16	16	foodImage.58	FOODEEG_Images\0605.jpg	YN	Left	Yes	1.78444160002982	0	197621	253
387.75390625	0	health	response	1	16	16	foodImage.58	FOODEEG_Images\0605.jpg	YN	Left	Yes	1.78444160002982	0	198531	234
388.794921875	1	decision	trialStart	1	17	17	foodImage.90	FOODEEG_Images\0890.jpg	NY	Left	No	1.51325869996799	0	199064	251
389.849609375	2	decision	foodImageDisplay	1	17	17	foodImage.90	FOODEEG_Images\0890.jpg	NY	Left	No	1.51325869996799	0	199604	252
391.912109375	1.51325869996799	decision	choicePhaseStart	1	17	17	foodImage.90	FOODEEG_Images\0890.jpg	NY	Left	No	1.51325869996799	0	200660	253
393.416015625	0	decision	response	1	17	17	foodImage.90	FOODEEG_Images\0890.jpg	NY	Left	No	1.51325869996799	0	201430	234
394.4609375	1	taste	trialStart	1	18	18	foodImage.39	FOODEEG_Images\0367.jpg	YN	Left	Yes	1.96718179999152	0	201965	251
395.498046875	2	taste	foodImageDisplay	1	18	18	foodImage.39	FOODEEG_Images\0367.jpg	YN	Left	Yes	1.96718179999152	0	202496	252
397.5625	1.96718179999152	taste	choicePhaseStart	1	18	18	foodImage.39	FOODEEG_Images\0367.jpg	YN	Left	Yes	1.96718179999152	0	203553	253
399.521484375	0	taste	response	1	18	18	foodImage.39	FOODEEG_Images\0367.jpg	YN	Left	Yes	1.96718179999152	0	204556	234
400.564453125	1	taste	trialStart	1	19	19	foodImage.81	FOODEEG_Images\0797.jpg	NY	Left	No	2.96144599997206	0	205090	251
401.623046875	2	taste	foodImageDisplay	1	19	19	foodImage.81	FOODEEG_Images\0797.jpg	NY	Left	No	2.96144599997206	0	205632	252
403.685546875	2.96144599997206	taste	choicePhaseStart	1	19	19	foodImage.81	FOODEEG_Images\0797.jpg	NY	Left	No	2.96144599997206	0	206688	253
406.640625	0	taste	response	1	19	19	foodImage.81	FOODEEG_Images\0797.jpg	NY	Left	No	2.96144599997206	0	208201	234
407.68359375	1	taste	trialStart	1	20	20	foodImage.113	FOODEEG_Images\0921.jpg	YN	Right	No	1.54292420001002	0	208735	251
408.724609375	2	taste	foodImageDisplay	1	20	20	foodImage.113	FOODEEG_Images\0921.jpg	YN	Right	No	1.54292420001002	0	209268	252
410.787109375	1.54292420001002	taste	choicePhaseStart	1	20	20	foodImage.113	FOODEEG_Images\0921.jpg	YN	Right	No	1.54292420001002	0	210324	253
412.3203125	0	taste	response	1	20	20	foodImage.113	FOODEEG_Images\0921.jpg	YN	Right	No	1.54292420001002	0	211109	235
413.361328125	1	health	trialStart	1	21	21	foodImage.10	FOODEEG_Images\0145.jpg	YN	Right	No	4.18290190002881	0	211642	251
414.419921875	2	health	foodImageDisplay	1	21	21	foodImage.10	FOODEEG_Images\0145.jpg	YN	Right	No	4.18290190002881	0	212184	252
416.482421875	4.18290190002881	health	choicePhaseStart	1	21	21	foodImage.10	FOODEEG_Images\0145.jpg	YN	Right	No	4.18290190002881	0	213240	253
420.65625	0	health	response	1	21	21	foodImage.10	FOODEEG_Images\0145.jpg	YN	Right	No	4.18290190002881	0	215377	235
421.703125	1	taste	trialStart	1	22	22	foodImage.94	FOODEEG_Images\0902.jpg	YN	Right	No	0.93360049999319	0	215913	251
422.740234375	2	taste	foodImageDisplay	1	22	22	foodImage.94	FOODEEG_Images\0902.jpg	YN	Right	No	0.93360049999319	0	216444	252
424.802734375	0.93360049999319	taste	choicePhaseStart	1	22	22	foodImage.94	FOODEEG_Images\0902.jpg	YN	Right	No	0.93360049999319	0	217500	253
425.7265625	0	taste	response	1	22	22	foodImage.94	FOODEEG_Images\0902.jpg	YN	Right	No	0.93360049999319	0	217973	235
426.775390625	1	decision	trialStart	1	23	23	foodImage.9	FOODEEG_Images\0138.jpg	NY	Right	Yes	1.76477369997883	0	218510	251
427.833984375	2	decision	foodImageDisplay	1	23	23	foodImage.9	FOODEEG_Images\0138.jpg	NY	Right	Yes	1.76477369997883	0	219052	252
429.8984375	1.76477369997883	decision	choicePhaseStart	1	23	23	foodImage.9	FOODEEG_Images\0138.jpg	NY	Right	Yes	1.76477369997883	0	220109	253
431.654296875	0	decision	response	1	23	23	foodImage.9	FOODEEG_Images\0138.jpg	NY	Right	Yes	1.76477369997883	0	221008	235
432.697265625	1	health	trialStart	1	24	24	foodImage.16	FOODEEG_Images\0196.jpg	YN	Left	Yes	1.58961819997057	0	221542	251
433.755859375	2	health	foodImageDisplay	1	24	24	foodImage.16	FOODEEG_Images\0196.jpg	YN	Left	Yes	1.58961819997057	0	222084	252
435.818359375	1.58961819997057	health	choicePhaseStart	1	24	24	foodImage.16	FOODEEG_Images\0196.jpg	YN	Left	Yes	1.58961819997057	0	223140	253
437.3984375	0	health	response	1	24	24	foodImage.16	FOODEEG_Images\0196.jpg	YN	Left	Yes	1.58961819997057	0	223949	234
438.44140625	1	health	trialStart	1	25	25	foodImage.25	FOODEEG_Images\0261.jpg	NY	Right	Yes	1.58052489999682	0	224483	251
439.484375	2	health	foodImageDisplay	1	25	25	foodImage.25	FOODEEG_Images\0261.jpg	NY	Right	Yes	1.58052489999682	0	225017	252
441.546875	1.58052489999682	health	choicePhaseStart	1	25	25	foodImage.25	FOODEEG_Images\0261.jpg	NY	Right	Yes	1.58052489999682	0	226073	253
443.119140625	0	health	response	1	25	25	foodImage.25	FOODEEG_Images\0261.jpg	NY	Right	Yes	1.58052489999682	0	226878	235
444.162109375	1	taste	trialStart	1	26	26	foodImage.78	FOODEEG_Images\0787.jpg	YN	Right	No	1.43568900000537	0	227412	251
445.205078125	2	taste	foodImageDisplay	1	26	26	foodImage.78	FOODEEG_Images\0787.jpg	YN	Right	No	1.43568900000537	0	227946	252
447.267578125	1.43568900000537	taste	choicePhaseStart	1	26	26	foodImage.78	FOODEEG_Images\0787.jpg	YN	Right	No	1.43568900000537	0	229002	253
448.6953125	0	taste	response	1	26	26	foodImage.78	FOODEEG_Images\0787.jpg	YN	Right	No	1.43568900000537	0	229733	235
449.736328125	1	taste	trialStart	1	27	27	foodImage.7	FOODEEG_Images\0116.jpg	NY	Right	Yes	1.81525270000566	0	230266	251
450.77734375	2	taste	foodImageDisplay	1	27	27	foodImage.7	FOODEEG_Images\0116.jpg	NY	Right	Yes	1.81525270000566	0	230799	252
452.83984375	1.81525270000566	taste	choicePhaseStart	1	27	27	foodImage.7	FOODEEG_Images\0116.jpg	NY	Right	Yes	1.81525270000566	0	231855	253
454.646484375	0	taste	response	1	27	27	foodImage.7	FOODEEG_Images\0116.jpg	NY	Right	Yes	1.81525270000566	0	232780	235
455.693359375	1	health	trialStart	1	28	28	foodImage.74	FOODEEG_Images\0752.jpg	NY	Right	Yes	1.17418999999063	0	233316	251
456.736328125	2	health	foodImageDisplay	1	28	28	foodImage.74	FOODEEG_Images\0752.jpg	NY	Right	Yes	1.17418999999063	0	233850	252
458.798828125	1.17418999999063	health	choicePhaseStart	1	28	28	foodImage.74	FOODEEG_Images\0752.jpg	NY	Right	Yes	1.17418999999063	0	234906	253
459.966796875	0	health	response	1	28	28	foodImage.74	FOODEEG_Images\0752.jpg	NY	Right	Yes	1.17418999999063	0	235504	235
461.013671875	1	health	trialStart	1	29	29	foodImage.82	FOODEEG_Images\0805.jpg	YN	Left	Yes	2.26502390002133	0	236040	251
462.072265625	2	health	foodImageDisplay	1	29	29	foodImage.82	FOODEEG_Images\0805.jpg	YN	Left	Yes	2.26502390002133	0	236582	252
464.134765625	2.26502390002133	health	choicePhaseStart	1	29	29	foodImage.82	FOODEEG_Images\0805.jpg	YN	Left	Yes	2.26502390002133	0	237638	253
466.390625	0	health	response	1	29	29	foodImage.82	FOODEEG_Images\0805.jpg	YN	Left	Yes	2.26502390002133	0	238793	234
467.431640625	1	taste	trialStart	1	30	30	foodImage.67	FOODEEG_Images\0679.jpg	NY	Right	Yes	1.65380039997399	0	239326	251
468.48828125	2	taste	foodImageDisplay	1	30	30	foodImage.67	FOODEEG_Images\0679.jpg	NY	Right	Yes	1.65380039997399	0	239867	252
470.55078125	1.65380039997399	taste	choicePhaseStart	1	30	30	foodImage.67	FOODEEG_Images\0679.jpg	NY	Right	Yes	1.65380039997399	0	240923	253
472.197265625	0	taste	response	1	30	30	foodImage.67	FOODEEG_Images\0679.jpg	NY	Right	Yes	1.65380039997399	0	241766	235
473.240234375	1	taste	trialStart	1	31	31	foodImage.33	FOODEEG_Images\0329.jpg	NY	Right	Yes	1.42358310002601	0	242300	251
474.28125	2	taste	foodImageDisplay	1	31	31	foodImage.33	FOODEEG_Images\0329.jpg	NY	Right	Yes	1.42358310002601	0	242833	252
476.341796875	1.42358310002601	taste	choicePhaseStart	1	31	31	foodImage.33	FOODEEG_Images\0329.jpg	NY	Right	Yes	1.42358310002601	0	243888	253
477.7578125	0	taste	response	1	31	31	foodImage.33	FOODEEG_Images\0329.jpg	NY	Right	Yes	1.42358310002601	0	244613	235
478.796875	1	decision	trialStart	1	32	32	foodImage.61	FOODEEG_Images\0640.jpg	NY	Right	Yes	1.60088139999425	0	245145	251
479.83984375	2	decision	foodImageDisplay	1	32	32	foodImage.61	FOODEEG_Images\0640.jpg	NY	Right	Yes	1.60088139999425	0	245679	252
481.90234375	1.60088139999425	decision	choicePhaseStart	1	32	32	foodImage.61	FOODEEG_Images\0640.jpg	NY	Right	Yes	1.60088139999425	0	246735	253
483.494140625	0	decision	response	1	32	32	foodImage.61	FOODEEG_Images\0640.jpg	NY	Right	Yes	1.60088139999425	0	247550	235
484.533203125	1	health	trialStart	1	33	33	foodImage.120	FOODEEG_Images\0928.jpg	YN	Right	No	2.08503209997434	0	248082	251
485.572265625	2	health	foodImageDisplay	1	33	33	foodImage.120	FOODEEG_Images\0928.jpg	YN	Right	No	2.08503209997434	0	248614	252
487.640625	2.08503209997434	health	choicePhaseStart	1	33	33	foodImage.120	FOODEEG_Images\0928.jpg	YN	Right	No	2.08503209997434	0	249673	253
489.716796875	0	health	response	1	33	33	foodImage.120	FOODEEG_Images\0928.jpg	YN	Right	No	2.08503209997434	0	250736	235
490.765625	1	taste	trialStart	1	34	34	foodImage.46	FOODEEG_Images\0479.jpg	YN	Left	Yes	2.91001120000146	0	251273	251
491.826171875	2	taste	foodImageDisplay	1	34	34	foodImage.46	FOODEEG_Images\0479.jpg	YN	Left	Yes	2.91001120000146	0	251816	252
493.888671875	2.91001120000146	taste	choicePhaseStart	1	34	34	foodImage.46	FOODEEG_Images\0479.jpg	YN	Left	Yes	2.91001120000146	0	252872	253
496.7890625	0	taste	response	1	34	34	foodImage.46	FOODEEG_Images\0479.jpg	YN	Left	Yes	2.91001120000146	0	254357	234
497.83203125	1	taste	trialStart	1	35	35	foodImage.45	FOODEEG_Images\0478.jpg	YN	Left	Yes	1.43688589998055	0	254891	251
498.8984375	2	taste	foodImageDisplay	1	35	35	foodImage.45	FOODEEG_Images\0478.jpg	YN	Left	Yes	1.43688589998055	0	255437	252
500.9609375	1.43688589998055	taste	choicePhaseStart	1	35	35	foodImage.45	FOODEEG_Images\0478.jpg	YN	Left	Yes	1.43688589998055	0	256493	253
502.388671875	0	taste	response	1	35	35	foodImage.45	FOODEEG_Images\0478.jpg	YN	Left	Yes	1.43688589998055	0	257224	234
503.4296875	1	health	trialStart	1	36	36	foodImage.91	FOODEEG_Images\0896.jpg	YN	Right	No	2.60512610001024	0	257757	251
504.490234375	2	health	foodImageDisplay	1	36	36	foodImage.91	FOODEEG_Images\0896.jpg	YN	Right	No	2.60512610001024	0	258300	252
506.552734375	2.60512610001024	health	choicePhaseStart	1	36	36	foodImage.91	FOODEEG_Images\0896.jpg	YN	Right	No	2.60512610001024	0	259356	253
509.1484375	0	health	response	1	36	36	foodImage.91	FOODEEG_Images\0896.jpg	YN	Right	No	2.60512610001024	0	260685	235
510.1953125	1	decision	trialStart	1	37	37	foodImage.46	FOODEEG_Images\0479.jpg	NY	Left	No	3.36353520001285	0	261221	251
511.251953125	2	decision	foodImageDisplay	1	37	37	foodImage.46	FOODEEG_Images\0479.jpg	NY	Left	No	3.36353520001285	0	261762	252
513.314453125	3.36353520001285	decision	choicePhaseStart	1	37	37	foodImage.46	FOODEEG_Images\0479.jpg	NY	Left	No	3.36353520001285	0	262818	253
516.66796875	0	decision	response	1	37	37	foodImage.46	FOODEEG_Images\0479.jpg	NY	Left	No	3.36353520001285	0	264535	234
517.7109375	1	decision	trialStart	1	38	38	foodImage.10	FOODEEG_Images\0145.jpg	NY	Right	Yes	1.47705210000277	0	265069	251
518.76953125	2	decision	foodImageDisplay	1	38	38	foodImage.10	FOODEEG_Images\0145.jpg	NY	Right	Yes	1.47705210000277	0	265611	252
520.83203125	1.47705210000277	decision	choicePhaseStart	1	38	38	foodImage.10	FOODEEG_Images\0145.jpg	NY	Right	Yes	1.47705210000277	0	266667	253
522.298828125	0	decision	response	1	38	38	foodImage.10	FOODEEG_Images\0145.jpg	NY	Right	Yes	1.47705210000277	0	267418	235
523.341796875	1	decision	trialStart	1	39	39	foodImage.47	FOODEEG_Images\0488.jpg	YN	Left	Yes	1.71700239996426	0	267952	251
524.392578125	2	decision	foodImageDisplay	1	39	39	foodImage.47	FOODEEG_Images\0488.jpg	YN	Left	Yes	1.71700239996426	0	268490	252
526.455078125	1.71700239996426	decision	choicePhaseStart	1	39	39	foodImage.47	FOODEEG_Images\0488.jpg	YN	Left	Yes	1.71700239996426	0	269546	253
528.1640625	0	decision	response	1	39	39	foodImage.47	FOODEEG_Images\0488.jpg	YN	Left	Yes	1.71700239996426	0	270421	234
529.2109375	1	health	trialStart	1	40	40	foodImage.95	FOODEEG_Images\0903.jpg	NY	Left	No	2.33269700000528	0	270957	251
530.25	2	health	foodImageDisplay	1	40	40	foodImage.95	FOODEEG_Images\0903.jpg	NY	Left	No	2.33269700000528	0	271489	252
532.310546875	2.33269700000528	health	choicePhaseStart	1	40	40	foodImage.95	FOODEEG_Images\0903.jpg	NY	Left	No	2.33269700000528	0	272544	253
534.634765625	0	health	response	1	40	40	foodImage.95	FOODEEG_Images\0903.jpg	NY	Left	No	2.33269700000528	0	273734	234
535.6796875	1	decision	trialStart	1	41	41	foodImage.74	FOODEEG_Images\0752.jpg	NY	Left	No	1.74771690001944	0	274269	251
536.720703125	2	decision	foodImageDisplay	1	41	41	foodImage.74	FOODEEG_Images\0752.jpg	NY	Left	No	1.74771690001944	0	274802	252
538.783203125	1.74771690001944	decision	choicePhaseStart	1	41	41	foodImage.74	FOODEEG_Images\0752.jpg	NY	Left	No	1.74771690001944	0	275858	253
540.5234375	0	decision	response	1	41	41	foodImage.74	FOODEEG_Images\0752.jpg	NY	Left	No	1.74771690001944	0	276749	234
541.56640625	1	decision	trialStart	1	42	42	foodImage.106	FOODEEG_Images\0914.jpg	YN	Right	No	1.77311639999971	0	277283	251
542.60546875	2	decision	foodImageDisplay	1	42	42	foodImage.106	FOODEEG_Images\0914.jpg	YN	Right	No	1.77311639999971	0	277815	252
544.66796875	1.77311639999971	decision	choicePhaseStart	1	42	42	foodImage.106	FOODEEG_Images\0914.jpg	YN	Right	No	1.77311639999971	0	278871	253
546.43359375	0	decision	response	1	42	42	foodImage.106	FOODEEG_Images\0914.jpg	YN	Right	No	1.77311639999971	0	279775	235
547.4765625	1	decision	trialStart	1	43	43	foodImage.91	FOODEEG_Images\0896.jpg	NY	Right	Yes	1.21676430001389	0	280309	251
548.548828125	2	decision	foodImageDisplay	1	43	43	foodImage.91	FOODEEG_Images\0896.jpg	NY	Right	Yes	1.21676430001389	0	280858	252
550.611328125	1.21676430001389	decision	choicePhaseStart	1	43	43	foodImage.91	FOODEEG_Images\0896.jpg	NY	Right	Yes	1.21676430001389	0	281914	253
551.818359375	0	decision	response	1	43	43	foodImage.91	FOODEEG_Images\0896.jpg	NY	Right	Yes	1.21676430001389	0	282532	235
552.861328125	1	health	trialStart	1	44	44	foodImage.99	FOODEEG_Images\0907.jpg	NY	Right	Yes	3.52899789996445	0	283066	251
553.8984375	2	health	foodImageDisplay	1	44	44	foodImage.99	FOODEEG_Images\0907.jpg	NY	Right	Yes	3.52899789996445	0	283597	252
555.962890625	3.52899789996445	health	choicePhaseStart	1	44	44	foodImage.99	FOODEEG_Images\0907.jpg	NY	Right	Yes	3.52899789996445	0	284654	253
559.482421875	0	health	response	1	44	44	foodImage.99	FOODEEG_Images\0907.jpg	NY	Right	Yes	3.52899789996445	0	286456	235
560.5234375	1	health	trialStart	1	45	45	foodImage.45	FOODEEG_Images\0478.jpg	YN	Left	Yes	1.39782879996346	0	286989	251
561.56640625	2	health	foodImageDisplay	1	45	45	foodImage.45	FOODEEG_Images\0478.jpg	YN	Left	Yes	1.39782879996346	0	287523	252
563.62890625	1.39782879996346	health	choicePhaseStart	1	45	45	foodImage.45	FOODEEG_Images\0478.jpg	YN	Left	Yes	1.39782879996346	0	288579	253
565.017578125	0	health	response	1	45	45	foodImage.45	FOODEEG_Images\0478.jpg	YN	Left	Yes	1.39782879996346	0	289290	234
566.060546875	1	decision	trialStart	1	46	46	foodImage.101	FOODEEG_Images\0909.jpg	NY	Left	No	3.42596449999837	0	289824	251
567.099609375	2	decision	foodImageDisplay	1	46	46	foodImage.101	FOODEEG_Images\0909.jpg	NY	Left	No	3.42596449999837	0	290356	252
569.16015625	3.42596449999837	decision	choicePhaseStart	1	46	46	foodImage.101	FOODEEG_Images\0909.jpg	NY	Left	No	3.42596449999837	0	291411	253
572.578125	0	decision	response	1	46	46	foodImage.101	FOODEEG_Images\0909.jpg	NY	Left	No	3.42596449999837	0	293161	234
573.619140625	1	health	trialStart	1	47	47	foodImage.88	FOODEEG_Images\0878.jpg	YN	Right	No	1.3989630000433	0	293694	251
574.67578125	2	health	foodImageDisplay	1	47	47	foodImage.88	FOODEEG_Images\0878.jpg	YN	Right	No	1.3989630000433	0	294235	252
576.740234375	1.3989630000433	health	choicePhaseStart	1	47	47	foodImage.88	FOODEEG_Images\0878.jpg	YN	Right	No	1.3989630000433	0	295292	253
578.12890625	0	health	response	1	47	47	foodImage.88	FOODEEG_Images\0878.jpg	YN	Right	No	1.3989630000433	0	296003	235
579.171875	1	taste	trialStart	1	48	48	foodImage.74	FOODEEG_Images\0752.jpg	NY	Right	Yes	3.96345949999522	0	296537	251
580.21484375	2	taste	foodImageDisplay	1	48	48	foodImage.74	FOODEEG_Images\0752.jpg	NY	Right	Yes	3.96345949999522	0	297071	252
582.279296875	3.96345949999522	taste	choicePhaseStart	1	48	48	foodImage.74	FOODEEG_Images\0752.jpg	NY	Right	Yes	3.96345949999522	0	298128	253
586.232421875	0	taste	response	1	48	48	foodImage.74	FOODEEG_Images\0752.jpg	NY	Right	Yes	3.96345949999522	0	300152	235
587.2734375	1	decision	trialStart	1	49	49	foodImage.2	FOODEEG_Images\0028.jpg	NY	Right	Yes	1.14557090000017	0	300685	251
588.314453125	2	decision	foodImageDisplay	1	49	49	foodImage.2	FOODEEG_Images\0028.jpg	NY	Right	Yes	1.14557090000017	0	301218	252
590.376953125	1.14557090000017	decision	choicePhaseStart	1	49	49	foodImage.2	FOODEEG_Images\0028.jpg	NY	Right	Yes	1.14557090000017	0	302274	253
591.513671875	0	decision	response	1	49	49	foodImage.2	FOODEEG_Images\0028.jpg	NY	Right	Yes	1.14557090000017	0	302856	235
592.560546875	1	decision	trialStart	1	50	50	foodImage.99	FOODEEG_Images\0907.jpg	NY	Left	No	2.48454939998919	0	303392	251
593.59765625	2	decision	foodImageDisplay	1	50	50	foodImage.99	FOODEEG_Images\0907.jpg	NY	Left	No	2.48454939998919	0	303923	252
595.66015625	2.48454939998919	decision	choicePhaseStart	1	50	50	foodImage.99	FOODEEG_Images\0907.jpg	NY	Left	No	2.48454939998919	0	304979	253
598.13671875	0	decision	response	1	50	50	foodImage.99	FOODEEG_Images\0907.jpg	NY	Left	No	2.48454939998919	0	306247	234
599.1796875	1	decision	trialStart	1	51	51	foodImage.27	FOODEEG_Images\0263.jpg	NY	Left	No	1.18724010000005	0	306781	251
600.22265625	2	decision	foodImageDisplay	1	51	51	foodImage.27	FOODEEG_Images\0263.jpg	NY	Left	No	1.18724010000005	0	307315	252
602.28515625	1.18724010000005	decision	choicePhaseStart	1	51	51	foodImage.27	FOODEEG_Images\0263.jpg	NY	Left	No	1.18724010000005	0	308371	253
603.46484375	0	decision	response	1	51	51	foodImage.27	FOODEEG_Images\0263.jpg	NY	Left	No	1.18724010000005	0	308975	234
604.51171875	1	health	trialStart	1	52	52	foodImage.108	FOODEEG_Images\0916.jpg	NY	Left	No	1.6687126000179	0	309511	251
605.548828125	2	health	foodImageDisplay	1	52	52	foodImage.108	FOODEEG_Images\0916.jpg	NY	Left	No	1.6687126000179	0	310042	252
607.611328125	1.6687126000179	health	choicePhaseStart	1	52	52	foodImage.108	FOODEEG_Images\0916.jpg	NY	Left	No	1.6687126000179	0	311098	253
609.271484375	0	health	response	1	52	52	foodImage.108	FOODEEG_Images\0916.jpg	NY	Left	No	1.6687126000179	0	311948	234
610.31640625	1	health	trialStart	1	53	53	foodImage.15	FOODEEG_Images\0189.jpg	NY	Left	No	1.70954440004425	0	312483	251
611.373046875	2	health	foodImageDisplay	1	53	53	foodImage.15	FOODEEG_Images\0189.jpg	NY	Left	No	1.70954440004425	0	313024	252
613.435546875	1.70954440004425	health	choicePhaseStart	1	53	53	foodImage.15	FOODEEG_Images\0189.jpg	NY	Left	No	1.70954440004425	0	314080	253
615.134765625	0	health	response	1	53	53	foodImage.15	FOODEEG_Images\0189.jpg	NY	Left	No	1.70954440004425	0	314950	234
616.177734375	1	taste	trialStart	1	54	54	foodImage.55	FOODEEG_Images\0567.jpg	YN	Right	No	2.52568399999291	0	315484	251
617.236328125	2	taste	foodImageDisplay	1	54	54	foodImage.55	FOODEEG_Images\0567.jpg	YN	Right	No	2.52568399999291	0	316026	252
619.298828125	2.52568399999291	taste	choicePhaseStart	1	54	54	foodImage.55	FOODEEG_Images\0567.jpg	YN	Right	No	2.52568399999291	0	317082	253
621.81640625	0	taste	response	1	54	54	foodImage.55	FOODEEG_Images\0567.jpg	YN	Right	No	2.52568399999291	0	318371	235
622.861328125	1	health	trialStart	1	55	55	foodImage.70	FOODEEG_Images\0705.jpg	NY	Right	Yes	3.74882269999944	0	318906	251
623.916015625	2	health	foodImageDisplay	1	55	55	foodImage.70	FOODEEG_Images\0705.jpg	NY	Right	Yes	3.74882269999944	0	319446	252
625.978515625	3.74882269999944	health	choicePhaseStart	1	55	55	foodImage.70	FOODEEG_Images\0705.jpg	NY	Right	Yes	3.74882269999944	0	320502	253
629.71875	0	health	response	1	55	55	foodImage.70	FOODEEG_Images\0705.jpg	NY	Right	Yes	3.74882269999944	0	322417	235
630.76171875	1	health	trialStart	1	56	56	foodImage.73	FOODEEG_Images\0717.jpg	YN	Left	Yes	1.66294500004733	0	322951	251
631.8203125	2	health	foodImageDisplay	1	56	56	foodImage.73	FOODEEG_Images\0717.jpg	YN	Left	Yes	1.66294500004733	0	323493	252
633.8828125	1.66294500004733	health	choicePhaseStart	1	56	56	foodImage.73	FOODEEG_Images\0717.jpg	YN	Left	Yes	1.66294500004733	0	324549	253
635.53515625	0	health	response	1	56	56	foodImage.73	FOODEEG_Images\0717.jpg	YN	Left	Yes	1.66294500004733	0	325395	234
636.576171875	1	taste	trialStart	1	57	57	foodImage.14	FOODEEG_Images\0188.jpg	NY	Right	Yes	2.18024710001191	0	325928	251
637.634765625	2	taste	foodImageDisplay	1	57	57	foodImage.14	FOODEEG_Images\0188.jpg	NY	Right	Yes	2.18024710001191	0	326470	252
639.69921875	2.18024710001191	taste	choicePhaseStart	1	57	57	foodImage.14	FOODEEG_Images\0188.jpg	NY	Right	Yes	2.18024710001191	0	327527	253
641.87109375	0	taste	response	1	57	57	foodImage.14	FOODEEG_Images\0188.jpg	NY	Right	Yes	2.18024710001191	0	328639	235
642.9140625	1	taste	trialStart	1	58	58	foodImage.64	FOODEEG_Images\0647.jpg	YN	Right	No	2.35946149996016	0	329173	251
643.96875	2	taste	foodImageDisplay	1	58	58	foodImage.64	FOODEEG_Images\0647.jpg	YN	Right	No	2.35946149996016	0	329713	252
646.03125	2.35946149996016	taste	choicePhaseStart	1	58	58	foodImage.64	FOODEEG_Images\0647.jpg	YN	Right	No	2.35946149996016	0	330769	253
648.3828125	0	taste	response	1	58	58	foodImage.64	FOODEEG_Images\0647.jpg	YN	Right	No	2.35946149996016	0	331973	235
649.427734375	1	health	trialStart	1	59	59	foodImage.51	FOODEEG_Images\0536.jpg	NY	Left	No	2.36020340002142	0	332508	251
650.47265625	2	health	foodImageDisplay	1	59	59	foodImage.51	FOODEEG_Images\0536.jpg	NY	Left	No	2.36020340002142	0	333043	252
652.53515625	2.36020340002142	health	choicePhaseStart	1	59	59	foodImage.51	FOODEEG_Images\0536.jpg	NY	Left	No	2.36020340002142	0	334099	253
654.88671875	0	health	response	1	59	59	foodImage.51	FOODEEG_Images\0536.jpg	NY	Left	No	2.36020340002142	0	335303	234
655.9296875	1	health	trialStart	1	60	60	foodImage.93	FOODEEG_Images\0901.jpg	YN	Right	No	3.20071659999667	0	335837	251
656.96875	2	health	foodImageDisplay	1	60	60	foodImage.93	FOODEEG_Images\0901.jpg	YN	Right	No	3.20071659999667	0	336369	252
659.03125	3.20071659999667	health	choicePhaseStart	1	60	60	foodImage.93	FOODEEG_Images\0901.jpg	YN	Right	No	3.20071659999667	0	337425	253
662.22265625	0	health	response	1	60	60	foodImage.93	FOODEEG_Images\0901.jpg	YN	Right	No	3.20071659999667	0	339059	235
664.267578125	22.21484375	n/a	blockEnd	n/a	n/a	n/a	n/a	n/a	n/a	n/a	n/a	n/a	n/a	340106	254
686.482421875	2	n/a	blockStart	2	n/a	n/a	n/a	n/a	n/a	n/a	n/a	n/a	n/a	351480	250
688.515625	1	decision	trialStart	2	61	1	foodImage.25	FOODEEG_Images\0261.jpg	NY	Left	No	1.66853130003437	0	352521	251
689.556640625	2	decision	foodImageDisplay	2	61	1	foodImage.25	FOODEEG_Images\0261.jpg	NY	Left	No	1.66853130003437	0	353054	252
691.625	1.66853130003437	decision	choicePhaseStart	2	61	1	foodImage.25	FOODEEG_Images\0261.jpg	NY	Left	No	1.66853130003437	0	354113	253
693.28515625	0	decision	response	2	61	1	foodImage.25	FOODEEG_Images\0261.jpg	NY	Left	No	1.66853130003437	0	354963	234
694.328125	1	health	trialStart	2	62	2	foodImage.86	FOODEEG_Images\0844.jpg	NY	Left	No	1.22138089995133	0	355497	251
695.38671875	2	health	foodImageDisplay	2	62	2	foodImage.86	FOODEEG_Images\0844.jpg	NY	Left	No	1.22138089995133	0	356039	252
697.447265625	1.22138089995133	health	choicePhaseStart	2	62	2	foodImage.86	FOODEEG_Images\0844.jpg	NY	Left	No	1.22138089995133	0	357094	253
698.66015625	0	health	response	2	62	2	foodImage.86	FOODEEG_Images\0844.jpg	NY	Left	No	1.22138089995133	0	357715	234
699.703125	1	health	trialStart	2	63	3	foodImage.64	FOODEEG_Images\0647.jpg	YN	Left	Yes	1.2216999999946	0	358249	251
700.759765625	2	health	foodImageDisplay	2	63	3	foodImage.64	FOODEEG_Images\0647.jpg	YN	Left	Yes	1.2216999999946	0	358790	252
702.82421875	1.2216999999946	health	choicePhaseStart	2	63	3	foodImage.64	FOODEEG_Images\0647.jpg	YN	Left	Yes	1.2216999999946	0	359847	253
704.037109375	0	health	response	2	63	3	foodImage.64	FOODEEG_Images\0647.jpg	YN	Left	Yes	1.2216999999946	0	360468	234
705.080078125	1	health	trialStart	2	64	4	foodImage.1	FOODEEG_Images\0004.jpg	YN	Right	No	1.33397010003682	0	361002	251
706.12109375	2	health	foodImageDisplay	2	64	4	foodImage.1	FOODEEG_Images\0004.jpg	YN	Right	No	1.33397010003682	0	361535	252
708.18359375	1.33397010003682	health	choicePhaseStart	2	64	4	foodImage.1	FOODEEG_Images\0004.jpg	YN	Right	No	1.33397010003682	0	362591	253
709.5078125	0	health	response	2	64	4	foodImage.1	FOODEEG_Images\0004.jpg	YN	Right	No	1.33397010003682	0	363269	235
710.55078125	1	taste	trialStart	2	65	5	foodImage.57	FOODEEG_Images\0587.jpg	NY	Right	Yes	1.31585510005243	0	363803	251
711.595703125	2	taste	foodImageDisplay	2	65	5	foodImage.57	FOODEEG_Images\0587.jpg	NY	Right	Yes	1.31585510005243	0	364338	252
713.65625	1.31585510005243	taste	choicePhaseStart	2	65	5	foodImage.57	FOODEEG_Images\0587.jpg	NY	Right	Yes	1.31585510005243	0	365393	253
714.96484375	0	taste	response	2	65	5	foodImage.57	FOODEEG_Images\0587.jpg	NY	Right	Yes	1.31585510005243	0	366063	235
716.013671875	1	decision	trialStart	2	66	6	foodImage.54	FOODEEG_Images\0560.jpg	NY	Left	No	2.78888359997654	0	366600	251
717.072265625	2	decision	foodImageDisplay	2	66	6	foodImage.54	FOODEEG_Images\0560.jpg	NY	Left	No	2.78888359997654	0	367142	252
719.134765625	2.78888359997654	decision	choicePhaseStart	2	66	6	foodImage.54	FOODEEG_Images\0560.jpg	NY	Left	No	2.78888359997654	0	368198	253
721.916015625	0	decision	response	2	66	6	foodImage.54	FOODEEG_Images\0560.jpg	NY	Left	No	2.78888359997654	0	369622	234
722.958984375	1	health	trialStart	2	67	7	foodImage.102	FOODEEG_Images\0910.jpg	YN	Right	No	1.9383405999979	0	370156	251
724.01171875	2	health	foodImageDisplay	2	67	7	foodImage.102	FOODEEG_Images\0910.jpg	YN	Right	No	1.9383405999979	0	370695	252
726.07421875	1.9383405999979	health	choicePhaseStart	2	67	7	foodImage.102	FOODEEG_Images\0910.jpg	YN	Right	No	1.9383405999979	0	371751	253
728.00390625	0	health	response	2	67	7	foodImage.102	FOODEEG_Images\0910.jpg	YN	Right	No	1.9383405999979	0	372739	235
729.05078125	1	taste	trialStart	2	68	8	foodImage.61	FOODEEG_Images\0640.jpg	YN	Left	Yes	1.3995582999778	0	373275	251
730.09375	2	taste	foodImageDisplay	2	68	8	foodImage.61	FOODEEG_Images\0640.jpg	YN	Left	Yes	1.3995582999778	0	373809	252
732.15625	1.3995582999778	taste	choicePhaseStart	2	68	8	foodImage.61	FOODEEG_Images\0640.jpg	YN	Left	Yes	1.3995582999778	0	374865	253
733.546875	0	taste	response	2	68	8	foodImage.61	FOODEEG_Images\0640.jpg	YN	Left	Yes	1.3995582999778	0	375577	234
734.58984375	1	taste	trialStart	2	69	9	foodImage.23	FOODEEG_Images\0244.jpg	NY	Left	No	1.51652559998911	0	376111	251
735.6328125	2	taste	foodImageDisplay	2	69	9	foodImage.23	FOODEEG_Images\0244.jpg	NY	Left	No	1.51652559998911	0	376645	252
737.6953125	1.51652559998911	taste	choicePhaseStart	2	69	9	foodImage.23	FOODEEG_Images\0244.jpg	NY	Left	No	1.51652559998911	0	377701	253
739.203125	0	taste	response	2	69	9	foodImage.23	FOODEEG_Images\0244.jpg	NY	Left	No	1.51652559998911	0	378473	234
740.244140625	1	decision	trialStart	2	70	10	foodImage.8	FOODEEG_Images\0136.jpg	NY	Right	Yes	1.316386600025	0	379006	251
741.287109375	2	decision	foodImageDisplay	2	70	10	foodImage.8	FOODEEG_Images\0136.jpg	NY	Right	Yes	1.316386600025	0	379540	252
743.349609375	1.316386600025	decision	choicePhaseStart	2	70	10	foodImage.8	FOODEEG_Images\0136.jpg	NY	Right	Yes	1.316386600025	0	380596	253
744.658203125	0	decision	response	2	70	10	foodImage.8	FOODEEG_Images\0136.jpg	NY	Right	Yes	1.316386600025	0	381266	235
745.701171875	1	health	trialStart	2	71	11	foodImage.36	FOODEEG_Images\0352.jpg	YN	Right	No	2.39892359997611	0	381800	251
746.7578125	2	health	foodImageDisplay	2	71	11	foodImage.36	FOODEEG_Images\0352.jpg	YN	Right	No	2.39892359997611	0	382341	252
748.8203125	2.39892359997611	health	choicePhaseStart	2	71	11	foodImage.36	FOODEEG_Images\0352.jpg	YN	Right	No	2.39892359997611	0	383397	253
751.2109375	0	health	response	2	71	11	foodImage.36	FOODEEG_Images\0352.jpg	YN	Right	No	2.39892359997611	0	384621	235
752.25390625	1	decision	trialStart	2	72	12	foodImage.81	FOODEEG_Images\0797.jpg	YN	Right	No	1.27778989996295	0	385155	251
753.310546875	2	decision	foodImageDisplay	2	72	12	foodImage.81	FOODEEG_Images\0797.jpg	YN	Right	No	1.27778989996295	0	385696	252
755.373046875	1.27778989996295	decision	choicePhaseStart	2	72	12	foodImage.81	FOODEEG_Images\0797.jpg	YN	Right	No	1.27778989996295	0	386752	253
756.642578125	0	decision	response	2	72	12	foodImage.81	FOODEEG_Images\0797.jpg	YN	Right	No	1.27778989996295	0	387402	235
757.69140625	1	taste	trialStart	2	73	13	foodImage.85	FOODEEG_Images\0841.jpg	YN	Left	Yes	1.89148350001778	0	387939	251
758.75	2	taste	foodImageDisplay	2	73	13	foodImage.85	FOODEEG_Images\0841.jpg	YN	Left	Yes	1.89148350001778	0	388481	252
760.8125	1.89148350001778	taste	choicePhaseStart	2	73	13	foodImage.85	FOODEEG_Images\0841.jpg	YN	Left	Yes	1.89148350001778	0	389537	253
762.697265625	0	taste	response	2	73	13	foodImage.85	FOODEEG_Images\0841.jpg	YN	Left	Yes	1.89148350001778	0	390502	234
763.73828125	1	decision	trialStart	2	74	14	foodImage.3	FOODEEG_Images\0046.jpg	NY	Right	Yes	1.30136630003108	0	391035	251
764.78125	2	decision	foodImageDisplay	2	74	14	foodImage.3	FOODEEG_Images\0046.jpg	NY	Right	Yes	1.30136630003108	0	391569	252
766.84375	1.30136630003108	decision	choicePhaseStart	2	74	14	foodImage.3	FOODEEG_Images\0046.jpg	NY	Right	Yes	1.30136630003108	0	392625	253
768.138671875	0	decision	response	2	74	14	foodImage.3	FOODEEG_Images\0046.jpg	NY	Right	Yes	1.30136630003108	0	393288	235
769.18359375	1	decision	trialStart	2	75	15	foodImage.97	FOODEEG_Images\0905.jpg	NY	Left	No	2.29845040000509	0	393823	251
770.220703125	2	decision	foodImageDisplay	2	75	15	foodImage.97	FOODEEG_Images\0905.jpg	NY	Left	No	2.29845040000509	0	394354	252
772.2890625	2.29845040000509	decision	choicePhaseStart	2	75	15	foodImage.97	FOODEEG_Images\0905.jpg	NY	Left	No	2.29845040000509	0	395413	253
774.578125	0	decision	response	2	75	15	foodImage.97	FOODEEG_Images\0905.jpg	NY	Left	No	2.29845040000509	0	396585	234
775.619140625	1	taste	trialStart	2	76	16	foodImage.1	FOODEEG_Images\0004.jpg	YN	Left	Yes	1.58385729999281	0	397118	251
776.66015625	2	taste	foodImageDisplay	2	76	16	foodImage.1	FOODEEG_Images\0004.jpg	YN	Left	Yes	1.58385729999281	0	397651	252
778.72265625	1.58385729999281	taste	choicePhaseStart	2	76	16	foodImage.1	FOODEEG_Images\0004.jpg	YN	Left	Yes	1.58385729999281	0	398707	253
780.296875	0	taste	response	2	76	16	foodImage.1	FOODEEG_Images\0004.jpg	YN	Left	Yes	1.58385729999281	0	399513	234
781.345703125	1	health	trialStart	2	77	17	foodImage.9	FOODEEG_Images\0138.jpg	YN	Right	No	1.05450269998983	0	400050	251
782.404296875	2	health	foodImageDisplay	2	77	17	foodImage.9	FOODEEG_Images\0138.jpg	YN	Right	No	1.05450269998983	0	400592	252
784.466796875	1.05450269998983	health	choicePhaseStart	2	77	17	foodImage.9	FOODEEG_Images\0138.jpg	YN	Right	No	1.05450269998983	0	401648	253
785.513671875	0	health	response	2	77	17	foodImage.9	FOODEEG_Images\0138.jpg	YN	Right	No	1.05450269998983	0	402184	235
786.5546875	1	decision	trialStart	2	78	18	foodImage.92	FOODEEG_Images\0900.jpg	NY	Left	No	1.86529719998362	0	402717	251
787.59375	2	decision	foodImageDisplay	2	78	18	foodImage.92	FOODEEG_Images\0900.jpg	NY	Left	No	1.86529719998362	0	403249	252
789.65625	1.86529719998362	decision	choicePhaseStart	2	78	18	foodImage.92	FOODEEG_Images\0900.jpg	NY	Left	No	1.86529719998362	0	404305	253
791.513671875	0	decision	response	2	78	18	foodImage.92	FOODEEG_Images\0900.jpg	NY	Left	No	1.86529719998362	0	405256	234
792.556640625	1	health	trialStart	2	79	19	foodImage.98	FOODEEG_Images\0906.jpg	YN	Right	No	3.42349830002058	0	405790	251
793.59375	2	health	foodImageDisplay	2	79	19	foodImage.98	FOODEEG_Images\0906.jpg	YN	Right	No	3.42349830002058	0	406321	252
795.658203125	3.42349830002058	health	choicePhaseStart	2	79	19	foodImage.98	FOODEEG_Images\0906.jpg	YN	Right	No	3.42349830002058	0	407378	253
799.072265625	0	health	response	2	79	19	foodImage.98	FOODEEG_Images\0906.jpg	YN	Right	No	3.42349830002058	0	409126	235
800.1171875	1	decision	trialStart	2	80	20	foodImage.22	FOODEEG_Images\0236.jpg	NY	Left	No	1.44754500000272	0	409661	251
801.15625	2	decision	foodImageDisplay	2	80	20	foodImage.22	FOODEEG_Images\0236.jpg	NY	Left	No	1.44754500000272	0	410193	252
803.21875	1.44754500000272	decision	choicePhaseStart	2	80	20	foodImage.22	FOODEEG_Images\0236.jpg	NY	Left	No	1.44754500000272	0	411249	253
804.65625	0	decision	response	2	80	20	foodImage.22	FOODEEG_Images\0236.jpg	NY	Left	No	1.44754500000272	0	411985	234
805.69921875	1	health	trialStart	2	81	21	foodImage.87	FOODEEG_Images\0873.jpg	YN	Right	No	1.80608960002428	0	412519	251
806.7578125	2	health	foodImageDisplay	2	81	21	foodImage.87	FOODEEG_Images\0873.jpg	YN	Right	No	1.80608960002428	0	413061	252
808.818359375	1.80608960002428	health	choicePhaseStart	2	81	21	foodImage.87	FOODEEG_Images\0873.jpg	YN	Right	No	1.80608960002428	0	414116	253
810.6171875	0	health	response	2	81	21	foodImage.87	FOODEEG_Images\0873.jpg	YN	Right	No	1.80608960002428	0	415037	235
811.6640625	1	decision	trialStart	2	82	22	foodImage.41	FOODEEG_Images\0409.jpg	YN	Left	Yes	2.50783509999746	0	415573	251
812.7109375	2	decision	foodImageDisplay	2	82	22	foodImage.41	FOODEEG_Images\0409.jpg	YN	Left	Yes	2.50783509999746	0	416109	252
814.7734375	2.50783509999746	decision	choicePhaseStart	2	82	22	foodImage.41	FOODEEG_Images\0409.jpg	YN	Left	Yes	2.50783509999746	0	417165	253
817.271484375	0	decision	response	2	82	22	foodImage.41	FOODEEG_Images\0409.jpg	YN	Left	Yes	2.50783509999746	0	418444	234
818.314453125	1	decision	trialStart	2	83	23	foodImage.30	FOODEEG_Images\0282.jpg	YN	Left	Yes	2.04243279999355	0	418978	251
819.369140625	2	decision	foodImageDisplay	2	83	23	foodImage.30	FOODEEG_Images\0282.jpg	YN	Left	Yes	2.04243279999355	0	419518	252
821.431640625	2.04243279999355	decision	choicePhaseStart	2	83	23	foodImage.30	FOODEEG_Images\0282.jpg	YN	Left	Yes	2.04243279999355	0	420574	253
823.462890625	0	decision	response	2	83	23	foodImage.30	FOODEEG_Images\0282.jpg	YN	Left	Yes	2.04243279999355	0	421614	234
824.513671875	1	taste	trialStart	2	84	24	foodImage.40	FOODEEG_Images\0373.jpg	YN	Left	Yes	4.31028210005024	0	422152	251
825.5546875	2	taste	foodImageDisplay	2	84	24	foodImage.40	FOODEEG_Images\0373.jpg	YN	Left	Yes	4.31028210005024	0	422685	252
827.6171875	4.31028210005024	taste	choicePhaseStart	2	84	24	foodImage.40	FOODEEG_Images\0373.jpg	YN	Left	Yes	4.31028210005024	0	423741	253
831.919921875	0	taste	response	2	84	24	foodImage.40	FOODEEG_Images\0373.jpg	YN	Left	Yes	4.31028210005024	0	425944	234
832.9609375	1	decision	trialStart	2	85	25	foodImage.7	FOODEEG_Images\0116.jpg	NY	Right	Yes	1.78948380000656	0	426477	251
834.001953125	2	decision	foodImageDisplay	2	85	25	foodImage.7	FOODEEG_Images\0116.jpg	NY	Right	Yes	1.78948380000656	0	427010	252
836.064453125	1.78948380000656	decision	choicePhaseStart	2	85	25	foodImage.7	FOODEEG_Images\0116.jpg	NY	Right	Yes	1.78948380000656	0	428066	253
837.84765625	0	decision	response	2	85	25	foodImage.7	FOODEEG_Images\0116.jpg	NY	Right	Yes	1.78948380000656	0	428979	235
838.88671875	1	taste	trialStart	2	86	26	foodImage.73	FOODEEG_Images\0717.jpg	NY	Right	Yes	1.55406060005771	0	429511	251
839.943359375	2	taste	foodImageDisplay	2	86	26	foodImage.73	FOODEEG_Images\0717.jpg	NY	Right	Yes	1.55406060005771	0	430052	252
842.005859375	1.55406060005771	taste	choicePhaseStart	2	86	26	foodImage.73	FOODEEG_Images\0717.jpg	NY	Right	Yes	1.55406060005771	0	431108	253
843.55078125	0	taste	response	2	86	26	foodImage.73	FOODEEG_Images\0717.jpg	NY	Right	Yes	1.55406060005771	0	431899	235
844.59765625	1	decision	trialStart	2	87	27	foodImage.107	FOODEEG_Images\0915.jpg	NY	Left	No	1.3548565999954	0	432435	251
845.642578125	2	decision	foodImageDisplay	2	87	27	foodImage.107	FOODEEG_Images\0915.jpg	NY	Left	No	1.3548565999954	0	432970	252
847.708984375	1.3548565999954	decision	choicePhaseStart	2	87	27	foodImage.107	FOODEEG_Images\0915.jpg	NY	Left	No	1.3548565999954	0	434028	253
849.0546875	0	decision	response	2	87	27	foodImage.107	FOODEEG_Images\0915.jpg	NY	Left	No	1.3548565999954	0	434717	234
850.09765625	1	decision	trialStart	2	88	28	foodImage.68	FOODEEG_Images\0685.jpg	NY	Right	Yes	1.2610647000256	0	435251	251
851.173828125	2	decision	foodImageDisplay	2	88	28	foodImage.68	FOODEEG_Images\0685.jpg	NY	Right	Yes	1.2610647000256	0	435802	252
853.236328125	1.2610647000256	decision	choicePhaseStart	2	88	28	foodImage.68	FOODEEG_Images\0685.jpg	NY	Right	Yes	1.2610647000256	0	436858	253
854.486328125	0	decision	response	2	88	28	foodImage.68	FOODEEG_Images\0685.jpg	NY	Right	Yes	1.2610647000256	0	437498	235
855.53515625	1	health	trialStart	2	89	29	foodImage.39	FOODEEG_Images\0367.jpg	YN	Right	No	1.31651089998195	0	438035	251
856.572265625	2	health	foodImageDisplay	2	89	29	foodImage.39	FOODEEG_Images\0367.jpg	YN	Right	No	1.31651089998195	0	438566	252
858.634765625	1.31651089998195	health	choicePhaseStart	2	89	29	foodImage.39	FOODEEG_Images\0367.jpg	YN	Right	No	1.31651089998195	0	439622	253
859.94140625	0	health	response	2	89	29	foodImage.39	FOODEEG_Images\0367.jpg	YN	Right	No	1.31651089998195	0	440291	235
860.984375	1	taste	trialStart	2	90	30	foodImage.27	FOODEEG_Images\0263.jpg	NY	Left	No	2.49397329997737	0	440825	251
862.02734375	2	taste	foodImageDisplay	2	90	30	foodImage.27	FOODEEG_Images\0263.jpg	NY	Left	No	2.49397329997737	0	441359	252
864.087890625	2.49397329997737	taste	choicePhaseStart	2	90	30	foodImage.27	FOODEEG_Images\0263.jpg	NY	Left	No	2.49397329997737	0	442414	253
866.57421875	0	taste	response	2	90	30	foodImage.27	FOODEEG_Images\0263.jpg	NY	Left	No	2.49397329997737	0	443687	234
867.62109375	1	decision	trialStart	2	91	31	foodImage.58	FOODEEG_Images\0605.jpg	NY	Left	No	3.13351929996861	0	444223	251
868.681640625	2	decision	foodImageDisplay	2	91	31	foodImage.58	FOODEEG_Images\0605.jpg	NY	Left	No	3.13351929996861	0	444766	252
870.74609375	3.13351929996861	decision	choicePhaseStart	2	91	31	foodImage.58	FOODEEG_Images\0605.jpg	NY	Left	No	3.13351929996861	0	445823	253
873.869140625	0	decision	response	2	91	31	foodImage.58	FOODEEG_Images\0605.jpg	NY	Left	No	3.13351929996861	0	447422	234
874.919921875	1	health	trialStart	2	92	32	foodImage.77	FOODEEG_Images\0771.jpg	NY	Right	Yes	0.974828800011892	0	447960	251
875.966796875	2	health	foodImageDisplay	2	92	32	foodImage.77	FOODEEG_Images\0771.jpg	NY	Right	Yes	0.974828800011892	0	448496	252
878.029296875	0.974828800011892	health	choicePhaseStart	2	92	32	foodImage.77	FOODEEG_Images\0771.jpg	NY	Right	Yes	0.974828800011892	0	449552	253
878.998046875	0	health	response	2	92	32	foodImage.77	FOODEEG_Images\0771.jpg	NY	Right	Yes	0.974828800011892	0	450048	235
880.041015625	1	health	trialStart	2	93	33	foodImage.32	FOODEEG_Images\0319.jpg	NY	Right	Yes	2.57049399998505	0	450582	251
881.083984375	2	health	foodImageDisplay	2	93	33	foodImage.32	FOODEEG_Images\0319.jpg	NY	Right	Yes	2.57049399998505	0	451116	252
883.146484375	2.57049399998505	health	choicePhaseStart	2	93	33	foodImage.32	FOODEEG_Images\0319.jpg	NY	Right	Yes	2.57049399998505	0	452172	253
885.708984375	0	health	response	2	93	33	foodImage.32	FOODEEG_Images\0319.jpg	NY	Right	Yes	2.57049399998505	0	453484	235
886.759765625	1	health	trialStart	2	94	34	foodImage.38	FOODEEG_Images\0365.jpg	YN	Left	Yes	1.20712119998643	0	454022	251
887.798828125	2	health	foodImageDisplay	2	94	34	foodImage.38	FOODEEG_Images\0365.jpg	YN	Left	Yes	1.20712119998643	0	454554	252
889.861328125	1.20712119998643	health	choicePhaseStart	2	94	34	foodImage.38	FOODEEG_Images\0365.jpg	YN	Left	Yes	1.20712119998643	0	455610	253
891.060546875	0	health	response	2	94	34	foodImage.38	FOODEEG_Images\0365.jpg	YN	Left	Yes	1.20712119998643	0	456224	234
892.10546875	1	taste	trialStart	2	95	35	foodImage.4	FOODEEG_Images\0065.jpg	YN	Left	Yes	1.11839369998779	0	456759	251
893.162109375	2	taste	foodImageDisplay	2	95	35	foodImage.4	FOODEEG_Images\0065.jpg	YN	Left	Yes	1.11839369998779	0	457300	252
895.224609375	1.11839369998779	taste	choicePhaseStart	2	95	35	foodImage.4	FOODEEG_Images\0065.jpg	YN	Left	Yes	1.11839369998779	0	458356	253
896.33203125	0	taste	response	2	95	35	foodImage.4	FOODEEG_Images\0065.jpg	YN	Left	Yes	1.11839369998779	0	458923	234
897.375	1	taste	trialStart	2	96	36	foodImage.37	FOODEEG_Images\0359.jpg	NY	Left	No	1.46285800001351	0	459457	251
898.416015625	2	taste	foodImageDisplay	2	96	36	foodImage.37	FOODEEG_Images\0359.jpg	NY	Left	No	1.46285800001351	0	459990	252
900.478515625	1.46285800001351	taste	choicePhaseStart	2	96	36	foodImage.37	FOODEEG_Images\0359.jpg	NY	Left	No	1.46285800001351	0	461046	253
901.931640625	0	taste	response	2	96	36	foodImage.37	FOODEEG_Images\0359.jpg	NY	Left	No	1.46285800001351	0	461790	234
902.98828125	1	taste	trialStart	2	97	37	foodImage.12	FOODEEG_Images\0181.jpg	YN	Left	Yes	0.938235400011763	0	462331	251
904.029296875	2	taste	foodImageDisplay	2	97	37	foodImage.12	FOODEEG_Images\0181.jpg	YN	Left	Yes	0.938235400011763	0	462864	252
906.091796875	0.938235400011763	taste	choicePhaseStart	2	97	37	foodImage.12	FOODEEG_Images\0181.jpg	YN	Left	Yes	0.938235400011763	0	463920	253
907.01953125	0	taste	response	2	97	37	foodImage.12	FOODEEG_Images\0181.jpg	YN	Left	Yes	0.938235400011763	0	464395	234
908.064453125	1	taste	trialStart	2	98	38	foodImage.110	FOODEEG_Images\0918.jpg	NY	Left	No	4.15887320000911	0	464930	251
909.119140625	2	taste	foodImageDisplay	2	98	38	foodImage.110	FOODEEG_Images\0918.jpg	NY	Left	No	4.15887320000911	0	465470	252
911.181640625	4.15887320000911	taste	choicePhaseStart	2	98	38	foodImage.110	FOODEEG_Images\0918.jpg	NY	Left	No	4.15887320000911	0	466526	253
915.33203125	0	taste	response	2	98	38	foodImage.110	FOODEEG_Images\0918.jpg	NY	Left	No	4.15887320000911	0	468651	234
916.380859375	1	taste	trialStart	2	99	39	foodImage.112	FOODEEG_Images\0920.jpg	NY	Left	No	2.04253640002571	0	469188	251
917.41796875	2	taste	foodImageDisplay	2	99	39	foodImage.112	FOODEEG_Images\0920.jpg	NY	Left	No	2.04253640002571	0	469719	252
919.482421875	2.04253640002571	taste	choicePhaseStart	2	99	39	foodImage.112	FOODEEG_Images\0920.jpg	NY	Left	No	2.04253640002571	0	470776	253
921.515625	0	taste	response	2	99	39	foodImage.112	FOODEEG_Images\0920.jpg	NY	Left	No	2.04253640002571	0	471817	234
922.556640625	1	health	trialStart	2	100	40	foodImage.11	FOODEEG_Images\0180.jpg	YN	Left	Yes	1.01479009998729	0	472350	251
923.599609375	2	health	foodImageDisplay	2	100	40	foodImage.11	FOODEEG_Images\0180.jpg	YN	Left	Yes	1.01479009998729	0	472884	252
925.662109375	1.01479009998729	health	choicePhaseStart	2	100	40	foodImage.11	FOODEEG_Images\0180.jpg	YN	Left	Yes	1.01479009998729	0	473940	253
926.66796875	0	health	response	2	100	40	foodImage.11	FOODEEG_Images\0180.jpg	YN	Left	Yes	1.01479009998729	0	474455	234
927.7109375	1	decision	trialStart	2	101	41	foodImage.62	FOODEEG_Images\0644.jpg	YN	Right	No	1.03613570000743	0	474989	251
928.76953125	2	decision	foodImageDisplay	2	101	41	foodImage.62	FOODEEG_Images\0644.jpg	YN	Right	No	1.03613570000743	0	475531	252
930.83203125	1.03613570000743	decision	choicePhaseStart	2	101	41	foodImage.62	FOODEEG_Images\0644.jpg	YN	Right	No	1.03613570000743	0	476587	253
931.859375	0	decision	response	2	101	41	foodImage.62	FOODEEG_Images\0644.jpg	YN	Right	No	1.03613570000743	0	477113	235
932.908203125	1	taste	trialStart	2	102	42	foodImage.120	FOODEEG_Images\0928.jpg	NY	Left	No	2.44519159995252	0	477650	251
933.953125	2	taste	foodImageDisplay	2	102	42	foodImage.120	FOODEEG_Images\0928.jpg	NY	Left	No	2.44519159995252	0	478185	252
936.015625	2.44519159995252	taste	choicePhaseStart	2	102	42	foodImage.120	FOODEEG_Images\0928.jpg	NY	Left	No	2.44519159995252	0	479241	253
938.451171875	0	taste	response	2	102	42	foodImage.120	FOODEEG_Images\0928.jpg	NY	Left	No	2.44519159995252	0	480488	234
939.494140625	1	health	trialStart	2	103	43	foodImage.81	FOODEEG_Images\0797.jpg	NY	Right	Yes	1.85422059998382	0	481022	251
940.548828125	2	health	foodImageDisplay	2	103	43	foodImage.81	FOODEEG_Images\0797.jpg	NY	Right	Yes	1.85422059998382	0	481562	252
942.61328125	1.85422059998382	health	choicePhaseStart	2	103	43	foodImage.81	FOODEEG_Images\0797.jpg	NY	Right	Yes	1.85422059998382	0	482619	253
944.458984375	0	health	response	2	103	43	foodImage.81	FOODEEG_Images\0797.jpg	NY	Right	Yes	1.85422059998382	0	483564	235
945.501953125	1	decision	trialStart	2	104	44	foodImage.66	FOODEEG_Images\0676.jpg	YN	Left	Yes	1.28445479995571	0	484098	251
946.54296875	2	decision	foodImageDisplay	2	104	44	foodImage.66	FOODEEG_Images\0676.jpg	YN	Left	Yes	1.28445479995571	0	484631	252
948.60546875	1.28445479995571	decision	choicePhaseStart	2	104	44	foodImage.66	FOODEEG_Images\0676.jpg	YN	Left	Yes	1.28445479995571	0	485687	253
949.8828125	0	decision	response	2	104	44	foodImage.66	FOODEEG_Images\0676.jpg	YN	Left	Yes	1.28445479995571	0	486341	234
950.9296875	1	taste	trialStart	2	105	45	foodImage.118	FOODEEG_Images\0926.jpg	NY	Left	No	2.15128250000998	0	486877	251
951.974609375	2	taste	foodImageDisplay	2	105	45	foodImage.118	FOODEEG_Images\0926.jpg	NY	Left	No	2.15128250000998	0	487412	252
954.037109375	2.15128250000998	taste	choicePhaseStart	2	105	45	foodImage.118	FOODEEG_Images\0926.jpg	NY	Left	No	2.15128250000998	0	488468	253
956.177734375	0	taste	response	2	105	45	foodImage.118	FOODEEG_Images\0926.jpg	NY	Left	No	2.15128250000998	0	489564	234
957.220703125	1	taste	trialStart	2	106	46	foodImage.82	FOODEEG_Images\0805.jpg	YN	Right	No	2.16163690004032	0	490098	251
958.275390625	2	taste	foodImageDisplay	2	106	46	foodImage.82	FOODEEG_Images\0805.jpg	YN	Right	No	2.16163690004032	0	490638	252
960.337890625	2.16163690004032	taste	choicePhaseStart	2	106	46	foodImage.82	FOODEEG_Images\0805.jpg	YN	Right	No	2.16163690004032	0	491694	253
962.490234375	0	taste	response	2	106	46	foodImage.82	FOODEEG_Images\0805.jpg	YN	Right	No	2.16163690004032	0	492796	235
963.533203125	1	taste	trialStart	2	107	47	foodImage.106	FOODEEG_Images\0914.jpg	NY	Left	No	1.39141629997175	0	493330	251
964.572265625	2	taste	foodImageDisplay	2	107	47	foodImage.106	FOODEEG_Images\0914.jpg	NY	Left	No	1.39141629997175	0	493862	252
966.634765625	1.39141629997175	taste	choicePhaseStart	2	107	47	foodImage.106	FOODEEG_Images\0914.jpg	NY	Left	No	1.39141629997175	0	494918	253
968.017578125	0	taste	response	2	107	47	foodImage.106	FOODEEG_Images\0914.jpg	NY	Left	No	1.39141629997175	0	495626	234
969.060546875	1	taste	trialStart	2	108	48	foodImage.93	FOODEEG_Images\0901.jpg	NY	Left	No	1.04657920001773	0	496160	251
970.099609375	2	taste	foodImageDisplay	2	108	48	foodImage.93	FOODEEG_Images\0901.jpg	NY	Left	No	1.04657920001773	0	496692	252
972.162109375	1.04657920001773	taste	choicePhaseStart	2	108	48	foodImage.93	FOODEEG_Images\0901.jpg	NY	Left	No	1.04657920001773	0	497748	253
973.201171875	0	taste	response	2	108	48	foodImage.93	FOODEEG_Images\0901.jpg	NY	Left	No	1.04657920001773	0	498280	234
974.244140625	1	health	trialStart	2	109	49	foodImage.49	FOODEEG_Images\0515.jpg	NY	Left	No	2.85134690004634	0	498814	251
975.287109375	2	health	foodImageDisplay	2	109	49	foodImage.49	FOODEEG_Images\0515.jpg	NY	Left	No	2.85134690004634	0	499348	252
977.349609375	2.85134690004634	health	choicePhaseStart	2	109	49	foodImage.49	FOODEEG_Images\0515.jpg	NY	Left	No	2.85134690004634	0	500404	253
980.193359375	0	health	response	2	109	49	foodImage.49	FOODEEG_Images\0515.jpg	NY	Left	No	2.85134690004634	0	501860	234
981.240234375	1	taste	trialStart	2	110	50	foodImage.80	FOODEEG_Images\0796.jpg	NY	Right	Yes	3.32096409995575	0	502396	251
982.296875	2	taste	foodImageDisplay	2	110	50	foodImage.80	FOODEEG_Images\0796.jpg	NY	Right	Yes	3.32096409995575	0	502937	252
984.359375	3.32096409995575	taste	choicePhaseStart	2	110	50	foodImage.80	FOODEEG_Images\0796.jpg	NY	Right	Yes	3.32096409995575	0	503993	253
987.673828125	0	taste	response	2	110	50	foodImage.80	FOODEEG_Images\0796.jpg	NY	Right	Yes	3.32096409995575	0	505690	235
988.71875	1	taste	trialStart	2	111	51	foodImage.50	FOODEEG_Images\0529.jpg	YN	Left	Yes	1.87574640003731	0	506225	251
989.775390625	2	taste	foodImageDisplay	2	111	51	foodImage.50	FOODEEG_Images\0529.jpg	YN	Left	Yes	1.87574640003731	0	506766	252
991.837890625	1.87574640003731	taste	choicePhaseStart	2	111	51	foodImage.50	FOODEEG_Images\0529.jpg	YN	Left	Yes	1.87574640003731	0	507822	253
993.705078125	0	taste	response	2	111	51	foodImage.50	FOODEEG_Images\0529.jpg	YN	Left	Yes	1.87574640003731	0	508778	234
994.748046875	1	decision	trialStart	2	112	52	foodImage.95	FOODEEG_Images\0903.jpg	NY	Left	No	1.41694970004028	0	509312	251
995.787109375	2	decision	foodImageDisplay	2	112	52	foodImage.95	FOODEEG_Images\0903.jpg	NY	Left	No	1.41694970004028	0	509844	252
997.849609375	1.41694970004028	decision	choicePhaseStart	2	112	52	foodImage.95	FOODEEG_Images\0903.jpg	NY	Left	No	1.41694970004028	0	510900	253
999.2578125	0	decision	response	2	112	52	foodImage.95	FOODEEG_Images\0903.jpg	NY	Left	No	1.41694970004028	0	511621	234
1000.30078125	1	health	trialStart	2	113	53	foodImage.89	FOODEEG_Images\0881.jpg	YN	Left	Yes	1.26822939998237	0	512155	251
1001.357421875	2	health	foodImageDisplay	2	113	53	foodImage.89	FOODEEG_Images\0881.jpg	YN	Left	Yes	1.26822939998237	0	512696	252
1003.419921875	1.26822939998237	health	choicePhaseStart	2	113	53	foodImage.89	FOODEEG_Images\0881.jpg	YN	Left	Yes	1.26822939998237	0	513752	253
1004.6796875	0	health	response	2	113	53	foodImage.89	FOODEEG_Images\0881.jpg	YN	Left	Yes	1.26822939998237	0	514397	234
1005.72265625	1	decision	trialStart	2	114	54	foodImage.64	FOODEEG_Images\0647.jpg	YN	Right	No	1.72511890000897	0	514931	251
1006.78125	2	decision	foodImageDisplay	2	114	54	foodImage.64	FOODEEG_Images\0647.jpg	YN	Right	No	1.72511890000897	0	515473	252
1008.84375	1.72511890000897	decision	choicePhaseStart	2	114	54	foodImage.64	FOODEEG_Images\0647.jpg	YN	Right	No	1.72511890000897	0	516529	253
1010.560546875	0	decision	response	2	114	54	foodImage.64	FOODEEG_Images\0647.jpg	YN	Right	No	1.72511890000897	0	517408	235
1011.607421875	1	health	trialStart	2	115	55	foodImage.80	FOODEEG_Images\0796.jpg	NY	Right	Yes	1.82894629996736	0	517944	251
1012.66796875	2	health	foodImageDisplay	2	115	55	foodImage.80	FOODEEG_Images\0796.jpg	NY	Right	Yes	1.82894629996736	0	518487	252
1014.73046875	1.82894629996736	health	choicePhaseStart	2	115	55	foodImage.80	FOODEEG_Images\0796.jpg	NY	Right	Yes	1.82894629996736	0	519543	253
1016.552734375	0	health	response	2	115	55	foodImage.80	FOODEEG_Images\0796.jpg	NY	Right	Yes	1.82894629996736	0	520476	235
1017.59765625	1	decision	trialStart	2	116	56	foodImage.42	FOODEEG_Images\0438.jpg	YN	Right	No	1.77592570002889	0	521011	251
1018.69140625	2	decision	foodImageDisplay	2	116	56	foodImage.42	FOODEEG_Images\0438.jpg	YN	Right	No	1.77592570002889	0	521571	252
1020.75390625	1.77592570002889	decision	choicePhaseStart	2	116	56	foodImage.42	FOODEEG_Images\0438.jpg	YN	Right	No	1.77592570002889	0	522627	253
1022.51953125	0	decision	response	2	116	56	foodImage.42	FOODEEG_Images\0438.jpg	YN	Right	No	1.77592570002889	0	523531	235
1023.568359375	1	health	trialStart	2	117	57	foodImage.68	FOODEEG_Images\0685.jpg	YN	Right	No	3.11643880000338	0	524068	251
1024.646484375	2	health	foodImageDisplay	2	117	57	foodImage.68	FOODEEG_Images\0685.jpg	YN	Right	No	3.11643880000338	0	524620	252
1026.708984375	3.11643880000338	health	choicePhaseStart	2	117	57	foodImage.68	FOODEEG_Images\0685.jpg	YN	Right	No	3.11643880000338	0	525676	253
1029.81640625	0	health	response	2	117	57	foodImage.68	FOODEEG_Images\0685.jpg	YN	Right	No	3.11643880000338	0	527267	235
1030.859375	1	decision	trialStart	2	118	58	foodImage.69	FOODEEG_Images\0693.jpg	YN	Left	Yes	1.34363120002672	0	527801	251
1031.921875	2	decision	foodImageDisplay	2	118	58	foodImage.69	FOODEEG_Images\0693.jpg	YN	Left	Yes	1.34363120002672	0	528345	252
1033.984375	1.34363120002672	decision	choicePhaseStart	2	118	58	foodImage.69	FOODEEG_Images\0693.jpg	YN	Left	Yes	1.34363120002672	0	529401	253
1035.318359375	0	decision	response	2	118	58	foodImage.69	FOODEEG_Images\0693.jpg	YN	Left	Yes	1.34363120002672	0	530084	234
1036.36328125	1	health	trialStart	2	119	59	foodImage.105	FOODEEG_Images\0913.jpg	NY	Right	Yes	1.69550929998513	0	530619	251
1037.400390625	2	health	foodImageDisplay	2	119	59	foodImage.105	FOODEEG_Images\0913.jpg	NY	Right	Yes	1.69550929998513	0	531150	252
1039.462890625	1.69550929998513	health	choicePhaseStart	2	119	59	foodImage.105	FOODEEG_Images\0913.jpg	NY	Right	Yes	1.69550929998513	0	532206	253
1041.150390625	0	health	response	2	119	59	foodImage.105	FOODEEG_Images\0913.jpg	NY	Right	Yes	1.69550929998513	0	533070	235
1042.193359375	1	health	trialStart	2	120	60	foodImage.115	FOODEEG_Images\0923.jpg	NY	Right	Yes	1.8174351999769	0	533604	251
1043.232421875	2	health	foodImageDisplay	2	120	60	foodImage.115	FOODEEG_Images\0923.jpg	NY	Right	Yes	1.8174351999769	0	534136	252
1045.294921875	1.8174351999769	health	choicePhaseStart	2	120	60	foodImage.115	FOODEEG_Images\0923.jpg	NY	Right	Yes	1.8174351999769	0	535192	253
1047.103515625	0	health	response	2	120	60	foodImage.115	FOODEEG_Images\0923.jpg	NY	Right	Yes	1.8174351999769	0	536118	235
1049.14453125	17.96875	n/a	blockEnd	n/a	n/a	n/a	n/a	n/a	n/a	n/a	n/a	n/a	n/a	537163	254
1067.11328125	2	n/a	blockStart	3	n/a	n/a	n/a	n/a	n/a	n/a	n/a	n/a	n/a	546363	250
1069.146484375	1	decision	trialStart	3	121	1	foodImage.51	FOODEEG_Images\0536.jpg	YN	Left	Yes	3.45430690003559	0	547404	251
1070.193359375	2	decision	foodImageDisplay	3	121	1	foodImage.51	FOODEEG_Images\0536.jpg	YN	Left	Yes	3.45430690003559	0	547940	252
1072.255859375	3.45430690003559	decision	choicePhaseStart	3	121	1	foodImage.51	FOODEEG_Images\0536.jpg	YN	Left	Yes	3.45430690003559	0	548996	253
1075.703125	0	decision	response	3	121	1	foodImage.51	FOODEEG_Images\0536.jpg	YN	Left	Yes	3.45430690003559	0	550761	234
1076.744140625	1	taste	trialStart	3	122	2	foodImage.41	FOODEEG_Images\0409.jpg	NY	Right	Yes	1.41780699999072	0	551294	251
1077.7890625	2	taste	foodImageDisplay	3	122	2	foodImage.41	FOODEEG_Images\0409.jpg	NY	Right	Yes	1.41780699999072	0	551829	252
1079.8515625	1.41780699999072	taste	choicePhaseStart	3	122	2	foodImage.41	FOODEEG_Images\0409.jpg	NY	Right	Yes	1.41780699999072	0	552885	253
1081.26171875	0	taste	response	3	122	2	foodImage.41	FOODEEG_Images\0409.jpg	NY	Right	Yes	1.41780699999072	0	553607	235
1082.3046875	1	taste	trialStart	3	123	3	foodImage.75	FOODEEG_Images\0763.jpg	YN	Right	No	2.17058490001364	0	554141	251
1083.34765625	2	taste	foodImageDisplay	3	123	3	foodImage.75	FOODEEG_Images\0763.jpg	YN	Right	No	2.17058490001364	0	554675	252
1085.41015625	2.17058490001364	taste	choicePhaseStart	3	123	3	foodImage.75	FOODEEG_Images\0763.jpg	YN	Right	No	2.17058490001364	0	555731	253
1087.572265625	0	taste	response	3	123	3	foodImage.75	FOODEEG_Images\0763.jpg	YN	Right	No	2.17058490001364	0	556838	235
1088.62109375	1	taste	trialStart	3	124	4	foodImage.69	FOODEEG_Images\0693.jpg	NY	Right	Yes	2.27921820001211	0	557375	251
1089.662109375	2	taste	foodImageDisplay	3	124	4	foodImage.69	FOODEEG_Images\0693.jpg	NY	Right	Yes	2.27921820001211	0	557908	252
1091.724609375	2.27921820001211	taste	choicePhaseStart	3	124	4	foodImage.69	FOODEEG_Images\0693.jpg	NY	Right	Yes	2.27921820001211	0	558964	253
1093.998046875	0	taste	response	3	124	4	foodImage.69	FOODEEG_Images\0693.jpg	NY	Right	Yes	2.27921820001211	0	560128	235
1095.044921875	1	taste	trialStart	3	125	5	foodImage.66	FOODEEG_Images\0676.jpg	NY	Right	Yes	1.97650599997723	0	560664	251
1096.0859375	2	taste	foodImageDisplay	3	125	5	foodImage.66	FOODEEG_Images\0676.jpg	NY	Right	Yes	1.97650599997723	0	561197	252
1098.1484375	1.97650599997723	taste	choicePhaseStart	3	125	5	foodImage.66	FOODEEG_Images\0676.jpg	NY	Right	Yes	1.97650599997723	0	562253	253
1100.1171875	0	taste	response	3	125	5	foodImage.66	FOODEEG_Images\0676.jpg	NY	Right	Yes	1.97650599997723	0	563261	235
1101.16015625	1	decision	trialStart	3	126	6	foodImage.20	FOODEEG_Images\0226.jpg	YN	Right	No	2.02380569995148	0	563795	251
1102.19921875	2	decision	foodImageDisplay	3	126	6	foodImage.20	FOODEEG_Images\0226.jpg	YN	Right	No	2.02380569995148	0	564327	252
1104.26171875	2.02380569995148	decision	choicePhaseStart	3	126	6	foodImage.20	FOODEEG_Images\0226.jpg	YN	Right	No	2.02380569995148	0	565383	253
1106.27734375	0	decision	response	3	126	6	foodImage.20	FOODEEG_Images\0226.jpg	YN	Right	No	2.02380569995148	0	566415	235
1107.32421875	1	taste	trialStart	3	127	7	foodImage.30	FOODEEG_Images\0282.jpg	YN	Left	Yes	3.09804519999307	0	566951	251
1108.365234375	2	taste	foodImageDisplay	3	127	7	foodImage.30	FOODEEG_Images\0282.jpg	YN	Left	Yes	3.09804519999307	0	567484	252
1110.427734375	3.09804519999307	taste	choicePhaseStart	3	127	7	foodImage.30	FOODEEG_Images\0282.jpg	YN	Left	Yes	3.09804519999307	0	568540	253
1113.515625	0	taste	response	3	127	7	foodImage.30	FOODEEG_Images\0282.jpg	YN	Left	Yes	3.09804519999307	0	570121	234
1114.55859375	1	taste	trialStart	3	128	8	foodImage.100	FOODEEG_Images\0908.jpg	YN	Right	No	1.26284159999341	0	570655	251
1115.599609375	2	taste	foodImageDisplay	3	128	8	foodImage.100	FOODEEG_Images\0908.jpg	YN	Right	No	1.26284159999341	0	571188	252
1117.662109375	1.26284159999341	taste	choicePhaseStart	3	128	8	foodImage.100	FOODEEG_Images\0908.jpg	YN	Right	No	1.26284159999341	0	572244	253
1118.916015625	0	taste	response	3	128	8	foodImage.100	FOODEEG_Images\0908.jpg	YN	Right	No	1.26284159999341	0	572886	235
1119.958984375	1	taste	trialStart	3	129	9	foodImage.92	FOODEEG_Images\0900.jpg	NY	Left	No	1.5865574000054	0	573420	251
1120.99609375	2	taste	foodImageDisplay	3	129	9	foodImage.92	FOODEEG_Images\0900.jpg	NY	Left	No	1.5865574000054	0	573951	252
1123.05859375	1.5865574000054	taste	choicePhaseStart	3	129	9	foodImage.92	FOODEEG_Images\0900.jpg	NY	Left	No	1.5865574000054	0	575007	253
1124.63671875	0	taste	response	3	129	9	foodImage.92	FOODEEG_Images\0900.jpg	NY	Left	No	1.5865574000054	0	575815	234
1125.68359375	1	taste	trialStart	3	130	10	foodImage.115	FOODEEG_Images\0923.jpg	YN	Right	No	2.99597339995671	0	576351	251
1126.72265625	2	taste	foodImageDisplay	3	130	10	foodImage.115	FOODEEG_Images\0923.jpg	YN	Right	No	2.99597339995671	0	576883	252
1128.78515625	2.99597339995671	taste	choicePhaseStart	3	130	10	foodImage.115	FOODEEG_Images\0923.jpg	YN	Right	No	2.99597339995671	0	577939	253
1131.771484375	0	taste	response	3	130	10	foodImage.115	FOODEEG_Images\0923.jpg	YN	Right	No	2.99597339995671	0	579468	235
1132.814453125	1	health	trialStart	3	131	11	foodImage.111	FOODEEG_Images\0919.jpg	YN	Right	No	1.84848330001114	0	580002	251
1133.8515625	2	health	foodImageDisplay	3	131	11	foodImage.111	FOODEEG_Images\0919.jpg	YN	Right	No	1.84848330001114	0	580533	252
1135.9140625	1.84848330001114	health	choicePhaseStart	3	131	11	foodImage.111	FOODEEG_Images\0919.jpg	YN	Right	No	1.84848330001114	0	581589	253
1137.755859375	0	health	response	3	131	11	foodImage.111	FOODEEG_Images\0919.jpg	YN	Right	No	1.84848330001114	0	582532	235
1138.802734375	1	health	trialStart	3	132	12	foodImage.26	FOODEEG_Images\0262.jpg	NY	Right	Yes	1.49119410000276	0	583068	251
1139.8515625	2	health	foodImageDisplay	3	132	12	foodImage.26	FOODEEG_Images\0262.jpg	NY	Right	Yes	1.49119410000276	0	583605	252
1141.9140625	1.49119410000276	health	choicePhaseStart	3	132	12	foodImage.26	FOODEEG_Images\0262.jpg	NY	Right	Yes	1.49119410000276	0	584661	253
1143.39453125	0	health	response	3	132	12	foodImage.26	FOODEEG_Images\0262.jpg	NY	Right	Yes	1.49119410000276	0	585419	235
1144.443359375	1	decision	trialStart	3	133	13	foodImage.114	FOODEEG_Images\0922.jpg	YN	Right	No	1.10164920001989	0	585956	251
1145.48046875	2	decision	foodImageDisplay	3	133	13	foodImage.114	FOODEEG_Images\0922.jpg	YN	Right	No	1.10164920001989	0	586487	252
1147.548828125	1.10164920001989	decision	choicePhaseStart	3	133	13	foodImage.114	FOODEEG_Images\0922.jpg	YN	Right	No	1.10164920001989	0	587546	253
1148.642578125	0	decision	response	3	133	13	foodImage.114	FOODEEG_Images\0922.jpg	YN	Right	No	1.10164920001989	0	588106	235
1149.685546875	1	health	trialStart	3	134	14	foodImage.79	FOODEEG_Images\0794.jpg	NY	Right	Yes	1.55680310004391	0	588640	251
1150.73046875	2	health	foodImageDisplay	3	134	14	foodImage.79	FOODEEG_Images\0794.jpg	NY	Right	Yes	1.55680310004391	0	589175	252
1152.79296875	1.55680310004391	health	choicePhaseStart	3	134	14	foodImage.79	FOODEEG_Images\0794.jpg	NY	Right	Yes	1.55680310004391	0	590231	253
1154.33984375	0	health	response	3	134	14	foodImage.79	FOODEEG_Images\0794.jpg	NY	Right	Yes	1.55680310004391	0	591023	235
1155.3828125	1	taste	trialStart	3	135	15	foodImage.101	FOODEEG_Images\0909.jpg	NY	Left	No	1.50272540003061	0	591557	251
1156.421875	2	taste	foodImageDisplay	3	135	15	foodImage.101	FOODEEG_Images\0909.jpg	NY	Left	No	1.50272540003061	0	592089	252
1158.484375	1.50272540003061	taste	choicePhaseStart	3	135	15	foodImage.101	FOODEEG_Images\0909.jpg	NY	Left	No	1.50272540003061	0	593145	253
1159.978515625	0	taste	response	3	135	15	foodImage.101	FOODEEG_Images\0909.jpg	NY	Left	No	1.50272540003061	0	593910	234
1161.021484375	1	taste	trialStart	3	136	16	foodImage.19	FOODEEG_Images\0225.jpg	YN	Right	No	1.90191299997969	0	594444	251
1162.0625	2	taste	foodImageDisplay	3	136	16	foodImage.19	FOODEEG_Images\0225.jpg	YN	Right	No	1.90191299997969	0	594977	252
1164.125	1.90191299997969	taste	choicePhaseStart	3	136	16	foodImage.19	FOODEEG_Images\0225.jpg	YN	Right	No	1.90191299997969	0	596033	253
1166.017578125	0	taste	response	3	136	16	foodImage.19	FOODEEG_Images\0225.jpg	YN	Right	No	1.90191299997969	0	597002	235
1167.060546875	1	health	trialStart	3	137	17	foodImage.78	FOODEEG_Images\0787.jpg	NY	Right	Yes	1.24494780000532	0	597536	251
1168.103515625	2	health	foodImageDisplay	3	137	17	foodImage.78	FOODEEG_Images\0787.jpg	NY	Right	Yes	1.24494780000532	0	598070	252
1170.166015625	1.24494780000532	health	choicePhaseStart	3	137	17	foodImage.78	FOODEEG_Images\0787.jpg	NY	Right	Yes	1.24494780000532	0	599126	253
1171.40234375	0	health	response	3	137	17	foodImage.78	FOODEEG_Images\0787.jpg	NY	Right	Yes	1.24494780000532	0	599759	235
1172.4453125	1	health	trialStart	3	138	18	foodImage.63	FOODEEG_Images\0645.jpg	YN	Right	No	1.91625779995229	0	600293	251
1173.48828125	2	health	foodImageDisplay	3	138	18	foodImage.63	FOODEEG_Images\0645.jpg	YN	Right	No	1.91625779995229	0	600827	252
1175.55078125	1.91625779995229	health	choicePhaseStart	3	138	18	foodImage.63	FOODEEG_Images\0645.jpg	YN	Right	No	1.91625779995229	0	601883	253
1177.45703125	0	health	response	3	138	18	foodImage.63	FOODEEG_Images\0645.jpg	YN	Right	No	1.91625779995229	0	602859	235
1178.5	1	decision	trialStart	3	139	19	foodImage.94	FOODEEG_Images\0902.jpg	YN	Right	No	1.23884639999596	0	603393	251
1179.541015625	2	decision	foodImageDisplay	3	139	19	foodImage.94	FOODEEG_Images\0902.jpg	YN	Right	No	1.23884639999596	0	603926	252
1181.603515625	1.23884639999596	decision	choicePhaseStart	3	139	19	foodImage.94	FOODEEG_Images\0902.jpg	YN	Right	No	1.23884639999596	0	604982	253
1182.833984375	0	decision	response	3	139	19	foodImage.94	FOODEEG_Images\0902.jpg	YN	Right	No	1.23884639999596	0	605612	235
1183.876953125	1	health	trialStart	3	140	20	foodImage.44	FOODEEG_Images\0459.jpg	NY	Right	Yes	2.91201730002649	0	606146	251
1184.939453125	2	health	foodImageDisplay	3	140	20	foodImage.44	FOODEEG_Images\0459.jpg	NY	Right	Yes	2.91201730002649	0	606690	252
1187.001953125	2.91201730002649	health	choicePhaseStart	3	140	20	foodImage.44	FOODEEG_Images\0459.jpg	NY	Right	Yes	2.91201730002649	0	607746	253
1189.90625	0	health	response	3	140	20	foodImage.44	FOODEEG_Images\0459.jpg	NY	Right	Yes	2.91201730002649	0	609233	235
1190.953125	1	decision	trialStart	3	141	21	foodImage.70	FOODEEG_Images\0705.jpg	YN	Left	Yes	2.96502369997324	0	609769	251
1192.01171875	2	decision	foodImageDisplay	3	141	21	foodImage.70	FOODEEG_Images\0705.jpg	YN	Left	Yes	2.96502369997324	0	610311	252
1194.076171875	2.96502369997324	decision	choicePhaseStart	3	141	21	foodImage.70	FOODEEG_Images\0705.jpg	YN	Left	Yes	2.96502369997324	0	611368	253
1197.033203125	0	decision	response	3	141	21	foodImage.70	FOODEEG_Images\0705.jpg	YN	Left	Yes	2.96502369997324	0	612882	234
1198.0859375	1	decision	trialStart	3	142	22	foodImage.19	FOODEEG_Images\0225.jpg	NY	Left	No	1.49944099999266	0	613421	251
1199.13671875	2	decision	foodImageDisplay	3	142	22	foodImage.19	FOODEEG_Images\0225.jpg	NY	Left	No	1.49944099999266	0	613959	252
1201.19921875	1.49944099999266	decision	choicePhaseStart	3	142	22	foodImage.19	FOODEEG_Images\0225.jpg	NY	Left	No	1.49944099999266	0	615015	253
1202.689453125	0	decision	response	3	142	22	foodImage.19	FOODEEG_Images\0225.jpg	NY	Left	No	1.49944099999266	0	615778	234
1203.73828125	1	taste	trialStart	3	143	23	foodImage.35	FOODEEG_Images\0350.jpg	YN	Left	Yes	1.09009329997934	0	616315	251
1204.77734375	2	taste	foodImageDisplay	3	143	23	foodImage.35	FOODEEG_Images\0350.jpg	YN	Left	Yes	1.09009329997934	0	616847	252
1206.83984375	1.09009329997934	taste	choicePhaseStart	3	143	23	foodImage.35	FOODEEG_Images\0350.jpg	YN	Left	Yes	1.09009329997934	0	617903	253
1207.919921875	0	taste	response	3	143	23	foodImage.35	FOODEEG_Images\0350.jpg	YN	Left	Yes	1.09009329997934	0	618456	234
1208.962890625	1	taste	trialStart	3	144	24	foodImage.58	FOODEEG_Images\0605.jpg	NY	Left	No	1.43231350003043	0	618990	251
1210.01953125	2	taste	foodImageDisplay	3	144	24	foodImage.58	FOODEEG_Images\0605.jpg	NY	Left	No	1.43231350003043	0	619531	252
1212.08203125	1.43231350003043	taste	choicePhaseStart	3	144	24	foodImage.58	FOODEEG_Images\0605.jpg	NY	Left	No	1.43231350003043	0	620587	253
1213.50390625	0	taste	response	3	144	24	foodImage.58	FOODEEG_Images\0605.jpg	NY	Left	No	1.43231350003043	0	621315	234
1214.548828125	1	decision	trialStart	3	145	25	foodImage.18	FOODEEG_Images\0202.jpg	YN	Right	No	1.832136299985	0	621850	251
1215.603515625	2	decision	foodImageDisplay	3	145	25	foodImage.18	FOODEEG_Images\0202.jpg	YN	Right	No	1.832136299985	0	622390	252
1217.666015625	1.832136299985	decision	choicePhaseStart	3	145	25	foodImage.18	FOODEEG_Images\0202.jpg	YN	Right	No	1.832136299985	0	623446	253
1219.48828125	0	decision	response	3	145	25	foodImage.18	FOODEEG_Images\0202.jpg	YN	Right	No	1.832136299985	0	624379	235
1220.53515625	1	health	trialStart	3	146	26	foodImage.37	FOODEEG_Images\0359.jpg	NY	Right	Yes	2.45771160000004	0	624915	251
1221.576171875	2	health	foodImageDisplay	3	146	26	foodImage.37	FOODEEG_Images\0359.jpg	NY	Right	Yes	2.45771160000004	0	625448	252
1223.638671875	2.45771160000004	health	choicePhaseStart	3	146	26	foodImage.37	FOODEEG_Images\0359.jpg	NY	Right	Yes	2.45771160000004	0	626504	253
1226.087890625	0	health	response	3	146	26	foodImage.37	FOODEEG_Images\0359.jpg	NY	Right	Yes	2.45771160000004	0	627758	235
1227.134765625	1	decision	trialStart	3	147	27	foodImage.44	FOODEEG_Images\0459.jpg	NY	Left	No	2.73092259996338	0	628294	251
1228.181640625	2	decision	foodImageDisplay	3	147	27	foodImage.44	FOODEEG_Images\0459.jpg	NY	Left	No	2.73092259996338	0	628830	252
1230.244140625	2.73092259996338	decision	choicePhaseStart	3	147	27	foodImage.44	FOODEEG_Images\0459.jpg	NY	Left	No	2.73092259996338	0	629886	253
1232.966796875	0	decision	response	3	147	27	foodImage.44	FOODEEG_Images\0459.jpg	NY	Left	No	2.73092259996338	0	631280	234
1234.009765625	1	taste	trialStart	3	148	28	foodImage.77	FOODEEG_Images\0771.jpg	YN	Left	Yes	2.8508303000126	0	631814	251
1235.0546875	2	taste	foodImageDisplay	3	148	28	foodImage.77	FOODEEG_Images\0771.jpg	YN	Left	Yes	2.8508303000126	0	632349	252
1237.1171875	2.8508303000126	taste	choicePhaseStart	3	148	28	foodImage.77	FOODEEG_Images\0771.jpg	YN	Left	Yes	2.8508303000126	0	633405	253
1239.958984375	0	taste	response	3	148	28	foodImage.77	FOODEEG_Images\0771.jpg	YN	Left	Yes	2.8508303000126	0	634860	234
1241.001953125	1	taste	trialStart	3	149	29	foodImage.34	FOODEEG_Images\0339.jpg	YN	Left	Yes	0.783167199988384	0	635394	251
1242.083984375	2	taste	foodImageDisplay	3	149	29	foodImage.34	FOODEEG_Images\0339.jpg	YN	Left	Yes	0.783167199988384	0	635948	252
1244.15234375	0.783167199988384	taste	choicePhaseStart	3	149	29	foodImage.34	FOODEEG_Images\0339.jpg	YN	Left	Yes	0.783167199988384	0	637007	253
1244.927734375	0	taste	response	3	149	29	foodImage.34	FOODEEG_Images\0339.jpg	YN	Left	Yes	0.783167199988384	0	637404	234
1245.974609375	1	decision	trialStart	3	150	30	foodImage.6	FOODEEG_Images\0113.jpg	YN	Left	Yes	0.912718500010669	0	637940	251
1247.017578125	2	decision	foodImageDisplay	3	150	30	foodImage.6	FOODEEG_Images\0113.jpg	YN	Left	Yes	0.912718500010669	0	638474	252
1249.080078125	0.912718500010669	decision	choicePhaseStart	3	150	30	foodImage.6	FOODEEG_Images\0113.jpg	YN	Left	Yes	0.912718500010669	0	639530	253
1249.982421875	0	decision	response	3	150	30	foodImage.6	FOODEEG_Images\0113.jpg	YN	Left	Yes	0.912718500010669	0	639992	234
1251.0390625	1	health	trialStart	3	151	31	foodImage.23	FOODEEG_Images\0244.jpg	NY	Right	Yes	2.19396589999087	0	640533	251
1252.080078125	2	health	foodImageDisplay	3	151	31	foodImage.23	FOODEEG_Images\0244.jpg	NY	Right	Yes	2.19396589999087	0	641066	252
1254.142578125	2.19396589999087	health	choicePhaseStart	3	151	31	foodImage.23	FOODEEG_Images\0244.jpg	NY	Right	Yes	2.19396589999087	0	642122	253
1256.326171875	0	health	response	3	151	31	foodImage.23	FOODEEG_Images\0244.jpg	NY	Right	Yes	2.19396589999087	0	643240	235
1257.369140625	1	taste	trialStart	3	152	32	foodImage.10	FOODEEG_Images\0145.jpg	YN	Left	Yes	0.933599100040738	0	643774	251
1258.427734375	2	taste	foodImageDisplay	3	152	32	foodImage.10	FOODEEG_Images\0145.jpg	YN	Left	Yes	0.933599100040738	0	644316	252
1260.490234375	0.933599100040738	taste	choicePhaseStart	3	152	32	foodImage.10	FOODEEG_Images\0145.jpg	YN	Left	Yes	0.933599100040738	0	645372	253
1261.4140625	0	taste	response	3	152	32	foodImage.10	FOODEEG_Images\0145.jpg	YN	Left	Yes	0.933599100040738	0	645845	234
1262.45703125	1	decision	trialStart	3	153	33	foodImage.103	FOODEEG_Images\0911.jpg	NY	Left	No	1.29812719998881	0	646379	251
1263.494140625	2	decision	foodImageDisplay	3	153	33	foodImage.103	FOODEEG_Images\0911.jpg	NY	Left	No	1.29812719998881	0	646910	252
1265.556640625	1.29812719998881	decision	choicePhaseStart	3	153	33	foodImage.103	FOODEEG_Images\0911.jpg	NY	Left	No	1.29812719998881	0	647966	253
1266.845703125	0	decision	response	3	153	33	foodImage.103	FOODEEG_Images\0911.jpg	NY	Left	No	1.29812719998881	0	648626	234
1267.89453125	1	decision	trialStart	3	154	34	foodImage.57	FOODEEG_Images\0587.jpg	NY	Right	Yes	0.879013900004793	0	649163	251
1268.9375	2	decision	foodImageDisplay	3	154	34	foodImage.57	FOODEEG_Images\0587.jpg	NY	Right	Yes	0.879013900004793	0	649697	252
1271	0.879013900004793	decision	choicePhaseStart	3	154	34	foodImage.57	FOODEEG_Images\0587.jpg	NY	Right	Yes	0.879013900004793	0	650753	253
1271.87109375	0	decision	response	3	154	34	foodImage.57	FOODEEG_Images\0587.jpg	NY	Right	Yes	0.879013900004793	0	651199	235
1272.9140625	1	taste	trialStart	3	155	35	foodImage.87	FOODEEG_Images\0873.jpg	YN	Right	No	1.31613960000686	0	651733	251
1273.970703125	2	taste	foodImageDisplay	3	155	35	foodImage.87	FOODEEG_Images\0873.jpg	YN	Right	No	1.31613960000686	0	652274	252
1276.03515625	1.31613960000686	taste	choicePhaseStart	3	155	35	foodImage.87	FOODEEG_Images\0873.jpg	YN	Right	No	1.31613960000686	0	653331	253
1277.341796875	0	taste	response	3	155	35	foodImage.87	FOODEEG_Images\0873.jpg	YN	Right	No	1.31613960000686	0	654000	235
1278.390625	1	taste	trialStart	3	156	36	foodImage.103	FOODEEG_Images\0911.jpg	YN	Right	No	0.955983300053049	0	654537	251
1279.435546875	2	taste	foodImageDisplay	3	156	36	foodImage.103	FOODEEG_Images\0911.jpg	YN	Right	No	0.955983300053049	0	655072	252
1281.498046875	0.955983300053049	taste	choicePhaseStart	3	156	36	foodImage.103	FOODEEG_Images\0911.jpg	YN	Right	No	0.955983300053049	0	656128	253
1282.4453125	0	taste	response	3	156	36	foodImage.103	FOODEEG_Images\0911.jpg	YN	Right	No	0.955983300053049	0	656613	235
1283.494140625	1	decision	trialStart	3	157	37	foodImage.34	FOODEEG_Images\0339.jpg	NY	Right	Yes	1.1188467000029	0	657150	251
1284.55078125	2	decision	foodImageDisplay	3	157	37	foodImage.34	FOODEEG_Images\0339.jpg	NY	Right	Yes	1.1188467000029	0	657691	252
1286.615234375	1.1188467000029	decision	choicePhaseStart	3	157	37	foodImage.34	FOODEEG_Images\0339.jpg	NY	Right	Yes	1.1188467000029	0	658748	253
1287.724609375	0	decision	response	3	157	37	foodImage.34	FOODEEG_Images\0339.jpg	NY	Right	Yes	1.1188467000029	0	659316	235
1288.767578125	1	taste	trialStart	3	158	38	foodImage.54	FOODEEG_Images\0560.jpg	YN	Right	No	1.58586279995507	0	659850	251
1289.822265625	2	taste	foodImageDisplay	3	158	38	foodImage.54	FOODEEG_Images\0560.jpg	YN	Right	No	1.58586279995507	0	660390	252
1291.884765625	1.58586279995507	taste	choicePhaseStart	3	158	38	foodImage.54	FOODEEG_Images\0560.jpg	YN	Right	No	1.58586279995507	0	661446	253
1293.4609375	0	taste	response	3	158	38	foodImage.54	FOODEEG_Images\0560.jpg	YN	Right	No	1.58586279995507	0	662253	235
1294.509765625	1	health	trialStart	3	159	39	foodImage.62	FOODEEG_Images\0644.jpg	NY	Right	Yes	1.96310789999552	0	662790	251
1295.564453125	2	health	foodImageDisplay	3	159	39	foodImage.62	FOODEEG_Images\0644.jpg	NY	Right	Yes	1.96310789999552	0	663330	252
1297.626953125	1.96310789999552	health	choicePhaseStart	3	159	39	foodImage.62	FOODEEG_Images\0644.jpg	NY	Right	Yes	1.96310789999552	0	664386	253
1299.580078125	0	health	response	3	159	39	foodImage.62	FOODEEG_Images\0644.jpg	NY	Right	Yes	1.96310789999552	0	665386	235
1300.625	1	decision	trialStart	3	160	40	foodImage.72	FOODEEG_Images\0714.jpg	YN	Right	No	1.11123969999608	0	665921	251
1301.6875	2	decision	foodImageDisplay	3	160	40	foodImage.72	FOODEEG_Images\0714.jpg	YN	Right	No	1.11123969999608	0	666465	252
1303.75	1.11123969999608	decision	choicePhaseStart	3	160	40	foodImage.72	FOODEEG_Images\0714.jpg	YN	Right	No	1.11123969999608	0	667521	253
1304.853515625	0	decision	response	3	160	40	foodImage.72	FOODEEG_Images\0714.jpg	YN	Right	No	1.11123969999608	0	668086	235
1305.89453125	1	decision	trialStart	3	161	41	foodImage.33	FOODEEG_Images\0329.jpg	NY	Right	Yes	1.11555669998052	0	668619	251
1306.935546875	2	decision	foodImageDisplay	3	161	41	foodImage.33	FOODEEG_Images\0329.jpg	NY	Right	Yes	1.11555669998052	0	669152	252
1309.001953125	1.11555669998052	decision	choicePhaseStart	3	161	41	foodImage.33	FOODEEG_Images\0329.jpg	NY	Right	Yes	1.11555669998052	0	670210	253
1310.109375	0	decision	response	3	161	41	foodImage.33	FOODEEG_Images\0329.jpg	NY	Right	Yes	1.11555669998052	0	670777	235
1311.154296875	1	health	trialStart	3	162	42	foodImage.21	FOODEEG_Images\0234.jpg	NY	Right	Yes	0.939750500023365	0	671312	251
1312.212890625	2	health	foodImageDisplay	3	162	42	foodImage.21	FOODEEG_Images\0234.jpg	NY	Right	Yes	0.939750500023365	0	671854	252
1314.2734375	0.939750500023365	health	choicePhaseStart	3	162	42	foodImage.21	FOODEEG_Images\0234.jpg	NY	Right	Yes	0.939750500023365	0	672909	253
1315.205078125	0	health	response	3	162	42	foodImage.21	FOODEEG_Images\0234.jpg	NY	Right	Yes	0.939750500023365	0	673386	235
1316.248046875	1	decision	trialStart	3	163	43	foodImage.112	FOODEEG_Images\0920.jpg	NY	Left	No	1.25386290001916	0	673920	251
1317.28515625	2	decision	foodImageDisplay	3	163	43	foodImage.112	FOODEEG_Images\0920.jpg	NY	Left	No	1.25386290001916	0	674451	252
1319.349609375	1.25386290001916	decision	choicePhaseStart	3	163	43	foodImage.112	FOODEEG_Images\0920.jpg	NY	Left	No	1.25386290001916	0	675508	253
1320.595703125	0	decision	response	3	163	43	foodImage.112	FOODEEG_Images\0920.jpg	NY	Left	No	1.25386290001916	0	676146	234
1321.64453125	1	taste	trialStart	3	164	44	foodImage.18	FOODEEG_Images\0202.jpg	NY	Right	Yes	1.85834269999759	0	676683	251
1322.70703125	2	taste	foodImageDisplay	3	164	44	foodImage.18	FOODEEG_Images\0202.jpg	NY	Right	Yes	1.85834269999759	0	677227	252
1324.76953125	1.85834269999759	taste	choicePhaseStart	3	164	44	foodImage.18	FOODEEG_Images\0202.jpg	NY	Right	Yes	1.85834269999759	0	678283	253
1326.619140625	0	taste	response	3	164	44	foodImage.18	FOODEEG_Images\0202.jpg	NY	Right	Yes	1.85834269999759	0	679230	235
1327.66796875	1	decision	trialStart	3	165	45	foodImage.108	FOODEEG_Images\0916.jpg	NY	Left	No	1.02655020001112	0	679767	251
1328.70703125	2	decision	foodImageDisplay	3	165	45	foodImage.108	FOODEEG_Images\0916.jpg	NY	Left	No	1.02655020001112	0	680299	252
1330.76953125	1.02655020001112	decision	choicePhaseStart	3	165	45	foodImage.108	FOODEEG_Images\0916.jpg	NY	Left	No	1.02655020001112	0	681355	253
1331.787109375	0	decision	response	3	165	45	foodImage.108	FOODEEG_Images\0916.jpg	NY	Left	No	1.02655020001112	0	681876	234
1332.830078125	1	health	trialStart	3	166	46	foodImage.107	FOODEEG_Images\0915.jpg	NY	Right	Yes	2.38399609999033	0	682410	251
1333.869140625	2	health	foodImageDisplay	3	166	46	foodImage.107	FOODEEG_Images\0915.jpg	NY	Right	Yes	2.38399609999033	0	682942	252
1335.931640625	2.38399609999033	health	choicePhaseStart	3	166	46	foodImage.107	FOODEEG_Images\0915.jpg	NY	Right	Yes	2.38399609999033	0	683998	253
1338.306640625	0	health	response	3	166	46	foodImage.107	FOODEEG_Images\0915.jpg	NY	Right	Yes	2.38399609999033	0	685214	235
1339.349609375	1	health	trialStart	3	167	47	foodImage.14	FOODEEG_Images\0188.jpg	NY	Right	Yes	1.70579699997324	0	685748	251
1340.427734375	2	health	foodImageDisplay	3	167	47	foodImage.14	FOODEEG_Images\0188.jpg	NY	Right	Yes	1.70579699997324	0	686300	252
1342.490234375	1.70579699997324	health	choicePhaseStart	3	167	47	foodImage.14	FOODEEG_Images\0188.jpg	NY	Right	Yes	1.70579699997324	0	687356	253
1344.1875	0	health	response	3	167	47	foodImage.14	FOODEEG_Images\0188.jpg	NY	Right	Yes	1.70579699997324	0	688225	235
1345.23046875	1	health	trialStart	3	168	48	foodImage.104	FOODEEG_Images\0912.jpg	NY	Left	No	1.01685330003966	0	688759	251
1346.267578125	2	health	foodImageDisplay	3	168	48	foodImage.104	FOODEEG_Images\0912.jpg	NY	Left	No	1.01685330003966	0	689290	252
1348.330078125	1.01685330003966	health	choicePhaseStart	3	168	48	foodImage.104	FOODEEG_Images\0912.jpg	NY	Left	No	1.01685330003966	0	690346	253
1349.33984375	0	health	response	3	168	48	foodImage.104	FOODEEG_Images\0912.jpg	NY	Left	No	1.01685330003966	0	690863	234
1350.3828125	1	taste	trialStart	3	169	49	foodImage.31	FOODEEG_Images\0294.jpg	NY	Right	Yes	1.11653420003131	0	691397	251
1351.423828125	2	taste	foodImageDisplay	3	169	49	foodImage.31	FOODEEG_Images\0294.jpg	NY	Right	Yes	1.11653420003131	0	691930	252
1353.486328125	1.11653420003131	taste	choicePhaseStart	3	169	49	foodImage.31	FOODEEG_Images\0294.jpg	NY	Right	Yes	1.11653420003131	0	692986	253
1354.595703125	0	taste	response	3	169	49	foodImage.31	FOODEEG_Images\0294.jpg	NY	Right	Yes	1.11653420003131	0	693554	235
1355.642578125	1	taste	trialStart	3	170	50	foodImage.107	FOODEEG_Images\0915.jpg	YN	Right	No	1.16858719999436	0	694090	251
1356.68359375	2	taste	foodImageDisplay	3	170	50	foodImage.107	FOODEEG_Images\0915.jpg	YN	Right	No	1.16858719999436	0	694623	252
1358.74609375	1.16858719999436	taste	choicePhaseStart	3	170	50	foodImage.107	FOODEEG_Images\0915.jpg	YN	Right	No	1.16858719999436	0	695679	253
1359.90625	0	taste	response	3	170	50	foodImage.107	FOODEEG_Images\0915.jpg	YN	Right	No	1.16858719999436	0	696273	235
1360.951171875	1	taste	trialStart	3	171	51	foodImage.2	FOODEEG_Images\0028.jpg	NY	Right	Yes	1.14189610001631	0	696808	251
1361.994140625	2	taste	foodImageDisplay	3	171	51	foodImage.2	FOODEEG_Images\0028.jpg	NY	Right	Yes	1.14189610001631	0	697342	252
1364.060546875	1.14189610001631	taste	choicePhaseStart	3	171	51	foodImage.2	FOODEEG_Images\0028.jpg	NY	Right	Yes	1.14189610001631	0	698400	253
1365.193359375	0	taste	response	3	171	51	foodImage.2	FOODEEG_Images\0028.jpg	NY	Right	Yes	1.14189610001631	0	698980	235
1366.240234375	1	decision	trialStart	3	172	52	foodImage.23	FOODEEG_Images\0244.jpg	NY	Left	No	0.994662799988873	0	699516	251
1367.28125	2	decision	foodImageDisplay	3	172	52	foodImage.23	FOODEEG_Images\0244.jpg	NY	Left	No	0.994662799988873	0	700049	252
1369.34375	0.994662799988873	decision	choicePhaseStart	3	172	52	foodImage.23	FOODEEG_Images\0244.jpg	NY	Left	No	0.994662799988873	0	701105	253
1370.330078125	0	decision	response	3	172	52	foodImage.23	FOODEEG_Images\0244.jpg	NY	Left	No	0.994662799988873	0	701610	234
1371.375	1	taste	trialStart	3	173	53	foodImage.79	FOODEEG_Images\0794.jpg	NY	Left	No	2.28333830001066	0	702145	251
1372.41796875	2	taste	foodImageDisplay	3	173	53	foodImage.79	FOODEEG_Images\0794.jpg	NY	Left	No	2.28333830001066	0	702679	252
1374.48046875	2.28333830001066	taste	choicePhaseStart	3	173	53	foodImage.79	FOODEEG_Images\0794.jpg	NY	Left	No	2.28333830001066	0	703735	253
1376.75390625	0	taste	response	3	173	53	foodImage.79	FOODEEG_Images\0794.jpg	NY	Left	No	2.28333830001066	0	704899	234
1377.802734375	1	health	trialStart	3	174	54	foodImage.101	FOODEEG_Images\0909.jpg	YN	Right	No	6.90208010002971	1	705436	251
1378.83984375	2	health	foodImageDisplay	3	174	54	foodImage.101	FOODEEG_Images\0909.jpg	YN	Right	No	6.90208010002971	1	705967	252
1380.900390625	6.90208010002971	health	choicePhaseStart	3	174	54	foodImage.101	FOODEEG_Images\0909.jpg	YN	Right	No	6.90208010002971	1	707022	253
1387.79296875	0	health	response	3	174	54	foodImage.101	FOODEEG_Images\0909.jpg	YN	Right	No	6.90208010002971	1	710551	235
1388.8359375	1	decision	trialStart	3	175	55	foodImage.111	FOODEEG_Images\0919.jpg	NY	Left	No	1.58559139998397	0	711085	251
1389.873046875	2	decision	foodImageDisplay	3	175	55	foodImage.111	FOODEEG_Images\0919.jpg	NY	Left	No	1.58559139998397	0	711616	252
1391.935546875	1.58559139998397	decision	choicePhaseStart	3	175	55	foodImage.111	FOODEEG_Images\0919.jpg	NY	Left	No	1.58559139998397	0	712672	253
1393.513671875	0	decision	response	3	175	55	foodImage.111	FOODEEG_Images\0919.jpg	NY	Left	No	1.58559139998397	0	713480	234
1394.556640625	1	decision	trialStart	3	176	56	foodImage.15	FOODEEG_Images\0189.jpg	NY	Right	Yes	2.66784529999131	0	714014	251
1395.615234375	2	decision	foodImageDisplay	3	176	56	foodImage.15	FOODEEG_Images\0189.jpg	NY	Right	Yes	2.66784529999131	0	714556	252
1397.677734375	2.66784529999131	decision	choicePhaseStart	3	176	56	foodImage.15	FOODEEG_Images\0189.jpg	NY	Right	Yes	2.66784529999131	0	715612	253
1400.337890625	0	decision	response	3	176	56	foodImage.15	FOODEEG_Images\0189.jpg	NY	Right	Yes	2.66784529999131	0	716974	235
1401.380859375	1	health	trialStart	3	177	57	foodImage.66	FOODEEG_Images\0676.jpg	NY	Left	No	1.26304950000485	0	717508	251
1402.419921875	2	health	foodImageDisplay	3	177	57	foodImage.66	FOODEEG_Images\0676.jpg	NY	Left	No	1.26304950000485	0	718040	252
1404.482421875	1.26304950000485	health	choicePhaseStart	3	177	57	foodImage.66	FOODEEG_Images\0676.jpg	NY	Left	No	1.26304950000485	0	719096	253
1405.736328125	0	health	response	3	177	57	foodImage.66	FOODEEG_Images\0676.jpg	NY	Left	No	1.26304950000485	0	719738	234
1406.78125	1	decision	trialStart	3	178	58	foodImage.1	FOODEEG_Images\0004.jpg	YN	Left	Yes	1.31313989998307	0	720273	251
1407.82421875	2	decision	foodImageDisplay	3	178	58	foodImage.1	FOODEEG_Images\0004.jpg	YN	Left	Yes	1.31313989998307	0	720807	252
1409.88671875	1.31313989998307	decision	choicePhaseStart	3	178	58	foodImage.1	FOODEEG_Images\0004.jpg	YN	Left	Yes	1.31313989998307	0	721863	253
1411.193359375	0	decision	response	3	178	58	foodImage.1	FOODEEG_Images\0004.jpg	YN	Left	Yes	1.31313989998307	0	722532	234
1412.236328125	1	taste	trialStart	3	179	59	foodImage.91	FOODEEG_Images\0896.jpg	YN	Left	Yes	1.74622359999921	0	723066	251
1413.294921875	2	taste	foodImageDisplay	3	179	59	foodImage.91	FOODEEG_Images\0896.jpg	YN	Left	Yes	1.74622359999921	0	723608	252
1415.357421875	1.74622359999921	taste	choicePhaseStart	3	179	59	foodImage.91	FOODEEG_Images\0896.jpg	YN	Left	Yes	1.74622359999921	0	724664	253
1417.095703125	0	taste	response	3	179	59	foodImage.91	FOODEEG_Images\0896.jpg	YN	Left	Yes	1.74622359999921	0	725554	234
1418.140625	1	taste	trialStart	3	180	60	foodImage.15	FOODEEG_Images\0189.jpg	YN	Left	Yes	1.47678259998793	0	726089	251
1419.197265625	2	taste	foodImageDisplay	3	180	60	foodImage.15	FOODEEG_Images\0189.jpg	YN	Left	Yes	1.47678259998793	0	726630	252
1421.259765625	1.47678259998793	taste	choicePhaseStart	3	180	60	foodImage.15	FOODEEG_Images\0189.jpg	YN	Left	Yes	1.47678259998793	0	727686	253
1422.728515625	0	taste	response	3	180	60	foodImage.15	FOODEEG_Images\0189.jpg	YN	Left	Yes	1.47678259998793	0	728438	234
1424.76953125	22.54296875	n/a	blockEnd	n/a	n/a	n/a	n/a	n/a	n/a	n/a	n/a	n/a	n/a	729483	254
1447.3125	2	n/a	blockStart	4	n/a	n/a	n/a	n/a	n/a	n/a	n/a	n/a	n/a	741025	250
1449.345703125	1	health	trialStart	4	181	1	foodImage.90	FOODEEG_Images\0890.jpg	NY	Right	Yes	1.90610379999271	0	742066	251
1450.40625	2	health	foodImageDisplay	4	181	1	foodImage.90	FOODEEG_Images\0890.jpg	NY	Right	Yes	1.90610379999271	0	742609	252
1452.46875	1.90610379999271	health	choicePhaseStart	4	181	1	foodImage.90	FOODEEG_Images\0890.jpg	NY	Right	Yes	1.90610379999271	0	743665	253
1454.3671875	0	health	response	4	181	1	foodImage.90	FOODEEG_Images\0890.jpg	NY	Right	Yes	1.90610379999271	0	744637	235
1455.4140625	1	health	trialStart	4	182	2	foodImage.76	FOODEEG_Images\0766.jpg	YN	Left	Yes	1.22071470000083	0	745173	251
1456.4609375	2	health	foodImageDisplay	4	182	2	foodImage.76	FOODEEG_Images\0766.jpg	YN	Left	Yes	1.22071470000083	0	745709	252
1458.5234375	1.22071470000083	health	choicePhaseStart	4	182	2	foodImage.76	FOODEEG_Images\0766.jpg	YN	Left	Yes	1.22071470000083	0	746765	253
1459.734375	0	health	response	4	182	2	foodImage.76	FOODEEG_Images\0766.jpg	YN	Left	Yes	1.22071470000083	0	747385	234
1460.77734375	1	decision	trialStart	4	183	3	foodImage.119	FOODEEG_Images\0927.jpg	NY	Left	No	1.46488310000859	0	747919	251
1461.81640625	2	decision	foodImageDisplay	4	183	3	foodImage.119	FOODEEG_Images\0927.jpg	NY	Left	No	1.46488310000859	0	748451	252
1463.87890625	1.46488310000859	decision	choicePhaseStart	4	183	3	foodImage.119	FOODEEG_Images\0927.jpg	NY	Left	No	1.46488310000859	0	749507	253
1465.333984375	0	decision	response	4	183	3	foodImage.119	FOODEEG_Images\0927.jpg	NY	Left	No	1.46488310000859	0	750252	234
1466.37890625	1	taste	trialStart	4	184	4	foodImage.25	FOODEEG_Images\0261.jpg	NY	Left	No	3.10043270001188	0	750787	251
1467.419921875	2	taste	foodImageDisplay	4	184	4	foodImage.25	FOODEEG_Images\0261.jpg	NY	Left	No	3.10043270001188	0	751320	252
1469.482421875	3.10043270001188	taste	choicePhaseStart	4	184	4	foodImage.25	FOODEEG_Images\0261.jpg	NY	Left	No	3.10043270001188	0	752376	253
1472.57421875	0	taste	response	4	184	4	foodImage.25	FOODEEG_Images\0261.jpg	NY	Left	No	3.10043270001188	0	753959	234
1473.6171875	1	decision	trialStart	4	185	5	foodImage.87	FOODEEG_Images\0873.jpg	YN	Right	No	1.5079147000215	0	754493	251
1474.67578125	2	decision	foodImageDisplay	4	185	5	foodImage.87	FOODEEG_Images\0873.jpg	YN	Right	No	1.5079147000215	0	755035	252
1476.740234375	1.5079147000215	decision	choicePhaseStart	4	185	5	foodImage.87	FOODEEG_Images\0873.jpg	YN	Right	No	1.5079147000215	0	756092	253
1478.23828125	0	decision	response	4	185	5	foodImage.87	FOODEEG_Images\0873.jpg	YN	Right	No	1.5079147000215	0	756859	235
1479.283203125	1	health	trialStart	4	186	6	foodImage.59	FOODEEG_Images\0607.jpg	YN	Left	Yes	2.17373709997628	0	757394	251
1480.33203125	2	health	foodImageDisplay	4	186	6	foodImage.59	FOODEEG_Images\0607.jpg	YN	Left	Yes	2.17373709997628	0	757931	252
1482.39453125	2.17373709997628	health	choicePhaseStart	4	186	6	foodImage.59	FOODEEG_Images\0607.jpg	YN	Left	Yes	2.17373709997628	0	758987	253
1484.55859375	0	health	response	4	186	6	foodImage.59	FOODEEG_Images\0607.jpg	YN	Left	Yes	2.17373709997628	0	760095	234
1485.6015625	1	health	trialStart	4	187	7	foodImage.97	FOODEEG_Images\0905.jpg	NY	Left	No	1.54497829999309	0	760629	251
1486.638671875	2	health	foodImageDisplay	4	187	7	foodImage.97	FOODEEG_Images\0905.jpg	NY	Left	No	1.54497829999309	0	761160	252
1488.701171875	1.54497829999309	health	choicePhaseStart	4	187	7	foodImage.97	FOODEEG_Images\0905.jpg	NY	Left	No	1.54497829999309	0	762216	253
1490.23828125	0	health	response	4	187	7	foodImage.97	FOODEEG_Images\0905.jpg	NY	Left	No	1.54497829999309	0	763003	234
1491.28515625	1	decision	trialStart	4	188	8	foodImage.84	FOODEEG_Images\0830.jpg	YN	Left	Yes	1.64265059999889	0	763539	251
1492.33984375	2	decision	foodImageDisplay	4	188	8	foodImage.84	FOODEEG_Images\0830.jpg	YN	Left	Yes	1.64265059999889	0	764079	252
1494.40234375	1.64265059999889	decision	choicePhaseStart	4	188	8	foodImage.84	FOODEEG_Images\0830.jpg	YN	Left	Yes	1.64265059999889	0	765135	253
1496.037109375	0	decision	response	4	188	8	foodImage.84	FOODEEG_Images\0830.jpg	YN	Left	Yes	1.64265059999889	0	765972	234
1497.080078125	1	decision	trialStart	4	189	9	foodImage.29	FOODEEG_Images\0278.jpg	YN	Right	No	0.829551899980288	0	766506	251
1498.12109375	2	decision	foodImageDisplay	4	189	9	foodImage.29	FOODEEG_Images\0278.jpg	YN	Right	No	0.829551899980288	0	767039	252
1500.185546875	0.829551899980288	decision	choicePhaseStart	4	189	9	foodImage.29	FOODEEG_Images\0278.jpg	YN	Right	No	0.829551899980288	0	768096	253
1501.005859375	0	decision	response	4	189	9	foodImage.29	FOODEEG_Images\0278.jpg	YN	Right	No	0.829551899980288	0	768516	235
1502.048828125	1	health	trialStart	4	190	10	foodImage.13	FOODEEG_Images\0183.jpg	NY	Right	Yes	1.93386789999204	0	769050	251
1503.08984375	2	health	foodImageDisplay	4	190	10	foodImage.13	FOODEEG_Images\0183.jpg	NY	Right	Yes	1.93386789999204	0	769583	252
1505.15234375	1.93386789999204	health	choicePhaseStart	4	190	10	foodImage.13	FOODEEG_Images\0183.jpg	NY	Right	Yes	1.93386789999204	0	770639	253
1507.076171875	0	health	response	4	190	10	foodImage.13	FOODEEG_Images\0183.jpg	NY	Right	Yes	1.93386789999204	0	771624	235
1508.119140625	1	health	trialStart	4	191	11	foodImage.33	FOODEEG_Images\0329.jpg	NY	Right	Yes	1.48410309996689	0	772158	251
1509.162109375	2	health	foodImageDisplay	4	191	11	foodImage.33	FOODEEG_Images\0329.jpg	NY	Right	Yes	1.48410309996689	0	772692	252
1511.224609375	1.48410309996689	health	choicePhaseStart	4	191	11	foodImage.33	FOODEEG_Images\0329.jpg	NY	Right	Yes	1.48410309996689	0	773748	253
1512.701171875	0	health	response	4	191	11	foodImage.33	FOODEEG_Images\0329.jpg	NY	Right	Yes	1.48410309996689	0	774504	235
1513.744140625	1	health	trialStart	4	192	12	foodImage.67	FOODEEG_Images\0679.jpg	YN	Left	Yes	1.76926089997869	0	775038	251
1514.798828125	2	health	foodImageDisplay	4	192	12	foodImage.67	FOODEEG_Images\0679.jpg	YN	Left	Yes	1.76926089997869	0	775578	252
1516.861328125	1.76926089997869	health	choicePhaseStart	4	192	12	foodImage.67	FOODEEG_Images\0679.jpg	YN	Left	Yes	1.76926089997869	0	776634	253
1518.62109375	0	health	response	4	192	12	foodImage.67	FOODEEG_Images\0679.jpg	YN	Left	Yes	1.76926089997869	0	777535	234
1519.6640625	1	decision	trialStart	4	193	13	foodImage.21	FOODEEG_Images\0234.jpg	NY	Right	Yes	1.06932039995445	0	778069	251
1520.720703125	2	decision	foodImageDisplay	4	193	13	foodImage.21	FOODEEG_Images\0234.jpg	NY	Right	Yes	1.06932039995445	0	778610	252
1522.783203125	1.06932039995445	decision	choicePhaseStart	4	193	13	foodImage.21	FOODEEG_Images\0234.jpg	NY	Right	Yes	1.06932039995445	0	779666	253
1523.84375	0	decision	response	4	193	13	foodImage.21	FOODEEG_Images\0234.jpg	NY	Right	Yes	1.06932039995445	0	780209	235
1524.88671875	1	taste	trialStart	4	194	14	foodImage.99	FOODEEG_Images\0907.jpg	YN	Right	No	1.00061699998332	0	780743	251
1525.92578125	2	taste	foodImageDisplay	4	194	14	foodImage.99	FOODEEG_Images\0907.jpg	YN	Right	No	1.00061699998332	0	781275	252
1527.98828125	1.00061699998332	taste	choicePhaseStart	4	194	14	foodImage.99	FOODEEG_Images\0907.jpg	YN	Right	No	1.00061699998332	0	782331	253
1528.98046875	0	taste	response	4	194	14	foodImage.99	FOODEEG_Images\0907.jpg	YN	Right	No	1.00061699998332	0	782839	235
1530.01953125	1	decision	trialStart	4	195	15	foodImage.98	FOODEEG_Images\0906.jpg	NY	Left	No	1.29223439999623	0	783371	251
1531.05859375	2	decision	foodImageDisplay	4	195	15	foodImage.98	FOODEEG_Images\0906.jpg	NY	Left	No	1.29223439999623	0	783903	252
1533.12109375	1.29223439999623	decision	choicePhaseStart	4	195	15	foodImage.98	FOODEEG_Images\0906.jpg	NY	Left	No	1.29223439999623	0	784959	253
