onset	duration	trial_type	event_type	block	trial_total	trial_in_block	food_image_code	food_image_path	button_position	resp_position	resp_choice	choice_rt	resp_too_slow	sample	trigger
332.35546875	2	n/a	blockStart	1	n/a	n/a	n/a	n/a	n/a	n/a	n/a	n/a	n/a	170167	250
334.392578125	1	health	trialStart	1	1	1	foodImage.62	FOODEEG_Images\0644.jpg	YN	Left	Yes	0.718285399999331	0	171210	251
335.458984375	2	health	foodImageDisplay	1	1	1	foodImage.62	FOODEEG_Images\0644.jpg	YN	Left	Yes	0.718285399999331	0	171756	252
337.5234375	0.718285399999331	health	choicePhaseStart	1	1	1	foodImage.62	FOODEEG_Images\0644.jpg	YN	Left	Yes	0.718285399999331	0	172813	253
338.234375	0	health	response	1	1	1	foodImage.62	FOODEEG_Images\0644.jpg	YN	Left	Yes	0.718285399999331	0	173177	234
339.330078125	1	taste	trialStart	1	2	2	foodImage.86	FOODEEG_Images\0844.jpg	NY	Right	Yes	1.16194799999994	0	173738	251
340.388671875	2	taste	foodImageDisplay	1	2	2	foodImage.86	FOODEEG_Images\0844.jpg	NY	Right	Yes	1.16194799999994	0	174280	252
342.453125	1.16194799999994	taste	choicePhaseStart	1	2	2	foodImage.86	FOODEEG_Images\0844.jpg	NY	Right	Yes	1.16194799999994	0	175337	253
343.611328125	0	taste	response	1	2	2	foodImage.86	FOODEEG_Images\0844.jpg	NY	Right	Yes	1.16194799999994	0	175930	235
344.662109375	1	decision	trialStart	1	3	3	foodImage.99	FOODEEG_Images\0907.jpg	NY	Left	No	0.805287899999712	0	176468	251
345.703125	2	decision	foodImageDisplay	1	3	3	foodImage.99	FOODEEG_Images\0907.jpg	NY	Left	No	0.805287899999712	0	177001	252
347.765625	0.805287899999712	decision	choicePhaseStart	1	3	3	foodImage.99	FOODEEG_Images\0907.jpg	NY	Left	No	0.805287899999712	0	178057	253
348.5625	0	decision	response	1	3	3	foodImage.99	FOODEEG_Images\0907.jpg	NY	Left	No	0.805287899999712	0	178465	234
349.60546875	1	taste	trialStart	1	4	4	foodImage.80	FOODEEG_Images\0796.jpg	YN	Left	Yes	1.85964690000037	0	178999	251
350.662109375	2	taste	foodImageDisplay	1	4	4	foodImage.80	FOODEEG_Images\0796.jpg	YN	Left	Yes	1.85964690000037	0	179540	252
352.7265625	1.85964690000037	taste	choicePhaseStart	1	4	4	foodImage.80	FOODEEG_Images\0796.jpg	YN	Left	Yes	1.85964690000037	0	180597	253
354.578125	0	taste	response	1	4	4	foodImage.80	FOODEEG_Images\0796.jpg	YN	Left	Yes	1.85964690000037	0	181545	234
355.623046875	1	health	trialStart	1	5	5	foodImage.102	FOODEEG_Images\0910.jpg	YN	Right	No	1.00684599999931	0	182080	251
356.66796875	2	health	foodImageDisplay	1	5	5	foodImage.102	FOODEEG_Images\0910.jpg	YN	Right	No	1.00684599999931	0	182615	252
358.732421875	1.00684599999931	health	choicePhaseStart	1	5	5	foodImage.102	FOODEEG_Images\0910.jpg	YN	Right	No	1.00684599999931	0	183672	253
359.73046875	0	health	response	1	5	5	foodImage.102	FOODEEG_Images\0910.jpg	YN	Right	No	1.00684599999931	0	184183	235
360.78125	1	health	trialStart	1	6	6	foodImage.105	FOODEEG_Images\0913.jpg	NY	Right	Yes	0.814714499999354	0	184721	251
361.822265625	2	health	foodImageDisplay	1	6	6	foodImage.105	FOODEEG_Images\0913.jpg	NY	Right	Yes	0.814714499999354	0	185254	252
363.88671875	0.814714499999354	health	choicePhaseStart	1	6	6	foodImage.105	FOODEEG_Images\0913.jpg	NY	Right	Yes	0.814714499999354	0	186311	253
364.697265625	0	health	response	1	6	6	foodImage.105	FOODEEG_Images\0913.jpg	NY	Right	Yes	0.814714499999354	0	186726	235
365.748046875	1	decision	trialStart	1	7	7	foodImage.35	FOODEEG_Images\0350.jpg	NY	Right	Yes	1.32104499999969	0	187264	251
366.7890625	2	decision	foodImageDisplay	1	7	7	foodImage.35	FOODEEG_Images\0350.jpg	NY	Right	Yes	1.32104499999969	0	187797	252
368.853515625	1.32104499999969	decision	choicePhaseStart	1	7	7	foodImage.35	FOODEEG_Images\0350.jpg	NY	Right	Yes	1.32104499999969	0	188854	253
370.169921875	0	decision	response	1	7	7	foodImage.35	FOODEEG_Images\0350.jpg	NY	Right	Yes	1.32104499999969	0	189528	235
371.212890625	1	taste	trialStart	1	8	8	foodImage.20	FOODEEG_Images\0226.jpg	NY	Left	No	1.07477139999992	0	190062	251
372.25390625	2	taste	foodImageDisplay	1	8	8	foodImage.20	FOODEEG_Images\0226.jpg	NY	Left	No	1.07477139999992	0	190595	252
374.31640625	1.07477139999992	taste	choicePhaseStart	1	8	8	foodImage.20	FOODEEG_Images\0226.jpg	NY	Left	No	1.07477139999992	0	191651	253
375.384765625	0	taste	response	1	8	8	foodImage.20	FOODEEG_Images\0226.jpg	NY	Left	No	1.07477139999992	0	192198	234
376.42578125	1	decision	trialStart	1	9	9	foodImage.55	FOODEEG_Images\0567.jpg	NY	Right	Yes	0.725401599999714	0	192731	251
377.5	2	decision	foodImageDisplay	1	9	9	foodImage.55	FOODEEG_Images\0567.jpg	NY	Right	Yes	0.725401599999714	0	193281	252
379.564453125	0.725401599999714	decision	choicePhaseStart	1	9	9	foodImage.55	FOODEEG_Images\0567.jpg	NY	Right	Yes	0.725401599999714	0	194338	253
380.28125	0	decision	response	1	9	9	foodImage.55	FOODEEG_Images\0567.jpg	NY	Right	Yes	0.725401599999714	0	194705	235
381.32421875	1	decision	trialStart	1	10	10	foodImage.95	FOODEEG_Images\0903.jpg	NY	Left	No	0.727212100000543	0	195239	251
382.361328125	2	decision	foodImageDisplay	1	10	10	foodImage.95	FOODEEG_Images\0903.jpg	NY	Left	No	0.727212100000543	0	195770	252
384.43359375	0.727212100000543	decision	choicePhaseStart	1	10	10	foodImage.95	FOODEEG_Images\0903.jpg	NY	Left	No	0.727212100000543	0	196831	253
385.154296875	0	decision	response	1	10	10	foodImage.95	FOODEEG_Images\0903.jpg	NY	Left	No	0.727212100000543	0	197200	234
386.1953125	1	decision	trialStart	1	11	11	foodImage.29	FOODEEG_Images\0278.jpg	NY	Left	No	0.940481300000101	0	197733	251
387.23828125	2	decision	foodImageDisplay	1	11	11	foodImage.29	FOODEEG_Images\0278.jpg	NY	Left	No	0.940481300000101	0	198267	252
389.30078125	0.940481300000101	decision	choicePhaseStart	1	11	11	foodImage.29	FOODEEG_Images\0278.jpg	NY	Left	No	0.940481300000101	0	199323	253
390.232421875	0	decision	response	1	11	11	foodImage.29	FOODEEG_Images\0278.jpg	NY	Left	No	0.940481300000101	0	199800	234
391.275390625	1	health	trialStart	1	12	12	foodImage.18	FOODEEG_Images\0202.jpg	NY	Right	Yes	0.698465200000101	0	200334	251
392.3359375	2	health	foodImageDisplay	1	12	12	foodImage.18	FOODEEG_Images\0202.jpg	NY	Right	Yes	0.698465200000101	0	200877	252
394.3984375	0.698465200000101	health	choicePhaseStart	1	12	12	foodImage.18	FOODEEG_Images\0202.jpg	NY	Right	Yes	0.698465200000101	0	201933	253
395.087890625	0	health	response	1	12	12	foodImage.18	FOODEEG_Images\0202.jpg	NY	Right	Yes	0.698465200000101	0	202286	235
396.12890625	1	taste	trialStart	1	13	13	foodImage.50	FOODEEG_Images\0529.jpg	YN	Left	Yes	1.1915100999995	0	202819	251
397.185546875	2	taste	foodImageDisplay	1	13	13	foodImage.50	FOODEEG_Images\0529.jpg	YN	Left	Yes	1.1915100999995	0	203360	252
399.25	1.1915100999995	taste	choicePhaseStart	1	13	13	foodImage.50	FOODEEG_Images\0529.jpg	YN	Left	Yes	1.1915100999995	0	204417	253
400.431640625	0	taste	response	1	13	13	foodImage.50	FOODEEG_Images\0529.jpg	YN	Left	Yes	1.1915100999995	0	205022	234
401.474609375	1	health	trialStart	1	14	14	foodImage.82	FOODEEG_Images\0805.jpg	NY	Right	Yes	0.983262599999762	0	205556	251
402.533203125	2	health	foodImageDisplay	1	14	14	foodImage.82	FOODEEG_Images\0805.jpg	NY	Right	Yes	0.983262599999762	0	206098	252
404.59765625	0.983262599999762	health	choicePhaseStart	1	14	14	foodImage.82	FOODEEG_Images\0805.jpg	NY	Right	Yes	0.983262599999762	0	207155	253
405.576171875	0	health	response	1	14	14	foodImage.82	FOODEEG_Images\0805.jpg	NY	Right	Yes	0.983262599999762	0	207656	235
406.626953125	1	health	trialStart	1	15	15	foodImage.24	FOODEEG_Images\0250.jpg	NY	Right	Yes	0.827196300000651	0	208194	251
407.669921875	2	health	foodImageDisplay	1	15	15	foodImage.24	FOODEEG_Images\0250.jpg	NY	Right	Yes	0.827196300000651	0	208728	252
409.734375	0.827196300000651	health	choicePhaseStart	1	15	15	foodImage.24	FOODEEG_Images\0250.jpg	NY	Right	Yes	0.827196300000651	0	209785	253
410.552734375	0	health	response	1	15	15	foodImage.24	FOODEEG_Images\0250.jpg	NY	Right	Yes	0.827196300000651	0	210204	235
411.59375	1	health	trialStart	1	16	16	foodImage.37	FOODEEG_Images\0359.jpg	YN	Left	Yes	0.843615100000534	0	210737	251
412.634765625	2	health	foodImageDisplay	1	16	16	foodImage.37	FOODEEG_Images\0359.jpg	YN	Left	Yes	0.843615100000534	0	211270	252
414.69921875	0.843615100000534	health	choicePhaseStart	1	16	16	foodImage.37	FOODEEG_Images\0359.jpg	YN	Left	Yes	0.843615100000534	0	212327	253
415.53515625	0	health	response	1	16	16	foodImage.37	FOODEEG_Images\0359.jpg	YN	Left	Yes	0.843615100000534	0	212755	234
416.576171875	1	health	trialStart	1	17	17	foodImage.47	FOODEEG_Images\0488.jpg	NY	Left	No	1.33144049999919	0	213288	251
417.619140625	2	health	foodImageDisplay	1	17	17	foodImage.47	FOODEEG_Images\0488.jpg	NY	Left	No	1.33144049999919	0	213822	252
419.681640625	1.33144049999919	health	choicePhaseStart	1	17	17	foodImage.47	FOODEEG_Images\0488.jpg	NY	Left	No	1.33144049999919	0	214878	253
421.0078125	0	health	response	1	17	17	foodImage.47	FOODEEG_Images\0488.jpg	NY	Left	No	1.33144049999919	0	215557	234
422.048828125	1	taste	trialStart	1	18	18	foodImage.103	FOODEEG_Images\0911.jpg	NY	Left	No	0.960941000000275	0	216090	251
423.087890625	2	taste	foodImageDisplay	1	18	18	foodImage.103	FOODEEG_Images\0911.jpg	NY	Left	No	0.960941000000275	0	216622	252
425.150390625	0.960941000000275	taste	choicePhaseStart	1	18	18	foodImage.103	FOODEEG_Images\0911.jpg	NY	Left	No	0.960941000000275	0	217678	253
426.103515625	0	taste	response	1	18	18	foodImage.103	FOODEEG_Images\0911.jpg	NY	Left	No	0.960941000000275	0	218166	234
427.146484375	1	taste	trialStart	1	19	19	foodImage.37	FOODEEG_Images\0359.jpg	NY	Left	No	1.72818320000079	0	218700	251
428.1875	2	taste	foodImageDisplay	1	19	19	foodImage.37	FOODEEG_Images\0359.jpg	NY	Left	No	1.72818320000079	0	219233	252
430.255859375	1.72818320000079	taste	choicePhaseStart	1	19	19	foodImage.37	FOODEEG_Images\0359.jpg	NY	Left	No	1.72818320000079	0	220292	253
431.974609375	0	taste	response	1	19	19	foodImage.37	FOODEEG_Images\0359.jpg	NY	Left	No	1.72818320000079	0	221172	234
433.015625	1	decision	trialStart	1	20	20	foodImage.6	FOODEEG_Images\0113.jpg	NY	Right	Yes	1.39548899999954	0	221705	251
434.060546875	2	decision	foodImageDisplay	1	20	20	foodImage.6	FOODEEG_Images\0113.jpg	NY	Right	Yes	1.39548899999954	0	222240	252
436.125	1.39548899999954	decision	choicePhaseStart	1	20	20	foodImage.6	FOODEEG_Images\0113.jpg	NY	Right	Yes	1.39548899999954	0	223297	253
437.509765625	0	decision	response	1	20	20	foodImage.6	FOODEEG_Images\0113.jpg	NY	Right	Yes	1.39548899999954	0	224006	235
438.552734375	1	decision	trialStart	1	21	21	foodImage.7	FOODEEG_Images\0116.jpg	YN	Left	Yes	0.884911699999975	0	224540	251
439.59375	2	decision	foodImageDisplay	1	21	21	foodImage.7	FOODEEG_Images\0116.jpg	YN	Left	Yes	0.884911699999975	0	225073	252
441.658203125	0.884911699999975	decision	choicePhaseStart	1	21	21	foodImage.7	FOODEEG_Images\0116.jpg	YN	Left	Yes	0.884911699999975	0	226130	253
442.533203125	0	decision	response	1	21	21	foodImage.7	FOODEEG_Images\0116.jpg	YN	Left	Yes	0.884911699999975	0	226578	234
443.580078125	1	decision	trialStart	1	22	22	foodImage.27	FOODEEG_Images\0263.jpg	NY	Right	Yes	1.1694482999992	0	227114	251
444.623046875	2	decision	foodImageDisplay	1	22	22	foodImage.27	FOODEEG_Images\0263.jpg	NY	Right	Yes	1.1694482999992	0	227648	252
446.685546875	1.1694482999992	decision	choicePhaseStart	1	22	22	foodImage.27	FOODEEG_Images\0263.jpg	NY	Right	Yes	1.1694482999992	0	228704	253
447.845703125	0	decision	response	1	22	22	foodImage.27	FOODEEG_Images\0263.jpg	NY	Right	Yes	1.1694482999992	0	229298	235
448.88671875	1	decision	trialStart	1	23	23	foodImage.61	FOODEEG_Images\0640.jpg	NY	Right	Yes	1.17278780000015	0	229831	251
449.931640625	2	decision	foodImageDisplay	1	23	23	foodImage.61	FOODEEG_Images\0640.jpg	NY	Right	Yes	1.17278780000015	0	230366	252
451.994140625	1.17278780000015	decision	choicePhaseStart	1	23	23	foodImage.61	FOODEEG_Images\0640.jpg	NY	Right	Yes	1.17278780000015	0	231422	253
453.158203125	0	decision	response	1	23	23	foodImage.61	FOODEEG_Images\0640.jpg	NY	Right	Yes	1.17278780000015	0	232018	235
454.201171875	1	taste	trialStart	1	24	24	foodImage.55	FOODEEG_Images\0567.jpg	NY	Right	Yes	0.964795800000502	0	232552	251
455.2578125	2	taste	foodImageDisplay	1	24	24	foodImage.55	FOODEEG_Images\0567.jpg	NY	Right	Yes	0.964795800000502	0	233093	252
457.3203125	0.964795800000502	taste	choicePhaseStart	1	24	24	foodImage.55	FOODEEG_Images\0567.jpg	NY	Right	Yes	0.964795800000502	0	234149	253
458.27734375	0	taste	response	1	24	24	foodImage.55	FOODEEG_Images\0567.jpg	NY	Right	Yes	0.964795800000502	0	234639	235
459.3203125	1	health	trialStart	1	25	25	foodImage.118	FOODEEG_Images\0926.jpg	YN	Left	Yes	1.70077869999932	0	235173	251
460.361328125	2	health	foodImageDisplay	1	25	25	foodImage.118	FOODEEG_Images\0926.jpg	YN	Left	Yes	1.70077869999932	0	235706	252
462.42578125	1.70077869999932	health	choicePhaseStart	1	25	25	foodImage.118	FOODEEG_Images\0926.jpg	YN	Left	Yes	1.70077869999932	0	236763	253
464.1171875	0	health	response	1	25	25	foodImage.118	FOODEEG_Images\0926.jpg	YN	Left	Yes	1.70077869999932	0	237629	234
465.158203125	1	taste	trialStart	1	26	26	foodImage.84	FOODEEG_Images\0830.jpg	YN	Left	Yes	1.46641369999998	0	238162	251
466.21484375	2	taste	foodImageDisplay	1	26	26	foodImage.84	FOODEEG_Images\0830.jpg	YN	Left	Yes	1.46641369999998	0	238703	252
468.27734375	1.46641369999998	taste	choicePhaseStart	1	26	26	foodImage.84	FOODEEG_Images\0830.jpg	YN	Left	Yes	1.46641369999998	0	239759	253
469.732421875	0	taste	response	1	26	26	foodImage.84	FOODEEG_Images\0830.jpg	YN	Left	Yes	1.46641369999998	0	240504	234
470.77734375	1	health	trialStart	1	27	27	foodImage.52	FOODEEG_Images\0539.jpg	YN	Left	Yes	1.09364629999982	0	241039	251
471.833984375	2	health	foodImageDisplay	1	27	27	foodImage.52	FOODEEG_Images\0539.jpg	YN	Left	Yes	1.09364629999982	0	241580	252
473.896484375	1.09364629999982	health	choicePhaseStart	1	27	27	foodImage.52	FOODEEG_Images\0539.jpg	YN	Left	Yes	1.09364629999982	0	242636	253
474.98046875	0	health	response	1	27	27	foodImage.52	FOODEEG_Images\0539.jpg	YN	Left	Yes	1.09364629999982	0	243191	234
476.021484375	1	decision	trialStart	1	28	28	foodImage.97	FOODEEG_Images\0905.jpg	YN	Right	No	1.08200790000046	0	243724	251
477.060546875	2	decision	foodImageDisplay	1	28	28	foodImage.97	FOODEEG_Images\0905.jpg	YN	Right	No	1.08200790000046	0	244256	252
479.125	1.08200790000046	decision	choicePhaseStart	1	28	28	foodImage.97	FOODEEG_Images\0905.jpg	YN	Right	No	1.08200790000046	0	245313	253
480.197265625	0	decision	response	1	28	28	foodImage.97	FOODEEG_Images\0905.jpg	YN	Right	No	1.08200790000046	0	245862	235
481.24609375	1	taste	trialStart	1	29	29	foodImage.69	FOODEEG_Images\0693.jpg	YN	Left	Yes	0.626417100000253	0	246399	251
482.2890625	2	taste	foodImageDisplay	1	29	29	foodImage.69	FOODEEG_Images\0693.jpg	YN	Left	Yes	0.626417100000253	0	246933	252
484.353515625	0.626417100000253	taste	choicePhaseStart	1	29	29	foodImage.69	FOODEEG_Images\0693.jpg	YN	Left	Yes	0.626417100000253	0	247990	253
484.97265625	0	taste	response	1	29	29	foodImage.69	FOODEEG_Images\0693.jpg	YN	Left	Yes	0.626417100000253	0	248307	234
486.013671875	1	health	trialStart	1	30	30	foodImage.93	FOODEEG_Images\0901.jpg	YN	Left	Yes	1.62015460000021	0	248840	251
487.0546875	2	health	foodImageDisplay	1	30	30	foodImage.93	FOODEEG_Images\0901.jpg	YN	Left	Yes	1.62015460000021	0	249373	252
489.119140625	1.62015460000021	health	choicePhaseStart	1	30	30	foodImage.93	FOODEEG_Images\0901.jpg	YN	Left	Yes	1.62015460000021	0	250430	253
490.732421875	0	health	response	1	30	30	foodImage.93	FOODEEG_Images\0901.jpg	YN	Left	Yes	1.62015460000021	0	251256	234
491.7734375	1	taste	trialStart	1	31	31	foodImage.114	FOODEEG_Images\0922.jpg	YN	Left	Yes	2.07337259999986	0	251789	251
492.8125	2	taste	foodImageDisplay	1	31	31	foodImage.114	FOODEEG_Images\0922.jpg	YN	Left	Yes	2.07337259999986	0	252321	252
494.875	2.07337259999986	taste	choicePhaseStart	1	31	31	foodImage.114	FOODEEG_Images\0922.jpg	YN	Left	Yes	2.07337259999986	0	253377	253
496.939453125	0	taste	response	1	31	31	foodImage.114	FOODEEG_Images\0922.jpg	YN	Left	Yes	2.07337259999986	0	254434	234
497.982421875	1	health	trialStart	1	32	32	foodImage.68	FOODEEG_Images\0685.jpg	YN	Left	Yes	0.900203999999576	0	254968	251
499.056640625	2	health	foodImageDisplay	1	32	32	foodImage.68	FOODEEG_Images\0685.jpg	YN	Left	Yes	0.900203999999576	0	255518	252
501.12109375	0.900203999999576	health	choicePhaseStart	1	32	32	foodImage.68	FOODEEG_Images\0685.jpg	YN	Left	Yes	0.900203999999576	0	256575	253
502.01171875	0	health	response	1	32	32	foodImage.68	FOODEEG_Images\0685.jpg	YN	Left	Yes	0.900203999999576	0	257031	234
503.05859375	1	health	trialStart	1	33	33	foodImage.103	FOODEEG_Images\0911.jpg	NY	Right	Yes	2.00297959999989	0	257567	251
504.09765625	2	health	foodImageDisplay	1	33	33	foodImage.103	FOODEEG_Images\0911.jpg	NY	Right	Yes	2.00297959999989	0	258099	252
506.162109375	2.00297959999989	health	choicePhaseStart	1	33	33	foodImage.103	FOODEEG_Images\0911.jpg	NY	Right	Yes	2.00297959999989	0	259156	253
508.15625	0	health	response	1	33	33	foodImage.103	FOODEEG_Images\0911.jpg	NY	Right	Yes	2.00297959999989	0	260177	235
509.197265625	1	health	trialStart	1	34	34	foodImage.119	FOODEEG_Images\0927.jpg	YN	Left	Yes	1.44851849999941	0	260710	251
510.236328125	2	health	foodImageDisplay	1	34	34	foodImage.119	FOODEEG_Images\0927.jpg	YN	Left	Yes	1.44851849999941	0	261242	252
512.30078125	1.44851849999941	health	choicePhaseStart	1	34	34	foodImage.119	FOODEEG_Images\0927.jpg	YN	Left	Yes	1.44851849999941	0	262299	253
513.740234375	0	health	response	1	34	34	foodImage.119	FOODEEG_Images\0927.jpg	YN	Left	Yes	1.44851849999941	0	263036	234
514.779296875	1	taste	trialStart	1	35	35	foodImage.33	FOODEEG_Images\0329.jpg	NY	Right	Yes	1.27921359999982	0	263568	251
515.822265625	2	taste	foodImageDisplay	1	35	35	foodImage.33	FOODEEG_Images\0329.jpg	NY	Right	Yes	1.27921359999982	0	264102	252
517.884765625	1.27921359999982	taste	choicePhaseStart	1	35	35	foodImage.33	FOODEEG_Images\0329.jpg	NY	Right	Yes	1.27921359999982	0	265158	253
519.154296875	0	taste	response	1	35	35	foodImage.33	FOODEEG_Images\0329.jpg	NY	Right	Yes	1.27921359999982	0	265808	235
520.1953125	1	health	trialStart	1	36	36	foodImage.86	FOODEEG_Images\0844.jpg	NY	Left	No	0.682472100000268	0	266341	251
521.25	2	health	foodImageDisplay	1	36	36	foodImage.86	FOODEEG_Images\0844.jpg	NY	Left	No	0.682472100000268	0	266881	252
523.314453125	0.682472100000268	health	choicePhaseStart	1	36	36	foodImage.86	FOODEEG_Images\0844.jpg	NY	Left	No	0.682472100000268	0	267938	253
523.986328125	0	health	response	1	36	36	foodImage.86	FOODEEG_Images\0844.jpg	NY	Left	No	0.682472100000268	0	268282	234
525.033203125	1	taste	trialStart	1	37	37	foodImage.11	FOODEEG_Images\0180.jpg	NY	Right	Yes	2.19977930000005	0	268818	251
526.076171875	2	taste	foodImageDisplay	1	37	37	foodImage.11	FOODEEG_Images\0180.jpg	NY	Right	Yes	2.19977930000005	0	269352	252
528.140625	2.19977930000005	taste	choicePhaseStart	1	37	37	foodImage.11	FOODEEG_Images\0180.jpg	NY	Right	Yes	2.19977930000005	0	270409	253
530.330078125	0	taste	response	1	37	37	foodImage.11	FOODEEG_Images\0180.jpg	NY	Right	Yes	2.19977930000005	0	271530	235
531.373046875	1	health	trialStart	1	38	38	foodImage.31	FOODEEG_Images\0294.jpg	NY	Right	Yes	2.63164169999982	0	272064	251
532.4140625	2	health	foodImageDisplay	1	38	38	foodImage.31	FOODEEG_Images\0294.jpg	NY	Right	Yes	2.63164169999982	0	272597	252
534.4765625	2.63164169999982	health	choicePhaseStart	1	38	38	foodImage.31	FOODEEG_Images\0294.jpg	NY	Right	Yes	2.63164169999982	0	273653	253
537.09765625	0	health	response	1	38	38	foodImage.31	FOODEEG_Images\0294.jpg	NY	Right	Yes	2.63164169999982	0	274995	235
538.140625	1	decision	trialStart	1	39	39	foodImage.22	FOODEEG_Images\0236.jpg	YN	Left	Yes	1.22989150000012	0	275529	251
539.181640625	2	decision	foodImageDisplay	1	39	39	foodImage.22	FOODEEG_Images\0236.jpg	YN	Left	Yes	1.22989150000012	0	276062	252
541.24609375	1.22989150000012	decision	choicePhaseStart	1	39	39	foodImage.22	FOODEEG_Images\0236.jpg	YN	Left	Yes	1.22989150000012	0	277119	253
542.466796875	0	decision	response	1	39	39	foodImage.22	FOODEEG_Images\0236.jpg	YN	Left	Yes	1.22989150000012	0	277744	234
543.5078125	1	health	trialStart	1	40	40	foodImage.77	FOODEEG_Images\0771.jpg	YN	Left	Yes	0.723050999999941	0	278277	251
544.552734375	2	health	foodImageDisplay	1	40	40	foodImage.77	FOODEEG_Images\0771.jpg	YN	Left	Yes	0.723050999999941	0	278812	252
546.6171875	0.723050999999941	health	choicePhaseStart	1	40	40	foodImage.77	FOODEEG_Images\0771.jpg	YN	Left	Yes	0.723050999999941	0	279869	253
547.330078125	0	health	response	1	40	40	foodImage.77	FOODEEG_Images\0771.jpg	YN	Left	Yes	0.723050999999941	0	280234	234
548.373046875	1	decision	trialStart	1	41	41	foodImage.23	FOODEEG_Images\0244.jpg	NY	Left	No	2.36847690000013	0	280768	251
549.412109375	2	decision	foodImageDisplay	1	41	41	foodImage.23	FOODEEG_Images\0244.jpg	NY	Left	No	2.36847690000013	0	281300	252
551.474609375	2.36847690000013	decision	choicePhaseStart	1	41	41	foodImage.23	FOODEEG_Images\0244.jpg	NY	Left	No	2.36847690000013	0	282356	253
553.833984375	0	decision	response	1	41	41	foodImage.23	FOODEEG_Images\0244.jpg	NY	Left	No	2.36847690000013	0	283564	234
554.876953125	1	decision	trialStart	1	42	42	foodImage.89	FOODEEG_Images\0881.jpg	NY	Right	Yes	1.3496868000002	0	284098	251
555.93359375	2	decision	foodImageDisplay	1	42	42	foodImage.89	FOODEEG_Images\0881.jpg	NY	Right	Yes	1.3496868000002	0	284639	252
557.998046875	1.3496868000002	decision	choicePhaseStart	1	42	42	foodImage.89	FOODEEG_Images\0881.jpg	NY	Right	Yes	1.3496868000002	0	285696	253
559.337890625	0	decision	response	1	42	42	foodImage.89	FOODEEG_Images\0881.jpg	NY	Right	Yes	1.3496868000002	0	286382	235
560.380859375	1	decision	trialStart	1	43	43	foodImage.71	FOODEEG_Images\0713.jpg	NY	Right	Yes	1.39804170000025	0	286916	251
561.4296875	2	decision	foodImageDisplay	1	43	43	foodImage.71	FOODEEG_Images\0713.jpg	NY	Right	Yes	1.39804170000025	0	287453	252
563.4921875	1.39804170000025	decision	choicePhaseStart	1	43	43	foodImage.71	FOODEEG_Images\0713.jpg	NY	Right	Yes	1.39804170000025	0	288509	253
564.880859375	0	decision	response	1	43	43	foodImage.71	FOODEEG_Images\0713.jpg	NY	Right	Yes	1.39804170000025	0	289220	235
565.921875	1	decision	trialStart	1	44	44	foodImage.112	FOODEEG_Images\0920.jpg	NY	Right	Yes	1.0952913000001	0	289753	251
566.9609375	2	decision	foodImageDisplay	1	44	44	foodImage.112	FOODEEG_Images\0920.jpg	NY	Right	Yes	1.0952913000001	0	290285	252
569.02734375	1.0952913000001	decision	choicePhaseStart	1	44	44	foodImage.112	FOODEEG_Images\0920.jpg	NY	Right	Yes	1.0952913000001	0	291343	253
570.11328125	0	decision	response	1	44	44	foodImage.112	FOODEEG_Images\0920.jpg	NY	Right	Yes	1.0952913000001	0	291899	235
571.15234375	1	health	trialStart	1	45	45	foodImage.8	FOODEEG_Images\0136.jpg	NY	Left	No	0.769161000000167	0	292431	251
572.193359375	2	health	foodImageDisplay	1	45	45	foodImage.8	FOODEEG_Images\0136.jpg	NY	Left	No	0.769161000000167	0	292964	252
574.2578125	0.769161000000167	health	choicePhaseStart	1	45	45	foodImage.8	FOODEEG_Images\0136.jpg	NY	Left	No	0.769161000000167	0	294021	253
575.017578125	0	health	response	1	45	45	foodImage.8	FOODEEG_Images\0136.jpg	NY	Left	No	0.769161000000167	0	294410	234
576.060546875	1	taste	trialStart	1	46	46	foodImage.47	FOODEEG_Images\0488.jpg	NY	Right	Yes	0.837954600000558	0	294944	251
577.1015625	2	taste	foodImageDisplay	1	46	46	foodImage.47	FOODEEG_Images\0488.jpg	NY	Right	Yes	0.837954600000558	0	295477	252
579.1640625	0.837954600000558	taste	choicePhaseStart	1	46	46	foodImage.47	FOODEEG_Images\0488.jpg	NY	Right	Yes	0.837954600000558	0	296533	253
579.9921875	0	taste	response	1	46	46	foodImage.47	FOODEEG_Images\0488.jpg	NY	Right	Yes	0.837954600000558	0	296957	235
581.03515625	1	taste	trialStart	1	47	47	foodImage.22	FOODEEG_Images\0236.jpg	NY	Right	Yes	0.78051140000025	0	297491	251
582.076171875	2	taste	foodImageDisplay	1	47	47	foodImage.22	FOODEEG_Images\0236.jpg	NY	Right	Yes	0.78051140000025	0	298024	252
584.140625	0.78051140000025	taste	choicePhaseStart	1	47	47	foodImage.22	FOODEEG_Images\0236.jpg	NY	Right	Yes	0.78051140000025	0	299081	253
584.912109375	0	taste	response	1	47	47	foodImage.22	FOODEEG_Images\0236.jpg	NY	Right	Yes	0.78051140000025	0	299476	235
585.955078125	1	health	trialStart	1	48	48	foodImage.85	FOODEEG_Images\0841.jpg	YN	Left	Yes	2.21164330000011	0	300010	251
587.013671875	2	health	foodImageDisplay	1	48	48	foodImage.85	FOODEEG_Images\0841.jpg	YN	Left	Yes	2.21164330000011	0	300552	252
589.078125	2.21164330000011	health	choicePhaseStart	1	48	48	foodImage.85	FOODEEG_Images\0841.jpg	YN	Left	Yes	2.21164330000011	0	301609	253
591.279296875	0	health	response	1	48	48	foodImage.85	FOODEEG_Images\0841.jpg	YN	Left	Yes	2.21164330000011	0	302736	234
592.322265625	1	taste	trialStart	1	49	49	foodImage.61	FOODEEG_Images\0640.jpg	YN	Left	Yes	1.30206680000083	0	303270	251
593.36328125	2	taste	foodImageDisplay	1	49	49	foodImage.61	FOODEEG_Images\0640.jpg	YN	Left	Yes	1.30206680000083	0	303803	252
595.427734375	1.30206680000083	taste	choicePhaseStart	1	49	49	foodImage.61	FOODEEG_Images\0640.jpg	YN	Left	Yes	1.30206680000083	0	304860	253
596.720703125	0	taste	response	1	49	49	foodImage.61	FOODEEG_Images\0640.jpg	YN	Left	Yes	1.30206680000083	0	305522	234
597.759765625	1	health	trialStart	1	50	50	foodImage.6	FOODEEG_Images\0113.jpg	YN	Right	No	1.52637959999993	0	306054	251
598.802734375	2	health	foodImageDisplay	1	50	50	foodImage.6	FOODEEG_Images\0113.jpg	YN	Right	No	1.52637959999993	0	306588	252
600.8671875	1.52637959999993	health	choicePhaseStart	1	50	50	foodImage.6	FOODEEG_Images\0113.jpg	YN	Right	No	1.52637959999993	0	307645	253
602.3828125	0	health	response	1	50	50	foodImage.6	FOODEEG_Images\0113.jpg	YN	Right	No	1.52637959999993	0	308421	235
603.423828125	1	decision	trialStart	1	51	51	foodImage.46	FOODEEG_Images\0479.jpg	NY	Left	No	1.01392870000018	0	308954	251
604.48046875	2	decision	foodImageDisplay	1	51	51	foodImage.46	FOODEEG_Images\0479.jpg	NY	Left	No	1.01392870000018	0	309495	252
606.544921875	1.01392870000018	decision	choicePhaseStart	1	51	51	foodImage.46	FOODEEG_Images\0479.jpg	NY	Left	No	1.01392870000018	0	310552	253
607.552734375	0	decision	response	1	51	51	foodImage.46	FOODEEG_Images\0479.jpg	NY	Left	No	1.01392870000018	0	311068	234
608.591796875	1	health	trialStart	1	52	52	foodImage.109	FOODEEG_Images\0917.jpg	YN	Right	No	0.899230500000158	0	311600	251
609.630859375	2	health	foodImageDisplay	1	52	52	foodImage.109	FOODEEG_Images\0917.jpg	YN	Right	No	0.899230500000158	0	312132	252
611.693359375	0.899230500000158	health	choicePhaseStart	1	52	52	foodImage.109	FOODEEG_Images\0917.jpg	YN	Right	No	0.899230500000158	0	313188	253
612.583984375	0	health	response	1	52	52	foodImage.109	FOODEEG_Images\0917.jpg	YN	Right	No	0.899230500000158	0	313644	235
613.626953125	1	taste	trialStart	1	53	53	foodImage.87	FOODEEG_Images\0873.jpg	NY	Left	No	2.41998839999997	0	314178	251
614.68359375	2	taste	foodImageDisplay	1	53	53	foodImage.87	FOODEEG_Images\0873.jpg	NY	Left	No	2.41998839999997	0	314719	252
616.74609375	2.41998839999997	taste	choicePhaseStart	1	53	53	foodImage.87	FOODEEG_Images\0873.jpg	NY	Left	No	2.41998839999997	0	315775	253
619.158203125	0	taste	response	1	53	53	foodImage.87	FOODEEG_Images\0873.jpg	NY	Left	No	2.41998839999997	0	317010	234
620.19921875	1	health	trialStart	1	54	54	foodImage.57	FOODEEG_Images\0587.jpg	YN	Left	Yes	0.710208399999829	0	317543	251
621.259765625	2	health	foodImageDisplay	1	54	54	foodImage.57	FOODEEG_Images\0587.jpg	YN	Left	Yes	0.710208399999829	0	318086	252
623.322265625	0.710208399999829	health	choicePhaseStart	1	54	54	foodImage.57	FOODEEG_Images\0587.jpg	YN	Left	Yes	0.710208399999829	0	319142	253
624.0234375	0	health	response	1	54	54	foodImage.57	FOODEEG_Images\0587.jpg	YN	Left	Yes	0.710208399999829	0	319501	234
625.06640625	1	decision	trialStart	1	55	55	foodImage.68	FOODEEG_Images\0685.jpg	NY	Right	Yes	1.02772819999973	0	320035	251
626.138671875	2	decision	foodImageDisplay	1	55	55	foodImage.68	FOODEEG_Images\0685.jpg	NY	Right	Yes	1.02772819999973	0	320584	252
628.205078125	1.02772819999973	decision	choicePhaseStart	1	55	55	foodImage.68	FOODEEG_Images\0685.jpg	NY	Right	Yes	1.02772819999973	0	321642	253
629.22265625	0	decision	response	1	55	55	foodImage.68	FOODEEG_Images\0685.jpg	NY	Right	Yes	1.02772819999973	0	322163	235
630.265625	1	taste	trialStart	1	56	56	foodImage.60	FOODEEG_Images\0614.jpg	YN	Left	Yes	0.740150599999652	0	322697	251
631.32421875	2	taste	foodImageDisplay	1	56	56	foodImage.60	FOODEEG_Images\0614.jpg	YN	Left	Yes	0.740150599999652	0	323239	252
633.388671875	0.740150599999652	taste	choicePhaseStart	1	56	56	foodImage.60	FOODEEG_Images\0614.jpg	YN	Left	Yes	0.740150599999652	0	324296	253
634.119140625	0	taste	response	1	56	56	foodImage.60	FOODEEG_Images\0614.jpg	YN	Left	Yes	0.740150599999652	0	324670	234
635.162109375	1	taste	trialStart	1	57	57	foodImage.73	FOODEEG_Images\0717.jpg	NY	Right	Yes	1.90812060000007	0	325204	251
636.220703125	2	taste	foodImageDisplay	1	57	57	foodImage.73	FOODEEG_Images\0717.jpg	NY	Right	Yes	1.90812060000007	0	325746	252
638.283203125	1.90812060000007	taste	choicePhaseStart	1	57	57	foodImage.73	FOODEEG_Images\0717.jpg	NY	Right	Yes	1.90812060000007	0	326802	253
640.181640625	0	taste	response	1	57	57	foodImage.73	FOODEEG_Images\0717.jpg	NY	Right	Yes	1.90812060000007	0	327774	235
641.224609375	1	health	trialStart	1	58	58	foodImage.70	FOODEEG_Images\0705.jpg	NY	Right	Yes	0.985321600000134	0	328308	251
642.28515625	2	health	foodImageDisplay	1	58	58	foodImage.70	FOODEEG_Images\0705.jpg	NY	Right	Yes	0.985321600000134	0	328851	252
644.349609375	0.985321600000134	health	choicePhaseStart	1	58	58	foodImage.70	FOODEEG_Images\0705.jpg	NY	Right	Yes	0.985321600000134	0	329908	253
645.326171875	0	health	response	1	58	58	foodImage.70	FOODEEG_Images\0705.jpg	NY	Right	Yes	0.985321600000134	0	330408	235
646.3671875	1	health	trialStart	1	59	59	foodImage.60	FOODEEG_Images\0614.jpg	YN	Left	Yes	0.65868699999919	0	330941	251
647.42578125	2	health	foodImageDisplay	1	59	59	foodImage.60	FOODEEG_Images\0614.jpg	YN	Left	Yes	0.65868699999919	0	331483	252
649.4921875	0.65868699999919	health	choicePhaseStart	1	59	59	foodImage.60	FOODEEG_Images\0614.jpg	YN	Left	Yes	0.65868699999919	0	332541	253
650.142578125	0	health	response	1	59	59	foodImage.60	FOODEEG_Images\0614.jpg	YN	Left	Yes	0.65868699999919	0	332874	234
651.185546875	1	health	trialStart	1	60	60	foodImage.79	FOODEEG_Images\0794.jpg	NY	Right	Yes	1.12012139999933	0	333408	251
652.23046875	2	health	foodImageDisplay	1	60	60	foodImage.79	FOODEEG_Images\0794.jpg	NY	Right	Yes	1.12012139999933	0	333943	252
654.294921875	1.12012139999933	health	choicePhaseStart	1	60	60	foodImage.79	FOODEEG_Images\0794.jpg	NY	Right	Yes	1.12012139999933	0	335000	253
655.40625	0	health	response	1	60	60	foodImage.79	FOODEEG_Images\0794.jpg	NY	Right	Yes	1.12012139999933	0	335569	235
657.44921875	12.41015625	n/a	blockEnd	n/a	n/a	n/a	n/a	n/a	n/a	n/a	n/a	n/a	n/a	336615	254
669.859375	2	n/a	blockStart	2	n/a	n/a	n/a	n/a	n/a	n/a	n/a	n/a	n/a	342969	250
671.8984375	1	health	trialStart	2	61	1	foodImage.72	FOODEEG_Images\0714.jpg	YN	Left	Yes	0.59949830000005	0	344013	251
672.943359375	2	health	foodImageDisplay	2	61	1	foodImage.72	FOODEEG_Images\0714.jpg	YN	Left	Yes	0.59949830000005	0	344548	252
675.005859375	0.59949830000005	health	choicePhaseStart	2	61	1	foodImage.72	FOODEEG_Images\0714.jpg	YN	Left	Yes	0.59949830000005	0	345604	253
675.59765625	0	health	response	2	61	1	foodImage.72	FOODEEG_Images\0714.jpg	YN	Left	Yes	0.59949830000005	0	345907	234
676.640625	1	taste	trialStart	2	62	2	foodImage.101	FOODEEG_Images\0909.jpg	YN	Right	No	0.774561000000176	0	346441	251
677.6796875	2	taste	foodImageDisplay	2	62	2	foodImage.101	FOODEEG_Images\0909.jpg	YN	Right	No	0.774561000000176	0	346973	252
679.744140625	0.774561000000176	taste	choicePhaseStart	2	62	2	foodImage.101	FOODEEG_Images\0909.jpg	YN	Right	No	0.774561000000176	0	348030	253
680.5078125	0	taste	response	2	62	2	foodImage.101	FOODEEG_Images\0909.jpg	YN	Right	No	0.774561000000176	0	348421	235
681.55078125	1	decision	trialStart	2	63	3	foodImage.25	FOODEEG_Images\0261.jpg	NY	Left	No	0.885077900000397	0	348955	251
682.591796875	2	decision	foodImageDisplay	2	63	3	foodImage.25	FOODEEG_Images\0261.jpg	NY	Left	No	0.885077900000397	0	349488	252
684.65625	0.885077900000397	decision	choicePhaseStart	2	63	3	foodImage.25	FOODEEG_Images\0261.jpg	NY	Left	No	0.885077900000397	0	350545	253
685.533203125	0	decision	response	2	63	3	foodImage.25	FOODEEG_Images\0261.jpg	NY	Left	No	0.885077900000397	0	350994	234
686.572265625	1	health	trialStart	2	64	4	foodImage.35	FOODEEG_Images\0350.jpg	NY	Right	Yes	1.03339909999977	0	351526	251
687.611328125	2	health	foodImageDisplay	2	64	4	foodImage.35	FOODEEG_Images\0350.jpg	NY	Right	Yes	1.03339909999977	0	352058	252
689.67578125	1.03339909999977	health	choicePhaseStart	2	64	4	foodImage.35	FOODEEG_Images\0350.jpg	NY	Right	Yes	1.03339909999977	0	353115	253
690.701171875	0	health	response	2	64	4	foodImage.35	FOODEEG_Images\0350.jpg	NY	Right	Yes	1.03339909999977	0	353640	235
691.748046875	1	taste	trialStart	2	65	5	foodImage.88	FOODEEG_Images\0878.jpg	NY	Right	Yes	1.40862220000054	0	354176	251
692.8046875	2	taste	foodImageDisplay	2	65	5	foodImage.88	FOODEEG_Images\0878.jpg	NY	Right	Yes	1.40862220000054	0	354717	252
694.869140625	1.40862220000054	taste	choicePhaseStart	2	65	5	foodImage.88	FOODEEG_Images\0878.jpg	NY	Right	Yes	1.40862220000054	0	355774	253
696.267578125	0	taste	response	2	65	5	foodImage.88	FOODEEG_Images\0878.jpg	NY	Right	Yes	1.40862220000054	0	356490	235
697.310546875	1	health	trialStart	2	66	6	foodImage.81	FOODEEG_Images\0797.jpg	YN	Left	Yes	0.882286000000022	0	357024	251
698.37890625	2	health	foodImageDisplay	2	66	6	foodImage.81	FOODEEG_Images\0797.jpg	YN	Left	Yes	0.882286000000022	0	357571	252
700.443359375	0.882286000000022	health	choicePhaseStart	2	66	6	foodImage.81	FOODEEG_Images\0797.jpg	YN	Left	Yes	0.882286000000022	0	358628	253
701.31640625	0	health	response	2	66	6	foodImage.81	FOODEEG_Images\0797.jpg	YN	Left	Yes	0.882286000000022	0	359075	234
702.357421875	1	taste	trialStart	2	67	7	foodImage.48	FOODEEG_Images\0494.jpg	NY	Right	Yes	0.936493700000028	0	359608	251
703.400390625	2	taste	foodImageDisplay	2	67	7	foodImage.48	FOODEEG_Images\0494.jpg	NY	Right	Yes	0.936493700000028	0	360142	252
705.466796875	0.936493700000028	taste	choicePhaseStart	2	67	7	foodImage.48	FOODEEG_Images\0494.jpg	NY	Right	Yes	0.936493700000028	0	361200	253
706.396484375	0	taste	response	2	67	7	foodImage.48	FOODEEG_Images\0494.jpg	NY	Right	Yes	0.936493700000028	0	361676	235
707.435546875	1	decision	trialStart	2	68	8	foodImage.67	FOODEEG_Images\0679.jpg	NY	Right	Yes	1.06185120000009	0	362208	251
708.490234375	2	decision	foodImageDisplay	2	68	8	foodImage.67	FOODEEG_Images\0679.jpg	NY	Right	Yes	1.06185120000009	0	362748	252
710.552734375	1.06185120000009	decision	choicePhaseStart	2	68	8	foodImage.67	FOODEEG_Images\0679.jpg	NY	Right	Yes	1.06185120000009	0	363804	253
711.603515625	0	decision	response	2	68	8	foodImage.67	FOODEEG_Images\0679.jpg	NY	Right	Yes	1.06185120000009	0	364342	235
712.642578125	1	taste	trialStart	2	69	9	foodImage.113	FOODEEG_Images\0921.jpg	YN	Left	Yes	0.963398500000039	0	364874	251
713.681640625	2	taste	foodImageDisplay	2	69	9	foodImage.113	FOODEEG_Images\0921.jpg	YN	Left	Yes	0.963398500000039	0	365406	252
715.744140625	0.963398500000039	taste	choicePhaseStart	2	69	9	foodImage.113	FOODEEG_Images\0921.jpg	YN	Left	Yes	0.963398500000039	0	366462	253
716.69921875	0	taste	response	2	69	9	foodImage.113	FOODEEG_Images\0921.jpg	YN	Left	Yes	0.963398500000039	0	366951	234
717.7421875	1	decision	trialStart	2	70	10	foodImage.81	FOODEEG_Images\0797.jpg	YN	Left	Yes	1.57106589999967	0	367485	251
718.798828125	2	decision	foodImageDisplay	2	70	10	foodImage.81	FOODEEG_Images\0797.jpg	YN	Left	Yes	1.57106589999967	0	368026	252
720.86328125	1.57106589999967	decision	choicePhaseStart	2	70	10	foodImage.81	FOODEEG_Images\0797.jpg	YN	Left	Yes	1.57106589999967	0	369083	253
722.427734375	0	decision	response	2	70	10	foodImage.81	FOODEEG_Images\0797.jpg	YN	Left	Yes	1.57106589999967	0	369884	234
723.46875	1	decision	trialStart	2	71	11	foodImage.83	FOODEEG_Images\0827.jpg	YN	Left	Yes	1.09377310000036	0	370417	251
724.52734375	2	decision	foodImageDisplay	2	71	11	foodImage.83	FOODEEG_Images\0827.jpg	YN	Left	Yes	1.09377310000036	0	370959	252
726.58984375	1.09377310000036	decision	choicePhaseStart	2	71	11	foodImage.83	FOODEEG_Images\0827.jpg	YN	Left	Yes	1.09377310000036	0	372015	253
727.673828125	0	decision	response	2	71	11	foodImage.83	FOODEEG_Images\0827.jpg	YN	Left	Yes	1.09377310000036	0	372570	234
728.716796875	1	decision	trialStart	2	72	12	foodImage.13	FOODEEG_Images\0183.jpg	NY	Right	Yes	1.26150760000019	0	373104	251
729.759765625	2	decision	foodImageDisplay	2	72	12	foodImage.13	FOODEEG_Images\0183.jpg	NY	Right	Yes	1.26150760000019	0	373638	252
731.822265625	1.26150760000019	decision	choicePhaseStart	2	72	12	foodImage.13	FOODEEG_Images\0183.jpg	NY	Right	Yes	1.26150760000019	0	374694	253
733.07421875	0	decision	response	2	72	12	foodImage.13	FOODEEG_Images\0183.jpg	NY	Right	Yes	1.26150760000019	0	375335	235
734.115234375	1	health	trialStart	2	73	13	foodImage.110	FOODEEG_Images\0918.jpg	NY	Right	Yes	1.2229757999994	0	375868	251
735.15625	2	health	foodImageDisplay	2	73	13	foodImage.110	FOODEEG_Images\0918.jpg	NY	Right	Yes	1.2229757999994	0	376401	252
737.220703125	1.2229757999994	health	choicePhaseStart	2	73	13	foodImage.110	FOODEEG_Images\0918.jpg	NY	Right	Yes	1.2229757999994	0	377458	253
738.435546875	0	health	response	2	73	13	foodImage.110	FOODEEG_Images\0918.jpg	NY	Right	Yes	1.2229757999994	0	378080	235
739.474609375	1	taste	trialStart	2	74	14	foodImage.13	FOODEEG_Images\0183.jpg	NY	Right	Yes	1.45681650000006	0	378612	251
740.517578125	2	taste	foodImageDisplay	2	74	14	foodImage.13	FOODEEG_Images\0183.jpg	NY	Right	Yes	1.45681650000006	0	379146	252
742.5859375	1.45681650000006	taste	choicePhaseStart	2	74	14	foodImage.13	FOODEEG_Images\0183.jpg	NY	Right	Yes	1.45681650000006	0	380205	253
744.033203125	0	taste	response	2	74	14	foodImage.13	FOODEEG_Images\0183.jpg	NY	Right	Yes	1.45681650000006	0	380946	235
745.078125	1	decision	trialStart	2	75	15	foodImage.100	FOODEEG_Images\0908.jpg	NY	Left	No	0.861095700000078	0	381481	251
746.1171875	2	decision	foodImageDisplay	2	75	15	foodImage.100	FOODEEG_Images\0908.jpg	NY	Left	No	0.861095700000078	0	382013	252
748.181640625	0.861095700000078	decision	choicePhaseStart	2	75	15	foodImage.100	FOODEEG_Images\0908.jpg	NY	Left	No	0.861095700000078	0	383070	253
749.033203125	0	decision	response	2	75	15	foodImage.100	FOODEEG_Images\0908.jpg	NY	Left	No	0.861095700000078	0	383506	234
750.08203125	1	taste	trialStart	2	76	16	foodImage.2	FOODEEG_Images\0028.jpg	YN	Left	Yes	0.791963399999986	0	384043	251
751.125	2	taste	foodImageDisplay	2	76	16	foodImage.2	FOODEEG_Images\0028.jpg	YN	Left	Yes	0.791963399999986	0	384577	252
753.1875	0.791963399999986	taste	choicePhaseStart	2	76	16	foodImage.2	FOODEEG_Images\0028.jpg	YN	Left	Yes	0.791963399999986	0	385633	253
753.970703125	0	taste	response	2	76	16	foodImage.2	FOODEEG_Images\0028.jpg	YN	Left	Yes	0.791963399999986	0	386034	234
755.017578125	1	taste	trialStart	2	77	17	foodImage.76	FOODEEG_Images\0766.jpg	YN	Left	Yes	0.95669530000032	0	386570	251
756.060546875	2	taste	foodImageDisplay	2	77	17	foodImage.76	FOODEEG_Images\0766.jpg	YN	Left	Yes	0.95669530000032	0	387104	252
758.1328125	0.95669530000032	taste	choicePhaseStart	2	77	17	foodImage.76	FOODEEG_Images\0766.jpg	YN	Left	Yes	0.95669530000032	0	388165	253
759.08203125	0	taste	response	2	77	17	foodImage.76	FOODEEG_Images\0766.jpg	YN	Left	Yes	0.95669530000032	0	388651	234
760.125	1	decision	trialStart	2	78	18	foodImage.4	FOODEEG_Images\0065.jpg	NY	Right	Yes	1.67490069999985	0	389185	251
761.208984375	2	decision	foodImageDisplay	2	78	18	foodImage.4	FOODEEG_Images\0065.jpg	NY	Right	Yes	1.67490069999985	0	389740	252
763.271484375	1.67490069999985	decision	choicePhaseStart	2	78	18	foodImage.4	FOODEEG_Images\0065.jpg	NY	Right	Yes	1.67490069999985	0	390796	253
764.9375	0	decision	response	2	78	18	foodImage.4	FOODEEG_Images\0065.jpg	NY	Right	Yes	1.67490069999985	0	391649	235
765.98046875	1	taste	trialStart	2	79	19	foodImage.89	FOODEEG_Images\0881.jpg	YN	Left	Yes	1.74285119999968	0	392183	251
767.037109375	2	taste	foodImageDisplay	2	79	19	foodImage.89	FOODEEG_Images\0881.jpg	YN	Left	Yes	1.74285119999968	0	392724	252
769.099609375	1.74285119999968	taste	choicePhaseStart	2	79	19	foodImage.89	FOODEEG_Images\0881.jpg	YN	Left	Yes	1.74285119999968	0	393780	253
770.833984375	0	taste	response	2	79	19	foodImage.89	FOODEEG_Images\0881.jpg	YN	Left	Yes	1.74285119999968	0	394668	234
771.876953125	1	taste	trialStart	2	80	20	foodImage.67	FOODEEG_Images\0679.jpg	YN	Left	Yes	1.90456940000058	0	395202	251
772.9453125	2	taste	foodImageDisplay	2	80	20	foodImage.67	FOODEEG_Images\0679.jpg	YN	Left	Yes	1.90456940000058	0	395749	252
775.009765625	1.90456940000058	taste	choicePhaseStart	2	80	20	foodImage.67	FOODEEG_Images\0679.jpg	YN	Left	Yes	1.90456940000058	0	396806	253
776.904296875	0	taste	response	2	80	20	foodImage.67	FOODEEG_Images\0679.jpg	YN	Left	Yes	1.90456940000058	0	397776	234
777.94921875	1	decision	trialStart	2	81	21	foodImage.14	FOODEEG_Images\0188.jpg	YN	Left	Yes	0.703184800000599	0	398311	251
779.0078125	2	decision	foodImageDisplay	2	81	21	foodImage.14	FOODEEG_Images\0188.jpg	YN	Left	Yes	0.703184800000599	0	398853	252
781.072265625	0.703184800000599	decision	choicePhaseStart	2	81	21	foodImage.14	FOODEEG_Images\0188.jpg	YN	Left	Yes	0.703184800000599	0	399910	253
781.76953125	0	decision	response	2	81	21	foodImage.14	FOODEEG_Images\0188.jpg	YN	Left	Yes	0.703184800000599	0	400267	234
782.8125	1	health	trialStart	2	82	22	foodImage.21	FOODEEG_Images\0234.jpg	NY	Right	Yes	0.995708899999954	0	400801	251
783.87109375	2	health	foodImageDisplay	2	82	22	foodImage.21	FOODEEG_Images\0234.jpg	NY	Right	Yes	0.995708899999954	0	401343	252
785.93359375	0.995708899999954	health	choicePhaseStart	2	82	22	foodImage.21	FOODEEG_Images\0234.jpg	NY	Right	Yes	0.995708899999954	0	402399	253
786.919921875	0	health	response	2	82	22	foodImage.21	FOODEEG_Images\0234.jpg	NY	Right	Yes	0.995708899999954	0	402904	235
787.962890625	1	taste	trialStart	2	83	23	foodImage.93	FOODEEG_Images\0901.jpg	YN	Right	No	1.14145219999955	0	403438	251
789	2	taste	foodImageDisplay	2	83	23	foodImage.93	FOODEEG_Images\0901.jpg	YN	Right	No	1.14145219999955	0	403969	252
791.06640625	1.14145219999955	taste	choicePhaseStart	2	83	23	foodImage.93	FOODEEG_Images\0901.jpg	YN	Right	No	1.14145219999955	0	405027	253
792.201171875	0	taste	response	2	83	23	foodImage.93	FOODEEG_Images\0901.jpg	YN	Right	No	1.14145219999955	0	405608	235
793.244140625	1	taste	trialStart	2	84	24	foodImage.68	FOODEEG_Images\0685.jpg	YN	Left	Yes	0.766201700000238	0	406142	251
794.322265625	2	taste	foodImageDisplay	2	84	24	foodImage.68	FOODEEG_Images\0685.jpg	YN	Left	Yes	0.766201700000238	0	406694	252
796.38671875	0.766201700000238	taste	choicePhaseStart	2	84	24	foodImage.68	FOODEEG_Images\0685.jpg	YN	Left	Yes	0.766201700000238	0	407751	253
797.14453125	0	taste	response	2	84	24	foodImage.68	FOODEEG_Images\0685.jpg	YN	Left	Yes	0.766201700000238	0	408139	234
798.1875	1	health	trialStart	2	85	25	foodImage.42	FOODEEG_Images\0438.jpg	NY	Right	Yes	0.762140900000304	0	408673	251
799.279296875	2	health	foodImageDisplay	2	85	25	foodImage.42	FOODEEG_Images\0438.jpg	NY	Right	Yes	0.762140900000304	0	409232	252
801.34375	0.762140900000304	health	choicePhaseStart	2	85	25	foodImage.42	FOODEEG_Images\0438.jpg	NY	Right	Yes	0.762140900000304	0	410289	253
802.095703125	0	health	response	2	85	25	foodImage.42	FOODEEG_Images\0438.jpg	NY	Right	Yes	0.762140900000304	0	410674	235
803.140625	1	taste	trialStart	2	86	26	foodImage.74	FOODEEG_Images\0752.jpg	YN	Left	Yes	1.19730250000066	0	411209	251
804.185546875	2	taste	foodImageDisplay	2	86	26	foodImage.74	FOODEEG_Images\0752.jpg	YN	Left	Yes	1.19730250000066	0	411744	252
806.251953125	1.19730250000066	taste	choicePhaseStart	2	86	26	foodImage.74	FOODEEG_Images\0752.jpg	YN	Left	Yes	1.19730250000066	0	412802	253
807.439453125	0	taste	response	2	86	26	foodImage.74	FOODEEG_Images\0752.jpg	YN	Left	Yes	1.19730250000066	0	413410	234
808.482421875	1	decision	trialStart	2	87	27	foodImage.92	FOODEEG_Images\0900.jpg	YN	Right	No	1.23710310000024	0	413944	251
809.521484375	2	decision	foodImageDisplay	2	87	27	foodImage.92	FOODEEG_Images\0900.jpg	YN	Right	No	1.23710310000024	0	414476	252
811.587890625	1.23710310000024	decision	choicePhaseStart	2	87	27	foodImage.92	FOODEEG_Images\0900.jpg	YN	Right	No	1.23710310000024	0	415534	253
812.81640625	0	decision	response	2	87	27	foodImage.92	FOODEEG_Images\0900.jpg	YN	Right	No	1.23710310000024	0	416163	235
813.857421875	1	health	trialStart	2	88	28	foodImage.20	FOODEEG_Images\0226.jpg	YN	Left	Yes	0.647167699999954	0	416696	251
814.8984375	2	health	foodImageDisplay	2	88	28	foodImage.20	FOODEEG_Images\0226.jpg	YN	Left	Yes	0.647167699999954	0	417229	252
816.9609375	0.647167699999954	health	choicePhaseStart	2	88	28	foodImage.20	FOODEEG_Images\0226.jpg	YN	Left	Yes	0.647167699999954	0	418285	253
817.599609375	0	health	response	2	88	28	foodImage.20	FOODEEG_Images\0226.jpg	YN	Left	Yes	0.647167699999954	0	418612	234
818.642578125	1	decision	trialStart	2	89	29	foodImage.115	FOODEEG_Images\0923.jpg	NY	Right	Yes	1.61063819999981	0	419146	251
819.68359375	2	decision	foodImageDisplay	2	89	29	foodImage.115	FOODEEG_Images\0923.jpg	NY	Right	Yes	1.61063819999981	0	419679	252
821.75390625	1.61063819999981	decision	choicePhaseStart	2	89	29	foodImage.115	FOODEEG_Images\0923.jpg	NY	Right	Yes	1.61063819999981	0	420739	253
823.359375	0	decision	response	2	89	29	foodImage.115	FOODEEG_Images\0923.jpg	NY	Right	Yes	1.61063819999981	0	421561	235
824.40234375	1	health	trialStart	2	90	30	foodImage.63	FOODEEG_Images\0645.jpg	YN	Left	Yes	1.05211739999959	0	422095	251
825.4453125	2	health	foodImageDisplay	2	90	30	foodImage.63	FOODEEG_Images\0645.jpg	YN	Left	Yes	1.05211739999959	0	422629	252
827.5078125	1.05211739999959	health	choicePhaseStart	2	90	30	foodImage.63	FOODEEG_Images\0645.jpg	YN	Left	Yes	1.05211739999959	0	423685	253
828.55078125	0	health	response	2	90	30	foodImage.63	FOODEEG_Images\0645.jpg	YN	Left	Yes	1.05211739999959	0	424219	234
829.591796875	1	decision	trialStart	2	91	31	foodImage.74	FOODEEG_Images\0752.jpg	NY	Right	Yes	1.48354759999984	0	424752	251
830.63671875	2	decision	foodImageDisplay	2	91	31	foodImage.74	FOODEEG_Images\0752.jpg	NY	Right	Yes	1.48354759999984	0	425287	252
832.701171875	1.48354759999984	decision	choicePhaseStart	2	91	31	foodImage.74	FOODEEG_Images\0752.jpg	NY	Right	Yes	1.48354759999984	0	426344	253
834.173828125	0	decision	response	2	91	31	foodImage.74	FOODEEG_Images\0752.jpg	NY	Right	Yes	1.48354759999984	0	427098	235
835.216796875	1	health	trialStart	2	92	32	foodImage.32	FOODEEG_Images\0319.jpg	NY	Right	Yes	0.990735600000335	0	427632	251
836.26171875	2	health	foodImageDisplay	2	92	32	foodImage.32	FOODEEG_Images\0319.jpg	NY	Right	Yes	0.990735600000335	0	428167	252
838.330078125	0.990735600000335	health	choicePhaseStart	2	92	32	foodImage.32	FOODEEG_Images\0319.jpg	NY	Right	Yes	0.990735600000335	0	429226	253
839.310546875	0	health	response	2	92	32	foodImage.32	FOODEEG_Images\0319.jpg	NY	Right	Yes	0.990735600000335	0	429728	235
840.353515625	1	decision	trialStart	2	93	33	foodImage.53	FOODEEG_Images\0547.jpg	YN	Left	Yes	0.934088099999826	0	430262	251
841.416015625	2	decision	foodImageDisplay	2	93	33	foodImage.53	FOODEEG_Images\0547.jpg	YN	Left	Yes	0.934088099999826	0	430806	252
843.482421875	0.934088099999826	decision	choicePhaseStart	2	93	33	foodImage.53	FOODEEG_Images\0547.jpg	YN	Left	Yes	0.934088099999826	0	431864	253
844.40625	0	decision	response	2	93	33	foodImage.53	FOODEEG_Images\0547.jpg	YN	Left	Yes	0.934088099999826	0	432337	234
845.44921875	1	health	trialStart	2	94	34	foodImage.64	FOODEEG_Images\0647.jpg	YN	Left	Yes	1.66614789999949	0	432871	251
846.509765625	2	health	foodImageDisplay	2	94	34	foodImage.64	FOODEEG_Images\0647.jpg	YN	Left	Yes	1.66614789999949	0	433414	252
848.572265625	1.66614789999949	health	choicePhaseStart	2	94	34	foodImage.64	FOODEEG_Images\0647.jpg	YN	Left	Yes	1.66614789999949	0	434470	253
850.23046875	0	health	response	2	94	34	foodImage.64	FOODEEG_Images\0647.jpg	YN	Left	Yes	1.66614789999949	0	435319	234
851.2734375	1	taste	trialStart	2	95	35	foodImage.5	FOODEEG_Images\0107.jpg	NY	Right	Yes	1.05152780000026	0	435853	251
852.35546875	2	taste	foodImageDisplay	2	95	35	foodImage.5	FOODEEG_Images\0107.jpg	NY	Right	Yes	1.05152780000026	0	436407	252
854.419921875	1.05152780000026	taste	choicePhaseStart	2	95	35	foodImage.5	FOODEEG_Images\0107.jpg	NY	Right	Yes	1.05152780000026	0	437464	253
855.4609375	0	taste	response	2	95	35	foodImage.5	FOODEEG_Images\0107.jpg	NY	Right	Yes	1.05152780000026	0	437997	235
856.501953125	1	taste	trialStart	2	96	36	foodImage.15	FOODEEG_Images\0189.jpg	YN	Left	Yes	0.811122399999476	0	438530	251
857.587890625	2	taste	foodImageDisplay	2	96	36	foodImage.15	FOODEEG_Images\0189.jpg	YN	Left	Yes	0.811122399999476	0	439086	252
859.65234375	0.811122399999476	taste	choicePhaseStart	2	96	36	foodImage.15	FOODEEG_Images\0189.jpg	YN	Left	Yes	0.811122399999476	0	440143	253
860.453125	0	taste	response	2	96	36	foodImage.15	FOODEEG_Images\0189.jpg	YN	Left	Yes	0.811122399999476	0	440553	234
861.49609375	1	health	trialStart	2	97	37	foodImage.9	FOODEEG_Images\0138.jpg	YN	Right	No	1.10377939999944	0	441087	251
862.552734375	2	health	foodImageDisplay	2	97	37	foodImage.9	FOODEEG_Images\0138.jpg	YN	Right	No	1.10377939999944	0	441628	252
864.615234375	1.10377939999944	health	choicePhaseStart	2	97	37	foodImage.9	FOODEEG_Images\0138.jpg	YN	Right	No	1.10377939999944	0	442684	253
865.708984375	0	health	response	2	97	37	foodImage.9	FOODEEG_Images\0138.jpg	YN	Right	No	1.10377939999944	0	443244	235
866.751953125	1	decision	trialStart	2	98	38	foodImage.36	FOODEEG_Images\0352.jpg	YN	Left	Yes	0.62346290000005	0	443778	251
867.810546875	2	decision	foodImageDisplay	2	98	38	foodImage.36	FOODEEG_Images\0352.jpg	YN	Left	Yes	0.62346290000005	0	444320	252
869.87890625	0.62346290000005	decision	choicePhaseStart	2	98	38	foodImage.36	FOODEEG_Images\0352.jpg	YN	Left	Yes	0.62346290000005	0	445379	253
870.494140625	0	decision	response	2	98	38	foodImage.36	FOODEEG_Images\0352.jpg	YN	Left	Yes	0.62346290000005	0	445694	234
871.53515625	1	taste	trialStart	2	99	39	foodImage.120	FOODEEG_Images\0928.jpg	YN	Right	No	1.60586479999984	0	446227	251
872.578125	2	taste	foodImageDisplay	2	99	39	foodImage.120	FOODEEG_Images\0928.jpg	YN	Right	No	1.60586479999984	0	446761	252
874.640625	1.60586479999984	taste	choicePhaseStart	2	99	39	foodImage.120	FOODEEG_Images\0928.jpg	YN	Right	No	1.60586479999984	0	447817	253
876.236328125	0	taste	response	2	99	39	foodImage.120	FOODEEG_Images\0928.jpg	YN	Right	No	1.60586479999984	0	448634	235
877.279296875	1	health	trialStart	2	100	40	foodImage.94	FOODEEG_Images\0902.jpg	NY	Right	Yes	1.34340470000006	0	449168	251
878.318359375	2	health	foodImageDisplay	2	100	40	foodImage.94	FOODEEG_Images\0902.jpg	NY	Right	Yes	1.34340470000006	0	449700	252
880.3828125	1.34340470000006	health	choicePhaseStart	2	100	40	foodImage.94	FOODEEG_Images\0902.jpg	NY	Right	Yes	1.34340470000006	0	450757	253
881.716796875	0	health	response	2	100	40	foodImage.94	FOODEEG_Images\0902.jpg	NY	Right	Yes	1.34340470000006	0	451440	235
882.759765625	1	health	trialStart	2	101	41	foodImage.45	FOODEEG_Images\0478.jpg	YN	Left	Yes	0.778737500000716	0	451974	251
883.8046875	2	health	foodImageDisplay	2	101	41	foodImage.45	FOODEEG_Images\0478.jpg	YN	Left	Yes	0.778737500000716	0	452509	252
885.8671875	0.778737500000716	health	choicePhaseStart	2	101	41	foodImage.45	FOODEEG_Images\0478.jpg	YN	Left	Yes	0.778737500000716	0	453565	253
886.63671875	0	health	response	2	101	41	foodImage.45	FOODEEG_Images\0478.jpg	YN	Left	Yes	0.778737500000716	0	453959	234
887.6796875	1	health	trialStart	2	102	42	foodImage.101	FOODEEG_Images\0909.jpg	NY	Right	Yes	1.61601659999997	0	454493	251
888.71875	2	health	foodImageDisplay	2	102	42	foodImage.101	FOODEEG_Images\0909.jpg	NY	Right	Yes	1.61601659999997	0	455025	252
890.78125	1.61601659999997	health	choicePhaseStart	2	102	42	foodImage.101	FOODEEG_Images\0909.jpg	NY	Right	Yes	1.61601659999997	0	456081	253
892.388671875	0	health	response	2	102	42	foodImage.101	FOODEEG_Images\0909.jpg	NY	Right	Yes	1.61601659999997	0	456904	235
893.431640625	1	health	trialStart	2	103	43	foodImage.34	FOODEEG_Images\0339.jpg	YN	Right	No	0.683303599999817	0	457438	251
894.490234375	2	health	foodImageDisplay	2	103	43	foodImage.34	FOODEEG_Images\0339.jpg	YN	Right	No	0.683303599999817	0	457980	252
896.552734375	0.683303599999817	health	choicePhaseStart	2	103	43	foodImage.34	FOODEEG_Images\0339.jpg	YN	Right	No	0.683303599999817	0	459036	253
897.228515625	0	health	response	2	103	43	foodImage.34	FOODEEG_Images\0339.jpg	YN	Right	No	0.683303599999817	0	459382	235
898.271484375	1	health	trialStart	2	104	44	foodImage.56	FOODEEG_Images\0586.jpg	YN	Left	Yes	0.792131799999879	0	459916	251
899.31640625	2	health	foodImageDisplay	2	104	44	foodImage.56	FOODEEG_Images\0586.jpg	YN	Left	Yes	0.792131799999879	0	460451	252
901.380859375	0.792131799999879	health	choicePhaseStart	2	104	44	foodImage.56	FOODEEG_Images\0586.jpg	YN	Left	Yes	0.792131799999879	0	461508	253
902.1640625	0	health	response	2	104	44	foodImage.56	FOODEEG_Images\0586.jpg	YN	Left	Yes	0.792131799999879	0	461909	234
903.20703125	1	taste	trialStart	2	105	45	foodImage.25	FOODEEG_Images\0261.jpg	YN	Right	No	1.07903560000068	0	462443	251
904.24609375	2	taste	foodImageDisplay	2	105	45	foodImage.25	FOODEEG_Images\0261.jpg	YN	Right	No	1.07903560000068	0	462975	252
906.310546875	1.07903560000068	taste	choicePhaseStart	2	105	45	foodImage.25	FOODEEG_Images\0261.jpg	YN	Right	No	1.07903560000068	0	464032	253
907.380859375	0	taste	response	2	105	45	foodImage.25	FOODEEG_Images\0261.jpg	YN	Right	No	1.07903560000068	0	464580	235
908.423828125	1	taste	trialStart	2	106	46	foodImage.98	FOODEEG_Images\0906.jpg	NY	Left	No	1.19835120000062	0	465114	251
909.478515625	2	taste	foodImageDisplay	2	106	46	foodImage.98	FOODEEG_Images\0906.jpg	NY	Left	No	1.19835120000062	0	465654	252
911.54296875	1.19835120000062	taste	choicePhaseStart	2	106	46	foodImage.98	FOODEEG_Images\0906.jpg	NY	Left	No	1.19835120000062	0	466711	253
912.732421875	0	taste	response	2	106	46	foodImage.98	FOODEEG_Images\0906.jpg	NY	Left	No	1.19835120000062	0	467320	234
913.775390625	1	decision	trialStart	2	107	47	foodImage.86	FOODEEG_Images\0844.jpg	YN	Left	Yes	1.46229149999999	0	467854	251
914.830078125	2	decision	foodImageDisplay	2	107	47	foodImage.86	FOODEEG_Images\0844.jpg	YN	Left	Yes	1.46229149999999	0	468394	252
916.89453125	1.46229149999999	decision	choicePhaseStart	2	107	47	foodImage.86	FOODEEG_Images\0844.jpg	YN	Left	Yes	1.46229149999999	0	469451	253
918.34765625	0	decision	response	2	107	47	foodImage.86	FOODEEG_Images\0844.jpg	YN	Left	Yes	1.46229149999999	0	470195	234
919.390625	1	health	trialStart	2	108	48	foodImage.100	FOODEEG_Images\0908.jpg	NY	Right	Yes	1.67947039999945	0	470729	251
920.4296875	2	health	foodImageDisplay	2	108	48	foodImage.100	FOODEEG_Images\0908.jpg	NY	Right	Yes	1.67947039999945	0	471261	252
922.5	1.67947039999945	health	choicePhaseStart	2	108	48	foodImage.100	FOODEEG_Images\0908.jpg	NY	Right	Yes	1.67947039999945	0	472321	253
924.169921875	0	health	response	2	108	48	foodImage.100	FOODEEG_Images\0908.jpg	NY	Right	Yes	1.67947039999945	0	473176	235
925.212890625	1	decision	trialStart	2	109	49	foodImage.1	FOODEEG_Images\0004.jpg	NY	Right	Yes	1.51500570000007	0	473710	251
926.2578125	2	decision	foodImageDisplay	2	109	49	foodImage.1	FOODEEG_Images\0004.jpg	NY	Right	Yes	1.51500570000007	0	474245	252
928.3203125	1.51500570000007	decision	choicePhaseStart	2	109	49	foodImage.1	FOODEEG_Images\0004.jpg	NY	Right	Yes	1.51500570000007	0	475301	253
929.826171875	0	decision	response	2	109	49	foodImage.1	FOODEEG_Images\0004.jpg	NY	Right	Yes	1.51500570000007	0	476072	235
930.87109375	1	decision	trialStart	2	110	50	foodImage.119	FOODEEG_Images\0927.jpg	YN	Left	Yes	1.61322560000008	0	476607	251
931.91015625	2	decision	foodImageDisplay	2	110	50	foodImage.119	FOODEEG_Images\0927.jpg	YN	Left	Yes	1.61322560000008	0	477139	252
933.974609375	1.61322560000008	decision	choicePhaseStart	2	110	50	foodImage.119	FOODEEG_Images\0927.jpg	YN	Left	Yes	1.61322560000008	0	478196	253
935.578125	0	decision	response	2	110	50	foodImage.119	FOODEEG_Images\0927.jpg	YN	Left	Yes	1.61322560000008	0	479017	234
936.623046875	1	health	trialStart	2	111	51	foodImage.113	FOODEEG_Images\0921.jpg	NY	Right	Yes	0.967143699999724	0	479552	251
937.66015625	2	health	foodImageDisplay	2	111	51	foodImage.113	FOODEEG_Images\0921.jpg	NY	Right	Yes	0.967143699999724	0	480083	252
939.724609375	0.967143699999724	health	choicePhaseStart	2	111	51	foodImage.113	FOODEEG_Images\0921.jpg	NY	Right	Yes	0.967143699999724	0	481140	253
940.681640625	0	health	response	2	111	51	foodImage.113	FOODEEG_Images\0921.jpg	NY	Right	Yes	0.967143699999724	0	481630	235
941.7265625	1	health	trialStart	2	112	52	foodImage.61	FOODEEG_Images\0640.jpg	YN	Left	Yes	0.57160549999935	0	482165	251
942.767578125	2	health	foodImageDisplay	2	112	52	foodImage.61	FOODEEG_Images\0640.jpg	YN	Left	Yes	0.57160549999935	0	482698	252
944.8359375	0.57160549999935	health	choicePhaseStart	2	112	52	foodImage.61	FOODEEG_Images\0640.jpg	YN	Left	Yes	0.57160549999935	0	483757	253
945.40234375	0	health	response	2	112	52	foodImage.61	FOODEEG_Images\0640.jpg	YN	Left	Yes	0.57160549999935	0	484047	234
946.4453125	1	decision	trialStart	2	113	53	foodImage.111	FOODEEG_Images\0919.jpg	YN	Right	No	0.694075299999895	0	484581	251
947.5	2	decision	foodImageDisplay	2	113	53	foodImage.111	FOODEEG_Images\0919.jpg	YN	Right	No	0.694075299999895	0	485121	252
949.56640625	0.694075299999895	decision	choicePhaseStart	2	113	53	foodImage.111	FOODEEG_Images\0919.jpg	YN	Right	No	0.694075299999895	0	486179	253
950.25	0	decision	response	2	113	53	foodImage.111	FOODEEG_Images\0919.jpg	YN	Right	No	0.694075299999895	0	486529	235
951.29296875	1	health	trialStart	2	114	54	foodImage.92	FOODEEG_Images\0900.jpg	NY	Right	Yes	0.632068099999742	0	487063	251
952.33203125	2	health	foodImageDisplay	2	114	54	foodImage.92	FOODEEG_Images\0900.jpg	NY	Right	Yes	0.632068099999742	0	487595	252
954.396484375	0.632068099999742	health	choicePhaseStart	2	114	54	foodImage.92	FOODEEG_Images\0900.jpg	NY	Right	Yes	0.632068099999742	0	488652	253
955.017578125	0	health	response	2	114	54	foodImage.92	FOODEEG_Images\0900.jpg	NY	Right	Yes	0.632068099999742	0	488970	235
956.0625	1	decision	trialStart	2	115	55	foodImage.38	FOODEEG_Images\0365.jpg	NY	Right	Yes	1.11828510000032	0	489505	251
957.1015625	2	decision	foodImageDisplay	2	115	55	foodImage.38	FOODEEG_Images\0365.jpg	NY	Right	Yes	1.11828510000032	0	490037	252
959.1640625	1.11828510000032	decision	choicePhaseStart	2	115	55	foodImage.38	FOODEEG_Images\0365.jpg	NY	Right	Yes	1.11828510000032	0	491093	253
960.2734375	0	decision	response	2	115	55	foodImage.38	FOODEEG_Images\0365.jpg	NY	Right	Yes	1.11828510000032	0	491661	235
961.3125	1	health	trialStart	2	116	56	foodImage.112	FOODEEG_Images\0920.jpg	NY	Right	Yes	0.8258194	0	492193	251
962.3515625	2	health	foodImageDisplay	2	116	56	foodImage.112	FOODEEG_Images\0920.jpg	NY	Right	Yes	0.8258194	0	492725	252
964.416015625	0.8258194	health	choicePhaseStart	2	116	56	foodImage.112	FOODEEG_Images\0920.jpg	NY	Right	Yes	0.8258194	0	493782	253
965.232421875	0	health	response	2	116	56	foodImage.112	FOODEEG_Images\0920.jpg	NY	Right	Yes	0.8258194	0	494200	235
966.27734375	1	taste	trialStart	2	117	57	foodImage.82	FOODEEG_Images\0805.jpg	YN	Left	Yes	1.31896899999992	0	494735	251
967.33203125	2	taste	foodImageDisplay	2	117	57	foodImage.82	FOODEEG_Images\0805.jpg	YN	Left	Yes	1.31896899999992	0	495275	252
969.39453125	1.31896899999992	taste	choicePhaseStart	2	117	57	foodImage.82	FOODEEG_Images\0805.jpg	YN	Left	Yes	1.31896899999992	0	496331	253
970.705078125	0	taste	response	2	117	57	foodImage.82	FOODEEG_Images\0805.jpg	YN	Left	Yes	1.31896899999992	0	497002	234
971.748046875	1	health	trialStart	2	118	58	foodImage.111	FOODEEG_Images\0919.jpg	NY	Left	No	1.08096730000034	0	497536	251
972.78515625	2	health	foodImageDisplay	2	118	58	foodImage.111	FOODEEG_Images\0919.jpg	NY	Left	No	1.08096730000034	0	498067	252
974.849609375	1.08096730000034	health	choicePhaseStart	2	118	58	foodImage.111	FOODEEG_Images\0919.jpg	NY	Left	No	1.08096730000034	0	499124	253
975.921875	0	health	response	2	118	58	foodImage.111	FOODEEG_Images\0919.jpg	NY	Left	No	1.08096730000034	0	499673	234
976.962890625	1	decision	trialStart	2	119	59	foodImage.79	FOODEEG_Images\0794.jpg	NY	Right	Yes	1.60178850000011	0	500206	251
978.0078125	2	decision	foodImageDisplay	2	119	59	foodImage.79	FOODEEG_Images\0794.jpg	NY	Right	Yes	1.60178850000011	0	500741	252
980.0703125	1.60178850000011	decision	choicePhaseStart	2	119	59	foodImage.79	FOODEEG_Images\0794.jpg	NY	Right	Yes	1.60178850000011	0	501797	253
981.6640625	0	decision	response	2	119	59	foodImage.79	FOODEEG_Images\0794.jpg	NY	Right	Yes	1.60178850000011	0	502613	235
982.70703125	1	health	trialStart	2	120	60	foodImage.41	FOODEEG_Images\0409.jpg	NY	Right	Yes	0.645946399999957	0	503147	251
983.755859375	2	health	foodImageDisplay	2	120	60	foodImage.41	FOODEEG_Images\0409.jpg	NY	Right	Yes	0.645946399999957	0	503684	252
985.8203125	0.645946399999957	health	choicePhaseStart	2	120	60	foodImage.41	FOODEEG_Images\0409.jpg	NY	Right	Yes	0.645946399999957	0	504741	253
986.45703125	0	health	response	2	120	60	foodImage.41	FOODEEG_Images\0409.jpg	NY	Right	Yes	0.645946399999957	0	505067	235
988.5	11.951171875	n/a	blockEnd	n/a	n/a	n/a	n/a	n/a	n/a	n/a	n/a	n/a	n/a	506113	254
1000.451171875	2	n/a	blockStart	3	n/a	n/a	n/a	n/a	n/a	n/a	n/a	n/a	n/a	512232	250
1002.484375	1	taste	trialStart	3	121	1	foodImage.31	FOODEEG_Images\0294.jpg	NY	Right	Yes	1.31742549999944	0	513273	251
1003.52734375	2	taste	foodImageDisplay	3	121	1	foodImage.31	FOODEEG_Images\0294.jpg	NY	Right	Yes	1.31742549999944	0	513807	252
1005.59375	1.31742549999944	taste	choicePhaseStart	3	121	1	foodImage.31	FOODEEG_Images\0294.jpg	NY	Right	Yes	1.31742549999944	0	514865	253
1006.904296875	0	taste	response	3	121	1	foodImage.31	FOODEEG_Images\0294.jpg	NY	Right	Yes	1.31742549999944	0	515536	235
1007.947265625	1	decision	trialStart	3	122	2	foodImage.70	FOODEEG_Images\0705.jpg	YN	Left	Yes	0.810084300000199	0	516070	251
1009.0078125	2	decision	foodImageDisplay	3	122	2	foodImage.70	FOODEEG_Images\0705.jpg	YN	Left	Yes	0.810084300000199	0	516613	252
1011.0703125	0.810084300000199	decision	choicePhaseStart	3	122	2	foodImage.70	FOODEEG_Images\0705.jpg	YN	Left	Yes	0.810084300000199	0	517669	253
1011.87109375	0	decision	response	3	122	2	foodImage.70	FOODEEG_Images\0705.jpg	YN	Left	Yes	0.810084300000199	0	518079	234
1012.916015625	1	health	trialStart	3	123	3	foodImage.2	FOODEEG_Images\0028.jpg	YN	Left	Yes	0.752639199999976	0	518614	251
1013.95703125	2	health	foodImageDisplay	3	123	3	foodImage.2	FOODEEG_Images\0028.jpg	YN	Left	Yes	0.752639199999976	0	519147	252
1016.021484375	0.752639199999976	health	choicePhaseStart	3	123	3	foodImage.2	FOODEEG_Images\0028.jpg	YN	Left	Yes	0.752639199999976	0	520204	253
1016.767578125	0	health	response	3	123	3	foodImage.2	FOODEEG_Images\0028.jpg	YN	Left	Yes	0.752639199999976	0	520586	234
1017.8125	1	health	trialStart	3	124	4	foodImage.33	FOODEEG_Images\0329.jpg	YN	Left	Yes	0.767573600000105	0	521121	251
1018.85546875	2	health	foodImageDisplay	3	124	4	foodImage.33	FOODEEG_Images\0329.jpg	YN	Left	Yes	0.767573600000105	0	521655	252
1020.91796875	0.767573600000105	health	choicePhaseStart	3	124	4	foodImage.33	FOODEEG_Images\0329.jpg	YN	Left	Yes	0.767573600000105	0	522711	253
1021.6796875	0	health	response	3	124	4	foodImage.33	FOODEEG_Images\0329.jpg	YN	Left	Yes	0.767573600000105	0	523101	234
1022.72265625	1	decision	trialStart	3	125	5	foodImage.88	FOODEEG_Images\0878.jpg	NY	Left	No	1.53390800000034	0	523635	251
1023.779296875	2	decision	foodImageDisplay	3	125	5	foodImage.88	FOODEEG_Images\0878.jpg	NY	Left	No	1.53390800000034	0	524176	252
1025.841796875	1.53390800000034	decision	choicePhaseStart	3	125	5	foodImage.88	FOODEEG_Images\0878.jpg	NY	Left	No	1.53390800000034	0	525232	253
1027.3671875	0	decision	response	3	125	5	foodImage.88	FOODEEG_Images\0878.jpg	NY	Left	No	1.53390800000034	0	526013	234
1028.41015625	1	decision	trialStart	3	126	6	foodImage.31	FOODEEG_Images\0294.jpg	NY	Left	No	1.64257799999996	0	526547	251
1029.451171875	2	decision	foodImageDisplay	3	126	6	foodImage.31	FOODEEG_Images\0294.jpg	NY	Left	No	1.64257799999996	0	527080	252
1031.513671875	1.64257799999996	decision	choicePhaseStart	3	126	6	foodImage.31	FOODEEG_Images\0294.jpg	NY	Left	No	1.64257799999996	0	528136	253
1033.150390625	0	decision	response	3	126	6	foodImage.31	FOODEEG_Images\0294.jpg	NY	Left	No	1.64257799999996	0	528974	234
1034.193359375	1	health	trialStart	3	127	7	foodImage.55	FOODEEG_Images\0567.jpg	YN	Left	Yes	0.837548599999536	0	529508	251
1035.251953125	2	health	foodImageDisplay	3	127	7	foodImage.55	FOODEEG_Images\0567.jpg	YN	Left	Yes	0.837548599999536	0	530050	252
1037.3203125	0.837548599999536	health	choicePhaseStart	3	127	7	foodImage.55	FOODEEG_Images\0567.jpg	YN	Left	Yes	0.837548599999536	0	531109	253
1038.150390625	0	health	response	3	127	7	foodImage.55	FOODEEG_Images\0567.jpg	YN	Left	Yes	0.837548599999536	0	531534	234
1039.193359375	1	decision	trialStart	3	128	8	foodImage.110	FOODEEG_Images\0918.jpg	NY	Right	Yes	1.58964610000021	0	532068	251
1040.232421875	2	decision	foodImageDisplay	3	128	8	foodImage.110	FOODEEG_Images\0918.jpg	NY	Right	Yes	1.58964610000021	0	532600	252
1042.296875	1.58964610000021	decision	choicePhaseStart	3	128	8	foodImage.110	FOODEEG_Images\0918.jpg	NY	Right	Yes	1.58964610000021	0	533657	253
1043.87890625	0	decision	response	3	128	8	foodImage.110	FOODEEG_Images\0918.jpg	NY	Right	Yes	1.58964610000021	0	534467	235
1044.921875	1	health	trialStart	3	129	9	foodImage.117	FOODEEG_Images\0925.jpg	NY	Right	Yes	1.78434720000041	0	535001	251
1045.962890625	2	health	foodImageDisplay	3	129	9	foodImage.117	FOODEEG_Images\0925.jpg	NY	Right	Yes	1.78434720000041	0	535534	252
1048.03125	1.78434720000041	health	choicePhaseStart	3	129	9	foodImage.117	FOODEEG_Images\0925.jpg	NY	Right	Yes	1.78434720000041	0	536593	253
1049.806640625	0	health	response	3	129	9	foodImage.117	FOODEEG_Images\0925.jpg	NY	Right	Yes	1.78434720000041	0	537502	235
1050.849609375	1	decision	trialStart	3	130	10	foodImage.93	FOODEEG_Images\0901.jpg	YN	Right	No	1.06381510000028	0	538036	251
1051.88671875	2	decision	foodImageDisplay	3	130	10	foodImage.93	FOODEEG_Images\0901.jpg	YN	Right	No	1.06381510000028	0	538567	252
1053.951171875	1.06381510000028	decision	choicePhaseStart	3	130	10	foodImage.93	FOODEEG_Images\0901.jpg	YN	Right	No	1.06381510000028	0	539624	253
1055.005859375	0	decision	response	3	130	10	foodImage.93	FOODEEG_Images\0901.jpg	YN	Right	No	1.06381510000028	0	540164	235
1056.048828125	1	health	trialStart	3	131	11	foodImage.36	FOODEEG_Images\0352.jpg	YN	Left	Yes	1.15590220000013	0	540698	251
1057.107421875	2	health	foodImageDisplay	3	131	11	foodImage.36	FOODEEG_Images\0352.jpg	YN	Left	Yes	1.15590220000013	0	541240	252
1059.169921875	1.15590220000013	health	choicePhaseStart	3	131	11	foodImage.36	FOODEEG_Images\0352.jpg	YN	Left	Yes	1.15590220000013	0	542296	253
1060.318359375	0	health	response	3	131	11	foodImage.36	FOODEEG_Images\0352.jpg	YN	Left	Yes	1.15590220000013	0	542884	234
1061.361328125	1	health	trialStart	3	132	12	foodImage.59	FOODEEG_Images\0607.jpg	NY	Left	No	2.00418480000008	0	543418	251
1062.41015625	2	health	foodImageDisplay	3	132	12	foodImage.59	FOODEEG_Images\0607.jpg	NY	Left	No	2.00418480000008	0	543955	252
1064.474609375	2.00418480000008	health	choicePhaseStart	3	132	12	foodImage.59	FOODEEG_Images\0607.jpg	NY	Left	No	2.00418480000008	0	545012	253
1066.46875	0	health	response	3	132	12	foodImage.59	FOODEEG_Images\0607.jpg	NY	Left	No	2.00418480000008	0	546033	234
1067.51171875	1	taste	trialStart	3	133	13	foodImage.56	FOODEEG_Images\0586.jpg	NY	Right	Yes	1.05398719999994	0	546567	251
1068.5546875	2	taste	foodImageDisplay	3	133	13	foodImage.56	FOODEEG_Images\0586.jpg	NY	Right	Yes	1.05398719999994	0	547101	252
1070.6171875	1.05398719999994	taste	choicePhaseStart	3	133	13	foodImage.56	FOODEEG_Images\0586.jpg	NY	Right	Yes	1.05398719999994	0	548157	253
1071.662109375	0	taste	response	3	133	13	foodImage.56	FOODEEG_Images\0586.jpg	NY	Right	Yes	1.05398719999994	0	548692	235
1072.705078125	1	taste	trialStart	3	134	14	foodImage.36	FOODEEG_Images\0352.jpg	NY	Right	Yes	2.35627349999959	0	549226	251
1073.783203125	2	taste	foodImageDisplay	3	134	14	foodImage.36	FOODEEG_Images\0352.jpg	NY	Right	Yes	2.35627349999959	0	549778	252
1075.84765625	2.35627349999959	taste	choicePhaseStart	3	134	14	foodImage.36	FOODEEG_Images\0352.jpg	NY	Right	Yes	2.35627349999959	0	550835	253
1078.197265625	0	taste	response	3	134	14	foodImage.36	FOODEEG_Images\0352.jpg	NY	Right	Yes	2.35627349999959	0	552038	235
1079.240234375	1	decision	trialStart	3	135	15	foodImage.120	FOODEEG_Images\0928.jpg	NY	Left	No	1.2412118000002	0	552572	251
1080.29296875	2	decision	foodImageDisplay	3	135	15	foodImage.120	FOODEEG_Images\0928.jpg	NY	Left	No	1.2412118000002	0	553111	252
1082.357421875	1.2412118000002	decision	choicePhaseStart	3	135	15	foodImage.120	FOODEEG_Images\0928.jpg	NY	Left	No	1.2412118000002	0	554168	253
1083.587890625	0	decision	response	3	135	15	foodImage.120	FOODEEG_Images\0928.jpg	NY	Left	No	1.2412118000002	0	554798	234
1084.6328125	1	decision	trialStart	3	136	16	foodImage.109	FOODEEG_Images\0917.jpg	YN	Left	Yes	0.768563300000096	0	555333	251
1085.685546875	2	decision	foodImageDisplay	3	136	16	foodImage.109	FOODEEG_Images\0917.jpg	YN	Left	Yes	0.768563300000096	0	555872	252
1087.75	0.768563300000096	decision	choicePhaseStart	3	136	16	foodImage.109	FOODEEG_Images\0917.jpg	YN	Left	Yes	0.768563300000096	0	556929	253
1088.5078125	0	decision	response	3	136	16	foodImage.109	FOODEEG_Images\0917.jpg	YN	Left	Yes	0.768563300000096	0	557317	234
1089.55078125	1	taste	trialStart	3	137	17	foodImage.108	FOODEEG_Images\0916.jpg	YN	Right	No	0.861646700000165	0	557851	251
1090.591796875	2	taste	foodImageDisplay	3	137	17	foodImage.108	FOODEEG_Images\0916.jpg	YN	Right	No	0.861646700000165	0	558384	252
1092.65625	0.861646700000165	taste	choicePhaseStart	3	137	17	foodImage.108	FOODEEG_Images\0916.jpg	YN	Right	No	0.861646700000165	0	559441	253
1093.5078125	0	taste	response	3	137	17	foodImage.108	FOODEEG_Images\0916.jpg	YN	Right	No	0.861646700000165	0	559877	235
1094.55078125	1	health	trialStart	3	138	18	foodImage.97	FOODEEG_Images\0905.jpg	NY	Right	Yes	2.46351409999988	0	560411	251
1095.58984375	2	health	foodImageDisplay	3	138	18	foodImage.97	FOODEEG_Images\0905.jpg	NY	Right	Yes	2.46351409999988	0	560943	252
1097.654296875	2.46351409999988	health	choicePhaseStart	3	138	18	foodImage.97	FOODEEG_Images\0905.jpg	NY	Right	Yes	2.46351409999988	0	562000	253
1100.107421875	0	health	response	3	138	18	foodImage.97	FOODEEG_Images\0905.jpg	NY	Right	Yes	2.46351409999988	0	563256	235
1101.15234375	1	decision	trialStart	3	139	19	foodImage.102	FOODEEG_Images\0910.jpg	YN	Left	Yes	1.90374979999979	0	563791	251
1102.189453125	2	decision	foodImageDisplay	3	139	19	foodImage.102	FOODEEG_Images\0910.jpg	YN	Left	Yes	1.90374979999979	0	564322	252
1104.25390625	1.90374979999979	decision	choicePhaseStart	3	139	19	foodImage.102	FOODEEG_Images\0910.jpg	YN	Left	Yes	1.90374979999979	0	565379	253
1106.1484375	0	decision	response	3	139	19	foodImage.102	FOODEEG_Images\0910.jpg	YN	Left	Yes	1.90374979999979	0	566349	234
1107.193359375	1	decision	trialStart	3	140	20	foodImage.9	FOODEEG_Images\0138.jpg	YN	Left	Yes	0.850751899999523	0	566884	251
1108.251953125	2	decision	foodImageDisplay	3	140	20	foodImage.9	FOODEEG_Images\0138.jpg	YN	Left	Yes	0.850751899999523	0	567426	252
1110.3203125	0.850751899999523	decision	choicePhaseStart	3	140	20	foodImage.9	FOODEEG_Images\0138.jpg	YN	Left	Yes	0.850751899999523	0	568485	253
1111.1640625	0	decision	response	3	140	20	foodImage.9	FOODEEG_Images\0138.jpg	YN	Left	Yes	0.850751899999523	0	568917	234
1112.205078125	1	decision	trialStart	3	141	21	foodImage.116	FOODEEG_Images\0924.jpg	YN	Right	No	1.69476009999926	0	569450	251
1113.24609375	2	decision	foodImageDisplay	3	141	21	foodImage.116	FOODEEG_Images\0924.jpg	YN	Right	No	1.69476009999926	0	569983	252
1115.310546875	1.69476009999926	decision	choicePhaseStart	3	141	21	foodImage.116	FOODEEG_Images\0924.jpg	YN	Right	No	1.69476009999926	0	571040	253
1116.99609375	0	decision	response	3	141	21	foodImage.116	FOODEEG_Images\0924.jpg	YN	Right	No	1.69476009999926	0	571903	235
1118.0390625	1	decision	trialStart	3	142	22	foodImage.50	FOODEEG_Images\0529.jpg	YN	Left	Yes	1.18786159999945	0	572437	251
1119.12109375	2	decision	foodImageDisplay	3	142	22	foodImage.50	FOODEEG_Images\0529.jpg	YN	Left	Yes	1.18786159999945	0	572991	252
1121.185546875	1.18786159999945	decision	choicePhaseStart	3	142	22	foodImage.50	FOODEEG_Images\0529.jpg	YN	Left	Yes	1.18786159999945	0	574048	253
1122.36328125	0	decision	response	3	142	22	foodImage.50	FOODEEG_Images\0529.jpg	YN	Left	Yes	1.18786159999945	0	574651	234
1123.41015625	1	decision	trialStart	3	143	23	foodImage.39	FOODEEG_Images\0367.jpg	NY	Right	Yes	1.95465860000058	0	575187	251
1124.44921875	2	decision	foodImageDisplay	3	143	23	foodImage.39	FOODEEG_Images\0367.jpg	NY	Right	Yes	1.95465860000058	0	575719	252
1126.513671875	1.95465860000058	decision	choicePhaseStart	3	143	23	foodImage.39	FOODEEG_Images\0367.jpg	NY	Right	Yes	1.95465860000058	0	576776	253
1128.458984375	0	decision	response	3	143	23	foodImage.39	FOODEEG_Images\0367.jpg	NY	Right	Yes	1.95465860000058	0	577772	235
1129.50390625	1	taste	trialStart	3	144	24	foodImage.41	FOODEEG_Images\0409.jpg	NY	Right	Yes	1.74230720000014	0	578307	251
1130.552734375	2	taste	foodImageDisplay	3	144	24	foodImage.41	FOODEEG_Images\0409.jpg	NY	Right	Yes	1.74230720000014	0	578844	252
1132.619140625	1.74230720000014	taste	choicePhaseStart	3	144	24	foodImage.41	FOODEEG_Images\0409.jpg	NY	Right	Yes	1.74230720000014	0	579902	253
1134.35546875	0	taste	response	3	144	24	foodImage.41	FOODEEG_Images\0409.jpg	NY	Right	Yes	1.74230720000014	0	580791	235
1135.3984375	1	health	trialStart	3	145	25	foodImage.5	FOODEEG_Images\0107.jpg	YN	Right	No	0.819742200000292	0	581325	251
1136.45703125	2	health	foodImageDisplay	3	145	25	foodImage.5	FOODEEG_Images\0107.jpg	YN	Right	No	0.819742200000292	0	581867	252
1138.51953125	0.819742200000292	health	choicePhaseStart	3	145	25	foodImage.5	FOODEEG_Images\0107.jpg	YN	Right	No	0.819742200000292	0	582923	253
1139.330078125	0	health	response	3	145	25	foodImage.5	FOODEEG_Images\0107.jpg	YN	Right	No	0.819742200000292	0	583338	235
1140.373046875	1	decision	trialStart	3	146	26	foodImage.32	FOODEEG_Images\0319.jpg	NY	Right	Yes	1.36811229999967	0	583872	251
1141.435546875	2	decision	foodImageDisplay	3	146	26	foodImage.32	FOODEEG_Images\0319.jpg	NY	Right	Yes	1.36811229999967	0	584416	252
1143.5	1.36811229999967	decision	choicePhaseStart	3	146	26	foodImage.32	FOODEEG_Images\0319.jpg	NY	Right	Yes	1.36811229999967	0	585473	253
1144.859375	0	decision	response	3	146	26	foodImage.32	FOODEEG_Images\0319.jpg	NY	Right	Yes	1.36811229999967	0	586169	235
1145.90234375	1	decision	trialStart	3	147	27	foodImage.105	FOODEEG_Images\0913.jpg	NY	Right	Yes	1.75052989999949	0	586703	251
1146.94140625	2	decision	foodImageDisplay	3	147	27	foodImage.105	FOODEEG_Images\0913.jpg	NY	Right	Yes	1.75052989999949	0	587235	252
1149.00390625	1.75052989999949	decision	choicePhaseStart	3	147	27	foodImage.105	FOODEEG_Images\0913.jpg	NY	Right	Yes	1.75052989999949	0	588291	253
1150.74609375	0	decision	response	3	147	27	foodImage.105	FOODEEG_Images\0913.jpg	NY	Right	Yes	1.75052989999949	0	589183	235
1151.791015625	1	taste	trialStart	3	148	28	foodImage.19	FOODEEG_Images\0225.jpg	YN	Left	Yes	0.930785999999898	0	589718	251
1152.849609375	2	taste	foodImageDisplay	3	148	28	foodImage.19	FOODEEG_Images\0225.jpg	YN	Left	Yes	0.930785999999898	0	590260	252
1154.9140625	0.930785999999898	taste	choicePhaseStart	3	148	28	foodImage.19	FOODEEG_Images\0225.jpg	YN	Left	Yes	0.930785999999898	0	591317	253
1155.833984375	0	taste	response	3	148	28	foodImage.19	FOODEEG_Images\0225.jpg	YN	Left	Yes	0.930785999999898	0	591788	234
1156.876953125	1	decision	trialStart	3	149	29	foodImage.94	FOODEEG_Images\0902.jpg	NY	Left	No	0.952849700000115	0	592322	251
1157.9140625	2	decision	foodImageDisplay	3	149	29	foodImage.94	FOODEEG_Images\0902.jpg	NY	Left	No	0.952849700000115	0	592853	252
1159.978515625	0.952849700000115	decision	choicePhaseStart	3	149	29	foodImage.94	FOODEEG_Images\0902.jpg	NY	Left	No	0.952849700000115	0	593910	253
1160.921875	0	decision	response	3	149	29	foodImage.94	FOODEEG_Images\0902.jpg	NY	Left	No	0.952849700000115	0	594393	234
1161.96484375	1	decision	trialStart	3	150	30	foodImage.64	FOODEEG_Images\0647.jpg	YN	Left	Yes	1.49677489999976	0	594927	251
1163.025390625	2	decision	foodImageDisplay	3	150	30	foodImage.64	FOODEEG_Images\0647.jpg	YN	Left	Yes	1.49677489999976	0	595470	252
1165.08984375	1.49677489999976	decision	choicePhaseStart	3	150	30	foodImage.64	FOODEEG_Images\0647.jpg	YN	Left	Yes	1.49677489999976	0	596527	253
1166.578125	0	decision	response	3	150	30	foodImage.64	FOODEEG_Images\0647.jpg	YN	Left	Yes	1.49677489999976	0	597289	234
1167.62109375	1	decision	trialStart	3	151	31	foodImage.57	FOODEEG_Images\0587.jpg	NY	Right	Yes	0.762802199999896	0	597823	251
1168.6640625	2	decision	foodImageDisplay	3	151	31	foodImage.57	FOODEEG_Images\0587.jpg	NY	Right	Yes	0.762802199999896	0	598357	252
1170.728515625	0.762802199999896	decision	choicePhaseStart	3	151	31	foodImage.57	FOODEEG_Images\0587.jpg	NY	Right	Yes	0.762802199999896	0	599414	253
1171.48046875	0	decision	response	3	151	31	foodImage.57	FOODEEG_Images\0587.jpg	NY	Right	Yes	0.762802199999896	0	599799	235
1172.5234375	1	decision	trialStart	3	152	32	foodImage.37	FOODEEG_Images\0359.jpg	YN	Left	Yes	3.89589669999987	0	600333	251
1173.5625	2	decision	foodImageDisplay	3	152	32	foodImage.37	FOODEEG_Images\0359.jpg	YN	Left	Yes	3.89589669999987	0	600865	252
1175.626953125	3.89589669999987	decision	choicePhaseStart	3	152	32	foodImage.37	FOODEEG_Images\0359.jpg	YN	Left	Yes	3.89589669999987	0	601922	253
1179.513671875	0	decision	response	3	152	32	foodImage.37	FOODEEG_Images\0359.jpg	YN	Left	Yes	3.89589669999987	0	603912	234
1180.556640625	1	decision	trialStart	3	153	33	foodImage.63	FOODEEG_Images\0645.jpg	NY	Left	No	1.16751480000039	0	604446	251
1181.599609375	2	decision	foodImageDisplay	3	153	33	foodImage.63	FOODEEG_Images\0645.jpg	NY	Left	No	1.16751480000039	0	604980	252
1183.6640625	1.16751480000039	decision	choicePhaseStart	3	153	33	foodImage.63	FOODEEG_Images\0645.jpg	NY	Left	No	1.16751480000039	0	606037	253
1184.82421875	0	decision	response	3	153	33	foodImage.63	FOODEEG_Images\0645.jpg	NY	Left	No	1.16751480000039	0	606631	234
1185.8671875	1	decision	trialStart	3	154	34	foodImage.91	FOODEEG_Images\0896.jpg	YN	Left	Yes	1.02785679999943	0	607165	251
1186.92578125	2	decision	foodImageDisplay	3	154	34	foodImage.91	FOODEEG_Images\0896.jpg	YN	Left	Yes	1.02785679999943	0	607707	252
1188.990234375	1.02785679999943	decision	choicePhaseStart	3	154	34	foodImage.91	FOODEEG_Images\0896.jpg	YN	Left	Yes	1.02785679999943	0	608764	253
1190.0078125	0	decision	response	3	154	34	foodImage.91	FOODEEG_Images\0896.jpg	YN	Left	Yes	1.02785679999943	0	609285	234
1191.05078125	1	decision	trialStart	3	155	35	foodImage.87	FOODEEG_Images\0873.jpg	NY	Left	No	2.46719189999931	0	609819	251
1192.111328125	2	decision	foodImageDisplay	3	155	35	foodImage.87	FOODEEG_Images\0873.jpg	NY	Left	No	2.46719189999931	0	610362	252
1194.17578125	2.46719189999931	decision	choicePhaseStart	3	155	35	foodImage.87	FOODEEG_Images\0873.jpg	NY	Left	No	2.46719189999931	0	611419	253
1196.6328125	0	decision	response	3	155	35	foodImage.87	FOODEEG_Images\0873.jpg	NY	Left	No	2.46719189999931	0	612677	234
1197.67578125	1	taste	trialStart	3	156	36	foodImage.35	FOODEEG_Images\0350.jpg	YN	Left	Yes	0.940896300000531	0	613211	251
1198.712890625	2	taste	foodImageDisplay	3	156	36	foodImage.35	FOODEEG_Images\0350.jpg	YN	Left	Yes	0.940896300000531	0	613742	252
1200.77734375	0.940896300000531	taste	choicePhaseStart	3	156	36	foodImage.35	FOODEEG_Images\0350.jpg	YN	Left	Yes	0.940896300000531	0	614799	253
1201.712890625	0	taste	response	3	156	36	foodImage.35	FOODEEG_Images\0350.jpg	YN	Left	Yes	0.940896300000531	0	615278	234
1202.755859375	1	taste	trialStart	3	157	37	foodImage.8	FOODEEG_Images\0136.jpg	NY	Right	Yes	1.05390700000044	0	615812	251
1203.8046875	2	taste	foodImageDisplay	3	157	37	foodImage.8	FOODEEG_Images\0136.jpg	NY	Right	Yes	1.05390700000044	0	616349	252
1205.8671875	1.05390700000044	taste	choicePhaseStart	3	157	37	foodImage.8	FOODEEG_Images\0136.jpg	NY	Right	Yes	1.05390700000044	0	617405	253
1206.912109375	0	taste	response	3	157	37	foodImage.8	FOODEEG_Images\0136.jpg	NY	Right	Yes	1.05390700000044	0	617940	235
1207.955078125	1	health	trialStart	3	158	38	foodImage.23	FOODEEG_Images\0244.jpg	NY	Right	Yes	1.42901989999973	0	618474	251
1208.99609375	2	health	foodImageDisplay	3	158	38	foodImage.23	FOODEEG_Images\0244.jpg	NY	Right	Yes	1.42901989999973	0	619007	252
1211.05859375	1.42901989999973	health	choicePhaseStart	3	158	38	foodImage.23	FOODEEG_Images\0244.jpg	NY	Right	Yes	1.42901989999973	0	620063	253
1212.48046875	0	health	response	3	158	38	foodImage.23	FOODEEG_Images\0244.jpg	NY	Right	Yes	1.42901989999973	0	620791	235
1213.5234375	1	decision	trialStart	3	159	39	foodImage.90	FOODEEG_Images\0890.jpg	YN	Left	Yes	0.855506300000343	0	621325	251
1214.580078125	2	decision	foodImageDisplay	3	159	39	foodImage.90	FOODEEG_Images\0890.jpg	YN	Left	Yes	0.855506300000343	0	621866	252
1216.646484375	0.855506300000343	decision	choicePhaseStart	3	159	39	foodImage.90	FOODEEG_Images\0890.jpg	YN	Left	Yes	0.855506300000343	0	622924	253
1217.49609375	0	decision	response	3	159	39	foodImage.90	FOODEEG_Images\0890.jpg	YN	Left	Yes	0.855506300000343	0	623359	234
1218.537109375	1	taste	trialStart	3	160	40	foodImage.104	FOODEEG_Images\0912.jpg	YN	Right	No	0.819557499999974	0	623892	251
1219.578125	2	taste	foodImageDisplay	3	160	40	foodImage.104	FOODEEG_Images\0912.jpg	YN	Right	No	0.819557499999974	0	624425	252
1221.642578125	0.819557499999974	taste	choicePhaseStart	3	160	40	foodImage.104	FOODEEG_Images\0912.jpg	YN	Right	No	0.819557499999974	0	625482	253
1222.455078125	0	taste	response	3	160	40	foodImage.104	FOODEEG_Images\0912.jpg	YN	Right	No	0.819557499999974	0	625898	235
1223.498046875	1	taste	trialStart	3	161	41	foodImage.63	FOODEEG_Images\0645.jpg	NY	Right	Yes	0.790933000000223	0	626432	251
1224.560546875	2	taste	foodImageDisplay	3	161	41	foodImage.63	FOODEEG_Images\0645.jpg	NY	Right	Yes	0.790933000000223	0	626976	252
1226.625	0.790933000000223	taste	choicePhaseStart	3	161	41	foodImage.63	FOODEEG_Images\0645.jpg	NY	Right	Yes	0.790933000000223	0	628033	253
1227.408203125	0	taste	response	3	161	41	foodImage.63	FOODEEG_Images\0645.jpg	NY	Right	Yes	0.790933000000223	0	628434	235
1228.451171875	1	decision	trialStart	3	162	42	foodImage.21	FOODEEG_Images\0234.jpg	NY	Right	Yes	0.961395499999526	0	628968	251
1229.5078125	2	decision	foodImageDisplay	3	162	42	foodImage.21	FOODEEG_Images\0234.jpg	NY	Right	Yes	0.961395499999526	0	629509	252
1231.572265625	0.961395499999526	decision	choicePhaseStart	3	162	42	foodImage.21	FOODEEG_Images\0234.jpg	NY	Right	Yes	0.961395499999526	0	630566	253
1232.52734375	0	decision	response	3	162	42	foodImage.21	FOODEEG_Images\0234.jpg	NY	Right	Yes	0.961395499999526	0	631055	235
1233.5703125	1	taste	trialStart	3	163	43	foodImage.62	FOODEEG_Images\0644.jpg	NY	Right	Yes	1.61855710000054	0	631589	251
1234.65234375	2	taste	foodImageDisplay	3	163	43	foodImage.62	FOODEEG_Images\0644.jpg	NY	Right	Yes	1.61855710000054	0	632143	252
1236.716796875	1.61855710000054	taste	choicePhaseStart	3	163	43	foodImage.62	FOODEEG_Images\0644.jpg	NY	Right	Yes	1.61855710000054	0	633200	253
1238.326171875	0	taste	response	3	163	43	foodImage.62	FOODEEG_Images\0644.jpg	NY	Right	Yes	1.61855710000054	0	634024	235
1239.369140625	1	decision	trialStart	3	164	44	foodImage.84	FOODEEG_Images\0830.jpg	YN	Left	Yes	1.04096659999959	0	634558	251
1240.431640625	2	decision	foodImageDisplay	3	164	44	foodImage.84	FOODEEG_Images\0830.jpg	YN	Left	Yes	1.04096659999959	0	635102	252
1242.494140625	1.04096659999959	decision	choicePhaseStart	3	164	44	foodImage.84	FOODEEG_Images\0830.jpg	YN	Left	Yes	1.04096659999959	0	636158	253
1243.52734375	0	decision	response	3	164	44	foodImage.84	FOODEEG_Images\0830.jpg	YN	Left	Yes	1.04096659999959	0	636687	234
1244.5703125	1	decision	trialStart	3	165	45	foodImage.3	FOODEEG_Images\0046.jpg	YN	Left	Yes	2.06212250000044	0	637221	251
1245.6328125	2	decision	foodImageDisplay	3	165	45	foodImage.3	FOODEEG_Images\0046.jpg	YN	Left	Yes	2.06212250000044	0	637765	252
1247.697265625	2.06212250000044	decision	choicePhaseStart	3	165	45	foodImage.3	FOODEEG_Images\0046.jpg	YN	Left	Yes	2.06212250000044	0	638822	253
1249.75	0	decision	response	3	165	45	foodImage.3	FOODEEG_Images\0046.jpg	YN	Left	Yes	2.06212250000044	0	639873	234
1250.791015625	1	decision	trialStart	3	166	46	foodImage.76	FOODEEG_Images\0766.jpg	NY	Right	Yes	0.962727999999515	0	640406	251
1251.8359375	2	decision	foodImageDisplay	3	166	46	foodImage.76	FOODEEG_Images\0766.jpg	NY	Right	Yes	0.962727999999515	0	640941	252
1253.900390625	0.962727999999515	decision	choicePhaseStart	3	166	46	foodImage.76	FOODEEG_Images\0766.jpg	NY	Right	Yes	0.962727999999515	0	641998	253
1254.853515625	0	decision	response	3	166	46	foodImage.76	FOODEEG_Images\0766.jpg	NY	Right	Yes	0.962727999999515	0	642486	235
1255.896484375	1	decision	trialStart	3	167	47	foodImage.69	FOODEEG_Images\0693.jpg	NY	Right	Yes	1.50758500000029	0	643020	251
1256.939453125	2	decision	foodImageDisplay	3	167	47	foodImage.69	FOODEEG_Images\0693.jpg	NY	Right	Yes	1.50758500000029	0	643554	252
1259.00390625	1.50758500000029	decision	choicePhaseStart	3	167	47	foodImage.69	FOODEEG_Images\0693.jpg	NY	Right	Yes	1.50758500000029	0	644611	253
1260.501953125	0	decision	response	3	167	47	foodImage.69	FOODEEG_Images\0693.jpg	NY	Right	Yes	1.50758500000029	0	645378	235
1261.54296875	1	taste	trialStart	3	168	48	foodImage.29	FOODEEG_Images\0278.jpg	NY	Left	No	1.83751460000076	0	645911	251
1262.5859375	2	taste	foodImageDisplay	3	168	48	foodImage.29	FOODEEG_Images\0278.jpg	NY	Left	No	1.83751460000076	0	646445	252
1264.6484375	1.83751460000076	taste	choicePhaseStart	3	168	48	foodImage.29	FOODEEG_Images\0278.jpg	NY	Left	No	1.83751460000076	0	647501	253
1266.4765625	0	taste	response	3	168	48	foodImage.29	FOODEEG_Images\0278.jpg	NY	Left	No	1.83751460000076	0	648437	234
1267.5234375	1	taste	trialStart	3	169	49	foodImage.83	FOODEEG_Images\0827.jpg	NY	Right	Yes	1.75835879999977	0	648973	251
1268.58203125	2	taste	foodImageDisplay	3	169	49	foodImage.83	FOODEEG_Images\0827.jpg	NY	Right	Yes	1.75835879999977	0	649515	252
1270.646484375	1.75835879999977	taste	choicePhaseStart	3	169	49	foodImage.83	FOODEEG_Images\0827.jpg	NY	Right	Yes	1.75835879999977	0	650572	253
1272.396484375	0	taste	response	3	169	49	foodImage.83	FOODEEG_Images\0827.jpg	NY	Right	Yes	1.75835879999977	0	651468	235
1273.4453125	1	health	trialStart	3	170	50	foodImage.107	FOODEEG_Images\0915.jpg	NY	Right	Yes	1.26378039999963	0	652005	251
1274.486328125	2	health	foodImageDisplay	3	170	50	foodImage.107	FOODEEG_Images\0915.jpg	NY	Right	Yes	1.26378039999963	0	652538	252
1276.55078125	1.26378039999963	health	choicePhaseStart	3	170	50	foodImage.107	FOODEEG_Images\0915.jpg	NY	Right	Yes	1.26378039999963	0	653595	253
1277.8046875	0	health	response	3	170	50	foodImage.107	FOODEEG_Images\0915.jpg	NY	Right	Yes	1.26378039999963	0	654237	235
1278.84765625	1	health	trialStart	3	171	51	foodImage.10	FOODEEG_Images\0145.jpg	YN	Left	Yes	0.770626599999559	0	654771	251
1279.90625	2	health	foodImageDisplay	3	171	51	foodImage.10	FOODEEG_Images\0145.jpg	YN	Left	Yes	0.770626599999559	0	655313	252
1281.970703125	0.770626599999559	health	choicePhaseStart	3	171	51	foodImage.10	FOODEEG_Images\0145.jpg	YN	Left	Yes	0.770626599999559	0	656370	253
1282.732421875	0	health	response	3	171	51	foodImage.10	FOODEEG_Images\0145.jpg	YN	Left	Yes	0.770626599999559	0	656760	234
1283.77734375	1	health	trialStart	3	172	52	foodImage.29	FOODEEG_Images\0278.jpg	NY	Right	Yes	1.01072119999935	0	657295	251
1284.818359375	2	health	foodImageDisplay	3	172	52	foodImage.29	FOODEEG_Images\0278.jpg	NY	Right	Yes	1.01072119999935	0	657828	252
1286.8828125	1.01072119999935	health	choicePhaseStart	3	172	52	foodImage.29	FOODEEG_Images\0278.jpg	NY	Right	Yes	1.01072119999935	0	658885	253
1287.884765625	0	health	response	3	172	52	foodImage.29	FOODEEG_Images\0278.jpg	NY	Right	Yes	1.01072119999935	0	659398	235
1288.931640625	1	taste	trialStart	3	173	53	foodImage.40	FOODEEG_Images\0373.jpg	YN	Left	Yes	1.83691050000016	0	659934	251
1289.974609375	2	taste	foodImageDisplay	3	173	53	foodImage.40	FOODEEG_Images\0373.jpg	YN	Left	Yes	1.83691050000016	0	660468	252
1292.041015625	1.83691050000016	taste	choicePhaseStart	3	173	53	foodImage.40	FOODEEG_Images\0373.jpg	YN	Left	Yes	1.83691050000016	0	661526	253
1293.869140625	0	taste	response	3	173	53	foodImage.40	FOODEEG_Images\0373.jpg	YN	Left	Yes	1.83691050000016	0	662462	234
1294.91015625	1	health	trialStart	3	174	54	foodImage.12	FOODEEG_Images\0181.jpg	NY	Right	Yes	2.73326470000029	0	662995	251
1295.953125	2	health	foodImageDisplay	3	174	54	foodImage.12	FOODEEG_Images\0181.jpg	NY	Right	Yes	2.73326470000029	0	663529	252
1298.015625	2.73326470000029	health	choicePhaseStart	3	174	54	foodImage.12	FOODEEG_Images\0181.jpg	NY	Right	Yes	2.73326470000029	0	664585	253
1300.740234375	0	health	response	3	174	54	foodImage.12	FOODEEG_Images\0181.jpg	NY	Right	Yes	2.73326470000029	0	665980	235
1301.783203125	1	taste	trialStart	3	175	55	foodImage.59	FOODEEG_Images\0607.jpg	NY	Right	Yes	1.12952359999963	0	666514	251
1302.828125	2	taste	foodImageDisplay	3	175	55	foodImage.59	FOODEEG_Images\0607.jpg	NY	Right	Yes	1.12952359999963	0	667049	252
1304.892578125	1.12952359999963	taste	choicePhaseStart	3	175	55	foodImage.59	FOODEEG_Images\0607.jpg	NY	Right	Yes	1.12952359999963	0	668106	253
1306.01171875	0	taste	response	3	175	55	foodImage.59	FOODEEG_Images\0607.jpg	NY	Right	Yes	1.12952359999963	0	668679	235
1307.056640625	1	health	trialStart	3	176	56	foodImage.74	FOODEEG_Images\0752.jpg	YN	Left	Yes	0.814919399999781	0	669214	251
1308.1015625	2	health	foodImageDisplay	3	176	56	foodImage.74	FOODEEG_Images\0752.jpg	YN	Left	Yes	0.814919399999781	0	669749	252
1310.166015625	0.814919399999781	health	choicePhaseStart	3	176	56	foodImage.74	FOODEEG_Images\0752.jpg	YN	Left	Yes	0.814919399999781	0	670806	253
1310.970703125	0	health	response	3	176	56	foodImage.74	FOODEEG_Images\0752.jpg	YN	Left	Yes	0.814919399999781	0	671218	234
1312.017578125	1	taste	trialStart	3	177	57	foodImage.49	FOODEEG_Images\0515.jpg	YN	Left	Yes	0.908762600000045	0	671754	251
1313.060546875	2	taste	foodImageDisplay	3	177	57	foodImage.49	FOODEEG_Images\0515.jpg	YN	Left	Yes	0.908762600000045	0	672288	252
1315.12890625	0.908762600000045	taste	choicePhaseStart	3	177	57	foodImage.49	FOODEEG_Images\0515.jpg	YN	Left	Yes	0.908762600000045	0	673347	253
1316.02734375	0	taste	response	3	177	57	foodImage.49	FOODEEG_Images\0515.jpg	YN	Left	Yes	0.908762600000045	0	673807	234
1317.0703125	1	taste	trialStart	3	178	58	foodImage.23	FOODEEG_Images\0244.jpg	YN	Right	No	0.977477800000088	0	674341	251
1318.111328125	2	taste	foodImageDisplay	3	178	58	foodImage.23	FOODEEG_Images\0244.jpg	YN	Right	No	0.977477800000088	0	674874	252
1320.1796875	0.977477800000088	taste	choicePhaseStart	3	178	58	foodImage.23	FOODEEG_Images\0244.jpg	YN	Right	No	0.977477800000088	0	675933	253
1321.1484375	0	taste	response	3	178	58	foodImage.23	FOODEEG_Images\0244.jpg	YN	Right	No	0.977477800000088	0	676429	235
1322.189453125	1	taste	trialStart	3	179	59	foodImage.17	FOODEEG_Images\0199.jpg	NY	Right	Yes	1.19455429999925	0	676962	251
1323.234375	2	taste	foodImageDisplay	3	179	59	foodImage.17	FOODEEG_Images\0199.jpg	NY	Right	Yes	1.19455429999925	0	677497	252
1325.298828125	1.19455429999925	taste	choicePhaseStart	3	179	59	foodImage.17	FOODEEG_Images\0199.jpg	NY	Right	Yes	1.19455429999925	0	678554	253
1326.482421875	0	taste	response	3	179	59	foodImage.17	FOODEEG_Images\0199.jpg	NY	Right	Yes	1.19455429999925	0	679160	235
1327.537109375	1	taste	trialStart	3	180	60	foodImage.79	FOODEEG_Images\0794.jpg	NY	Left	No	2.4326588999993	0	679700	251
1328.580078125	2	taste	foodImageDisplay	3	180	60	foodImage.79	FOODEEG_Images\0794.jpg	NY	Left	No	2.4326588999993	0	680234	252
1330.642578125	2.4326588999993	taste	choicePhaseStart	3	180	60	foodImage.79	FOODEEG_Images\0794.jpg	NY	Left	No	2.4326588999993	0	681290	253
1333.06640625	0	taste	response	3	180	60	foodImage.79	FOODEEG_Images\0794.jpg	NY	Left	No	2.4326588999993	0	682531	234
1335.109375	13.455078125	n/a	blockEnd	n/a	n/a	n/a	n/a	n/a	n/a	n/a	n/a	n/a	n/a	683577	254
1348.564453125	2	n/a	blockStart	4	n/a	n/a	n/a	n/a	n/a	n/a	n/a	n/a	n/a	690466	250
1350.6015625	1	taste	trialStart	4	181	1	foodImage.51	FOODEEG_Images\0536.jpg	NY	Right	Yes	0.690239599999586	0	691509	251
1351.6484375	2	taste	foodImageDisplay	4	181	1	foodImage.51	FOODEEG_Images\0536.jpg	NY	Right	Yes	0.690239599999586	0	692045	252
1353.712890625	0.690239599999586	taste	choicePhaseStart	4	181	1	foodImage.51	FOODEEG_Images\0536.jpg	NY	Right	Yes	0.690239599999586	0	693102	253
1354.39453125	0	taste	response	4	181	1	foodImage.51	FOODEEG_Images\0536.jpg	NY	Right	Yes	0.690239599999586	0	693451	235
1355.4375	1	taste	trialStart	4	182	2	foodImage.106	FOODEEG_Images\0914.jpg	NY	Right	Yes	1.45262440000079	0	693985	251
1356.478515625	2	taste	foodImageDisplay	4	182	2	foodImage.106	FOODEEG_Images\0914.jpg	NY	Right	Yes	1.45262440000079	0	694518	252
1358.54296875	1.45262440000079	taste	choicePhaseStart	4	182	2	foodImage.106	FOODEEG_Images\0914.jpg	NY	Right	Yes	1.45262440000079	0	695575	253
1359.986328125	0	taste	response	4	182	2	foodImage.106	FOODEEG_Images\0914.jpg	NY	Right	Yes	1.45262440000079	0	696314	235
1361.03125	1	health	trialStart	4	183	3	foodImage.91	FOODEEG_Images\0896.jpg	YN	Left	Yes	1.09242160000031	0	696849	251
1362.087890625	2	health	foodImageDisplay	4	183	3	foodImage.91	FOODEEG_Images\0896.jpg	YN	Left	Yes	1.09242160000031	0	697390	252
1364.150390625	1.09242160000031	health	choicePhaseStart	4	183	3	foodImage.91	FOODEEG_Images\0896.jpg	YN	Left	Yes	1.09242160000031	0	698446	253
1365.234375	0	health	response	4	183	3	foodImage.91	FOODEEG_Images\0896.jpg	YN	Left	Yes	1.09242160000031	0	699001	234
1366.27734375	1	taste	trialStart	4	184	4	foodImage.92	FOODEEG_Images\0900.jpg	NY	Right	Yes	0.479904399999214	0	699535	251
1367.314453125	2	taste	foodImageDisplay	4	184	4	foodImage.92	FOODEEG_Images\0900.jpg	NY	Right	Yes	0.479904399999214	0	700066	252
1369.37890625	0.479904399999214	taste	choicePhaseStart	4	184	4	foodImage.92	FOODEEG_Images\0900.jpg	NY	Right	Yes	0.479904399999214	0	701123	253
1369.849609375	0	taste	response	4	184	4	foodImage.92	FOODEEG_Images\0900.jpg	NY	Right	Yes	0.479904399999214	0	701364	235
1370.892578125	1	decision	trialStart	4	185	5	foodImage.73	FOODEEG_Images\0717.jpg	NY	Right	Yes	1.33908240000164	0	701898	251
1371.951171875	2	decision	foodImageDisplay	4	185	5	foodImage.73	FOODEEG_Images\0717.jpg	NY	Right	Yes	1.33908240000164	0	702440	252
1374.013671875	1.33908240000164	decision	choicePhaseStart	4	185	5	foodImage.73	FOODEEG_Images\0717.jpg	NY	Right	Yes	1.33908240000164	0	703496	253
1375.345703125	0	decision	response	4	185	5	foodImage.73	FOODEEG_Images\0717.jpg	NY	Right	Yes	1.33908240000164	0	704178	235
1376.388671875	1	decision	trialStart	4	186	6	foodImage.17	FOODEEG_Images\0199.jpg	YN	Left	Yes	1.6082247000013	0	704712	251
1377.44921875	2	decision	foodImageDisplay	4	186	6	foodImage.17	FOODEEG_Images\0199.jpg	YN	Left	Yes	1.6082247000013	0	705255	252
1379.513671875	1.6082247000013	decision	choicePhaseStart	4	186	6	foodImage.17	FOODEEG_Images\0199.jpg	YN	Left	Yes	1.6082247000013	0	706312	253
1381.11328125	0	decision	response	4	186	6	foodImage.17	FOODEEG_Images\0199.jpg	YN	Left	Yes	1.6082247000013	0	707131	234
1382.154296875	1	taste	trialStart	4	187	7	foodImage.78	FOODEEG_Images\0787.jpg	NY	Right	Yes	1.72406450000017	0	707664	251
1383.19921875	2	taste	foodImageDisplay	4	187	7	foodImage.78	FOODEEG_Images\0787.jpg	NY	Right	Yes	1.72406450000017	0	708199	252
1385.26171875	1.72406450000017	taste	choicePhaseStart	4	187	7	foodImage.78	FOODEEG_Images\0787.jpg	NY	Right	Yes	1.72406450000017	0	709255	253
1386.9765625	0	taste	response	4	187	7	foodImage.78	FOODEEG_Images\0787.jpg	NY	Right	Yes	1.72406450000017	0	710133	235
1388.0234375	1	taste	trialStart	4	188	8	foodImage.100	FOODEEG_Images\0908.jpg	YN	Right	No	0.659206700000141	0	710669	251
1389.0625	2	taste	foodImageDisplay	4	188	8	foodImage.100	FOODEEG_Images\0908.jpg	YN	Right	No	0.659206700000141	0	711201	252
1391.126953125	0.659206700000141	taste	choicePhaseStart	4	188	8	foodImage.100	FOODEEG_Images\0908.jpg	YN	Right	No	0.659206700000141	0	712258	253
1391.775390625	0	taste	response	4	188	8	foodImage.100	FOODEEG_Images\0908.jpg	YN	Right	No	0.659206700000141	0	712590	235
1392.822265625	1	health	trialStart	4	189	9	foodImage.46	FOODEEG_Images\0479.jpg	YN	Left	Yes	0.95947249999881	0	713126	251
1393.87890625	2	health	foodImageDisplay	4	189	9	foodImage.46	FOODEEG_Images\0479.jpg	YN	Left	Yes	0.95947249999881	0	713667	252
1395.943359375	0.95947249999881	health	choicePhaseStart	4	189	9	foodImage.46	FOODEEG_Images\0479.jpg	YN	Left	Yes	0.95947249999881	0	714724	253
1396.896484375	0	health	response	4	189	9	foodImage.46	FOODEEG_Images\0479.jpg	YN	Left	Yes	0.95947249999881	0	715212	234
1397.939453125	1	health	trialStart	4	190	10	foodImage.108	FOODEEG_Images\0916.jpg	YN	Left	Yes	0.921598700000686	0	715746	251
1398.9765625	2	health	foodImageDisplay	4	190	10	foodImage.108	FOODEEG_Images\0916.jpg	YN	Left	Yes	0.921598700000686	0	716277	252
1401.0390625	0.921598700000686	health	choicePhaseStart	4	190	10	foodImage.108	FOODEEG_Images\0916.jpg	YN	Left	Yes	0.921598700000686	0	717333	253
1401.953125	0	health	response	4	190	10	foodImage.108	FOODEEG_Images\0916.jpg	YN	Left	Yes	0.921598700000686	0	717801	234
1402.99609375	1	health	trialStart	4	191	11	foodImage.115	FOODEEG_Images\0923.jpg	NY	Right	Yes	0.95477960000062	0	718335	251
1404.03515625	2	health	foodImageDisplay	4	191	11	foodImage.115	FOODEEG_Images\0923.jpg	NY	Right	Yes	0.95477960000062	0	718867	252
1406.1015625	0.95477960000062	health	choicePhaseStart	4	191	11	foodImage.115	FOODEEG_Images\0923.jpg	NY	Right	Yes	0.95477960000062	0	719925	253
1407.048828125	0	health	response	4	191	11	foodImage.115	FOODEEG_Images\0923.jpg	NY	Right	Yes	0.95477960000062	0	720410	235
1408.08984375	1	decision	trialStart	4	192	12	foodImage.47	FOODEEG_Images\0488.jpg	YN	Left	Yes	0.789374800000587	0	720943	251
1409.130859375	2	decision	foodImageDisplay	4	192	12	foodImage.47	FOODEEG_Images\0488.jpg	YN	Left	Yes	0.789374800000587	0	721476	252
1411.1953125	0.789374800000587	decision	choicePhaseStart	4	192	12	foodImage.47	FOODEEG_Images\0488.jpg	YN	Left	Yes	0.789374800000587	0	722533	253
1411.9765625	0	decision	response	4	192	12	foodImage.47	FOODEEG_Images\0488.jpg	YN	Left	Yes	0.789374800000587	0	722933	234
1413.01953125	1	taste	trialStart	4	193	13	foodImage.90	FOODEEG_Images\0890.jpg	YN	Left	Yes	0.666820099999313	0	723467	251
