onset	duration	trial_type	event_type	block	trial_total	trial_in_block	food_image_code	food_image_path	button_position	resp_position	resp_choice	choice_rt	resp_too_slow	sample	trigger
347.0859375	2	n/a	blockStart	1	n/a	n/a	n/a	n/a	n/a	n/a	n/a	n/a	n/a	177709	250
349.123046875	1	health	trialStart	1	1	1	foodImage.90	FOODEEG_Images\0890.jpg	YN	Right	No	1.04789960000198	0	178752	251
350.18359375	2	health	foodImageDisplay	1	1	1	foodImage.90	FOODEEG_Images\0890.jpg	YN	Right	No	1.04789960000198	0	179295	252
352.248046875	1.04789960000198	health	choicePhaseStart	1	1	1	foodImage.90	FOODEEG_Images\0890.jpg	YN	Right	No	1.04789960000198	0	180352	253
353.2890625	0	health	response	1	1	1	foodImage.90	FOODEEG_Images\0890.jpg	YN	Right	No	1.04789960000198	0	180885	235
354.3984375	1	health	trialStart	1	2	2	foodImage.14	FOODEEG_Images\0188.jpg	NY	Left	No	1.40796599996975	0	181453	251
355.45703125	2	health	foodImageDisplay	1	2	2	foodImage.14	FOODEEG_Images\0188.jpg	NY	Left	No	1.40796599996975	0	181995	252
357.51953125	1.40796599996975	health	choicePhaseStart	1	2	2	foodImage.14	FOODEEG_Images\0188.jpg	NY	Left	No	1.40796599996975	0	183051	253
358.919921875	0	health	response	1	2	2	foodImage.14	FOODEEG_Images\0188.jpg	NY	Left	No	1.40796599996975	0	183768	234
359.97265625	1	health	trialStart	1	3	3	foodImage.15	FOODEEG_Images\0189.jpg	NY	Right	Yes	0.83551120001357	0	184307	251
361.029296875	2	health	foodImageDisplay	1	3	3	foodImage.15	FOODEEG_Images\0189.jpg	NY	Right	Yes	0.83551120001357	0	184848	252
363.09375	0.83551120001357	health	choicePhaseStart	1	3	3	foodImage.15	FOODEEG_Images\0189.jpg	NY	Right	Yes	0.83551120001357	0	185905	253
363.919921875	0	health	response	1	3	3	foodImage.15	FOODEEG_Images\0189.jpg	NY	Right	Yes	0.83551120001357	0	186328	235
364.96484375	1	decision	trialStart	1	4	4	foodImage.41	FOODEEG_Images\0409.jpg	NY	Left	No	0.893710100033786	0	186863	251
366.01171875	2	decision	foodImageDisplay	1	4	4	foodImage.41	FOODEEG_Images\0409.jpg	NY	Left	No	0.893710100033786	0	187399	252
368.07421875	0.893710100033786	decision	choicePhaseStart	1	4	4	foodImage.41	FOODEEG_Images\0409.jpg	NY	Left	No	0.893710100033786	0	188455	253
368.958984375	0	decision	response	1	4	4	foodImage.41	FOODEEG_Images\0409.jpg	NY	Left	No	0.893710100033786	0	188908	234
370.001953125	1	health	trialStart	1	5	5	foodImage.83	FOODEEG_Images\0827.jpg	YN	Right	No	0.725702300027478	0	189442	251
371.0625	2	health	foodImageDisplay	1	5	5	foodImage.83	FOODEEG_Images\0827.jpg	YN	Right	No	0.725702300027478	0	189985	252
373.126953125	0.725702300027478	health	choicePhaseStart	1	5	5	foodImage.83	FOODEEG_Images\0827.jpg	YN	Right	No	0.725702300027478	0	191042	253
373.84765625	0	health	response	1	5	5	foodImage.83	FOODEEG_Images\0827.jpg	YN	Right	No	0.725702300027478	0	191411	235
374.896484375	1	taste	trialStart	1	6	6	foodImage.7	FOODEEG_Images\0116.jpg	YN	Left	Yes	1.2692200000165	0	191948	251
375.9375	2	taste	foodImageDisplay	1	6	6	foodImage.7	FOODEEG_Images\0116.jpg	YN	Left	Yes	1.2692200000165	0	192481	252
378.001953125	1.2692200000165	taste	choicePhaseStart	1	6	6	foodImage.7	FOODEEG_Images\0116.jpg	YN	Left	Yes	1.2692200000165	0	193538	253
379.263671875	0	taste	response	1	6	6	foodImage.7	FOODEEG_Images\0116.jpg	YN	Left	Yes	1.2692200000165	0	194184	234
380.3046875	1	taste	trialStart	1	7	7	foodImage.44	FOODEEG_Images\0459.jpg	YN	Left	Yes	1.23993430001428	0	194717	251
381.3515625	2	taste	foodImageDisplay	1	7	7	foodImage.44	FOODEEG_Images\0459.jpg	YN	Left	Yes	1.23993430001428	0	195253	252
383.416015625	1.23993430001428	taste	choicePhaseStart	1	7	7	foodImage.44	FOODEEG_Images\0459.jpg	YN	Left	Yes	1.23993430001428	0	196310	253
384.646484375	0	taste	response	1	7	7	foodImage.44	FOODEEG_Images\0459.jpg	YN	Left	Yes	1.23993430001428	0	196940	234
385.6875	1	health	trialStart	1	8	8	foodImage.102	FOODEEG_Images\0910.jpg	NY	Left	No	1.37669190001907	0	197473	251
386.728515625	2	health	foodImageDisplay	1	8	8	foodImage.102	FOODEEG_Images\0910.jpg	NY	Left	No	1.37669190001907	0	198006	252
388.791015625	1.37669190001907	health	choicePhaseStart	1	8	8	foodImage.102	FOODEEG_Images\0910.jpg	NY	Left	No	1.37669190001907	0	199062	253
390.16015625	0	health	response	1	8	8	foodImage.102	FOODEEG_Images\0910.jpg	NY	Left	No	1.37669190001907	0	199763	234
391.203125	1	taste	trialStart	1	9	9	foodImage.66	FOODEEG_Images\0676.jpg	YN	Right	No	1.71687350003049	0	200297	251
392.248046875	2	taste	foodImageDisplay	1	9	9	foodImage.66	FOODEEG_Images\0676.jpg	YN	Right	No	1.71687350003049	0	200832	252
394.3125	1.71687350003049	taste	choicePhaseStart	1	9	9	foodImage.66	FOODEEG_Images\0676.jpg	YN	Right	No	1.71687350003049	0	201889	253
396.0234375	0	taste	response	1	9	9	foodImage.66	FOODEEG_Images\0676.jpg	YN	Right	No	1.71687350003049	0	202765	235
397.0625	1	decision	trialStart	1	10	10	foodImage.29	FOODEEG_Images\0278.jpg	YN	Right	No	1.05629979999503	0	203297	251
398.10546875	2	decision	foodImageDisplay	1	10	10	foodImage.29	FOODEEG_Images\0278.jpg	YN	Right	No	1.05629979999503	0	203831	252
400.173828125	1.05629979999503	decision	choicePhaseStart	1	10	10	foodImage.29	FOODEEG_Images\0278.jpg	YN	Right	No	1.05629979999503	0	204890	253
401.22265625	0	decision	response	1	10	10	foodImage.29	FOODEEG_Images\0278.jpg	YN	Right	No	1.05629979999503	0	205427	235
402.263671875	1	taste	trialStart	1	11	11	foodImage.120	FOODEEG_Images\0928.jpg	YN	Right	No	0.705310799996369	0	205960	251
403.302734375	2	taste	foodImageDisplay	1	11	11	foodImage.120	FOODEEG_Images\0928.jpg	YN	Right	No	0.705310799996369	0	206492	252
405.365234375	0.705310799996369	taste	choicePhaseStart	1	11	11	foodImage.120	FOODEEG_Images\0928.jpg	YN	Right	No	0.705310799996369	0	207548	253
406.0625	0	taste	response	1	11	11	foodImage.120	FOODEEG_Images\0928.jpg	YN	Right	No	0.705310799996369	0	207905	235
407.103515625	1	decision	trialStart	1	12	12	foodImage.88	FOODEEG_Images\0878.jpg	NY	Left	No	1.71150350000244	0	208438	251
408.158203125	2	decision	foodImageDisplay	1	12	12	foodImage.88	FOODEEG_Images\0878.jpg	NY	Left	No	1.71150350000244	0	208978	252
410.22265625	1.71150350000244	decision	choicePhaseStart	1	12	12	foodImage.88	FOODEEG_Images\0878.jpg	NY	Left	No	1.71150350000244	0	210035	253
411.92578125	0	decision	response	1	12	12	foodImage.88	FOODEEG_Images\0878.jpg	NY	Left	No	1.71150350000244	0	210907	234
412.966796875	1	taste	trialStart	1	13	13	foodImage.78	FOODEEG_Images\0787.jpg	NY	Left	No	1.70846039999742	0	211440	251
414.009765625	2	taste	foodImageDisplay	1	13	13	foodImage.78	FOODEEG_Images\0787.jpg	NY	Left	No	1.70846039999742	0	211974	252
416.072265625	1.70846039999742	taste	choicePhaseStart	1	13	13	foodImage.78	FOODEEG_Images\0787.jpg	NY	Left	No	1.70846039999742	0	213030	253
417.7734375	0	taste	response	1	13	13	foodImage.78	FOODEEG_Images\0787.jpg	NY	Left	No	1.70846039999742	0	213901	234
418.8125	1	health	trialStart	1	14	14	foodImage.27	FOODEEG_Images\0263.jpg	YN	Left	Yes	0.959143800020684	0	214433	251
419.85546875	2	health	foodImageDisplay	1	14	14	foodImage.27	FOODEEG_Images\0263.jpg	YN	Left	Yes	0.959143800020684	0	214967	252
421.91796875	0.959143800020684	health	choicePhaseStart	1	14	14	foodImage.27	FOODEEG_Images\0263.jpg	YN	Left	Yes	0.959143800020684	0	216023	253
422.869140625	0	health	response	1	14	14	foodImage.27	FOODEEG_Images\0263.jpg	YN	Left	Yes	0.959143800020684	0	216510	234
423.91015625	1	taste	trialStart	1	15	15	foodImage.22	FOODEEG_Images\0236.jpg	NY	Right	Yes	0.870884300034959	0	217043	251
424.951171875	2	taste	foodImageDisplay	1	15	15	foodImage.22	FOODEEG_Images\0236.jpg	NY	Right	Yes	0.870884300034959	0	217576	252
427.013671875	0.870884300034959	taste	choicePhaseStart	1	15	15	foodImage.22	FOODEEG_Images\0236.jpg	NY	Right	Yes	0.870884300034959	0	218632	253
427.876953125	0	taste	response	1	15	15	foodImage.22	FOODEEG_Images\0236.jpg	NY	Right	Yes	0.870884300034959	0	219074	235
428.92578125	1	taste	trialStart	1	16	16	foodImage.109	FOODEEG_Images\0917.jpg	YN	Right	No	1.31762089999393	0	219611	251
429.974609375	2	taste	foodImageDisplay	1	16	16	foodImage.109	FOODEEG_Images\0917.jpg	YN	Right	No	1.31762089999393	0	220148	252
432.0390625	1.31762089999393	taste	choicePhaseStart	1	16	16	foodImage.109	FOODEEG_Images\0917.jpg	YN	Right	No	1.31762089999393	0	221205	253
433.349609375	0	taste	response	1	16	16	foodImage.109	FOODEEG_Images\0917.jpg	YN	Right	No	1.31762089999393	0	221876	235
434.390625	1	taste	trialStart	1	17	17	foodImage.73	FOODEEG_Images\0717.jpg	NY	Right	Yes	0.888028000015765	0	222409	251
435.447265625	2	taste	foodImageDisplay	1	17	17	foodImage.73	FOODEEG_Images\0717.jpg	NY	Right	Yes	0.888028000015765	0	222950	252
437.5078125	0.888028000015765	taste	choicePhaseStart	1	17	17	foodImage.73	FOODEEG_Images\0717.jpg	NY	Right	Yes	0.888028000015765	0	224005	253
438.388671875	0	taste	response	1	17	17	foodImage.73	FOODEEG_Images\0717.jpg	NY	Right	Yes	0.888028000015765	0	224456	235
439.435546875	1	health	trialStart	1	18	18	foodImage.100	FOODEEG_Images\0908.jpg	YN	Right	No	1.16292420000536	0	224992	251
440.474609375	2	health	foodImageDisplay	1	18	18	foodImage.100	FOODEEG_Images\0908.jpg	YN	Right	No	1.16292420000536	0	225524	252
442.537109375	1.16292420000536	health	choicePhaseStart	1	18	18	foodImage.100	FOODEEG_Images\0908.jpg	YN	Right	No	1.16292420000536	0	226580	253
443.69140625	0	health	response	1	18	18	foodImage.100	FOODEEG_Images\0908.jpg	YN	Right	No	1.16292420000536	0	227171	235
444.734375	1	decision	trialStart	1	19	19	foodImage.117	FOODEEG_Images\0925.jpg	YN	Right	No	1.21014690003358	0	227705	251
445.7734375	2	decision	foodImageDisplay	1	19	19	foodImage.117	FOODEEG_Images\0925.jpg	YN	Right	No	1.21014690003358	0	228237	252
447.8359375	1.21014690003358	decision	choicePhaseStart	1	19	19	foodImage.117	FOODEEG_Images\0925.jpg	YN	Right	No	1.21014690003358	0	229293	253
449.037109375	0	decision	response	1	19	19	foodImage.117	FOODEEG_Images\0925.jpg	YN	Right	No	1.21014690003358	0	229908	235
450.078125	1	decision	trialStart	1	20	20	foodImage.45	FOODEEG_Images\0478.jpg	NY	Right	Yes	1.07771219999995	0	230441	251
451.125	2	decision	foodImageDisplay	1	20	20	foodImage.45	FOODEEG_Images\0478.jpg	NY	Right	Yes	1.07771219999995	0	230977	252
453.189453125	1.07771219999995	decision	choicePhaseStart	1	20	20	foodImage.45	FOODEEG_Images\0478.jpg	NY	Right	Yes	1.07771219999995	0	232034	253
454.259765625	0	decision	response	1	20	20	foodImage.45	FOODEEG_Images\0478.jpg	NY	Right	Yes	1.07771219999995	0	232582	235
455.30078125	1	decision	trialStart	1	21	21	foodImage.23	FOODEEG_Images\0244.jpg	YN	Right	No	1.33573109999998	0	233115	251
456.341796875	2	decision	foodImageDisplay	1	21	21	foodImage.23	FOODEEG_Images\0244.jpg	YN	Right	No	1.33573109999998	0	233648	252
458.404296875	1.33573109999998	decision	choicePhaseStart	1	21	21	foodImage.23	FOODEEG_Images\0244.jpg	YN	Right	No	1.33573109999998	0	234704	253
459.732421875	0	decision	response	1	21	21	foodImage.23	FOODEEG_Images\0244.jpg	YN	Right	No	1.33573109999998	0	235384	235
460.7734375	1	decision	trialStart	1	22	22	foodImage.19	FOODEEG_Images\0225.jpg	YN	Right	No	0.931894699984696	0	235917	251
461.814453125	2	decision	foodImageDisplay	1	22	22	foodImage.19	FOODEEG_Images\0225.jpg	YN	Right	No	0.931894699984696	0	236450	252
463.880859375	0.931894699984696	decision	choicePhaseStart	1	22	22	foodImage.19	FOODEEG_Images\0225.jpg	YN	Right	No	0.931894699984696	0	237508	253
464.802734375	0	decision	response	1	22	22	foodImage.19	FOODEEG_Images\0225.jpg	YN	Right	No	0.931894699984696	0	237980	235
465.84375	1	decision	trialStart	1	23	23	foodImage.39	FOODEEG_Images\0367.jpg	YN	Right	No	0.866696799988858	0	238513	251
466.8828125	2	decision	foodImageDisplay	1	23	23	foodImage.39	FOODEEG_Images\0367.jpg	YN	Right	No	0.866696799988858	0	239045	252
468.9453125	0.866696799988858	decision	choicePhaseStart	1	23	23	foodImage.39	FOODEEG_Images\0367.jpg	YN	Right	No	0.866696799988858	0	240101	253
469.802734375	0	decision	response	1	23	23	foodImage.39	FOODEEG_Images\0367.jpg	YN	Right	No	0.866696799988858	0	240540	235
470.845703125	1	decision	trialStart	1	24	24	foodImage.4	FOODEEG_Images\0065.jpg	YN	Left	Yes	1.84804299997631	0	241074	251
471.90234375	2	decision	foodImageDisplay	1	24	24	foodImage.4	FOODEEG_Images\0065.jpg	YN	Left	Yes	1.84804299997631	0	241615	252
473.96484375	1.84804299997631	decision	choicePhaseStart	1	24	24	foodImage.4	FOODEEG_Images\0065.jpg	YN	Left	Yes	1.84804299997631	0	242671	253
475.802734375	0	decision	response	1	24	24	foodImage.4	FOODEEG_Images\0065.jpg	YN	Left	Yes	1.84804299997631	0	243612	234
476.849609375	1	decision	trialStart	1	25	25	foodImage.61	FOODEEG_Images\0640.jpg	NY	Left	No	0.899724200018682	0	244148	251
477.90625	2	decision	foodImageDisplay	1	25	25	foodImage.61	FOODEEG_Images\0640.jpg	NY	Left	No	0.899724200018682	0	244689	252
479.96875	0.899724200018682	decision	choicePhaseStart	1	25	25	foodImage.61	FOODEEG_Images\0640.jpg	NY	Left	No	0.899724200018682	0	245745	253
480.859375	0	decision	response	1	25	25	foodImage.61	FOODEEG_Images\0640.jpg	NY	Left	No	0.899724200018682	0	246201	234
481.90234375	1	decision	trialStart	1	26	26	foodImage.116	FOODEEG_Images\0924.jpg	NY	Left	No	1.94427340000402	0	246735	251
482.943359375	2	decision	foodImageDisplay	1	26	26	foodImage.116	FOODEEG_Images\0924.jpg	NY	Left	No	1.94427340000402	0	247268	252
485.00390625	1.94427340000402	decision	choicePhaseStart	1	26	26	foodImage.116	FOODEEG_Images\0924.jpg	NY	Left	No	1.94427340000402	0	248323	253
486.939453125	0	decision	response	1	26	26	foodImage.116	FOODEEG_Images\0924.jpg	NY	Left	No	1.94427340000402	0	249314	234
487.98046875	1	health	trialStart	1	27	27	foodImage.107	FOODEEG_Images\0915.jpg	NY	Right	Yes	0.761503800051287	0	249847	251
489.01953125	2	health	foodImageDisplay	1	27	27	foodImage.107	FOODEEG_Images\0915.jpg	NY	Right	Yes	0.761503800051287	0	250379	252
491.08203125	0.761503800051287	health	choicePhaseStart	1	27	27	foodImage.107	FOODEEG_Images\0915.jpg	NY	Right	Yes	0.761503800051287	0	251435	253
491.833984375	0	health	response	1	27	27	foodImage.107	FOODEEG_Images\0915.jpg	NY	Right	Yes	0.761503800051287	0	251820	235
492.875	1	health	trialStart	1	28	28	foodImage.72	FOODEEG_Images\0714.jpg	NY	Left	No	1.50024329998996	0	252353	251
493.91796875	2	health	foodImageDisplay	1	28	28	foodImage.72	FOODEEG_Images\0714.jpg	NY	Left	No	1.50024329998996	0	252887	252
495.98046875	1.50024329998996	health	choicePhaseStart	1	28	28	foodImage.72	FOODEEG_Images\0714.jpg	NY	Left	No	1.50024329998996	0	253943	253
497.474609375	0	health	response	1	28	28	foodImage.72	FOODEEG_Images\0714.jpg	NY	Left	No	1.50024329998996	0	254708	234
498.517578125	1	decision	trialStart	1	29	29	foodImage.78	FOODEEG_Images\0787.jpg	YN	Right	No	1.99667960003717	0	255242	251
499.576171875	2	decision	foodImageDisplay	1	29	29	foodImage.78	FOODEEG_Images\0787.jpg	YN	Right	No	1.99667960003717	0	255784	252
501.638671875	1.99667960003717	decision	choicePhaseStart	1	29	29	foodImage.78	FOODEEG_Images\0787.jpg	YN	Right	No	1.99667960003717	0	256840	253
503.626953125	0	decision	response	1	29	29	foodImage.78	FOODEEG_Images\0787.jpg	YN	Right	No	1.99667960003717	0	257858	235
504.666015625	1	health	trialStart	1	30	30	foodImage.113	FOODEEG_Images\0921.jpg	YN	Right	No	1.48233660002006	0	258390	251
505.705078125	2	health	foodImageDisplay	1	30	30	foodImage.113	FOODEEG_Images\0921.jpg	YN	Right	No	1.48233660002006	0	258922	252
507.767578125	1.48233660002006	health	choicePhaseStart	1	30	30	foodImage.113	FOODEEG_Images\0921.jpg	YN	Right	No	1.48233660002006	0	259978	253
509.2421875	0	health	response	1	30	30	foodImage.113	FOODEEG_Images\0921.jpg	YN	Right	No	1.48233660002006	0	260733	235
510.28125	1	decision	trialStart	1	31	31	foodImage.80	FOODEEG_Images\0796.jpg	YN	Left	Yes	1.02663110004505	0	261265	251
511.337890625	2	decision	foodImageDisplay	1	31	31	foodImage.80	FOODEEG_Images\0796.jpg	YN	Left	Yes	1.02663110004505	0	261806	252
513.400390625	1.02663110004505	decision	choicePhaseStart	1	31	31	foodImage.80	FOODEEG_Images\0796.jpg	YN	Left	Yes	1.02663110004505	0	262862	253
514.41796875	0	decision	response	1	31	31	foodImage.80	FOODEEG_Images\0796.jpg	YN	Left	Yes	1.02663110004505	0	263383	234
515.46484375	1	health	trialStart	1	32	32	foodImage.96	FOODEEG_Images\0904.jpg	NY	Right	Yes	1.51222530001542	0	263919	251
516.50390625	2	health	foodImageDisplay	1	32	32	foodImage.96	FOODEEG_Images\0904.jpg	NY	Right	Yes	1.51222530001542	0	264451	252
518.568359375	1.51222530001542	health	choicePhaseStart	1	32	32	foodImage.96	FOODEEG_Images\0904.jpg	NY	Right	Yes	1.51222530001542	0	265508	253
520.07421875	0	health	response	1	32	32	foodImage.96	FOODEEG_Images\0904.jpg	NY	Right	Yes	1.51222530001542	0	266279	235
521.11328125	1	decision	trialStart	1	33	33	foodImage.91	FOODEEG_Images\0896.jpg	NY	Left	No	1.15124330000253	0	266811	251
522.171875	2	decision	foodImageDisplay	1	33	33	foodImage.91	FOODEEG_Images\0896.jpg	NY	Left	No	1.15124330000253	0	267353	252
524.232421875	1.15124330000253	decision	choicePhaseStart	1	33	33	foodImage.91	FOODEEG_Images\0896.jpg	NY	Left	No	1.15124330000253	0	268408	253
525.376953125	0	decision	response	1	33	33	foodImage.91	FOODEEG_Images\0896.jpg	NY	Left	No	1.15124330000253	0	268994	234
526.41796875	1	taste	trialStart	1	34	34	foodImage.76	FOODEEG_Images\0766.jpg	NY	Right	Yes	1.66308829997433	0	269527	251
527.4609375	2	taste	foodImageDisplay	1	34	34	foodImage.76	FOODEEG_Images\0766.jpg	NY	Right	Yes	1.66308829997433	0	270061	252
529.521484375	1.66308829997433	taste	choicePhaseStart	1	34	34	foodImage.76	FOODEEG_Images\0766.jpg	NY	Right	Yes	1.66308829997433	0	271116	253
531.177734375	0	taste	response	1	34	34	foodImage.76	FOODEEG_Images\0766.jpg	NY	Right	Yes	1.66308829997433	0	271964	235
532.224609375	1	decision	trialStart	1	35	35	foodImage.28	FOODEEG_Images\0273.jpg	YN	Right	No	1.09426530002384	0	272500	251
533.267578125	2	decision	foodImageDisplay	1	35	35	foodImage.28	FOODEEG_Images\0273.jpg	YN	Right	No	1.09426530002384	0	273034	252
535.330078125	1.09426530002384	decision	choicePhaseStart	1	35	35	foodImage.28	FOODEEG_Images\0273.jpg	YN	Right	No	1.09426530002384	0	274090	253
536.416015625	0	decision	response	1	35	35	foodImage.28	FOODEEG_Images\0273.jpg	YN	Right	No	1.09426530002384	0	274646	235
537.45703125	1	taste	trialStart	1	36	36	foodImage.3	FOODEEG_Images\0046.jpg	YN	Left	Yes	0.968180599971674	0	275179	251
538.5	2	taste	foodImageDisplay	1	36	36	foodImage.3	FOODEEG_Images\0046.jpg	YN	Left	Yes	0.968180599971674	0	275713	252
540.5625	0.968180599971674	taste	choicePhaseStart	1	36	36	foodImage.3	FOODEEG_Images\0046.jpg	YN	Left	Yes	0.968180599971674	0	276769	253
541.51953125	0	taste	response	1	36	36	foodImage.3	FOODEEG_Images\0046.jpg	YN	Left	Yes	0.968180599971674	0	277259	234
542.560546875	1	taste	trialStart	1	37	37	foodImage.113	FOODEEG_Images\0921.jpg	YN	Right	No	0.969994399987627	0	277792	251
543.599609375	2	taste	foodImageDisplay	1	37	37	foodImage.113	FOODEEG_Images\0921.jpg	YN	Right	No	0.969994399987627	0	278324	252
545.662109375	0.969994399987627	taste	choicePhaseStart	1	37	37	foodImage.113	FOODEEG_Images\0921.jpg	YN	Right	No	0.969994399987627	0	279380	253
546.625	0	taste	response	1	37	37	foodImage.113	FOODEEG_Images\0921.jpg	YN	Right	No	0.969994399987627	0	279873	235
547.662109375	1	health	trialStart	1	38	38	foodImage.22	FOODEEG_Images\0236.jpg	YN	Left	Yes	1.23418109997874	0	280404	251
548.705078125	2	health	foodImageDisplay	1	38	38	foodImage.22	FOODEEG_Images\0236.jpg	YN	Left	Yes	1.23418109997874	0	280938	252
550.767578125	1.23418109997874	health	choicePhaseStart	1	38	38	foodImage.22	FOODEEG_Images\0236.jpg	YN	Left	Yes	1.23418109997874	0	281994	253
551.9921875	0	health	response	1	38	38	foodImage.22	FOODEEG_Images\0236.jpg	YN	Left	Yes	1.23418109997874	0	282621	234
553.033203125	1	taste	trialStart	1	39	39	foodImage.90	FOODEEG_Images\0890.jpg	NY	Right	Yes	0.835185700037982	0	283154	251
554.095703125	2	taste	foodImageDisplay	1	39	39	foodImage.90	FOODEEG_Images\0890.jpg	NY	Right	Yes	0.835185700037982	0	283698	252
556.158203125	0.835185700037982	taste	choicePhaseStart	1	39	39	foodImage.90	FOODEEG_Images\0890.jpg	NY	Right	Yes	0.835185700037982	0	284754	253
556.984375	0	taste	response	1	39	39	foodImage.90	FOODEEG_Images\0890.jpg	NY	Right	Yes	0.835185700037982	0	285177	235
558.025390625	1	decision	trialStart	1	40	40	foodImage.1	FOODEEG_Images\0004.jpg	YN	Right	No	0.963721100008115	0	285710	251
559.06640625	2	decision	foodImageDisplay	1	40	40	foodImage.1	FOODEEG_Images\0004.jpg	YN	Right	No	0.963721100008115	0	286243	252
561.1328125	0.963721100008115	decision	choicePhaseStart	1	40	40	foodImage.1	FOODEEG_Images\0004.jpg	YN	Right	No	0.963721100008115	0	287301	253
562.087890625	0	decision	response	1	40	40	foodImage.1	FOODEEG_Images\0004.jpg	YN	Right	No	0.963721100008115	0	287790	235
563.126953125	1	taste	trialStart	1	41	41	foodImage.105	FOODEEG_Images\0913.jpg	NY	Left	No	1.28029049996985	0	288322	251
564.16796875	2	taste	foodImageDisplay	1	41	41	foodImage.105	FOODEEG_Images\0913.jpg	NY	Left	No	1.28029049996985	0	288855	252
566.23046875	1.28029049996985	taste	choicePhaseStart	1	41	41	foodImage.105	FOODEEG_Images\0913.jpg	NY	Left	No	1.28029049996985	0	289911	253
567.50390625	0	taste	response	1	41	41	foodImage.105	FOODEEG_Images\0913.jpg	NY	Left	No	1.28029049996985	0	290563	234
568.544921875	1	taste	trialStart	1	42	42	foodImage.9	FOODEEG_Images\0138.jpg	NY	Left	No	1.44566829997348	0	291096	251
569.603515625	2	taste	foodImageDisplay	1	42	42	foodImage.9	FOODEEG_Images\0138.jpg	NY	Left	No	1.44566829997348	0	291638	252
571.66796875	1.44566829997348	taste	choicePhaseStart	1	42	42	foodImage.9	FOODEEG_Images\0138.jpg	NY	Left	No	1.44566829997348	0	292695	253
573.103515625	0	taste	response	1	42	42	foodImage.9	FOODEEG_Images\0138.jpg	NY	Left	No	1.44566829997348	0	293430	234
574.142578125	1	health	trialStart	1	43	43	foodImage.29	FOODEEG_Images\0278.jpg	NY	Left	No	1.50386760005495	0	293962	251
575.185546875	2	health	foodImageDisplay	1	43	43	foodImage.29	FOODEEG_Images\0278.jpg	NY	Left	No	1.50386760005495	0	294496	252
577.248046875	1.50386760005495	health	choicePhaseStart	1	43	43	foodImage.29	FOODEEG_Images\0278.jpg	NY	Left	No	1.50386760005495	0	295552	253
578.744140625	0	health	response	1	43	43	foodImage.29	FOODEEG_Images\0278.jpg	NY	Left	No	1.50386760005495	0	296318	234
579.783203125	1	health	trialStart	1	44	44	foodImage.110	FOODEEG_Images\0918.jpg	YN	Right	No	1.99928139999975	0	296850	251
580.8203125	2	health	foodImageDisplay	1	44	44	foodImage.110	FOODEEG_Images\0918.jpg	YN	Right	No	1.99928139999975	0	297381	252
582.888671875	1.99928139999975	health	choicePhaseStart	1	44	44	foodImage.110	FOODEEG_Images\0918.jpg	YN	Right	No	1.99928139999975	0	298440	253
584.87890625	0	health	response	1	44	44	foodImage.110	FOODEEG_Images\0918.jpg	YN	Right	No	1.99928139999975	0	299459	235
585.921875	1	health	trialStart	1	45	45	foodImage.77	FOODEEG_Images\0771.jpg	YN	Left	Yes	0.907334699993953	0	299993	251
586.96484375	2	health	foodImageDisplay	1	45	45	foodImage.77	FOODEEG_Images\0771.jpg	YN	Left	Yes	0.907334699993953	0	300527	252
589.02734375	0.907334699993953	health	choicePhaseStart	1	45	45	foodImage.77	FOODEEG_Images\0771.jpg	YN	Left	Yes	0.907334699993953	0	301583	253
589.92578125	0	health	response	1	45	45	foodImage.77	FOODEEG_Images\0771.jpg	YN	Left	Yes	0.907334699993953	0	302043	234
590.96875	1	decision	trialStart	1	46	46	foodImage.13	FOODEEG_Images\0183.jpg	YN	Right	No	1.39054499997292	0	302577	251
592.01171875	2	decision	foodImageDisplay	1	46	46	foodImage.13	FOODEEG_Images\0183.jpg	YN	Right	No	1.39054499997292	0	303111	252
594.07421875	1.39054499997292	decision	choicePhaseStart	1	46	46	foodImage.13	FOODEEG_Images\0183.jpg	YN	Right	No	1.39054499997292	0	304167	253
595.455078125	0	decision	response	1	46	46	foodImage.13	FOODEEG_Images\0183.jpg	YN	Right	No	1.39054499997292	0	304874	235
596.498046875	1	health	trialStart	1	47	47	foodImage.30	FOODEEG_Images\0282.jpg	YN	Left	Yes	0.807067800022196	0	305408	251
597.5390625	2	health	foodImageDisplay	1	47	47	foodImage.30	FOODEEG_Images\0282.jpg	YN	Left	Yes	0.807067800022196	0	305941	252
599.6015625	0.807067800022196	health	choicePhaseStart	1	47	47	foodImage.30	FOODEEG_Images\0282.jpg	YN	Left	Yes	0.807067800022196	0	306997	253
600.3984375	0	health	response	1	47	47	foodImage.30	FOODEEG_Images\0282.jpg	YN	Left	Yes	0.807067800022196	0	307405	234
601.439453125	1	decision	trialStart	1	48	48	foodImage.26	FOODEEG_Images\0262.jpg	NY	Right	Yes	2.32037550001405	0	307938	251
602.48046875	2	decision	foodImageDisplay	1	48	48	foodImage.26	FOODEEG_Images\0262.jpg	NY	Right	Yes	2.32037550001405	0	308471	252
604.54296875	2.32037550001405	decision	choicePhaseStart	1	48	48	foodImage.26	FOODEEG_Images\0262.jpg	NY	Right	Yes	2.32037550001405	0	309527	253
606.853515625	0	decision	response	1	48	48	foodImage.26	FOODEEG_Images\0262.jpg	NY	Right	Yes	2.32037550001405	0	310710	235
607.89453125	1	decision	trialStart	1	49	49	foodImage.87	FOODEEG_Images\0873.jpg	NY	Left	No	1.49493490002351	0	311243	251
608.953125	2	decision	foodImageDisplay	1	49	49	foodImage.87	FOODEEG_Images\0873.jpg	NY	Left	No	1.49493490002351	0	311785	252
611.017578125	1.49493490002351	decision	choicePhaseStart	1	49	49	foodImage.87	FOODEEG_Images\0873.jpg	NY	Left	No	1.49493490002351	0	312842	253
612.501953125	0	decision	response	1	49	49	foodImage.87	FOODEEG_Images\0873.jpg	NY	Left	No	1.49493490002351	0	313602	234
613.54296875	1	taste	trialStart	1	50	50	foodImage.108	FOODEEG_Images\0916.jpg	YN	Right	No	0.93227069999557	0	314135	251
614.580078125	2	taste	foodImageDisplay	1	50	50	foodImage.108	FOODEEG_Images\0916.jpg	YN	Right	No	0.93227069999557	0	314666	252
616.642578125	0.93227069999557	taste	choicePhaseStart	1	50	50	foodImage.108	FOODEEG_Images\0916.jpg	YN	Right	No	0.93227069999557	0	315722	253
617.56640625	0	taste	response	1	50	50	foodImage.108	FOODEEG_Images\0916.jpg	YN	Right	No	0.93227069999557	0	316195	235
618.611328125	1	taste	trialStart	1	51	51	foodImage.50	FOODEEG_Images\0529.jpg	NY	Left	No	1.24006270000245	0	316730	251
619.669921875	2	taste	foodImageDisplay	1	51	51	foodImage.50	FOODEEG_Images\0529.jpg	NY	Left	No	1.24006270000245	0	317272	252
621.734375	1.24006270000245	taste	choicePhaseStart	1	51	51	foodImage.50	FOODEEG_Images\0529.jpg	NY	Left	No	1.24006270000245	0	318329	253
622.96484375	0	taste	response	1	51	51	foodImage.50	FOODEEG_Images\0529.jpg	NY	Left	No	1.24006270000245	0	318959	234
624.005859375	1	taste	trialStart	1	52	52	foodImage.30	FOODEEG_Images\0282.jpg	NY	Right	Yes	1.62323620001553	0	319492	251
625.048828125	2	taste	foodImageDisplay	1	52	52	foodImage.30	FOODEEG_Images\0282.jpg	NY	Right	Yes	1.62323620001553	0	320026	252
627.111328125	1.62323620001553	taste	choicePhaseStart	1	52	52	foodImage.30	FOODEEG_Images\0282.jpg	NY	Right	Yes	1.62323620001553	0	321082	253
628.724609375	0	taste	response	1	52	52	foodImage.30	FOODEEG_Images\0282.jpg	NY	Right	Yes	1.62323620001553	0	321908	235
629.765625	1	health	trialStart	1	53	53	foodImage.93	FOODEEG_Images\0901.jpg	NY	Left	No	1.19290020002518	0	322441	251
630.806640625	2	health	foodImageDisplay	1	53	53	foodImage.93	FOODEEG_Images\0901.jpg	NY	Left	No	1.19290020002518	0	322974	252
632.869140625	1.19290020002518	health	choicePhaseStart	1	53	53	foodImage.93	FOODEEG_Images\0901.jpg	NY	Left	No	1.19290020002518	0	324030	253
634.052734375	0	health	response	1	53	53	foodImage.93	FOODEEG_Images\0901.jpg	NY	Left	No	1.19290020002518	0	324636	234
635.091796875	1	decision	trialStart	1	54	54	foodImage.90	FOODEEG_Images\0890.jpg	NY	Right	Yes	0.787999099993613	0	325168	251
636.1484375	2	decision	foodImageDisplay	1	54	54	foodImage.90	FOODEEG_Images\0890.jpg	NY	Right	Yes	0.787999099993613	0	325709	252
638.2109375	0.787999099993613	decision	choicePhaseStart	1	54	54	foodImage.90	FOODEEG_Images\0890.jpg	NY	Right	Yes	0.787999099993613	0	326765	253
638.98828125	0	decision	response	1	54	54	foodImage.90	FOODEEG_Images\0890.jpg	NY	Right	Yes	0.787999099993613	0	327163	235
640.029296875	1	health	trialStart	1	55	55	foodImage.46	FOODEEG_Images\0479.jpg	NY	Right	Yes	0.881123400002252	0	327696	251
641.083984375	2	health	foodImageDisplay	1	55	55	foodImage.46	FOODEEG_Images\0479.jpg	NY	Right	Yes	0.881123400002252	0	328236	252
643.146484375	0.881123400002252	health	choicePhaseStart	1	55	55	foodImage.46	FOODEEG_Images\0479.jpg	NY	Right	Yes	0.881123400002252	0	329292	253
644.01953125	0	health	response	1	55	55	foodImage.46	FOODEEG_Images\0479.jpg	NY	Right	Yes	0.881123400002252	0	329739	235
645.060546875	1	health	trialStart	1	56	56	foodImage.35	FOODEEG_Images\0350.jpg	YN	Left	Yes	2.3392179000075	0	330272	251
646.099609375	2	health	foodImageDisplay	1	56	56	foodImage.35	FOODEEG_Images\0350.jpg	YN	Left	Yes	2.3392179000075	0	330804	252
648.162109375	2.3392179000075	health	choicePhaseStart	1	56	56	foodImage.35	FOODEEG_Images\0350.jpg	YN	Left	Yes	2.3392179000075	0	331860	253
650.4921875	0	health	response	1	56	56	foodImage.35	FOODEEG_Images\0350.jpg	YN	Left	Yes	2.3392179000075	0	333053	234
651.53125	1	health	trialStart	1	57	57	foodImage.4	FOODEEG_Images\0065.jpg	YN	Left	Yes	1.51540469995234	0	333585	251
652.587890625	2	health	foodImageDisplay	1	57	57	foodImage.4	FOODEEG_Images\0065.jpg	YN	Left	Yes	1.51540469995234	0	334126	252
654.650390625	1.51540469995234	health	choicePhaseStart	1	57	57	foodImage.4	FOODEEG_Images\0065.jpg	YN	Left	Yes	1.51540469995234	0	335182	253
656.15625	0	health	response	1	57	57	foodImage.4	FOODEEG_Images\0065.jpg	YN	Left	Yes	1.51540469995234	0	335953	234
657.1953125	1	health	trialStart	1	58	58	foodImage.34	FOODEEG_Images\0339.jpg	YN	Right	No	0.92512429994531	0	336485	251
658.25	2	health	foodImageDisplay	1	58	58	foodImage.34	FOODEEG_Images\0339.jpg	YN	Right	No	0.92512429994531	0	337025	252
660.3125	0.92512429994531	health	choicePhaseStart	1	58	58	foodImage.34	FOODEEG_Images\0339.jpg	YN	Right	No	0.92512429994531	0	338081	253
661.228515625	0	health	response	1	58	58	foodImage.34	FOODEEG_Images\0339.jpg	YN	Right	No	0.92512429994531	0	338550	235
662.27734375	1	decision	trialStart	1	59	59	foodImage.54	FOODEEG_Images\0560.jpg	YN	Left	Yes	1.16774090001127	0	339087	251
663.333984375	2	decision	foodImageDisplay	1	59	59	foodImage.54	FOODEEG_Images\0560.jpg	YN	Left	Yes	1.16774090001127	0	339628	252
665.396484375	1.16774090001127	decision	choicePhaseStart	1	59	59	foodImage.54	FOODEEG_Images\0560.jpg	YN	Left	Yes	1.16774090001127	0	340684	253
666.5546875	0	decision	response	1	59	59	foodImage.54	FOODEEG_Images\0560.jpg	YN	Left	Yes	1.16774090001127	0	341277	234
667.595703125	1	taste	trialStart	1	60	60	foodImage.24	FOODEEG_Images\0250.jpg	NY	Left	No	1.33674699999392	0	341810	251
668.63671875	2	taste	foodImageDisplay	1	60	60	foodImage.24	FOODEEG_Images\0250.jpg	NY	Left	No	1.33674699999392	0	342343	252
670.69921875	1.33674699999392	taste	choicePhaseStart	1	60	60	foodImage.24	FOODEEG_Images\0250.jpg	NY	Left	No	1.33674699999392	0	343399	253
672.02734375	0	taste	response	1	60	60	foodImage.24	FOODEEG_Images\0250.jpg	NY	Left	No	1.33674699999392	0	344079	234
674.06640625	5.521484375	n/a	blockEnd	n/a	n/a	n/a	n/a	n/a	n/a	n/a	n/a	n/a	n/a	345123	254
679.587890625	2	n/a	blockStart	2	n/a	n/a	n/a	n/a	n/a	n/a	n/a	n/a	n/a	347950	250
681.62109375	1	decision	trialStart	2	61	1	foodImage.93	FOODEEG_Images\0901.jpg	YN	Right	No	0.934999999997672	0	348991	251
682.66015625	2	decision	foodImageDisplay	2	61	1	foodImage.93	FOODEEG_Images\0901.jpg	YN	Right	No	0.934999999997672	0	349523	252
684.724609375	0.934999999997672	decision	choicePhaseStart	2	61	1	foodImage.93	FOODEEG_Images\0901.jpg	YN	Right	No	0.934999999997672	0	350580	253
685.650390625	0	decision	response	2	61	1	foodImage.93	FOODEEG_Images\0901.jpg	YN	Right	No	0.934999999997672	0	351054	235
686.689453125	1	taste	trialStart	2	62	2	foodImage.47	FOODEEG_Images\0488.jpg	NY	Right	Yes	1.1638805999537	0	351586	251
687.732421875	2	taste	foodImageDisplay	2	62	2	foodImage.47	FOODEEG_Images\0488.jpg	NY	Right	Yes	1.1638805999537	0	352120	252
689.80078125	1.1638805999537	taste	choicePhaseStart	2	62	2	foodImage.47	FOODEEG_Images\0488.jpg	NY	Right	Yes	1.1638805999537	0	353179	253
690.955078125	0	taste	response	2	62	2	foodImage.47	FOODEEG_Images\0488.jpg	NY	Right	Yes	1.1638805999537	0	353770	235
691.99609375	1	taste	trialStart	2	63	3	foodImage.69	FOODEEG_Images\0693.jpg	YN	Right	No	1.49324709997745	0	354303	251
693.0390625	2	taste	foodImageDisplay	2	63	3	foodImage.69	FOODEEG_Images\0693.jpg	YN	Right	No	1.49324709997745	0	354837	252
695.1015625	1.49324709997745	taste	choicePhaseStart	2	63	3	foodImage.69	FOODEEG_Images\0693.jpg	YN	Right	No	1.49324709997745	0	355893	253
696.5859375	0	taste	response	2	63	3	foodImage.69	FOODEEG_Images\0693.jpg	YN	Right	No	1.49324709997745	0	356653	235
697.630859375	1	decision	trialStart	2	64	4	foodImage.73	FOODEEG_Images\0717.jpg	NY	Right	Yes	0.940934400015976	0	357188	251
698.6875	2	decision	foodImageDisplay	2	64	4	foodImage.73	FOODEEG_Images\0717.jpg	NY	Right	Yes	0.940934400015976	0	357729	252
700.75	0.940934400015976	decision	choicePhaseStart	2	64	4	foodImage.73	FOODEEG_Images\0717.jpg	NY	Right	Yes	0.940934400015976	0	358785	253
701.681640625	0	decision	response	2	64	4	foodImage.73	FOODEEG_Images\0717.jpg	NY	Right	Yes	0.940934400015976	0	359262	235
702.72265625	1	health	trialStart	2	65	5	foodImage.32	FOODEEG_Images\0319.jpg	NY	Left	No	2.71008219994837	0	359795	251
703.765625	2	health	foodImageDisplay	2	65	5	foodImage.32	FOODEEG_Images\0319.jpg	NY	Left	No	2.71008219994837	0	360329	252
705.828125	2.71008219994837	health	choicePhaseStart	2	65	5	foodImage.32	FOODEEG_Images\0319.jpg	NY	Left	No	2.71008219994837	0	361385	253
708.529296875	0	health	response	2	65	5	foodImage.32	FOODEEG_Images\0319.jpg	NY	Left	No	2.71008219994837	0	362768	234
709.5703125	1	taste	trialStart	2	66	6	foodImage.68	FOODEEG_Images\0685.jpg	NY	Right	Yes	0.83770380000351	0	363301	251
710.6484375	2	taste	foodImageDisplay	2	66	6	foodImage.68	FOODEEG_Images\0685.jpg	NY	Right	Yes	0.83770380000351	0	363853	252
712.708984375	0.83770380000351	taste	choicePhaseStart	2	66	6	foodImage.68	FOODEEG_Images\0685.jpg	NY	Right	Yes	0.83770380000351	0	364908	253
713.537109375	0	taste	response	2	66	6	foodImage.68	FOODEEG_Images\0685.jpg	NY	Right	Yes	0.83770380000351	0	365332	235
714.5859375	1	health	trialStart	2	67	7	foodImage.88	FOODEEG_Images\0878.jpg	YN	Left	Yes	1.43619620002573	0	365869	251
715.640625	2	health	foodImageDisplay	2	67	7	foodImage.88	FOODEEG_Images\0878.jpg	YN	Left	Yes	1.43619620002573	0	366409	252
717.703125	1.43619620002573	health	choicePhaseStart	2	67	7	foodImage.88	FOODEEG_Images\0878.jpg	YN	Left	Yes	1.43619620002573	0	367465	253
719.12890625	0	health	response	2	67	7	foodImage.88	FOODEEG_Images\0878.jpg	YN	Left	Yes	1.43619620002573	0	368195	234
720.169921875	1	decision	trialStart	2	68	8	foodImage.34	FOODEEG_Images\0339.jpg	NY	Left	No	1.42322439997224	0	368728	251
721.228515625	2	decision	foodImageDisplay	2	68	8	foodImage.34	FOODEEG_Images\0339.jpg	NY	Left	No	1.42322439997224	0	369270	252
723.291015625	1.42322439997224	decision	choicePhaseStart	2	68	8	foodImage.34	FOODEEG_Images\0339.jpg	NY	Left	No	1.42322439997224	0	370326	253
724.705078125	0	decision	response	2	68	8	foodImage.34	FOODEEG_Images\0339.jpg	NY	Left	No	1.42322439997224	0	371050	234
725.744140625	1	health	trialStart	2	69	9	foodImage.58	FOODEEG_Images\0605.jpg	NY	Left	No	1.67122699995525	0	371582	251
726.8046875	2	health	foodImageDisplay	2	69	9	foodImage.58	FOODEEG_Images\0605.jpg	NY	Left	No	1.67122699995525	0	372125	252
728.8671875	1.67122699995525	health	choicePhaseStart	2	69	9	foodImage.58	FOODEEG_Images\0605.jpg	NY	Left	No	1.67122699995525	0	373181	253
730.529296875	0	health	response	2	69	9	foodImage.58	FOODEEG_Images\0605.jpg	NY	Left	No	1.67122699995525	0	374032	234
731.576171875	1	taste	trialStart	2	70	10	foodImage.81	FOODEEG_Images\0797.jpg	NY	Left	No	1.1241580999922	0	374568	251
732.6328125	2	taste	foodImageDisplay	2	70	10	foodImage.81	FOODEEG_Images\0797.jpg	NY	Left	No	1.1241580999922	0	375109	252
734.6953125	1.1241580999922	taste	choicePhaseStart	2	70	10	foodImage.81	FOODEEG_Images\0797.jpg	NY	Left	No	1.1241580999922	0	376165	253
735.80859375	0	taste	response	2	70	10	foodImage.81	FOODEEG_Images\0797.jpg	NY	Left	No	1.1241580999922	0	376735	234
736.849609375	1	taste	trialStart	2	71	11	foodImage.29	FOODEEG_Images\0278.jpg	NY	Left	No	0.951812200015411	0	377268	251
737.892578125	2	taste	foodImageDisplay	2	71	11	foodImage.29	FOODEEG_Images\0278.jpg	NY	Left	No	0.951812200015411	0	377802	252
739.953125	0.951812200015411	taste	choicePhaseStart	2	71	11	foodImage.29	FOODEEG_Images\0278.jpg	NY	Left	No	0.951812200015411	0	378857	253
740.896484375	0	taste	response	2	71	11	foodImage.29	FOODEEG_Images\0278.jpg	NY	Left	No	0.951812200015411	0	379340	234
741.9375	1	decision	trialStart	2	72	12	foodImage.43	FOODEEG_Images\0445.jpg	YN	Right	No	1.67807589995209	0	379873	251
742.998046875	2	decision	foodImageDisplay	2	72	12	foodImage.43	FOODEEG_Images\0445.jpg	YN	Right	No	1.67807589995209	0	380416	252
745.060546875	1.67807589995209	decision	choicePhaseStart	2	72	12	foodImage.43	FOODEEG_Images\0445.jpg	YN	Right	No	1.67807589995209	0	381472	253
746.728515625	0	decision	response	2	72	12	foodImage.43	FOODEEG_Images\0445.jpg	YN	Right	No	1.67807589995209	0	382326	235
747.771484375	1	taste	trialStart	2	73	13	foodImage.70	FOODEEG_Images\0705.jpg	YN	Left	Yes	0.82678240002133	0	382860	251
748.841796875	2	taste	foodImageDisplay	2	73	13	foodImage.70	FOODEEG_Images\0705.jpg	YN	Left	Yes	0.82678240002133	0	383408	252
750.904296875	0.82678240002133	taste	choicePhaseStart	2	73	13	foodImage.70	FOODEEG_Images\0705.jpg	YN	Left	Yes	0.82678240002133	0	384464	253
751.720703125	0	taste	response	2	73	13	foodImage.70	FOODEEG_Images\0705.jpg	YN	Left	Yes	0.82678240002133	0	384882	234
752.76171875	1	health	trialStart	2	74	14	foodImage.86	FOODEEG_Images\0844.jpg	NY	Left	No	1.16608210001141	0	385415	251
753.818359375	2	health	foodImageDisplay	2	74	14	foodImage.86	FOODEEG_Images\0844.jpg	NY	Left	No	1.16608210001141	0	385956	252
755.880859375	1.16608210001141	health	choicePhaseStart	2	74	14	foodImage.86	FOODEEG_Images\0844.jpg	NY	Left	No	1.16608210001141	0	387012	253
757.0390625	0	health	response	2	74	14	foodImage.86	FOODEEG_Images\0844.jpg	NY	Left	No	1.16608210001141	0	387605	234
758.083984375	1	taste	trialStart	2	75	15	foodImage.25	FOODEEG_Images\0261.jpg	YN	Left	Yes	1.10013340000296	0	388140	251
759.125	2	taste	foodImageDisplay	2	75	15	foodImage.25	FOODEEG_Images\0261.jpg	YN	Left	Yes	1.10013340000296	0	388673	252
761.1875	1.10013340000296	taste	choicePhaseStart	2	75	15	foodImage.25	FOODEEG_Images\0261.jpg	YN	Left	Yes	1.10013340000296	0	389729	253
762.279296875	0	taste	response	2	75	15	foodImage.25	FOODEEG_Images\0261.jpg	YN	Left	Yes	1.10013340000296	0	390288	234
763.3203125	1	taste	trialStart	2	76	16	foodImage.94	FOODEEG_Images\0902.jpg	NY	Left	No	0.761526999995112	0	390821	251
764.361328125	2	taste	foodImageDisplay	2	76	16	foodImage.94	FOODEEG_Images\0902.jpg	NY	Left	No	0.761526999995112	0	391354	252
766.423828125	0.761526999995112	taste	choicePhaseStart	2	76	16	foodImage.94	FOODEEG_Images\0902.jpg	NY	Left	No	0.761526999995112	0	392410	253
767.17578125	0	taste	response	2	76	16	foodImage.94	FOODEEG_Images\0902.jpg	NY	Left	No	0.761526999995112	0	392795	234
768.21875	1	health	trialStart	2	77	17	foodImage.92	FOODEEG_Images\0900.jpg	YN	Right	No	1.44222669996088	0	393329	251
769.2578125	2	health	foodImageDisplay	2	77	17	foodImage.92	FOODEEG_Images\0900.jpg	YN	Right	No	1.44222669996088	0	393861	252
771.326171875	1.44222669996088	health	choicePhaseStart	2	77	17	foodImage.92	FOODEEG_Images\0900.jpg	YN	Right	No	1.44222669996088	0	394920	253
772.759765625	0	health	response	2	77	17	foodImage.92	FOODEEG_Images\0900.jpg	YN	Right	No	1.44222669996088	0	395654	235
773.802734375	1	decision	trialStart	2	78	18	foodImage.7	FOODEEG_Images\0116.jpg	YN	Left	Yes	1.10366039996734	0	396188	251
774.84375	2	decision	foodImageDisplay	2	78	18	foodImage.7	FOODEEG_Images\0116.jpg	YN	Left	Yes	1.10366039996734	0	396721	252
776.90625	1.10366039996734	decision	choicePhaseStart	2	78	18	foodImage.7	FOODEEG_Images\0116.jpg	YN	Left	Yes	1.10366039996734	0	397777	253
778	0	decision	response	2	78	18	foodImage.7	FOODEEG_Images\0116.jpg	YN	Left	Yes	1.10366039996734	0	398337	234
779.04296875	1	decision	trialStart	2	79	19	foodImage.58	FOODEEG_Images\0605.jpg	NY	Left	No	1.70090759999584	0	398871	251
780.099609375	2	decision	foodImageDisplay	2	79	19	foodImage.58	FOODEEG_Images\0605.jpg	NY	Left	No	1.70090759999584	0	399412	252
782.162109375	1.70090759999584	decision	choicePhaseStart	2	79	19	foodImage.58	FOODEEG_Images\0605.jpg	NY	Left	No	1.70090759999584	0	400468	253
783.85546875	0	decision	response	2	79	19	foodImage.58	FOODEEG_Images\0605.jpg	NY	Left	No	1.70090759999584	0	401335	234
784.896484375	1	health	trialStart	2	80	20	foodImage.76	FOODEEG_Images\0766.jpg	YN	Left	Yes	2.01416389999213	0	401868	251
785.939453125	2	health	foodImageDisplay	2	80	20	foodImage.76	FOODEEG_Images\0766.jpg	YN	Left	Yes	2.01416389999213	0	402402	252
788.001953125	2.01416389999213	health	choicePhaseStart	2	80	20	foodImage.76	FOODEEG_Images\0766.jpg	YN	Left	Yes	2.01416389999213	0	403458	253
790.005859375	0	health	response	2	80	20	foodImage.76	FOODEEG_Images\0766.jpg	YN	Left	Yes	2.01416389999213	0	404484	234
791.048828125	1	taste	trialStart	2	81	21	foodImage.61	FOODEEG_Images\0640.jpg	YN	Left	Yes	1.42680630000541	0	405018	251
792.091796875	2	taste	foodImageDisplay	2	81	21	foodImage.61	FOODEEG_Images\0640.jpg	YN	Left	Yes	1.42680630000541	0	405552	252
794.154296875	1.42680630000541	taste	choicePhaseStart	2	81	21	foodImage.61	FOODEEG_Images\0640.jpg	YN	Left	Yes	1.42680630000541	0	406608	253
795.57421875	0	taste	response	2	81	21	foodImage.61	FOODEEG_Images\0640.jpg	YN	Left	Yes	1.42680630000541	0	407335	234
796.6171875	1	decision	trialStart	2	82	22	foodImage.2	FOODEEG_Images\0028.jpg	YN	Right	No	2.76614349998999	0	407869	251
797.66015625	2	decision	foodImageDisplay	2	82	22	foodImage.2	FOODEEG_Images\0028.jpg	YN	Right	No	2.76614349998999	0	408403	252
799.72265625	2.76614349998999	decision	choicePhaseStart	2	82	22	foodImage.2	FOODEEG_Images\0028.jpg	YN	Right	No	2.76614349998999	0	409459	253
802.478515625	0	decision	response	2	82	22	foodImage.2	FOODEEG_Images\0028.jpg	YN	Right	No	2.76614349998999	0	410870	235
803.51953125	1	health	trialStart	2	83	23	foodImage.18	FOODEEG_Images\0202.jpg	NY	Right	Yes	0.920075599977281	0	411403	251
804.576171875	2	health	foodImageDisplay	2	83	23	foodImage.18	FOODEEG_Images\0202.jpg	NY	Right	Yes	0.920075599977281	0	411944	252
806.638671875	0.920075599977281	health	choicePhaseStart	2	83	23	foodImage.18	FOODEEG_Images\0202.jpg	NY	Right	Yes	0.920075599977281	0	413000	253
807.55078125	0	health	response	2	83	23	foodImage.18	FOODEEG_Images\0202.jpg	NY	Right	Yes	0.920075599977281	0	413467	235
808.58984375	1	health	trialStart	2	84	24	foodImage.117	FOODEEG_Images\0925.jpg	NY	Left	No	1.13154929998564	0	413999	251
809.62890625	2	health	foodImageDisplay	2	84	24	foodImage.117	FOODEEG_Images\0925.jpg	NY	Left	No	1.13154929998564	0	414531	252
811.69140625	1.13154929998564	health	choicePhaseStart	2	84	24	foodImage.117	FOODEEG_Images\0925.jpg	NY	Left	No	1.13154929998564	0	415587	253
812.814453125	0	health	response	2	84	24	foodImage.117	FOODEEG_Images\0925.jpg	NY	Left	No	1.13154929998564	0	416162	234
813.85546875	1	taste	trialStart	2	85	25	foodImage.86	FOODEEG_Images\0844.jpg	YN	Right	No	0.877806300006341	0	416695	251
814.9140625	2	taste	foodImageDisplay	2	85	25	foodImage.86	FOODEEG_Images\0844.jpg	YN	Right	No	0.877806300006341	0	417237	252
816.9765625	0.877806300006341	taste	choicePhaseStart	2	85	25	foodImage.86	FOODEEG_Images\0844.jpg	YN	Right	No	0.877806300006341	0	418293	253
817.845703125	0	taste	response	2	85	25	foodImage.86	FOODEEG_Images\0844.jpg	YN	Right	No	0.877806300006341	0	418738	235
818.888671875	1	taste	trialStart	2	86	26	foodImage.21	FOODEEG_Images\0234.jpg	YN	Left	Yes	1.17164439999033	0	419272	251
819.947265625	2	taste	foodImageDisplay	2	86	26	foodImage.21	FOODEEG_Images\0234.jpg	YN	Left	Yes	1.17164439999033	0	419814	252
822.01171875	1.17164439999033	taste	choicePhaseStart	2	86	26	foodImage.21	FOODEEG_Images\0234.jpg	YN	Left	Yes	1.17164439999033	0	420871	253
823.173828125	0	taste	response	2	86	26	foodImage.21	FOODEEG_Images\0234.jpg	YN	Left	Yes	1.17164439999033	0	421466	234
824.216796875	1	taste	trialStart	2	87	27	foodImage.114	FOODEEG_Images\0922.jpg	NY	Left	No	1.07335650001187	0	422000	251
825.25390625	2	taste	foodImageDisplay	2	87	27	foodImage.114	FOODEEG_Images\0922.jpg	NY	Left	No	1.07335650001187	0	422531	252
827.31640625	1.07335650001187	taste	choicePhaseStart	2	87	27	foodImage.114	FOODEEG_Images\0922.jpg	NY	Left	No	1.07335650001187	0	423587	253
828.380859375	0	taste	response	2	87	27	foodImage.114	FOODEEG_Images\0922.jpg	NY	Left	No	1.07335650001187	0	424132	234
829.421875	1	decision	trialStart	2	88	28	foodImage.115	FOODEEG_Images\0923.jpg	NY	Left	No	1.95499540003948	0	424665	251
830.4609375	2	decision	foodImageDisplay	2	88	28	foodImage.115	FOODEEG_Images\0923.jpg	NY	Left	No	1.95499540003948	0	425197	252
832.5234375	1.95499540003948	decision	choicePhaseStart	2	88	28	foodImage.115	FOODEEG_Images\0923.jpg	NY	Left	No	1.95499540003948	0	426253	253
834.46875	0	decision	response	2	88	28	foodImage.115	FOODEEG_Images\0923.jpg	NY	Left	No	1.95499540003948	0	427249	234
835.513671875	1	health	trialStart	2	89	29	foodImage.59	FOODEEG_Images\0607.jpg	YN	Right	No	1.13067119999323	0	427784	251
836.560546875	2	health	foodImageDisplay	2	89	29	foodImage.59	FOODEEG_Images\0607.jpg	YN	Right	No	1.13067119999323	0	428320	252
838.62890625	1.13067119999323	health	choicePhaseStart	2	89	29	foodImage.59	FOODEEG_Images\0607.jpg	YN	Right	No	1.13067119999323	0	429379	253
839.748046875	0	health	response	2	89	29	foodImage.59	FOODEEG_Images\0607.jpg	YN	Right	No	1.13067119999323	0	429952	235
840.7890625	1	decision	trialStart	2	90	30	foodImage.76	FOODEEG_Images\0766.jpg	NY	Right	Yes	1.01583089999622	0	430485	251
841.83203125	2	decision	foodImageDisplay	2	90	30	foodImage.76	FOODEEG_Images\0766.jpg	NY	Right	Yes	1.01583089999622	0	431019	252
843.89453125	1.01583089999622	decision	choicePhaseStart	2	90	30	foodImage.76	FOODEEG_Images\0766.jpg	NY	Right	Yes	1.01583089999622	0	432075	253
844.900390625	0	decision	response	2	90	30	foodImage.76	FOODEEG_Images\0766.jpg	NY	Right	Yes	1.01583089999622	0	432590	235
845.943359375	1	decision	trialStart	2	91	31	foodImage.83	FOODEEG_Images\0827.jpg	NY	Right	Yes	0.94015630002832	0	433124	251
847.021484375	2	decision	foodImageDisplay	2	91	31	foodImage.83	FOODEEG_Images\0827.jpg	NY	Right	Yes	0.94015630002832	0	433676	252
849.0859375	0.94015630002832	decision	choicePhaseStart	2	91	31	foodImage.83	FOODEEG_Images\0827.jpg	NY	Right	Yes	0.94015630002832	0	434733	253
850.01953125	0	decision	response	2	91	31	foodImage.83	FOODEEG_Images\0827.jpg	NY	Right	Yes	0.94015630002832	0	435211	235
851.06640625	1	taste	trialStart	2	92	32	foodImage.116	FOODEEG_Images\0924.jpg	NY	Left	No	0.918428400007542	0	435747	251
852.10546875	2	taste	foodImageDisplay	2	92	32	foodImage.116	FOODEEG_Images\0924.jpg	NY	Left	No	0.918428400007542	0	436279	252
854.16796875	0.918428400007542	taste	choicePhaseStart	2	92	32	foodImage.116	FOODEEG_Images\0924.jpg	NY	Left	No	0.918428400007542	0	437335	253
855.076171875	0	taste	response	2	92	32	foodImage.116	FOODEEG_Images\0924.jpg	NY	Left	No	0.918428400007542	0	437800	234
856.119140625	1	decision	trialStart	2	93	33	foodImage.36	FOODEEG_Images\0352.jpg	YN	Right	No	1.71219829999609	0	438334	251
857.173828125	2	decision	foodImageDisplay	2	93	33	foodImage.36	FOODEEG_Images\0352.jpg	YN	Right	No	1.71219829999609	0	438874	252
859.236328125	1.71219829999609	decision	choicePhaseStart	2	93	33	foodImage.36	FOODEEG_Images\0352.jpg	YN	Right	No	1.71219829999609	0	439930	253
860.939453125	0	decision	response	2	93	33	foodImage.36	FOODEEG_Images\0352.jpg	YN	Right	No	1.71219829999609	0	440802	235
861.98046875	1	health	trialStart	2	94	34	foodImage.75	FOODEEG_Images\0763.jpg	YN	Left	Yes	1.02186139998958	0	441335	251
863.0234375	2	health	foodImageDisplay	2	94	34	foodImage.75	FOODEEG_Images\0763.jpg	YN	Left	Yes	1.02186139998958	0	441869	252
865.087890625	1.02186139998958	health	choicePhaseStart	2	94	34	foodImage.75	FOODEEG_Images\0763.jpg	YN	Left	Yes	1.02186139998958	0	442926	253
866.099609375	0	health	response	2	94	34	foodImage.75	FOODEEG_Images\0763.jpg	YN	Left	Yes	1.02186139998958	0	443444	234
867.142578125	1	health	trialStart	2	95	35	foodImage.69	FOODEEG_Images\0693.jpg	NY	Left	No	1.87018700002227	0	443978	251
868.185546875	2	health	foodImageDisplay	2	95	35	foodImage.69	FOODEEG_Images\0693.jpg	NY	Left	No	1.87018700002227	0	444512	252
870.248046875	1.87018700002227	health	choicePhaseStart	2	95	35	foodImage.69	FOODEEG_Images\0693.jpg	NY	Left	No	1.87018700002227	0	445568	253
872.107421875	0	health	response	2	95	35	foodImage.69	FOODEEG_Images\0693.jpg	NY	Left	No	1.87018700002227	0	446520	234
873.150390625	1	health	trialStart	2	96	36	foodImage.94	FOODEEG_Images\0902.jpg	NY	Left	No	1.61331939999945	0	447054	251
874.1875	2	health	foodImageDisplay	2	96	36	foodImage.94	FOODEEG_Images\0902.jpg	NY	Left	No	1.61331939999945	0	447585	252
876.25390625	1.61331939999945	health	choicePhaseStart	2	96	36	foodImage.94	FOODEEG_Images\0902.jpg	NY	Left	No	1.61331939999945	0	448643	253
877.859375	0	health	response	2	96	36	foodImage.94	FOODEEG_Images\0902.jpg	NY	Left	No	1.61331939999945	0	449465	234
878.900390625	1	decision	trialStart	2	97	37	foodImage.14	FOODEEG_Images\0188.jpg	NY	Right	Yes	0.782698899973184	0	449998	251
879.958984375	2	decision	foodImageDisplay	2	97	37	foodImage.14	FOODEEG_Images\0188.jpg	NY	Right	Yes	0.782698899973184	0	450540	252
882.021484375	0.782698899973184	decision	choicePhaseStart	2	97	37	foodImage.14	FOODEEG_Images\0188.jpg	NY	Right	Yes	0.782698899973184	0	451596	253
882.794921875	0	decision	response	2	97	37	foodImage.14	FOODEEG_Images\0188.jpg	NY	Right	Yes	0.782698899973184	0	451992	235
883.837890625	1	taste	trialStart	2	98	38	foodImage.52	FOODEEG_Images\0539.jpg	YN	Left	Yes	1.29506420000689	0	452526	251
884.89453125	2	taste	foodImageDisplay	2	98	38	foodImage.52	FOODEEG_Images\0539.jpg	YN	Left	Yes	1.29506420000689	0	453067	252
886.95703125	1.29506420000689	taste	choicePhaseStart	2	98	38	foodImage.52	FOODEEG_Images\0539.jpg	YN	Left	Yes	1.29506420000689	0	454123	253
888.2421875	0	taste	response	2	98	38	foodImage.52	FOODEEG_Images\0539.jpg	YN	Left	Yes	1.29506420000689	0	454781	234
889.28125	1	health	trialStart	2	99	39	foodImage.61	FOODEEG_Images\0640.jpg	YN	Left	Yes	1.59157410002081	0	455313	251
890.32421875	2	health	foodImageDisplay	2	99	39	foodImage.61	FOODEEG_Images\0640.jpg	YN	Left	Yes	1.59157410002081	0	455847	252
892.38671875	1.59157410002081	health	choicePhaseStart	2	99	39	foodImage.61	FOODEEG_Images\0640.jpg	YN	Left	Yes	1.59157410002081	0	456903	253
893.970703125	0	health	response	2	99	39	foodImage.61	FOODEEG_Images\0640.jpg	YN	Left	Yes	1.59157410002081	0	457714	234
895.01171875	1	health	trialStart	2	100	40	foodImage.51	FOODEEG_Images\0536.jpg	YN	Right	No	2.80106259998865	0	458247	251
896.05859375	2	health	foodImageDisplay	2	100	40	foodImage.51	FOODEEG_Images\0536.jpg	YN	Right	No	2.80106259998865	0	458783	252
898.12109375	2.80106259998865	health	choicePhaseStart	2	100	40	foodImage.51	FOODEEG_Images\0536.jpg	YN	Right	No	2.80106259998865	0	459839	253
900.9140625	0	health	response	2	100	40	foodImage.51	FOODEEG_Images\0536.jpg	YN	Right	No	2.80106259998865	0	461269	235
901.95703125	1	health	trialStart	2	101	41	foodImage.50	FOODEEG_Images\0529.jpg	YN	Left	Yes	1.57513740001014	0	461803	251
903.013671875	2	health	foodImageDisplay	2	101	41	foodImage.50	FOODEEG_Images\0529.jpg	YN	Left	Yes	1.57513740001014	0	462344	252
905.076171875	1.57513740001014	health	choicePhaseStart	2	101	41	foodImage.50	FOODEEG_Images\0529.jpg	YN	Left	Yes	1.57513740001014	0	463400	253
906.642578125	0	health	response	2	101	41	foodImage.50	FOODEEG_Images\0529.jpg	YN	Left	Yes	1.57513740001014	0	464202	234
907.685546875	1	health	trialStart	2	102	42	foodImage.60	FOODEEG_Images\0614.jpg	NY	Right	Yes	0.901447999989614	0	464736	251
908.744140625	2	health	foodImageDisplay	2	102	42	foodImage.60	FOODEEG_Images\0614.jpg	NY	Right	Yes	0.901447999989614	0	465278	252
910.806640625	0.901447999989614	health	choicePhaseStart	2	102	42	foodImage.60	FOODEEG_Images\0614.jpg	NY	Right	Yes	0.901447999989614	0	466334	253
911.697265625	0	health	response	2	102	42	foodImage.60	FOODEEG_Images\0614.jpg	NY	Right	Yes	0.901447999989614	0	466790	235
912.7421875	1	decision	trialStart	2	103	43	foodImage.48	FOODEEG_Images\0494.jpg	YN	Right	No	1.25228499999503	0	467325	251
913.78515625	2	decision	foodImageDisplay	2	103	43	foodImage.48	FOODEEG_Images\0494.jpg	YN	Right	No	1.25228499999503	0	467859	252
915.845703125	1.25228499999503	decision	choicePhaseStart	2	103	43	foodImage.48	FOODEEG_Images\0494.jpg	YN	Right	No	1.25228499999503	0	468914	253
917.08984375	0	decision	response	2	103	43	foodImage.48	FOODEEG_Images\0494.jpg	YN	Right	No	1.25228499999503	0	469551	235
918.1328125	1	decision	trialStart	2	104	44	foodImage.8	FOODEEG_Images\0136.jpg	NY	Left	No	1.09482510003727	0	470085	251
919.173828125	2	decision	foodImageDisplay	2	104	44	foodImage.8	FOODEEG_Images\0136.jpg	NY	Left	No	1.09482510003727	0	470618	252
921.236328125	1.09482510003727	decision	choicePhaseStart	2	104	44	foodImage.8	FOODEEG_Images\0136.jpg	NY	Left	No	1.09482510003727	0	471674	253
922.322265625	0	decision	response	2	104	44	foodImage.8	FOODEEG_Images\0136.jpg	NY	Left	No	1.09482510003727	0	472230	234
923.361328125	1	taste	trialStart	2	105	45	foodImage.101	FOODEEG_Images\0909.jpg	YN	Right	No	1.9154533999972	0	472762	251
924.400390625	2	taste	foodImageDisplay	2	105	45	foodImage.101	FOODEEG_Images\0909.jpg	YN	Right	No	1.9154533999972	0	473294	252
926.462890625	1.9154533999972	taste	choicePhaseStart	2	105	45	foodImage.101	FOODEEG_Images\0909.jpg	YN	Right	No	1.9154533999972	0	474350	253
928.369140625	0	taste	response	2	105	45	foodImage.101	FOODEEG_Images\0909.jpg	YN	Right	No	1.9154533999972	0	475326	235
929.41796875	1	taste	trialStart	2	106	46	foodImage.100	FOODEEG_Images\0908.jpg	NY	Left	No	1.18012509995606	0	475863	251
930.455078125	2	taste	foodImageDisplay	2	106	46	foodImage.100	FOODEEG_Images\0908.jpg	NY	Left	No	1.18012509995606	0	476394	252
932.517578125	1.18012509995606	taste	choicePhaseStart	2	106	46	foodImage.100	FOODEEG_Images\0908.jpg	NY	Left	No	1.18012509995606	0	477450	253
933.689453125	0	taste	response	2	106	46	foodImage.100	FOODEEG_Images\0908.jpg	NY	Left	No	1.18012509995606	0	478050	234
934.73046875	1	decision	trialStart	2	107	47	foodImage.16	FOODEEG_Images\0196.jpg	YN	Right	No	2.06355969997821	0	478583	251
935.7890625	2	decision	foodImageDisplay	2	107	47	foodImage.16	FOODEEG_Images\0196.jpg	YN	Right	No	2.06355969997821	0	479125	252
937.8515625	2.06355969997821	decision	choicePhaseStart	2	107	47	foodImage.16	FOODEEG_Images\0196.jpg	YN	Right	No	2.06355969997821	0	480181	253
939.904296875	0	decision	response	2	107	47	foodImage.16	FOODEEG_Images\0196.jpg	YN	Right	No	2.06355969997821	0	481232	235
940.953125	1	decision	trialStart	2	108	48	foodImage.9	FOODEEG_Images\0138.jpg	NY	Left	No	1.27153349999571	0	481769	251
942.009765625	2	decision	foodImageDisplay	2	108	48	foodImage.9	FOODEEG_Images\0138.jpg	NY	Left	No	1.27153349999571	0	482310	252
944.072265625	1.27153349999571	decision	choicePhaseStart	2	108	48	foodImage.9	FOODEEG_Images\0138.jpg	NY	Left	No	1.27153349999571	0	483366	253
945.3359375	0	decision	response	2	108	48	foodImage.9	FOODEEG_Images\0138.jpg	NY	Left	No	1.27153349999571	0	484013	234
946.376953125	1	taste	trialStart	2	109	49	foodImage.35	FOODEEG_Images\0350.jpg	NY	Right	Yes	2.54842539998936	0	484546	251
947.416015625	2	taste	foodImageDisplay	2	109	49	foodImage.35	FOODEEG_Images\0350.jpg	NY	Right	Yes	2.54842539998936	0	485078	252
949.4765625	2.54842539998936	taste	choicePhaseStart	2	109	49	foodImage.35	FOODEEG_Images\0350.jpg	NY	Right	Yes	2.54842539998936	0	486133	253
952.015625	0	taste	response	2	109	49	foodImage.35	FOODEEG_Images\0350.jpg	NY	Right	Yes	2.54842539998936	0	487433	235
953.056640625	1	health	trialStart	2	110	50	foodImage.5	FOODEEG_Images\0107.jpg	NY	Left	No	1.00881260004826	0	487966	251
954.11328125	2	health	foodImageDisplay	2	110	50	foodImage.5	FOODEEG_Images\0107.jpg	NY	Left	No	1.00881260004826	0	488507	252
956.17578125	1.00881260004826	health	choicePhaseStart	2	110	50	foodImage.5	FOODEEG_Images\0107.jpg	NY	Left	No	1.00881260004826	0	489563	253
957.17578125	0	health	response	2	110	50	foodImage.5	FOODEEG_Images\0107.jpg	NY	Left	No	1.00881260004826	0	490075	234
958.21875	1	taste	trialStart	2	111	51	foodImage.80	FOODEEG_Images\0796.jpg	NY	Right	Yes	1.09745270002168	0	490609	251
959.2734375	2	taste	foodImageDisplay	2	111	51	foodImage.80	FOODEEG_Images\0796.jpg	NY	Right	Yes	1.09745270002168	0	491149	252
961.3359375	1.09745270002168	taste	choicePhaseStart	2	111	51	foodImage.80	FOODEEG_Images\0796.jpg	NY	Right	Yes	1.09745270002168	0	492205	253
962.423828125	0	taste	response	2	111	51	foodImage.80	FOODEEG_Images\0796.jpg	NY	Right	Yes	1.09745270002168	0	492762	235
963.466796875	1	health	trialStart	2	112	52	foodImage.7	FOODEEG_Images\0116.jpg	YN	Right	No	1.07920039998135	0	493296	251
964.5078125	2	health	foodImageDisplay	2	112	52	foodImage.7	FOODEEG_Images\0116.jpg	YN	Right	No	1.07920039998135	0	493829	252
966.5703125	1.07920039998135	health	choicePhaseStart	2	112	52	foodImage.7	FOODEEG_Images\0116.jpg	YN	Right	No	1.07920039998135	0	494885	253
967.640625	0	health	response	2	112	52	foodImage.7	FOODEEG_Images\0116.jpg	YN	Right	No	1.07920039998135	0	495433	235
968.681640625	1	taste	trialStart	2	113	53	foodImage.51	FOODEEG_Images\0536.jpg	YN	Left	Yes	1.70875910000177	0	495966	251
969.724609375	2	taste	foodImageDisplay	2	113	53	foodImage.51	FOODEEG_Images\0536.jpg	YN	Left	Yes	1.70875910000177	0	496500	252
971.787109375	1.70875910000177	taste	choicePhaseStart	2	113	53	foodImage.51	FOODEEG_Images\0536.jpg	YN	Left	Yes	1.70875910000177	0	497556	253
973.48828125	0	taste	response	2	113	53	foodImage.51	FOODEEG_Images\0536.jpg	YN	Left	Yes	1.70875910000177	0	498427	234
974.529296875	1	decision	trialStart	2	114	54	foodImage.92	FOODEEG_Images\0900.jpg	YN	Right	No	0.859809699992184	0	498960	251
975.56640625	2	decision	foodImageDisplay	2	114	54	foodImage.92	FOODEEG_Images\0900.jpg	YN	Right	No	0.859809699992184	0	499491	252
977.62890625	0.859809699992184	decision	choicePhaseStart	2	114	54	foodImage.92	FOODEEG_Images\0900.jpg	YN	Right	No	0.859809699992184	0	500547	253
978.478515625	0	decision	response	2	114	54	foodImage.92	FOODEEG_Images\0900.jpg	YN	Right	No	0.859809699992184	0	500982	235
979.521484375	1	decision	trialStart	2	115	55	foodImage.51	FOODEEG_Images\0536.jpg	YN	Left	Yes	1.61990079999669	0	501516	251
980.57421875	2	decision	foodImageDisplay	2	115	55	foodImage.51	FOODEEG_Images\0536.jpg	YN	Left	Yes	1.61990079999669	0	502055	252
982.63671875	1.61990079999669	decision	choicePhaseStart	2	115	55	foodImage.51	FOODEEG_Images\0536.jpg	YN	Left	Yes	1.61990079999669	0	503111	253
984.24609375	0	decision	response	2	115	55	foodImage.51	FOODEEG_Images\0536.jpg	YN	Left	Yes	1.61990079999669	0	503935	234
985.28515625	1	decision	trialStart	2	116	56	foodImage.107	FOODEEG_Images\0915.jpg	NY	Right	Yes	1.07022360002156	0	504467	251
986.322265625	2	decision	foodImageDisplay	2	116	56	foodImage.107	FOODEEG_Images\0915.jpg	NY	Right	Yes	1.07022360002156	0	504998	252
988.384765625	1.07022360002156	decision	choicePhaseStart	2	116	56	foodImage.107	FOODEEG_Images\0915.jpg	NY	Right	Yes	1.07022360002156	0	506054	253
989.447265625	0	decision	response	2	116	56	foodImage.107	FOODEEG_Images\0915.jpg	NY	Right	Yes	1.07022360002156	0	506598	235
990.490234375	1	health	trialStart	2	117	57	foodImage.9	FOODEEG_Images\0138.jpg	NY	Left	No	1.36341700004414	0	507132	251
991.546875	2	health	foodImageDisplay	2	117	57	foodImage.9	FOODEEG_Images\0138.jpg	NY	Left	No	1.36341700004414	0	507673	252
993.609375	1.36341700004414	health	choicePhaseStart	2	117	57	foodImage.9	FOODEEG_Images\0138.jpg	NY	Left	No	1.36341700004414	0	508729	253
994.966796875	0	health	response	2	117	57	foodImage.9	FOODEEG_Images\0138.jpg	NY	Left	No	1.36341700004414	0	509424	234
996.009765625	1	decision	trialStart	2	118	58	foodImage.112	FOODEEG_Images\0920.jpg	NY	Left	No	0.751093400001992	0	509958	251
997.05078125	2	decision	foodImageDisplay	2	118	58	foodImage.112	FOODEEG_Images\0920.jpg	NY	Left	No	0.751093400001992	0	510491	252
999.11328125	0.751093400001992	decision	choicePhaseStart	2	118	58	foodImage.112	FOODEEG_Images\0920.jpg	NY	Left	No	0.751093400001992	0	511547	253
999.85546875	0	decision	response	2	118	58	foodImage.112	FOODEEG_Images\0920.jpg	NY	Left	No	0.751093400001992	0	511927	234
1000.896484375	1	health	trialStart	2	119	59	foodImage.47	FOODEEG_Images\0488.jpg	NY	Left	No	2.51973599998746	0	512460	251
1001.9375	2	health	foodImageDisplay	2	119	59	foodImage.47	FOODEEG_Images\0488.jpg	NY	Left	No	2.51973599998746	0	512993	252
1004	2.51973599998746	health	choicePhaseStart	2	119	59	foodImage.47	FOODEEG_Images\0488.jpg	NY	Left	No	2.51973599998746	0	514049	253
1006.509765625	0	health	response	2	119	59	foodImage.47	FOODEEG_Images\0488.jpg	NY	Left	No	2.51973599998746	0	515334	234
1007.552734375	1	health	trialStart	2	120	60	foodImage.19	FOODEEG_Images\0225.jpg	NY	Left	No	0.717451600008644	0	515868	251
1008.595703125	2	health	foodImageDisplay	2	120	60	foodImage.19	FOODEEG_Images\0225.jpg	NY	Left	No	0.717451600008644	0	516402	252
1010.658203125	0.717451600008644	health	choicePhaseStart	2	120	60	foodImage.19	FOODEEG_Images\0225.jpg	NY	Left	No	0.717451600008644	0	517458	253
1011.365234375	0	health	response	2	120	60	foodImage.19	FOODEEG_Images\0225.jpg	NY	Left	No	0.717451600008644	0	517820	234
1013.412109375	2.53125	n/a	blockEnd	n/a	n/a	n/a	n/a	n/a	n/a	n/a	n/a	n/a	n/a	518868	254
1015.943359375	2	n/a	blockStart	3	n/a	n/a	n/a	n/a	n/a	n/a	n/a	n/a	n/a	520164	250
1017.974609375	1	taste	trialStart	3	121	1	foodImage.92	FOODEEG_Images\0900.jpg	YN	Right	No	1.22513820003951	0	521204	251
1019.013671875	2	taste	foodImageDisplay	3	121	1	foodImage.92	FOODEEG_Images\0900.jpg	YN	Right	No	1.22513820003951	0	521736	252
1021.078125	1.22513820003951	taste	choicePhaseStart	3	121	1	foodImage.92	FOODEEG_Images\0900.jpg	YN	Right	No	1.22513820003951	0	522793	253
1022.29296875	0	taste	response	3	121	1	foodImage.92	FOODEEG_Images\0900.jpg	YN	Right	No	1.22513820003951	0	523415	235
1023.3359375	1	decision	trialStart	3	122	2	foodImage.84	FOODEEG_Images\0830.jpg	NY	Right	Yes	0.987103799998295	0	523949	251
1024.396484375	2	decision	foodImageDisplay	3	122	2	foodImage.84	FOODEEG_Images\0830.jpg	NY	Right	Yes	0.987103799998295	0	524492	252
1026.458984375	0.987103799998295	decision	choicePhaseStart	3	122	2	foodImage.84	FOODEEG_Images\0830.jpg	NY	Right	Yes	0.987103799998295	0	525548	253
1027.4375	0	decision	response	3	122	2	foodImage.84	FOODEEG_Images\0830.jpg	NY	Right	Yes	0.987103799998295	0	526049	235
1028.48046875	1	decision	trialStart	3	123	3	foodImage.103	FOODEEG_Images\0911.jpg	YN	Right	No	1.06243649998214	0	526583	251
1029.51953125	2	decision	foodImageDisplay	3	123	3	foodImage.103	FOODEEG_Images\0911.jpg	YN	Right	No	1.06243649998214	0	527115	252
1031.583984375	1.06243649998214	decision	choicePhaseStart	3	123	3	foodImage.103	FOODEEG_Images\0911.jpg	YN	Right	No	1.06243649998214	0	528172	253
1032.63671875	0	decision	response	3	123	3	foodImage.103	FOODEEG_Images\0911.jpg	YN	Right	No	1.06243649998214	0	528711	235
1033.6796875	1	decision	trialStart	3	124	4	foodImage.111	FOODEEG_Images\0919.jpg	NY	Left	No	2.24168579996331	0	529245	251
1034.716796875	2	decision	foodImageDisplay	3	124	4	foodImage.111	FOODEEG_Images\0919.jpg	NY	Left	No	2.24168579996331	0	529776	252
1036.779296875	2.24168579996331	decision	choicePhaseStart	3	124	4	foodImage.111	FOODEEG_Images\0919.jpg	NY	Left	No	2.24168579996331	0	530832	253
1039.013671875	0	decision	response	3	124	4	foodImage.111	FOODEEG_Images\0919.jpg	NY	Left	No	2.24168579996331	0	531976	234
1040.0546875	1	health	trialStart	3	125	5	foodImage.82	FOODEEG_Images\0805.jpg	YN	Right	No	1.0985494000488	0	532509	251
1041.109375	2	health	foodImageDisplay	3	125	5	foodImage.82	FOODEEG_Images\0805.jpg	YN	Right	No	1.0985494000488	0	533049	252
1043.171875	1.0985494000488	health	choicePhaseStart	3	125	5	foodImage.82	FOODEEG_Images\0805.jpg	YN	Right	No	1.0985494000488	0	534105	253
1044.259765625	0	health	response	3	125	5	foodImage.82	FOODEEG_Images\0805.jpg	YN	Right	No	1.0985494000488	0	534662	235
1045.302734375	1	taste	trialStart	3	126	6	foodImage.115	FOODEEG_Images\0923.jpg	NY	Left	No	1.00757820002036	0	535196	251
1046.34375	2	taste	foodImageDisplay	3	126	6	foodImage.115	FOODEEG_Images\0923.jpg	NY	Left	No	1.00757820002036	0	535729	252
1048.404296875	1.00757820002036	taste	choicePhaseStart	3	126	6	foodImage.115	FOODEEG_Images\0923.jpg	NY	Left	No	1.00757820002036	0	536784	253
1049.404296875	0	taste	response	3	126	6	foodImage.115	FOODEEG_Images\0923.jpg	NY	Left	No	1.00757820002036	0	537296	234
1050.447265625	1	taste	trialStart	3	127	7	foodImage.2	FOODEEG_Images\0028.jpg	YN	Right	No	1.80771249998361	0	537830	251
1051.48828125	2	taste	foodImageDisplay	3	127	7	foodImage.2	FOODEEG_Images\0028.jpg	YN	Right	No	1.80771249998361	0	538363	252
1053.548828125	1.80771249998361	taste	choicePhaseStart	3	127	7	foodImage.2	FOODEEG_Images\0028.jpg	YN	Right	No	1.80771249998361	0	539418	253
1055.34765625	0	taste	response	3	127	7	foodImage.2	FOODEEG_Images\0028.jpg	YN	Right	No	1.80771249998361	0	540339	235
1056.40234375	1	health	trialStart	3	128	8	foodImage.67	FOODEEG_Images\0679.jpg	YN	Right	No	2.03389379999135	0	540879	251
1057.462890625	2	health	foodImageDisplay	3	128	8	foodImage.67	FOODEEG_Images\0679.jpg	YN	Right	No	2.03389379999135	0	541422	252
1059.5234375	2.03389379999135	health	choicePhaseStart	3	128	8	foodImage.67	FOODEEG_Images\0679.jpg	YN	Right	No	2.03389379999135	0	542477	253
1061.548828125	0	health	response	3	128	8	foodImage.67	FOODEEG_Images\0679.jpg	YN	Right	No	2.03389379999135	0	543514	235
1062.58984375	1	health	trialStart	3	129	9	foodImage.24	FOODEEG_Images\0250.jpg	YN	Left	Yes	1.00551210000413	0	544047	251
1063.630859375	2	health	foodImageDisplay	3	129	9	foodImage.24	FOODEEG_Images\0250.jpg	YN	Left	Yes	1.00551210000413	0	544580	252
1065.693359375	1.00551210000413	health	choicePhaseStart	3	129	9	foodImage.24	FOODEEG_Images\0250.jpg	YN	Left	Yes	1.00551210000413	0	545636	253
1066.69140625	0	health	response	3	129	9	foodImage.24	FOODEEG_Images\0250.jpg	YN	Left	Yes	1.00551210000413	0	546147	234
1067.734375	1	health	trialStart	3	130	10	foodImage.3	FOODEEG_Images\0046.jpg	YN	Right	No	2.12566999997944	0	546681	251
1068.775390625	2	health	foodImageDisplay	3	130	10	foodImage.3	FOODEEG_Images\0046.jpg	YN	Right	No	2.12566999997944	0	547214	252
1070.837890625	2.12566999997944	health	choicePhaseStart	3	130	10	foodImage.3	FOODEEG_Images\0046.jpg	YN	Right	No	2.12566999997944	0	548270	253
1072.955078125	0	health	response	3	130	10	foodImage.3	FOODEEG_Images\0046.jpg	YN	Right	No	2.12566999997944	0	549354	235
1073.998046875	1	taste	trialStart	3	131	11	foodImage.87	FOODEEG_Images\0873.jpg	NY	Left	No	1.19990369997686	0	549888	251
1075.05859375	2	taste	foodImageDisplay	3	131	11	foodImage.87	FOODEEG_Images\0873.jpg	NY	Left	No	1.19990369997686	0	550431	252
1077.123046875	1.19990369997686	taste	choicePhaseStart	3	131	11	foodImage.87	FOODEEG_Images\0873.jpg	NY	Left	No	1.19990369997686	0	551488	253
1078.314453125	0	taste	response	3	131	11	foodImage.87	FOODEEG_Images\0873.jpg	NY	Left	No	1.19990369997686	0	552098	234
1079.357421875	1	decision	trialStart	3	132	12	foodImage.100	FOODEEG_Images\0908.jpg	NY	Left	No	1.19353129999945	0	552632	251
1080.39453125	2	decision	foodImageDisplay	3	132	12	foodImage.100	FOODEEG_Images\0908.jpg	NY	Left	No	1.19353129999945	0	553163	252
1082.458984375	1.19353129999945	decision	choicePhaseStart	3	132	12	foodImage.100	FOODEEG_Images\0908.jpg	NY	Left	No	1.19353129999945	0	554220	253
1083.642578125	0	decision	response	3	132	12	foodImage.100	FOODEEG_Images\0908.jpg	NY	Left	No	1.19353129999945	0	554826	234
1084.681640625	1	health	trialStart	3	133	13	foodImage.57	FOODEEG_Images\0587.jpg	YN	Right	No	1.29319959995337	0	555358	251
1085.724609375	2	health	foodImageDisplay	3	133	13	foodImage.57	FOODEEG_Images\0587.jpg	YN	Right	No	1.29319959995337	0	555892	252
1087.791015625	1.29319959995337	health	choicePhaseStart	3	133	13	foodImage.57	FOODEEG_Images\0587.jpg	YN	Right	No	1.29319959995337	0	556950	253
1089.07421875	0	health	response	3	133	13	foodImage.57	FOODEEG_Images\0587.jpg	YN	Right	No	1.29319959995337	0	557607	235
1090.115234375	1	health	trialStart	3	134	14	foodImage.112	FOODEEG_Images\0920.jpg	YN	Right	No	0.963059700035956	0	558140	251
1091.154296875	2	health	foodImageDisplay	3	134	14	foodImage.112	FOODEEG_Images\0920.jpg	YN	Right	No	0.963059700035956	0	558672	252
1093.216796875	0.963059700035956	health	choicePhaseStart	3	134	14	foodImage.112	FOODEEG_Images\0920.jpg	YN	Right	No	0.963059700035956	0	559728	253
1094.169921875	0	health	response	3	134	14	foodImage.112	FOODEEG_Images\0920.jpg	YN	Right	No	0.963059700035956	0	560216	235
1095.212890625	1	taste	trialStart	3	135	15	foodImage.10	FOODEEG_Images\0145.jpg	YN	Left	Yes	2.53927939996356	0	560750	251
1096.2734375	2	taste	foodImageDisplay	3	135	15	foodImage.10	FOODEEG_Images\0145.jpg	YN	Left	Yes	2.53927939996356	0	561293	252
1098.3359375	2.53927939996356	taste	choicePhaseStart	3	135	15	foodImage.10	FOODEEG_Images\0145.jpg	YN	Left	Yes	2.53927939996356	0	562349	253
1100.8671875	0	taste	response	3	135	15	foodImage.10	FOODEEG_Images\0145.jpg	YN	Left	Yes	2.53927939996356	0	563645	234
1101.908203125	1	health	trialStart	3	136	16	foodImage.114	FOODEEG_Images\0922.jpg	NY	Left	No	1.26615370000945	0	564178	251
1102.9453125	2	health	foodImageDisplay	3	136	16	foodImage.114	FOODEEG_Images\0922.jpg	NY	Left	No	1.26615370000945	0	564709	252
1105.0078125	1.26615370000945	health	choicePhaseStart	3	136	16	foodImage.114	FOODEEG_Images\0922.jpg	NY	Left	No	1.26615370000945	0	565765	253
1106.265625	0	health	response	3	136	16	foodImage.114	FOODEEG_Images\0922.jpg	NY	Left	No	1.26615370000945	0	566409	234
1107.30859375	1	taste	trialStart	3	137	17	foodImage.31	FOODEEG_Images\0294.jpg	YN	Left	Yes	1.35023930005264	0	566943	251
1108.353515625	2	taste	foodImageDisplay	3	137	17	foodImage.31	FOODEEG_Images\0294.jpg	YN	Left	Yes	1.35023930005264	0	567478	252
1110.419921875	1.35023930005264	taste	choicePhaseStart	3	137	17	foodImage.31	FOODEEG_Images\0294.jpg	YN	Left	Yes	1.35023930005264	0	568536	253
1111.76171875	0	taste	response	3	137	17	foodImage.31	FOODEEG_Images\0294.jpg	YN	Left	Yes	1.35023930005264	0	569223	234
1112.8046875	1	taste	trialStart	3	138	18	foodImage.71	FOODEEG_Images\0713.jpg	NY	Right	Yes	0.893576300004497	0	569757	251
1113.845703125	2	taste	foodImageDisplay	3	138	18	foodImage.71	FOODEEG_Images\0713.jpg	NY	Right	Yes	0.893576300004497	0	570290	252
1115.908203125	0.893576300004497	taste	choicePhaseStart	3	138	18	foodImage.71	FOODEEG_Images\0713.jpg	NY	Right	Yes	0.893576300004497	0	571346	253
1116.79296875	0	taste	response	3	138	18	foodImage.71	FOODEEG_Images\0713.jpg	NY	Right	Yes	0.893576300004497	0	571799	235
1117.8359375	1	taste	trialStart	3	139	19	foodImage.117	FOODEEG_Images\0925.jpg	NY	Left	No	0.969557300035376	0	572333	251
1118.873046875	2	taste	foodImageDisplay	3	139	19	foodImage.117	FOODEEG_Images\0925.jpg	NY	Left	No	0.969557300035376	0	572864	252
1120.935546875	0.969557300035376	taste	choicePhaseStart	3	139	19	foodImage.117	FOODEEG_Images\0925.jpg	NY	Left	No	0.969557300035376	0	573920	253
1121.8984375	0	taste	response	3	139	19	foodImage.117	FOODEEG_Images\0925.jpg	NY	Left	No	0.969557300035376	0	574413	234
1122.94140625	1	health	trialStart	3	140	20	foodImage.91	FOODEEG_Images\0896.jpg	YN	Right	No	1.19994790002238	0	574947	251
1123.99609375	2	health	foodImageDisplay	3	140	20	foodImage.91	FOODEEG_Images\0896.jpg	YN	Right	No	1.19994790002238	0	575487	252
1126.05859375	1.19994790002238	health	choicePhaseStart	3	140	20	foodImage.91	FOODEEG_Images\0896.jpg	YN	Right	No	1.19994790002238	0	576543	253
1127.25	0	health	response	3	140	20	foodImage.91	FOODEEG_Images\0896.jpg	YN	Right	No	1.19994790002238	0	577153	235
1128.29296875	1	health	trialStart	3	141	21	foodImage.11	FOODEEG_Images\0180.jpg	YN	Left	Yes	1.62065199995413	0	577687	251
1129.3359375	2	health	foodImageDisplay	3	141	21	foodImage.11	FOODEEG_Images\0180.jpg	YN	Left	Yes	1.62065199995413	0	578221	252
1131.396484375	1.62065199995413	health	choicePhaseStart	3	141	21	foodImage.11	FOODEEG_Images\0180.jpg	YN	Left	Yes	1.62065199995413	0	579276	253
1133.009765625	0	health	response	3	141	21	foodImage.11	FOODEEG_Images\0180.jpg	YN	Left	Yes	1.62065199995413	0	580102	234
1134.05078125	1	decision	trialStart	3	142	22	foodImage.85	FOODEEG_Images\0841.jpg	NY	Right	Yes	1.03798889997415	0	580635	251
1135.109375	2	decision	foodImageDisplay	3	142	22	foodImage.85	FOODEEG_Images\0841.jpg	NY	Right	Yes	1.03798889997415	0	581177	252
1137.171875	1.03798889997415	decision	choicePhaseStart	3	142	22	foodImage.85	FOODEEG_Images\0841.jpg	NY	Right	Yes	1.03798889997415	0	582233	253
1138.201171875	0	decision	response	3	142	22	foodImage.85	FOODEEG_Images\0841.jpg	NY	Right	Yes	1.03798889997415	0	582760	235
1139.2421875	1	taste	trialStart	3	143	23	foodImage.102	FOODEEG_Images\0910.jpg	NY	Left	No	0.922428100020625	0	583293	251
1140.28125	2	taste	foodImageDisplay	3	143	23	foodImage.102	FOODEEG_Images\0910.jpg	NY	Left	No	0.922428100020625	0	583825	252
1142.34375	0.922428100020625	taste	choicePhaseStart	3	143	23	foodImage.102	FOODEEG_Images\0910.jpg	NY	Left	No	0.922428100020625	0	584881	253
1143.2578125	0	taste	response	3	143	23	foodImage.102	FOODEEG_Images\0910.jpg	NY	Left	No	0.922428100020625	0	585349	234
1144.30078125	1	health	trialStart	3	144	24	foodImage.62	FOODEEG_Images\0644.jpg	YN	Left	Yes	0.953973199997563	0	585883	251
1145.361328125	2	health	foodImageDisplay	3	144	24	foodImage.62	FOODEEG_Images\0644.jpg	YN	Left	Yes	0.953973199997563	0	586426	252
1147.423828125	0.953973199997563	health	choicePhaseStart	3	144	24	foodImage.62	FOODEEG_Images\0644.jpg	YN	Left	Yes	0.953973199997563	0	587482	253
1148.369140625	0	health	response	3	144	24	foodImage.62	FOODEEG_Images\0644.jpg	YN	Left	Yes	0.953973199997563	0	587966	234
1149.412109375	1	taste	trialStart	3	145	25	foodImage.99	FOODEEG_Images\0907.jpg	NY	Left	No	1.47994220000692	0	588500	251
1150.451171875	2	taste	foodImageDisplay	3	145	25	foodImage.99	FOODEEG_Images\0907.jpg	NY	Left	No	1.47994220000692	0	589032	252
1152.513671875	1.47994220000692	taste	choicePhaseStart	3	145	25	foodImage.99	FOODEEG_Images\0907.jpg	NY	Left	No	1.47994220000692	0	590088	253
1153.984375	0	taste	response	3	145	25	foodImage.99	FOODEEG_Images\0907.jpg	NY	Left	No	1.47994220000692	0	590841	234
1155.033203125	1	decision	trialStart	3	146	26	foodImage.49	FOODEEG_Images\0515.jpg	YN	Right	No	1.06235419999575	0	591378	251
1156.076171875	2	decision	foodImageDisplay	3	146	26	foodImage.49	FOODEEG_Images\0515.jpg	YN	Right	No	1.06235419999575	0	591912	252
1158.138671875	1.06235419999575	decision	choicePhaseStart	3	146	26	foodImage.49	FOODEEG_Images\0515.jpg	YN	Right	No	1.06235419999575	0	592968	253
1159.19140625	0	decision	response	3	146	26	foodImage.49	FOODEEG_Images\0515.jpg	YN	Right	No	1.06235419999575	0	593507	235
1160.23828125	1	decision	trialStart	3	147	27	foodImage.102	FOODEEG_Images\0910.jpg	YN	Right	No	0.837862499989569	0	594043	251
1161.275390625	2	decision	foodImageDisplay	3	147	27	foodImage.102	FOODEEG_Images\0910.jpg	YN	Right	No	0.837862499989569	0	594574	252
1163.337890625	0.837862499989569	decision	choicePhaseStart	3	147	27	foodImage.102	FOODEEG_Images\0910.jpg	YN	Right	No	0.837862499989569	0	595630	253
1164.16796875	0	decision	response	3	147	27	foodImage.102	FOODEEG_Images\0910.jpg	YN	Right	No	0.837862499989569	0	596055	235
1165.2109375	1	decision	trialStart	3	148	28	foodImage.27	FOODEEG_Images\0263.jpg	NY	Left	No	0.981629899994005	0	596589	251
1166.25390625	2	decision	foodImageDisplay	3	148	28	foodImage.27	FOODEEG_Images\0263.jpg	NY	Left	No	0.981629899994005	0	597123	252
1168.31640625	0.981629899994005	decision	choicePhaseStart	3	148	28	foodImage.27	FOODEEG_Images\0263.jpg	NY	Left	No	0.981629899994005	0	598179	253
1169.287109375	0	decision	response	3	148	28	foodImage.27	FOODEEG_Images\0263.jpg	NY	Left	No	0.981629899994005	0	598676	234
1170.357421875	1	health	trialStart	3	149	29	foodImage.10	FOODEEG_Images\0145.jpg	YN	Right	No	0.972420500009321	0	599224	251
1171.4140625	2	health	foodImageDisplay	3	149	29	foodImage.10	FOODEEG_Images\0145.jpg	YN	Right	No	0.972420500009321	0	599765	252
1173.4765625	0.972420500009321	health	choicePhaseStart	3	149	29	foodImage.10	FOODEEG_Images\0145.jpg	YN	Right	No	0.972420500009321	0	600821	253
1174.439453125	0	health	response	3	149	29	foodImage.10	FOODEEG_Images\0145.jpg	YN	Right	No	0.972420500009321	0	601314	235
1175.482421875	1	taste	trialStart	3	150	30	foodImage.58	FOODEEG_Images\0605.jpg	YN	Right	No	1.58909820002737	0	601848	251
1176.541015625	2	taste	foodImageDisplay	3	150	30	foodImage.58	FOODEEG_Images\0605.jpg	YN	Right	No	1.58909820002737	0	602390	252
1178.603515625	1.58909820002737	taste	choicePhaseStart	3	150	30	foodImage.58	FOODEEG_Images\0605.jpg	YN	Right	No	1.58909820002737	0	603446	253
1180.18359375	0	taste	response	3	150	30	foodImage.58	FOODEEG_Images\0605.jpg	YN	Right	No	1.58909820002737	0	604255	235
1181.2265625	1	taste	trialStart	3	151	31	foodImage.38	FOODEEG_Images\0365.jpg	NY	Right	Yes	1.05588600004558	0	604789	251
1182.265625	2	taste	foodImageDisplay	3	151	31	foodImage.38	FOODEEG_Images\0365.jpg	NY	Right	Yes	1.05588600004558	0	605321	252
1184.328125	1.05588600004558	taste	choicePhaseStart	3	151	31	foodImage.38	FOODEEG_Images\0365.jpg	NY	Right	Yes	1.05588600004558	0	606377	253
1185.375	0	taste	response	3	151	31	foodImage.38	FOODEEG_Images\0365.jpg	NY	Right	Yes	1.05588600004558	0	606913	235
1186.419921875	1	decision	trialStart	3	152	32	foodImage.65	FOODEEG_Images\0658.jpg	YN	Left	Yes	1.8019375000149	0	607448	251
1187.4609375	2	decision	foodImageDisplay	3	152	32	foodImage.65	FOODEEG_Images\0658.jpg	YN	Left	Yes	1.8019375000149	0	607981	252
1189.52734375	1.8019375000149	decision	choicePhaseStart	3	152	32	foodImage.65	FOODEEG_Images\0658.jpg	YN	Left	Yes	1.8019375000149	0	609039	253
1191.318359375	0	decision	response	3	152	32	foodImage.65	FOODEEG_Images\0658.jpg	YN	Left	Yes	1.8019375000149	0	609956	234
1192.361328125	1	health	trialStart	3	153	33	foodImage.79	FOODEEG_Images\0794.jpg	NY	Right	Yes	0.907705400022678	0	610490	251
1193.40625	2	health	foodImageDisplay	3	153	33	foodImage.79	FOODEEG_Images\0794.jpg	NY	Right	Yes	0.907705400022678	0	611025	252
1195.46875	0.907705400022678	health	choicePhaseStart	3	153	33	foodImage.79	FOODEEG_Images\0794.jpg	NY	Right	Yes	0.907705400022678	0	612081	253
1196.3671875	0	health	response	3	153	33	foodImage.79	FOODEEG_Images\0794.jpg	NY	Right	Yes	0.907705400022678	0	612541	235
1197.41015625	1	health	trialStart	3	154	34	foodImage.56	FOODEEG_Images\0586.jpg	NY	Left	No	1.078202100005	0	613075	251
1198.458984375	2	health	foodImageDisplay	3	154	34	foodImage.56	FOODEEG_Images\0586.jpg	NY	Left	No	1.078202100005	0	613612	252
1200.521484375	1.078202100005	health	choicePhaseStart	3	154	34	foodImage.56	FOODEEG_Images\0586.jpg	NY	Left	No	1.078202100005	0	614668	253
1201.58984375	0	health	response	3	154	34	foodImage.56	FOODEEG_Images\0586.jpg	NY	Left	No	1.078202100005	0	615215	234
1202.638671875	1	health	trialStart	3	155	35	foodImage.8	FOODEEG_Images\0136.jpg	NY	Left	No	0.904216399998404	0	615752	251
1203.6796875	2	health	foodImageDisplay	3	155	35	foodImage.8	FOODEEG_Images\0136.jpg	NY	Left	No	0.904216399998404	0	616285	252
1205.7421875	0.904216399998404	health	choicePhaseStart	3	155	35	foodImage.8	FOODEEG_Images\0136.jpg	NY	Left	No	0.904216399998404	0	617341	253
1206.638671875	0	health	response	3	155	35	foodImage.8	FOODEEG_Images\0136.jpg	NY	Left	No	0.904216399998404	0	617800	234
1207.68359375	1	decision	trialStart	3	156	36	foodImage.94	FOODEEG_Images\0902.jpg	YN	Right	No	0.91491670004325	0	618335	251
1208.720703125	2	decision	foodImageDisplay	3	156	36	foodImage.94	FOODEEG_Images\0902.jpg	YN	Right	No	0.91491670004325	0	618866	252
1210.787109375	0.91491670004325	decision	choicePhaseStart	3	156	36	foodImage.94	FOODEEG_Images\0902.jpg	YN	Right	No	0.91491670004325	0	619924	253
1211.693359375	0	decision	response	3	156	36	foodImage.94	FOODEEG_Images\0902.jpg	YN	Right	No	0.91491670004325	0	620388	235
1212.736328125	1	decision	trialStart	3	157	37	foodImage.57	FOODEEG_Images\0587.jpg	NY	Right	Yes	1.06158559996402	0	620922	251
1213.779296875	2	decision	foodImageDisplay	3	157	37	foodImage.57	FOODEEG_Images\0587.jpg	NY	Right	Yes	1.06158559996402	0	621456	252
1215.83984375	1.06158559996402	decision	choicePhaseStart	3	157	37	foodImage.57	FOODEEG_Images\0587.jpg	NY	Right	Yes	1.06158559996402	0	622511	253
1216.89453125	0	decision	response	3	157	37	foodImage.57	FOODEEG_Images\0587.jpg	NY	Right	Yes	1.06158559996402	0	623051	235
1217.9375	1	taste	trialStart	3	158	38	foodImage.83	FOODEEG_Images\0827.jpg	YN	Left	Yes	1.22841809998499	0	623585	251
1218.994140625	2	taste	foodImageDisplay	3	158	38	foodImage.83	FOODEEG_Images\0827.jpg	YN	Left	Yes	1.22841809998499	0	624126	252
1221.056640625	1.22841809998499	taste	choicePhaseStart	3	158	38	foodImage.83	FOODEEG_Images\0827.jpg	YN	Left	Yes	1.22841809998499	0	625182	253
1222.27734375	0	taste	response	3	158	38	foodImage.83	FOODEEG_Images\0827.jpg	YN	Left	Yes	1.22841809998499	0	625807	234
1223.34375	1	decision	trialStart	3	159	39	foodImage.38	FOODEEG_Images\0365.jpg	NY	Right	Yes	0.959951700002421	0	626353	251
1224.3828125	2	decision	foodImageDisplay	3	159	39	foodImage.38	FOODEEG_Images\0365.jpg	NY	Right	Yes	0.959951700002421	0	626885	252
1226.447265625	0.959951700002421	decision	choicePhaseStart	3	159	39	foodImage.38	FOODEEG_Images\0365.jpg	NY	Right	Yes	0.959951700002421	0	627942	253
1227.3984375	0	decision	response	3	159	39	foodImage.38	FOODEEG_Images\0365.jpg	NY	Right	Yes	0.959951700002421	0	628429	235
1228.439453125	1	health	trialStart	3	160	40	foodImage.65	FOODEEG_Images\0658.jpg	NY	Right	Yes	1.6136136999703	0	628962	251
1229.482421875	2	health	foodImageDisplay	3	160	40	foodImage.65	FOODEEG_Images\0658.jpg	NY	Right	Yes	1.6136136999703	0	629496	252
1231.544921875	1.6136136999703	health	choicePhaseStart	3	160	40	foodImage.65	FOODEEG_Images\0658.jpg	NY	Right	Yes	1.6136136999703	0	630552	253
1233.1484375	0	health	response	3	160	40	foodImage.65	FOODEEG_Images\0658.jpg	NY	Right	Yes	1.6136136999703	0	631373	235
1234.193359375	1	health	trialStart	3	161	41	foodImage.66	FOODEEG_Images\0676.jpg	NY	Left	No	1.49986580002587	0	631908	251
1235.244140625	2	health	foodImageDisplay	3	161	41	foodImage.66	FOODEEG_Images\0676.jpg	NY	Left	No	1.49986580002587	0	632446	252
1237.306640625	1.49986580002587	health	choicePhaseStart	3	161	41	foodImage.66	FOODEEG_Images\0676.jpg	NY	Left	No	1.49986580002587	0	633502	253
1238.796875	0	health	response	3	161	41	foodImage.66	FOODEEG_Images\0676.jpg	NY	Left	No	1.49986580002587	0	634265	234
1239.85546875	1	decision	trialStart	3	162	42	foodImage.40	FOODEEG_Images\0373.jpg	NY	Right	Yes	1.475827199989	0	634807	251
1240.8984375	2	decision	foodImageDisplay	3	162	42	foodImage.40	FOODEEG_Images\0373.jpg	NY	Right	Yes	1.475827199989	0	635341	252
1242.9609375	1.475827199989	decision	choicePhaseStart	3	162	42	foodImage.40	FOODEEG_Images\0373.jpg	NY	Right	Yes	1.475827199989	0	636397	253
1244.4296875	0	decision	response	3	162	42	foodImage.40	FOODEEG_Images\0373.jpg	NY	Right	Yes	1.475827199989	0	637149	235
1245.47265625	1	taste	trialStart	3	163	43	foodImage.33	FOODEEG_Images\0329.jpg	NY	Left	No	1.07434719998855	0	637683	251
1246.515625	2	taste	foodImageDisplay	3	163	43	foodImage.33	FOODEEG_Images\0329.jpg	NY	Left	No	1.07434719998855	0	638217	252
1248.578125	1.07434719998855	taste	choicePhaseStart	3	163	43	foodImage.33	FOODEEG_Images\0329.jpg	NY	Left	No	1.07434719998855	0	639273	253
1249.64453125	0	taste	response	3	163	43	foodImage.33	FOODEEG_Images\0329.jpg	NY	Left	No	1.07434719998855	0	639819	234
1250.6875	1	taste	trialStart	3	164	44	foodImage.59	FOODEEG_Images\0607.jpg	YN	Right	No	1.64266510005109	0	640353	251
1251.740234375	2	taste	foodImageDisplay	3	164	44	foodImage.59	FOODEEG_Images\0607.jpg	YN	Right	No	1.64266510005109	0	640892	252
1253.802734375	1.64266510005109	taste	choicePhaseStart	3	164	44	foodImage.59	FOODEEG_Images\0607.jpg	YN	Right	No	1.64266510005109	0	641948	253
1255.435546875	0	taste	response	3	164	44	foodImage.59	FOODEEG_Images\0607.jpg	YN	Right	No	1.64266510005109	0	642784	235
1256.484375	1	taste	trialStart	3	165	45	foodImage.40	FOODEEG_Images\0373.jpg	NY	Right	Yes	0.860994499991648	0	643321	251
1257.529296875	2	taste	foodImageDisplay	3	165	45	foodImage.40	FOODEEG_Images\0373.jpg	NY	Right	Yes	0.860994499991648	0	643856	252
1259.591796875	0.860994499991648	taste	choicePhaseStart	3	165	45	foodImage.40	FOODEEG_Images\0373.jpg	NY	Right	Yes	0.860994499991648	0	644912	253
1260.443359375	0	taste	response	3	165	45	foodImage.40	FOODEEG_Images\0373.jpg	NY	Right	Yes	0.860994499991648	0	645348	235
1261.4921875	1	decision	trialStart	3	166	46	foodImage.62	FOODEEG_Images\0644.jpg	YN	Left	Yes	2.10803719999967	0	645885	251
1262.548828125	2	decision	foodImageDisplay	3	166	46	foodImage.62	FOODEEG_Images\0644.jpg	YN	Left	Yes	2.10803719999967	0	646426	252
1264.615234375	2.10803719999967	decision	choicePhaseStart	3	166	46	foodImage.62	FOODEEG_Images\0644.jpg	YN	Left	Yes	2.10803719999967	0	647484	253
1266.71484375	0	decision	response	3	166	46	foodImage.62	FOODEEG_Images\0644.jpg	YN	Left	Yes	2.10803719999967	0	648559	234
1267.76171875	1	taste	trialStart	3	167	47	foodImage.32	FOODEEG_Images\0319.jpg	YN	Right	No	1.58520120003959	0	649095	251
1268.8046875	2	taste	foodImageDisplay	3	167	47	foodImage.32	FOODEEG_Images\0319.jpg	YN	Right	No	1.58520120003959	0	649629	252
1270.8671875	1.58520120003959	taste	choicePhaseStart	3	167	47	foodImage.32	FOODEEG_Images\0319.jpg	YN	Right	No	1.58520120003959	0	650685	253
1272.443359375	0	taste	response	3	167	47	foodImage.32	FOODEEG_Images\0319.jpg	YN	Right	No	1.58520120003959	0	651492	235
1273.486328125	1	taste	trialStart	3	168	48	foodImage.19	FOODEEG_Images\0225.jpg	NY	Left	No	1.53150939999614	0	652026	251
1274.529296875	2	taste	foodImageDisplay	3	168	48	foodImage.19	FOODEEG_Images\0225.jpg	NY	Left	No	1.53150939999614	0	652560	252
1276.591796875	1.53150939999614	taste	choicePhaseStart	3	168	48	foodImage.19	FOODEEG_Images\0225.jpg	NY	Left	No	1.53150939999614	0	653616	253
1278.115234375	0	taste	response	3	168	48	foodImage.19	FOODEEG_Images\0225.jpg	NY	Left	No	1.53150939999614	0	654396	234
1279.162109375	1	decision	trialStart	3	169	49	foodImage.59	FOODEEG_Images\0607.jpg	YN	Right	No	0.797427500016056	0	654932	251
1280.224609375	2	decision	foodImageDisplay	3	169	49	foodImage.59	FOODEEG_Images\0607.jpg	YN	Right	No	0.797427500016056	0	655476	252
1282.287109375	0.797427500016056	decision	choicePhaseStart	3	169	49	foodImage.59	FOODEEG_Images\0607.jpg	YN	Right	No	0.797427500016056	0	656532	253
1283.07421875	0	decision	response	3	169	49	foodImage.59	FOODEEG_Images\0607.jpg	YN	Right	No	0.797427500016056	0	656935	235
1284.119140625	1	health	trialStart	3	170	50	foodImage.63	FOODEEG_Images\0645.jpg	NY	Left	No	1.09170049999375	0	657470	251
1285.1640625	2	health	foodImageDisplay	3	170	50	foodImage.63	FOODEEG_Images\0645.jpg	NY	Left	No	1.09170049999375	0	658005	252
1287.23046875	1.09170049999375	health	choicePhaseStart	3	170	50	foodImage.63	FOODEEG_Images\0645.jpg	NY	Left	No	1.09170049999375	0	659063	253
1288.314453125	0	health	response	3	170	50	foodImage.63	FOODEEG_Images\0645.jpg	NY	Left	No	1.09170049999375	0	659618	234
1289.35546875	1	taste	trialStart	3	171	51	foodImage.37	FOODEEG_Images\0359.jpg	NY	Left	No	0.756888800009619	0	660151	251
1290.396484375	2	taste	foodImageDisplay	3	171	51	foodImage.37	FOODEEG_Images\0359.jpg	NY	Left	No	0.756888800009619	0	660684	252
1292.4609375	0.756888800009619	taste	choicePhaseStart	3	171	51	foodImage.37	FOODEEG_Images\0359.jpg	NY	Left	No	0.756888800009619	0	661741	253
1293.2109375	0	taste	response	3	171	51	foodImage.37	FOODEEG_Images\0359.jpg	NY	Left	No	0.756888800009619	0	662125	234
1294.25390625	1	decision	trialStart	3	172	52	foodImage.89	FOODEEG_Images\0881.jpg	YN	Left	Yes	0.881236699991859	0	662659	251
1295.306640625	2	decision	foodImageDisplay	3	172	52	foodImage.89	FOODEEG_Images\0881.jpg	YN	Left	Yes	0.881236699991859	0	663198	252
1297.369140625	0.881236699991859	decision	choicePhaseStart	3	172	52	foodImage.89	FOODEEG_Images\0881.jpg	YN	Left	Yes	0.881236699991859	0	664254	253
1298.2421875	0	decision	response	3	172	52	foodImage.89	FOODEEG_Images\0881.jpg	YN	Left	Yes	0.881236699991859	0	664701	234
1299.28515625	1	decision	trialStart	3	173	53	foodImage.6	FOODEEG_Images\0113.jpg	YN	Left	Yes	1.09715050004888	0	665235	251
1300.33984375	2	decision	foodImageDisplay	3	173	53	foodImage.6	FOODEEG_Images\0113.jpg	YN	Left	Yes	1.09715050004888	0	665775	252
1302.40234375	1.09715050004888	decision	choicePhaseStart	3	173	53	foodImage.6	FOODEEG_Images\0113.jpg	YN	Left	Yes	1.09715050004888	0	666831	253
1303.490234375	0	decision	response	3	173	53	foodImage.6	FOODEEG_Images\0113.jpg	YN	Left	Yes	1.09715050004888	0	667388	234
1304.533203125	1	decision	trialStart	3	174	54	foodImage.60	FOODEEG_Images\0614.jpg	NY	Right	Yes	0.717414700018708	0	667922	251
1305.591796875	2	decision	foodImageDisplay	3	174	54	foodImage.60	FOODEEG_Images\0614.jpg	NY	Right	Yes	0.717414700018708	0	668464	252
1307.654296875	0.717414700018708	decision	choicePhaseStart	3	174	54	foodImage.60	FOODEEG_Images\0614.jpg	NY	Right	Yes	0.717414700018708	0	669520	253
1308.361328125	0	decision	response	3	174	54	foodImage.60	FOODEEG_Images\0614.jpg	NY	Right	Yes	0.717414700018708	0	669882	235
1309.40625	1	health	trialStart	3	175	55	foodImage.101	FOODEEG_Images\0909.jpg	YN	Right	No	0.833786499977577	0	670417	251
1310.443359375	2	health	foodImageDisplay	3	175	55	foodImage.101	FOODEEG_Images\0909.jpg	YN	Right	No	0.833786499977577	0	670948	252
1312.505859375	0.833786499977577	health	choicePhaseStart	3	175	55	foodImage.101	FOODEEG_Images\0909.jpg	YN	Right	No	0.833786499977577	0	672004	253
1313.330078125	0	health	response	3	175	55	foodImage.101	FOODEEG_Images\0909.jpg	YN	Right	No	0.833786499977577	0	672426	235
1314.373046875	1	decision	trialStart	3	176	56	foodImage.68	FOODEEG_Images\0685.jpg	NY	Right	Yes	0.851026499993168	0	672960	251
1315.44921875	2	decision	foodImageDisplay	3	176	56	foodImage.68	FOODEEG_Images\0685.jpg	NY	Right	Yes	0.851026499993168	0	673511	252
1317.51171875	0.851026499993168	decision	choicePhaseStart	3	176	56	foodImage.68	FOODEEG_Images\0685.jpg	NY	Right	Yes	0.851026499993168	0	674567	253
1318.353515625	0	decision	response	3	176	56	foodImage.68	FOODEEG_Images\0685.jpg	NY	Right	Yes	0.851026499993168	0	674998	235
1319.396484375	1	health	trialStart	3	177	57	foodImage.1	FOODEEG_Images\0004.jpg	NY	Left	No	0.765471099992283	0	675532	251
1320.439453125	2	health	foodImageDisplay	3	177	57	foodImage.1	FOODEEG_Images\0004.jpg	NY	Left	No	0.765471099992283	0	676066	252
1322.5	0.765471099992283	health	choicePhaseStart	3	177	57	foodImage.1	FOODEEG_Images\0004.jpg	NY	Left	No	0.765471099992283	0	677121	253
1323.2578125	0	health	response	3	177	57	foodImage.1	FOODEEG_Images\0004.jpg	NY	Left	No	0.765471099992283	0	677509	234
1324.30078125	1	decision	trialStart	3	178	58	foodImage.44	FOODEEG_Images\0459.jpg	NY	Left	No	1.66636430000653	0	678043	251
1325.34375	2	decision	foodImageDisplay	3	178	58	foodImage.44	FOODEEG_Images\0459.jpg	NY	Left	No	1.66636430000653	0	678577	252
1327.408203125	1.66636430000653	decision	choicePhaseStart	3	178	58	foodImage.44	FOODEEG_Images\0459.jpg	NY	Left	No	1.66636430000653	0	679634	253
1329.064453125	0	decision	response	3	178	58	foodImage.44	FOODEEG_Images\0459.jpg	NY	Left	No	1.66636430000653	0	680482	234
1330.107421875	1	decision	trialStart	3	179	59	foodImage.31	FOODEEG_Images\0294.jpg	YN	Left	Yes	0.933196500001941	0	681016	251
1331.1484375	2	decision	foodImageDisplay	3	179	59	foodImage.31	FOODEEG_Images\0294.jpg	YN	Left	Yes	0.933196500001941	0	681549	252
1333.212890625	0.933196500001941	decision	choicePhaseStart	3	179	59	foodImage.31	FOODEEG_Images\0294.jpg	YN	Left	Yes	0.933196500001941	0	682606	253
1334.13671875	0	decision	response	3	179	59	foodImage.31	FOODEEG_Images\0294.jpg	YN	Left	Yes	0.933196500001941	0	683079	234
1335.1796875	1	health	trialStart	3	180	60	foodImage.33	FOODEEG_Images\0329.jpg	YN	Left	Yes	1.33293679996859	0	683613	251
1336.220703125	2	health	foodImageDisplay	3	180	60	foodImage.33	FOODEEG_Images\0329.jpg	YN	Left	Yes	1.33293679996859	0	684146	252
1338.283203125	1.33293679996859	health	choicePhaseStart	3	180	60	foodImage.33	FOODEEG_Images\0329.jpg	YN	Left	Yes	1.33293679996859	0	685202	253
1339.609375	0	health	response	3	180	60	foodImage.33	FOODEEG_Images\0329.jpg	YN	Left	Yes	1.33293679996859	0	685881	234
1341.65234375	3.009765625	n/a	blockEnd	n/a	n/a	n/a	n/a	n/a	n/a	n/a	n/a	n/a	n/a	686927	254
1344.662109375	2	n/a	blockStart	4	n/a	n/a	n/a	n/a	n/a	n/a	n/a	n/a	n/a	688468	250
1346.693359375	1	taste	trialStart	4	181	1	foodImage.26	FOODEEG_Images\0262.jpg	NY	Left	No	0.952342200034764	0	689508	251
1347.736328125	2	taste	foodImageDisplay	4	181	1	foodImage.26	FOODEEG_Images\0262.jpg	NY	Left	No	0.952342200034764	0	690042	252
1349.80078125	0.952342200034764	taste	choicePhaseStart	4	181	1	foodImage.26	FOODEEG_Images\0262.jpg	NY	Left	No	0.952342200034764	0	691099	253
1350.744140625	0	taste	response	4	181	1	foodImage.26	FOODEEG_Images\0262.jpg	NY	Left	No	0.952342200034764	0	691582	234
1351.7890625	1	health	trialStart	4	182	2	foodImage.37	FOODEEG_Images\0359.jpg	NY	Right	Yes	1.26794069999596	0	692117	251
1352.83203125	2	health	foodImageDisplay	4	182	2	foodImage.37	FOODEEG_Images\0359.jpg	NY	Right	Yes	1.26794069999596	0	692651	252
1354.89453125	1.26794069999596	health	choicePhaseStart	4	182	2	foodImage.37	FOODEEG_Images\0359.jpg	NY	Right	Yes	1.26794069999596	0	693707	253
1356.15234375	0	health	response	4	182	2	foodImage.37	FOODEEG_Images\0359.jpg	NY	Right	Yes	1.26794069999596	0	694351	235
1357.201171875	1	decision	trialStart	4	183	3	foodImage.24	FOODEEG_Images\0250.jpg	NY	Left	No	1.31839079997735	0	694888	251
1358.2421875	2	decision	foodImageDisplay	4	183	3	foodImage.24	FOODEEG_Images\0250.jpg	NY	Left	No	1.31839079997735	0	695421	252
1360.306640625	1.31839079997735	decision	choicePhaseStart	4	183	3	foodImage.24	FOODEEG_Images\0250.jpg	NY	Left	No	1.31839079997735	0	696478	253
1361.615234375	0	decision	response	4	183	3	foodImage.24	FOODEEG_Images\0250.jpg	NY	Left	No	1.31839079997735	0	697148	234
1362.662109375	1	health	trialStart	4	184	4	foodImage.104	FOODEEG_Images\0912.jpg	YN	Right	No	2.76544190000277	0	697684	251
1363.701171875	2	health	foodImageDisplay	4	184	4	foodImage.104	FOODEEG_Images\0912.jpg	YN	Right	No	2.76544190000277	0	698216	252
1365.763671875	2.76544190000277	health	choicePhaseStart	4	184	4	foodImage.104	FOODEEG_Images\0912.jpg	YN	Right	No	2.76544190000277	0	699272	253
1368.51953125	0	health	response	4	184	4	foodImage.104	FOODEEG_Images\0912.jpg	YN	Right	No	2.76544190000277	0	700683	235
1369.5625	1	taste	trialStart	4	185	5	foodImage.53	FOODEEG_Images\0547.jpg	NY	Right	Yes	1.28555139998207	0	701217	251
1370.62109375	2	taste	foodImageDisplay	4	185	5	foodImage.53	FOODEEG_Images\0547.jpg	NY	Right	Yes	1.28555139998207	0	701759	252
1372.681640625	1.28555139998207	taste	choicePhaseStart	4	185	5	foodImage.53	FOODEEG_Images\0547.jpg	NY	Right	Yes	1.28555139998207	0	702814	253
1373.958984375	0	taste	response	4	185	5	foodImage.53	FOODEEG_Images\0547.jpg	NY	Right	Yes	1.28555139998207	0	703468	235
1375.00390625	1	health	trialStart	4	186	6	foodImage.64	FOODEEG_Images\0647.jpg	YN	Left	Yes	1.74675240000943	0	704003	251
1376.0625	2	health	foodImageDisplay	4	186	6	foodImage.64	FOODEEG_Images\0647.jpg	YN	Left	Yes	1.74675240000943	0	704545	252
1378.125	1.74675240000943	health	choicePhaseStart	4	186	6	foodImage.64	FOODEEG_Images\0647.jpg	YN	Left	Yes	1.74675240000943	0	705601	253
1379.86328125	0	health	response	4	186	6	foodImage.64	FOODEEG_Images\0647.jpg	YN	Left	Yes	1.74675240000943	0	706491	234
1380.90625	1	health	trialStart	4	187	7	foodImage.116	FOODEEG_Images\0924.jpg	NY	Left	No	0.999315800028853	0	707025	251
1381.9453125	2	health	foodImageDisplay	4	187	7	foodImage.116	FOODEEG_Images\0924.jpg	NY	Left	No	0.999315800028853	0	707557	252
1384.0078125	0.999315800028853	health	choicePhaseStart	4	187	7	foodImage.116	FOODEEG_Images\0924.jpg	NY	Left	No	0.999315800028853	0	708613	253
1385	0	health	response	4	187	7	foodImage.116	FOODEEG_Images\0924.jpg	NY	Left	No	0.999315800028853	0	709121	234
1386.04296875	1	decision	trialStart	4	188	8	foodImage.25	FOODEEG_Images\0261.jpg	NY	Right	Yes	2.21274240000639	0	709655	251
1387.083984375	2	decision	foodImageDisplay	4	188	8	foodImage.25	FOODEEG_Images\0261.jpg	NY	Right	Yes	2.21274240000639	0	710188	252
1389.146484375	2.21274240000639	decision	choicePhaseStart	4	188	8	foodImage.25	FOODEEG_Images\0261.jpg	NY	Right	Yes	2.21274240000639	0	711244	253
1391.3515625	0	decision	response	4	188	8	foodImage.25	FOODEEG_Images\0261.jpg	NY	Right	Yes	2.21274240000639	0	712373	235
1392.400390625	1	health	trialStart	4	189	9	foodImage.108	FOODEEG_Images\0916.jpg	NY	Left	No	0.786248399992473	0	712910	251
1393.439453125	2	health	foodImageDisplay	4	189	9	foodImage.108	FOODEEG_Images\0916.jpg	NY	Left	No	0.786248399992473	0	713442	252
1395.501953125	0.786248399992473	health	choicePhaseStart	4	189	9	foodImage.108	FOODEEG_Images\0916.jpg	NY	Left	No	0.786248399992473	0	714498	253
1396.279296875	0	health	response	4	189	9	foodImage.108	FOODEEG_Images\0916.jpg	NY	Left	No	0.786248399992473	0	714896	234
1397.322265625	1	taste	trialStart	4	190	10	foodImage.43	FOODEEG_Images\0445.jpg	NY	Left	No	1.84765410004184	0	715430	251
1398.37890625	2	taste	foodImageDisplay	4	190	10	foodImage.43	FOODEEG_Images\0445.jpg	NY	Left	No	1.84765410004184	0	715971	252
1400.439453125	1.84765410004184	taste	choicePhaseStart	4	190	10	foodImage.43	FOODEEG_Images\0445.jpg	NY	Left	No	1.84765410004184	0	717026	253
1402.27734375	0	taste	response	4	190	10	foodImage.43	FOODEEG_Images\0445.jpg	NY	Left	No	1.84765410004184	0	717967	234
1403.3203125	1	health	trialStart	4	191	11	foodImage.52	FOODEEG_Images\0539.jpg	NY	Right	Yes	0.917987099965103	0	718501	251
1404.37890625	2	health	foodImageDisplay	4	191	11	foodImage.52	FOODEEG_Images\0539.jpg	NY	Right	Yes	0.917987099965103	0	719043	252
1406.44140625	0.917987099965103	health	choicePhaseStart	4	191	11	foodImage.52	FOODEEG_Images\0539.jpg	NY	Right	Yes	0.917987099965103	0	720099	253
1407.349609375	0	health	response	4	191	11	foodImage.52	FOODEEG_Images\0539.jpg	NY	Right	Yes	0.917987099965103	0	720564	235
1408.392578125	1	decision	trialStart	4	192	12	foodImage.109	FOODEEG_Images\0917.jpg	NY	Right	Yes	1.10478629998397	0	721098	251
1409.431640625	2	decision	foodImageDisplay	4	192	12	foodImage.109	FOODEEG_Images\0917.jpg	NY	Right	Yes	1.10478629998397	0	721630	252
1411.494140625	1.10478629998397	decision	choicePhaseStart	4	192	12	foodImage.109	FOODEEG_Images\0917.jpg	NY	Right	Yes	1.10478629998397	0	722686	253
1412.58984375	0	decision	response	4	192	12	foodImage.109	FOODEEG_Images\0917.jpg	NY	Right	Yes	1.10478629998397	0	723247	235
1413.630859375	1	decision	trialStart	4	193	13	foodImage.63	FOODEEG_Images\0645.jpg	YN	Right	No	1.84917250002036	0	723780	251
1414.671875	2	decision	foodImageDisplay	4	193	13	foodImage.63	FOODEEG_Images\0645.jpg	YN	Right	No	1.84917250002036	0	724313	252
1416.734375	1.84917250002036	decision	choicePhaseStart	4	193	13	foodImage.63	FOODEEG_Images\0645.jpg	YN	Right	No	1.84917250002036	0	725369	253
1418.57421875	0	decision	response	4	193	13	foodImage.63	FOODEEG_Images\0645.jpg	YN	Right	No	1.84917250002036	0	726311	235
1419.623046875	1	decision	trialStart	4	194	14	foodImage.10	FOODEEG_Images\0145.jpg	NY	Left	No	0.822579000028782	0	726848	251
1420.68359375	2	decision	foodImageDisplay	4	194	14	foodImage.10	FOODEEG_Images\0145.jpg	NY	Left	No	0.822579000028782	0	727391	252
1422.744140625	0.822579000028782	decision	choicePhaseStart	4	194	14	foodImage.10	FOODEEG_Images\0145.jpg	NY	Left	No	0.822579000028782	0	728446	253
1423.55859375	0	decision	response	4	194	14	foodImage.10	FOODEEG_Images\0145.jpg	NY	Left	No	0.822579000028782	0	728863	234
1424.6015625	1	taste	trialStart	4	195	15	foodImage.67	FOODEEG_Images\0679.jpg	NY	Left	No	1.88602299999911	0	729397	251
1425.658203125	2	taste	foodImageDisplay	4	195	15	foodImage.67	FOODEEG_Images\0679.jpg	NY	Left	No	1.88602299999911	0	729938	252
