onset	duration	trial_type	event_type	block	trial_total	trial_in_block	food_image_code	food_image_path	button_position	resp_position	resp_choice	choice_rt	resp_too_slow	sample	trigger
303.953125	2	n/a	blockStart	1	n/a	n/a	n/a	n/a	n/a	n/a	n/a	n/a	n/a	155625	250
305.9921875	1	decision	trialStart	1	1	1	foodImage.54	FOODEEG_Images\0560.jpg	YN	Left	Yes	1.75871009984985	0	156669	251
307.087890625	2	decision	foodImageDisplay	1	1	1	foodImage.54	FOODEEG_Images\0560.jpg	YN	Left	Yes	1.75871009984985	0	157230	252
309.154296875	1.75871009984985	decision	choicePhaseStart	1	1	1	foodImage.54	FOODEEG_Images\0560.jpg	YN	Left	Yes	1.75871009984985	0	158288	253
310.904296875	0	decision	response	1	1	1	foodImage.54	FOODEEG_Images\0560.jpg	YN	Left	Yes	1.75871009984985	0	159184	234
312.017578125	1	decision	trialStart	1	2	2	foodImage.3	FOODEEG_Images\0046.jpg	NY	Right	Yes	1.33177170017734	0	159754	251
313.060546875	2	decision	foodImageDisplay	1	2	2	foodImage.3	FOODEEG_Images\0046.jpg	NY	Right	Yes	1.33177170017734	0	160288	252
315.125	1.33177170017734	decision	choicePhaseStart	1	2	2	foodImage.3	FOODEEG_Images\0046.jpg	NY	Right	Yes	1.33177170017734	0	161345	253
316.447265625	0	decision	response	1	2	2	foodImage.3	FOODEEG_Images\0046.jpg	NY	Right	Yes	1.33177170017734	0	162022	235
317.5	1	health	trialStart	1	3	3	foodImage.8	FOODEEG_Images\0136.jpg	YN	Right	No	1.19442639965564	0	162561	251
318.54296875	2	health	foodImageDisplay	1	3	3	foodImage.8	FOODEEG_Images\0136.jpg	YN	Right	No	1.19442639965564	0	163095	252
320.60546875	1.19442639965564	health	choicePhaseStart	1	3	3	foodImage.8	FOODEEG_Images\0136.jpg	YN	Right	No	1.19442639965564	0	164151	253
321.791015625	0	health	response	1	3	3	foodImage.8	FOODEEG_Images\0136.jpg	YN	Right	No	1.19442639965564	0	164758	235
322.833984375	1	decision	trialStart	1	4	4	foodImage.64	FOODEEG_Images\0647.jpg	YN	Left	Yes	1.60549029987305	0	165292	251
323.890625	2	decision	foodImageDisplay	1	4	4	foodImage.64	FOODEEG_Images\0647.jpg	YN	Left	Yes	1.60549029987305	0	165833	252
325.953125	1.60549029987305	decision	choicePhaseStart	1	4	4	foodImage.64	FOODEEG_Images\0647.jpg	YN	Left	Yes	1.60549029987305	0	166889	253
327.55078125	0	decision	response	1	4	4	foodImage.64	FOODEEG_Images\0647.jpg	YN	Left	Yes	1.60549029987305	0	167707	234
328.595703125	1	decision	trialStart	1	5	5	foodImage.115	FOODEEG_Images\0923.jpg	NY	Left	No	1.0146166998893	0	168242	251
329.640625	2	decision	foodImageDisplay	1	5	5	foodImage.115	FOODEEG_Images\0923.jpg	NY	Left	No	1.0146166998893	0	168777	252
331.705078125	1.0146166998893	decision	choicePhaseStart	1	5	5	foodImage.115	FOODEEG_Images\0923.jpg	NY	Left	No	1.0146166998893	0	169834	253
332.7109375	0	decision	response	1	5	5	foodImage.115	FOODEEG_Images\0923.jpg	NY	Left	No	1.0146166998893	0	170349	234
333.76171875	1	health	trialStart	1	6	6	foodImage.106	FOODEEG_Images\0914.jpg	YN	Right	No	1.59568609995767	0	170887	251
334.8046875	2	health	foodImageDisplay	1	6	6	foodImage.106	FOODEEG_Images\0914.jpg	YN	Right	No	1.59568609995767	0	171421	252
336.8671875	1.59568609995767	health	choicePhaseStart	1	6	6	foodImage.106	FOODEEG_Images\0914.jpg	YN	Right	No	1.59568609995767	0	172477	253
338.455078125	0	health	response	1	6	6	foodImage.106	FOODEEG_Images\0914.jpg	YN	Right	No	1.59568609995767	0	173290	235
339.498046875	1	taste	trialStart	1	7	7	foodImage.34	FOODEEG_Images\0339.jpg	YN	Right	No	1.52148969983682	0	173824	251
340.556640625	2	taste	foodImageDisplay	1	7	7	foodImage.34	FOODEEG_Images\0339.jpg	YN	Right	No	1.52148969983682	0	174366	252
342.619140625	1.52148969983682	taste	choicePhaseStart	1	7	7	foodImage.34	FOODEEG_Images\0339.jpg	YN	Right	No	1.52148969983682	0	175422	253
344.134765625	0	taste	response	1	7	7	foodImage.34	FOODEEG_Images\0339.jpg	YN	Right	No	1.52148969983682	0	176198	235
345.181640625	1	taste	trialStart	1	8	8	foodImage.33	FOODEEG_Images\0329.jpg	YN	Left	Yes	1.10476389992982	0	176734	251
346.22265625	2	taste	foodImageDisplay	1	8	8	foodImage.33	FOODEEG_Images\0329.jpg	YN	Left	Yes	1.10476389992982	0	177267	252
348.28515625	1.10476389992982	taste	choicePhaseStart	1	8	8	foodImage.33	FOODEEG_Images\0329.jpg	YN	Left	Yes	1.10476389992982	0	178323	253
349.3828125	0	taste	response	1	8	8	foodImage.33	FOODEEG_Images\0329.jpg	YN	Left	Yes	1.10476389992982	0	178885	234
350.421875	1	taste	trialStart	1	9	9	foodImage.24	FOODEEG_Images\0250.jpg	YN	Left	Yes	1.16797749977559	0	179417	251
351.462890625	2	taste	foodImageDisplay	1	9	9	foodImage.24	FOODEEG_Images\0250.jpg	YN	Left	Yes	1.16797749977559	0	179950	252
353.52734375	1.16797749977559	taste	choicePhaseStart	1	9	9	foodImage.24	FOODEEG_Images\0250.jpg	YN	Left	Yes	1.16797749977559	0	181007	253
354.6875	0	taste	response	1	9	9	foodImage.24	FOODEEG_Images\0250.jpg	YN	Left	Yes	1.16797749977559	0	181601	234
355.73046875	1	health	trialStart	1	10	10	foodImage.12	FOODEEG_Images\0181.jpg	YN	Right	No	1.53170179994777	0	182135	251
356.7734375	2	health	foodImageDisplay	1	10	10	foodImage.12	FOODEEG_Images\0181.jpg	YN	Right	No	1.53170179994777	0	182669	252
358.8359375	1.53170179994777	health	choicePhaseStart	1	10	10	foodImage.12	FOODEEG_Images\0181.jpg	YN	Right	No	1.53170179994777	0	183725	253
360.359375	0	health	response	1	10	10	foodImage.12	FOODEEG_Images\0181.jpg	YN	Right	No	1.53170179994777	0	184505	235
361.40234375	1	taste	trialStart	1	11	11	foodImage.54	FOODEEG_Images\0560.jpg	YN	Left	Yes	0.863566199783236	0	185039	251
362.45703125	2	taste	foodImageDisplay	1	11	11	foodImage.54	FOODEEG_Images\0560.jpg	YN	Left	Yes	0.863566199783236	0	185579	252
364.51953125	0.863566199783236	taste	choicePhaseStart	1	11	11	foodImage.54	FOODEEG_Images\0560.jpg	YN	Left	Yes	0.863566199783236	0	186635	253
365.373046875	0	taste	response	1	11	11	foodImage.54	FOODEEG_Images\0560.jpg	YN	Left	Yes	0.863566199783236	0	187072	234
366.416015625	1	health	trialStart	1	12	12	foodImage.109	FOODEEG_Images\0917.jpg	YN	Left	Yes	0.61805950012058	0	187606	251
367.453125	2	health	foodImageDisplay	1	12	12	foodImage.109	FOODEEG_Images\0917.jpg	YN	Left	Yes	0.61805950012058	0	188137	252
369.515625	0.61805950012058	health	choicePhaseStart	1	12	12	foodImage.109	FOODEEG_Images\0917.jpg	YN	Left	Yes	0.61805950012058	0	189193	253
370.125	0	health	response	1	12	12	foodImage.109	FOODEEG_Images\0917.jpg	YN	Left	Yes	0.61805950012058	0	189505	234
371.166015625	1	taste	trialStart	1	13	13	foodImage.32	FOODEEG_Images\0319.jpg	YN	Left	Yes	0.925597900059074	0	190038	251
372.208984375	2	taste	foodImageDisplay	1	13	13	foodImage.32	FOODEEG_Images\0319.jpg	YN	Left	Yes	0.925597900059074	0	190572	252
374.271484375	0.925597900059074	taste	choicePhaseStart	1	13	13	foodImage.32	FOODEEG_Images\0319.jpg	YN	Left	Yes	0.925597900059074	0	191628	253
375.189453125	0	taste	response	1	13	13	foodImage.32	FOODEEG_Images\0319.jpg	YN	Left	Yes	0.925597900059074	0	192098	234
376.228515625	1	decision	trialStart	1	14	14	foodImage.56	FOODEEG_Images\0586.jpg	NY	Left	No	1.32693349989131	0	192630	251
377.26953125	2	decision	foodImageDisplay	1	14	14	foodImage.56	FOODEEG_Images\0586.jpg	NY	Left	No	1.32693349989131	0	193163	252
379.333984375	1.32693349989131	decision	choicePhaseStart	1	14	14	foodImage.56	FOODEEG_Images\0586.jpg	NY	Left	No	1.32693349989131	0	194220	253
380.65234375	0	decision	response	1	14	14	foodImage.56	FOODEEG_Images\0586.jpg	NY	Left	No	1.32693349989131	0	194895	234
381.693359375	1	health	trialStart	1	15	15	foodImage.117	FOODEEG_Images\0925.jpg	NY	Left	No	1.72965799970552	0	195428	251
382.732421875	2	health	foodImageDisplay	1	15	15	foodImage.117	FOODEEG_Images\0925.jpg	NY	Left	No	1.72965799970552	0	195960	252
384.794921875	1.72965799970552	health	choicePhaseStart	1	15	15	foodImage.117	FOODEEG_Images\0925.jpg	NY	Left	No	1.72965799970552	0	197016	253
386.517578125	0	health	response	1	15	15	foodImage.117	FOODEEG_Images\0925.jpg	NY	Left	No	1.72965799970552	0	197898	234
387.55859375	1	taste	trialStart	1	16	16	foodImage.102	FOODEEG_Images\0910.jpg	YN	Right	No	1.08641939982772	0	198431	251
388.599609375	2	taste	foodImageDisplay	1	16	16	foodImage.102	FOODEEG_Images\0910.jpg	YN	Right	No	1.08641939982772	0	198964	252
390.662109375	1.08641939982772	taste	choicePhaseStart	1	16	16	foodImage.102	FOODEEG_Images\0910.jpg	YN	Right	No	1.08641939982772	0	200020	253
391.740234375	0	taste	response	1	16	16	foodImage.102	FOODEEG_Images\0910.jpg	YN	Right	No	1.08641939982772	0	200572	235
392.783203125	1	taste	trialStart	1	17	17	foodImage.112	FOODEEG_Images\0920.jpg	NY	Left	No	1.42149790003896	0	201106	251
393.82421875	2	taste	foodImageDisplay	1	17	17	foodImage.112	FOODEEG_Images\0920.jpg	NY	Left	No	1.42149790003896	0	201639	252
395.88671875	1.42149790003896	taste	choicePhaseStart	1	17	17	foodImage.112	FOODEEG_Images\0920.jpg	NY	Left	No	1.42149790003896	0	202695	253
397.30078125	0	taste	response	1	17	17	foodImage.112	FOODEEG_Images\0920.jpg	NY	Left	No	1.42149790003896	0	203419	234
398.341796875	1	decision	trialStart	1	18	18	foodImage.36	FOODEEG_Images\0352.jpg	NY	Right	Yes	1.20632890006527	0	203952	251
399.400390625	2	decision	foodImageDisplay	1	18	18	foodImage.36	FOODEEG_Images\0352.jpg	NY	Right	Yes	1.20632890006527	0	204494	252
401.462890625	1.20632890006527	decision	choicePhaseStart	1	18	18	foodImage.36	FOODEEG_Images\0352.jpg	NY	Right	Yes	1.20632890006527	0	205550	253
402.66015625	0	decision	response	1	18	18	foodImage.36	FOODEEG_Images\0352.jpg	NY	Right	Yes	1.20632890006527	0	206163	235
403.703125	1	decision	trialStart	1	19	19	foodImage.4	FOODEEG_Images\0065.jpg	NY	Right	Yes	2.15771050006151	0	206697	251
404.759765625	2	decision	foodImageDisplay	1	19	19	foodImage.4	FOODEEG_Images\0065.jpg	NY	Right	Yes	2.15771050006151	0	207238	252
406.822265625	2.15771050006151	decision	choicePhaseStart	1	19	19	foodImage.4	FOODEEG_Images\0065.jpg	NY	Right	Yes	2.15771050006151	0	208294	253
408.970703125	0	decision	response	1	19	19	foodImage.4	FOODEEG_Images\0065.jpg	NY	Right	Yes	2.15771050006151	0	209394	235
410.01171875	1	decision	trialStart	1	20	20	foodImage.18	FOODEEG_Images\0202.jpg	NY	Right	Yes	1.08274010010064	0	209927	251
411.072265625	2	decision	foodImageDisplay	1	20	20	foodImage.18	FOODEEG_Images\0202.jpg	NY	Right	Yes	1.08274010010064	0	210470	252
413.134765625	1.08274010010064	decision	choicePhaseStart	1	20	20	foodImage.18	FOODEEG_Images\0202.jpg	NY	Right	Yes	1.08274010010064	0	211526	253
414.2109375	0	decision	response	1	20	20	foodImage.18	FOODEEG_Images\0202.jpg	NY	Right	Yes	1.08274010010064	0	212077	235
415.25390625	1	decision	trialStart	1	21	21	foodImage.5	FOODEEG_Images\0107.jpg	NY	Right	Yes	0.80785490013659	0	212611	251
416.310546875	2	decision	foodImageDisplay	1	21	21	foodImage.5	FOODEEG_Images\0107.jpg	NY	Right	Yes	0.80785490013659	0	213152	252
418.373046875	0.80785490013659	decision	choicePhaseStart	1	21	21	foodImage.5	FOODEEG_Images\0107.jpg	NY	Right	Yes	0.80785490013659	0	214208	253
419.171875	0	decision	response	1	21	21	foodImage.5	FOODEEG_Images\0107.jpg	NY	Right	Yes	0.80785490013659	0	214617	235
420.21484375	1	decision	trialStart	1	22	22	foodImage.1	FOODEEG_Images\0004.jpg	YN	Left	Yes	0.966351600363851	0	215151	251
421.255859375	2	decision	foodImageDisplay	1	22	22	foodImage.1	FOODEEG_Images\0004.jpg	YN	Left	Yes	0.966351600363851	0	215684	252
423.318359375	0.966351600363851	decision	choicePhaseStart	1	22	22	foodImage.1	FOODEEG_Images\0004.jpg	YN	Left	Yes	0.966351600363851	0	216740	253
424.275390625	0	decision	response	1	22	22	foodImage.1	FOODEEG_Images\0004.jpg	YN	Left	Yes	0.966351600363851	0	217230	234
425.318359375	1	taste	trialStart	1	23	23	foodImage.104	FOODEEG_Images\0912.jpg	NY	Left	No	1.14787119999528	0	217764	251
426.376953125	2	taste	foodImageDisplay	1	23	23	foodImage.104	FOODEEG_Images\0912.jpg	NY	Left	No	1.14787119999528	0	218306	252
428.439453125	1.14787119999528	taste	choicePhaseStart	1	23	23	foodImage.104	FOODEEG_Images\0912.jpg	NY	Left	No	1.14787119999528	0	219362	253
429.578125	0	taste	response	1	23	23	foodImage.104	FOODEEG_Images\0912.jpg	NY	Left	No	1.14787119999528	0	219945	234
430.619140625	1	decision	trialStart	1	24	24	foodImage.102	FOODEEG_Images\0910.jpg	YN	Right	No	0.884357099886984	0	220478	251
431.658203125	2	decision	foodImageDisplay	1	24	24	foodImage.102	FOODEEG_Images\0910.jpg	YN	Right	No	0.884357099886984	0	221010	252
433.71875	0.884357099886984	decision	choicePhaseStart	1	24	24	foodImage.102	FOODEEG_Images\0910.jpg	YN	Right	No	0.884357099886984	0	222065	253
434.595703125	0	decision	response	1	24	24	foodImage.102	FOODEEG_Images\0910.jpg	YN	Right	No	0.884357099886984	0	222514	235
435.634765625	1	health	trialStart	1	25	25	foodImage.50	FOODEEG_Images\0529.jpg	YN	Left	Yes	1.01610949961469	0	223046	251
436.708984375	2	health	foodImageDisplay	1	25	25	foodImage.50	FOODEEG_Images\0529.jpg	YN	Left	Yes	1.01610949961469	0	223596	252
438.771484375	1.01610949961469	health	choicePhaseStart	1	25	25	foodImage.50	FOODEEG_Images\0529.jpg	YN	Left	Yes	1.01610949961469	0	224652	253
439.779296875	0	health	response	1	25	25	foodImage.50	FOODEEG_Images\0529.jpg	YN	Left	Yes	1.01610949961469	0	225168	234
440.818359375	1	health	trialStart	1	26	26	foodImage.17	FOODEEG_Images\0199.jpg	NY	Right	Yes	1.08031640015543	0	225700	251
441.861328125	2	health	foodImageDisplay	1	26	26	foodImage.17	FOODEEG_Images\0199.jpg	NY	Right	Yes	1.08031640015543	0	226234	252
443.923828125	1.08031640015543	health	choicePhaseStart	1	26	26	foodImage.17	FOODEEG_Images\0199.jpg	NY	Right	Yes	1.08031640015543	0	227290	253
444.994140625	0	health	response	1	26	26	foodImage.17	FOODEEG_Images\0199.jpg	NY	Right	Yes	1.08031640015543	0	227838	235
446.037109375	1	decision	trialStart	1	27	27	foodImage.60	FOODEEG_Images\0614.jpg	NY	Right	Yes	0.967738199979067	0	228372	251
447.09765625	2	decision	foodImageDisplay	1	27	27	foodImage.60	FOODEEG_Images\0614.jpg	NY	Right	Yes	0.967738199979067	0	228915	252
449.1640625	0.967738199979067	decision	choicePhaseStart	1	27	27	foodImage.60	FOODEEG_Images\0614.jpg	NY	Right	Yes	0.967738199979067	0	229973	253
450.123046875	0	decision	response	1	27	27	foodImage.60	FOODEEG_Images\0614.jpg	NY	Right	Yes	0.967738199979067	0	230464	235
451.166015625	1	taste	trialStart	1	28	28	foodImage.80	FOODEEG_Images\0796.jpg	YN	Left	Yes	1.06048979982734	0	230998	251
452.22265625	2	taste	foodImageDisplay	1	28	28	foodImage.80	FOODEEG_Images\0796.jpg	YN	Left	Yes	1.06048979982734	0	231539	252
454.28515625	1.06048979982734	taste	choicePhaseStart	1	28	28	foodImage.80	FOODEEG_Images\0796.jpg	YN	Left	Yes	1.06048979982734	0	232595	253
455.337890625	0	taste	response	1	28	28	foodImage.80	FOODEEG_Images\0796.jpg	YN	Left	Yes	1.06048979982734	0	233134	234
456.37890625	1	taste	trialStart	1	29	29	foodImage.26	FOODEEG_Images\0262.jpg	YN	Left	Yes	0.803601699881256	0	233667	251
457.423828125	2	taste	foodImageDisplay	1	29	29	foodImage.26	FOODEEG_Images\0262.jpg	YN	Left	Yes	0.803601699881256	0	234202	252
459.486328125	0.803601699881256	taste	choicePhaseStart	1	29	29	foodImage.26	FOODEEG_Images\0262.jpg	YN	Left	Yes	0.803601699881256	0	235258	253
460.28125	0	taste	response	1	29	29	foodImage.26	FOODEEG_Images\0262.jpg	YN	Left	Yes	0.803601699881256	0	235665	234
461.32421875	1	decision	trialStart	1	30	30	foodImage.88	FOODEEG_Images\0878.jpg	NY	Right	Yes	1.24564149975777	0	236199	251
462.380859375	2	decision	foodImageDisplay	1	30	30	foodImage.88	FOODEEG_Images\0878.jpg	NY	Right	Yes	1.24564149975777	0	236740	252
464.443359375	1.24564149975777	decision	choicePhaseStart	1	30	30	foodImage.88	FOODEEG_Images\0878.jpg	NY	Right	Yes	1.24564149975777	0	237796	253
465.681640625	0	decision	response	1	30	30	foodImage.88	FOODEEG_Images\0878.jpg	NY	Right	Yes	1.24564149975777	0	238430	235
466.7265625	1	taste	trialStart	1	31	31	foodImage.28	FOODEEG_Images\0273.jpg	YN	Right	No	0.972172299865633	0	238965	251
467.767578125	2	taste	foodImageDisplay	1	31	31	foodImage.28	FOODEEG_Images\0273.jpg	YN	Right	No	0.972172299865633	0	239498	252
469.830078125	0.972172299865633	taste	choicePhaseStart	1	31	31	foodImage.28	FOODEEG_Images\0273.jpg	YN	Right	No	0.972172299865633	0	240554	253
470.79296875	0	taste	response	1	31	31	foodImage.28	FOODEEG_Images\0273.jpg	YN	Right	No	0.972172299865633	0	241047	235
471.833984375	1	taste	trialStart	1	32	32	foodImage.52	FOODEEG_Images\0539.jpg	YN	Left	Yes	0.849851300008595	0	241580	251
472.890625	2	taste	foodImageDisplay	1	32	32	foodImage.52	FOODEEG_Images\0539.jpg	YN	Left	Yes	0.849851300008595	0	242121	252
474.953125	0.849851300008595	taste	choicePhaseStart	1	32	32	foodImage.52	FOODEEG_Images\0539.jpg	YN	Left	Yes	0.849851300008595	0	243177	253
475.79296875	0	taste	response	1	32	32	foodImage.52	FOODEEG_Images\0539.jpg	YN	Left	Yes	0.849851300008595	0	243607	234
476.833984375	1	taste	trialStart	1	33	33	foodImage.63	FOODEEG_Images\0645.jpg	NY	Right	Yes	1.15563880000263	0	244140	251
477.880859375	2	taste	foodImageDisplay	1	33	33	foodImage.63	FOODEEG_Images\0645.jpg	NY	Right	Yes	1.15563880000263	0	244676	252
479.943359375	1.15563880000263	taste	choicePhaseStart	1	33	33	foodImage.63	FOODEEG_Images\0645.jpg	NY	Right	Yes	1.15563880000263	0	245732	253
481.08984375	0	taste	response	1	33	33	foodImage.63	FOODEEG_Images\0645.jpg	NY	Right	Yes	1.15563880000263	0	246319	235
482.130859375	1	health	trialStart	1	34	34	foodImage.95	FOODEEG_Images\0903.jpg	NY	Left	No	0.777518700342625	0	246852	251
483.169921875	2	health	foodImageDisplay	1	34	34	foodImage.95	FOODEEG_Images\0903.jpg	NY	Left	No	0.777518700342625	0	247384	252
485.232421875	0.777518700342625	health	choicePhaseStart	1	34	34	foodImage.95	FOODEEG_Images\0903.jpg	NY	Left	No	0.777518700342625	0	248440	253
486	0	health	response	1	34	34	foodImage.95	FOODEEG_Images\0903.jpg	NY	Left	No	0.777518700342625	0	248833	234
487.044921875	1	decision	trialStart	1	35	35	foodImage.32	FOODEEG_Images\0319.jpg	NY	Right	Yes	0.770621800329536	0	249368	251
488.087890625	2	decision	foodImageDisplay	1	35	35	foodImage.32	FOODEEG_Images\0319.jpg	NY	Right	Yes	0.770621800329536	0	249902	252
490.150390625	0.770621800329536	decision	choicePhaseStart	1	35	35	foodImage.32	FOODEEG_Images\0319.jpg	NY	Right	Yes	0.770621800329536	0	250958	253
490.912109375	0	decision	response	1	35	35	foodImage.32	FOODEEG_Images\0319.jpg	NY	Right	Yes	0.770621800329536	0	251348	235
491.953125	1	health	trialStart	1	36	36	foodImage.84	FOODEEG_Images\0830.jpg	NY	Right	Yes	0.610918099991977	0	251881	251
493.009765625	2	health	foodImageDisplay	1	36	36	foodImage.84	FOODEEG_Images\0830.jpg	NY	Right	Yes	0.610918099991977	0	252422	252
495.072265625	0.610918099991977	health	choicePhaseStart	1	36	36	foodImage.84	FOODEEG_Images\0830.jpg	NY	Right	Yes	0.610918099991977	0	253478	253
495.671875	0	health	response	1	36	36	foodImage.84	FOODEEG_Images\0830.jpg	NY	Right	Yes	0.610918099991977	0	253785	235
496.71484375	1	decision	trialStart	1	37	37	foodImage.19	FOODEEG_Images\0225.jpg	NY	Right	Yes	1.65337829990312	0	254319	251
497.7578125	2	decision	foodImageDisplay	1	37	37	foodImage.19	FOODEEG_Images\0225.jpg	NY	Right	Yes	1.65337829990312	0	254853	252
499.8203125	1.65337829990312	decision	choicePhaseStart	1	37	37	foodImage.19	FOODEEG_Images\0225.jpg	NY	Right	Yes	1.65337829990312	0	255909	253
501.46484375	0	decision	response	1	37	37	foodImage.19	FOODEEG_Images\0225.jpg	NY	Right	Yes	1.65337829990312	0	256751	235
502.50390625	1	taste	trialStart	1	38	38	foodImage.7	FOODEEG_Images\0116.jpg	NY	Right	Yes	0.653233099728823	0	257283	251
503.55078125	2	taste	foodImageDisplay	1	38	38	foodImage.7	FOODEEG_Images\0116.jpg	NY	Right	Yes	0.653233099728823	0	257819	252
505.611328125	0.653233099728823	taste	choicePhaseStart	1	38	38	foodImage.7	FOODEEG_Images\0116.jpg	NY	Right	Yes	0.653233099728823	0	258874	253
506.255859375	0	taste	response	1	38	38	foodImage.7	FOODEEG_Images\0116.jpg	NY	Right	Yes	0.653233099728823	0	259204	235
507.3046875	1	decision	trialStart	1	39	39	foodImage.47	FOODEEG_Images\0488.jpg	YN	Left	Yes	2.11855529993773	0	259741	251
508.34765625	2	decision	foodImageDisplay	1	39	39	foodImage.47	FOODEEG_Images\0488.jpg	YN	Left	Yes	2.11855529993773	0	260275	252
510.41015625	2.11855529993773	decision	choicePhaseStart	1	39	39	foodImage.47	FOODEEG_Images\0488.jpg	YN	Left	Yes	2.11855529993773	0	261331	253
512.51953125	0	decision	response	1	39	39	foodImage.47	FOODEEG_Images\0488.jpg	YN	Left	Yes	2.11855529993773	0	262411	234
513.560546875	1	decision	trialStart	1	40	40	foodImage.53	FOODEEG_Images\0547.jpg	YN	Right	No	0.946816000156105	0	262944	251
514.6171875	2	decision	foodImageDisplay	1	40	40	foodImage.53	FOODEEG_Images\0547.jpg	YN	Right	No	0.946816000156105	0	263485	252
516.6796875	0.946816000156105	decision	choicePhaseStart	1	40	40	foodImage.53	FOODEEG_Images\0547.jpg	YN	Right	No	0.946816000156105	0	264541	253
517.615234375	0	decision	response	1	40	40	foodImage.53	FOODEEG_Images\0547.jpg	YN	Right	No	0.946816000156105	0	265020	235
518.658203125	1	taste	trialStart	1	41	41	foodImage.68	FOODEEG_Images\0685.jpg	YN	Left	Yes	1.1102312002331	0	265554	251
519.75	2	taste	foodImageDisplay	1	41	41	foodImage.68	FOODEEG_Images\0685.jpg	YN	Left	Yes	1.1102312002331	0	266113	252
521.810546875	1.1102312002331	taste	choicePhaseStart	1	41	41	foodImage.68	FOODEEG_Images\0685.jpg	YN	Left	Yes	1.1102312002331	0	267168	253
522.912109375	0	taste	response	1	41	41	foodImage.68	FOODEEG_Images\0685.jpg	YN	Left	Yes	1.1102312002331	0	267732	234
523.951171875	1	decision	trialStart	1	42	42	foodImage.11	FOODEEG_Images\0180.jpg	YN	Right	No	0.809009000193328	0	268264	251
524.9921875	2	decision	foodImageDisplay	1	42	42	foodImage.11	FOODEEG_Images\0180.jpg	YN	Right	No	0.809009000193328	0	268797	252
527.0546875	0.809009000193328	decision	choicePhaseStart	1	42	42	foodImage.11	FOODEEG_Images\0180.jpg	YN	Right	No	0.809009000193328	0	269853	253
527.85546875	0	decision	response	1	42	42	foodImage.11	FOODEEG_Images\0180.jpg	YN	Right	No	0.809009000193328	0	270263	235
528.896484375	1	decision	trialStart	1	43	43	foodImage.105	FOODEEG_Images\0913.jpg	NY	Left	No	1.16828140011057	0	270796	251
529.935546875	2	decision	foodImageDisplay	1	43	43	foodImage.105	FOODEEG_Images\0913.jpg	NY	Left	No	1.16828140011057	0	271328	252
531.998046875	1.16828140011057	decision	choicePhaseStart	1	43	43	foodImage.105	FOODEEG_Images\0913.jpg	NY	Left	No	1.16828140011057	0	272384	253
533.158203125	0	decision	response	1	43	43	foodImage.105	FOODEEG_Images\0913.jpg	NY	Left	No	1.16828140011057	0	272978	234
534.197265625	1	decision	trialStart	1	44	44	foodImage.26	FOODEEG_Images\0262.jpg	NY	Right	Yes	1.08896610001102	0	273510	251
535.23828125	2	decision	foodImageDisplay	1	44	44	foodImage.26	FOODEEG_Images\0262.jpg	NY	Right	Yes	1.08896610001102	0	274043	252
537.302734375	1.08896610001102	decision	choicePhaseStart	1	44	44	foodImage.26	FOODEEG_Images\0262.jpg	NY	Right	Yes	1.08896610001102	0	275100	253
538.3828125	0	decision	response	1	44	44	foodImage.26	FOODEEG_Images\0262.jpg	NY	Right	Yes	1.08896610001102	0	275653	235
539.4296875	1	taste	trialStart	1	45	45	foodImage.10	FOODEEG_Images\0145.jpg	NY	Right	Yes	1.32959729991853	0	276189	251
540.486328125	2	taste	foodImageDisplay	1	45	45	foodImage.10	FOODEEG_Images\0145.jpg	NY	Right	Yes	1.32959729991853	0	276730	252
542.548828125	1.32959729991853	taste	choicePhaseStart	1	45	45	foodImage.10	FOODEEG_Images\0145.jpg	NY	Right	Yes	1.32959729991853	0	277786	253
543.87109375	0	taste	response	1	45	45	foodImage.10	FOODEEG_Images\0145.jpg	NY	Right	Yes	1.32959729991853	0	278463	235
544.9140625	1	taste	trialStart	1	46	46	foodImage.92	FOODEEG_Images\0900.jpg	NY	Left	No	1.95105420006439	0	278997	251
545.953125	2	taste	foodImageDisplay	1	46	46	foodImage.92	FOODEEG_Images\0900.jpg	NY	Left	No	1.95105420006439	0	279529	252
548.015625	1.95105420006439	taste	choicePhaseStart	1	46	46	foodImage.92	FOODEEG_Images\0900.jpg	NY	Left	No	1.95105420006439	0	280585	253
549.958984375	0	taste	response	1	46	46	foodImage.92	FOODEEG_Images\0900.jpg	NY	Left	No	1.95105420006439	0	281580	234
551.001953125	1	health	trialStart	1	47	47	foodImage.54	FOODEEG_Images\0560.jpg	YN	Left	Yes	1.52578140003607	0	282114	251
552.06640625	2	health	foodImageDisplay	1	47	47	foodImage.54	FOODEEG_Images\0560.jpg	YN	Left	Yes	1.52578140003607	0	282659	252
554.126953125	1.52578140003607	health	choicePhaseStart	1	47	47	foodImage.54	FOODEEG_Images\0560.jpg	YN	Left	Yes	1.52578140003607	0	283714	253
555.646484375	0	health	response	1	47	47	foodImage.54	FOODEEG_Images\0560.jpg	YN	Left	Yes	1.52578140003607	0	284492	234
556.689453125	1	health	trialStart	1	48	48	foodImage.58	FOODEEG_Images\0605.jpg	YN	Left	Yes	2.02637120010331	0	285026	251
557.75	2	health	foodImageDisplay	1	48	48	foodImage.58	FOODEEG_Images\0605.jpg	YN	Left	Yes	2.02637120010331	0	285569	252
559.8125	2.02637120010331	health	choicePhaseStart	1	48	48	foodImage.58	FOODEEG_Images\0605.jpg	YN	Left	Yes	2.02637120010331	0	286625	253
561.830078125	0	health	response	1	48	48	foodImage.58	FOODEEG_Images\0605.jpg	YN	Left	Yes	2.02637120010331	0	287658	234
562.87109375	1	health	trialStart	1	49	49	foodImage.22	FOODEEG_Images\0236.jpg	YN	Left	Yes	0.943090400192887	0	288191	251
563.9140625	2	health	foodImageDisplay	1	49	49	foodImage.22	FOODEEG_Images\0236.jpg	YN	Left	Yes	0.943090400192887	0	288725	252
565.9765625	0.943090400192887	health	choicePhaseStart	1	49	49	foodImage.22	FOODEEG_Images\0236.jpg	YN	Left	Yes	0.943090400192887	0	289781	253
566.91015625	0	health	response	1	49	49	foodImage.22	FOODEEG_Images\0236.jpg	YN	Left	Yes	0.943090400192887	0	290259	234
567.953125	1	taste	trialStart	1	50	50	foodImage.69	FOODEEG_Images\0693.jpg	NY	Right	Yes	0.867861300241202	0	290793	251
568.99609375	2	taste	foodImageDisplay	1	50	50	foodImage.69	FOODEEG_Images\0693.jpg	NY	Right	Yes	0.867861300241202	0	291327	252
571.05859375	0.867861300241202	taste	choicePhaseStart	1	50	50	foodImage.69	FOODEEG_Images\0693.jpg	NY	Right	Yes	0.867861300241202	0	292383	253
571.91796875	0	taste	response	1	50	50	foodImage.69	FOODEEG_Images\0693.jpg	NY	Right	Yes	0.867861300241202	0	292823	235
572.9609375	1	decision	trialStart	1	51	51	foodImage.2	FOODEEG_Images\0028.jpg	YN	Right	No	0.845041399821639	0	293357	251
574.001953125	2	decision	foodImageDisplay	1	51	51	foodImage.2	FOODEEG_Images\0028.jpg	YN	Right	No	0.845041399821639	0	293890	252
576.064453125	0.845041399821639	decision	choicePhaseStart	1	51	51	foodImage.2	FOODEEG_Images\0028.jpg	YN	Right	No	0.845041399821639	0	294946	253
576.900390625	0	decision	response	1	51	51	foodImage.2	FOODEEG_Images\0028.jpg	YN	Right	No	0.845041399821639	0	295374	235
577.943359375	1	taste	trialStart	1	52	52	foodImage.17	FOODEEG_Images\0199.jpg	YN	Left	Yes	0.940715600270778	0	295908	251
578.986328125	2	taste	foodImageDisplay	1	52	52	foodImage.17	FOODEEG_Images\0199.jpg	YN	Left	Yes	0.940715600270778	0	296442	252
581.048828125	0.940715600270778	taste	choicePhaseStart	1	52	52	foodImage.17	FOODEEG_Images\0199.jpg	YN	Left	Yes	0.940715600270778	0	297498	253
581.98046875	0	taste	response	1	52	52	foodImage.17	FOODEEG_Images\0199.jpg	YN	Left	Yes	0.940715600270778	0	297975	234
583.0234375	1	health	trialStart	1	53	53	foodImage.61	FOODEEG_Images\0640.jpg	YN	Left	Yes	1.01242829998955	0	298509	251
584.06640625	2	health	foodImageDisplay	1	53	53	foodImage.61	FOODEEG_Images\0640.jpg	YN	Left	Yes	1.01242829998955	0	299043	252
586.12890625	1.01242829998955	health	choicePhaseStart	1	53	53	foodImage.61	FOODEEG_Images\0640.jpg	YN	Left	Yes	1.01242829998955	0	300099	253
587.1328125	0	health	response	1	53	53	foodImage.61	FOODEEG_Images\0640.jpg	YN	Left	Yes	1.01242829998955	0	300613	234
588.17578125	1	health	trialStart	1	54	54	foodImage.11	FOODEEG_Images\0180.jpg	YN	Right	No	0.86936130002141	0	301147	251
589.216796875	2	health	foodImageDisplay	1	54	54	foodImage.11	FOODEEG_Images\0180.jpg	YN	Right	No	0.86936130002141	0	301680	252
591.279296875	0.86936130002141	health	choicePhaseStart	1	54	54	foodImage.11	FOODEEG_Images\0180.jpg	YN	Right	No	0.86936130002141	0	302736	253
592.140625	0	health	response	1	54	54	foodImage.11	FOODEEG_Images\0180.jpg	YN	Right	No	0.86936130002141	0	303177	235
593.18359375	1	decision	trialStart	1	55	55	foodImage.85	FOODEEG_Images\0841.jpg	YN	Left	Yes	0.981102299876511	0	303711	251
594.240234375	2	decision	foodImageDisplay	1	55	55	foodImage.85	FOODEEG_Images\0841.jpg	YN	Left	Yes	0.981102299876511	0	304252	252
596.302734375	0.981102299876511	decision	choicePhaseStart	1	55	55	foodImage.85	FOODEEG_Images\0841.jpg	YN	Left	Yes	0.981102299876511	0	305308	253
597.27734375	0	decision	response	1	55	55	foodImage.85	FOODEEG_Images\0841.jpg	YN	Left	Yes	0.981102299876511	0	305807	234
598.318359375	1	decision	trialStart	1	56	56	foodImage.9	FOODEEG_Images\0138.jpg	YN	Left	Yes	0.773507699836046	0	306340	251
599.376953125	2	decision	foodImageDisplay	1	56	56	foodImage.9	FOODEEG_Images\0138.jpg	YN	Left	Yes	0.773507699836046	0	306882	252
601.439453125	0.773507699836046	decision	choicePhaseStart	1	56	56	foodImage.9	FOODEEG_Images\0138.jpg	YN	Left	Yes	0.773507699836046	0	307938	253
602.205078125	0	decision	response	1	56	56	foodImage.9	FOODEEG_Images\0138.jpg	YN	Left	Yes	0.773507699836046	0	308330	234
603.248046875	1	health	trialStart	1	57	57	foodImage.32	FOODEEG_Images\0319.jpg	NY	Left	No	1.32935470016673	0	308864	251
604.294921875	2	health	foodImageDisplay	1	57	57	foodImage.32	FOODEEG_Images\0319.jpg	NY	Left	No	1.32935470016673	0	309400	252
606.35546875	1.32935470016673	health	choicePhaseStart	1	57	57	foodImage.32	FOODEEG_Images\0319.jpg	NY	Left	No	1.32935470016673	0	310455	253
607.67578125	0	health	response	1	57	57	foodImage.32	FOODEEG_Images\0319.jpg	NY	Left	No	1.32935470016673	0	311131	234
608.71875	1	health	trialStart	1	58	58	foodImage.55	FOODEEG_Images\0567.jpg	NY	Right	Yes	0.83042800007388	0	311665	251
609.775390625	2	health	foodImageDisplay	1	58	58	foodImage.55	FOODEEG_Images\0567.jpg	NY	Right	Yes	0.83042800007388	0	312206	252
611.837890625	0.83042800007388	health	choicePhaseStart	1	58	58	foodImage.55	FOODEEG_Images\0567.jpg	NY	Right	Yes	0.83042800007388	0	313262	253
612.66015625	0	health	response	1	58	58	foodImage.55	FOODEEG_Images\0567.jpg	NY	Right	Yes	0.83042800007388	0	313683	235
613.701171875	1	health	trialStart	1	59	59	foodImage.6	FOODEEG_Images\0113.jpg	NY	Left	No	0.935418500099331	0	314216	251
614.7421875	2	health	foodImageDisplay	1	59	59	foodImage.6	FOODEEG_Images\0113.jpg	NY	Left	No	0.935418500099331	0	314749	252
616.8046875	0.935418500099331	health	choicePhaseStart	1	59	59	foodImage.6	FOODEEG_Images\0113.jpg	NY	Left	No	0.935418500099331	0	315805	253
617.732421875	0	health	response	1	59	59	foodImage.6	FOODEEG_Images\0113.jpg	NY	Left	No	0.935418500099331	0	316280	234
618.7734375	1	health	trialStart	1	60	60	foodImage.83	FOODEEG_Images\0827.jpg	YN	Left	Yes	1.31048989994451	0	316813	251
619.828125	2	health	foodImageDisplay	1	60	60	foodImage.83	FOODEEG_Images\0827.jpg	YN	Left	Yes	1.31048989994451	0	317353	252
621.890625	1.31048989994451	health	choicePhaseStart	1	60	60	foodImage.83	FOODEEG_Images\0827.jpg	YN	Left	Yes	1.31048989994451	0	318409	253
623.1953125	0	health	response	1	60	60	foodImage.83	FOODEEG_Images\0827.jpg	YN	Left	Yes	1.31048989994451	0	319077	234
625.236328125	13.693359375	n/a	blockEnd	n/a	n/a	n/a	n/a	n/a	n/a	n/a	n/a	n/a	n/a	320122	254
638.9296875	2	n/a	blockStart	2	n/a	n/a	n/a	n/a	n/a	n/a	n/a	n/a	n/a	327133	250
640.962890625	1	taste	trialStart	2	61	1	foodImage.31	FOODEEG_Images\0294.jpg	NY	Right	Yes	0.9941301997751	0	328174	251
642.0078125	2	taste	foodImageDisplay	2	61	1	foodImage.31	FOODEEG_Images\0294.jpg	NY	Right	Yes	0.9941301997751	0	328709	252
644.072265625	0.9941301997751	taste	choicePhaseStart	2	61	1	foodImage.31	FOODEEG_Images\0294.jpg	NY	Right	Yes	0.9941301997751	0	329766	253
645.05859375	0	taste	response	2	61	1	foodImage.31	FOODEEG_Images\0294.jpg	NY	Right	Yes	0.9941301997751	0	330271	235
646.1015625	1	health	trialStart	2	62	2	foodImage.52	FOODEEG_Images\0539.jpg	NY	Right	Yes	0.935498000122607	0	330805	251
647.158203125	2	health	foodImageDisplay	2	62	2	foodImage.52	FOODEEG_Images\0539.jpg	NY	Right	Yes	0.935498000122607	0	331346	252
649.220703125	0.935498000122607	health	choicePhaseStart	2	62	2	foodImage.52	FOODEEG_Images\0539.jpg	NY	Right	Yes	0.935498000122607	0	332402	253
650.146484375	0	health	response	2	62	2	foodImage.52	FOODEEG_Images\0539.jpg	NY	Right	Yes	0.935498000122607	0	332876	235
651.189453125	1	decision	trialStart	2	63	3	foodImage.6	FOODEEG_Images\0113.jpg	NY	Right	Yes	1.6687209000811	0	333410	251
652.232421875	2	decision	foodImageDisplay	2	63	3	foodImage.6	FOODEEG_Images\0113.jpg	NY	Right	Yes	1.6687209000811	0	333944	252
654.294921875	1.6687209000811	decision	choicePhaseStart	2	63	3	foodImage.6	FOODEEG_Images\0113.jpg	NY	Right	Yes	1.6687209000811	0	335000	253
655.955078125	0	decision	response	2	63	3	foodImage.6	FOODEEG_Images\0113.jpg	NY	Right	Yes	1.6687209000811	0	335850	235
657	1	taste	trialStart	2	64	4	foodImage.106	FOODEEG_Images\0914.jpg	NY	Right	Yes	0.699857200030237	0	336385	251
658.0390625	2	taste	foodImageDisplay	2	64	4	foodImage.106	FOODEEG_Images\0914.jpg	NY	Right	Yes	0.699857200030237	0	336917	252
660.1015625	0.699857200030237	taste	choicePhaseStart	2	64	4	foodImage.106	FOODEEG_Images\0914.jpg	NY	Right	Yes	0.699857200030237	0	337973	253
660.794921875	0	taste	response	2	64	4	foodImage.106	FOODEEG_Images\0914.jpg	NY	Right	Yes	0.699857200030237	0	338328	235
661.8359375	1	n/a	trialStart	2	65	5	foodImage.114	FOODEEG_Images\0922.jpg	n/a	n/a	n/a	1.0747715998441	0	338861	251
662.875	2	taste	foodImageDisplay	2	65	5	foodImage.114	FOODEEG_Images\0922.jpg	YN	Right	No	1.0747715998441	0	339393	252
664.935546875	1.0747715998441	taste	choicePhaseStart	2	65	5	foodImage.114	FOODEEG_Images\0922.jpg	YN	Right	No	1.0747715998441	0	340448	253
666.001953125	0	taste	response	2	65	5	foodImage.114	FOODEEG_Images\0922.jpg	YN	Right	No	1.0747715998441	0	340994	235
667.044921875	1	taste	trialStart	2	66	6	foodImage.105	FOODEEG_Images\0913.jpg	NY	Right	Yes	0.763260399922729	0	341528	251
668.095703125	2	taste	foodImageDisplay	2	66	6	foodImage.105	FOODEEG_Images\0913.jpg	NY	Right	Yes	0.763260399922729	0	342066	252
670.158203125	0.763260399922729	taste	choicePhaseStart	2	66	6	foodImage.105	FOODEEG_Images\0913.jpg	NY	Right	Yes	0.763260399922729	0	343122	253
670.9140625	0	taste	response	2	66	6	foodImage.105	FOODEEG_Images\0913.jpg	NY	Right	Yes	0.763260399922729	0	343509	235
671.953125	1	taste	trialStart	2	67	7	foodImage.53	FOODEEG_Images\0547.jpg	YN	Right	No	1.65903999982402	0	344041	251
673.025390625	2	taste	foodImageDisplay	2	67	7	foodImage.53	FOODEEG_Images\0547.jpg	YN	Right	No	1.65903999982402	0	344590	252
675.087890625	1.65903999982402	taste	choicePhaseStart	2	67	7	foodImage.53	FOODEEG_Images\0547.jpg	YN	Right	No	1.65903999982402	0	345646	253
676.73828125	0	taste	response	2	67	7	foodImage.53	FOODEEG_Images\0547.jpg	YN	Right	No	1.65903999982402	0	346491	235
677.779296875	1	decision	trialStart	2	68	8	foodImage.29	FOODEEG_Images\0278.jpg	YN	Right	No	1.63245570007712	0	347024	251
678.826171875	2	decision	foodImageDisplay	2	68	8	foodImage.29	FOODEEG_Images\0278.jpg	YN	Right	No	1.63245570007712	0	347560	252
680.888671875	1.63245570007712	decision	choicePhaseStart	2	68	8	foodImage.29	FOODEEG_Images\0278.jpg	YN	Right	No	1.63245570007712	0	348616	253
682.513671875	0	decision	response	2	68	8	foodImage.29	FOODEEG_Images\0278.jpg	YN	Right	No	1.63245570007712	0	349448	235
683.5546875	1	taste	trialStart	2	69	9	foodImage.23	FOODEEG_Images\0244.jpg	YN	Right	No	0.982460499741137	0	349981	251
684.59765625	2	taste	foodImageDisplay	2	69	9	foodImage.23	FOODEEG_Images\0244.jpg	YN	Right	No	0.982460499741137	0	350515	252
686.66015625	0.982460499741137	taste	choicePhaseStart	2	69	9	foodImage.23	FOODEEG_Images\0244.jpg	YN	Right	No	0.982460499741137	0	351571	253
687.6328125	0	taste	response	2	69	9	foodImage.23	FOODEEG_Images\0244.jpg	YN	Right	No	0.982460499741137	0	352069	235
688.67578125	1	health	trialStart	2	70	10	foodImage.2	FOODEEG_Images\0028.jpg	NY	Left	No	0.988975800108165	0	352603	251
689.716796875	2	health	foodImageDisplay	2	70	10	foodImage.2	FOODEEG_Images\0028.jpg	NY	Left	No	0.988975800108165	0	353136	252
691.78125	0.988975800108165	health	choicePhaseStart	2	70	10	foodImage.2	FOODEEG_Images\0028.jpg	NY	Left	No	0.988975800108165	0	354193	253
692.759765625	0	health	response	2	70	10	foodImage.2	FOODEEG_Images\0028.jpg	NY	Left	No	0.988975800108165	0	354694	234
693.802734375	1	decision	trialStart	2	71	11	foodImage.7	FOODEEG_Images\0116.jpg	YN	Left	Yes	1.31097989995033	0	355228	251
694.84375	2	decision	foodImageDisplay	2	71	11	foodImage.7	FOODEEG_Images\0116.jpg	YN	Left	Yes	1.31097989995033	0	355761	252
696.90625	1.31097989995033	decision	choicePhaseStart	2	71	11	foodImage.7	FOODEEG_Images\0116.jpg	YN	Left	Yes	1.31097989995033	0	356817	253
698.208984375	0	decision	response	2	71	11	foodImage.7	FOODEEG_Images\0116.jpg	YN	Left	Yes	1.31097989995033	0	357484	234
699.25	1	health	trialStart	2	72	12	foodImage.73	FOODEEG_Images\0717.jpg	YN	Left	Yes	1.5535678002052	0	358017	251
700.3046875	2	health	foodImageDisplay	2	72	12	foodImage.73	FOODEEG_Images\0717.jpg	YN	Left	Yes	1.5535678002052	0	358557	252
702.3671875	1.5535678002052	health	choicePhaseStart	2	72	12	foodImage.73	FOODEEG_Images\0717.jpg	YN	Left	Yes	1.5535678002052	0	359613	253
703.912109375	0	health	response	2	72	12	foodImage.73	FOODEEG_Images\0717.jpg	YN	Left	Yes	1.5535678002052	0	360404	234
704.955078125	1	decision	trialStart	2	73	13	foodImage.27	FOODEEG_Images\0263.jpg	NY	Right	Yes	1.26115210028365	0	360938	251
705.998046875	2	decision	foodImageDisplay	2	73	13	foodImage.27	FOODEEG_Images\0263.jpg	NY	Right	Yes	1.26115210028365	0	361472	252
708.05859375	1.26115210028365	decision	choicePhaseStart	2	73	13	foodImage.27	FOODEEG_Images\0263.jpg	NY	Right	Yes	1.26115210028365	0	362527	253
709.3125	0	decision	response	2	73	13	foodImage.27	FOODEEG_Images\0263.jpg	NY	Right	Yes	1.26115210028365	0	363169	235
710.353515625	1	taste	trialStart	2	74	14	foodImage.73	FOODEEG_Images\0717.jpg	YN	Left	Yes	1.31089320033789	0	363702	251
711.41015625	2	taste	foodImageDisplay	2	74	14	foodImage.73	FOODEEG_Images\0717.jpg	YN	Left	Yes	1.31089320033789	0	364243	252
713.47265625	1.31089320033789	taste	choicePhaseStart	2	74	14	foodImage.73	FOODEEG_Images\0717.jpg	YN	Left	Yes	1.31089320033789	0	365299	253
714.775390625	0	taste	response	2	74	14	foodImage.73	FOODEEG_Images\0717.jpg	YN	Left	Yes	1.31089320033789	0	365966	234
715.818359375	1	decision	trialStart	2	75	15	foodImage.98	FOODEEG_Images\0906.jpg	YN	Right	No	0.77016399987042	0	366500	251
716.857421875	2	decision	foodImageDisplay	2	75	15	foodImage.98	FOODEEG_Images\0906.jpg	YN	Right	No	0.77016399987042	0	367032	252
718.919921875	0.77016399987042	decision	choicePhaseStart	2	75	15	foodImage.98	FOODEEG_Images\0906.jpg	YN	Right	No	0.77016399987042	0	368088	253
719.6796875	0	decision	response	2	75	15	foodImage.98	FOODEEG_Images\0906.jpg	YN	Right	No	0.77016399987042	0	368477	235
720.72265625	1	health	trialStart	2	76	16	foodImage.24	FOODEEG_Images\0250.jpg	NY	Right	Yes	0.834016600158066	0	369011	251
721.767578125	2	health	foodImageDisplay	2	76	16	foodImage.24	FOODEEG_Images\0250.jpg	NY	Right	Yes	0.834016600158066	0	369546	252
723.830078125	0.834016600158066	health	choicePhaseStart	2	76	16	foodImage.24	FOODEEG_Images\0250.jpg	NY	Right	Yes	0.834016600158066	0	370602	253
724.65625	0	health	response	2	76	16	foodImage.24	FOODEEG_Images\0250.jpg	NY	Right	Yes	0.834016600158066	0	371025	235
725.697265625	1	decision	trialStart	2	77	17	foodImage.58	FOODEEG_Images\0605.jpg	NY	Left	No	1.38110380014405	0	371558	251
726.75390625	2	decision	foodImageDisplay	2	77	17	foodImage.58	FOODEEG_Images\0605.jpg	NY	Left	No	1.38110380014405	0	372099	252
728.81640625	1.38110380014405	decision	choicePhaseStart	2	77	17	foodImage.58	FOODEEG_Images\0605.jpg	NY	Left	No	1.38110380014405	0	373155	253
730.19140625	0	decision	response	2	77	17	foodImage.58	FOODEEG_Images\0605.jpg	NY	Left	No	1.38110380014405	0	373859	234
731.23046875	1	health	trialStart	2	78	18	foodImage.77	FOODEEG_Images\0771.jpg	YN	Left	Yes	1.31251059984788	0	374391	251
732.2734375	2	health	foodImageDisplay	2	78	18	foodImage.77	FOODEEG_Images\0771.jpg	YN	Left	Yes	1.31251059984788	0	374925	252
734.34375	1.31251059984788	health	choicePhaseStart	2	78	18	foodImage.77	FOODEEG_Images\0771.jpg	YN	Left	Yes	1.31251059984788	0	375985	253
735.646484375	0	health	response	2	78	18	foodImage.77	FOODEEG_Images\0771.jpg	YN	Left	Yes	1.31251059984788	0	376652	234
736.689453125	1	taste	trialStart	2	79	19	foodImage.91	FOODEEG_Images\0896.jpg	YN	Left	Yes	0.929706200025976	0	377186	251
737.751953125	2	taste	foodImageDisplay	2	79	19	foodImage.91	FOODEEG_Images\0896.jpg	YN	Left	Yes	0.929706200025976	0	377730	252
739.814453125	0.929706200025976	taste	choicePhaseStart	2	79	19	foodImage.91	FOODEEG_Images\0896.jpg	YN	Left	Yes	0.929706200025976	0	378786	253
740.734375	0	taste	response	2	79	19	foodImage.91	FOODEEG_Images\0896.jpg	YN	Left	Yes	0.929706200025976	0	379257	234
741.783203125	1	taste	trialStart	2	80	20	foodImage.99	FOODEEG_Images\0907.jpg	YN	Right	No	1.12239240016788	0	379794	251
742.82421875	2	taste	foodImageDisplay	2	80	20	foodImage.99	FOODEEG_Images\0907.jpg	YN	Right	No	1.12239240016788	0	380327	252
744.88671875	1.12239240016788	taste	choicePhaseStart	2	80	20	foodImage.99	FOODEEG_Images\0907.jpg	YN	Right	No	1.12239240016788	0	381383	253
745.998046875	0	taste	response	2	80	20	foodImage.99	FOODEEG_Images\0907.jpg	YN	Right	No	1.12239240016788	0	381952	235
747.044921875	1	taste	trialStart	2	81	21	foodImage.115	FOODEEG_Images\0923.jpg	YN	Right	No	0.644987599924207	0	382488	251
748.099609375	2	taste	foodImageDisplay	2	81	21	foodImage.115	FOODEEG_Images\0923.jpg	YN	Right	No	0.644987599924207	0	383028	252
750.162109375	0.644987599924207	taste	choicePhaseStart	2	81	21	foodImage.115	FOODEEG_Images\0923.jpg	YN	Right	No	0.644987599924207	0	384084	253
750.798828125	0	taste	response	2	81	21	foodImage.115	FOODEEG_Images\0923.jpg	YN	Right	No	0.644987599924207	0	384410	235
751.841796875	1	health	trialStart	2	82	22	foodImage.82	FOODEEG_Images\0805.jpg	NY	Left	No	0.886445499956608	0	384944	251
752.8984375	2	health	foodImageDisplay	2	82	22	foodImage.82	FOODEEG_Images\0805.jpg	NY	Left	No	0.886445499956608	0	385485	252
754.9609375	0.886445499956608	health	choicePhaseStart	2	82	22	foodImage.82	FOODEEG_Images\0805.jpg	NY	Left	No	0.886445499956608	0	386541	253
755.837890625	0	health	response	2	82	22	foodImage.82	FOODEEG_Images\0805.jpg	NY	Left	No	0.886445499956608	0	386990	234
756.880859375	1	taste	trialStart	2	83	23	foodImage.4	FOODEEG_Images\0065.jpg	NY	Right	Yes	0.944261100143194	0	387524	251
757.935546875	2	taste	foodImageDisplay	2	83	23	foodImage.4	FOODEEG_Images\0065.jpg	NY	Right	Yes	0.944261100143194	0	388064	252
759.998046875	0.944261100143194	taste	choicePhaseStart	2	83	23	foodImage.4	FOODEEG_Images\0065.jpg	NY	Right	Yes	0.944261100143194	0	389120	253
760.93359375	0	taste	response	2	83	23	foodImage.4	FOODEEG_Images\0065.jpg	NY	Right	Yes	0.944261100143194	0	389599	235
761.978515625	1	taste	trialStart	2	84	24	foodImage.119	FOODEEG_Images\0927.jpg	NY	Left	No	1.13389070006087	0	390134	251
763.017578125	2	taste	foodImageDisplay	2	84	24	foodImage.119	FOODEEG_Images\0927.jpg	NY	Left	No	1.13389070006087	0	390666	252
765.080078125	1.13389070006087	taste	choicePhaseStart	2	84	24	foodImage.119	FOODEEG_Images\0927.jpg	NY	Left	No	1.13389070006087	0	391722	253
766.205078125	0	taste	response	2	84	24	foodImage.119	FOODEEG_Images\0927.jpg	NY	Left	No	1.13389070006087	0	392298	234
767.25	1	taste	trialStart	2	85	25	foodImage.65	FOODEEG_Images\0658.jpg	NY	Left	No	0.725402600131929	0	392833	251
768.291015625	2	taste	foodImageDisplay	2	85	25	foodImage.65	FOODEEG_Images\0658.jpg	NY	Left	No	0.725402600131929	0	393366	252
770.353515625	0.725402600131929	taste	choicePhaseStart	2	85	25	foodImage.65	FOODEEG_Images\0658.jpg	NY	Left	No	0.725402600131929	0	394422	253
771.0703125	0	taste	response	2	85	25	foodImage.65	FOODEEG_Images\0658.jpg	NY	Left	No	0.725402600131929	0	394789	234
772.11328125	1	health	trialStart	2	86	26	foodImage.45	FOODEEG_Images\0478.jpg	NY	Right	Yes	2.22204410005361	0	395323	251
773.16015625	2	health	foodImageDisplay	2	86	26	foodImage.45	FOODEEG_Images\0478.jpg	NY	Right	Yes	2.22204410005361	0	395859	252
775.22265625	2.22204410005361	health	choicePhaseStart	2	86	26	foodImage.45	FOODEEG_Images\0478.jpg	NY	Right	Yes	2.22204410005361	0	396915	253
777.4375	0	health	response	2	86	26	foodImage.45	FOODEEG_Images\0478.jpg	NY	Right	Yes	2.22204410005361	0	398049	235
778.478515625	1	taste	trialStart	2	87	27	foodImage.51	FOODEEG_Images\0536.jpg	NY	Right	Yes	1.22124959994107	0	398582	251
779.521484375	2	taste	foodImageDisplay	2	87	27	foodImage.51	FOODEEG_Images\0536.jpg	NY	Right	Yes	1.22124959994107	0	399116	252
781.583984375	1.22124959994107	taste	choicePhaseStart	2	87	27	foodImage.51	FOODEEG_Images\0536.jpg	NY	Right	Yes	1.22124959994107	0	400172	253
782.796875	0	taste	response	2	87	27	foodImage.51	FOODEEG_Images\0536.jpg	NY	Right	Yes	1.22124959994107	0	400793	235
783.84375	1	taste	trialStart	2	88	28	foodImage.100	FOODEEG_Images\0908.jpg	YN	Left	Yes	0.939885600004345	0	401329	251
784.8828125	2	taste	foodImageDisplay	2	88	28	foodImage.100	FOODEEG_Images\0908.jpg	YN	Left	Yes	0.939885600004345	0	401861	252
786.9453125	0.939885600004345	taste	choicePhaseStart	2	88	28	foodImage.100	FOODEEG_Images\0908.jpg	YN	Left	Yes	0.939885600004345	0	402917	253
787.876953125	0	taste	response	2	88	28	foodImage.100	FOODEEG_Images\0908.jpg	YN	Left	Yes	0.939885600004345	0	403394	234
788.91796875	1	health	trialStart	2	89	29	foodImage.18	FOODEEG_Images\0202.jpg	NY	Right	Yes	0.987739600241184	0	403927	251
789.97265625	2	health	foodImageDisplay	2	89	29	foodImage.18	FOODEEG_Images\0202.jpg	NY	Right	Yes	0.987739600241184	0	404467	252
792.03515625	0.987739600241184	health	choicePhaseStart	2	89	29	foodImage.18	FOODEEG_Images\0202.jpg	NY	Right	Yes	0.987739600241184	0	405523	253
793.013671875	0	health	response	2	89	29	foodImage.18	FOODEEG_Images\0202.jpg	NY	Right	Yes	0.987739600241184	0	406024	235
794.0546875	1	taste	trialStart	2	90	30	foodImage.61	FOODEEG_Images\0640.jpg	YN	Right	No	1.58645909978077	0	406557	251
795.09765625	2	taste	foodImageDisplay	2	90	30	foodImage.61	FOODEEG_Images\0640.jpg	YN	Right	No	1.58645909978077	0	407091	252
797.1640625	1.58645909978077	taste	choicePhaseStart	2	90	30	foodImage.61	FOODEEG_Images\0640.jpg	YN	Right	No	1.58645909978077	0	408149	253
798.740234375	0	taste	response	2	90	30	foodImage.61	FOODEEG_Images\0640.jpg	YN	Right	No	1.58645909978077	0	408956	235
799.78515625	1	taste	trialStart	2	91	31	foodImage.107	FOODEEG_Images\0915.jpg	YN	Left	Yes	0.910242000129074	0	409491	251
800.826171875	2	taste	foodImageDisplay	2	91	31	foodImage.107	FOODEEG_Images\0915.jpg	YN	Left	Yes	0.910242000129074	0	410024	252
802.88671875	0.910242000129074	taste	choicePhaseStart	2	91	31	foodImage.107	FOODEEG_Images\0915.jpg	YN	Left	Yes	0.910242000129074	0	411079	253
803.7890625	0	taste	response	2	91	31	foodImage.107	FOODEEG_Images\0915.jpg	YN	Left	Yes	0.910242000129074	0	411541	234
804.828125	1	decision	trialStart	2	92	32	foodImage.89	FOODEEG_Images\0881.jpg	YN	Left	Yes	1.72825089981779	0	412073	251
805.89453125	2	decision	foodImageDisplay	2	92	32	foodImage.89	FOODEEG_Images\0881.jpg	YN	Left	Yes	1.72825089981779	0	412619	252
807.95703125	1.72825089981779	decision	choicePhaseStart	2	92	32	foodImage.89	FOODEEG_Images\0881.jpg	YN	Left	Yes	1.72825089981779	0	413675	253
809.67578125	0	decision	response	2	92	32	foodImage.89	FOODEEG_Images\0881.jpg	YN	Left	Yes	1.72825089981779	0	414555	234
810.724609375	1	health	trialStart	2	93	33	foodImage.68	FOODEEG_Images\0685.jpg	NY	Left	No	1.26830760017037	0	415092	251
811.80078125	2	health	foodImageDisplay	2	93	33	foodImage.68	FOODEEG_Images\0685.jpg	NY	Left	No	1.26830760017037	0	415643	252
813.86328125	1.26830760017037	health	choicePhaseStart	2	93	33	foodImage.68	FOODEEG_Images\0685.jpg	NY	Left	No	1.26830760017037	0	416699	253
815.123046875	0	health	response	2	93	33	foodImage.68	FOODEEG_Images\0685.jpg	NY	Left	No	1.26830760017037	0	417344	234
816.166015625	1	health	trialStart	2	94	34	foodImage.53	FOODEEG_Images\0547.jpg	NY	Left	No	1.23881410015747	0	417878	251
817.22265625	2	health	foodImageDisplay	2	94	34	foodImage.53	FOODEEG_Images\0547.jpg	NY	Left	No	1.23881410015747	0	418419	252
819.28515625	1.23881410015747	health	choicePhaseStart	2	94	34	foodImage.53	FOODEEG_Images\0547.jpg	NY	Left	No	1.23881410015747	0	419475	253
820.515625	0	health	response	2	94	34	foodImage.53	FOODEEG_Images\0547.jpg	NY	Left	No	1.23881410015747	0	420105	234
821.55859375	1	health	trialStart	2	95	35	foodImage.63	FOODEEG_Images\0645.jpg	NY	Left	No	1.29618960013613	0	420639	251
822.59765625	2	health	foodImageDisplay	2	95	35	foodImage.63	FOODEEG_Images\0645.jpg	NY	Left	No	1.29618960013613	0	421171	252
824.66015625	1.29618960013613	health	choicePhaseStart	2	95	35	foodImage.63	FOODEEG_Images\0645.jpg	NY	Left	No	1.29618960013613	0	422227	253
825.947265625	0	health	response	2	95	35	foodImage.63	FOODEEG_Images\0645.jpg	NY	Left	No	1.29618960013613	0	422886	234
826.9921875	1	taste	trialStart	2	96	36	foodImage.19	FOODEEG_Images\0225.jpg	YN	Right	No	1.49979510018602	0	423421	251
828.03515625	2	taste	foodImageDisplay	2	96	36	foodImage.19	FOODEEG_Images\0225.jpg	YN	Right	No	1.49979510018602	0	423955	252
830.09765625	1.49979510018602	taste	choicePhaseStart	2	96	36	foodImage.19	FOODEEG_Images\0225.jpg	YN	Right	No	1.49979510018602	0	425011	253
831.587890625	0	taste	response	2	96	36	foodImage.19	FOODEEG_Images\0225.jpg	YN	Right	No	1.49979510018602	0	425774	235
832.62890625	1	decision	trialStart	2	97	37	foodImage.104	FOODEEG_Images\0912.jpg	YN	Right	No	0.890953400172293	0	426307	251
833.666015625	2	decision	foodImageDisplay	2	97	37	foodImage.104	FOODEEG_Images\0912.jpg	YN	Right	No	0.890953400172293	0	426838	252
835.73046875	0.890953400172293	decision	choicePhaseStart	2	97	37	foodImage.104	FOODEEG_Images\0912.jpg	YN	Right	No	0.890953400172293	0	427895	253
836.611328125	0	decision	response	2	97	37	foodImage.104	FOODEEG_Images\0912.jpg	YN	Right	No	0.890953400172293	0	428346	235
837.65234375	1	decision	trialStart	2	98	38	foodImage.12	FOODEEG_Images\0181.jpg	NY	Left	No	1.32121009984985	0	428879	251
838.693359375	2	decision	foodImageDisplay	2	98	38	foodImage.12	FOODEEG_Images\0181.jpg	NY	Left	No	1.32121009984985	0	429412	252
840.755859375	1.32121009984985	decision	choicePhaseStart	2	98	38	foodImage.12	FOODEEG_Images\0181.jpg	NY	Left	No	1.32121009984985	0	430468	253
842.06640625	0	decision	response	2	98	38	foodImage.12	FOODEEG_Images\0181.jpg	NY	Left	No	1.32121009984985	0	431139	234
843.109375	1	taste	trialStart	2	99	39	foodImage.56	FOODEEG_Images\0586.jpg	NY	Right	Yes	2.1336022997275	0	431673	251
844.15234375	2	taste	foodImageDisplay	2	99	39	foodImage.56	FOODEEG_Images\0586.jpg	NY	Right	Yes	2.1336022997275	0	432207	252
846.21484375	2.1336022997275	taste	choicePhaseStart	2	99	39	foodImage.56	FOODEEG_Images\0586.jpg	NY	Right	Yes	2.1336022997275	0	433263	253
848.337890625	0	taste	response	2	99	39	foodImage.56	FOODEEG_Images\0586.jpg	NY	Right	Yes	2.1336022997275	0	434350	235
849.3828125	1	taste	trialStart	2	100	40	foodImage.103	FOODEEG_Images\0911.jpg	YN	Right	No	1.37745089968666	0	434885	251
850.421875	2	taste	foodImageDisplay	2	100	40	foodImage.103	FOODEEG_Images\0911.jpg	YN	Right	No	1.37745089968666	0	435417	252
852.482421875	1.37745089968666	taste	choicePhaseStart	2	100	40	foodImage.103	FOODEEG_Images\0911.jpg	YN	Right	No	1.37745089968666	0	436472	253
853.849609375	0	taste	response	2	100	40	foodImage.103	FOODEEG_Images\0911.jpg	YN	Right	No	1.37745089968666	0	437172	235
854.890625	1	taste	trialStart	2	101	41	foodImage.64	FOODEEG_Images\0647.jpg	YN	Left	Yes	1.53031169995666	0	437705	251
855.947265625	2	taste	foodImageDisplay	2	101	41	foodImage.64	FOODEEG_Images\0647.jpg	YN	Left	Yes	1.53031169995666	0	438246	252
858.009765625	1.53031169995666	taste	choicePhaseStart	2	101	41	foodImage.64	FOODEEG_Images\0647.jpg	YN	Left	Yes	1.53031169995666	0	439302	253
859.529296875	0	taste	response	2	101	41	foodImage.64	FOODEEG_Images\0647.jpg	YN	Left	Yes	1.53031169995666	0	440080	234
860.57421875	1	decision	trialStart	2	102	42	foodImage.50	FOODEEG_Images\0529.jpg	NY	Right	Yes	1.25938780000433	0	440615	251
861.6328125	2	decision	foodImageDisplay	2	102	42	foodImage.50	FOODEEG_Images\0529.jpg	NY	Right	Yes	1.25938780000433	0	441157	252
863.6953125	1.25938780000433	decision	choicePhaseStart	2	102	42	foodImage.50	FOODEEG_Images\0529.jpg	NY	Right	Yes	1.25938780000433	0	442213	253
864.9453125	0	decision	response	2	102	42	foodImage.50	FOODEEG_Images\0529.jpg	NY	Right	Yes	1.25938780000433	0	442853	235
865.9921875	1	decision	trialStart	2	103	43	foodImage.120	FOODEEG_Images\0928.jpg	NY	Left	No	1.46980149997398	0	443389	251
867.0390625	2	decision	foodImageDisplay	2	103	43	foodImage.120	FOODEEG_Images\0928.jpg	NY	Left	No	1.46980149997398	0	443925	252
869.1015625	1.46980149997398	decision	choicePhaseStart	2	103	43	foodImage.120	FOODEEG_Images\0928.jpg	NY	Left	No	1.46980149997398	0	444981	253
870.5625	0	decision	response	2	103	43	foodImage.120	FOODEEG_Images\0928.jpg	NY	Left	No	1.46980149997398	0	445729	234
871.60546875	1	taste	trialStart	2	104	44	foodImage.62	FOODEEG_Images\0644.jpg	YN	Right	No	1.27223190013319	0	446263	251
872.662109375	2	taste	foodImageDisplay	2	104	44	foodImage.62	FOODEEG_Images\0644.jpg	YN	Right	No	1.27223190013319	0	446804	252
874.728515625	1.27223190013319	taste	choicePhaseStart	2	104	44	foodImage.62	FOODEEG_Images\0644.jpg	YN	Right	No	1.27223190013319	0	447862	253
875.994140625	0	taste	response	2	104	44	foodImage.62	FOODEEG_Images\0644.jpg	YN	Right	No	1.27223190013319	0	448510	235
877.03515625	1	decision	trialStart	2	105	45	foodImage.33	FOODEEG_Images\0329.jpg	NY	Right	Yes	1.45290979975834	0	449043	251
878.076171875	2	decision	foodImageDisplay	2	105	45	foodImage.33	FOODEEG_Images\0329.jpg	NY	Right	Yes	1.45290979975834	0	449576	252
880.140625	1.45290979975834	decision	choicePhaseStart	2	105	45	foodImage.33	FOODEEG_Images\0329.jpg	NY	Right	Yes	1.45290979975834	0	450633	253
881.5859375	0	decision	response	2	105	45	foodImage.33	FOODEEG_Images\0329.jpg	NY	Right	Yes	1.45290979975834	0	451373	235
882.62890625	1	taste	trialStart	2	106	46	foodImage.82	FOODEEG_Images\0805.jpg	NY	Left	No	1.00018450012431	0	451907	251
883.681640625	2	taste	foodImageDisplay	2	106	46	foodImage.82	FOODEEG_Images\0805.jpg	NY	Left	No	1.00018450012431	0	452446	252
885.744140625	1.00018450012431	taste	choicePhaseStart	2	106	46	foodImage.82	FOODEEG_Images\0805.jpg	NY	Left	No	1.00018450012431	0	453502	253
886.736328125	0	taste	response	2	106	46	foodImage.82	FOODEEG_Images\0805.jpg	NY	Left	No	1.00018450012431	0	454010	234
887.779296875	1	health	trialStart	2	107	47	foodImage.31	FOODEEG_Images\0294.jpg	NY	Left	No	1.67497480008751	0	454544	251
888.826171875	2	health	foodImageDisplay	2	107	47	foodImage.31	FOODEEG_Images\0294.jpg	NY	Left	No	1.67497480008751	0	455080	252
890.88671875	1.67497480008751	health	choicePhaseStart	2	107	47	foodImage.31	FOODEEG_Images\0294.jpg	NY	Left	No	1.67497480008751	0	456135	253
892.552734375	0	health	response	2	107	47	foodImage.31	FOODEEG_Images\0294.jpg	NY	Left	No	1.67497480008751	0	456988	234
893.595703125	1	taste	trialStart	2	108	48	foodImage.94	FOODEEG_Images\0902.jpg	NY	Right	Yes	0.845604000147432	0	457522	251
894.63671875	2	taste	foodImageDisplay	2	108	48	foodImage.94	FOODEEG_Images\0902.jpg	NY	Right	Yes	0.845604000147432	0	458055	252
896.69921875	0.845604000147432	taste	choicePhaseStart	2	108	48	foodImage.94	FOODEEG_Images\0902.jpg	NY	Right	Yes	0.845604000147432	0	459111	253
897.537109375	0	taste	response	2	108	48	foodImage.94	FOODEEG_Images\0902.jpg	NY	Right	Yes	0.845604000147432	0	459540	235
898.580078125	1	taste	trialStart	2	109	49	foodImage.12	FOODEEG_Images\0181.jpg	YN	Right	No	1.45500400010496	0	460074	251
899.62109375	2	taste	foodImageDisplay	2	109	49	foodImage.12	FOODEEG_Images\0181.jpg	YN	Right	No	1.45500400010496	0	460607	252
901.68359375	1.45500400010496	taste	choicePhaseStart	2	109	49	foodImage.12	FOODEEG_Images\0181.jpg	YN	Right	No	1.45500400010496	0	461663	253
903.12890625	0	taste	response	2	109	49	foodImage.12	FOODEEG_Images\0181.jpg	YN	Right	No	1.45500400010496	0	462403	235
904.169921875	1	decision	trialStart	2	110	50	foodImage.101	FOODEEG_Images\0909.jpg	YN	Right	No	1.08051030011848	0	462936	251
905.2109375	2	decision	foodImageDisplay	2	110	50	foodImage.101	FOODEEG_Images\0909.jpg	YN	Right	No	1.08051030011848	0	463469	252
907.2734375	1.08051030011848	decision	choicePhaseStart	2	110	50	foodImage.101	FOODEEG_Images\0909.jpg	YN	Right	No	1.08051030011848	0	464525	253
908.34375	0	decision	response	2	110	50	foodImage.101	FOODEEG_Images\0909.jpg	YN	Right	No	1.08051030011848	0	465073	235
909.384765625	1	taste	trialStart	2	111	51	foodImage.86	FOODEEG_Images\0844.jpg	YN	Left	Yes	1.60590690001845	0	465606	251
910.4609375	2	taste	foodImageDisplay	2	111	51	foodImage.86	FOODEEG_Images\0844.jpg	YN	Left	Yes	1.60590690001845	0	466157	252
912.521484375	1.60590690001845	taste	choicePhaseStart	2	111	51	foodImage.86	FOODEEG_Images\0844.jpg	YN	Left	Yes	1.60590690001845	0	467212	253
914.119140625	0	taste	response	2	111	51	foodImage.86	FOODEEG_Images\0844.jpg	YN	Left	Yes	1.60590690001845	0	468030	234
915.16015625	1	health	trialStart	2	112	52	foodImage.7	FOODEEG_Images\0116.jpg	YN	Right	No	1.15158129995689	0	468563	251
916.201171875	2	health	foodImageDisplay	2	112	52	foodImage.7	FOODEEG_Images\0116.jpg	YN	Right	No	1.15158129995689	0	469096	252
918.263671875	1.15158129995689	health	choicePhaseStart	2	112	52	foodImage.7	FOODEEG_Images\0116.jpg	YN	Right	No	1.15158129995689	0	470152	253
919.408203125	0	health	response	2	112	52	foodImage.7	FOODEEG_Images\0116.jpg	YN	Right	No	1.15158129995689	0	470738	235
920.453125	1	taste	trialStart	2	113	53	foodImage.93	FOODEEG_Images\0901.jpg	NY	Left	No	1.45441529992968	0	471273	251
921.4921875	2	taste	foodImageDisplay	2	113	53	foodImage.93	FOODEEG_Images\0901.jpg	NY	Left	No	1.45441529992968	0	471805	252
923.5546875	1.45441529992968	taste	choicePhaseStart	2	113	53	foodImage.93	FOODEEG_Images\0901.jpg	NY	Left	No	1.45441529992968	0	472861	253
925	0	taste	response	2	113	53	foodImage.93	FOODEEG_Images\0901.jpg	NY	Left	No	1.45441529992968	0	473601	234
926.04296875	1	decision	trialStart	2	114	54	foodImage.118	FOODEEG_Images\0926.jpg	NY	Left	No	1.28688000002876	0	474135	251
927.08203125	2	decision	foodImageDisplay	2	114	54	foodImage.118	FOODEEG_Images\0926.jpg	NY	Left	No	1.28688000002876	0	474667	252
929.14453125	1.28688000002876	decision	choicePhaseStart	2	114	54	foodImage.118	FOODEEG_Images\0926.jpg	NY	Left	No	1.28688000002876	0	475723	253
930.423828125	0	decision	response	2	114	54	foodImage.118	FOODEEG_Images\0926.jpg	NY	Left	No	1.28688000002876	0	476378	234
931.46484375	1	taste	trialStart	2	115	55	foodImage.29	FOODEEG_Images\0278.jpg	YN	Right	No	1.57543500000611	0	476911	251
932.505859375	2	taste	foodImageDisplay	2	115	55	foodImage.29	FOODEEG_Images\0278.jpg	YN	Right	No	1.57543500000611	0	477444	252
934.568359375	1.57543500000611	taste	choicePhaseStart	2	115	55	foodImage.29	FOODEEG_Images\0278.jpg	YN	Right	No	1.57543500000611	0	478500	253
936.134765625	0	taste	response	2	115	55	foodImage.29	FOODEEG_Images\0278.jpg	YN	Right	No	1.57543500000611	0	479302	235
937.177734375	1	decision	trialStart	2	116	56	foodImage.75	FOODEEG_Images\0763.jpg	NY	Right	Yes	1.38727120030671	0	479836	251
938.22265625	2	decision	foodImageDisplay	2	116	56	foodImage.75	FOODEEG_Images\0763.jpg	NY	Right	Yes	1.38727120030671	0	480371	252
940.28515625	1.38727120030671	decision	choicePhaseStart	2	116	56	foodImage.75	FOODEEG_Images\0763.jpg	NY	Right	Yes	1.38727120030671	0	481427	253
941.662109375	0	decision	response	2	116	56	foodImage.75	FOODEEG_Images\0763.jpg	NY	Right	Yes	1.38727120030671	0	482132	235
942.708984375	1	health	trialStart	2	117	57	foodImage.20	FOODEEG_Images\0226.jpg	NY	Left	No	1.14733960013837	0	482668	251
943.75	2	health	foodImageDisplay	2	117	57	foodImage.20	FOODEEG_Images\0226.jpg	NY	Left	No	1.14733960013837	0	483201	252
945.8125	1.14733960013837	health	choicePhaseStart	2	117	57	foodImage.20	FOODEEG_Images\0226.jpg	NY	Left	No	1.14733960013837	0	484257	253
946.951171875	0	health	response	2	117	57	foodImage.20	FOODEEG_Images\0226.jpg	NY	Left	No	1.14733960013837	0	484840	234
947.994140625	1	taste	trialStart	2	118	58	foodImage.88	FOODEEG_Images\0878.jpg	NY	Right	Yes	0.770683799870312	0	485374	251
949.046875	2	taste	foodImageDisplay	2	118	58	foodImage.88	FOODEEG_Images\0878.jpg	NY	Right	Yes	0.770683799870312	0	485913	252
951.109375	0.770683799870312	taste	choicePhaseStart	2	118	58	foodImage.88	FOODEEG_Images\0878.jpg	NY	Right	Yes	0.770683799870312	0	486969	253
951.87109375	0	taste	response	2	118	58	foodImage.88	FOODEEG_Images\0878.jpg	NY	Right	Yes	0.770683799870312	0	487359	235
952.9140625	1	taste	trialStart	2	119	59	foodImage.66	FOODEEG_Images\0676.jpg	YN	Left	Yes	1.74896149989218	0	487893	251
953.95703125	2	taste	foodImageDisplay	2	119	59	foodImage.66	FOODEEG_Images\0676.jpg	YN	Left	Yes	1.74896149989218	0	488427	252
956.01953125	1.74896149989218	taste	choicePhaseStart	2	119	59	foodImage.66	FOODEEG_Images\0676.jpg	YN	Left	Yes	1.74896149989218	0	489483	253
957.7578125	0	taste	response	2	119	59	foodImage.66	FOODEEG_Images\0676.jpg	YN	Left	Yes	1.74896149989218	0	490373	234
958.80078125	1	decision	trialStart	2	120	60	foodImage.21	FOODEEG_Images\0234.jpg	YN	Left	Yes	1.39006620040163	0	490907	251
959.857421875	2	decision	foodImageDisplay	2	120	60	foodImage.21	FOODEEG_Images\0234.jpg	YN	Left	Yes	1.39006620040163	0	491448	252
961.919921875	1.39006620040163	decision	choicePhaseStart	2	120	60	foodImage.21	FOODEEG_Images\0234.jpg	YN	Left	Yes	1.39006620040163	0	492504	253
963.302734375	0	decision	response	2	120	60	foodImage.21	FOODEEG_Images\0234.jpg	YN	Left	Yes	1.39006620040163	0	493212	234
965.34375	26.05859375	n/a	blockEnd	n/a	n/a	n/a	n/a	n/a	n/a	n/a	n/a	n/a	n/a	494257	254
991.40234375	2	n/a	blockStart	3	n/a	n/a	n/a	n/a	n/a	n/a	n/a	n/a	n/a	507599	250
993.435546875	1	taste	trialStart	3	121	1	foodImage.25	FOODEEG_Images\0261.jpg	NY	Right	Yes	0.834953300189227	0	508640	251
994.4765625	2	taste	foodImageDisplay	3	121	1	foodImage.25	FOODEEG_Images\0261.jpg	NY	Right	Yes	0.834953300189227	0	509173	252
996.5390625	0.834953300189227	taste	choicePhaseStart	3	121	1	foodImage.25	FOODEEG_Images\0261.jpg	NY	Right	Yes	0.834953300189227	0	510229	253
997.365234375	0	taste	response	3	121	1	foodImage.25	FOODEEG_Images\0261.jpg	NY	Right	Yes	0.834953300189227	0	510652	235
998.40625	1	decision	trialStart	3	122	2	foodImage.57	FOODEEG_Images\0587.jpg	NY	Left	No	1.06917269993573	0	511185	251
999.44921875	2	decision	foodImageDisplay	3	122	2	foodImage.57	FOODEEG_Images\0587.jpg	NY	Left	No	1.06917269993573	0	511719	252
1001.513671875	1.06917269993573	decision	choicePhaseStart	3	122	2	foodImage.57	FOODEEG_Images\0587.jpg	NY	Left	No	1.06917269993573	0	512776	253
1002.572265625	0	decision	response	3	122	2	foodImage.57	FOODEEG_Images\0587.jpg	NY	Left	No	1.06917269993573	0	513318	234
1003.61328125	1	taste	trialStart	3	123	3	foodImage.59	FOODEEG_Images\0607.jpg	YN	Left	Yes	1.41149999992922	0	513851	251
1004.658203125	2	taste	foodImageDisplay	3	123	3	foodImage.59	FOODEEG_Images\0607.jpg	YN	Left	Yes	1.41149999992922	0	514386	252
1006.720703125	1.41149999992922	taste	choicePhaseStart	3	123	3	foodImage.59	FOODEEG_Images\0607.jpg	YN	Left	Yes	1.41149999992922	0	515442	253
1008.125	0	taste	response	3	123	3	foodImage.59	FOODEEG_Images\0607.jpg	YN	Left	Yes	1.41149999992922	0	516161	234
1009.16796875	1	taste	trialStart	3	124	4	foodImage.13	FOODEEG_Images\0183.jpg	YN	Left	Yes	1.09285520017147	0	516695	251
1010.2109375	2	taste	foodImageDisplay	3	124	4	foodImage.13	FOODEEG_Images\0183.jpg	YN	Left	Yes	1.09285520017147	0	517229	252
1012.2734375	1.09285520017147	taste	choicePhaseStart	3	124	4	foodImage.13	FOODEEG_Images\0183.jpg	YN	Left	Yes	1.09285520017147	0	518285	253
1013.35546875	0	taste	response	3	124	4	foodImage.13	FOODEEG_Images\0183.jpg	YN	Left	Yes	1.09285520017147	0	518839	234
1014.400390625	1	decision	trialStart	3	125	5	foodImage.40	FOODEEG_Images\0373.jpg	YN	Left	Yes	1.21843109978363	0	519374	251
1015.443359375	2	decision	foodImageDisplay	3	125	5	foodImage.40	FOODEEG_Images\0373.jpg	YN	Left	Yes	1.21843109978363	0	519908	252
1017.505859375	1.21843109978363	decision	choicePhaseStart	3	125	5	foodImage.40	FOODEEG_Images\0373.jpg	YN	Left	Yes	1.21843109978363	0	520964	253
1018.716796875	0	decision	response	3	125	5	foodImage.40	FOODEEG_Images\0373.jpg	YN	Left	Yes	1.21843109978363	0	521584	234
1019.755859375	1	taste	trialStart	3	126	6	foodImage.30	FOODEEG_Images\0282.jpg	YN	Left	Yes	0.912262700032443	0	522116	251
1020.796875	2	taste	foodImageDisplay	3	126	6	foodImage.30	FOODEEG_Images\0282.jpg	YN	Left	Yes	0.912262700032443	0	522649	252
1022.861328125	0.912262700032443	taste	choicePhaseStart	3	126	6	foodImage.30	FOODEEG_Images\0282.jpg	YN	Left	Yes	0.912262700032443	0	523706	253
1023.763671875	0	taste	response	3	126	6	foodImage.30	FOODEEG_Images\0282.jpg	YN	Left	Yes	0.912262700032443	0	524168	234
1024.8046875	1	taste	trialStart	3	127	7	foodImage.113	FOODEEG_Images\0921.jpg	NY	Right	Yes	0.826260400004685	0	524701	251
1025.84375	2	taste	foodImageDisplay	3	127	7	foodImage.113	FOODEEG_Images\0921.jpg	NY	Right	Yes	0.826260400004685	0	525233	252
1027.90625	0.826260400004685	taste	choicePhaseStart	3	127	7	foodImage.113	FOODEEG_Images\0921.jpg	NY	Right	Yes	0.826260400004685	0	526289	253
1028.724609375	0	taste	response	3	127	7	foodImage.113	FOODEEG_Images\0921.jpg	NY	Right	Yes	0.826260400004685	0	526708	235
1029.765625	1	taste	trialStart	3	128	8	foodImage.120	FOODEEG_Images\0928.jpg	YN	Right	No	0.899771600030363	0	527241	251
1030.802734375	2	taste	foodImageDisplay	3	128	8	foodImage.120	FOODEEG_Images\0928.jpg	YN	Right	No	0.899771600030363	0	527772	252
1032.86328125	0.899771600030363	taste	choicePhaseStart	3	128	8	foodImage.120	FOODEEG_Images\0928.jpg	YN	Right	No	0.899771600030363	0	528827	253
1033.755859375	0	taste	response	3	128	8	foodImage.120	FOODEEG_Images\0928.jpg	YN	Right	No	0.899771600030363	0	529284	235
1034.8046875	1	taste	trialStart	3	129	9	foodImage.37	FOODEEG_Images\0359.jpg	YN	Left	Yes	0.735788499936461	0	529821	251
1035.84765625	2	taste	foodImageDisplay	3	129	9	foodImage.37	FOODEEG_Images\0359.jpg	YN	Left	Yes	0.735788499936461	0	530355	252
1037.91015625	0.735788499936461	taste	choicePhaseStart	3	129	9	foodImage.37	FOODEEG_Images\0359.jpg	YN	Left	Yes	0.735788499936461	0	531411	253
1038.634765625	0	taste	response	3	129	9	foodImage.37	FOODEEG_Images\0359.jpg	YN	Left	Yes	0.735788499936461	0	531782	234
1039.6796875	1	decision	trialStart	3	130	10	foodImage.15	FOODEEG_Images\0189.jpg	YN	Left	Yes	2.06919489987195	0	532317	251
1040.736328125	2	decision	foodImageDisplay	3	130	10	foodImage.15	FOODEEG_Images\0189.jpg	YN	Left	Yes	2.06919489987195	0	532858	252
1042.798828125	2.06919489987195	decision	choicePhaseStart	3	130	10	foodImage.15	FOODEEG_Images\0189.jpg	YN	Left	Yes	2.06919489987195	0	533914	253
1044.859375	0	decision	response	3	130	10	foodImage.15	FOODEEG_Images\0189.jpg	YN	Left	Yes	2.06919489987195	0	534969	234
1045.90234375	1	taste	trialStart	3	131	11	foodImage.74	FOODEEG_Images\0752.jpg	YN	Left	Yes	0.674915299750865	0	535503	251
1046.947265625	2	taste	foodImageDisplay	3	131	11	foodImage.74	FOODEEG_Images\0752.jpg	YN	Left	Yes	0.674915299750865	0	536038	252
1049.009765625	0.674915299750865	taste	choicePhaseStart	3	131	11	foodImage.74	FOODEEG_Images\0752.jpg	YN	Left	Yes	0.674915299750865	0	537094	253
1049.673828125	0	taste	response	3	131	11	foodImage.74	FOODEEG_Images\0752.jpg	YN	Left	Yes	0.674915299750865	0	537434	234
1050.71484375	1	decision	trialStart	3	132	12	foodImage.116	FOODEEG_Images\0924.jpg	YN	Right	No	0.860201000235975	0	537967	251
1051.75390625	2	decision	foodImageDisplay	3	132	12	foodImage.116	FOODEEG_Images\0924.jpg	YN	Right	No	0.860201000235975	0	538499	252
1053.81640625	0.860201000235975	decision	choicePhaseStart	3	132	12	foodImage.116	FOODEEG_Images\0924.jpg	YN	Right	No	0.860201000235975	0	539555	253
1054.666015625	0	decision	response	3	132	12	foodImage.116	FOODEEG_Images\0924.jpg	YN	Right	No	0.860201000235975	0	539990	235
1055.70703125	1	taste	trialStart	3	133	13	foodImage.11	FOODEEG_Images\0180.jpg	YN	Right	No	0.681179900187999	0	540523	251
1056.748046875	2	taste	foodImageDisplay	3	133	13	foodImage.11	FOODEEG_Images\0180.jpg	YN	Right	No	0.681179900187999	0	541056	252
1058.810546875	0.681179900187999	taste	choicePhaseStart	3	133	13	foodImage.11	FOODEEG_Images\0180.jpg	YN	Right	No	0.681179900187999	0	542112	253
1059.482421875	0	taste	response	3	133	13	foodImage.11	FOODEEG_Images\0180.jpg	YN	Right	No	0.681179900187999	0	542456	235
1060.52734375	1	decision	trialStart	3	134	14	foodImage.41	FOODEEG_Images\0409.jpg	NY	Right	Yes	0.770061600022018	0	542991	251
1061.576171875	2	decision	foodImageDisplay	3	134	14	foodImage.41	FOODEEG_Images\0409.jpg	NY	Right	Yes	0.770061600022018	0	543528	252
1063.638671875	0.770061600022018	decision	choicePhaseStart	3	134	14	foodImage.41	FOODEEG_Images\0409.jpg	NY	Right	Yes	0.770061600022018	0	544584	253
1064.40234375	0	decision	response	3	134	14	foodImage.41	FOODEEG_Images\0409.jpg	NY	Right	Yes	0.770061600022018	0	544975	235
1065.4453125	1	taste	trialStart	3	135	15	foodImage.89	FOODEEG_Images\0881.jpg	NY	Right	Yes	1.06526240007952	0	545509	251
1066.498046875	2	taste	foodImageDisplay	3	135	15	foodImage.89	FOODEEG_Images\0881.jpg	NY	Right	Yes	1.06526240007952	0	546048	252
1068.560546875	1.06526240007952	taste	choicePhaseStart	3	135	15	foodImage.89	FOODEEG_Images\0881.jpg	NY	Right	Yes	1.06526240007952	0	547104	253
1069.6171875	0	taste	response	3	135	15	foodImage.89	FOODEEG_Images\0881.jpg	NY	Right	Yes	1.06526240007952	0	547645	235
1070.6640625	1	health	trialStart	3	136	16	foodImage.56	FOODEEG_Images\0586.jpg	NY	Right	Yes	2.27376089990139	0	548181	251
1071.705078125	2	health	foodImageDisplay	3	136	16	foodImage.56	FOODEEG_Images\0586.jpg	NY	Right	Yes	2.27376089990139	0	548714	252
1073.767578125	2.27376089990139	health	choicePhaseStart	3	136	16	foodImage.56	FOODEEG_Images\0586.jpg	NY	Right	Yes	2.27376089990139	0	549770	253
1076.033203125	0	health	response	3	136	16	foodImage.56	FOODEEG_Images\0586.jpg	NY	Right	Yes	2.27376089990139	0	550930	235
1077.080078125	1	decision	trialStart	3	137	17	foodImage.112	FOODEEG_Images\0920.jpg	YN	Right	No	1.34311220003292	0	551466	251
1078.1171875	2	decision	foodImageDisplay	3	137	17	foodImage.112	FOODEEG_Images\0920.jpg	YN	Right	No	1.34311220003292	0	551997	252
1080.1796875	1.34311220003292	decision	choicePhaseStart	3	137	17	foodImage.112	FOODEEG_Images\0920.jpg	YN	Right	No	1.34311220003292	0	553053	253
1081.513671875	0	decision	response	3	137	17	foodImage.112	FOODEEG_Images\0920.jpg	YN	Right	No	1.34311220003292	0	553736	235
1082.556640625	1	health	trialStart	3	138	18	foodImage.57	FOODEEG_Images\0587.jpg	YN	Left	Yes	2.2853455003351	0	554270	251
1083.59765625	2	health	foodImageDisplay	3	138	18	foodImage.57	FOODEEG_Images\0587.jpg	YN	Left	Yes	2.2853455003351	0	554803	252
1085.66015625	2.2853455003351	health	choicePhaseStart	3	138	18	foodImage.57	FOODEEG_Images\0587.jpg	YN	Left	Yes	2.2853455003351	0	555859	253
1087.9375	0	health	response	3	138	18	foodImage.57	FOODEEG_Images\0587.jpg	YN	Left	Yes	2.2853455003351	0	557025	234
1088.9765625	1	taste	trialStart	3	139	19	foodImage.5	FOODEEG_Images\0107.jpg	NY	Right	Yes	1.47520169988275	0	557557	251
1090.033203125	2	taste	foodImageDisplay	3	139	19	foodImage.5	FOODEEG_Images\0107.jpg	NY	Right	Yes	1.47520169988275	0	558098	252
1092.095703125	1.47520169988275	taste	choicePhaseStart	3	139	19	foodImage.5	FOODEEG_Images\0107.jpg	NY	Right	Yes	1.47520169988275	0	559154	253
1093.560546875	0	taste	response	3	139	19	foodImage.5	FOODEEG_Images\0107.jpg	NY	Right	Yes	1.47520169988275	0	559904	235
1094.60546875	1	taste	trialStart	3	140	20	foodImage.2	FOODEEG_Images\0028.jpg	YN	Left	Yes	1.92409150023013	0	560439	251
1095.646484375	2	taste	foodImageDisplay	3	140	20	foodImage.2	FOODEEG_Images\0028.jpg	YN	Left	Yes	1.92409150023013	0	560972	252
1097.708984375	1.92409150023013	taste	choicePhaseStart	3	140	20	foodImage.2	FOODEEG_Images\0028.jpg	YN	Left	Yes	1.92409150023013	0	562028	253
1099.625	0	taste	response	3	140	20	foodImage.2	FOODEEG_Images\0028.jpg	YN	Left	Yes	1.92409150023013	0	563009	234
1100.66796875	1	taste	trialStart	3	141	21	foodImage.70	FOODEEG_Images\0705.jpg	NY	Right	Yes	0.923700600396842	0	563543	251
1101.734375	2	taste	foodImageDisplay	3	141	21	foodImage.70	FOODEEG_Images\0705.jpg	NY	Right	Yes	0.923700600396842	0	564089	252
1103.796875	0.923700600396842	taste	choicePhaseStart	3	141	21	foodImage.70	FOODEEG_Images\0705.jpg	NY	Right	Yes	0.923700600396842	0	565145	253
1104.712890625	0	taste	response	3	141	21	foodImage.70	FOODEEG_Images\0705.jpg	NY	Right	Yes	0.923700600396842	0	565614	235
1105.755859375	1	taste	trialStart	3	142	22	foodImage.55	FOODEEG_Images\0567.jpg	YN	Right	No	1.03037520032376	0	566148	251
1106.810546875	2	taste	foodImageDisplay	3	142	22	foodImage.55	FOODEEG_Images\0567.jpg	YN	Right	No	1.03037520032376	0	566688	252
1108.873046875	1.03037520032376	taste	choicePhaseStart	3	142	22	foodImage.55	FOODEEG_Images\0567.jpg	YN	Right	No	1.03037520032376	0	567744	253
1109.896484375	0	taste	response	3	142	22	foodImage.55	FOODEEG_Images\0567.jpg	YN	Right	No	1.03037520032376	0	568268	235
1110.939453125	1	health	trialStart	3	143	23	foodImage.28	FOODEEG_Images\0273.jpg	NY	Right	Yes	1.11743710003793	0	568802	251
1111.98046875	2	health	foodImageDisplay	3	143	23	foodImage.28	FOODEEG_Images\0273.jpg	NY	Right	Yes	1.11743710003793	0	569335	252
1114.04296875	1.11743710003793	health	choicePhaseStart	3	143	23	foodImage.28	FOODEEG_Images\0273.jpg	NY	Right	Yes	1.11743710003793	0	570391	253
1115.15234375	0	health	response	3	143	23	foodImage.28	FOODEEG_Images\0273.jpg	NY	Right	Yes	1.11743710003793	0	570959	235
1116.193359375	1	health	trialStart	3	144	24	foodImage.29	FOODEEG_Images\0278.jpg	NY	Right	Yes	0.830723299644887	0	571492	251
1117.234375	2	health	foodImageDisplay	3	144	24	foodImage.29	FOODEEG_Images\0278.jpg	NY	Right	Yes	0.830723299644887	0	572025	252
1119.296875	0.830723299644887	health	choicePhaseStart	3	144	24	foodImage.29	FOODEEG_Images\0278.jpg	NY	Right	Yes	0.830723299644887	0	573081	253
1120.119140625	0	health	response	3	144	24	foodImage.29	FOODEEG_Images\0278.jpg	NY	Right	Yes	0.830723299644887	0	573502	235
1121.16015625	1	health	trialStart	3	145	25	foodImage.119	FOODEEG_Images\0927.jpg	YN	Right	No	0.837221799883991	0	574035	251
1122.197265625	2	health	foodImageDisplay	3	145	25	foodImage.119	FOODEEG_Images\0927.jpg	YN	Right	No	0.837221799883991	0	574566	252
1124.259765625	0.837221799883991	health	choicePhaseStart	3	145	25	foodImage.119	FOODEEG_Images\0927.jpg	YN	Right	No	0.837221799883991	0	575622	253
1125.087890625	0	health	response	3	145	25	foodImage.119	FOODEEG_Images\0927.jpg	YN	Right	No	0.837221799883991	0	576046	235
1126.12890625	1	health	trialStart	3	146	26	foodImage.46	FOODEEG_Images\0479.jpg	NY	Right	Yes	0.973782500252128	0	576579	251
1127.185546875	2	health	foodImageDisplay	3	146	26	foodImage.46	FOODEEG_Images\0479.jpg	NY	Right	Yes	0.973782500252128	0	577120	252
1129.25	0.973782500252128	health	choicePhaseStart	3	146	26	foodImage.46	FOODEEG_Images\0479.jpg	NY	Right	Yes	0.973782500252128	0	578177	253
1130.21484375	0	health	response	3	146	26	foodImage.46	FOODEEG_Images\0479.jpg	NY	Right	Yes	0.973782500252128	0	578671	235
1131.28125	1	decision	trialStart	3	147	27	foodImage.73	FOODEEG_Images\0717.jpg	NY	Right	Yes	0.841465899720788	0	579217	251
1132.337890625	2	decision	foodImageDisplay	3	147	27	foodImage.73	FOODEEG_Images\0717.jpg	NY	Right	Yes	0.841465899720788	0	579758	252
1134.400390625	0.841465899720788	decision	choicePhaseStart	3	147	27	foodImage.73	FOODEEG_Images\0717.jpg	NY	Right	Yes	0.841465899720788	0	580814	253
1135.232421875	0	decision	response	3	147	27	foodImage.73	FOODEEG_Images\0717.jpg	NY	Right	Yes	0.841465899720788	0	581240	235
1136.2734375	1	health	trialStart	3	148	28	foodImage.43	FOODEEG_Images\0445.jpg	NY	Right	Yes	1.10346639994532	0	581773	251
1137.330078125	2	health	foodImageDisplay	3	148	28	foodImage.43	FOODEEG_Images\0445.jpg	NY	Right	Yes	1.10346639994532	0	582314	252
1139.392578125	1.10346639994532	health	choicePhaseStart	3	148	28	foodImage.43	FOODEEG_Images\0445.jpg	NY	Right	Yes	1.10346639994532	0	583370	253
1140.48828125	0	health	response	3	148	28	foodImage.43	FOODEEG_Images\0445.jpg	NY	Right	Yes	1.10346639994532	0	583931	235
1141.529296875	1	health	trialStart	3	149	29	foodImage.36	FOODEEG_Images\0352.jpg	NY	Right	Yes	0.537289300002158	0	584464	251
1142.5859375	2	health	foodImageDisplay	3	149	29	foodImage.36	FOODEEG_Images\0352.jpg	NY	Right	Yes	0.537289300002158	0	585005	252
1144.646484375	0.537289300002158	health	choicePhaseStart	3	149	29	foodImage.36	FOODEEG_Images\0352.jpg	NY	Right	Yes	0.537289300002158	0	586060	253
1145.17578125	0	health	response	3	149	29	foodImage.36	FOODEEG_Images\0352.jpg	NY	Right	Yes	0.537289300002158	0	586331	235
1146.216796875	1	decision	trialStart	3	150	30	foodImage.24	FOODEEG_Images\0250.jpg	NY	Right	Yes	2.43982549989596	0	586864	251
1147.2578125	2	decision	foodImageDisplay	3	150	30	foodImage.24	FOODEEG_Images\0250.jpg	NY	Right	Yes	2.43982549989596	0	587397	252
1149.3203125	2.43982549989596	decision	choicePhaseStart	3	150	30	foodImage.24	FOODEEG_Images\0250.jpg	NY	Right	Yes	2.43982549989596	0	588453	253
1151.75	0	decision	response	3	150	30	foodImage.24	FOODEEG_Images\0250.jpg	NY	Right	Yes	2.43982549989596	0	589697	235
1152.79296875	1	taste	trialStart	3	151	31	foodImage.40	FOODEEG_Images\0373.jpg	NY	Right	Yes	0.743052199948579	0	590231	251
1153.833984375	2	taste	foodImageDisplay	3	151	31	foodImage.40	FOODEEG_Images\0373.jpg	NY	Right	Yes	0.743052199948579	0	590764	252
1155.896484375	0.743052199948579	taste	choicePhaseStart	3	151	31	foodImage.40	FOODEEG_Images\0373.jpg	NY	Right	Yes	0.743052199948579	0	591820	253
1156.630859375	0	taste	response	3	151	31	foodImage.40	FOODEEG_Images\0373.jpg	NY	Right	Yes	0.743052199948579	0	592196	235
1157.671875	1	decision	trialStart	3	152	32	foodImage.31	FOODEEG_Images\0294.jpg	YN	Right	No	2.29362770030275	0	592729	251
1158.712890625	2	decision	foodImageDisplay	3	152	32	foodImage.31	FOODEEG_Images\0294.jpg	YN	Right	No	2.29362770030275	0	593262	252
1160.77734375	2.29362770030275	decision	choicePhaseStart	3	152	32	foodImage.31	FOODEEG_Images\0294.jpg	YN	Right	No	2.29362770030275	0	594319	253
1163.0625	0	decision	response	3	152	32	foodImage.31	FOODEEG_Images\0294.jpg	YN	Right	No	2.29362770030275	0	595489	235
1164.10546875	1	decision	trialStart	3	153	33	foodImage.108	FOODEEG_Images\0916.jpg	NY	Left	No	1.13687519961968	0	596023	251
1165.14453125	2	decision	foodImageDisplay	3	153	33	foodImage.108	FOODEEG_Images\0916.jpg	NY	Left	No	1.13687519961968	0	596555	252
1167.20703125	1.13687519961968	decision	choicePhaseStart	3	153	33	foodImage.108	FOODEEG_Images\0916.jpg	NY	Left	No	1.13687519961968	0	597611	253
1168.333984375	0	decision	response	3	153	33	foodImage.108	FOODEEG_Images\0916.jpg	NY	Left	No	1.13687519961968	0	598188	234
1169.373046875	1	health	trialStart	3	154	34	foodImage.60	FOODEEG_Images\0614.jpg	YN	Left	Yes	1.82631380017847	0	598720	251
1170.4296875	2	health	foodImageDisplay	3	154	34	foodImage.60	FOODEEG_Images\0614.jpg	YN	Left	Yes	1.82631380017847	0	599261	252
1172.4921875	1.82631380017847	health	choicePhaseStart	3	154	34	foodImage.60	FOODEEG_Images\0614.jpg	YN	Left	Yes	1.82631380017847	0	600317	253
1174.310546875	0	health	response	3	154	34	foodImage.60	FOODEEG_Images\0614.jpg	YN	Left	Yes	1.82631380017847	0	601248	234
1175.349609375	1	decision	trialStart	3	155	35	foodImage.96	FOODEEG_Images\0904.jpg	YN	Right	No	1.54861110029742	0	601780	251
1176.388671875	2	decision	foodImageDisplay	3	155	35	foodImage.96	FOODEEG_Images\0904.jpg	YN	Right	No	1.54861110029742	0	602312	252
1178.451171875	1.54861110029742	decision	choicePhaseStart	3	155	35	foodImage.96	FOODEEG_Images\0904.jpg	YN	Right	No	1.54861110029742	0	603368	253
1179.990234375	0	decision	response	3	155	35	foodImage.96	FOODEEG_Images\0904.jpg	YN	Right	No	1.54861110029742	0	604156	235
1181.033203125	1	taste	trialStart	3	156	36	foodImage.9	FOODEEG_Images\0138.jpg	NY	Right	Yes	1.56353850010782	0	604690	251
1182.09375	2	taste	foodImageDisplay	3	156	36	foodImage.9	FOODEEG_Images\0138.jpg	NY	Right	Yes	1.56353850010782	0	605233	252
1184.154296875	1.56353850010782	taste	choicePhaseStart	3	156	36	foodImage.9	FOODEEG_Images\0138.jpg	NY	Right	Yes	1.56353850010782	0	606288	253
1185.708984375	0	taste	response	3	156	36	foodImage.9	FOODEEG_Images\0138.jpg	NY	Right	Yes	1.56353850010782	0	607084	235
1186.751953125	1	health	trialStart	3	157	37	foodImage.41	FOODEEG_Images\0409.jpg	YN	Left	Yes	1.40927830012515	0	607618	251
1187.798828125	2	health	foodImageDisplay	3	157	37	foodImage.41	FOODEEG_Images\0409.jpg	YN	Left	Yes	1.40927830012515	0	608154	252
1189.861328125	1.40927830012515	health	choicePhaseStart	3	157	37	foodImage.41	FOODEEG_Images\0409.jpg	YN	Left	Yes	1.40927830012515	0	609210	253
1191.26171875	0	health	response	3	157	37	foodImage.41	FOODEEG_Images\0409.jpg	YN	Left	Yes	1.40927830012515	0	609927	234
1192.3046875	1	decision	trialStart	3	158	38	foodImage.76	FOODEEG_Images\0766.jpg	YN	Left	Yes	0.888400699943304	0	610461	251
1193.349609375	2	decision	foodImageDisplay	3	158	38	foodImage.76	FOODEEG_Images\0766.jpg	YN	Left	Yes	0.888400699943304	0	610996	252
1195.412109375	0.888400699943304	decision	choicePhaseStart	3	158	38	foodImage.76	FOODEEG_Images\0766.jpg	YN	Left	Yes	0.888400699943304	0	612052	253
1196.29296875	0	decision	response	3	158	38	foodImage.76	FOODEEG_Images\0766.jpg	YN	Left	Yes	0.888400699943304	0	612503	234
1197.3359375	1	health	trialStart	3	159	39	foodImage.42	FOODEEG_Images\0438.jpg	NY	Right	Yes	1.10185219999403	0	613037	251
1198.427734375	2	health	foodImageDisplay	3	159	39	foodImage.42	FOODEEG_Images\0438.jpg	NY	Right	Yes	1.10185219999403	0	613596	252
1200.48828125	1.10185219999403	health	choicePhaseStart	3	159	39	foodImage.42	FOODEEG_Images\0438.jpg	NY	Right	Yes	1.10185219999403	0	614651	253
1201.580078125	0	health	response	3	159	39	foodImage.42	FOODEEG_Images\0438.jpg	NY	Right	Yes	1.10185219999403	0	615210	235
1202.62109375	1	taste	trialStart	3	160	40	foodImage.109	FOODEEG_Images\0917.jpg	YN	Right	No	0.995917700231075	0	615743	251
1203.66015625	2	taste	foodImageDisplay	3	160	40	foodImage.109	FOODEEG_Images\0917.jpg	YN	Right	No	0.995917700231075	0	616275	252
1205.720703125	0.995917700231075	taste	choicePhaseStart	3	160	40	foodImage.109	FOODEEG_Images\0917.jpg	YN	Right	No	0.995917700231075	0	617330	253
1206.708984375	0	taste	response	3	160	40	foodImage.109	FOODEEG_Images\0917.jpg	YN	Right	No	0.995917700231075	0	617836	235
1207.751953125	1	decision	trialStart	3	161	41	foodImage.87	FOODEEG_Images\0873.jpg	NY	Left	No	1.05956829991192	0	618370	251
1208.8125	2	decision	foodImageDisplay	3	161	41	foodImage.87	FOODEEG_Images\0873.jpg	NY	Left	No	1.05956829991192	0	618913	252
1210.875	1.05956829991192	decision	choicePhaseStart	3	161	41	foodImage.87	FOODEEG_Images\0873.jpg	NY	Left	No	1.05956829991192	0	619969	253
1211.923828125	0	decision	response	3	161	41	foodImage.87	FOODEEG_Images\0873.jpg	NY	Left	No	1.05956829991192	0	620506	234
1212.96875	1	decision	trialStart	3	162	42	foodImage.37	FOODEEG_Images\0359.jpg	YN	Left	Yes	0.854651500005275	0	621041	251
1214.0078125	2	decision	foodImageDisplay	3	162	42	foodImage.37	FOODEEG_Images\0359.jpg	YN	Left	Yes	0.854651500005275	0	621573	252
1216.0703125	0.854651500005275	decision	choicePhaseStart	3	162	42	foodImage.37	FOODEEG_Images\0359.jpg	YN	Left	Yes	0.854651500005275	0	622629	253
1216.916015625	0	decision	response	3	162	42	foodImage.37	FOODEEG_Images\0359.jpg	YN	Left	Yes	0.854651500005275	0	623062	234
1217.958984375	1	decision	trialStart	3	163	43	foodImage.22	FOODEEG_Images\0236.jpg	YN	Right	No	0.718370500020683	0	623596	251
1219	2	decision	foodImageDisplay	3	163	43	foodImage.22	FOODEEG_Images\0236.jpg	YN	Right	No	0.718370500020683	0	624129	252
1221.0625	0.718370500020683	decision	choicePhaseStart	3	163	43	foodImage.22	FOODEEG_Images\0236.jpg	YN	Right	No	0.718370500020683	0	625185	253
1221.771484375	0	decision	response	3	163	43	foodImage.22	FOODEEG_Images\0236.jpg	YN	Right	No	0.718370500020683	0	625548	235
1222.822265625	1	decision	trialStart	3	164	44	foodImage.113	FOODEEG_Images\0921.jpg	YN	Left	Yes	0.656948100309819	0	626086	251
1223.861328125	2	decision	foodImageDisplay	3	164	44	foodImage.113	FOODEEG_Images\0921.jpg	YN	Left	Yes	0.656948100309819	0	626618	252
1225.923828125	0.656948100309819	decision	choicePhaseStart	3	164	44	foodImage.113	FOODEEG_Images\0921.jpg	YN	Left	Yes	0.656948100309819	0	627674	253
1226.572265625	0	decision	response	3	164	44	foodImage.113	FOODEEG_Images\0921.jpg	YN	Left	Yes	0.656948100309819	0	628006	234
1227.61328125	1	decision	trialStart	3	165	45	foodImage.81	FOODEEG_Images\0797.jpg	YN	Left	Yes	1.74464010028169	0	628539	251
1228.669921875	2	decision	foodImageDisplay	3	165	45	foodImage.81	FOODEEG_Images\0797.jpg	YN	Left	Yes	1.74464010028169	0	629080	252
1230.732421875	1.74464010028169	decision	choicePhaseStart	3	165	45	foodImage.81	FOODEEG_Images\0797.jpg	YN	Left	Yes	1.74464010028169	0	630136	253
1232.466796875	0	decision	response	3	165	45	foodImage.81	FOODEEG_Images\0797.jpg	YN	Left	Yes	1.74464010028169	0	631024	234
1233.51171875	1	health	trialStart	3	166	46	foodImage.1	FOODEEG_Images\0004.jpg	YN	Right	No	0.739734700415283	0	631559	251
1234.5546875	2	health	foodImageDisplay	3	166	46	foodImage.1	FOODEEG_Images\0004.jpg	YN	Right	No	0.739734700415283	0	632093	252
1236.615234375	0.739734700415283	health	choicePhaseStart	3	166	46	foodImage.1	FOODEEG_Images\0004.jpg	YN	Right	No	0.739734700415283	0	633148	253
1237.34765625	0	health	response	3	166	46	foodImage.1	FOODEEG_Images\0004.jpg	YN	Right	No	0.739734700415283	0	633523	235
1238.41015625	1	health	trialStart	3	167	47	foodImage.100	FOODEEG_Images\0908.jpg	NY	Right	Yes	0.877007800154388	0	634067	251
1239.44921875	2	health	foodImageDisplay	3	167	47	foodImage.100	FOODEEG_Images\0908.jpg	NY	Right	Yes	0.877007800154388	0	634599	252
1241.51171875	0.877007800154388	health	choicePhaseStart	3	167	47	foodImage.100	FOODEEG_Images\0908.jpg	NY	Right	Yes	0.877007800154388	0	635655	253
1242.37890625	0	health	response	3	167	47	foodImage.100	FOODEEG_Images\0908.jpg	NY	Right	Yes	0.877007800154388	0	636099	235
1243.421875	1	health	trialStart	3	168	48	foodImage.34	FOODEEG_Images\0339.jpg	YN	Right	No	0.676105499733239	0	636633	251
1244.48046875	2	health	foodImageDisplay	3	168	48	foodImage.34	FOODEEG_Images\0339.jpg	YN	Right	No	0.676105499733239	0	637175	252
1246.544921875	0.676105499733239	health	choicePhaseStart	3	168	48	foodImage.34	FOODEEG_Images\0339.jpg	YN	Right	No	0.676105499733239	0	638232	253
1247.2109375	0	health	response	3	168	48	foodImage.34	FOODEEG_Images\0339.jpg	YN	Right	No	0.676105499733239	0	638573	235
1248.25390625	1	taste	trialStart	3	169	49	foodImage.67	FOODEEG_Images\0679.jpg	NY	Left	No	1.20027529960498	0	639107	251
1249.314453125	2	taste	foodImageDisplay	3	169	49	foodImage.67	FOODEEG_Images\0679.jpg	NY	Left	No	1.20027529960498	0	639650	252
1251.37890625	1.20027529960498	taste	choicePhaseStart	3	169	49	foodImage.67	FOODEEG_Images\0679.jpg	NY	Left	No	1.20027529960498	0	640707	253
1252.5703125	0	taste	response	3	169	49	foodImage.67	FOODEEG_Images\0679.jpg	NY	Left	No	1.20027529960498	0	641317	234
1253.61328125	1	decision	trialStart	3	170	50	foodImage.70	FOODEEG_Images\0705.jpg	YN	Right	No	1.50952329998836	0	641851	251
1254.671875	2	decision	foodImageDisplay	3	170	50	foodImage.70	FOODEEG_Images\0705.jpg	YN	Right	No	1.50952329998836	0	642393	252
1256.734375	1.50952329998836	decision	choicePhaseStart	3	170	50	foodImage.70	FOODEEG_Images\0705.jpg	YN	Right	No	1.50952329998836	0	643449	253
1258.234375	0	decision	response	3	170	50	foodImage.70	FOODEEG_Images\0705.jpg	YN	Right	No	1.50952329998836	0	644217	235
1259.279296875	1	taste	trialStart	3	171	51	foodImage.27	FOODEEG_Images\0263.jpg	YN	Left	Yes	0.98805889999494	0	644752	251
1260.3203125	2	taste	foodImageDisplay	3	171	51	foodImage.27	FOODEEG_Images\0263.jpg	YN	Left	Yes	0.98805889999494	0	645285	252
1262.3828125	0.98805889999494	taste	choicePhaseStart	3	171	51	foodImage.27	FOODEEG_Images\0263.jpg	YN	Left	Yes	0.98805889999494	0	646341	253
1263.36328125	0	taste	response	3	171	51	foodImage.27	FOODEEG_Images\0263.jpg	YN	Left	Yes	0.98805889999494	0	646843	234
1264.40625	1	health	trialStart	3	172	52	foodImage.30	FOODEEG_Images\0282.jpg	NY	Right	Yes	0.748953599948436	0	647377	251
1265.447265625	2	health	foodImageDisplay	3	172	52	foodImage.30	FOODEEG_Images\0282.jpg	NY	Right	Yes	0.748953599948436	0	647910	252
1267.509765625	0.748953599948436	health	choicePhaseStart	3	172	52	foodImage.30	FOODEEG_Images\0282.jpg	NY	Right	Yes	0.748953599948436	0	648966	253
1268.25	0	health	response	3	172	52	foodImage.30	FOODEEG_Images\0282.jpg	NY	Right	Yes	0.748953599948436	0	649345	235
1269.29296875	1	health	trialStart	3	173	53	foodImage.98	FOODEEG_Images\0906.jpg	NY	Left	No	0.953538100235164	0	649879	251
1270.33203125	2	health	foodImageDisplay	3	173	53	foodImage.98	FOODEEG_Images\0906.jpg	NY	Left	No	0.953538100235164	0	650411	252
1272.39453125	0.953538100235164	health	choicePhaseStart	3	173	53	foodImage.98	FOODEEG_Images\0906.jpg	NY	Left	No	0.953538100235164	0	651467	253
1273.337890625	0	health	response	3	173	53	foodImage.98	FOODEEG_Images\0906.jpg	NY	Left	No	0.953538100235164	0	651950	234
1274.380859375	1	taste	trialStart	3	174	54	foodImage.58	FOODEEG_Images\0605.jpg	YN	Right	No	1.70672970032319	0	652484	251
1275.44140625	2	taste	foodImageDisplay	3	174	54	foodImage.58	FOODEEG_Images\0605.jpg	YN	Right	No	1.70672970032319	0	653027	252
1277.50390625	1.70672970032319	taste	choicePhaseStart	3	174	54	foodImage.58	FOODEEG_Images\0605.jpg	YN	Right	No	1.70672970032319	0	654083	253
1279.201171875	0	taste	response	3	174	54	foodImage.58	FOODEEG_Images\0605.jpg	YN	Right	No	1.70672970032319	0	654952	235
1280.244140625	1	health	trialStart	3	175	55	foodImage.26	FOODEEG_Images\0262.jpg	YN	Left	Yes	1.02818370005116	0	655486	251
1281.287109375	2	health	foodImageDisplay	3	175	55	foodImage.26	FOODEEG_Images\0262.jpg	YN	Left	Yes	1.02818370005116	0	656020	252
1283.349609375	1.02818370005116	health	choicePhaseStart	3	175	55	foodImage.26	FOODEEG_Images\0262.jpg	YN	Left	Yes	1.02818370005116	0	657076	253
1284.369140625	0	health	response	3	175	55	foodImage.26	FOODEEG_Images\0262.jpg	YN	Left	Yes	1.02818370005116	0	657598	234
1285.412109375	1	taste	trialStart	3	176	56	foodImage.15	FOODEEG_Images\0189.jpg	NY	Right	Yes	1.35017659980804	0	658132	251
1286.470703125	2	taste	foodImageDisplay	3	176	56	foodImage.15	FOODEEG_Images\0189.jpg	NY	Right	Yes	1.35017659980804	0	658674	252
1288.533203125	1.35017659980804	taste	choicePhaseStart	3	176	56	foodImage.15	FOODEEG_Images\0189.jpg	NY	Right	Yes	1.35017659980804	0	659730	253
1289.873046875	0	taste	response	3	176	56	foodImage.15	FOODEEG_Images\0189.jpg	NY	Right	Yes	1.35017659980804	0	660416	235
1290.9140625	1	decision	trialStart	3	177	57	foodImage.107	FOODEEG_Images\0915.jpg	YN	Left	Yes	1.5424998998642	0	660949	251
1291.951171875	2	decision	foodImageDisplay	3	177	57	foodImage.107	FOODEEG_Images\0915.jpg	YN	Left	Yes	1.5424998998642	0	661480	252
1294.013671875	1.5424998998642	decision	choicePhaseStart	3	177	57	foodImage.107	FOODEEG_Images\0915.jpg	YN	Left	Yes	1.5424998998642	0	662536	253
1295.544921875	0	decision	response	3	177	57	foodImage.107	FOODEEG_Images\0915.jpg	YN	Left	Yes	1.5424998998642	0	663320	234
1296.587890625	1	taste	trialStart	3	178	58	foodImage.41	FOODEEG_Images\0409.jpg	YN	Left	Yes	0.837530199903995	0	663854	251
1297.63671875	2	taste	foodImageDisplay	3	178	58	foodImage.41	FOODEEG_Images\0409.jpg	YN	Left	Yes	0.837530199903995	0	664391	252
1299.69921875	0.837530199903995	taste	choicePhaseStart	3	178	58	foodImage.41	FOODEEG_Images\0409.jpg	YN	Left	Yes	0.837530199903995	0	665447	253
1300.529296875	0	taste	response	3	178	58	foodImage.41	FOODEEG_Images\0409.jpg	YN	Left	Yes	0.837530199903995	0	665872	234
1301.572265625	1	taste	trialStart	3	179	59	foodImage.47	FOODEEG_Images\0488.jpg	YN	Left	Yes	0.876419300213456	0	666406	251
1302.61328125	2	taste	foodImageDisplay	3	179	59	foodImage.47	FOODEEG_Images\0488.jpg	YN	Left	Yes	0.876419300213456	0	666939	252
1304.67578125	0.876419300213456	taste	choicePhaseStart	3	179	59	foodImage.47	FOODEEG_Images\0488.jpg	YN	Left	Yes	0.876419300213456	0	667995	253
1305.544921875	0	taste	response	3	179	59	foodImage.47	FOODEEG_Images\0488.jpg	YN	Left	Yes	0.876419300213456	0	668440	234
1306.587890625	1	decision	trialStart	3	180	60	foodImage.79	FOODEEG_Images\0794.jpg	YN	Left	Yes	0.79539979994297	0	668974	251
1307.630859375	2	decision	foodImageDisplay	3	180	60	foodImage.79	FOODEEG_Images\0794.jpg	YN	Left	Yes	0.79539979994297	0	669508	252
1309.693359375	0.79539979994297	decision	choicePhaseStart	3	180	60	foodImage.79	FOODEEG_Images\0794.jpg	YN	Left	Yes	0.79539979994297	0	670564	253
1310.48046875	0	decision	response	3	180	60	foodImage.79	FOODEEG_Images\0794.jpg	YN	Left	Yes	0.79539979994297	0	670967	234
1312.5234375	31.626953125	n/a	blockEnd	n/a	n/a	n/a	n/a	n/a	n/a	n/a	n/a	n/a	n/a	672013	254
1344.150390625	2	n/a	blockStart	4	n/a	n/a	n/a	n/a	n/a	n/a	n/a	n/a	n/a	688206	250
1346.181640625	1	decision	trialStart	4	181	1	foodImage.43	FOODEEG_Images\0445.jpg	NY	Right	Yes	1.66919000027701	0	689246	251
1347.236328125	2	decision	foodImageDisplay	4	181	1	foodImage.43	FOODEEG_Images\0445.jpg	NY	Right	Yes	1.66919000027701	0	689786	252
1349.298828125	1.66919000027701	decision	choicePhaseStart	4	181	1	foodImage.43	FOODEEG_Images\0445.jpg	NY	Right	Yes	1.66919000027701	0	690842	253
1350.958984375	0	decision	response	4	181	1	foodImage.43	FOODEEG_Images\0445.jpg	NY	Right	Yes	1.66919000027701	0	691692	235
1352.00390625	1	taste	trialStart	4	182	2	foodImage.78	FOODEEG_Images\0787.jpg	YN	Right	No	1.70481979986653	0	692227	251
1353.048828125	2	taste	foodImageDisplay	4	182	2	foodImage.78	FOODEEG_Images\0787.jpg	YN	Right	No	1.70481979986653	0	692762	252
1355.109375	1.70481979986653	taste	choicePhaseStart	4	182	2	foodImage.78	FOODEEG_Images\0787.jpg	YN	Right	No	1.70481979986653	0	693817	253
1356.806640625	0	taste	response	4	182	2	foodImage.78	FOODEEG_Images\0787.jpg	YN	Right	No	1.70481979986653	0	694686	235
1357.849609375	1	taste	trialStart	4	183	3	foodImage.75	FOODEEG_Images\0763.jpg	YN	Left	Yes	0.996962000150234	0	695220	251
1358.892578125	2	taste	foodImageDisplay	4	183	3	foodImage.75	FOODEEG_Images\0763.jpg	YN	Left	Yes	0.996962000150234	0	695754	252
1360.955078125	0.996962000150234	taste	choicePhaseStart	4	183	3	foodImage.75	FOODEEG_Images\0763.jpg	YN	Left	Yes	0.996962000150234	0	696810	253
1361.943359375	0	taste	response	4	183	3	foodImage.75	FOODEEG_Images\0763.jpg	YN	Left	Yes	0.996962000150234	0	697316	234
1362.986328125	1	health	trialStart	4	184	4	foodImage.103	FOODEEG_Images\0911.jpg	NY	Left	No	1.20961769996211	0	697850	251
1364.0234375	2	health	foodImageDisplay	4	184	4	foodImage.103	FOODEEG_Images\0911.jpg	NY	Left	No	1.20961769996211	0	698381	252
1366.0859375	1.20961769996211	health	choicePhaseStart	4	184	4	foodImage.103	FOODEEG_Images\0911.jpg	NY	Left	No	1.20961769996211	0	699437	253
1367.287109375	0	health	response	4	184	4	foodImage.103	FOODEEG_Images\0911.jpg	NY	Left	No	1.20961769996211	0	700052	234
1368.34375	1	decision	trialStart	4	185	5	foodImage.42	FOODEEG_Images\0438.jpg	NY	Right	Yes	0.978769999928772	0	700593	251
1369.439453125	2	decision	foodImageDisplay	4	185	5	foodImage.42	FOODEEG_Images\0438.jpg	NY	Right	Yes	0.978769999928772	0	701154	252
1371.5	0.978769999928772	decision	choicePhaseStart	4	185	5	foodImage.42	FOODEEG_Images\0438.jpg	NY	Right	Yes	0.978769999928772	0	702209	253
1372.470703125	0	decision	response	4	185	5	foodImage.42	FOODEEG_Images\0438.jpg	NY	Right	Yes	0.978769999928772	0	702706	235
1373.509765625	1	health	trialStart	4	186	6	foodImage.5	FOODEEG_Images\0107.jpg	NY	Right	Yes	1.63698330009356	0	703238	251
1374.572265625	2	health	foodImageDisplay	4	186	6	foodImage.5	FOODEEG_Images\0107.jpg	NY	Right	Yes	1.63698330009356	0	703782	252
1376.6328125	1.63698330009356	health	choicePhaseStart	4	186	6	foodImage.5	FOODEEG_Images\0107.jpg	NY	Right	Yes	1.63698330009356	0	704837	253
1378.26171875	0	health	response	4	186	6	foodImage.5	FOODEEG_Images\0107.jpg	NY	Right	Yes	1.63698330009356	0	705671	235
1379.302734375	1	decision	trialStart	4	187	7	foodImage.16	FOODEEG_Images\0196.jpg	NY	Right	Yes	2.10002340003848	0	706204	251
1380.357421875	2	decision	foodImageDisplay	4	187	7	foodImage.16	FOODEEG_Images\0196.jpg	NY	Right	Yes	2.10002340003848	0	706744	252
1382.419921875	2.10002340003848	decision	choicePhaseStart	4	187	7	foodImage.16	FOODEEG_Images\0196.jpg	NY	Right	Yes	2.10002340003848	0	707800	253
1384.509765625	0	decision	response	4	187	7	foodImage.16	FOODEEG_Images\0196.jpg	NY	Right	Yes	2.10002340003848	0	708870	235
1385.552734375	1	decision	trialStart	4	188	8	foodImage.45	FOODEEG_Images\0478.jpg	NY	Right	Yes	1.08347389986739	0	709404	251
1386.595703125	2	decision	foodImageDisplay	4	188	8	foodImage.45	FOODEEG_Images\0478.jpg	NY	Right	Yes	1.08347389986739	0	709938	252
1388.658203125	1.08347389986739	decision	choicePhaseStart	4	188	8	foodImage.45	FOODEEG_Images\0478.jpg	NY	Right	Yes	1.08347389986739	0	710994	253
1389.732421875	0	decision	response	4	188	8	foodImage.45	FOODEEG_Images\0478.jpg	NY	Right	Yes	1.08347389986739	0	711544	235
1390.77734375	1	health	trialStart	4	189	9	foodImage.66	FOODEEG_Images\0676.jpg	NY	Left	No	0.837377400137484	0	712079	251
1391.818359375	2	health	foodImageDisplay	4	189	9	foodImage.66	FOODEEG_Images\0676.jpg	NY	Left	No	0.837377400137484	0	712612	252
1393.880859375	0.837377400137484	health	choicePhaseStart	4	189	9	foodImage.66	FOODEEG_Images\0676.jpg	NY	Left	No	0.837377400137484	0	713668	253
1394.708984375	0	health	response	4	189	9	foodImage.66	FOODEEG_Images\0676.jpg	NY	Left	No	0.837377400137484	0	714092	234
1395.75	1	taste	trialStart	4	190	10	foodImage.21	FOODEEG_Images\0234.jpg	YN	Left	Yes	0.761719100177288	0	714625	251
1396.806640625	2	taste	foodImageDisplay	4	190	10	foodImage.21	FOODEEG_Images\0234.jpg	YN	Left	Yes	0.761719100177288	0	715166	252
1398.8671875	0.761719100177288	taste	choicePhaseStart	4	190	10	foodImage.21	FOODEEG_Images\0234.jpg	YN	Left	Yes	0.761719100177288	0	716221	253
1399.62109375	0	taste	response	4	190	10	foodImage.21	FOODEEG_Images\0234.jpg	YN	Left	Yes	0.761719100177288	0	716607	234
1400.662109375	1	taste	trialStart	4	191	11	foodImage.43	FOODEEG_Images\0445.jpg	NY	Right	Yes	0.815189599990845	0	717140	251
1401.720703125	2	taste	foodImageDisplay	4	191	11	foodImage.43	FOODEEG_Images\0445.jpg	NY	Right	Yes	0.815189599990845	0	717682	252
1403.783203125	0.815189599990845	taste	choicePhaseStart	4	191	11	foodImage.43	FOODEEG_Images\0445.jpg	NY	Right	Yes	0.815189599990845	0	718738	253
1404.58984375	0	taste	response	4	191	11	foodImage.43	FOODEEG_Images\0445.jpg	NY	Right	Yes	0.815189599990845	0	719151	235
1405.630859375	1	taste	trialStart	4	192	12	foodImage.83	FOODEEG_Images\0827.jpg	NY	Right	Yes	0.910814200062305	0	719684	251
1406.6875	2	taste	foodImageDisplay	4	192	12	foodImage.83	FOODEEG_Images\0827.jpg	NY	Right	Yes	0.910814200062305	0	720225	252
1408.75	0.910814200062305	taste	choicePhaseStart	4	192	12	foodImage.83	FOODEEG_Images\0827.jpg	NY	Right	Yes	0.910814200062305	0	721281	253
1409.65234375	0	taste	response	4	192	12	foodImage.83	FOODEEG_Images\0827.jpg	NY	Right	Yes	0.910814200062305	0	721743	235
1410.693359375	1	taste	trialStart	4	193	13	foodImage.38	FOODEEG_Images\0365.jpg	NY	Right	Yes	0.739452600013465	0	722276	251
1411.73046875	2	taste	foodImageDisplay	4	193	13	foodImage.38	FOODEEG_Images\0365.jpg	NY	Right	Yes	0.739452600013465	0	722807	252
