onset	duration	trial_type	event_type	block	trial_total	trial_in_block	food_image_code	food_image_path	button_position	resp_position	resp_choice	choice_rt	resp_too_slow	sample	trigger
254.294921875	2	n/a	blockStart	1	n/a	n/a	n/a	n/a	n/a	n/a	n/a	n/a	n/a	130200	250
256.333984375	1	decision	trialStart	1	1	1	foodImage.101	FOODEEG_Images\0909.jpg	YN	Right	No	0.678438500035554	0	131244	251
257.3828125	2	decision	foodImageDisplay	1	1	1	foodImage.101	FOODEEG_Images\0909.jpg	YN	Right	No	0.678438500035554	0	131781	252
259.453125	0.678438500035554	decision	choicePhaseStart	1	1	1	foodImage.101	FOODEEG_Images\0909.jpg	YN	Right	No	0.678438500035554	0	132841	253
260.126953125	0	decision	response	1	1	1	foodImage.101	FOODEEG_Images\0909.jpg	YN	Right	No	0.678438500035554	0	133186	235
261.216796875	1	decision	trialStart	1	2	2	foodImage.67	FOODEEG_Images\0679.jpg	YN	Left	Yes	0.759085000026971	0	133744	251
262.2734375	2	decision	foodImageDisplay	1	2	2	foodImage.67	FOODEEG_Images\0679.jpg	YN	Left	Yes	0.759085000026971	0	134285	252
264.3359375	0.759085000026971	decision	choicePhaseStart	1	2	2	foodImage.67	FOODEEG_Images\0679.jpg	YN	Left	Yes	0.759085000026971	0	135341	253
265.087890625	0	decision	response	1	2	2	foodImage.67	FOODEEG_Images\0679.jpg	YN	Left	Yes	0.759085000026971	0	135726	234
266.138671875	1	health	trialStart	1	3	3	foodImage.66	FOODEEG_Images\0676.jpg	NY	Right	Yes	0.642048200126737	0	136264	251
267.181640625	2	health	foodImageDisplay	1	3	3	foodImage.66	FOODEEG_Images\0676.jpg	NY	Right	Yes	0.642048200126737	0	136798	252
269.244140625	0.642048200126737	health	choicePhaseStart	1	3	3	foodImage.66	FOODEEG_Images\0676.jpg	NY	Right	Yes	0.642048200126737	0	137854	253
269.87890625	0	health	response	1	3	3	foodImage.66	FOODEEG_Images\0676.jpg	NY	Right	Yes	0.642048200126737	0	138179	235
270.931640625	1	health	trialStart	1	4	4	foodImage.68	FOODEEG_Images\0685.jpg	NY	Left	No	0.847703699953854	0	138718	251
272.009765625	2	health	foodImageDisplay	1	4	4	foodImage.68	FOODEEG_Images\0685.jpg	NY	Left	No	0.847703699953854	0	139270	252
274.072265625	0.847703699953854	health	choicePhaseStart	1	4	4	foodImage.68	FOODEEG_Images\0685.jpg	NY	Left	No	0.847703699953854	0	140326	253
274.91015625	0	health	response	1	4	4	foodImage.68	FOODEEG_Images\0685.jpg	NY	Left	No	0.847703699953854	0	140755	234
275.955078125	1	health	trialStart	1	5	5	foodImage.64	FOODEEG_Images\0647.jpg	NY	Left	No	0.536305800080299	0	141290	251
277.013671875	2	health	foodImageDisplay	1	5	5	foodImage.64	FOODEEG_Images\0647.jpg	NY	Left	No	0.536305800080299	0	141832	252
279.080078125	0.536305800080299	health	choicePhaseStart	1	5	5	foodImage.64	FOODEEG_Images\0647.jpg	NY	Left	No	0.536305800080299	0	142890	253
279.607421875	0	health	response	1	5	5	foodImage.64	FOODEEG_Images\0647.jpg	NY	Left	No	0.536305800080299	0	143160	234
280.654296875	1	taste	trialStart	1	6	6	foodImage.115	FOODEEG_Images\0923.jpg	YN	Left	Yes	0.857113000005484	0	143696	251
281.693359375	2	taste	foodImageDisplay	1	6	6	foodImage.115	FOODEEG_Images\0923.jpg	YN	Left	Yes	0.857113000005484	0	144228	252
283.7578125	0.857113000005484	taste	choicePhaseStart	1	6	6	foodImage.115	FOODEEG_Images\0923.jpg	YN	Left	Yes	0.857113000005484	0	145285	253
284.60546875	0	taste	response	1	6	6	foodImage.115	FOODEEG_Images\0923.jpg	YN	Left	Yes	0.857113000005484	0	145719	234
285.646484375	1	taste	trialStart	1	7	7	foodImage.44	FOODEEG_Images\0459.jpg	YN	Left	Yes	0.642473599873483	0	146252	251
286.693359375	2	taste	foodImageDisplay	1	7	7	foodImage.44	FOODEEG_Images\0459.jpg	YN	Left	Yes	0.642473599873483	0	146788	252
288.7578125	0.642473599873483	taste	choicePhaseStart	1	7	7	foodImage.44	FOODEEG_Images\0459.jpg	YN	Left	Yes	0.642473599873483	0	147845	253
289.390625	0	taste	response	1	7	7	foodImage.44	FOODEEG_Images\0459.jpg	YN	Left	Yes	0.642473599873483	0	148169	234
290.44140625	1	decision	trialStart	1	8	8	foodImage.13	FOODEEG_Images\0183.jpg	NY	Right	Yes	1.13288460019976	0	148707	251
291.49609375	2	decision	foodImageDisplay	1	8	8	foodImage.13	FOODEEG_Images\0183.jpg	NY	Right	Yes	1.13288460019976	0	149247	252
293.55859375	1.13288460019976	decision	choicePhaseStart	1	8	8	foodImage.13	FOODEEG_Images\0183.jpg	NY	Right	Yes	1.13288460019976	0	150303	253
294.685546875	0	decision	response	1	8	8	foodImage.13	FOODEEG_Images\0183.jpg	NY	Right	Yes	1.13288460019976	0	150880	235
295.728515625	1	health	trialStart	1	9	9	foodImage.43	FOODEEG_Images\0445.jpg	NY	Right	Yes	1.17724470002577	0	151414	251
296.783203125	2	health	foodImageDisplay	1	9	9	foodImage.43	FOODEEG_Images\0445.jpg	NY	Right	Yes	1.17724470002577	0	151954	252
298.845703125	1.17724470002577	health	choicePhaseStart	1	9	9	foodImage.43	FOODEEG_Images\0445.jpg	NY	Right	Yes	1.17724470002577	0	153010	253
300.013671875	0	health	response	1	9	9	foodImage.43	FOODEEG_Images\0445.jpg	NY	Right	Yes	1.17724470002577	0	153608	235
301.0625	1	decision	trialStart	1	10	10	foodImage.17	FOODEEG_Images\0199.jpg	NY	Right	Yes	0.71164989983663	0	154145	251
302.103515625	2	decision	foodImageDisplay	1	10	10	foodImage.17	FOODEEG_Images\0199.jpg	NY	Right	Yes	0.71164989983663	0	154678	252
304.166015625	0.71164989983663	decision	choicePhaseStart	1	10	10	foodImage.17	FOODEEG_Images\0199.jpg	NY	Right	Yes	0.71164989983663	0	155734	253
304.869140625	0	decision	response	1	10	10	foodImage.17	FOODEEG_Images\0199.jpg	NY	Right	Yes	0.71164989983663	0	156094	235
305.912109375	1	decision	trialStart	1	11	11	foodImage.59	FOODEEG_Images\0607.jpg	NY	Right	Yes	0.785697899991646	0	156628	251
306.95703125	2	decision	foodImageDisplay	1	11	11	foodImage.59	FOODEEG_Images\0607.jpg	NY	Right	Yes	0.785697899991646	0	157163	252
309.01953125	0.785697899991646	decision	choicePhaseStart	1	11	11	foodImage.59	FOODEEG_Images\0607.jpg	NY	Right	Yes	0.785697899991646	0	158219	253
309.796875	0	decision	response	1	11	11	foodImage.59	FOODEEG_Images\0607.jpg	NY	Right	Yes	0.785697899991646	0	158617	235
310.837890625	1	taste	trialStart	1	12	12	foodImage.95	FOODEEG_Images\0903.jpg	YN	Left	Yes	0.546803399920464	0	159150	251
311.875	2	taste	foodImageDisplay	1	12	12	foodImage.95	FOODEEG_Images\0903.jpg	YN	Left	Yes	0.546803399920464	0	159681	252
313.9375	0.546803399920464	taste	choicePhaseStart	1	12	12	foodImage.95	FOODEEG_Images\0903.jpg	YN	Left	Yes	0.546803399920464	0	160737	253
314.4765625	0	taste	response	1	12	12	foodImage.95	FOODEEG_Images\0903.jpg	YN	Left	Yes	0.546803399920464	0	161013	234
315.515625	1	taste	trialStart	1	13	13	foodImage.36	FOODEEG_Images\0352.jpg	NY	Right	Yes	0.685035699978471	0	161545	251
316.59375	2	taste	foodImageDisplay	1	13	13	foodImage.36	FOODEEG_Images\0352.jpg	NY	Right	Yes	0.685035699978471	0	162097	252
318.65625	0.685035699978471	taste	choicePhaseStart	1	13	13	foodImage.36	FOODEEG_Images\0352.jpg	NY	Right	Yes	0.685035699978471	0	163153	253
319.33203125	0	taste	response	1	13	13	foodImage.36	FOODEEG_Images\0352.jpg	NY	Right	Yes	0.685035699978471	0	163499	235
320.373046875	1	decision	trialStart	1	14	14	foodImage.89	FOODEEG_Images\0881.jpg	NY	Right	Yes	0.731378399999812	0	164032	251
321.427734375	2	decision	foodImageDisplay	1	14	14	foodImage.89	FOODEEG_Images\0881.jpg	NY	Right	Yes	0.731378399999812	0	164572	252
323.490234375	0.731378399999812	decision	choicePhaseStart	1	14	14	foodImage.89	FOODEEG_Images\0881.jpg	NY	Right	Yes	0.731378399999812	0	165628	253
324.212890625	0	decision	response	1	14	14	foodImage.89	FOODEEG_Images\0881.jpg	NY	Right	Yes	0.731378399999812	0	165998	235
325.255859375	1	decision	trialStart	1	15	15	foodImage.6	FOODEEG_Images\0113.jpg	YN	Left	Yes	0.56391409994103	0	166532	251
326.296875	2	decision	foodImageDisplay	1	15	15	foodImage.6	FOODEEG_Images\0113.jpg	YN	Left	Yes	0.56391409994103	0	167065	252
328.361328125	0.56391409994103	decision	choicePhaseStart	1	15	15	foodImage.6	FOODEEG_Images\0113.jpg	YN	Left	Yes	0.56391409994103	0	168122	253
328.916015625	0	decision	response	1	15	15	foodImage.6	FOODEEG_Images\0113.jpg	YN	Left	Yes	0.56391409994103	0	168406	234
329.95703125	1	taste	trialStart	1	16	16	foodImage.34	FOODEEG_Images\0339.jpg	NY	Right	Yes	0.465420000022277	0	168939	251
331.013671875	2	taste	foodImageDisplay	1	16	16	foodImage.34	FOODEEG_Images\0339.jpg	NY	Right	Yes	0.465420000022277	0	169480	252
333.076171875	0.465420000022277	taste	choicePhaseStart	1	16	16	foodImage.34	FOODEEG_Images\0339.jpg	NY	Right	Yes	0.465420000022277	0	170536	253
333.53125	0	taste	response	1	16	16	foodImage.34	FOODEEG_Images\0339.jpg	NY	Right	Yes	0.465420000022277	0	170769	235
334.578125	1	decision	trialStart	1	17	17	foodImage.72	FOODEEG_Images\0714.jpg	YN	Right	No	0.68118100007996	0	171305	251
335.62109375	2	decision	foodImageDisplay	1	17	17	foodImage.72	FOODEEG_Images\0714.jpg	YN	Right	No	0.68118100007996	0	171839	252
337.685546875	0.68118100007996	decision	choicePhaseStart	1	17	17	foodImage.72	FOODEEG_Images\0714.jpg	YN	Right	No	0.68118100007996	0	172896	253
338.35546875	0	decision	response	1	17	17	foodImage.72	FOODEEG_Images\0714.jpg	YN	Right	No	0.68118100007996	0	173239	235
339.404296875	1	taste	trialStart	1	18	18	foodImage.40	FOODEEG_Images\0373.jpg	NY	Right	Yes	0.496988700004295	0	173776	251
340.4453125	2	taste	foodImageDisplay	1	18	18	foodImage.40	FOODEEG_Images\0373.jpg	NY	Right	Yes	0.496988700004295	0	174309	252
342.5078125	0.496988700004295	taste	choicePhaseStart	1	18	18	foodImage.40	FOODEEG_Images\0373.jpg	NY	Right	Yes	0.496988700004295	0	175365	253
342.99609375	0	taste	response	1	18	18	foodImage.40	FOODEEG_Images\0373.jpg	NY	Right	Yes	0.496988700004295	0	175615	235
344.03515625	1	health	trialStart	1	19	19	foodImage.57	FOODEEG_Images\0587.jpg	NY	Right	Yes	0.55067569995299	0	176147	251
345.078125	2	health	foodImageDisplay	1	19	19	foodImage.57	FOODEEG_Images\0587.jpg	NY	Right	Yes	0.55067569995299	0	176681	252
347.142578125	0.55067569995299	health	choicePhaseStart	1	19	19	foodImage.57	FOODEEG_Images\0587.jpg	NY	Right	Yes	0.55067569995299	0	177738	253
347.68359375	0	health	response	1	19	19	foodImage.57	FOODEEG_Images\0587.jpg	NY	Right	Yes	0.55067569995299	0	178015	235
348.72265625	1	health	trialStart	1	20	20	foodImage.42	FOODEEG_Images\0438.jpg	NY	Right	Yes	0.761569099966437	0	178547	251
349.81640625	2	health	foodImageDisplay	1	20	20	foodImage.42	FOODEEG_Images\0438.jpg	NY	Right	Yes	0.761569099966437	0	179107	252
351.8828125	0.761569099966437	health	choicePhaseStart	1	20	20	foodImage.42	FOODEEG_Images\0438.jpg	NY	Right	Yes	0.761569099966437	0	180165	253
352.634765625	0	health	response	1	20	20	foodImage.42	FOODEEG_Images\0438.jpg	NY	Right	Yes	0.761569099966437	0	180550	235
353.68359375	1	health	trialStart	1	21	21	foodImage.39	FOODEEG_Images\0367.jpg	YN	Right	No	0.622242499841377	0	181087	251
354.720703125	2	health	foodImageDisplay	1	21	21	foodImage.39	FOODEEG_Images\0367.jpg	YN	Right	No	0.622242499841377	0	181618	252
356.783203125	0.622242499841377	health	choicePhaseStart	1	21	21	foodImage.39	FOODEEG_Images\0367.jpg	YN	Right	No	0.622242499841377	0	182674	253
357.39453125	0	health	response	1	21	21	foodImage.39	FOODEEG_Images\0367.jpg	YN	Right	No	0.622242499841377	0	182987	235
358.4375	1	taste	trialStart	1	22	22	foodImage.113	FOODEEG_Images\0921.jpg	YN	Right	No	0.681549800094217	0	183521	251
359.474609375	2	taste	foodImageDisplay	1	22	22	foodImage.113	FOODEEG_Images\0921.jpg	YN	Right	No	0.681549800094217	0	184052	252
361.53515625	0.681549800094217	taste	choicePhaseStart	1	22	22	foodImage.113	FOODEEG_Images\0921.jpg	YN	Right	No	0.681549800094217	0	185107	253
362.2109375	0	taste	response	1	22	22	foodImage.113	FOODEEG_Images\0921.jpg	YN	Right	No	0.681549800094217	0	185453	235
363.251953125	1	decision	trialStart	1	23	23	foodImage.64	FOODEEG_Images\0647.jpg	NY	Right	Yes	0.788609999930486	0	185986	251
364.3046875	2	decision	foodImageDisplay	1	23	23	foodImage.64	FOODEEG_Images\0647.jpg	NY	Right	Yes	0.788609999930486	0	186525	252
366.3671875	0.788609999930486	decision	choicePhaseStart	1	23	23	foodImage.64	FOODEEG_Images\0647.jpg	NY	Right	Yes	0.788609999930486	0	187581	253
367.1484375	0	decision	response	1	23	23	foodImage.64	FOODEEG_Images\0647.jpg	NY	Right	Yes	0.788609999930486	0	187981	235
368.1875	1	taste	trialStart	1	24	24	foodImage.119	FOODEEG_Images\0927.jpg	YN	Right	No	0.589306999929249	0	188513	251
369.224609375	2	taste	foodImageDisplay	1	24	24	foodImage.119	FOODEEG_Images\0927.jpg	YN	Right	No	0.589306999929249	0	189044	252
371.287109375	0.589306999929249	taste	choicePhaseStart	1	24	24	foodImage.119	FOODEEG_Images\0927.jpg	YN	Right	No	0.589306999929249	0	190100	253
371.865234375	0	taste	response	1	24	24	foodImage.119	FOODEEG_Images\0927.jpg	YN	Right	No	0.589306999929249	0	190396	235
372.91015625	1	decision	trialStart	1	25	25	foodImage.73	FOODEEG_Images\0717.jpg	YN	Right	No	0.692135999910533	0	190931	251
373.96484375	2	decision	foodImageDisplay	1	25	25	foodImage.73	FOODEEG_Images\0717.jpg	YN	Right	No	0.692135999910533	0	191471	252
376.029296875	0.692135999910533	decision	choicePhaseStart	1	25	25	foodImage.73	FOODEEG_Images\0717.jpg	YN	Right	No	0.692135999910533	0	192528	253
376.71484375	0	decision	response	1	25	25	foodImage.73	FOODEEG_Images\0717.jpg	YN	Right	No	0.692135999910533	0	192879	235
377.7578125	1	decision	trialStart	1	26	26	foodImage.33	FOODEEG_Images\0329.jpg	YN	Left	Yes	0.686185900121927	0	193413	251
378.798828125	2	decision	foodImageDisplay	1	26	26	foodImage.33	FOODEEG_Images\0329.jpg	YN	Left	Yes	0.686185900121927	0	193946	252
380.861328125	0.686185900121927	decision	choicePhaseStart	1	26	26	foodImage.33	FOODEEG_Images\0329.jpg	YN	Left	Yes	0.686185900121927	0	195002	253
381.537109375	0	decision	response	1	26	26	foodImage.33	FOODEEG_Images\0329.jpg	YN	Left	Yes	0.686185900121927	0	195348	234
382.580078125	1	health	trialStart	1	27	27	foodImage.13	FOODEEG_Images\0183.jpg	YN	Left	Yes	0.657322499901056	0	195882	251
383.62109375	2	health	foodImageDisplay	1	27	27	foodImage.13	FOODEEG_Images\0183.jpg	YN	Left	Yes	0.657322499901056	0	196415	252
385.68359375	0.657322499901056	health	choicePhaseStart	1	27	27	foodImage.13	FOODEEG_Images\0183.jpg	YN	Left	Yes	0.657322499901056	0	197471	253
386.330078125	0	health	response	1	27	27	foodImage.13	FOODEEG_Images\0183.jpg	YN	Left	Yes	0.657322499901056	0	197802	234
387.373046875	1	taste	trialStart	1	28	28	foodImage.101	FOODEEG_Images\0909.jpg	YN	Right	No	0.54667739989236	0	198336	251
388.41015625	2	taste	foodImageDisplay	1	28	28	foodImage.101	FOODEEG_Images\0909.jpg	YN	Right	No	0.54667739989236	0	198867	252
390.47265625	0.54667739989236	taste	choicePhaseStart	1	28	28	foodImage.101	FOODEEG_Images\0909.jpg	YN	Right	No	0.54667739989236	0	199923	253
391.009765625	0	taste	response	1	28	28	foodImage.101	FOODEEG_Images\0909.jpg	YN	Right	No	0.54667739989236	0	200198	235
392.05078125	1	decision	trialStart	1	29	29	foodImage.102	FOODEEG_Images\0910.jpg	NY	Right	Yes	0.816039399942383	0	200731	251
393.08984375	2	decision	foodImageDisplay	1	29	29	foodImage.102	FOODEEG_Images\0910.jpg	NY	Right	Yes	0.816039399942383	0	201263	252
395.15234375	0.816039399942383	decision	choicePhaseStart	1	29	29	foodImage.102	FOODEEG_Images\0910.jpg	NY	Right	Yes	0.816039399942383	0	202319	253
395.9609375	0	decision	response	1	29	29	foodImage.102	FOODEEG_Images\0910.jpg	NY	Right	Yes	0.816039399942383	0	202733	235
397.009765625	1	health	trialStart	1	30	30	foodImage.92	FOODEEG_Images\0900.jpg	YN	Right	No	0.639135800069198	0	203270	251
398.046875	2	health	foodImageDisplay	1	30	30	foodImage.92	FOODEEG_Images\0900.jpg	YN	Right	No	0.639135800069198	0	203801	252
400.109375	0.639135800069198	health	choicePhaseStart	1	30	30	foodImage.92	FOODEEG_Images\0900.jpg	YN	Right	No	0.639135800069198	0	204857	253
400.73828125	0	health	response	1	30	30	foodImage.92	FOODEEG_Images\0900.jpg	YN	Right	No	0.639135800069198	0	205179	235
401.78515625	1	decision	trialStart	1	31	31	foodImage.103	FOODEEG_Images\0911.jpg	YN	Right	No	0.636751600075513	0	205715	251
402.822265625	2	decision	foodImageDisplay	1	31	31	foodImage.103	FOODEEG_Images\0911.jpg	YN	Right	No	0.636751600075513	0	206246	252
404.884765625	0.636751600075513	decision	choicePhaseStart	1	31	31	foodImage.103	FOODEEG_Images\0911.jpg	YN	Right	No	0.636751600075513	0	207302	253
405.513671875	0	decision	response	1	31	31	foodImage.103	FOODEEG_Images\0911.jpg	YN	Right	No	0.636751600075513	0	207624	235
406.5546875	1	decision	trialStart	1	32	32	foodImage.65	FOODEEG_Images\0658.jpg	YN	Right	No	0.514909700024873	0	208157	251
407.59375	2	decision	foodImageDisplay	1	32	32	foodImage.65	FOODEEG_Images\0658.jpg	YN	Right	No	0.514909700024873	0	208689	252
409.65625	0.514909700024873	decision	choicePhaseStart	1	32	32	foodImage.65	FOODEEG_Images\0658.jpg	YN	Right	No	0.514909700024873	0	209745	253
410.16015625	0	decision	response	1	32	32	foodImage.65	FOODEEG_Images\0658.jpg	YN	Right	No	0.514909700024873	0	210003	235
411.208984375	1	taste	trialStart	1	33	33	foodImage.106	FOODEEG_Images\0914.jpg	NY	Right	Yes	0.650803099852055	0	210540	251
412.248046875	2	taste	foodImageDisplay	1	33	33	foodImage.106	FOODEEG_Images\0914.jpg	NY	Right	Yes	0.650803099852055	0	211072	252
414.310546875	0.650803099852055	taste	choicePhaseStart	1	33	33	foodImage.106	FOODEEG_Images\0914.jpg	NY	Right	Yes	0.650803099852055	0	212128	253
414.953125	0	taste	response	1	33	33	foodImage.106	FOODEEG_Images\0914.jpg	NY	Right	Yes	0.650803099852055	0	212457	235
415.99609375	1	health	trialStart	1	34	34	foodImage.117	FOODEEG_Images\0925.jpg	YN	Right	No	0.520635100081563	0	212991	251
417.03515625	2	health	foodImageDisplay	1	34	34	foodImage.117	FOODEEG_Images\0925.jpg	YN	Right	No	0.520635100081563	0	213523	252
419.09765625	0.520635100081563	health	choicePhaseStart	1	34	34	foodImage.117	FOODEEG_Images\0925.jpg	YN	Right	No	0.520635100081563	0	214579	253
419.609375	0	health	response	1	34	34	foodImage.117	FOODEEG_Images\0925.jpg	YN	Right	No	0.520635100081563	0	214841	235
420.650390625	1	decision	trialStart	1	35	35	foodImage.41	FOODEEG_Images\0409.jpg	NY	Right	Yes	0.818208999931812	0	215374	251
421.6953125	2	decision	foodImageDisplay	1	35	35	foodImage.41	FOODEEG_Images\0409.jpg	NY	Right	Yes	0.818208999931812	0	215909	252
423.7578125	0.818208999931812	decision	choicePhaseStart	1	35	35	foodImage.41	FOODEEG_Images\0409.jpg	NY	Right	Yes	0.818208999931812	0	216965	253
424.568359375	0	decision	response	1	35	35	foodImage.41	FOODEEG_Images\0409.jpg	NY	Right	Yes	0.818208999931812	0	217380	235
425.609375	1	decision	trialStart	1	36	36	foodImage.46	FOODEEG_Images\0479.jpg	YN	Left	Yes	0.868283499963582	0	217913	251
426.6640625	2	decision	foodImageDisplay	1	36	36	foodImage.46	FOODEEG_Images\0479.jpg	YN	Left	Yes	0.868283499963582	0	218453	252
428.732421875	0.868283499963582	decision	choicePhaseStart	1	36	36	foodImage.46	FOODEEG_Images\0479.jpg	YN	Left	Yes	0.868283499963582	0	219512	253
429.591796875	0	decision	response	1	36	36	foodImage.46	FOODEEG_Images\0479.jpg	YN	Left	Yes	0.868283499963582	0	219952	234
430.6328125	1	taste	trialStart	1	37	37	foodImage.2	FOODEEG_Images\0028.jpg	YN	Left	Yes	0.591054500080645	0	220485	251
431.673828125	2	taste	foodImageDisplay	1	37	37	foodImage.2	FOODEEG_Images\0028.jpg	YN	Left	Yes	0.591054500080645	0	221018	252
433.734375	0.591054500080645	taste	choicePhaseStart	1	37	37	foodImage.2	FOODEEG_Images\0028.jpg	YN	Left	Yes	0.591054500080645	0	222073	253
434.3203125	0	taste	response	1	37	37	foodImage.2	FOODEEG_Images\0028.jpg	YN	Left	Yes	0.591054500080645	0	222373	234
435.361328125	1	decision	trialStart	1	38	38	foodImage.1	FOODEEG_Images\0004.jpg	NY	Right	Yes	0.559945299988613	0	222906	251
436.40234375	2	decision	foodImageDisplay	1	38	38	foodImage.1	FOODEEG_Images\0004.jpg	NY	Right	Yes	0.559945299988613	0	223439	252
438.46484375	0.559945299988613	decision	choicePhaseStart	1	38	38	foodImage.1	FOODEEG_Images\0004.jpg	NY	Right	Yes	0.559945299988613	0	224495	253
439.015625	0	decision	response	1	38	38	foodImage.1	FOODEEG_Images\0004.jpg	NY	Right	Yes	0.559945299988613	0	224777	235
440.05859375	1	decision	trialStart	1	39	39	foodImage.47	FOODEEG_Images\0488.jpg	YN	Left	Yes	0.808309699874371	0	225311	251
441.099609375	2	decision	foodImageDisplay	1	39	39	foodImage.47	FOODEEG_Images\0488.jpg	YN	Left	Yes	0.808309699874371	0	225844	252
443.162109375	0.808309699874371	decision	choicePhaseStart	1	39	39	foodImage.47	FOODEEG_Images\0488.jpg	YN	Left	Yes	0.808309699874371	0	226900	253
443.958984375	0	decision	response	1	39	39	foodImage.47	FOODEEG_Images\0488.jpg	YN	Left	Yes	0.808309699874371	0	227308	234
445.00390625	1	health	trialStart	1	40	40	foodImage.109	FOODEEG_Images\0917.jpg	NY	Right	Yes	0.569689300144091	0	227843	251
446.041015625	2	health	foodImageDisplay	1	40	40	foodImage.109	FOODEEG_Images\0917.jpg	NY	Right	Yes	0.569689300144091	0	228374	252
448.103515625	0.569689300144091	health	choicePhaseStart	1	40	40	foodImage.109	FOODEEG_Images\0917.jpg	NY	Right	Yes	0.569689300144091	0	229430	253
448.6640625	0	health	response	1	40	40	foodImage.109	FOODEEG_Images\0917.jpg	NY	Right	Yes	0.569689300144091	0	229717	235
449.703125	1	health	trialStart	1	41	41	foodImage.74	FOODEEG_Images\0752.jpg	NY	Right	Yes	0.543806199915707	0	230249	251
450.74609375	2	health	foodImageDisplay	1	41	41	foodImage.74	FOODEEG_Images\0752.jpg	NY	Right	Yes	0.543806199915707	0	230783	252
452.80859375	0.543806199915707	health	choicePhaseStart	1	41	41	foodImage.74	FOODEEG_Images\0752.jpg	NY	Right	Yes	0.543806199915707	0	231839	253
453.34375	0	health	response	1	41	41	foodImage.74	FOODEEG_Images\0752.jpg	NY	Right	Yes	0.543806199915707	0	232113	235
454.392578125	1	health	trialStart	1	42	42	foodImage.97	FOODEEG_Images\0905.jpg	YN	Right	No	0.809842400019988	0	232650	251
455.431640625	2	health	foodImageDisplay	1	42	42	foodImage.97	FOODEEG_Images\0905.jpg	YN	Right	No	0.809842400019988	0	233182	252
457.494140625	0.809842400019988	health	choicePhaseStart	1	42	42	foodImage.97	FOODEEG_Images\0905.jpg	YN	Right	No	0.809842400019988	0	234238	253
458.294921875	0	health	response	1	42	42	foodImage.97	FOODEEG_Images\0905.jpg	YN	Right	No	0.809842400019988	0	234648	235
459.337890625	1	health	trialStart	1	43	43	foodImage.118	FOODEEG_Images\0926.jpg	NY	Right	Yes	0.97040730016306	0	235182	251
460.375	2	health	foodImageDisplay	1	43	43	foodImage.118	FOODEEG_Images\0926.jpg	NY	Right	Yes	0.97040730016306	0	235713	252
462.439453125	0.97040730016306	health	choicePhaseStart	1	43	43	foodImage.118	FOODEEG_Images\0926.jpg	NY	Right	Yes	0.97040730016306	0	236770	253
463.3984375	0	health	response	1	43	43	foodImage.118	FOODEEG_Images\0926.jpg	NY	Right	Yes	0.97040730016306	0	237261	235
464.447265625	1	health	trialStart	1	44	44	foodImage.65	FOODEEG_Images\0658.jpg	NY	Left	No	1.28302860003896	0	237798	251
465.486328125	2	health	foodImageDisplay	1	44	44	foodImage.65	FOODEEG_Images\0658.jpg	NY	Left	No	1.28302860003896	0	238330	252
467.548828125	1.28302860003896	health	choicePhaseStart	1	44	44	foodImage.65	FOODEEG_Images\0658.jpg	NY	Left	No	1.28302860003896	0	239386	253
468.822265625	0	health	response	1	44	44	foodImage.65	FOODEEG_Images\0658.jpg	NY	Left	No	1.28302860003896	0	240038	234
469.861328125	1	health	trialStart	1	45	45	foodImage.14	FOODEEG_Images\0188.jpg	NY	Right	Yes	0.809877899941057	0	240570	251
470.919921875	2	health	foodImageDisplay	1	45	45	foodImage.14	FOODEEG_Images\0188.jpg	NY	Right	Yes	0.809877899941057	0	241112	252
472.982421875	0.809877899941057	health	choicePhaseStart	1	45	45	foodImage.14	FOODEEG_Images\0188.jpg	NY	Right	Yes	0.809877899941057	0	242168	253
473.783203125	0	health	response	1	45	45	foodImage.14	FOODEEG_Images\0188.jpg	NY	Right	Yes	0.809877899941057	0	242578	235
474.826171875	1	decision	trialStart	1	46	46	foodImage.10	FOODEEG_Images\0145.jpg	YN	Left	Yes	0.695754999993369	0	243112	251
475.880859375	2	decision	foodImageDisplay	1	46	46	foodImage.10	FOODEEG_Images\0145.jpg	YN	Left	Yes	0.695754999993369	0	243652	252
477.943359375	0.695754999993369	decision	choicePhaseStart	1	46	46	foodImage.10	FOODEEG_Images\0145.jpg	YN	Left	Yes	0.695754999993369	0	244708	253
478.630859375	0	decision	response	1	46	46	foodImage.10	FOODEEG_Images\0145.jpg	YN	Left	Yes	0.695754999993369	0	245060	234
479.673828125	1	taste	trialStart	1	47	47	foodImage.24	FOODEEG_Images\0250.jpg	YN	Left	Yes	0.854057500138879	0	245594	251
480.71484375	2	taste	foodImageDisplay	1	47	47	foodImage.24	FOODEEG_Images\0250.jpg	YN	Left	Yes	0.854057500138879	0	246127	252
482.77734375	0.854057500138879	taste	choicePhaseStart	1	47	47	foodImage.24	FOODEEG_Images\0250.jpg	YN	Left	Yes	0.854057500138879	0	247183	253
483.62109375	0	taste	response	1	47	47	foodImage.24	FOODEEG_Images\0250.jpg	YN	Left	Yes	0.854057500138879	0	247615	234
484.666015625	1	taste	trialStart	1	48	48	foodImage.50	FOODEEG_Images\0529.jpg	NY	Right	Yes	0.720118999946862	0	248150	251
485.74609375	2	taste	foodImageDisplay	1	48	48	foodImage.50	FOODEEG_Images\0529.jpg	NY	Right	Yes	0.720118999946862	0	248703	252
487.806640625	0.720118999946862	taste	choicePhaseStart	1	48	48	foodImage.50	FOODEEG_Images\0529.jpg	NY	Right	Yes	0.720118999946862	0	249758	253
488.517578125	0	taste	response	1	48	48	foodImage.50	FOODEEG_Images\0529.jpg	NY	Right	Yes	0.720118999946862	0	250122	235
489.56640625	1	taste	trialStart	1	49	49	foodImage.88	FOODEEG_Images\0878.jpg	NY	Right	Yes	0.626709699863568	0	250659	251
490.623046875	2	taste	foodImageDisplay	1	49	49	foodImage.88	FOODEEG_Images\0878.jpg	NY	Right	Yes	0.626709699863568	0	251200	252
492.69140625	0.626709699863568	taste	choicePhaseStart	1	49	49	foodImage.88	FOODEEG_Images\0878.jpg	NY	Right	Yes	0.626709699863568	0	252259	253
493.30859375	0	taste	response	1	49	49	foodImage.88	FOODEEG_Images\0878.jpg	NY	Right	Yes	0.626709699863568	0	252575	235
494.349609375	1	taste	trialStart	1	50	50	foodImage.66	FOODEEG_Images\0676.jpg	NY	Right	Yes	0.553578200051561	0	253108	251
495.390625	2	taste	foodImageDisplay	1	50	50	foodImage.66	FOODEEG_Images\0676.jpg	NY	Right	Yes	0.553578200051561	0	253641	252
497.453125	0.553578200051561	taste	choicePhaseStart	1	50	50	foodImage.66	FOODEEG_Images\0676.jpg	NY	Right	Yes	0.553578200051561	0	254697	253
497.998046875	0	taste	response	1	50	50	foodImage.66	FOODEEG_Images\0676.jpg	NY	Right	Yes	0.553578200051561	0	254976	235
499.0390625	1	decision	trialStart	1	51	51	foodImage.90	FOODEEG_Images\0890.jpg	YN	Left	Yes	0.735613600118086	0	255509	251
500.095703125	2	decision	foodImageDisplay	1	51	51	foodImage.90	FOODEEG_Images\0890.jpg	YN	Left	Yes	0.735613600118086	0	256050	252
502.158203125	0.735613600118086	decision	choicePhaseStart	1	51	51	foodImage.90	FOODEEG_Images\0890.jpg	YN	Left	Yes	0.735613600118086	0	257106	253
502.884765625	0	decision	response	1	51	51	foodImage.90	FOODEEG_Images\0890.jpg	YN	Left	Yes	0.735613600118086	0	257478	234
503.927734375	1	decision	trialStart	1	52	52	foodImage.32	FOODEEG_Images\0319.jpg	NY	Right	Yes	0.623093800153583	0	258012	251
504.970703125	2	decision	foodImageDisplay	1	52	52	foodImage.32	FOODEEG_Images\0319.jpg	NY	Right	Yes	0.623093800153583	0	258546	252
507.033203125	0.623093800153583	decision	choicePhaseStart	1	52	52	foodImage.32	FOODEEG_Images\0319.jpg	NY	Right	Yes	0.623093800153583	0	259602	253
507.64453125	0	decision	response	1	52	52	foodImage.32	FOODEEG_Images\0319.jpg	NY	Right	Yes	0.623093800153583	0	259915	235
508.693359375	1	decision	trialStart	1	53	53	foodImage.80	FOODEEG_Images\0796.jpg	NY	Right	Yes	0.759531300049275	0	260452	251
509.751953125	2	decision	foodImageDisplay	1	53	53	foodImage.80	FOODEEG_Images\0796.jpg	NY	Right	Yes	0.759531300049275	0	260994	252
511.814453125	0.759531300049275	decision	choicePhaseStart	1	53	53	foodImage.80	FOODEEG_Images\0796.jpg	NY	Right	Yes	0.759531300049275	0	262050	253
512.564453125	0	decision	response	1	53	53	foodImage.80	FOODEEG_Images\0796.jpg	NY	Right	Yes	0.759531300049275	0	262434	235
513.615234375	1	health	trialStart	1	54	54	foodImage.76	FOODEEG_Images\0766.jpg	YN	Left	Yes	0.676183300092816	0	262972	251
514.66015625	2	health	foodImageDisplay	1	54	54	foodImage.76	FOODEEG_Images\0766.jpg	YN	Left	Yes	0.676183300092816	0	263507	252
516.72265625	0.676183300092816	health	choicePhaseStart	1	54	54	foodImage.76	FOODEEG_Images\0766.jpg	YN	Left	Yes	0.676183300092816	0	264563	253
517.388671875	0	health	response	1	54	54	foodImage.76	FOODEEG_Images\0766.jpg	YN	Left	Yes	0.676183300092816	0	264904	234
518.4296875	1	health	trialStart	1	55	55	foodImage.36	FOODEEG_Images\0352.jpg	NY	Right	Yes	0.524831699905917	0	265437	251
519.48828125	2	health	foodImageDisplay	1	55	55	foodImage.36	FOODEEG_Images\0352.jpg	NY	Right	Yes	0.524831699905917	0	265979	252
521.55078125	0.524831699905917	health	choicePhaseStart	1	55	55	foodImage.36	FOODEEG_Images\0352.jpg	NY	Right	Yes	0.524831699905917	0	267035	253
522.068359375	0	health	response	1	55	55	foodImage.36	FOODEEG_Images\0352.jpg	NY	Right	Yes	0.524831699905917	0	267300	235
523.109375	1	taste	trialStart	1	56	56	foodImage.48	FOODEEG_Images\0494.jpg	YN	Left	Yes	0.585734399966896	0	267833	251
524.150390625	2	taste	foodImageDisplay	1	56	56	foodImage.48	FOODEEG_Images\0494.jpg	YN	Left	Yes	0.585734399966896	0	268366	252
526.212890625	0.585734399966896	taste	choicePhaseStart	1	56	56	foodImage.48	FOODEEG_Images\0494.jpg	YN	Left	Yes	0.585734399966896	0	269422	253
526.787109375	0	taste	response	1	56	56	foodImage.48	FOODEEG_Images\0494.jpg	YN	Left	Yes	0.585734399966896	0	269716	234
527.830078125	1	taste	trialStart	1	57	57	foodImage.53	FOODEEG_Images\0547.jpg	NY	Right	Yes	0.517925600055605	0	270250	251
528.888671875	2	taste	foodImageDisplay	1	57	57	foodImage.53	FOODEEG_Images\0547.jpg	NY	Right	Yes	0.517925600055605	0	270792	252
530.951171875	0.517925600055605	taste	choicePhaseStart	1	57	57	foodImage.53	FOODEEG_Images\0547.jpg	NY	Right	Yes	0.517925600055605	0	271848	253
531.4609375	0	taste	response	1	57	57	foodImage.53	FOODEEG_Images\0547.jpg	NY	Right	Yes	0.517925600055605	0	272109	235
532.501953125	1	health	trialStart	1	58	58	foodImage.46	FOODEEG_Images\0479.jpg	YN	Left	Yes	0.593570200027898	0	272642	251
533.55859375	2	health	foodImageDisplay	1	58	58	foodImage.46	FOODEEG_Images\0479.jpg	YN	Left	Yes	0.593570200027898	0	273183	252
535.62109375	0.593570200027898	health	choicePhaseStart	1	58	58	foodImage.46	FOODEEG_Images\0479.jpg	YN	Left	Yes	0.593570200027898	0	274239	253
536.203125	0	health	response	1	58	58	foodImage.46	FOODEEG_Images\0479.jpg	YN	Left	Yes	0.593570200027898	0	274537	234
537.244140625	1	taste	trialStart	1	59	59	foodImage.8	FOODEEG_Images\0136.jpg	YN	Left	Yes	0.658448900096118	0	275070	251
538.28515625	2	taste	foodImageDisplay	1	59	59	foodImage.8	FOODEEG_Images\0136.jpg	YN	Left	Yes	0.658448900096118	0	275603	252
540.34765625	0.658448900096118	taste	choicePhaseStart	1	59	59	foodImage.8	FOODEEG_Images\0136.jpg	YN	Left	Yes	0.658448900096118	0	276659	253
540.99609375	0	taste	response	1	59	59	foodImage.8	FOODEEG_Images\0136.jpg	YN	Left	Yes	0.658448900096118	0	276991	234
542.0390625	1	taste	trialStart	1	60	60	foodImage.13	FOODEEG_Images\0183.jpg	YN	Left	Yes	0.524032300105318	0	277525	251
543.080078125	2	taste	foodImageDisplay	1	60	60	foodImage.13	FOODEEG_Images\0183.jpg	YN	Left	Yes	0.524032300105318	0	278058	252
545.142578125	0.524032300105318	taste	choicePhaseStart	1	60	60	foodImage.13	FOODEEG_Images\0183.jpg	YN	Left	Yes	0.524032300105318	0	279114	253
545.66015625	0	taste	response	1	60	60	foodImage.13	FOODEEG_Images\0183.jpg	YN	Left	Yes	0.524032300105318	0	279379	234
547.712890625	57.400390625	n/a	blockEnd	n/a	n/a	n/a	n/a	n/a	n/a	n/a	n/a	n/a	n/a	280430	254
605.11328125	2	n/a	blockStart	2	n/a	n/a	n/a	n/a	n/a	n/a	n/a	n/a	n/a	309819	250
607.14453125	1	taste	trialStart	2	61	1	foodImage.6	FOODEEG_Images\0113.jpg	YN	Left	Yes	0.480309300124645	0	310859	251
608.185546875	2	taste	foodImageDisplay	2	61	1	foodImage.6	FOODEEG_Images\0113.jpg	YN	Left	Yes	0.480309300124645	0	311392	252
610.25	0.480309300124645	taste	choicePhaseStart	2	61	1	foodImage.6	FOODEEG_Images\0113.jpg	YN	Left	Yes	0.480309300124645	0	312449	253
610.720703125	0	taste	response	2	61	1	foodImage.6	FOODEEG_Images\0113.jpg	YN	Left	Yes	0.480309300124645	0	312690	234
611.767578125	1	taste	trialStart	2	62	2	foodImage.19	FOODEEG_Images\0225.jpg	NY	Left	No	0.456287799868733	0	313226	251
612.810546875	2	taste	foodImageDisplay	2	62	2	foodImage.19	FOODEEG_Images\0225.jpg	NY	Left	No	0.456287799868733	0	313760	252
614.873046875	0.456287799868733	taste	choicePhaseStart	2	62	2	foodImage.19	FOODEEG_Images\0225.jpg	NY	Left	No	0.456287799868733	0	314816	253
615.3203125	0	taste	response	2	62	2	foodImage.19	FOODEEG_Images\0225.jpg	NY	Left	No	0.456287799868733	0	315045	234
616.36328125	1	health	trialStart	2	63	3	foodImage.16	FOODEEG_Images\0196.jpg	NY	Right	Yes	0.58556509995833	0	315579	251
617.41796875	2	health	foodImageDisplay	2	63	3	foodImage.16	FOODEEG_Images\0196.jpg	NY	Right	Yes	0.58556509995833	0	316119	252
619.48046875	0.58556509995833	health	choicePhaseStart	2	63	3	foodImage.16	FOODEEG_Images\0196.jpg	NY	Right	Yes	0.58556509995833	0	317175	253
620.056640625	0	health	response	2	63	3	foodImage.16	FOODEEG_Images\0196.jpg	NY	Right	Yes	0.58556509995833	0	317470	235
621.099609375	1	decision	trialStart	2	64	4	foodImage.94	FOODEEG_Images\0902.jpg	NY	Right	Yes	0.510262799914926	0	318004	251
622.138671875	2	decision	foodImageDisplay	2	64	4	foodImage.94	FOODEEG_Images\0902.jpg	NY	Right	Yes	0.510262799914926	0	318536	252
624.203125	0.510262799914926	decision	choicePhaseStart	2	64	4	foodImage.94	FOODEEG_Images\0902.jpg	NY	Right	Yes	0.510262799914926	0	319593	253
624.705078125	0	decision	response	2	64	4	foodImage.94	FOODEEG_Images\0902.jpg	NY	Right	Yes	0.510262799914926	0	319850	235
625.748046875	1	decision	trialStart	2	65	5	foodImage.24	FOODEEG_Images\0250.jpg	YN	Left	Yes	0.599085499998182	0	320384	251
626.7890625	2	decision	foodImageDisplay	2	65	5	foodImage.24	FOODEEG_Images\0250.jpg	YN	Left	Yes	0.599085499998182	0	320917	252
628.8515625	0.599085499998182	decision	choicePhaseStart	2	65	5	foodImage.24	FOODEEG_Images\0250.jpg	YN	Left	Yes	0.599085499998182	0	321973	253
629.439453125	0	decision	response	2	65	5	foodImage.24	FOODEEG_Images\0250.jpg	YN	Left	Yes	0.599085499998182	0	322274	234
630.482421875	1	decision	trialStart	2	66	6	foodImage.87	FOODEEG_Images\0873.jpg	YN	Left	Yes	0.570499999914318	0	322808	251
631.537109375	2	decision	foodImageDisplay	2	66	6	foodImage.87	FOODEEG_Images\0873.jpg	YN	Left	Yes	0.570499999914318	0	323348	252
633.599609375	0.570499999914318	decision	choicePhaseStart	2	66	6	foodImage.87	FOODEEG_Images\0873.jpg	YN	Left	Yes	0.570499999914318	0	324404	253
634.16015625	0	decision	response	2	66	6	foodImage.87	FOODEEG_Images\0873.jpg	YN	Left	Yes	0.570499999914318	0	324691	234
635.203125	1	decision	trialStart	2	67	7	foodImage.2	FOODEEG_Images\0028.jpg	YN	Left	Yes	0.600967700127512	0	325225	251
636.2578125	2	decision	foodImageDisplay	2	67	7	foodImage.2	FOODEEG_Images\0028.jpg	YN	Left	Yes	0.600967700127512	0	325765	252
638.3203125	0.600967700127512	decision	choicePhaseStart	2	67	7	foodImage.2	FOODEEG_Images\0028.jpg	YN	Left	Yes	0.600967700127512	0	326821	253
638.912109375	0	decision	response	2	67	7	foodImage.2	FOODEEG_Images\0028.jpg	YN	Left	Yes	0.600967700127512	0	327124	234
639.953125	1	decision	trialStart	2	68	8	foodImage.110	FOODEEG_Images\0918.jpg	NY	Right	Yes	0.6048577001784	0	327657	251
640.990234375	2	decision	foodImageDisplay	2	68	8	foodImage.110	FOODEEG_Images\0918.jpg	NY	Right	Yes	0.6048577001784	0	328188	252
643.052734375	0.6048577001784	decision	choicePhaseStart	2	68	8	foodImage.110	FOODEEG_Images\0918.jpg	NY	Right	Yes	0.6048577001784	0	329244	253
643.6484375	0	decision	response	2	68	8	foodImage.110	FOODEEG_Images\0918.jpg	NY	Right	Yes	0.6048577001784	0	329549	235
644.689453125	1	taste	trialStart	2	69	9	foodImage.46	FOODEEG_Images\0479.jpg	YN	Left	Yes	0.662912899861112	0	330082	251
645.748046875	2	taste	foodImageDisplay	2	69	9	foodImage.46	FOODEEG_Images\0479.jpg	YN	Left	Yes	0.662912899861112	0	330624	252
647.810546875	0.662912899861112	taste	choicePhaseStart	2	69	9	foodImage.46	FOODEEG_Images\0479.jpg	YN	Left	Yes	0.662912899861112	0	331680	253
648.462890625	0	taste	response	2	69	9	foodImage.46	FOODEEG_Images\0479.jpg	YN	Left	Yes	0.662912899861112	0	332014	234
649.50390625	1	health	trialStart	2	70	10	foodImage.53	FOODEEG_Images\0547.jpg	YN	Left	Yes	0.587854800047353	0	332547	251
650.55859375	2	health	foodImageDisplay	2	70	10	foodImage.53	FOODEEG_Images\0547.jpg	YN	Left	Yes	0.587854800047353	0	333087	252
652.62109375	0.587854800047353	health	choicePhaseStart	2	70	10	foodImage.53	FOODEEG_Images\0547.jpg	YN	Left	Yes	0.587854800047353	0	334143	253
653.19921875	0	health	response	2	70	10	foodImage.53	FOODEEG_Images\0547.jpg	YN	Left	Yes	0.587854800047353	0	334439	234
654.2421875	1	decision	trialStart	2	71	11	foodImage.34	FOODEEG_Images\0339.jpg	NY	Right	Yes	0.633307999931276	0	334973	251
655.296875	2	decision	foodImageDisplay	2	71	11	foodImage.34	FOODEEG_Images\0339.jpg	NY	Right	Yes	0.633307999931276	0	335513	252
657.359375	0.633307999931276	decision	choicePhaseStart	2	71	11	foodImage.34	FOODEEG_Images\0339.jpg	NY	Right	Yes	0.633307999931276	0	336569	253
657.982421875	0	decision	response	2	71	11	foodImage.34	FOODEEG_Images\0339.jpg	NY	Right	Yes	0.633307999931276	0	336888	235
659.0234375	1	health	trialStart	2	72	12	foodImage.87	FOODEEG_Images\0873.jpg	NY	Right	Yes	0.587784199975431	0	337421	251
660.078125	2	health	foodImageDisplay	2	72	12	foodImage.87	FOODEEG_Images\0873.jpg	NY	Right	Yes	0.587784199975431	0	337961	252
662.140625	0.587784199975431	health	choicePhaseStart	2	72	12	foodImage.87	FOODEEG_Images\0873.jpg	NY	Right	Yes	0.587784199975431	0	339017	253
662.71875	0	health	response	2	72	12	foodImage.87	FOODEEG_Images\0873.jpg	NY	Right	Yes	0.587784199975431	0	339313	235
663.76171875	1	decision	trialStart	2	73	13	foodImage.36	FOODEEG_Images\0352.jpg	YN	Left	Yes	0.735992500092834	0	339847	251
664.818359375	2	decision	foodImageDisplay	2	73	13	foodImage.36	FOODEEG_Images\0352.jpg	YN	Left	Yes	0.735992500092834	0	340388	252
666.880859375	0.735992500092834	decision	choicePhaseStart	2	73	13	foodImage.36	FOODEEG_Images\0352.jpg	YN	Left	Yes	0.735992500092834	0	341444	253
667.607421875	0	decision	response	2	73	13	foodImage.36	FOODEEG_Images\0352.jpg	YN	Left	Yes	0.735992500092834	0	341816	234
668.650390625	1	health	trialStart	2	74	14	foodImage.55	FOODEEG_Images\0567.jpg	NY	Right	Yes	0.686337199993432	0	342350	251
669.708984375	2	health	foodImageDisplay	2	74	14	foodImage.55	FOODEEG_Images\0567.jpg	NY	Right	Yes	0.686337199993432	0	342892	252
671.77734375	0.686337199993432	health	choicePhaseStart	2	74	14	foodImage.55	FOODEEG_Images\0567.jpg	NY	Right	Yes	0.686337199993432	0	343951	253
672.455078125	0	health	response	2	74	14	foodImage.55	FOODEEG_Images\0567.jpg	NY	Right	Yes	0.686337199993432	0	344298	235
673.501953125	1	health	trialStart	2	75	15	foodImage.81	FOODEEG_Images\0797.jpg	NY	Right	Yes	0.559855900006369	0	344834	251
674.560546875	2	health	foodImageDisplay	2	75	15	foodImage.81	FOODEEG_Images\0797.jpg	NY	Right	Yes	0.559855900006369	0	345376	252
676.623046875	0.559855900006369	health	choicePhaseStart	2	75	15	foodImage.81	FOODEEG_Images\0797.jpg	NY	Right	Yes	0.559855900006369	0	346432	253
677.173828125	0	health	response	2	75	15	foodImage.81	FOODEEG_Images\0797.jpg	NY	Right	Yes	0.559855900006369	0	346714	235
678.228515625	1	decision	trialStart	2	76	16	foodImage.100	FOODEEG_Images\0908.jpg	NY	Left	No	0.88232019986026	0	347254	251
679.267578125	2	decision	foodImageDisplay	2	76	16	foodImage.100	FOODEEG_Images\0908.jpg	NY	Left	No	0.88232019986026	0	347786	252
681.330078125	0.88232019986026	decision	choicePhaseStart	2	76	16	foodImage.100	FOODEEG_Images\0908.jpg	NY	Left	No	0.88232019986026	0	348842	253
682.20703125	0	decision	response	2	76	16	foodImage.100	FOODEEG_Images\0908.jpg	NY	Left	No	0.88232019986026	0	349291	234
683.25	1	health	trialStart	2	77	17	foodImage.9	FOODEEG_Images\0138.jpg	NY	Left	No	0.683423600159585	0	349825	251
684.30859375	2	health	foodImageDisplay	2	77	17	foodImage.9	FOODEEG_Images\0138.jpg	NY	Left	No	0.683423600159585	0	350367	252
686.37109375	0.683423600159585	health	choicePhaseStart	2	77	17	foodImage.9	FOODEEG_Images\0138.jpg	NY	Left	No	0.683423600159585	0	351423	253
687.044921875	0	health	response	2	77	17	foodImage.9	FOODEEG_Images\0138.jpg	NY	Left	No	0.683423600159585	0	351768	234
688.08984375	1	health	trialStart	2	78	18	foodImage.120	FOODEEG_Images\0928.jpg	YN	Right	No	0.785149599891156	0	352303	251
689.126953125	2	health	foodImageDisplay	2	78	18	foodImage.120	FOODEEG_Images\0928.jpg	YN	Right	No	0.785149599891156	0	352834	252
691.189453125	0.785149599891156	health	choicePhaseStart	2	78	18	foodImage.120	FOODEEG_Images\0928.jpg	YN	Right	No	0.785149599891156	0	353890	253
691.96484375	0	health	response	2	78	18	foodImage.120	FOODEEG_Images\0928.jpg	YN	Right	No	0.785149599891156	0	354287	235
693.005859375	1	taste	trialStart	2	79	19	foodImage.67	FOODEEG_Images\0679.jpg	NY	Right	Yes	0.716423199977726	0	354820	251
694.06640625	2	taste	foodImageDisplay	2	79	19	foodImage.67	FOODEEG_Images\0679.jpg	NY	Right	Yes	0.716423199977726	0	355363	252
696.130859375	0.716423199977726	taste	choicePhaseStart	2	79	19	foodImage.67	FOODEEG_Images\0679.jpg	NY	Right	Yes	0.716423199977726	0	356420	253
696.837890625	0	taste	response	2	79	19	foodImage.67	FOODEEG_Images\0679.jpg	NY	Right	Yes	0.716423199977726	0	356782	235
697.880859375	1	decision	trialStart	2	80	20	foodImage.79	FOODEEG_Images\0794.jpg	NY	Right	Yes	0.620604099938646	0	357316	251
698.923828125	2	decision	foodImageDisplay	2	80	20	foodImage.79	FOODEEG_Images\0794.jpg	NY	Right	Yes	0.620604099938646	0	357850	252
700.986328125	0.620604099938646	decision	choicePhaseStart	2	80	20	foodImage.79	FOODEEG_Images\0794.jpg	NY	Right	Yes	0.620604099938646	0	358906	253
701.59765625	0	decision	response	2	80	20	foodImage.79	FOODEEG_Images\0794.jpg	NY	Right	Yes	0.620604099938646	0	359219	235
702.642578125	1	health	trialStart	2	81	21	foodImage.113	FOODEEG_Images\0921.jpg	NY	Left	No	0.608044299995527	0	359754	251
703.6796875	2	health	foodImageDisplay	2	81	21	foodImage.113	FOODEEG_Images\0921.jpg	NY	Left	No	0.608044299995527	0	360285	252
705.7421875	0.608044299995527	health	choicePhaseStart	2	81	21	foodImage.113	FOODEEG_Images\0921.jpg	NY	Left	No	0.608044299995527	0	361341	253
706.341796875	0	health	response	2	81	21	foodImage.113	FOODEEG_Images\0921.jpg	NY	Left	No	0.608044299995527	0	361648	234
707.388671875	1	health	trialStart	2	82	22	foodImage.20	FOODEEG_Images\0226.jpg	YN	Left	Yes	0.723308200016618	0	362184	251
708.4296875	2	health	foodImageDisplay	2	82	22	foodImage.20	FOODEEG_Images\0226.jpg	YN	Left	Yes	0.723308200016618	0	362717	252
710.4921875	0.723308200016618	health	choicePhaseStart	2	82	22	foodImage.20	FOODEEG_Images\0226.jpg	YN	Left	Yes	0.723308200016618	0	363773	253
711.205078125	0	health	response	2	82	22	foodImage.20	FOODEEG_Images\0226.jpg	YN	Left	Yes	0.723308200016618	0	364138	234
712.248046875	1	decision	trialStart	2	83	23	foodImage.42	FOODEEG_Images\0438.jpg	YN	Right	No	0.778921700082719	0	364672	251
713.33984375	2	decision	foodImageDisplay	2	83	23	foodImage.42	FOODEEG_Images\0438.jpg	YN	Right	No	0.778921700082719	0	365231	252
715.404296875	0.778921700082719	decision	choicePhaseStart	2	83	23	foodImage.42	FOODEEG_Images\0438.jpg	YN	Right	No	0.778921700082719	0	366288	253
716.173828125	0	decision	response	2	83	23	foodImage.42	FOODEEG_Images\0438.jpg	YN	Right	No	0.778921700082719	0	366682	235
717.216796875	1	health	trialStart	2	84	24	foodImage.10	FOODEEG_Images\0145.jpg	NY	Left	No	0.770475799916312	0	367216	251
718.27734375	2	health	foodImageDisplay	2	84	24	foodImage.10	FOODEEG_Images\0145.jpg	NY	Left	No	0.770475799916312	0	367759	252
720.33984375	0.770475799916312	health	choicePhaseStart	2	84	24	foodImage.10	FOODEEG_Images\0145.jpg	NY	Left	No	0.770475799916312	0	368815	253
721.099609375	0	health	response	2	84	24	foodImage.10	FOODEEG_Images\0145.jpg	NY	Left	No	0.770475799916312	0	369204	234
722.146484375	1	taste	trialStart	2	85	25	foodImage.43	FOODEEG_Images\0445.jpg	NY	Left	No	0.581089200219139	0	369740	251
723.203125	2	taste	foodImageDisplay	2	85	25	foodImage.43	FOODEEG_Images\0445.jpg	NY	Left	No	0.581089200219139	0	370281	252
725.265625	0.581089200219139	taste	choicePhaseStart	2	85	25	foodImage.43	FOODEEG_Images\0445.jpg	NY	Left	No	0.581089200219139	0	371337	253
725.8359375	0	taste	response	2	85	25	foodImage.43	FOODEEG_Images\0445.jpg	NY	Left	No	0.581089200219139	0	371629	234
726.87890625	1	decision	trialStart	2	86	26	foodImage.50	FOODEEG_Images\0529.jpg	YN	Left	Yes	0.714940400095657	0	372163	251
727.935546875	2	decision	foodImageDisplay	2	86	26	foodImage.50	FOODEEG_Images\0529.jpg	YN	Left	Yes	0.714940400095657	0	372704	252
730.00390625	0.714940400095657	decision	choicePhaseStart	2	86	26	foodImage.50	FOODEEG_Images\0529.jpg	YN	Left	Yes	0.714940400095657	0	373763	253
730.708984375	0	decision	response	2	86	26	foodImage.50	FOODEEG_Images\0529.jpg	YN	Left	Yes	0.714940400095657	0	374124	234
731.75	1	health	trialStart	2	87	27	foodImage.6	FOODEEG_Images\0113.jpg	YN	Right	No	0.664165100082755	0	374657	251
732.791015625	2	health	foodImageDisplay	2	87	27	foodImage.6	FOODEEG_Images\0113.jpg	YN	Right	No	0.664165100082755	0	375190	252
734.853515625	0.664165100082755	health	choicePhaseStart	2	87	27	foodImage.6	FOODEEG_Images\0113.jpg	YN	Right	No	0.664165100082755	0	376246	253
735.5078125	0	health	response	2	87	27	foodImage.6	FOODEEG_Images\0113.jpg	YN	Right	No	0.664165100082755	0	376581	235
736.55078125	1	taste	trialStart	2	88	28	foodImage.68	FOODEEG_Images\0685.jpg	YN	Right	No	0.585179300047457	0	377115	251
737.62890625	2	taste	foodImageDisplay	2	88	28	foodImage.68	FOODEEG_Images\0685.jpg	YN	Right	No	0.585179300047457	0	377667	252
739.69140625	0.585179300047457	taste	choicePhaseStart	2	88	28	foodImage.68	FOODEEG_Images\0685.jpg	YN	Right	No	0.585179300047457	0	378723	253
740.267578125	0	taste	response	2	88	28	foodImage.68	FOODEEG_Images\0685.jpg	YN	Right	No	0.585179300047457	0	379018	235
741.30859375	1	decision	trialStart	2	89	29	foodImage.45	FOODEEG_Images\0478.jpg	NY	Right	Yes	0.641544200014323	0	379551	251
742.357421875	2	decision	foodImageDisplay	2	89	29	foodImage.45	FOODEEG_Images\0478.jpg	NY	Right	Yes	0.641544200014323	0	380088	252
744.419921875	0.641544200014323	decision	choicePhaseStart	2	89	29	foodImage.45	FOODEEG_Images\0478.jpg	NY	Right	Yes	0.641544200014323	0	381144	253
745.052734375	0	decision	response	2	89	29	foodImage.45	FOODEEG_Images\0478.jpg	NY	Right	Yes	0.641544200014323	0	381468	235
746.091796875	1	health	trialStart	2	90	30	foodImage.29	FOODEEG_Images\0278.jpg	YN	Right	No	0.695662899874151	0	382000	251
747.1328125	2	health	foodImageDisplay	2	90	30	foodImage.29	FOODEEG_Images\0278.jpg	YN	Right	No	0.695662899874151	0	382533	252
749.1953125	0.695662899874151	health	choicePhaseStart	2	90	30	foodImage.29	FOODEEG_Images\0278.jpg	YN	Right	No	0.695662899874151	0	383589	253
749.8828125	0	health	response	2	90	30	foodImage.29	FOODEEG_Images\0278.jpg	YN	Right	No	0.695662899874151	0	383941	235
750.931640625	1	taste	trialStart	2	91	31	foodImage.15	FOODEEG_Images\0189.jpg	YN	Left	Yes	0.647445699898526	0	384478	251
751.9921875	2	taste	foodImageDisplay	2	91	31	foodImage.15	FOODEEG_Images\0189.jpg	YN	Left	Yes	0.647445699898526	0	385021	252
754.0546875	0.647445699898526	taste	choicePhaseStart	2	91	31	foodImage.15	FOODEEG_Images\0189.jpg	YN	Left	Yes	0.647445699898526	0	386077	253
754.69140625	0	taste	response	2	91	31	foodImage.15	FOODEEG_Images\0189.jpg	YN	Left	Yes	0.647445699898526	0	386403	234
755.73828125	1	decision	trialStart	2	92	32	foodImage.8	FOODEEG_Images\0136.jpg	NY	Right	Yes	0.671956800157204	0	386939	251
756.78125	2	decision	foodImageDisplay	2	92	32	foodImage.8	FOODEEG_Images\0136.jpg	NY	Right	Yes	0.671956800157204	0	387473	252
758.84375	0.671956800157204	decision	choicePhaseStart	2	92	32	foodImage.8	FOODEEG_Images\0136.jpg	NY	Right	Yes	0.671956800157204	0	388529	253
759.5078125	0	decision	response	2	92	32	foodImage.8	FOODEEG_Images\0136.jpg	NY	Right	Yes	0.671956800157204	0	388869	235
760.548828125	1	health	trialStart	2	93	33	foodImage.107	FOODEEG_Images\0915.jpg	NY	Left	No	0.731262699933723	0	389402	251
761.5859375	2	health	foodImageDisplay	2	93	33	foodImage.107	FOODEEG_Images\0915.jpg	NY	Left	No	0.731262699933723	0	389933	252
763.6484375	0.731262699933723	health	choicePhaseStart	2	93	33	foodImage.107	FOODEEG_Images\0915.jpg	NY	Left	No	0.731262699933723	0	390989	253
764.37109375	0	health	response	2	93	33	foodImage.107	FOODEEG_Images\0915.jpg	NY	Left	No	0.731262699933723	0	391359	234
765.4140625	1	taste	trialStart	2	94	34	foodImage.4	FOODEEG_Images\0065.jpg	NY	Right	Yes	0.45568779995665	0	391893	251
766.470703125	2	taste	foodImageDisplay	2	94	34	foodImage.4	FOODEEG_Images\0065.jpg	NY	Right	Yes	0.45568779995665	0	392434	252
768.533203125	0.45568779995665	taste	choicePhaseStart	2	94	34	foodImage.4	FOODEEG_Images\0065.jpg	NY	Right	Yes	0.45568779995665	0	393490	253
768.978515625	0	taste	response	2	94	34	foodImage.4	FOODEEG_Images\0065.jpg	NY	Right	Yes	0.45568779995665	0	393718	235
770.025390625	1	taste	trialStart	2	95	35	foodImage.76	FOODEEG_Images\0766.jpg	YN	Right	No	0.861525199841708	0	394254	251
771.0703125	2	taste	foodImageDisplay	2	95	35	foodImage.76	FOODEEG_Images\0766.jpg	YN	Right	No	0.861525199841708	0	394789	252
773.1328125	0.861525199841708	taste	choicePhaseStart	2	95	35	foodImage.76	FOODEEG_Images\0766.jpg	YN	Right	No	0.861525199841708	0	395845	253
773.986328125	0	taste	response	2	95	35	foodImage.76	FOODEEG_Images\0766.jpg	YN	Right	No	0.861525199841708	0	396282	235
775.02734375	1	decision	trialStart	2	96	36	foodImage.28	FOODEEG_Images\0273.jpg	YN	Right	No	0.815858100075275	0	396815	251
776.068359375	2	decision	foodImageDisplay	2	96	36	foodImage.28	FOODEEG_Images\0273.jpg	YN	Right	No	0.815858100075275	0	397348	252
778.130859375	0.815858100075275	decision	choicePhaseStart	2	96	36	foodImage.28	FOODEEG_Images\0273.jpg	YN	Right	No	0.815858100075275	0	398404	253
778.9375	0	decision	response	2	96	36	foodImage.28	FOODEEG_Images\0273.jpg	YN	Right	No	0.815858100075275	0	398817	235
779.98046875	1	taste	trialStart	2	97	37	foodImage.25	FOODEEG_Images\0261.jpg	YN	Right	No	0.927471899893135	0	399351	251
781.021484375	2	taste	foodImageDisplay	2	97	37	foodImage.25	FOODEEG_Images\0261.jpg	YN	Right	No	0.927471899893135	0	399884	252
783.083984375	0.927471899893135	taste	choicePhaseStart	2	97	37	foodImage.25	FOODEEG_Images\0261.jpg	YN	Right	No	0.927471899893135	0	400940	253
784.001953125	0	taste	response	2	97	37	foodImage.25	FOODEEG_Images\0261.jpg	YN	Right	No	0.927471899893135	0	401410	235
785.044921875	1	decision	trialStart	2	98	38	foodImage.26	FOODEEG_Images\0262.jpg	YN	Right	No	0.774129800032824	0	401944	251
786.0859375	2	decision	foodImageDisplay	2	98	38	foodImage.26	FOODEEG_Images\0262.jpg	YN	Right	No	0.774129800032824	0	402477	252
788.1484375	0.774129800032824	decision	choicePhaseStart	2	98	38	foodImage.26	FOODEEG_Images\0262.jpg	YN	Right	No	0.774129800032824	0	403533	253
788.9140625	0	decision	response	2	98	38	foodImage.26	FOODEEG_Images\0262.jpg	YN	Right	No	0.774129800032824	0	403925	235
789.96484375	1	decision	trialStart	2	99	39	foodImage.77	FOODEEG_Images\0771.jpg	YN	Left	Yes	0.877038900041953	0	404463	251
791.0078125	2	decision	foodImageDisplay	2	99	39	foodImage.77	FOODEEG_Images\0771.jpg	YN	Left	Yes	0.877038900041953	0	404997	252
793.0703125	0.877038900041953	decision	choicePhaseStart	2	99	39	foodImage.77	FOODEEG_Images\0771.jpg	YN	Left	Yes	0.877038900041953	0	406053	253
793.9375	0	decision	response	2	99	39	foodImage.77	FOODEEG_Images\0771.jpg	YN	Left	Yes	0.877038900041953	0	406497	234
794.982421875	1	taste	trialStart	2	100	40	foodImage.49	FOODEEG_Images\0515.jpg	YN	Left	Yes	0.565491100074723	0	407032	251
796.0234375	2	taste	foodImageDisplay	2	100	40	foodImage.49	FOODEEG_Images\0515.jpg	YN	Left	Yes	0.565491100074723	0	407565	252
798.0859375	0.565491100074723	taste	choicePhaseStart	2	100	40	foodImage.49	FOODEEG_Images\0515.jpg	YN	Left	Yes	0.565491100074723	0	408621	253
798.642578125	0	taste	response	2	100	40	foodImage.49	FOODEEG_Images\0515.jpg	YN	Left	Yes	0.565491100074723	0	408906	234
799.68359375	1	health	trialStart	2	101	41	foodImage.85	FOODEEG_Images\0841.jpg	NY	Right	Yes	0.531830899883062	0	409439	251
800.73828125	2	health	foodImageDisplay	2	101	41	foodImage.85	FOODEEG_Images\0841.jpg	NY	Right	Yes	0.531830899883062	0	409979	252
802.798828125	0.531830899883062	health	choicePhaseStart	2	101	41	foodImage.85	FOODEEG_Images\0841.jpg	NY	Right	Yes	0.531830899883062	0	411034	253
803.322265625	0	health	response	2	101	41	foodImage.85	FOODEEG_Images\0841.jpg	NY	Right	Yes	0.531830899883062	0	411302	235
804.365234375	1	health	trialStart	2	102	42	foodImage.17	FOODEEG_Images\0199.jpg	NY	Right	Yes	0.697166600031778	0	411836	251
805.412109375	2	health	foodImageDisplay	2	102	42	foodImage.17	FOODEEG_Images\0199.jpg	NY	Right	Yes	0.697166600031778	0	412372	252
807.474609375	0.697166600031778	health	choicePhaseStart	2	102	42	foodImage.17	FOODEEG_Images\0199.jpg	NY	Right	Yes	0.697166600031778	0	413428	253
808.162109375	0	health	response	2	102	42	foodImage.17	FOODEEG_Images\0199.jpg	NY	Right	Yes	0.697166600031778	0	413780	235
809.208984375	1	decision	trialStart	2	103	43	foodImage.95	FOODEEG_Images\0903.jpg	NY	Left	No	0.723992899991572	0	414316	251
810.248046875	2	decision	foodImageDisplay	2	103	43	foodImage.95	FOODEEG_Images\0903.jpg	NY	Left	No	0.723992899991572	0	414848	252
812.310546875	0.723992899991572	decision	choicePhaseStart	2	103	43	foodImage.95	FOODEEG_Images\0903.jpg	NY	Left	No	0.723992899991572	0	415904	253
813.025390625	0	decision	response	2	103	43	foodImage.95	FOODEEG_Images\0903.jpg	NY	Left	No	0.723992899991572	0	416270	234
814.0703125	1	taste	trialStart	2	104	44	foodImage.51	FOODEEG_Images\0536.jpg	YN	Left	Yes	1.14379659993574	0	416805	251
815.1171875	2	taste	foodImageDisplay	2	104	44	foodImage.51	FOODEEG_Images\0536.jpg	YN	Left	Yes	1.14379659993574	0	417341	252
817.1796875	1.14379659993574	taste	choicePhaseStart	2	104	44	foodImage.51	FOODEEG_Images\0536.jpg	YN	Left	Yes	1.14379659993574	0	418397	253
818.3125	0	taste	response	2	104	44	foodImage.51	FOODEEG_Images\0536.jpg	YN	Left	Yes	1.14379659993574	0	418977	234
819.359375	1	health	trialStart	2	105	45	foodImage.23	FOODEEG_Images\0244.jpg	YN	Left	Yes	0.570518600055948	0	419513	251
820.40234375	2	health	foodImageDisplay	2	105	45	foodImage.23	FOODEEG_Images\0244.jpg	YN	Left	Yes	0.570518600055948	0	420047	252
822.46484375	0.570518600055948	health	choicePhaseStart	2	105	45	foodImage.23	FOODEEG_Images\0244.jpg	YN	Left	Yes	0.570518600055948	0	421103	253
823.025390625	0	health	response	2	105	45	foodImage.23	FOODEEG_Images\0244.jpg	YN	Left	Yes	0.570518600055948	0	421390	234
824.068359375	1	decision	trialStart	2	106	46	foodImage.62	FOODEEG_Images\0644.jpg	YN	Left	Yes	0.543935799971223	0	421924	251
825.123046875	2	decision	foodImageDisplay	2	106	46	foodImage.62	FOODEEG_Images\0644.jpg	YN	Left	Yes	0.543935799971223	0	422464	252
827.185546875	0.543935799971223	decision	choicePhaseStart	2	106	46	foodImage.62	FOODEEG_Images\0644.jpg	YN	Left	Yes	0.543935799971223	0	423520	253
827.720703125	0	decision	response	2	106	46	foodImage.62	FOODEEG_Images\0644.jpg	YN	Left	Yes	0.543935799971223	0	423794	234
828.763671875	1	decision	trialStart	2	107	47	foodImage.20	FOODEEG_Images\0226.jpg	NY	Right	Yes	0.775273200124502	0	424328	251
829.80859375	2	decision	foodImageDisplay	2	107	47	foodImage.20	FOODEEG_Images\0226.jpg	NY	Right	Yes	0.775273200124502	0	424863	252
831.875	0.775273200124502	decision	choicePhaseStart	2	107	47	foodImage.20	FOODEEG_Images\0226.jpg	NY	Right	Yes	0.775273200124502	0	425921	253
832.640625	0	decision	response	2	107	47	foodImage.20	FOODEEG_Images\0226.jpg	NY	Right	Yes	0.775273200124502	0	426313	235
833.68359375	1	health	trialStart	2	108	48	foodImage.89	FOODEEG_Images\0881.jpg	NY	Right	Yes	0.633129399968311	0	426847	251
834.73828125	2	health	foodImageDisplay	2	108	48	foodImage.89	FOODEEG_Images\0881.jpg	NY	Right	Yes	0.633129399968311	0	427387	252
836.80078125	0.633129399968311	health	choicePhaseStart	2	108	48	foodImage.89	FOODEEG_Images\0881.jpg	NY	Right	Yes	0.633129399968311	0	428443	253
837.423828125	0	health	response	2	108	48	foodImage.89	FOODEEG_Images\0881.jpg	NY	Right	Yes	0.633129399968311	0	428762	235
838.47265625	1	decision	trialStart	2	109	49	foodImage.60	FOODEEG_Images\0614.jpg	YN	Left	Yes	0.605693700024858	0	429299	251
839.53125	2	decision	foodImageDisplay	2	109	49	foodImage.60	FOODEEG_Images\0614.jpg	YN	Left	Yes	0.605693700024858	0	429841	252
841.595703125	0.605693700024858	decision	choicePhaseStart	2	109	49	foodImage.60	FOODEEG_Images\0614.jpg	YN	Left	Yes	0.605693700024858	0	430898	253
842.19140625	0	decision	response	2	109	49	foodImage.60	FOODEEG_Images\0614.jpg	YN	Left	Yes	0.605693700024858	0	431203	234
843.234375	1	decision	trialStart	2	110	50	foodImage.11	FOODEEG_Images\0180.jpg	NY	Right	Yes	0.496068499982357	0	431737	251
844.275390625	2	decision	foodImageDisplay	2	110	50	foodImage.11	FOODEEG_Images\0180.jpg	NY	Right	Yes	0.496068499982357	0	432270	252
846.337890625	0.496068499982357	decision	choicePhaseStart	2	110	50	foodImage.11	FOODEEG_Images\0180.jpg	NY	Right	Yes	0.496068499982357	0	433326	253
846.82421875	0	decision	response	2	110	50	foodImage.11	FOODEEG_Images\0180.jpg	NY	Right	Yes	0.496068499982357	0	433575	235
847.865234375	1	taste	trialStart	2	111	51	foodImage.60	FOODEEG_Images\0614.jpg	YN	Left	Yes	0.808830900117755	0	434108	251
848.923828125	2	taste	foodImageDisplay	2	111	51	foodImage.60	FOODEEG_Images\0614.jpg	YN	Left	Yes	0.808830900117755	0	434650	252
850.984375	0.808830900117755	taste	choicePhaseStart	2	111	51	foodImage.60	FOODEEG_Images\0614.jpg	YN	Left	Yes	0.808830900117755	0	435705	253
851.783203125	0	taste	response	2	111	51	foodImage.60	FOODEEG_Images\0614.jpg	YN	Left	Yes	0.808830900117755	0	436114	234
852.82421875	1	taste	trialStart	2	112	52	foodImage.91	FOODEEG_Images\0896.jpg	YN	Left	Yes	0.675771499983966	0	436647	251
853.8828125	2	taste	foodImageDisplay	2	112	52	foodImage.91	FOODEEG_Images\0896.jpg	YN	Left	Yes	0.675771499983966	0	437189	252
855.947265625	0.675771499983966	taste	choicePhaseStart	2	112	52	foodImage.91	FOODEEG_Images\0896.jpg	YN	Left	Yes	0.675771499983966	0	438246	253
856.615234375	0	taste	response	2	112	52	foodImage.91	FOODEEG_Images\0896.jpg	YN	Left	Yes	0.675771499983966	0	438588	234
857.66015625	1	decision	trialStart	2	113	53	foodImage.76	FOODEEG_Images\0766.jpg	YN	Left	Yes	0.623871600022539	0	439123	251
858.70703125	2	decision	foodImageDisplay	2	113	53	foodImage.76	FOODEEG_Images\0766.jpg	YN	Left	Yes	0.623871600022539	0	439659	252
860.76953125	0.623871600022539	decision	choicePhaseStart	2	113	53	foodImage.76	FOODEEG_Images\0766.jpg	YN	Left	Yes	0.623871600022539	0	440715	253
861.3828125	0	decision	response	2	113	53	foodImage.76	FOODEEG_Images\0766.jpg	YN	Left	Yes	0.623871600022539	0	441029	234
862.431640625	1	taste	trialStart	2	114	54	foodImage.117	FOODEEG_Images\0925.jpg	NY	Left	No	0.737685699947178	0	441566	251
863.47265625	2	taste	foodImageDisplay	2	114	54	foodImage.117	FOODEEG_Images\0925.jpg	NY	Left	No	0.737685699947178	0	442099	252
865.53515625	0.737685699947178	taste	choicePhaseStart	2	114	54	foodImage.117	FOODEEG_Images\0925.jpg	NY	Left	No	0.737685699947178	0	443155	253
866.263671875	0	taste	response	2	114	54	foodImage.117	FOODEEG_Images\0925.jpg	NY	Left	No	0.737685699947178	0	443528	234
867.3046875	1	decision	trialStart	2	115	55	foodImage.69	FOODEEG_Images\0693.jpg	NY	Left	No	0.753157000057399	0	444061	251
868.345703125	2	decision	foodImageDisplay	2	115	55	foodImage.69	FOODEEG_Images\0693.jpg	NY	Left	No	0.753157000057399	0	444594	252
870.408203125	0.753157000057399	decision	choicePhaseStart	2	115	55	foodImage.69	FOODEEG_Images\0693.jpg	NY	Left	No	0.753157000057399	0	445650	253
871.150390625	0	decision	response	2	115	55	foodImage.69	FOODEEG_Images\0693.jpg	NY	Left	No	0.753157000057399	0	446030	234
872.19921875	1	decision	trialStart	2	116	56	foodImage.78	FOODEEG_Images\0787.jpg	YN	Right	No	0.551615400006995	0	446567	251
873.2421875	2	decision	foodImageDisplay	2	116	56	foodImage.78	FOODEEG_Images\0787.jpg	YN	Right	No	0.551615400006995	0	447101	252
875.3046875	0.551615400006995	decision	choicePhaseStart	2	116	56	foodImage.78	FOODEEG_Images\0787.jpg	YN	Right	No	0.551615400006995	0	448157	253
875.845703125	0	decision	response	2	116	56	foodImage.78	FOODEEG_Images\0787.jpg	YN	Right	No	0.551615400006995	0	448434	235
876.888671875	1	health	trialStart	2	117	57	foodImage.98	FOODEEG_Images\0906.jpg	YN	Right	No	0.538097599986941	0	448968	251
877.92578125	2	health	foodImageDisplay	2	117	57	foodImage.98	FOODEEG_Images\0906.jpg	YN	Right	No	0.538097599986941	0	449499	252
879.98828125	0.538097599986941	health	choicePhaseStart	2	117	57	foodImage.98	FOODEEG_Images\0906.jpg	YN	Right	No	0.538097599986941	0	450555	253
880.517578125	0	health	response	2	117	57	foodImage.98	FOODEEG_Images\0906.jpg	YN	Right	No	0.538097599986941	0	450826	235
881.56640625	1	health	trialStart	2	118	58	foodImage.91	FOODEEG_Images\0896.jpg	YN	Right	No	0.483430299907923	0	451363	251
882.62109375	2	health	foodImageDisplay	2	118	58	foodImage.91	FOODEEG_Images\0896.jpg	YN	Right	No	0.483430299907923	0	451903	252
884.68359375	0.483430299907923	health	choicePhaseStart	2	118	58	foodImage.91	FOODEEG_Images\0896.jpg	YN	Right	No	0.483430299907923	0	452959	253
885.158203125	0	health	response	2	118	58	foodImage.91	FOODEEG_Images\0896.jpg	YN	Right	No	0.483430299907923	0	453202	235
886.203125	1	taste	trialStart	2	119	59	foodImage.83	FOODEEG_Images\0827.jpg	NY	Right	Yes	0.79526299983263	0	453737	251
887.259765625	2	taste	foodImageDisplay	2	119	59	foodImage.83	FOODEEG_Images\0827.jpg	NY	Right	Yes	0.79526299983263	0	454278	252
889.322265625	0.79526299983263	taste	choicePhaseStart	2	119	59	foodImage.83	FOODEEG_Images\0827.jpg	NY	Right	Yes	0.79526299983263	0	455334	253
890.109375	0	taste	response	2	119	59	foodImage.83	FOODEEG_Images\0827.jpg	NY	Right	Yes	0.79526299983263	0	455737	235
891.1484375	1	health	trialStart	2	120	60	foodImage.7	FOODEEG_Images\0116.jpg	NY	Right	Yes	0.48552619991824	0	456269	251
892.189453125	2	health	foodImageDisplay	2	120	60	foodImage.7	FOODEEG_Images\0116.jpg	NY	Right	Yes	0.48552619991824	0	456802	252
894.2578125	0.48552619991824	health	choicePhaseStart	2	120	60	foodImage.7	FOODEEG_Images\0116.jpg	NY	Right	Yes	0.48552619991824	0	457861	253
894.734375	0	health	response	2	120	60	foodImage.7	FOODEEG_Images\0116.jpg	NY	Right	Yes	0.48552619991824	0	458105	235
896.779296875	98.34375	n/a	blockEnd	n/a	n/a	n/a	n/a	n/a	n/a	n/a	n/a	n/a	n/a	459152	254
995.123046875	2	n/a	blockStart	3	n/a	n/a	n/a	n/a	n/a	n/a	n/a	n/a	n/a	509504	250
997.1640625	1	taste	trialStart	3	121	1	foodImage.87	FOODEEG_Images\0873.jpg	NY	Left	No	0.692505799932405	0	510549	251
998.22265625	2	taste	foodImageDisplay	3	121	1	foodImage.87	FOODEEG_Images\0873.jpg	NY	Left	No	0.692505799932405	0	511091	252
1000.28515625	0.692505799932405	taste	choicePhaseStart	3	121	1	foodImage.87	FOODEEG_Images\0873.jpg	NY	Left	No	0.692505799932405	0	512147	253
1000.970703125	0	taste	response	3	121	1	foodImage.87	FOODEEG_Images\0873.jpg	NY	Left	No	0.692505799932405	0	512498	234
1002.017578125	1	taste	trialStart	3	122	2	foodImage.80	FOODEEG_Images\0796.jpg	YN	Left	Yes	0.751250399975106	0	513034	251
1003.076171875	2	taste	foodImageDisplay	3	122	2	foodImage.80	FOODEEG_Images\0796.jpg	YN	Left	Yes	0.751250399975106	0	513576	252
1005.140625	0.751250399975106	taste	choicePhaseStart	3	122	2	foodImage.80	FOODEEG_Images\0796.jpg	YN	Left	Yes	0.751250399975106	0	514633	253
1005.880859375	0	taste	response	3	122	2	foodImage.80	FOODEEG_Images\0796.jpg	YN	Left	Yes	0.751250399975106	0	515012	234
1006.927734375	1	health	trialStart	3	123	3	foodImage.103	FOODEEG_Images\0911.jpg	NY	Left	No	0.581135200103745	0	515548	251
1007.966796875	2	health	foodImageDisplay	3	123	3	foodImage.103	FOODEEG_Images\0911.jpg	NY	Left	No	0.581135200103745	0	516080	252
1010.029296875	0.581135200103745	health	choicePhaseStart	3	123	3	foodImage.103	FOODEEG_Images\0911.jpg	NY	Left	No	0.581135200103745	0	517136	253
1010.6015625	0	health	response	3	123	3	foodImage.103	FOODEEG_Images\0911.jpg	NY	Left	No	0.581135200103745	0	517429	234
1011.640625	1	decision	trialStart	3	124	4	foodImage.113	FOODEEG_Images\0921.jpg	YN	Right	No	0.500031099887565	0	517961	251
1012.6796875	2	decision	foodImageDisplay	3	124	4	foodImage.113	FOODEEG_Images\0921.jpg	YN	Right	No	0.500031099887565	0	518493	252
1014.7421875	0.500031099887565	decision	choicePhaseStart	3	124	4	foodImage.113	FOODEEG_Images\0921.jpg	YN	Right	No	0.500031099887565	0	519549	253
1015.232421875	0	decision	response	3	124	4	foodImage.113	FOODEEG_Images\0921.jpg	YN	Right	No	0.500031099887565	0	519800	235
1016.275390625	1	health	trialStart	3	125	5	foodImage.50	FOODEEG_Images\0529.jpg	YN	Right	No	0.720031700097024	0	520334	251
1017.33203125	2	health	foodImageDisplay	3	125	5	foodImage.50	FOODEEG_Images\0529.jpg	YN	Right	No	0.720031700097024	0	520875	252
1019.39453125	0.720031700097024	health	choicePhaseStart	3	125	5	foodImage.50	FOODEEG_Images\0529.jpg	YN	Right	No	0.720031700097024	0	521931	253
1020.10546875	0	health	response	3	125	5	foodImage.50	FOODEEG_Images\0529.jpg	YN	Right	No	0.720031700097024	0	522295	235
1021.146484375	1	decision	trialStart	3	126	6	foodImage.30	FOODEEG_Images\0282.jpg	YN	Left	Yes	1.3345510000363	0	522828	251
1022.1875	2	decision	foodImageDisplay	3	126	6	foodImage.30	FOODEEG_Images\0282.jpg	YN	Left	Yes	1.3345510000363	0	523361	252
1024.25	1.3345510000363	decision	choicePhaseStart	3	126	6	foodImage.30	FOODEEG_Images\0282.jpg	YN	Left	Yes	1.3345510000363	0	524417	253
1025.576171875	0	decision	response	3	126	6	foodImage.30	FOODEEG_Images\0282.jpg	YN	Left	Yes	1.3345510000363	0	525096	234
1026.619140625	1	decision	trialStart	3	127	7	foodImage.84	FOODEEG_Images\0830.jpg	NY	Right	Yes	0.511626600055024	0	525630	251
1027.67578125	2	decision	foodImageDisplay	3	127	7	foodImage.84	FOODEEG_Images\0830.jpg	NY	Right	Yes	0.511626600055024	0	526171	252
1029.73828125	0.511626600055024	decision	choicePhaseStart	3	127	7	foodImage.84	FOODEEG_Images\0830.jpg	NY	Right	Yes	0.511626600055024	0	527227	253
1030.240234375	0	decision	response	3	127	7	foodImage.84	FOODEEG_Images\0830.jpg	NY	Right	Yes	0.511626600055024	0	527484	235
1031.283203125	1	decision	trialStart	3	128	8	foodImage.108	FOODEEG_Images\0916.jpg	NY	Left	No	0.687353900168091	0	528018	251
1032.32421875	2	decision	foodImageDisplay	3	128	8	foodImage.108	FOODEEG_Images\0916.jpg	NY	Left	No	0.687353900168091	0	528551	252
1034.38671875	0.687353900168091	decision	choicePhaseStart	3	128	8	foodImage.108	FOODEEG_Images\0916.jpg	NY	Left	No	0.687353900168091	0	529607	253
1035.064453125	0	decision	response	3	128	8	foodImage.108	FOODEEG_Images\0916.jpg	NY	Left	No	0.687353900168091	0	529954	234
1036.10546875	1	health	trialStart	3	129	9	foodImage.69	FOODEEG_Images\0693.jpg	YN	Right	No	1.17546699987724	0	530487	251
1037.1484375	2	health	foodImageDisplay	3	129	9	foodImage.69	FOODEEG_Images\0693.jpg	YN	Right	No	1.17546699987724	0	531021	252
1039.2109375	1.17546699987724	health	choicePhaseStart	3	129	9	foodImage.69	FOODEEG_Images\0693.jpg	YN	Right	No	1.17546699987724	0	532077	253
1040.376953125	0	health	response	3	129	9	foodImage.69	FOODEEG_Images\0693.jpg	YN	Right	No	1.17546699987724	0	532674	235
1041.41796875	1	health	trialStart	3	130	10	foodImage.49	FOODEEG_Images\0515.jpg	NY	Right	Yes	0.80460390006192	0	533207	251
1042.4609375	2	health	foodImageDisplay	3	130	10	foodImage.49	FOODEEG_Images\0515.jpg	NY	Right	Yes	0.80460390006192	0	533741	252
1044.5234375	0.80460390006192	health	choicePhaseStart	3	130	10	foodImage.49	FOODEEG_Images\0515.jpg	NY	Right	Yes	0.80460390006192	0	534797	253
1045.3203125	0	health	response	3	130	10	foodImage.49	FOODEEG_Images\0515.jpg	NY	Right	Yes	0.80460390006192	0	535205	235
1046.36328125	1	taste	trialStart	3	131	11	foodImage.30	FOODEEG_Images\0282.jpg	NY	Right	Yes	0.659893000032753	0	535739	251
1047.404296875	2	taste	foodImageDisplay	3	131	11	foodImage.30	FOODEEG_Images\0282.jpg	NY	Right	Yes	0.659893000032753	0	536272	252
1049.466796875	0.659893000032753	taste	choicePhaseStart	3	131	11	foodImage.30	FOODEEG_Images\0282.jpg	NY	Right	Yes	0.659893000032753	0	537328	253
1050.119140625	0	taste	response	3	131	11	foodImage.30	FOODEEG_Images\0282.jpg	NY	Right	Yes	0.659893000032753	0	537662	235
1051.169921875	1	health	trialStart	3	132	12	foodImage.18	FOODEEG_Images\0202.jpg	YN	Right	No	0.718857200117782	0	538200	251
1052.228515625	2	health	foodImageDisplay	3	132	12	foodImage.18	FOODEEG_Images\0202.jpg	YN	Right	No	0.718857200117782	0	538742	252
1054.291015625	0.718857200117782	health	choicePhaseStart	3	132	12	foodImage.18	FOODEEG_Images\0202.jpg	YN	Right	No	0.718857200117782	0	539798	253
1055	0	health	response	3	132	12	foodImage.18	FOODEEG_Images\0202.jpg	YN	Right	No	0.718857200117782	0	540161	235
1056.041015625	1	health	trialStart	3	133	13	foodImage.105	FOODEEG_Images\0913.jpg	NY	Left	No	0.684549999888986	0	540694	251
1057.078125	2	health	foodImageDisplay	3	133	13	foodImage.105	FOODEEG_Images\0913.jpg	NY	Left	No	0.684549999888986	0	541225	252
1059.140625	0.684549999888986	health	choicePhaseStart	3	133	13	foodImage.105	FOODEEG_Images\0913.jpg	NY	Left	No	0.684549999888986	0	542281	253
1059.814453125	0	health	response	3	133	13	foodImage.105	FOODEEG_Images\0913.jpg	NY	Left	No	0.684549999888986	0	542626	234
1060.857421875	1	decision	trialStart	3	134	14	foodImage.119	FOODEEG_Images\0927.jpg	YN	Right	No	0.754699300043285	0	543160	251
1061.89453125	2	decision	foodImageDisplay	3	134	14	foodImage.119	FOODEEG_Images\0927.jpg	YN	Right	No	0.754699300043285	0	543691	252
1063.95703125	0.754699300043285	decision	choicePhaseStart	3	134	14	foodImage.119	FOODEEG_Images\0927.jpg	YN	Right	No	0.754699300043285	0	544747	253
1064.703125	0	decision	response	3	134	14	foodImage.119	FOODEEG_Images\0927.jpg	YN	Right	No	0.754699300043285	0	545129	235
1065.751953125	1	taste	trialStart	3	135	15	foodImage.18	FOODEEG_Images\0202.jpg	YN	Right	No	0.759522400097921	0	545666	251
1066.810546875	2	taste	foodImageDisplay	3	135	15	foodImage.18	FOODEEG_Images\0202.jpg	YN	Right	No	0.759522400097921	0	546208	252
1068.873046875	0.759522400097921	taste	choicePhaseStart	3	135	15	foodImage.18	FOODEEG_Images\0202.jpg	YN	Right	No	0.759522400097921	0	547264	253
1069.623046875	0	taste	response	3	135	15	foodImage.18	FOODEEG_Images\0202.jpg	YN	Right	No	0.759522400097921	0	547648	235
1070.669921875	1	health	trialStart	3	136	16	foodImage.96	FOODEEG_Images\0904.jpg	NY	Left	No	0.615776800084859	0	548184	251
1071.71484375	2	health	foodImageDisplay	3	136	16	foodImage.96	FOODEEG_Images\0904.jpg	NY	Left	No	0.615776800084859	0	548719	252
1073.77734375	0.615776800084859	health	choicePhaseStart	3	136	16	foodImage.96	FOODEEG_Images\0904.jpg	NY	Left	No	0.615776800084859	0	549775	253
1074.3828125	0	health	response	3	136	16	foodImage.96	FOODEEG_Images\0904.jpg	NY	Left	No	0.615776800084859	0	550085	234
1075.42578125	1	health	trialStart	3	137	17	foodImage.70	FOODEEG_Images\0705.jpg	YN	Right	No	0.674448800040409	0	550619	251
1076.484375	2	health	foodImageDisplay	3	137	17	foodImage.70	FOODEEG_Images\0705.jpg	YN	Right	No	0.674448800040409	0	551161	252
1078.548828125	0.674448800040409	health	choicePhaseStart	3	137	17	foodImage.70	FOODEEG_Images\0705.jpg	YN	Right	No	0.674448800040409	0	552218	253
1079.21484375	0	health	response	3	137	17	foodImage.70	FOODEEG_Images\0705.jpg	YN	Right	No	0.674448800040409	0	552559	235
1080.263671875	1	taste	trialStart	3	138	18	foodImage.5	FOODEEG_Images\0107.jpg	YN	Right	No	0.500246500130743	0	553096	251
1081.326171875	2	taste	foodImageDisplay	3	138	18	foodImage.5	FOODEEG_Images\0107.jpg	YN	Right	No	0.500246500130743	0	553640	252
1083.39453125	0.500246500130743	taste	choicePhaseStart	3	138	18	foodImage.5	FOODEEG_Images\0107.jpg	YN	Right	No	0.500246500130743	0	554699	253
1083.88671875	0	taste	response	3	138	18	foodImage.5	FOODEEG_Images\0107.jpg	YN	Right	No	0.500246500130743	0	554951	235
1084.931640625	1	health	trialStart	3	139	19	foodImage.90	FOODEEG_Images\0890.jpg	NY	Right	Yes	0.806250000139698	0	555486	251
1085.986328125	2	health	foodImageDisplay	3	139	19	foodImage.90	FOODEEG_Images\0890.jpg	NY	Right	Yes	0.806250000139698	0	556026	252
1088.048828125	0.806250000139698	health	choicePhaseStart	3	139	19	foodImage.90	FOODEEG_Images\0890.jpg	NY	Right	Yes	0.806250000139698	0	557082	253
1088.845703125	0	health	response	3	139	19	foodImage.90	FOODEEG_Images\0890.jpg	NY	Right	Yes	0.806250000139698	0	557490	235
1089.89453125	1	health	trialStart	3	140	20	foodImage.24	FOODEEG_Images\0250.jpg	YN	Left	Yes	0.789961700094864	0	558027	251
1090.935546875	2	health	foodImageDisplay	3	140	20	foodImage.24	FOODEEG_Images\0250.jpg	YN	Left	Yes	0.789961700094864	0	558560	252
1093.001953125	0.789961700094864	health	choicePhaseStart	3	140	20	foodImage.24	FOODEEG_Images\0250.jpg	YN	Left	Yes	0.789961700094864	0	559618	253
1093.78125	0	health	response	3	140	20	foodImage.24	FOODEEG_Images\0250.jpg	YN	Left	Yes	0.789961700094864	0	560017	234
1094.830078125	1	decision	trialStart	3	141	21	foodImage.118	FOODEEG_Images\0926.jpg	YN	Right	No	0.616714100120589	0	560554	251
1095.87109375	2	decision	foodImageDisplay	3	141	21	foodImage.118	FOODEEG_Images\0926.jpg	YN	Right	No	0.616714100120589	0	561087	252
1097.935546875	0.616714100120589	decision	choicePhaseStart	3	141	21	foodImage.118	FOODEEG_Images\0926.jpg	YN	Right	No	0.616714100120589	0	562144	253
1098.541015625	0	decision	response	3	141	21	foodImage.118	FOODEEG_Images\0926.jpg	YN	Right	No	0.616714100120589	0	562454	235
1099.58203125	1	decision	trialStart	3	142	22	foodImage.83	FOODEEG_Images\0827.jpg	YN	Right	No	0.587787399999797	0	562987	251
1100.63671875	2	decision	foodImageDisplay	3	142	22	foodImage.83	FOODEEG_Images\0827.jpg	YN	Right	No	0.587787399999797	0	563527	252
1102.69921875	0.587787399999797	decision	choicePhaseStart	3	142	22	foodImage.83	FOODEEG_Images\0827.jpg	YN	Right	No	0.587787399999797	0	564583	253
1103.27734375	0	decision	response	3	142	22	foodImage.83	FOODEEG_Images\0827.jpg	YN	Right	No	0.587787399999797	0	564879	235
1104.3203125	1	decision	trialStart	3	143	23	foodImage.55	FOODEEG_Images\0567.jpg	NY	Right	Yes	0.906197200063616	0	565413	251
1105.375	2	decision	foodImageDisplay	3	143	23	foodImage.55	FOODEEG_Images\0567.jpg	NY	Right	Yes	0.906197200063616	0	565953	252
1107.4375	0.906197200063616	decision	choicePhaseStart	3	143	23	foodImage.55	FOODEEG_Images\0567.jpg	NY	Right	Yes	0.906197200063616	0	567009	253
1108.333984375	0	decision	response	3	143	23	foodImage.55	FOODEEG_Images\0567.jpg	NY	Right	Yes	0.906197200063616	0	567468	235
1109.375	1	decision	trialStart	3	144	24	foodImage.105	FOODEEG_Images\0913.jpg	NY	Right	Yes	0.724674500059336	0	568001	251
1110.412109375	2	decision	foodImageDisplay	3	144	24	foodImage.105	FOODEEG_Images\0913.jpg	NY	Right	Yes	0.724674500059336	0	568532	252
1112.474609375	0.724674500059336	decision	choicePhaseStart	3	144	24	foodImage.105	FOODEEG_Images\0913.jpg	NY	Right	Yes	0.724674500059336	0	569588	253
1113.189453125	0	decision	response	3	144	24	foodImage.105	FOODEEG_Images\0913.jpg	NY	Right	Yes	0.724674500059336	0	569954	235
1114.232421875	1	health	trialStart	3	145	25	foodImage.8	FOODEEG_Images\0136.jpg	YN	Right	No	0.670924399979413	0	570488	251
1115.2734375	2	health	foodImageDisplay	3	145	25	foodImage.8	FOODEEG_Images\0136.jpg	YN	Right	No	0.670924399979413	0	571021	252
1117.3359375	0.670924399979413	health	choicePhaseStart	3	145	25	foodImage.8	FOODEEG_Images\0136.jpg	YN	Right	No	0.670924399979413	0	572077	253
1117.998046875	0	health	response	3	145	25	foodImage.8	FOODEEG_Images\0136.jpg	YN	Right	No	0.670924399979413	0	572416	235
1119.0390625	1	decision	trialStart	3	146	26	foodImage.93	FOODEEG_Images\0901.jpg	NY	Right	Yes	0.496899699792266	0	572949	251
1120.078125	2	decision	foodImageDisplay	3	146	26	foodImage.93	FOODEEG_Images\0901.jpg	NY	Right	Yes	0.496899699792266	0	573481	252
1122.140625	0.496899699792266	decision	choicePhaseStart	3	146	26	foodImage.93	FOODEEG_Images\0901.jpg	NY	Right	Yes	0.496899699792266	0	574537	253
1122.62890625	0	decision	response	3	146	26	foodImage.93	FOODEEG_Images\0901.jpg	NY	Right	Yes	0.496899699792266	0	574787	235
1123.669921875	1	health	trialStart	3	147	27	foodImage.112	FOODEEG_Images\0920.jpg	YN	Right	No	0.754606499802321	0	575320	251
1124.708984375	2	health	foodImageDisplay	3	147	27	foodImage.112	FOODEEG_Images\0920.jpg	YN	Right	No	0.754606499802321	0	575852	252
1126.771484375	0.754606499802321	health	choicePhaseStart	3	147	27	foodImage.112	FOODEEG_Images\0920.jpg	YN	Right	No	0.754606499802321	0	576908	253
1127.517578125	0	health	response	3	147	27	foodImage.112	FOODEEG_Images\0920.jpg	YN	Right	No	0.754606499802321	0	577290	235
1128.556640625	1	taste	trialStart	3	148	28	foodImage.97	FOODEEG_Images\0905.jpg	NY	Left	No	0.556481099920347	0	577822	251
1129.595703125	2	taste	foodImageDisplay	3	148	28	foodImage.97	FOODEEG_Images\0905.jpg	NY	Left	No	0.556481099920347	0	578354	252
1131.658203125	0.556481099920347	taste	choicePhaseStart	3	148	28	foodImage.97	FOODEEG_Images\0905.jpg	NY	Left	No	0.556481099920347	0	579410	253
1132.205078125	0	taste	response	3	148	28	foodImage.97	FOODEEG_Images\0905.jpg	NY	Left	No	0.556481099920347	0	579690	234
1133.248046875	1	decision	trialStart	3	149	29	foodImage.106	FOODEEG_Images\0914.jpg	YN	Left	Yes	0.595546100055799	0	580224	251
1134.287109375	2	decision	foodImageDisplay	3	149	29	foodImage.106	FOODEEG_Images\0914.jpg	YN	Left	Yes	0.595546100055799	0	580756	252
1136.353515625	0.595546100055799	decision	choicePhaseStart	3	149	29	foodImage.106	FOODEEG_Images\0914.jpg	YN	Left	Yes	0.595546100055799	0	581814	253
1136.94140625	0	decision	response	3	149	29	foodImage.106	FOODEEG_Images\0914.jpg	YN	Left	Yes	0.595546100055799	0	582115	234
1137.984375	1	decision	trialStart	3	150	30	foodImage.120	FOODEEG_Images\0928.jpg	YN	Right	No	0.63694730005227	0	582649	251
1139.03515625	2	decision	foodImageDisplay	3	150	30	foodImage.120	FOODEEG_Images\0928.jpg	YN	Right	No	0.63694730005227	0	583187	252
1141.09765625	0.63694730005227	decision	choicePhaseStart	3	150	30	foodImage.120	FOODEEG_Images\0928.jpg	YN	Right	No	0.63694730005227	0	584243	253
1141.724609375	0	decision	response	3	150	30	foodImage.120	FOODEEG_Images\0928.jpg	YN	Right	No	0.63694730005227	0	584564	235
1142.771484375	1	decision	trialStart	3	151	31	foodImage.37	FOODEEG_Images\0359.jpg	YN	Right	No	0.794103699969128	0	585100	251
1143.810546875	2	decision	foodImageDisplay	3	151	31	foodImage.37	FOODEEG_Images\0359.jpg	YN	Right	No	0.794103699969128	0	585632	252
1145.873046875	0.794103699969128	decision	choicePhaseStart	3	151	31	foodImage.37	FOODEEG_Images\0359.jpg	YN	Right	No	0.794103699969128	0	586688	253
1146.66015625	0	decision	response	3	151	31	foodImage.37	FOODEEG_Images\0359.jpg	YN	Right	No	0.794103699969128	0	587091	235
1147.69921875	1	health	trialStart	3	152	32	foodImage.94	FOODEEG_Images\0902.jpg	YN	Right	No	0.587374299997464	0	587623	251
1148.73828125	2	health	foodImageDisplay	3	152	32	foodImage.94	FOODEEG_Images\0902.jpg	YN	Right	No	0.587374299997464	0	588155	252
1150.80078125	0.587374299997464	health	choicePhaseStart	3	152	32	foodImage.94	FOODEEG_Images\0902.jpg	YN	Right	No	0.587374299997464	0	589211	253
1151.37890625	0	health	response	3	152	32	foodImage.94	FOODEEG_Images\0902.jpg	YN	Right	No	0.587374299997464	0	589507	235
1152.421875	1	health	trialStart	3	153	33	foodImage.115	FOODEEG_Images\0923.jpg	NY	Left	No	0.759811799973249	0	590041	251
1153.462890625	2	health	foodImageDisplay	3	153	33	foodImage.115	FOODEEG_Images\0923.jpg	NY	Left	No	0.759811799973249	0	590574	252
1155.525390625	0.759811799973249	health	choicePhaseStart	3	153	33	foodImage.115	FOODEEG_Images\0923.jpg	NY	Left	No	0.759811799973249	0	591630	253
1156.275390625	0	health	response	3	153	33	foodImage.115	FOODEEG_Images\0923.jpg	NY	Left	No	0.759811799973249	0	592014	234
1157.318359375	1	taste	trialStart	3	154	34	foodImage.81	FOODEEG_Images\0797.jpg	NY	Left	No	0.713509700028226	0	592548	251
1158.373046875	2	taste	foodImageDisplay	3	154	34	foodImage.81	FOODEEG_Images\0797.jpg	NY	Left	No	0.713509700028226	0	593088	252
1160.435546875	0.713509700028226	taste	choicePhaseStart	3	154	34	foodImage.81	FOODEEG_Images\0797.jpg	NY	Left	No	0.713509700028226	0	594144	253
1161.138671875	0	taste	response	3	154	34	foodImage.81	FOODEEG_Images\0797.jpg	NY	Left	No	0.713509700028226	0	594504	234
1162.1875	1	decision	trialStart	3	155	35	foodImage.3	FOODEEG_Images\0046.jpg	YN	Left	Yes	0.700372199993581	0	595041	251
1163.23046875	2	decision	foodImageDisplay	3	155	35	foodImage.3	FOODEEG_Images\0046.jpg	YN	Left	Yes	0.700372199993581	0	595575	252
1165.296875	0.700372199993581	decision	choicePhaseStart	3	155	35	foodImage.3	FOODEEG_Images\0046.jpg	YN	Left	Yes	0.700372199993581	0	596633	253
1165.986328125	0	decision	response	3	155	35	foodImage.3	FOODEEG_Images\0046.jpg	YN	Left	Yes	0.700372199993581	0	596986	234
1167.03125	1	health	trialStart	3	156	36	foodImage.48	FOODEEG_Images\0494.jpg	NY	Right	Yes	0.605553600005805	0	597521	251
1168.072265625	2	health	foodImageDisplay	3	156	36	foodImage.48	FOODEEG_Images\0494.jpg	NY	Right	Yes	0.605553600005805	0	598054	252
1170.134765625	0.605553600005805	health	choicePhaseStart	3	156	36	foodImage.48	FOODEEG_Images\0494.jpg	NY	Right	Yes	0.605553600005805	0	599110	253
1170.73046875	0	health	response	3	156	36	foodImage.48	FOODEEG_Images\0494.jpg	NY	Right	Yes	0.605553600005805	0	599415	235
1171.775390625	1	taste	trialStart	3	157	37	foodImage.107	FOODEEG_Images\0915.jpg	NY	Left	No	0.628041000105441	0	599950	251
1172.81640625	2	taste	foodImageDisplay	3	157	37	foodImage.107	FOODEEG_Images\0915.jpg	NY	Left	No	0.628041000105441	0	600483	252
1174.87890625	0.628041000105441	taste	choicePhaseStart	3	157	37	foodImage.107	FOODEEG_Images\0915.jpg	NY	Left	No	0.628041000105441	0	601539	253
1175.498046875	0	taste	response	3	157	37	foodImage.107	FOODEEG_Images\0915.jpg	NY	Left	No	0.628041000105441	0	601856	234
1176.54296875	1	health	trialStart	3	158	38	foodImage.58	FOODEEG_Images\0605.jpg	YN	Right	No	0.581346900202334	0	602391	251
1177.6015625	2	health	foodImageDisplay	3	158	38	foodImage.58	FOODEEG_Images\0605.jpg	YN	Right	No	0.581346900202334	0	602933	252
1179.662109375	0.581346900202334	health	choicePhaseStart	3	158	38	foodImage.58	FOODEEG_Images\0605.jpg	YN	Right	No	0.581346900202334	0	603988	253
1180.234375	0	health	response	3	158	38	foodImage.58	FOODEEG_Images\0605.jpg	YN	Right	No	0.581346900202334	0	604281	235
1181.27734375	1	health	trialStart	3	159	39	foodImage.3	FOODEEG_Images\0046.jpg	NY	Left	No	0.517187699908391	0	604815	251
1182.3203125	2	health	foodImageDisplay	3	159	39	foodImage.3	FOODEEG_Images\0046.jpg	NY	Left	No	0.517187699908391	0	605349	252
1184.3828125	0.517187699908391	health	choicePhaseStart	3	159	39	foodImage.3	FOODEEG_Images\0046.jpg	NY	Left	No	0.517187699908391	0	606405	253
1184.890625	0	health	response	3	159	39	foodImage.3	FOODEEG_Images\0046.jpg	NY	Left	No	0.517187699908391	0	606665	234
1185.939453125	1	health	trialStart	3	160	40	foodImage.77	FOODEEG_Images\0771.jpg	NY	Left	No	0.59090909990482	0	607202	251
1186.982421875	2	health	foodImageDisplay	3	160	40	foodImage.77	FOODEEG_Images\0771.jpg	NY	Left	No	0.59090909990482	0	607736	252
1189.044921875	0.59090909990482	health	choicePhaseStart	3	160	40	foodImage.77	FOODEEG_Images\0771.jpg	NY	Left	No	0.59090909990482	0	608792	253
1189.625	0	health	response	3	160	40	foodImage.77	FOODEEG_Images\0771.jpg	NY	Left	No	0.59090909990482	0	609089	234
1190.66796875	1	taste	trialStart	3	161	41	foodImage.10	FOODEEG_Images\0145.jpg	YN	Left	Yes	0.632066299906	0	609623	251
1191.7265625	2	taste	foodImageDisplay	3	161	41	foodImage.10	FOODEEG_Images\0145.jpg	YN	Left	Yes	0.632066299906	0	610165	252
1193.787109375	0.632066299906	taste	choicePhaseStart	3	161	41	foodImage.10	FOODEEG_Images\0145.jpg	YN	Left	Yes	0.632066299906	0	611220	253
1194.41015625	0	taste	response	3	161	41	foodImage.10	FOODEEG_Images\0145.jpg	YN	Left	Yes	0.632066299906	0	611539	234
1195.4609375	1	health	trialStart	3	162	42	foodImage.25	FOODEEG_Images\0261.jpg	NY	Left	No	0.622451900038868	0	612077	251
1196.501953125	2	health	foodImageDisplay	3	162	42	foodImage.25	FOODEEG_Images\0261.jpg	NY	Left	No	0.622451900038868	0	612610	252
1198.564453125	0.622451900038868	health	choicePhaseStart	3	162	42	foodImage.25	FOODEEG_Images\0261.jpg	NY	Left	No	0.622451900038868	0	613666	253
1199.177734375	0	health	response	3	162	42	foodImage.25	FOODEEG_Images\0261.jpg	NY	Left	No	0.622451900038868	0	613980	234
1200.244140625	1	taste	trialStart	3	163	43	foodImage.111	FOODEEG_Images\0919.jpg	YN	Right	No	0.582940899999812	0	614526	251
1201.28125	2	taste	foodImageDisplay	3	163	43	foodImage.111	FOODEEG_Images\0919.jpg	YN	Right	No	0.582940899999812	0	615057	252
1203.34765625	0.582940899999812	taste	choicePhaseStart	3	163	43	foodImage.111	FOODEEG_Images\0919.jpg	YN	Right	No	0.582940899999812	0	616115	253
1203.921875	0	taste	response	3	163	43	foodImage.111	FOODEEG_Images\0919.jpg	YN	Right	No	0.582940899999812	0	616409	235
1204.962890625	1	health	trialStart	3	164	44	foodImage.38	FOODEEG_Images\0365.jpg	YN	Right	No	0.625773599836975	0	616942	251
1206.00390625	2	health	foodImageDisplay	3	164	44	foodImage.38	FOODEEG_Images\0365.jpg	YN	Right	No	0.625773599836975	0	617475	252
1208.06640625	0.625773599836975	health	choicePhaseStart	3	164	44	foodImage.38	FOODEEG_Images\0365.jpg	YN	Right	No	0.625773599836975	0	618531	253
1208.681640625	0	health	response	3	164	44	foodImage.38	FOODEEG_Images\0365.jpg	YN	Right	No	0.625773599836975	0	618846	235
1209.7265625	1	decision	trialStart	3	165	45	foodImage.7	FOODEEG_Images\0116.jpg	NY	Right	Yes	0.806961999973282	0	619381	251
1210.765625	2	decision	foodImageDisplay	3	165	45	foodImage.7	FOODEEG_Images\0116.jpg	NY	Right	Yes	0.806961999973282	0	619913	252
1212.828125	0.806961999973282	decision	choicePhaseStart	3	165	45	foodImage.7	FOODEEG_Images\0116.jpg	NY	Right	Yes	0.806961999973282	0	620969	253
1213.625	0	decision	response	3	165	45	foodImage.7	FOODEEG_Images\0116.jpg	NY	Right	Yes	0.806961999973282	0	621377	235
1214.669921875	1	taste	trialStart	3	166	46	foodImage.52	FOODEEG_Images\0539.jpg	YN	Left	Yes	0.782294699922204	0	621912	251
1215.7265625	2	taste	foodImageDisplay	3	166	46	foodImage.52	FOODEEG_Images\0539.jpg	YN	Left	Yes	0.782294699922204	0	622453	252
1217.787109375	0.782294699922204	taste	choicePhaseStart	3	166	46	foodImage.52	FOODEEG_Images\0539.jpg	YN	Left	Yes	0.782294699922204	0	623508	253
1218.560546875	0	taste	response	3	166	46	foodImage.52	FOODEEG_Images\0539.jpg	YN	Left	Yes	0.782294699922204	0	623904	234
1219.603515625	1	taste	trialStart	3	167	47	foodImage.70	FOODEEG_Images\0705.jpg	NY	Right	Yes	0.649840099969879	0	624438	251
1220.658203125	2	taste	foodImageDisplay	3	167	47	foodImage.70	FOODEEG_Images\0705.jpg	NY	Right	Yes	0.649840099969879	0	624978	252
1222.720703125	0.649840099969879	taste	choicePhaseStart	3	167	47	foodImage.70	FOODEEG_Images\0705.jpg	NY	Right	Yes	0.649840099969879	0	626034	253
1223.361328125	0	taste	response	3	167	47	foodImage.70	FOODEEG_Images\0705.jpg	NY	Right	Yes	0.649840099969879	0	626362	235
1224.40625	1	decision	trialStart	3	168	48	foodImage.35	FOODEEG_Images\0350.jpg	NY	Right	Yes	0.642585800029337	0	626897	251
1225.45703125	2	decision	foodImageDisplay	3	168	48	foodImage.35	FOODEEG_Images\0350.jpg	NY	Right	Yes	0.642585800029337	0	627435	252
1227.51953125	0.642585800029337	decision	choicePhaseStart	3	168	48	foodImage.35	FOODEEG_Images\0350.jpg	NY	Right	Yes	0.642585800029337	0	628491	253
1228.15234375	0	decision	response	3	168	48	foodImage.35	FOODEEG_Images\0350.jpg	NY	Right	Yes	0.642585800029337	0	628815	235
1229.201171875	1	health	trialStart	3	169	49	foodImage.59	FOODEEG_Images\0607.jpg	NY	Left	No	0.555594500154257	0	629352	251
1230.248046875	2	health	foodImageDisplay	3	169	49	foodImage.59	FOODEEG_Images\0607.jpg	NY	Left	No	0.555594500154257	0	629888	252
1232.310546875	0.555594500154257	health	choicePhaseStart	3	169	49	foodImage.59	FOODEEG_Images\0607.jpg	NY	Left	No	0.555594500154257	0	630944	253
1232.857421875	0	health	response	3	169	49	foodImage.59	FOODEEG_Images\0607.jpg	NY	Left	No	0.555594500154257	0	631224	234
1233.900390625	1	decision	trialStart	3	170	50	foodImage.12	FOODEEG_Images\0181.jpg	NY	Right	Yes	0.73561149998568	0	631758	251
1234.94140625	2	decision	foodImageDisplay	3	170	50	foodImage.12	FOODEEG_Images\0181.jpg	NY	Right	Yes	0.73561149998568	0	632291	252
1237.00390625	0.73561149998568	decision	choicePhaseStart	3	170	50	foodImage.12	FOODEEG_Images\0181.jpg	NY	Right	Yes	0.73561149998568	0	633347	253
1237.728515625	0	decision	response	3	170	50	foodImage.12	FOODEEG_Images\0181.jpg	NY	Right	Yes	0.73561149998568	0	633718	235
1238.771484375	1	health	trialStart	3	171	51	foodImage.82	FOODEEG_Images\0805.jpg	NY	Right	Yes	0.69677669997327	0	634252	251
1239.826171875	2	health	foodImageDisplay	3	171	51	foodImage.82	FOODEEG_Images\0805.jpg	NY	Right	Yes	0.69677669997327	0	634792	252
1241.888671875	0.69677669997327	health	choicePhaseStart	3	171	51	foodImage.82	FOODEEG_Images\0805.jpg	NY	Right	Yes	0.69677669997327	0	635848	253
1242.576171875	0	health	response	3	171	51	foodImage.82	FOODEEG_Images\0805.jpg	NY	Right	Yes	0.69677669997327	0	636200	235
1243.619140625	1	health	trialStart	3	172	52	foodImage.72	FOODEEG_Images\0714.jpg	YN	Right	No	0.732704499969259	0	636734	251
1244.666015625	2	health	foodImageDisplay	3	172	52	foodImage.72	FOODEEG_Images\0714.jpg	YN	Right	No	0.732704499969259	0	637270	252
1246.73046875	0.732704499969259	health	choicePhaseStart	3	172	52	foodImage.72	FOODEEG_Images\0714.jpg	YN	Right	No	0.732704499969259	0	638327	253
1247.455078125	0	health	response	3	172	52	foodImage.72	FOODEEG_Images\0714.jpg	YN	Right	No	0.732704499969259	0	638698	235
1248.498046875	1	taste	trialStart	3	173	53	foodImage.41	FOODEEG_Images\0409.jpg	NY	Right	Yes	0.627514399820939	0	639232	251
1249.54296875	2	taste	foodImageDisplay	3	173	53	foodImage.41	FOODEEG_Images\0409.jpg	NY	Right	Yes	0.627514399820939	0	639767	252
1251.60546875	0.627514399820939	taste	choicePhaseStart	3	173	53	foodImage.41	FOODEEG_Images\0409.jpg	NY	Right	Yes	0.627514399820939	0	640823	253
1252.224609375	0	taste	response	3	173	53	foodImage.41	FOODEEG_Images\0409.jpg	NY	Right	Yes	0.627514399820939	0	641140	235
1253.265625	1	taste	trialStart	3	174	54	foodImage.62	FOODEEG_Images\0644.jpg	NY	Right	Yes	0.546859999885783	0	641673	251
1254.3203125	2	taste	foodImageDisplay	3	174	54	foodImage.62	FOODEEG_Images\0644.jpg	NY	Right	Yes	0.546859999885783	0	642213	252
1256.38671875	0.546859999885783	taste	choicePhaseStart	3	174	54	foodImage.62	FOODEEG_Images\0644.jpg	NY	Right	Yes	0.546859999885783	0	643271	253
1256.927734375	0	taste	response	3	174	54	foodImage.62	FOODEEG_Images\0644.jpg	NY	Right	Yes	0.546859999885783	0	643548	235
1257.970703125	1	health	trialStart	3	175	55	foodImage.1	FOODEEG_Images\0004.jpg	YN	Left	Yes	0.630806999979541	0	644082	251
1259.01171875	2	health	foodImageDisplay	3	175	55	foodImage.1	FOODEEG_Images\0004.jpg	YN	Left	Yes	0.630806999979541	0	644615	252
1261.07421875	0.630806999979541	health	choicePhaseStart	3	175	55	foodImage.1	FOODEEG_Images\0004.jpg	YN	Left	Yes	0.630806999979541	0	645671	253
1261.6953125	0	health	response	3	175	55	foodImage.1	FOODEEG_Images\0004.jpg	YN	Left	Yes	0.630806999979541	0	645989	234
1262.73828125	1	health	trialStart	3	176	56	foodImage.104	FOODEEG_Images\0912.jpg	YN	Right	No	0.77099040010944	0	646523	251
1263.775390625	2	health	foodImageDisplay	3	176	56	foodImage.104	FOODEEG_Images\0912.jpg	YN	Right	No	0.77099040010944	0	647054	252
1265.837890625	0.77099040010944	health	choicePhaseStart	3	176	56	foodImage.104	FOODEEG_Images\0912.jpg	YN	Right	No	0.77099040010944	0	648110	253
1266.599609375	0	health	response	3	176	56	foodImage.104	FOODEEG_Images\0912.jpg	YN	Right	No	0.77099040010944	0	648500	235
1267.650390625	1	decision	trialStart	3	177	57	foodImage.66	FOODEEG_Images\0676.jpg	YN	Left	Yes	0.584196199895814	0	649038	251
1268.689453125	2	decision	foodImageDisplay	3	177	57	foodImage.66	FOODEEG_Images\0676.jpg	YN	Left	Yes	0.584196199895814	0	649570	252
1270.751953125	0.584196199895814	decision	choicePhaseStart	3	177	57	foodImage.66	FOODEEG_Images\0676.jpg	YN	Left	Yes	0.584196199895814	0	650626	253
1271.326171875	0	decision	response	3	177	57	foodImage.66	FOODEEG_Images\0676.jpg	YN	Left	Yes	0.584196199895814	0	650920	234
1272.3671875	1	decision	trialStart	3	178	58	foodImage.97	FOODEEG_Images\0905.jpg	NY	Left	No	0.836708599934354	0	651453	251
1273.40625	2	decision	foodImageDisplay	3	178	58	foodImage.97	FOODEEG_Images\0905.jpg	NY	Left	No	0.836708599934354	0	651985	252
1275.466796875	0.836708599934354	decision	choicePhaseStart	3	178	58	foodImage.97	FOODEEG_Images\0905.jpg	NY	Left	No	0.836708599934354	0	653040	253
1276.294921875	0	decision	response	3	178	58	foodImage.97	FOODEEG_Images\0905.jpg	NY	Left	No	0.836708599934354	0	653464	234
1277.337890625	1	decision	trialStart	3	179	59	foodImage.21	FOODEEG_Images\0234.jpg	YN	Left	Yes	0.617914400063455	0	653998	251
1278.392578125	2	decision	foodImageDisplay	3	179	59	foodImage.21	FOODEEG_Images\0234.jpg	YN	Left	Yes	0.617914400063455	0	654538	252
1280.455078125	0.617914400063455	decision	choicePhaseStart	3	179	59	foodImage.21	FOODEEG_Images\0234.jpg	YN	Left	Yes	0.617914400063455	0	655594	253
1281.0625	0	decision	response	3	179	59	foodImage.21	FOODEEG_Images\0234.jpg	YN	Left	Yes	0.617914400063455	0	655905	234
1282.10546875	1	taste	trialStart	3	180	60	foodImage.28	FOODEEG_Images\0273.jpg	YN	Right	No	0.655499499989673	0	656439	251
1283.15234375	2	taste	foodImageDisplay	3	180	60	foodImage.28	FOODEEG_Images\0273.jpg	YN	Right	No	0.655499499989673	0	656975	252
1285.212890625	0.655499499989673	taste	choicePhaseStart	3	180	60	foodImage.28	FOODEEG_Images\0273.jpg	YN	Right	No	0.655499499989673	0	658030	253
1285.86328125	0	taste	response	3	180	60	foodImage.28	FOODEEG_Images\0273.jpg	YN	Right	No	0.655499499989673	0	658363	235
1287.91015625	99.044921875	n/a	blockEnd	n/a	n/a	n/a	n/a	n/a	n/a	n/a	n/a	n/a	n/a	659411	254
1386.955078125	2	n/a	blockStart	4	n/a	n/a	n/a	n/a	n/a	n/a	n/a	n/a	n/a	710122	250
1388.98828125	1	health	trialStart	4	181	1	foodImage.11	FOODEEG_Images\0180.jpg	NY	Right	Yes	1.25833240011707	0	711163	251
1390.033203125	2	health	foodImageDisplay	4	181	1	foodImage.11	FOODEEG_Images\0180.jpg	NY	Right	Yes	1.25833240011707	0	711698	252
1392.09765625	1.25833240011707	health	choicePhaseStart	4	181	1	foodImage.11	FOODEEG_Images\0180.jpg	NY	Right	Yes	1.25833240011707	0	712755	253
1393.345703125	0	health	response	4	181	1	foodImage.11	FOODEEG_Images\0180.jpg	NY	Right	Yes	1.25833240011707	0	713394	235
1394.390625	1	taste	trialStart	4	182	2	foodImage.92	FOODEEG_Images\0900.jpg	YN	Right	No	0.800613799830899	0	713929	251
1395.427734375	2	taste	foodImageDisplay	4	182	2	foodImage.92	FOODEEG_Images\0900.jpg	YN	Right	No	0.800613799830899	0	714460	252
1397.490234375	0.800613799830899	taste	choicePhaseStart	4	182	2	foodImage.92	FOODEEG_Images\0900.jpg	YN	Right	No	0.800613799830899	0	715516	253
1398.28125	0	taste	response	4	182	2	foodImage.92	FOODEEG_Images\0900.jpg	YN	Right	No	0.800613799830899	0	715921	235
1399.322265625	1	health	trialStart	4	183	3	foodImage.88	FOODEEG_Images\0878.jpg	NY	Left	No	0.781153799965978	0	716454	251
1400.375	2	health	foodImageDisplay	4	183	3	foodImage.88	FOODEEG_Images\0878.jpg	NY	Left	No	0.781153799965978	0	716993	252
1402.4375	0.781153799965978	health	choicePhaseStart	4	183	3	foodImage.88	FOODEEG_Images\0878.jpg	NY	Left	No	0.781153799965978	0	718049	253
1403.208984375	0	health	response	4	183	3	foodImage.88	FOODEEG_Images\0878.jpg	NY	Left	No	0.781153799965978	0	718444	234
1404.25	1	decision	trialStart	4	184	4	foodImage.53	FOODEEG_Images\0547.jpg	NY	Right	Yes	0.886757400119677	0	718977	251
1405.314453125	2	decision	foodImageDisplay	4	184	4	foodImage.53	FOODEEG_Images\0547.jpg	NY	Right	Yes	0.886757400119677	0	719522	252
1407.376953125	0.886757400119677	decision	choicePhaseStart	4	184	4	foodImage.53	FOODEEG_Images\0547.jpg	NY	Right	Yes	0.886757400119677	0	720578	253
1408.2578125	0	decision	response	4	184	4	foodImage.53	FOODEEG_Images\0547.jpg	NY	Right	Yes	0.886757400119677	0	721029	235
1409.298828125	1	taste	trialStart	4	185	5	foodImage.63	FOODEEG_Images\0645.jpg	NY	Right	Yes	0.871869500027969	0	721562	251
1410.33984375	2	taste	foodImageDisplay	4	185	5	foodImage.63	FOODEEG_Images\0645.jpg	NY	Right	Yes	0.871869500027969	0	722095	252
1412.40234375	0.871869500027969	taste	choicePhaseStart	4	185	5	foodImage.63	FOODEEG_Images\0645.jpg	NY	Right	Yes	0.871869500027969	0	723151	253
1413.265625	0	taste	response	4	185	5	foodImage.63	FOODEEG_Images\0645.jpg	NY	Right	Yes	0.871869500027969	0	723593	235
1414.306640625	1	health	trialStart	4	186	6	foodImage.52	FOODEEG_Images\0539.jpg	NY	Right	Yes	0.563295400002971	0	724126	251
1415.361328125	2	health	foodImageDisplay	4	186	6	foodImage.52	FOODEEG_Images\0539.jpg	NY	Right	Yes	0.563295400002971	0	724666	252
1417.423828125	0.563295400002971	health	choicePhaseStart	4	186	6	foodImage.52	FOODEEG_Images\0539.jpg	NY	Right	Yes	0.563295400002971	0	725722	253
1417.9765625	0	health	response	4	186	6	foodImage.52	FOODEEG_Images\0539.jpg	NY	Right	Yes	0.563295400002971	0	726005	235
1419.01953125	1	health	trialStart	4	187	7	foodImage.30	FOODEEG_Images\0282.jpg	NY	Right	Yes	0.620350299868733	0	726539	251
1420.060546875	2	health	foodImageDisplay	4	187	7	foodImage.30	FOODEEG_Images\0282.jpg	NY	Right	Yes	0.620350299868733	0	727072	252
1422.126953125	0.620350299868733	health	choicePhaseStart	4	187	7	foodImage.30	FOODEEG_Images\0282.jpg	NY	Right	Yes	0.620350299868733	0	728130	253
1422.736328125	0	health	response	4	187	7	foodImage.30	FOODEEG_Images\0282.jpg	NY	Right	Yes	0.620350299868733	0	728442	235
1423.779296875	1	decision	trialStart	4	188	8	foodImage.74	FOODEEG_Images\0752.jpg	YN	Left	Yes	0.757294399896637	0	728976	251
1424.822265625	2	decision	foodImageDisplay	4	188	8	foodImage.74	FOODEEG_Images\0752.jpg	YN	Left	Yes	0.757294399896637	0	729510	252
1426.884765625	0.757294399896637	decision	choicePhaseStart	4	188	8	foodImage.74	FOODEEG_Images\0752.jpg	YN	Left	Yes	0.757294399896637	0	730566	253
1427.6328125	0	decision	response	4	188	8	foodImage.74	FOODEEG_Images\0752.jpg	YN	Left	Yes	0.757294399896637	0	730949	234
1428.68359375	1	health	trialStart	4	189	9	foodImage.40	FOODEEG_Images\0373.jpg	YN	Right	No	0.672583699924871	0	731487	251
1429.72265625	2	health	foodImageDisplay	4	189	9	foodImage.40	FOODEEG_Images\0373.jpg	YN	Right	No	0.672583699924871	0	732019	252
1431.78515625	0.672583699924871	health	choicePhaseStart	4	189	9	foodImage.40	FOODEEG_Images\0373.jpg	YN	Right	No	0.672583699924871	0	733075	253
1432.44921875	0	health	response	4	189	9	foodImage.40	FOODEEG_Images\0373.jpg	YN	Right	No	0.672583699924871	0	733415	235
1433.490234375	1	health	trialStart	4	190	10	foodImage.116	FOODEEG_Images\0924.jpg	NY	Left	No	1.09986250009388	0	733948	251
1434.52734375	2	health	foodImageDisplay	4	190	10	foodImage.116	FOODEEG_Images\0924.jpg	NY	Left	No	1.09986250009388	0	734479	252
1436.58984375	1.09986250009388	health	choicePhaseStart	4	190	10	foodImage.116	FOODEEG_Images\0924.jpg	NY	Left	No	1.09986250009388	0	735535	253
1437.6796875	0	health	response	4	190	10	foodImage.116	FOODEEG_Images\0924.jpg	NY	Left	No	1.09986250009388	0	736093	234
1438.73828125	1	taste	trialStart	4	191	11	foodImage.37	FOODEEG_Images\0359.jpg	YN	Right	No	0.800532199908048	0	736635	251
1439.779296875	2	taste	foodImageDisplay	4	191	11	foodImage.37	FOODEEG_Images\0359.jpg	YN	Right	No	0.800532199908048	0	737168	252
1441.841796875	0.800532199908048	taste	choicePhaseStart	4	191	11	foodImage.37	FOODEEG_Images\0359.jpg	YN	Right	No	0.800532199908048	0	738224	253
1442.6328125	0	taste	response	4	191	11	foodImage.37	FOODEEG_Images\0359.jpg	YN	Right	No	0.800532199908048	0	738629	235
1443.6796875	1	taste	trialStart	4	192	12	foodImage.120	FOODEEG_Images\0928.jpg	YN	Right	No	0.524358300026506	0	739165	251
