onset	duration	trial_type	event_type	block	trial_total	trial_in_block	food_image_code	food_image_path	button_position	resp_position	resp_choice	choice_rt	resp_too_slow	sample	trigger
378.18359375	2	n/a	blockStart	1	n/a	n/a	n/a	n/a	n/a	n/a	n/a	n/a	n/a	193631	250
380.224609375	1	decision	trialStart	1	1	1	foodImage.88	FOODEEG_Images\0878.jpg	YN	Left	Yes	0.843634000048041	0	194676	251
381.287109375	2	decision	foodImageDisplay	1	1	1	foodImage.88	FOODEEG_Images\0878.jpg	YN	Left	Yes	0.843634000048041	0	195220	252
383.3515625	0.843634000048041	decision	choicePhaseStart	1	1	1	foodImage.88	FOODEEG_Images\0878.jpg	YN	Left	Yes	0.843634000048041	0	196277	253
384.1875	0	decision	response	1	1	1	foodImage.88	FOODEEG_Images\0878.jpg	YN	Left	Yes	0.843634000048041	0	196705	234
385.275390625	1	taste	trialStart	1	2	2	foodImage.109	FOODEEG_Images\0917.jpg	NY	Right	Yes	2.07044210005552	0	197262	251
386.33203125	2	taste	foodImageDisplay	1	2	2	foodImage.109	FOODEEG_Images\0917.jpg	NY	Right	Yes	2.07044210005552	0	197803	252
388.396484375	2.07044210005552	taste	choicePhaseStart	1	2	2	foodImage.109	FOODEEG_Images\0917.jpg	NY	Right	Yes	2.07044210005552	0	198860	253
390.458984375	0	taste	response	1	2	2	foodImage.109	FOODEEG_Images\0917.jpg	NY	Right	Yes	2.07044210005552	0	199916	235
391.51171875	1	decision	trialStart	1	3	3	foodImage.46	FOODEEG_Images\0479.jpg	YN	Left	Yes	0.823691100347787	0	200455	251
392.5703125	2	decision	foodImageDisplay	1	3	3	foodImage.46	FOODEEG_Images\0479.jpg	YN	Left	Yes	0.823691100347787	0	200997	252
394.634765625	0.823691100347787	decision	choicePhaseStart	1	3	3	foodImage.46	FOODEEG_Images\0479.jpg	YN	Left	Yes	0.823691100347787	0	202054	253
395.44921875	0	decision	response	1	3	3	foodImage.46	FOODEEG_Images\0479.jpg	YN	Left	Yes	0.823691100347787	0	202471	234
396.490234375	1	decision	trialStart	1	4	4	foodImage.59	FOODEEG_Images\0607.jpg	NY	Left	No	1.0952973999083	0	203004	251
397.5390625	2	decision	foodImageDisplay	1	4	4	foodImage.59	FOODEEG_Images\0607.jpg	NY	Left	No	1.0952973999083	0	203541	252
399.6015625	1.0952973999083	decision	choicePhaseStart	1	4	4	foodImage.59	FOODEEG_Images\0607.jpg	NY	Left	No	1.0952973999083	0	204597	253
400.689453125	0	decision	response	1	4	4	foodImage.59	FOODEEG_Images\0607.jpg	NY	Left	No	1.0952973999083	0	205154	234
401.734375	1	health	trialStart	1	5	5	foodImage.9	FOODEEG_Images\0138.jpg	NY	Left	No	1.45048910006881	0	205689	251
402.798828125	2	health	foodImageDisplay	1	5	5	foodImage.9	FOODEEG_Images\0138.jpg	NY	Left	No	1.45048910006881	0	206234	252
404.86328125	1.45048910006881	health	choicePhaseStart	1	5	5	foodImage.9	FOODEEG_Images\0138.jpg	NY	Left	No	1.45048910006881	0	207291	253
406.3046875	0	health	response	1	5	5	foodImage.9	FOODEEG_Images\0138.jpg	NY	Left	No	1.45048910006881	0	208029	234
407.359375	1	health	trialStart	1	6	6	foodImage.109	FOODEEG_Images\0917.jpg	NY	Left	No	1.48510739998892	0	208569	251
408.396484375	2	health	foodImageDisplay	1	6	6	foodImage.109	FOODEEG_Images\0917.jpg	NY	Left	No	1.48510739998892	0	209100	252
410.4609375	1.48510739998892	health	choicePhaseStart	1	6	6	foodImage.109	FOODEEG_Images\0917.jpg	NY	Left	No	1.48510739998892	0	210157	253
411.9375	0	health	response	1	6	6	foodImage.109	FOODEEG_Images\0917.jpg	NY	Left	No	1.48510739998892	0	210913	234
412.98046875	1	health	trialStart	1	7	7	foodImage.81	FOODEEG_Images\0797.jpg	NY	Right	Yes	1.57039769971743	0	211447	251
414.03515625	2	health	foodImageDisplay	1	7	7	foodImage.81	FOODEEG_Images\0797.jpg	NY	Right	Yes	1.57039769971743	0	211987	252
416.09765625	1.57039769971743	health	choicePhaseStart	1	7	7	foodImage.81	FOODEEG_Images\0797.jpg	NY	Right	Yes	1.57039769971743	0	213043	253
417.666015625	0	health	response	1	7	7	foodImage.81	FOODEEG_Images\0797.jpg	NY	Right	Yes	1.57039769971743	0	213846	235
418.70703125	1	health	trialStart	1	8	8	foodImage.115	FOODEEG_Images\0923.jpg	YN	Right	No	1.7392862001434	0	214379	251
419.7578125	2	health	foodImageDisplay	1	8	8	foodImage.115	FOODEEG_Images\0923.jpg	YN	Right	No	1.7392862001434	0	214917	252
421.8203125	1.7392862001434	health	choicePhaseStart	1	8	8	foodImage.115	FOODEEG_Images\0923.jpg	YN	Right	No	1.7392862001434	0	215973	253
423.552734375	0	health	response	1	8	8	foodImage.115	FOODEEG_Images\0923.jpg	YN	Right	No	1.7392862001434	0	216860	235
424.595703125	1	health	trialStart	1	9	9	foodImage.26	FOODEEG_Images\0262.jpg	YN	Left	Yes	0.700871399603784	0	217394	251
425.63671875	2	health	foodImageDisplay	1	9	9	foodImage.26	FOODEEG_Images\0262.jpg	YN	Left	Yes	0.700871399603784	0	217927	252
427.69921875	0.700871399603784	health	choicePhaseStart	1	9	9	foodImage.26	FOODEEG_Images\0262.jpg	YN	Left	Yes	0.700871399603784	0	218983	253
428.392578125	0	health	response	1	9	9	foodImage.26	FOODEEG_Images\0262.jpg	YN	Left	Yes	0.700871399603784	0	219338	234
429.435546875	1	taste	trialStart	1	10	10	foodImage.88	FOODEEG_Images\0878.jpg	NY	Right	Yes	2.60287219984457	0	219872	251
430.48828125	2	taste	foodImageDisplay	1	10	10	foodImage.88	FOODEEG_Images\0878.jpg	NY	Right	Yes	2.60287219984457	0	220411	252
432.55078125	2.60287219984457	taste	choicePhaseStart	1	10	10	foodImage.88	FOODEEG_Images\0878.jpg	NY	Right	Yes	2.60287219984457	0	221467	253
435.14453125	0	taste	response	1	10	10	foodImage.88	FOODEEG_Images\0878.jpg	NY	Right	Yes	2.60287219984457	0	222795	235
436.185546875	1	decision	trialStart	1	11	11	foodImage.69	FOODEEG_Images\0693.jpg	YN	Right	No	1.18247309979051	0	223328	251
437.2265625	2	decision	foodImageDisplay	1	11	11	foodImage.69	FOODEEG_Images\0693.jpg	YN	Right	No	1.18247309979051	0	223861	252
439.2890625	1.18247309979051	decision	choicePhaseStart	1	11	11	foodImage.69	FOODEEG_Images\0693.jpg	YN	Right	No	1.18247309979051	0	224917	253
440.46484375	0	decision	response	1	11	11	foodImage.69	FOODEEG_Images\0693.jpg	YN	Right	No	1.18247309979051	0	225519	235
441.505859375	1	taste	trialStart	1	12	12	foodImage.3	FOODEEG_Images\0046.jpg	YN	Left	Yes	1.71124229999259	0	226052	251
442.546875	2	taste	foodImageDisplay	1	12	12	foodImage.3	FOODEEG_Images\0046.jpg	YN	Left	Yes	1.71124229999259	0	226585	252
444.609375	1.71124229999259	taste	choicePhaseStart	1	12	12	foodImage.3	FOODEEG_Images\0046.jpg	YN	Left	Yes	1.71124229999259	0	227641	253
446.3125	0	taste	response	1	12	12	foodImage.3	FOODEEG_Images\0046.jpg	YN	Left	Yes	1.71124229999259	0	228513	234
447.3515625	1	health	trialStart	1	13	13	foodImage.25	FOODEEG_Images\0261.jpg	YN	Left	Yes	1.25647919997573	0	229045	251
448.39453125	2	health	foodImageDisplay	1	13	13	foodImage.25	FOODEEG_Images\0261.jpg	YN	Left	Yes	1.25647919997573	0	229579	252
450.45703125	1.25647919997573	health	choicePhaseStart	1	13	13	foodImage.25	FOODEEG_Images\0261.jpg	YN	Left	Yes	1.25647919997573	0	230635	253
451.703125	0	health	response	1	13	13	foodImage.25	FOODEEG_Images\0261.jpg	YN	Left	Yes	1.25647919997573	0	231273	234
452.74609375	1	taste	trialStart	1	14	14	foodImage.44	FOODEEG_Images\0459.jpg	NY	Right	Yes	1.13867649994791	0	231807	251
453.791015625	2	taste	foodImageDisplay	1	14	14	foodImage.44	FOODEEG_Images\0459.jpg	NY	Right	Yes	1.13867649994791	0	232342	252
455.853515625	1.13867649994791	taste	choicePhaseStart	1	14	14	foodImage.44	FOODEEG_Images\0459.jpg	NY	Right	Yes	1.13867649994791	0	233398	253
456.984375	0	taste	response	1	14	14	foodImage.44	FOODEEG_Images\0459.jpg	NY	Right	Yes	1.13867649994791	0	233977	235
458.025390625	1	health	trialStart	1	15	15	foodImage.50	FOODEEG_Images\0529.jpg	YN	Left	Yes	0.818634899798781	0	234510	251
459.083984375	2	health	foodImageDisplay	1	15	15	foodImage.50	FOODEEG_Images\0529.jpg	YN	Left	Yes	0.818634899798781	0	235052	252
461.1484375	0.818634899798781	health	choicePhaseStart	1	15	15	foodImage.50	FOODEEG_Images\0529.jpg	YN	Left	Yes	0.818634899798781	0	236109	253
461.958984375	0	health	response	1	15	15	foodImage.50	FOODEEG_Images\0529.jpg	YN	Left	Yes	0.818634899798781	0	236524	234
463.001953125	1	health	trialStart	1	16	16	foodImage.98	FOODEEG_Images\0906.jpg	NY	Right	Yes	1.59137849975377	0	237058	251
464.041015625	2	health	foodImageDisplay	1	16	16	foodImage.98	FOODEEG_Images\0906.jpg	NY	Right	Yes	1.59137849975377	0	237590	252
466.103515625	1.59137849975377	health	choicePhaseStart	1	16	16	foodImage.98	FOODEEG_Images\0906.jpg	NY	Right	Yes	1.59137849975377	0	238646	253
467.6875	0	health	response	1	16	16	foodImage.98	FOODEEG_Images\0906.jpg	NY	Right	Yes	1.59137849975377	0	239457	235
468.7265625	1	decision	trialStart	1	17	17	foodImage.31	FOODEEG_Images\0294.jpg	NY	Right	Yes	2.1292484998703	0	239989	251
469.7890625	2	decision	foodImageDisplay	1	17	17	foodImage.31	FOODEEG_Images\0294.jpg	NY	Right	Yes	2.1292484998703	0	240533	252
471.8515625	2.1292484998703	decision	choicePhaseStart	1	17	17	foodImage.31	FOODEEG_Images\0294.jpg	NY	Right	Yes	2.1292484998703	0	241589	253
473.974609375	0	decision	response	1	17	17	foodImage.31	FOODEEG_Images\0294.jpg	NY	Right	Yes	2.1292484998703	0	242676	235
475.017578125	1	decision	trialStart	1	18	18	foodImage.43	FOODEEG_Images\0445.jpg	NY	Left	No	1.56586520001292	0	243210	251
476.07421875	2	decision	foodImageDisplay	1	18	18	foodImage.43	FOODEEG_Images\0445.jpg	NY	Left	No	1.56586520001292	0	243751	252
478.138671875	1.56586520001292	decision	choicePhaseStart	1	18	18	foodImage.43	FOODEEG_Images\0445.jpg	NY	Left	No	1.56586520001292	0	244808	253
479.6953125	0	decision	response	1	18	18	foodImage.43	FOODEEG_Images\0445.jpg	NY	Left	No	1.56586520001292	0	245605	234
480.73828125	1	decision	trialStart	1	19	19	foodImage.113	FOODEEG_Images\0921.jpg	NY	Left	No	1.00773190008476	0	246139	251
481.775390625	2	decision	foodImageDisplay	1	19	19	foodImage.113	FOODEEG_Images\0921.jpg	NY	Left	No	1.00773190008476	0	246670	252
483.837890625	1.00773190008476	decision	choicePhaseStart	1	19	19	foodImage.113	FOODEEG_Images\0921.jpg	NY	Left	No	1.00773190008476	0	247726	253
484.837890625	0	decision	response	1	19	19	foodImage.113	FOODEEG_Images\0921.jpg	NY	Left	No	1.00773190008476	0	248238	234
485.8828125	1	health	trialStart	1	20	20	foodImage.42	FOODEEG_Images\0438.jpg	YN	Left	Yes	0.979785399977118	0	248773	251
486.97265625	2	health	foodImageDisplay	1	20	20	foodImage.42	FOODEEG_Images\0438.jpg	YN	Left	Yes	0.979785399977118	0	249331	252
489.037109375	0.979785399977118	health	choicePhaseStart	1	20	20	foodImage.42	FOODEEG_Images\0438.jpg	YN	Left	Yes	0.979785399977118	0	250388	253
490.005859375	0	health	response	1	20	20	foodImage.42	FOODEEG_Images\0438.jpg	YN	Left	Yes	0.979785399977118	0	250884	234
491.056640625	1	decision	trialStart	1	21	21	foodImage.99	FOODEEG_Images\0907.jpg	YN	Right	No	0.946845000144094	0	251422	251
492.09375	2	decision	foodImageDisplay	1	21	21	foodImage.99	FOODEEG_Images\0907.jpg	YN	Right	No	0.946845000144094	0	251953	252
494.15625	0.946845000144094	decision	choicePhaseStart	1	21	21	foodImage.99	FOODEEG_Images\0907.jpg	YN	Right	No	0.946845000144094	0	253009	253
495.09375	0	decision	response	1	21	21	foodImage.99	FOODEEG_Images\0907.jpg	YN	Right	No	0.946845000144094	0	253489	235
496.138671875	1	taste	trialStart	1	22	22	foodImage.63	FOODEEG_Images\0645.jpg	NY	Right	Yes	1.07609370024875	0	254024	251
497.177734375	2	taste	foodImageDisplay	1	22	22	foodImage.63	FOODEEG_Images\0645.jpg	NY	Right	Yes	1.07609370024875	0	254556	252
499.2421875	1.07609370024875	taste	choicePhaseStart	1	22	22	foodImage.63	FOODEEG_Images\0645.jpg	NY	Right	Yes	1.07609370024875	0	255613	253
500.30859375	0	taste	response	1	22	22	foodImage.63	FOODEEG_Images\0645.jpg	NY	Right	Yes	1.07609370024875	0	256159	235
501.3515625	1	health	trialStart	1	23	23	foodImage.29	FOODEEG_Images\0278.jpg	YN	Left	Yes	0.917343199718744	0	256693	251
502.392578125	2	health	foodImageDisplay	1	23	23	foodImage.29	FOODEEG_Images\0278.jpg	YN	Left	Yes	0.917343199718744	0	257226	252
504.455078125	0.917343199718744	health	choicePhaseStart	1	23	23	foodImage.29	FOODEEG_Images\0278.jpg	YN	Left	Yes	0.917343199718744	0	258282	253
505.365234375	0	health	response	1	23	23	foodImage.29	FOODEEG_Images\0278.jpg	YN	Left	Yes	0.917343199718744	0	258748	234
506.408203125	1	decision	trialStart	1	24	24	foodImage.41	FOODEEG_Images\0409.jpg	NY	Right	Yes	1.69485980039462	0	259282	251
507.45703125	2	decision	foodImageDisplay	1	24	24	foodImage.41	FOODEEG_Images\0409.jpg	NY	Right	Yes	1.69485980039462	0	259819	252
509.51953125	1.69485980039462	decision	choicePhaseStart	1	24	24	foodImage.41	FOODEEG_Images\0409.jpg	NY	Right	Yes	1.69485980039462	0	260875	253
511.205078125	0	decision	response	1	24	24	foodImage.41	FOODEEG_Images\0409.jpg	NY	Right	Yes	1.69485980039462	0	261738	235
512.248046875	1	taste	trialStart	1	25	25	foodImage.102	FOODEEG_Images\0910.jpg	YN	Right	No	1.09598289988935	0	262272	251
513.287109375	2	taste	foodImageDisplay	1	25	25	foodImage.102	FOODEEG_Images\0910.jpg	YN	Right	No	1.09598289988935	0	262804	252
515.349609375	1.09598289988935	taste	choicePhaseStart	1	25	25	foodImage.102	FOODEEG_Images\0910.jpg	YN	Right	No	1.09598289988935	0	263860	253
516.4375	0	taste	response	1	25	25	foodImage.102	FOODEEG_Images\0910.jpg	YN	Right	No	1.09598289988935	0	264417	235
517.48046875	1	taste	trialStart	1	26	26	foodImage.81	FOODEEG_Images\0797.jpg	NY	Left	No	1.08145660022274	0	264951	251
518.537109375	2	taste	foodImageDisplay	1	26	26	foodImage.81	FOODEEG_Images\0797.jpg	NY	Left	No	1.08145660022274	0	265492	252
520.6015625	1.08145660022274	taste	choicePhaseStart	1	26	26	foodImage.81	FOODEEG_Images\0797.jpg	NY	Left	No	1.08145660022274	0	266549	253
521.67578125	0	taste	response	1	26	26	foodImage.81	FOODEEG_Images\0797.jpg	NY	Left	No	1.08145660022274	0	267099	234
522.720703125	1	taste	trialStart	1	27	27	foodImage.69	FOODEEG_Images\0693.jpg	NY	Left	No	0.777773499954492	0	267634	251
523.78125	2	taste	foodImageDisplay	1	27	27	foodImage.69	FOODEEG_Images\0693.jpg	NY	Left	No	0.777773499954492	0	268177	252
525.84375	0.777773499954492	taste	choicePhaseStart	1	27	27	foodImage.69	FOODEEG_Images\0693.jpg	NY	Left	No	0.777773499954492	0	269233	253
526.61328125	0	taste	response	1	27	27	foodImage.69	FOODEEG_Images\0693.jpg	NY	Left	No	0.777773499954492	0	269627	234
527.654296875	1	decision	trialStart	1	28	28	foodImage.101	FOODEEG_Images\0909.jpg	NY	Left	No	0.930832300335169	0	270160	251
528.69140625	2	decision	foodImageDisplay	1	28	28	foodImage.101	FOODEEG_Images\0909.jpg	NY	Left	No	0.930832300335169	0	270691	252
530.75390625	0.930832300335169	decision	choicePhaseStart	1	28	28	foodImage.101	FOODEEG_Images\0909.jpg	NY	Left	No	0.930832300335169	0	271747	253
531.67578125	0	decision	response	1	28	28	foodImage.101	FOODEEG_Images\0909.jpg	NY	Left	No	0.930832300335169	0	272219	234
532.716796875	1	decision	trialStart	1	29	29	foodImage.8	FOODEEG_Images\0136.jpg	YN	Right	No	1.84732710011303	0	272752	251
533.7578125	2	decision	foodImageDisplay	1	29	29	foodImage.8	FOODEEG_Images\0136.jpg	YN	Right	No	1.84732710011303	0	273285	252
535.8203125	1.84732710011303	decision	choicePhaseStart	1	29	29	foodImage.8	FOODEEG_Images\0136.jpg	YN	Right	No	1.84732710011303	0	274341	253
537.66015625	0	decision	response	1	29	29	foodImage.8	FOODEEG_Images\0136.jpg	YN	Right	No	1.84732710011303	0	275283	235
538.703125	1	health	trialStart	1	30	30	foodImage.99	FOODEEG_Images\0907.jpg	YN	Right	No	1.09126859996468	0	275817	251
539.740234375	2	health	foodImageDisplay	1	30	30	foodImage.99	FOODEEG_Images\0907.jpg	YN	Right	No	1.09126859996468	0	276348	252
541.802734375	1.09126859996468	health	choicePhaseStart	1	30	30	foodImage.99	FOODEEG_Images\0907.jpg	YN	Right	No	1.09126859996468	0	277404	253
542.884765625	0	health	response	1	30	30	foodImage.99	FOODEEG_Images\0907.jpg	YN	Right	No	1.09126859996468	0	277958	235
543.92578125	1	decision	trialStart	1	31	31	foodImage.62	FOODEEG_Images\0644.jpg	YN	Right	No	7.37538590002805	1	278491	251
545.0078125	2	decision	foodImageDisplay	1	31	31	foodImage.62	FOODEEG_Images\0644.jpg	YN	Right	No	7.37538590002805	1	279045	252
547.0703125	7.37538590002805	decision	choicePhaseStart	1	31	31	foodImage.62	FOODEEG_Images\0644.jpg	YN	Right	No	7.37538590002805	1	280101	253
554.435546875	0	decision	response	1	31	31	foodImage.62	FOODEEG_Images\0644.jpg	YN	Right	No	7.37538590002805	1	283872	235
555.478515625	1	decision	trialStart	1	32	32	foodImage.29	FOODEEG_Images\0278.jpg	YN	Right	No	0.70213000010699	0	284406	251
556.51953125	2	decision	foodImageDisplay	1	32	32	foodImage.29	FOODEEG_Images\0278.jpg	YN	Right	No	0.70213000010699	0	284939	252
558.58203125	0.70213000010699	decision	choicePhaseStart	1	32	32	foodImage.29	FOODEEG_Images\0278.jpg	YN	Right	No	0.70213000010699	0	285995	253
559.275390625	0	decision	response	1	32	32	foodImage.29	FOODEEG_Images\0278.jpg	YN	Right	No	0.70213000010699	0	286350	235
560.3203125	1	decision	trialStart	1	33	33	foodImage.85	FOODEEG_Images\0841.jpg	YN	Left	Yes	0.523982099723071	0	286885	251
561.37890625	2	decision	foodImageDisplay	1	33	33	foodImage.85	FOODEEG_Images\0841.jpg	YN	Left	Yes	0.523982099723071	0	287427	252
563.439453125	0.523982099723071	decision	choicePhaseStart	1	33	33	foodImage.85	FOODEEG_Images\0841.jpg	YN	Left	Yes	0.523982099723071	0	288482	253
563.955078125	0	decision	response	1	33	33	foodImage.85	FOODEEG_Images\0841.jpg	YN	Left	Yes	0.523982099723071	0	288746	234
564.99609375	1	decision	trialStart	1	34	34	foodImage.23	FOODEEG_Images\0244.jpg	YN	Left	Yes	0.66909520002082	0	289279	251
566.037109375	2	decision	foodImageDisplay	1	34	34	foodImage.23	FOODEEG_Images\0244.jpg	YN	Left	Yes	0.66909520002082	0	289812	252
568.1015625	0.66909520002082	decision	choicePhaseStart	1	34	34	foodImage.23	FOODEEG_Images\0244.jpg	YN	Left	Yes	0.66909520002082	0	290869	253
568.763671875	0	decision	response	1	34	34	foodImage.23	FOODEEG_Images\0244.jpg	YN	Left	Yes	0.66909520002082	0	291208	234
569.810546875	1	health	trialStart	1	35	35	foodImage.4	FOODEEG_Images\0065.jpg	NY	Left	No	0.792834199965	0	291744	251
570.869140625	2	health	foodImageDisplay	1	35	35	foodImage.4	FOODEEG_Images\0065.jpg	NY	Left	No	0.792834199965	0	292286	252
572.9296875	0.792834199965	health	choicePhaseStart	1	35	35	foodImage.4	FOODEEG_Images\0065.jpg	NY	Left	No	0.792834199965	0	293341	253
573.71484375	0	health	response	1	35	35	foodImage.4	FOODEEG_Images\0065.jpg	NY	Left	No	0.792834199965	0	293743	234
574.7578125	1	taste	trialStart	1	36	36	foodImage.120	FOODEEG_Images\0928.jpg	YN	Right	No	1.38563279993832	0	294277	251
575.794921875	2	taste	foodImageDisplay	1	36	36	foodImage.120	FOODEEG_Images\0928.jpg	YN	Right	No	1.38563279993832	0	294808	252
577.857421875	1.38563279993832	taste	choicePhaseStart	1	36	36	foodImage.120	FOODEEG_Images\0928.jpg	YN	Right	No	1.38563279993832	0	295864	253
579.234375	0	taste	response	1	36	36	foodImage.120	FOODEEG_Images\0928.jpg	YN	Right	No	1.38563279993832	0	296569	235
580.275390625	1	health	trialStart	1	37	37	foodImage.12	FOODEEG_Images\0181.jpg	YN	Left	Yes	0.821868399623781	0	297102	251
581.318359375	2	health	foodImageDisplay	1	37	37	foodImage.12	FOODEEG_Images\0181.jpg	YN	Left	Yes	0.821868399623781	0	297636	252
583.380859375	0.821868399623781	health	choicePhaseStart	1	37	37	foodImage.12	FOODEEG_Images\0181.jpg	YN	Left	Yes	0.821868399623781	0	298692	253
584.1953125	0	health	response	1	37	37	foodImage.12	FOODEEG_Images\0181.jpg	YN	Left	Yes	0.821868399623781	0	299109	234
585.2421875	1	taste	trialStart	1	38	38	foodImage.83	FOODEEG_Images\0827.jpg	NY	Right	Yes	1.4799773003906	0	299645	251
586.318359375	2	taste	foodImageDisplay	1	38	38	foodImage.83	FOODEEG_Images\0827.jpg	NY	Right	Yes	1.4799773003906	0	300196	252
588.380859375	1.4799773003906	taste	choicePhaseStart	1	38	38	foodImage.83	FOODEEG_Images\0827.jpg	NY	Right	Yes	1.4799773003906	0	301252	253
589.849609375	0	taste	response	1	38	38	foodImage.83	FOODEEG_Images\0827.jpg	NY	Right	Yes	1.4799773003906	0	302004	235
590.892578125	1	decision	trialStart	1	39	39	foodImage.44	FOODEEG_Images\0459.jpg	YN	Left	Yes	0.803554699756205	0	302538	251
591.9375	2	decision	foodImageDisplay	1	39	39	foodImage.44	FOODEEG_Images\0459.jpg	YN	Left	Yes	0.803554699756205	0	303073	252
594	0.803554699756205	decision	choicePhaseStart	1	39	39	foodImage.44	FOODEEG_Images\0459.jpg	YN	Left	Yes	0.803554699756205	0	304129	253
594.794921875	0	decision	response	1	39	39	foodImage.44	FOODEEG_Images\0459.jpg	YN	Left	Yes	0.803554699756205	0	304536	234
595.837890625	1	taste	trialStart	1	40	40	foodImage.77	FOODEEG_Images\0771.jpg	NY	Left	No	2.25289690028876	0	305070	251
596.880859375	2	taste	foodImageDisplay	1	40	40	foodImage.77	FOODEEG_Images\0771.jpg	NY	Left	No	2.25289690028876	0	305604	252
598.94140625	2.25289690028876	taste	choicePhaseStart	1	40	40	foodImage.77	FOODEEG_Images\0771.jpg	NY	Left	No	2.25289690028876	0	306659	253
601.185546875	0	taste	response	1	40	40	foodImage.77	FOODEEG_Images\0771.jpg	NY	Left	No	2.25289690028876	0	307808	234
602.2265625	1	decision	trialStart	1	41	41	foodImage.53	FOODEEG_Images\0547.jpg	YN	Left	Yes	2.24679469969124	0	308341	251
603.30859375	2	decision	foodImageDisplay	1	41	41	foodImage.53	FOODEEG_Images\0547.jpg	YN	Left	Yes	2.24679469969124	0	308895	252
605.37109375	2.24679469969124	decision	choicePhaseStart	1	41	41	foodImage.53	FOODEEG_Images\0547.jpg	YN	Left	Yes	2.24679469969124	0	309951	253
607.609375	0	decision	response	1	41	41	foodImage.53	FOODEEG_Images\0547.jpg	YN	Left	Yes	2.24679469969124	0	311097	234
608.6484375	1	decision	trialStart	1	42	42	foodImage.117	FOODEEG_Images\0925.jpg	NY	Right	Yes	0.974394200369716	0	311629	251
609.685546875	2	decision	foodImageDisplay	1	42	42	foodImage.117	FOODEEG_Images\0925.jpg	NY	Right	Yes	0.974394200369716	0	312160	252
611.748046875	0.974394200369716	decision	choicePhaseStart	1	42	42	foodImage.117	FOODEEG_Images\0925.jpg	NY	Right	Yes	0.974394200369716	0	313216	253
612.712890625	0	decision	response	1	42	42	foodImage.117	FOODEEG_Images\0925.jpg	NY	Right	Yes	0.974394200369716	0	313710	235
613.755859375	1	health	trialStart	1	43	43	foodImage.36	FOODEEG_Images\0352.jpg	NY	Right	Yes	2.48028319980949	0	314244	251
614.810546875	2	health	foodImageDisplay	1	43	43	foodImage.36	FOODEEG_Images\0352.jpg	NY	Right	Yes	2.48028319980949	0	314784	252
616.873046875	2.48028319980949	health	choicePhaseStart	1	43	43	foodImage.36	FOODEEG_Images\0352.jpg	NY	Right	Yes	2.48028319980949	0	315840	253
619.345703125	0	health	response	1	43	43	foodImage.36	FOODEEG_Images\0352.jpg	NY	Right	Yes	2.48028319980949	0	317106	235
620.388671875	1	taste	trialStart	1	44	44	foodImage.78	FOODEEG_Images\0787.jpg	YN	Left	Yes	1.14656660007313	0	317640	251
621.431640625	2	taste	foodImageDisplay	1	44	44	foodImage.78	FOODEEG_Images\0787.jpg	YN	Left	Yes	1.14656660007313	0	318174	252
623.49609375	1.14656660007313	taste	choicePhaseStart	1	44	44	foodImage.78	FOODEEG_Images\0787.jpg	YN	Left	Yes	1.14656660007313	0	319231	253
624.6328125	0	taste	response	1	44	44	foodImage.78	FOODEEG_Images\0787.jpg	YN	Left	Yes	1.14656660007313	0	319813	234
625.673828125	1	taste	trialStart	1	45	45	foodImage.36	FOODEEG_Images\0352.jpg	YN	Left	Yes	0.878495299722999	0	320346	251
626.73046875	2	taste	foodImageDisplay	1	45	45	foodImage.36	FOODEEG_Images\0352.jpg	YN	Left	Yes	0.878495299722999	0	320887	252
628.79296875	0.878495299722999	taste	choicePhaseStart	1	45	45	foodImage.36	FOODEEG_Images\0352.jpg	YN	Left	Yes	0.878495299722999	0	321943	253
629.6640625	0	taste	response	1	45	45	foodImage.36	FOODEEG_Images\0352.jpg	YN	Left	Yes	0.878495299722999	0	322389	234
630.70703125	1	taste	trialStart	1	46	46	foodImage.87	FOODEEG_Images\0873.jpg	YN	Right	No	1.40436189994216	0	322923	251
631.765625	2	taste	foodImageDisplay	1	46	46	foodImage.87	FOODEEG_Images\0873.jpg	YN	Right	No	1.40436189994216	0	323465	252
633.830078125	1.40436189994216	taste	choicePhaseStart	1	46	46	foodImage.87	FOODEEG_Images\0873.jpg	YN	Right	No	1.40436189994216	0	324522	253
635.224609375	0	taste	response	1	46	46	foodImage.87	FOODEEG_Images\0873.jpg	YN	Right	No	1.40436189994216	0	325236	235
636.265625	1	taste	trialStart	1	47	47	foodImage.96	FOODEEG_Images\0904.jpg	YN	Right	No	0.80368660017848	0	325769	251
637.302734375	2	taste	foodImageDisplay	1	47	47	foodImage.96	FOODEEG_Images\0904.jpg	YN	Right	No	0.80368660017848	0	326300	252
639.365234375	0.80368660017848	taste	choicePhaseStart	1	47	47	foodImage.96	FOODEEG_Images\0904.jpg	YN	Right	No	0.80368660017848	0	327356	253
640.16015625	0	taste	response	1	47	47	foodImage.96	FOODEEG_Images\0904.jpg	YN	Right	No	0.80368660017848	0	327763	235
641.203125	1	decision	trialStart	1	48	48	foodImage.63	FOODEEG_Images\0645.jpg	YN	Left	Yes	2.61149499984458	0	328297	251
642.263671875	2	decision	foodImageDisplay	1	48	48	foodImage.63	FOODEEG_Images\0645.jpg	YN	Left	Yes	2.61149499984458	0	328840	252
644.326171875	2.61149499984458	decision	choicePhaseStart	1	48	48	foodImage.63	FOODEEG_Images\0645.jpg	YN	Left	Yes	2.61149499984458	0	329896	253
646.927734375	0	decision	response	1	48	48	foodImage.63	FOODEEG_Images\0645.jpg	YN	Left	Yes	2.61149499984458	0	331228	234
647.96875	1	decision	trialStart	1	49	49	foodImage.102	FOODEEG_Images\0910.jpg	NY	Left	No	1.27506010001525	0	331761	251
649.0078125	2	decision	foodImageDisplay	1	49	49	foodImage.102	FOODEEG_Images\0910.jpg	NY	Left	No	1.27506010001525	0	332293	252
651.0703125	1.27506010001525	decision	choicePhaseStart	1	49	49	foodImage.102	FOODEEG_Images\0910.jpg	NY	Left	No	1.27506010001525	0	333349	253
652.3359375	0	decision	response	1	49	49	foodImage.102	FOODEEG_Images\0910.jpg	NY	Left	No	1.27506010001525	0	333997	234
653.375	1	taste	trialStart	1	50	50	foodImage.70	FOODEEG_Images\0705.jpg	YN	Left	Yes	1.68202969990671	0	334529	251
654.4296875	2	taste	foodImageDisplay	1	50	50	foodImage.70	FOODEEG_Images\0705.jpg	YN	Left	Yes	1.68202969990671	0	335069	252
656.494140625	1.68202969990671	taste	choicePhaseStart	1	50	50	foodImage.70	FOODEEG_Images\0705.jpg	YN	Left	Yes	1.68202969990671	0	336126	253
658.16796875	0	taste	response	1	50	50	foodImage.70	FOODEEG_Images\0705.jpg	YN	Left	Yes	1.68202969990671	0	336983	234
659.212890625	1	taste	trialStart	1	51	51	foodImage.67	FOODEEG_Images\0679.jpg	NY	Left	No	2.23576109996065	0	337518	251
660.26953125	2	taste	foodImageDisplay	1	51	51	foodImage.67	FOODEEG_Images\0679.jpg	NY	Left	No	2.23576109996065	0	338059	252
662.33203125	2.23576109996065	taste	choicePhaseStart	1	51	51	foodImage.67	FOODEEG_Images\0679.jpg	NY	Left	No	2.23576109996065	0	339115	253
664.55859375	0	taste	response	1	51	51	foodImage.67	FOODEEG_Images\0679.jpg	NY	Left	No	2.23576109996065	0	340255	234
665.6015625	1	taste	trialStart	1	52	52	foodImage.24	FOODEEG_Images\0250.jpg	YN	Right	No	2.42944089975208	0	340789	251
666.65234375	2	taste	foodImageDisplay	1	52	52	foodImage.24	FOODEEG_Images\0250.jpg	YN	Right	No	2.42944089975208	0	341327	252
668.71484375	2.42944089975208	taste	choicePhaseStart	1	52	52	foodImage.24	FOODEEG_Images\0250.jpg	YN	Right	No	2.42944089975208	0	342383	253
671.134765625	0	taste	response	1	52	52	foodImage.24	FOODEEG_Images\0250.jpg	YN	Right	No	2.42944089975208	0	343622	235
672.1796875	1	taste	trialStart	1	53	53	foodImage.2	FOODEEG_Images\0028.jpg	YN	Left	Yes	1.82000320032239	0	344157	251
673.220703125	2	taste	foodImageDisplay	1	53	53	foodImage.2	FOODEEG_Images\0028.jpg	YN	Left	Yes	1.82000320032239	0	344690	252
675.283203125	1.82000320032239	taste	choicePhaseStart	1	53	53	foodImage.2	FOODEEG_Images\0028.jpg	YN	Left	Yes	1.82000320032239	0	345746	253
677.09375	0	taste	response	1	53	53	foodImage.2	FOODEEG_Images\0028.jpg	YN	Left	Yes	1.82000320032239	0	346673	234
678.13671875	1	decision	trialStart	1	54	54	foodImage.21	FOODEEG_Images\0234.jpg	YN	Left	Yes	1.18807230005041	0	347207	251
679.197265625	2	decision	foodImageDisplay	1	54	54	foodImage.21	FOODEEG_Images\0234.jpg	YN	Left	Yes	1.18807230005041	0	347750	252
681.259765625	1.18807230005041	decision	choicePhaseStart	1	54	54	foodImage.21	FOODEEG_Images\0234.jpg	YN	Left	Yes	1.18807230005041	0	348806	253
682.439453125	0	decision	response	1	54	54	foodImage.21	FOODEEG_Images\0234.jpg	YN	Left	Yes	1.18807230005041	0	349410	234
683.478515625	1	taste	trialStart	1	55	55	foodImage.106	FOODEEG_Images\0914.jpg	YN	Right	No	4.50779649987817	0	349942	251
684.517578125	2	taste	foodImageDisplay	1	55	55	foodImage.106	FOODEEG_Images\0914.jpg	YN	Right	No	4.50779649987817	0	350474	252
686.580078125	4.50779649987817	taste	choicePhaseStart	1	55	55	foodImage.106	FOODEEG_Images\0914.jpg	YN	Right	No	4.50779649987817	0	351530	253
691.078125	0	taste	response	1	55	55	foodImage.106	FOODEEG_Images\0914.jpg	YN	Right	No	4.50779649987817	0	353833	235
692.12109375	1	taste	trialStart	1	56	56	foodImage.48	FOODEEG_Images\0494.jpg	YN	Left	Yes	1.34754719957709	0	354367	251
693.1640625	2	taste	foodImageDisplay	1	56	56	foodImage.48	FOODEEG_Images\0494.jpg	YN	Left	Yes	1.34754719957709	0	354901	252
695.2265625	1.34754719957709	taste	choicePhaseStart	1	56	56	foodImage.48	FOODEEG_Images\0494.jpg	YN	Left	Yes	1.34754719957709	0	355957	253
696.56640625	0	taste	response	1	56	56	foodImage.48	FOODEEG_Images\0494.jpg	YN	Left	Yes	1.34754719957709	0	356643	234
697.623046875	1	health	trialStart	1	57	57	foodImage.14	FOODEEG_Images\0188.jpg	NY	Right	Yes	2.29356770031154	0	357184	251
698.69140625	2	health	foodImageDisplay	1	57	57	foodImage.14	FOODEEG_Images\0188.jpg	NY	Right	Yes	2.29356770031154	0	357731	252
700.75390625	2.29356770031154	health	choicePhaseStart	1	57	57	foodImage.14	FOODEEG_Images\0188.jpg	NY	Right	Yes	2.29356770031154	0	358787	253
703.037109375	0	health	response	1	57	57	foodImage.14	FOODEEG_Images\0188.jpg	NY	Right	Yes	2.29356770031154	0	359956	235
704.080078125	1	health	trialStart	1	58	58	foodImage.119	FOODEEG_Images\0927.jpg	NY	Left	No	0.881962799932808	0	360490	251
705.119140625	2	health	foodImageDisplay	1	58	58	foodImage.119	FOODEEG_Images\0927.jpg	NY	Left	No	0.881962799932808	0	361022	252
707.181640625	0.881962799932808	health	choicePhaseStart	1	58	58	foodImage.119	FOODEEG_Images\0927.jpg	NY	Left	No	0.881962799932808	0	362078	253
708.0546875	0	health	response	1	58	58	foodImage.119	FOODEEG_Images\0927.jpg	NY	Left	No	0.881962799932808	0	362525	234
709.09765625	1	decision	trialStart	1	59	59	foodImage.95	FOODEEG_Images\0903.jpg	NY	Left	No	1.9448357000947	0	363059	251
710.134765625	2	decision	foodImageDisplay	1	59	59	foodImage.95	FOODEEG_Images\0903.jpg	NY	Left	No	1.9448357000947	0	363590	252
712.197265625	1.9448357000947	decision	choicePhaseStart	1	59	59	foodImage.95	FOODEEG_Images\0903.jpg	NY	Left	No	1.9448357000947	0	364646	253
714.1328125	0	decision	response	1	59	59	foodImage.95	FOODEEG_Images\0903.jpg	NY	Left	No	1.9448357000947	0	365637	234
715.17578125	1	taste	trialStart	1	60	60	foodImage.49	FOODEEG_Images\0515.jpg	NY	Right	Yes	1.28834450012073	0	366171	251
716.21484375	2	taste	foodImageDisplay	1	60	60	foodImage.49	FOODEEG_Images\0515.jpg	NY	Right	Yes	1.28834450012073	0	366703	252
718.27734375	1.28834450012073	taste	choicePhaseStart	1	60	60	foodImage.49	FOODEEG_Images\0515.jpg	NY	Right	Yes	1.28834450012073	0	367759	253
719.556640625	0	taste	response	1	60	60	foodImage.49	FOODEEG_Images\0515.jpg	NY	Right	Yes	1.28834450012073	0	368414	235
721.599609375	29.421875	n/a	blockEnd	n/a	n/a	n/a	n/a	n/a	n/a	n/a	n/a	n/a	n/a	369460	254
751.021484375	2	n/a	blockStart	2	n/a	n/a	n/a	n/a	n/a	n/a	n/a	n/a	n/a	384524	250
753.052734375	1	health	trialStart	2	61	1	foodImage.7	FOODEEG_Images\0116.jpg	YN	Right	No	1.24907179968432	0	385564	251
754.115234375	2	health	foodImageDisplay	2	61	1	foodImage.7	FOODEEG_Images\0116.jpg	YN	Right	No	1.24907179968432	0	386108	252
756.1796875	1.24907179968432	health	choicePhaseStart	2	61	1	foodImage.7	FOODEEG_Images\0116.jpg	YN	Right	No	1.24907179968432	0	387165	253
757.419921875	0	health	response	2	61	1	foodImage.7	FOODEEG_Images\0116.jpg	YN	Right	No	1.24907179968432	0	387800	235
758.4609375	1	taste	trialStart	2	62	2	foodImage.73	FOODEEG_Images\0717.jpg	YN	Left	Yes	1.31227799970657	0	388333	251
759.517578125	2	taste	foodImageDisplay	2	62	2	foodImage.73	FOODEEG_Images\0717.jpg	YN	Left	Yes	1.31227799970657	0	388874	252
761.580078125	1.31227799970657	taste	choicePhaseStart	2	62	2	foodImage.73	FOODEEG_Images\0717.jpg	YN	Left	Yes	1.31227799970657	0	389930	253
762.8828125	0	taste	response	2	62	2	foodImage.73	FOODEEG_Images\0717.jpg	YN	Left	Yes	1.31227799970657	0	390597	234
763.923828125	1	taste	trialStart	2	63	3	foodImage.17	FOODEEG_Images\0199.jpg	NY	Left	No	2.65799769992009	0	391130	251
764.962890625	2	taste	foodImageDisplay	2	63	3	foodImage.17	FOODEEG_Images\0199.jpg	NY	Left	No	2.65799769992009	0	391662	252
767.025390625	2.65799769992009	taste	choicePhaseStart	2	63	3	foodImage.17	FOODEEG_Images\0199.jpg	NY	Left	No	2.65799769992009	0	392718	253
769.67578125	0	taste	response	2	63	3	foodImage.17	FOODEEG_Images\0199.jpg	NY	Left	No	2.65799769992009	0	394075	234
770.71875	1	health	trialStart	2	64	4	foodImage.106	FOODEEG_Images\0914.jpg	NY	Left	No	1.20766089996323	0	394609	251
771.7578125	2	health	foodImageDisplay	2	64	4	foodImage.106	FOODEEG_Images\0914.jpg	NY	Left	No	1.20766089996323	0	395141	252
773.8203125	1.20766089996323	health	choicePhaseStart	2	64	4	foodImage.106	FOODEEG_Images\0914.jpg	NY	Left	No	1.20766089996323	0	396197	253
775.01953125	0	health	response	2	64	4	foodImage.106	FOODEEG_Images\0914.jpg	NY	Left	No	1.20766089996323	0	396811	234
776.0625	1	taste	trialStart	2	65	5	foodImage.95	FOODEEG_Images\0903.jpg	NY	Left	No	0.971598700154573	0	397345	251
777.09765625	2	taste	foodImageDisplay	2	65	5	foodImage.95	FOODEEG_Images\0903.jpg	NY	Left	No	0.971598700154573	0	397875	252
779.16015625	0.971598700154573	taste	choicePhaseStart	2	65	5	foodImage.95	FOODEEG_Images\0903.jpg	NY	Left	No	0.971598700154573	0	398931	253
780.123046875	0	taste	response	2	65	5	foodImage.95	FOODEEG_Images\0903.jpg	NY	Left	No	0.971598700154573	0	399424	234
781.173828125	1	taste	trialStart	2	66	6	foodImage.37	FOODEEG_Images\0359.jpg	YN	Left	Yes	0.824285099748522	0	399962	251
782.236328125	2	taste	foodImageDisplay	2	66	6	foodImage.37	FOODEEG_Images\0359.jpg	YN	Left	Yes	0.824285099748522	0	400506	252
784.30078125	0.824285099748522	taste	choicePhaseStart	2	66	6	foodImage.37	FOODEEG_Images\0359.jpg	YN	Left	Yes	0.824285099748522	0	401563	253
785.115234375	0	taste	response	2	66	6	foodImage.37	FOODEEG_Images\0359.jpg	YN	Left	Yes	0.824285099748522	0	401980	234
786.15625	1	decision	trialStart	2	67	7	foodImage.87	FOODEEG_Images\0873.jpg	NY	Left	No	0.705229799728841	0	402513	251
787.2109375	2	decision	foodImageDisplay	2	67	7	foodImage.87	FOODEEG_Images\0873.jpg	NY	Left	No	0.705229799728841	0	403053	252
789.2734375	0.705229799728841	decision	choicePhaseStart	2	67	7	foodImage.87	FOODEEG_Images\0873.jpg	NY	Left	No	0.705229799728841	0	404109	253
789.970703125	0	decision	response	2	67	7	foodImage.87	FOODEEG_Images\0873.jpg	NY	Left	No	0.705229799728841	0	404466	234
791.013671875	1	health	trialStart	2	68	8	foodImage.11	FOODEEG_Images\0180.jpg	YN	Left	Yes	4.47061490034685	0	405000	251
792.0546875	2	health	foodImageDisplay	2	68	8	foodImage.11	FOODEEG_Images\0180.jpg	YN	Left	Yes	4.47061490034685	0	405533	252
794.1171875	4.47061490034685	health	choicePhaseStart	2	68	8	foodImage.11	FOODEEG_Images\0180.jpg	YN	Left	Yes	4.47061490034685	0	406589	253
798.578125	0	health	response	2	68	8	foodImage.11	FOODEEG_Images\0180.jpg	YN	Left	Yes	4.47061490034685	0	408873	234
799.62109375	1	decision	trialStart	2	69	9	foodImage.9	FOODEEG_Images\0138.jpg	YN	Right	No	0.945344399660826	0	409407	251
800.6796875	2	decision	foodImageDisplay	2	69	9	foodImage.9	FOODEEG_Images\0138.jpg	YN	Right	No	0.945344399660826	0	409949	252
802.7421875	0.945344399660826	decision	choicePhaseStart	2	69	9	foodImage.9	FOODEEG_Images\0138.jpg	YN	Right	No	0.945344399660826	0	411005	253
803.681640625	0	decision	response	2	69	9	foodImage.9	FOODEEG_Images\0138.jpg	YN	Right	No	0.945344399660826	0	411486	235
804.724609375	1	health	trialStart	2	70	10	foodImage.71	FOODEEG_Images\0713.jpg	NY	Left	No	1.39421760011464	0	412020	251
805.76953125	2	health	foodImageDisplay	2	70	10	foodImage.71	FOODEEG_Images\0713.jpg	NY	Left	No	1.39421760011464	0	412555	252
807.83203125	1.39421760011464	health	choicePhaseStart	2	70	10	foodImage.71	FOODEEG_Images\0713.jpg	NY	Left	No	1.39421760011464	0	413611	253
809.216796875	0	health	response	2	70	10	foodImage.71	FOODEEG_Images\0713.jpg	NY	Left	No	1.39421760011464	0	414320	234
810.2578125	1	health	trialStart	2	71	11	foodImage.61	FOODEEG_Images\0640.jpg	NY	Right	Yes	0.981436400208622	0	414853	251
811.30078125	2	health	foodImageDisplay	2	71	11	foodImage.61	FOODEEG_Images\0640.jpg	NY	Right	Yes	0.981436400208622	0	415387	252
813.36328125	0.981436400208622	health	choicePhaseStart	2	71	11	foodImage.61	FOODEEG_Images\0640.jpg	NY	Right	Yes	0.981436400208622	0	416443	253
814.337890625	0	health	response	2	71	11	foodImage.61	FOODEEG_Images\0640.jpg	NY	Right	Yes	0.981436400208622	0	416942	235
815.3828125	1	taste	trialStart	2	72	12	foodImage.117	FOODEEG_Images\0925.jpg	NY	Right	Yes	1.16837650025263	0	417477	251
816.419921875	2	taste	foodImageDisplay	2	72	12	foodImage.117	FOODEEG_Images\0925.jpg	NY	Right	Yes	1.16837650025263	0	418008	252
818.48046875	1.16837650025263	taste	choicePhaseStart	2	72	12	foodImage.117	FOODEEG_Images\0925.jpg	NY	Right	Yes	1.16837650025263	0	419063	253
819.640625	0	taste	response	2	72	12	foodImage.117	FOODEEG_Images\0925.jpg	NY	Right	Yes	1.16837650025263	0	419657	235
820.685546875	1	taste	trialStart	2	73	13	foodImage.41	FOODEEG_Images\0409.jpg	NY	Right	Yes	1.02298349980265	0	420192	251
821.732421875	2	taste	foodImageDisplay	2	73	13	foodImage.41	FOODEEG_Images\0409.jpg	NY	Right	Yes	1.02298349980265	0	420728	252
823.794921875	1.02298349980265	taste	choicePhaseStart	2	73	13	foodImage.41	FOODEEG_Images\0409.jpg	NY	Right	Yes	1.02298349980265	0	421784	253
824.80859375	0	taste	response	2	73	13	foodImage.41	FOODEEG_Images\0409.jpg	NY	Right	Yes	1.02298349980265	0	422303	235
825.853515625	1	taste	trialStart	2	74	14	foodImage.13	FOODEEG_Images\0183.jpg	NY	Right	Yes	0.760910599958152	0	422838	251
826.89453125	2	taste	foodImageDisplay	2	74	14	foodImage.13	FOODEEG_Images\0183.jpg	NY	Right	Yes	0.760910599958152	0	423371	252
828.9609375	0.760910599958152	taste	choicePhaseStart	2	74	14	foodImage.13	FOODEEG_Images\0183.jpg	NY	Right	Yes	0.760910599958152	0	424429	253
829.712890625	0	taste	response	2	74	14	foodImage.13	FOODEEG_Images\0183.jpg	NY	Right	Yes	0.760910599958152	0	424814	235
830.755859375	1	health	trialStart	2	75	15	foodImage.37	FOODEEG_Images\0359.jpg	YN	Left	Yes	0.895136199891567	0	425348	251
831.794921875	2	health	foodImageDisplay	2	75	15	foodImage.37	FOODEEG_Images\0359.jpg	YN	Left	Yes	0.895136199891567	0	425880	252
833.857421875	0.895136199891567	health	choicePhaseStart	2	75	15	foodImage.37	FOODEEG_Images\0359.jpg	YN	Left	Yes	0.895136199891567	0	426936	253
834.744140625	0	health	response	2	75	15	foodImage.37	FOODEEG_Images\0359.jpg	YN	Left	Yes	0.895136199891567	0	427390	234
835.79296875	1	health	trialStart	2	76	16	foodImage.97	FOODEEG_Images\0905.jpg	YN	Right	No	0.746584800072014	0	427927	251
836.83203125	2	health	foodImageDisplay	2	76	16	foodImage.97	FOODEEG_Images\0905.jpg	YN	Right	No	0.746584800072014	0	428459	252
838.89453125	0.746584800072014	health	choicePhaseStart	2	76	16	foodImage.97	FOODEEG_Images\0905.jpg	YN	Right	No	0.746584800072014	0	429515	253
839.6328125	0	health	response	2	76	16	foodImage.97	FOODEEG_Images\0905.jpg	YN	Right	No	0.746584800072014	0	429893	235
840.681640625	1	decision	trialStart	2	77	17	foodImage.92	FOODEEG_Images\0900.jpg	NY	Left	No	1.22749380022287	0	430430	251
841.720703125	2	decision	foodImageDisplay	2	77	17	foodImage.92	FOODEEG_Images\0900.jpg	NY	Left	No	1.22749380022287	0	430962	252
843.783203125	1.22749380022287	decision	choicePhaseStart	2	77	17	foodImage.92	FOODEEG_Images\0900.jpg	NY	Left	No	1.22749380022287	0	432018	253
845	0	decision	response	2	77	17	foodImage.92	FOODEEG_Images\0900.jpg	NY	Left	No	1.22749380022287	0	432641	234
846.04296875	1	decision	trialStart	2	78	18	foodImage.103	FOODEEG_Images\0911.jpg	NY	Left	No	0.809345500078052	0	433175	251
847.080078125	2	decision	foodImageDisplay	2	78	18	foodImage.103	FOODEEG_Images\0911.jpg	NY	Left	No	0.809345500078052	0	433706	252
849.142578125	0.809345500078052	decision	choicePhaseStart	2	78	18	foodImage.103	FOODEEG_Images\0911.jpg	NY	Left	No	0.809345500078052	0	434762	253
849.943359375	0	decision	response	2	78	18	foodImage.103	FOODEEG_Images\0911.jpg	NY	Left	No	0.809345500078052	0	435172	234
850.98828125	1	decision	trialStart	2	79	19	foodImage.36	FOODEEG_Images\0352.jpg	NY	Right	Yes	0.762252999935299	0	435707	251
852.048828125	2	decision	foodImageDisplay	2	79	19	foodImage.36	FOODEEG_Images\0352.jpg	NY	Right	Yes	0.762252999935299	0	436250	252
854.111328125	0.762252999935299	decision	choicePhaseStart	2	79	19	foodImage.36	FOODEEG_Images\0352.jpg	NY	Right	Yes	0.762252999935299	0	437306	253
854.86328125	0	decision	response	2	79	19	foodImage.36	FOODEEG_Images\0352.jpg	NY	Right	Yes	0.762252999935299	0	437691	235
855.908203125	1	health	trialStart	2	80	20	foodImage.87	FOODEEG_Images\0873.jpg	YN	Left	Yes	0.959453700110316	0	438226	251
856.962890625	2	health	foodImageDisplay	2	80	20	foodImage.87	FOODEEG_Images\0873.jpg	YN	Left	Yes	0.959453700110316	0	438766	252
859.025390625	0.959453700110316	health	choicePhaseStart	2	80	20	foodImage.87	FOODEEG_Images\0873.jpg	YN	Left	Yes	0.959453700110316	0	439822	253
859.974609375	0	health	response	2	80	20	foodImage.87	FOODEEG_Images\0873.jpg	YN	Left	Yes	0.959453700110316	0	440308	234
861.01953125	1	health	trialStart	2	81	21	foodImage.94	FOODEEG_Images\0902.jpg	NY	Left	No	2.15254219993949	0	440843	251
862.05859375	2	health	foodImageDisplay	2	81	21	foodImage.94	FOODEEG_Images\0902.jpg	NY	Left	No	2.15254219993949	0	441375	252
864.12109375	2.15254219993949	health	choicePhaseStart	2	81	21	foodImage.94	FOODEEG_Images\0902.jpg	NY	Left	No	2.15254219993949	0	442431	253
866.263671875	0	health	response	2	81	21	foodImage.94	FOODEEG_Images\0902.jpg	NY	Left	No	2.15254219993949	0	443528	234
867.306640625	1	decision	trialStart	2	82	22	foodImage.81	FOODEEG_Images\0797.jpg	YN	Right	No	0.941260499879718	0	444062	251
868.365234375	2	decision	foodImageDisplay	2	82	22	foodImage.81	FOODEEG_Images\0797.jpg	YN	Right	No	0.941260499879718	0	444604	252
870.427734375	0.941260499879718	decision	choicePhaseStart	2	82	22	foodImage.81	FOODEEG_Images\0797.jpg	YN	Right	No	0.941260499879718	0	445660	253
871.359375	0	decision	response	2	82	22	foodImage.81	FOODEEG_Images\0797.jpg	YN	Right	No	0.941260499879718	0	446137	235
872.40234375	1	decision	trialStart	2	83	23	foodImage.68	FOODEEG_Images\0685.jpg	NY	Right	Yes	1.77055459981784	0	446671	251
873.478515625	2	decision	foodImageDisplay	2	83	23	foodImage.68	FOODEEG_Images\0685.jpg	NY	Right	Yes	1.77055459981784	0	447222	252
875.541015625	1.77055459981784	decision	choicePhaseStart	2	83	23	foodImage.68	FOODEEG_Images\0685.jpg	NY	Right	Yes	1.77055459981784	0	448278	253
877.302734375	0	decision	response	2	83	23	foodImage.68	FOODEEG_Images\0685.jpg	NY	Right	Yes	1.77055459981784	0	449180	235
878.345703125	1	decision	trialStart	2	84	24	foodImage.45	FOODEEG_Images\0478.jpg	NY	Right	Yes	0.7853768998757	0	449714	251
879.392578125	2	decision	foodImageDisplay	2	84	24	foodImage.45	FOODEEG_Images\0478.jpg	NY	Right	Yes	0.7853768998757	0	450250	252
881.455078125	0.7853768998757	decision	choicePhaseStart	2	84	24	foodImage.45	FOODEEG_Images\0478.jpg	NY	Right	Yes	0.7853768998757	0	451306	253
882.23046875	0	decision	response	2	84	24	foodImage.45	FOODEEG_Images\0478.jpg	NY	Right	Yes	0.7853768998757	0	451703	235
883.2734375	1	taste	trialStart	2	85	25	foodImage.105	FOODEEG_Images\0913.jpg	NY	Right	Yes	2.22447680030018	0	452237	251
884.310546875	2	taste	foodImageDisplay	2	85	25	foodImage.105	FOODEEG_Images\0913.jpg	NY	Right	Yes	2.22447680030018	0	452768	252
886.373046875	2.22447680030018	taste	choicePhaseStart	2	85	25	foodImage.105	FOODEEG_Images\0913.jpg	NY	Right	Yes	2.22447680030018	0	453824	253
888.58984375	0	taste	response	2	85	25	foodImage.105	FOODEEG_Images\0913.jpg	NY	Right	Yes	2.22447680030018	0	454959	235
889.6328125	1	taste	trialStart	2	86	26	foodImage.19	FOODEEG_Images\0225.jpg	YN	Left	Yes	1.26949030021206	0	455493	251
890.67578125	2	taste	foodImageDisplay	2	86	26	foodImage.19	FOODEEG_Images\0225.jpg	YN	Left	Yes	1.26949030021206	0	456027	252
892.73828125	1.26949030021206	taste	choicePhaseStart	2	86	26	foodImage.19	FOODEEG_Images\0225.jpg	YN	Left	Yes	1.26949030021206	0	457083	253
893.998046875	0	taste	response	2	86	26	foodImage.19	FOODEEG_Images\0225.jpg	YN	Left	Yes	1.26949030021206	0	457728	234
895.041015625	1	decision	trialStart	2	87	27	foodImage.115	FOODEEG_Images\0923.jpg	YN	Right	No	1.29901529988274	0	458262	251
896.083984375	2	decision	foodImageDisplay	2	87	27	foodImage.115	FOODEEG_Images\0923.jpg	YN	Right	No	1.29901529988274	0	458796	252
898.1484375	1.29901529988274	decision	choicePhaseStart	2	87	27	foodImage.115	FOODEEG_Images\0923.jpg	YN	Right	No	1.29901529988274	0	459853	253
899.4375	0	decision	response	2	87	27	foodImage.115	FOODEEG_Images\0923.jpg	YN	Right	No	1.29901529988274	0	460513	235
900.48046875	1	taste	trialStart	2	88	28	foodImage.54	FOODEEG_Images\0560.jpg	NY	Right	Yes	1.13849769998342	0	461047	251
901.5390625	2	taste	foodImageDisplay	2	88	28	foodImage.54	FOODEEG_Images\0560.jpg	NY	Right	Yes	1.13849769998342	0	461589	252
903.6015625	1.13849769998342	taste	choicePhaseStart	2	88	28	foodImage.54	FOODEEG_Images\0560.jpg	NY	Right	Yes	1.13849769998342	0	462645	253
904.734375	0	taste	response	2	88	28	foodImage.54	FOODEEG_Images\0560.jpg	NY	Right	Yes	1.13849769998342	0	463225	235
905.77734375	1	taste	trialStart	2	89	29	foodImage.98	FOODEEG_Images\0906.jpg	YN	Right	No	1.17918300023302	0	463759	251
906.814453125	2	taste	foodImageDisplay	2	89	29	foodImage.98	FOODEEG_Images\0906.jpg	YN	Right	No	1.17918300023302	0	464290	252
908.876953125	1.17918300023302	taste	choicePhaseStart	2	89	29	foodImage.98	FOODEEG_Images\0906.jpg	YN	Right	No	1.17918300023302	0	465346	253
910.046875	0	taste	response	2	89	29	foodImage.98	FOODEEG_Images\0906.jpg	YN	Right	No	1.17918300023302	0	465945	235
911.087890625	1	health	trialStart	2	90	30	foodImage.90	FOODEEG_Images\0890.jpg	NY	Left	No	4.42150380043313	0	466478	251
912.146484375	2	health	foodImageDisplay	2	90	30	foodImage.90	FOODEEG_Images\0890.jpg	NY	Left	No	4.42150380043313	0	467020	252
914.208984375	4.42150380043313	health	choicePhaseStart	2	90	30	foodImage.90	FOODEEG_Images\0890.jpg	NY	Left	No	4.42150380043313	0	468076	253
918.62109375	0	health	response	2	90	30	foodImage.90	FOODEEG_Images\0890.jpg	NY	Left	No	4.42150380043313	0	470335	234
919.6640625	1	taste	trialStart	2	91	31	foodImage.64	FOODEEG_Images\0647.jpg	YN	Left	Yes	4.49588620010763	0	470869	251
920.720703125	2	taste	foodImageDisplay	2	91	31	foodImage.64	FOODEEG_Images\0647.jpg	YN	Left	Yes	4.49588620010763	0	471410	252
922.78125	4.49588620010763	taste	choicePhaseStart	2	91	31	foodImage.64	FOODEEG_Images\0647.jpg	YN	Left	Yes	4.49588620010763	0	472465	253
927.26953125	0	taste	response	2	91	31	foodImage.64	FOODEEG_Images\0647.jpg	YN	Left	Yes	4.49588620010763	0	474763	234
928.310546875	1	taste	trialStart	2	92	32	foodImage.39	FOODEEG_Images\0367.jpg	NY	Left	No	1.07446510018781	0	475296	251
929.349609375	2	taste	foodImageDisplay	2	92	32	foodImage.39	FOODEEG_Images\0367.jpg	NY	Left	No	1.07446510018781	0	475828	252
931.412109375	1.07446510018781	taste	choicePhaseStart	2	92	32	foodImage.39	FOODEEG_Images\0367.jpg	NY	Left	No	1.07446510018781	0	476884	253
932.4765625	0	taste	response	2	92	32	foodImage.39	FOODEEG_Images\0367.jpg	NY	Left	No	1.07446510018781	0	477429	234
933.51953125	1	health	trialStart	2	93	33	foodImage.22	FOODEEG_Images\0236.jpg	YN	Left	Yes	2.13359900005162	0	477963	251
934.560546875	2	health	foodImageDisplay	2	93	33	foodImage.22	FOODEEG_Images\0236.jpg	YN	Left	Yes	2.13359900005162	0	478496	252
936.623046875	2.13359900005162	health	choicePhaseStart	2	93	33	foodImage.22	FOODEEG_Images\0236.jpg	YN	Left	Yes	2.13359900005162	0	479552	253
938.748046875	0	health	response	2	93	33	foodImage.22	FOODEEG_Images\0236.jpg	YN	Left	Yes	2.13359900005162	0	480640	234
939.791015625	1	taste	trialStart	2	94	34	foodImage.55	FOODEEG_Images\0567.jpg	YN	Left	Yes	1.51265790034086	0	481174	251
940.849609375	2	taste	foodImageDisplay	2	94	34	foodImage.55	FOODEEG_Images\0567.jpg	YN	Left	Yes	1.51265790034086	0	481716	252
942.916015625	1.51265790034086	taste	choicePhaseStart	2	94	34	foodImage.55	FOODEEG_Images\0567.jpg	YN	Left	Yes	1.51265790034086	0	482774	253
944.419921875	0	taste	response	2	94	34	foodImage.55	FOODEEG_Images\0567.jpg	YN	Left	Yes	1.51265790034086	0	483544	234
945.462890625	1	decision	trialStart	2	95	35	foodImage.47	FOODEEG_Images\0488.jpg	YN	Left	Yes	1.0444260998629	0	484078	251
946.50390625	2	decision	foodImageDisplay	2	95	35	foodImage.47	FOODEEG_Images\0488.jpg	YN	Left	Yes	1.0444260998629	0	484611	252
948.568359375	1.0444260998629	decision	choicePhaseStart	2	95	35	foodImage.47	FOODEEG_Images\0488.jpg	YN	Left	Yes	1.0444260998629	0	485668	253
949.603515625	0	decision	response	2	95	35	foodImage.47	FOODEEG_Images\0488.jpg	YN	Left	Yes	1.0444260998629	0	486198	234
950.646484375	1	health	trialStart	2	96	36	foodImage.91	FOODEEG_Images\0896.jpg	NY	Right	Yes	2.66969999996945	0	486732	251
951.705078125	2	health	foodImageDisplay	2	96	36	foodImage.91	FOODEEG_Images\0896.jpg	NY	Right	Yes	2.66969999996945	0	487274	252
953.767578125	2.66969999996945	health	choicePhaseStart	2	96	36	foodImage.91	FOODEEG_Images\0896.jpg	NY	Right	Yes	2.66969999996945	0	488330	253
956.427734375	0	health	response	2	96	36	foodImage.91	FOODEEG_Images\0896.jpg	NY	Right	Yes	2.66969999996945	0	489692	235
957.470703125	1	taste	trialStart	2	97	37	foodImage.51	FOODEEG_Images\0536.jpg	YN	Right	No	2.35955450031906	0	490226	251
958.517578125	2	taste	foodImageDisplay	2	97	37	foodImage.51	FOODEEG_Images\0536.jpg	YN	Right	No	2.35955450031906	0	490762	252
960.580078125	2.35955450031906	taste	choicePhaseStart	2	97	37	foodImage.51	FOODEEG_Images\0536.jpg	YN	Right	No	2.35955450031906	0	491818	253
962.931640625	0	taste	response	2	97	37	foodImage.51	FOODEEG_Images\0536.jpg	YN	Right	No	2.35955450031906	0	493022	235
963.974609375	1	health	trialStart	2	98	38	foodImage.82	FOODEEG_Images\0805.jpg	YN	Left	Yes	1.23173000011593	0	493556	251
965.03125	2	health	foodImageDisplay	2	98	38	foodImage.82	FOODEEG_Images\0805.jpg	YN	Left	Yes	1.23173000011593	0	494097	252
967.09375	1.23173000011593	health	choicePhaseStart	2	98	38	foodImage.82	FOODEEG_Images\0805.jpg	YN	Left	Yes	1.23173000011593	0	495153	253
968.31640625	0	health	response	2	98	38	foodImage.82	FOODEEG_Images\0805.jpg	YN	Left	Yes	1.23173000011593	0	495779	234
969.359375	1	decision	trialStart	2	99	39	foodImage.93	FOODEEG_Images\0901.jpg	NY	Left	No	1.13611779967323	0	496313	251
970.396484375	2	decision	foodImageDisplay	2	99	39	foodImage.93	FOODEEG_Images\0901.jpg	NY	Left	No	1.13611779967323	0	496844	252
972.458984375	1.13611779967323	decision	choicePhaseStart	2	99	39	foodImage.93	FOODEEG_Images\0901.jpg	NY	Left	No	1.13611779967323	0	497900	253
973.587890625	0	decision	response	2	99	39	foodImage.93	FOODEEG_Images\0901.jpg	NY	Left	No	1.13611779967323	0	498478	234
974.630859375	1	health	trialStart	2	100	40	foodImage.66	FOODEEG_Images\0676.jpg	YN	Right	No	1.29971960000694	0	499012	251
975.673828125	2	health	foodImageDisplay	2	100	40	foodImage.66	FOODEEG_Images\0676.jpg	YN	Right	No	1.29971960000694	0	499546	252
977.736328125	1.29971960000694	health	choicePhaseStart	2	100	40	foodImage.66	FOODEEG_Images\0676.jpg	YN	Right	No	1.29971960000694	0	500602	253
979.02734375	0	health	response	2	100	40	foodImage.66	FOODEEG_Images\0676.jpg	YN	Right	No	1.29971960000694	0	501263	235
980.076171875	1	taste	trialStart	2	101	41	foodImage.1	FOODEEG_Images\0004.jpg	NY	Left	No	3.51430229982361	0	501800	251
981.115234375	2	taste	foodImageDisplay	2	101	41	foodImage.1	FOODEEG_Images\0004.jpg	NY	Left	No	3.51430229982361	0	502332	252
983.177734375	3.51430229982361	taste	choicePhaseStart	2	101	41	foodImage.1	FOODEEG_Images\0004.jpg	NY	Left	No	3.51430229982361	0	503388	253
986.681640625	0	taste	response	2	101	41	foodImage.1	FOODEEG_Images\0004.jpg	NY	Left	No	3.51430229982361	0	505182	234
987.7265625	1	taste	trialStart	2	102	42	foodImage.116	FOODEEG_Images\0924.jpg	NY	Left	No	1.14379299990833	0	505717	251
988.765625	2	taste	foodImageDisplay	2	102	42	foodImage.116	FOODEEG_Images\0924.jpg	NY	Left	No	1.14379299990833	0	506249	252
990.828125	1.14379299990833	taste	choicePhaseStart	2	102	42	foodImage.116	FOODEEG_Images\0924.jpg	NY	Left	No	1.14379299990833	0	507305	253
991.962890625	0	taste	response	2	102	42	foodImage.116	FOODEEG_Images\0924.jpg	NY	Left	No	1.14379299990833	0	507886	234
993.005859375	1	decision	trialStart	2	103	43	foodImage.12	FOODEEG_Images\0181.jpg	NY	Right	Yes	0.861228199675679	0	508420	251
994.046875	2	decision	foodImageDisplay	2	103	43	foodImage.12	FOODEEG_Images\0181.jpg	NY	Right	Yes	0.861228199675679	0	508953	252
996.109375	0.861228199675679	decision	choicePhaseStart	2	103	43	foodImage.12	FOODEEG_Images\0181.jpg	NY	Right	Yes	0.861228199675679	0	510009	253
996.962890625	0	decision	response	2	103	43	foodImage.12	FOODEEG_Images\0181.jpg	NY	Right	Yes	0.861228199675679	0	510446	235
998.00390625	1	taste	trialStart	2	104	44	foodImage.65	FOODEEG_Images\0658.jpg	YN	Right	No	1.35752450022846	0	510979	251
999.0546875	2	taste	foodImageDisplay	2	104	44	foodImage.65	FOODEEG_Images\0658.jpg	YN	Right	No	1.35752450022846	0	511517	252
1001.1171875	1.35752450022846	taste	choicePhaseStart	2	104	44	foodImage.65	FOODEEG_Images\0658.jpg	YN	Right	No	1.35752450022846	0	512573	253
1002.466796875	0	taste	response	2	104	44	foodImage.65	FOODEEG_Images\0658.jpg	YN	Right	No	1.35752450022846	0	513264	235
1003.509765625	1	taste	trialStart	2	105	45	foodImage.53	FOODEEG_Images\0547.jpg	NY	Right	Yes	1.01452080020681	0	513798	251
1004.56640625	2	taste	foodImageDisplay	2	105	45	foodImage.53	FOODEEG_Images\0547.jpg	NY	Right	Yes	1.01452080020681	0	514339	252
1006.62890625	1.01452080020681	taste	choicePhaseStart	2	105	45	foodImage.53	FOODEEG_Images\0547.jpg	NY	Right	Yes	1.01452080020681	0	515395	253
1007.6328125	0	taste	response	2	105	45	foodImage.53	FOODEEG_Images\0547.jpg	NY	Right	Yes	1.01452080020681	0	515909	235
1008.67578125	1	health	trialStart	2	106	46	foodImage.49	FOODEEG_Images\0515.jpg	NY	Right	Yes	1.89284989982843	0	516443	251
1009.71875	2	health	foodImageDisplay	2	106	46	foodImage.49	FOODEEG_Images\0515.jpg	NY	Right	Yes	1.89284989982843	0	516977	252
1011.78125	1.89284989982843	health	choicePhaseStart	2	106	46	foodImage.49	FOODEEG_Images\0515.jpg	NY	Right	Yes	1.89284989982843	0	518033	253
1013.666015625	0	health	response	2	106	46	foodImage.49	FOODEEG_Images\0515.jpg	NY	Right	Yes	1.89284989982843	0	518998	235
1014.708984375	1	health	trialStart	2	107	47	foodImage.73	FOODEEG_Images\0717.jpg	YN	Left	Yes	1.1158684999682	0	519532	251
1015.767578125	2	health	foodImageDisplay	2	107	47	foodImage.73	FOODEEG_Images\0717.jpg	YN	Left	Yes	1.1158684999682	0	520074	252
1017.830078125	1.1158684999682	health	choicePhaseStart	2	107	47	foodImage.73	FOODEEG_Images\0717.jpg	YN	Left	Yes	1.1158684999682	0	521130	253
1018.9375	0	health	response	2	107	47	foodImage.73	FOODEEG_Images\0717.jpg	YN	Left	Yes	1.1158684999682	0	521697	234
1019.98046875	1	decision	trialStart	2	108	48	foodImage.61	FOODEEG_Images\0640.jpg	NY	Right	Yes	2.08318960014731	0	522231	251
1021.0234375	2	decision	foodImageDisplay	2	108	48	foodImage.61	FOODEEG_Images\0640.jpg	NY	Right	Yes	2.08318960014731	0	522765	252
1023.087890625	2.08318960014731	decision	choicePhaseStart	2	108	48	foodImage.61	FOODEEG_Images\0640.jpg	NY	Right	Yes	2.08318960014731	0	523822	253
1025.162109375	0	decision	response	2	108	48	foodImage.61	FOODEEG_Images\0640.jpg	NY	Right	Yes	2.08318960014731	0	524884	235
1026.203125	1	health	trialStart	2	109	49	foodImage.48	FOODEEG_Images\0494.jpg	NY	Left	No	1.135936900042	0	525417	251
1027.244140625	2	health	foodImageDisplay	2	109	49	foodImage.48	FOODEEG_Images\0494.jpg	NY	Left	No	1.135936900042	0	525950	252
1029.3046875	1.135936900042	health	choicePhaseStart	2	109	49	foodImage.48	FOODEEG_Images\0494.jpg	NY	Left	No	1.135936900042	0	527005	253
1030.43359375	0	health	response	2	109	49	foodImage.48	FOODEEG_Images\0494.jpg	NY	Left	No	1.135936900042	0	527583	234
1031.478515625	1	decision	trialStart	2	110	50	foodImage.60	FOODEEG_Images\0614.jpg	YN	Right	No	0.917769900057465	0	528118	251
1032.533203125	2	decision	foodImageDisplay	2	110	50	foodImage.60	FOODEEG_Images\0614.jpg	YN	Right	No	0.917769900057465	0	528658	252
1034.595703125	0.917769900057465	decision	choicePhaseStart	2	110	50	foodImage.60	FOODEEG_Images\0614.jpg	YN	Right	No	0.917769900057465	0	529714	253
1035.505859375	0	decision	response	2	110	50	foodImage.60	FOODEEG_Images\0614.jpg	YN	Right	No	0.917769900057465	0	530180	235
1036.5546875	1	decision	trialStart	2	111	51	foodImage.49	FOODEEG_Images\0515.jpg	NY	Right	Yes	0.824211200233549	0	530717	251
1037.595703125	2	decision	foodImageDisplay	2	111	51	foodImage.49	FOODEEG_Images\0515.jpg	NY	Right	Yes	0.824211200233549	0	531250	252
1039.658203125	0.824211200233549	decision	choicePhaseStart	2	111	51	foodImage.49	FOODEEG_Images\0515.jpg	NY	Right	Yes	0.824211200233549	0	532306	253
1040.47265625	0	decision	response	2	111	51	foodImage.49	FOODEEG_Images\0515.jpg	NY	Right	Yes	0.824211200233549	0	532723	235
1041.513671875	1	decision	trialStart	2	112	52	foodImage.18	FOODEEG_Images\0202.jpg	NY	Left	No	0.872752199880779	0	533256	251
1042.5703125	2	decision	foodImageDisplay	2	112	52	foodImage.18	FOODEEG_Images\0202.jpg	NY	Left	No	0.872752199880779	0	533797	252
1044.6328125	0.872752199880779	decision	choicePhaseStart	2	112	52	foodImage.18	FOODEEG_Images\0202.jpg	NY	Left	No	0.872752199880779	0	534853	253
1045.49609375	0	decision	response	2	112	52	foodImage.18	FOODEEG_Images\0202.jpg	NY	Left	No	0.872752199880779	0	535295	234
1046.53515625	1	health	trialStart	2	113	53	foodImage.75	FOODEEG_Images\0763.jpg	NY	Right	Yes	0.827850400004536	0	535827	251
1047.578125	2	health	foodImageDisplay	2	113	53	foodImage.75	FOODEEG_Images\0763.jpg	NY	Right	Yes	0.827850400004536	0	536361	252
1049.640625	0.827850400004536	health	choicePhaseStart	2	113	53	foodImage.75	FOODEEG_Images\0763.jpg	NY	Right	Yes	0.827850400004536	0	537417	253
1050.46484375	0	health	response	2	113	53	foodImage.75	FOODEEG_Images\0763.jpg	NY	Right	Yes	0.827850400004536	0	537839	235
1051.505859375	1	decision	trialStart	2	114	54	foodImage.26	FOODEEG_Images\0262.jpg	YN	Right	No	0.928005599882454	0	538372	251
1052.546875	2	decision	foodImageDisplay	2	114	54	foodImage.26	FOODEEG_Images\0262.jpg	YN	Right	No	0.928005599882454	0	538905	252
1054.609375	0.928005599882454	decision	choicePhaseStart	2	114	54	foodImage.26	FOODEEG_Images\0262.jpg	YN	Right	No	0.928005599882454	0	539961	253
1055.52734375	0	decision	response	2	114	54	foodImage.26	FOODEEG_Images\0262.jpg	YN	Right	No	0.928005599882454	0	540431	235
1056.5703125	1	decision	trialStart	2	115	55	foodImage.5	FOODEEG_Images\0107.jpg	YN	Right	No	0.940983099862933	0	540965	251
1057.626953125	2	decision	foodImageDisplay	2	115	55	foodImage.5	FOODEEG_Images\0107.jpg	YN	Right	No	0.940983099862933	0	541506	252
1059.69140625	0.940983099862933	decision	choicePhaseStart	2	115	55	foodImage.5	FOODEEG_Images\0107.jpg	YN	Right	No	0.940983099862933	0	542563	253
1060.623046875	0	decision	response	2	115	55	foodImage.5	FOODEEG_Images\0107.jpg	YN	Right	No	0.940983099862933	0	543040	235
1061.6640625	1	decision	trialStart	2	116	56	foodImage.56	FOODEEG_Images\0586.jpg	YN	Right	No	1.06217660009861	0	543573	251
1062.70703125	2	decision	foodImageDisplay	2	116	56	foodImage.56	FOODEEG_Images\0586.jpg	YN	Right	No	1.06217660009861	0	544107	252
1064.76953125	1.06217660009861	decision	choicePhaseStart	2	116	56	foodImage.56	FOODEEG_Images\0586.jpg	YN	Right	No	1.06217660009861	0	545163	253
1065.82421875	0	decision	response	2	116	56	foodImage.56	FOODEEG_Images\0586.jpg	YN	Right	No	1.06217660009861	0	545703	235
1066.875	1	taste	trialStart	2	117	57	foodImage.59	FOODEEG_Images\0607.jpg	YN	Right	No	3.65692850016057	0	546241	251
1067.921875	2	taste	foodImageDisplay	2	117	57	foodImage.59	FOODEEG_Images\0607.jpg	YN	Right	No	3.65692850016057	0	546777	252
1069.984375	3.65692850016057	taste	choicePhaseStart	2	117	57	foodImage.59	FOODEEG_Images\0607.jpg	YN	Right	No	3.65692850016057	0	547833	253
1073.630859375	0	taste	response	2	117	57	foodImage.59	FOODEEG_Images\0607.jpg	YN	Right	No	3.65692850016057	0	549700	235
1074.673828125	1	decision	trialStart	2	118	58	foodImage.50	FOODEEG_Images\0529.jpg	YN	Left	Yes	2.25462159980088	0	550234	251
1075.732421875	2	decision	foodImageDisplay	2	118	58	foodImage.50	FOODEEG_Images\0529.jpg	YN	Left	Yes	2.25462159980088	0	550776	252
1077.79296875	2.25462159980088	decision	choicePhaseStart	2	118	58	foodImage.50	FOODEEG_Images\0529.jpg	YN	Left	Yes	2.25462159980088	0	551831	253
1080.0390625	0	decision	response	2	118	58	foodImage.50	FOODEEG_Images\0529.jpg	YN	Left	Yes	2.25462159980088	0	552981	234
1081.08203125	1	health	trialStart	2	119	59	foodImage.101	FOODEEG_Images\0909.jpg	NY	Left	No	1.91194429993629	0	553515	251
1082.12109375	2	health	foodImageDisplay	2	119	59	foodImage.101	FOODEEG_Images\0909.jpg	NY	Left	No	1.91194429993629	0	554047	252
1084.18359375	1.91194429993629	health	choicePhaseStart	2	119	59	foodImage.101	FOODEEG_Images\0909.jpg	NY	Left	No	1.91194429993629	0	555103	253
1086.087890625	0	health	response	2	119	59	foodImage.101	FOODEEG_Images\0909.jpg	NY	Left	No	1.91194429993629	0	556078	234
1087.12890625	1	health	trialStart	2	120	60	foodImage.30	FOODEEG_Images\0282.jpg	NY	Right	Yes	1.20541429985315	0	556611	251
1088.169921875	2	health	foodImageDisplay	2	120	60	foodImage.30	FOODEEG_Images\0282.jpg	NY	Right	Yes	1.20541429985315	0	557144	252
1090.234375	1.20541429985315	health	choicePhaseStart	2	120	60	foodImage.30	FOODEEG_Images\0282.jpg	NY	Right	Yes	1.20541429985315	0	558201	253
1091.4296875	0	health	response	2	120	60	foodImage.30	FOODEEG_Images\0282.jpg	NY	Right	Yes	1.20541429985315	0	558813	235
1093.47265625	27.146484375	n/a	blockEnd	n/a	n/a	n/a	n/a	n/a	n/a	n/a	n/a	n/a	n/a	559859	254
1120.619140625	2	n/a	blockStart	3	n/a	n/a	n/a	n/a	n/a	n/a	n/a	n/a	n/a	573758	250
1122.650390625	1	health	trialStart	3	121	1	foodImage.104	FOODEEG_Images\0912.jpg	NY	Left	No	1.45838019996881	0	574798	251
1123.689453125	2	health	foodImageDisplay	3	121	1	foodImage.104	FOODEEG_Images\0912.jpg	NY	Left	No	1.45838019996881	0	575330	252
1125.751953125	1.45838019996881	health	choicePhaseStart	3	121	1	foodImage.104	FOODEEG_Images\0912.jpg	NY	Left	No	1.45838019996881	0	576386	253
1127.205078125	0	health	response	3	121	1	foodImage.104	FOODEEG_Images\0912.jpg	NY	Left	No	1.45838019996881	0	577130	234
1128.25390625	1	health	trialStart	3	122	2	foodImage.67	FOODEEG_Images\0679.jpg	YN	Left	Yes	6.1770108002238	1	577667	251
1129.310546875	2	health	foodImageDisplay	3	122	2	foodImage.67	FOODEEG_Images\0679.jpg	YN	Left	Yes	6.1770108002238	1	578208	252
1131.373046875	6.1770108002238	health	choicePhaseStart	3	122	2	foodImage.67	FOODEEG_Images\0679.jpg	YN	Left	Yes	6.1770108002238	1	579264	253
1137.541015625	0	health	response	3	122	2	foodImage.67	FOODEEG_Images\0679.jpg	YN	Left	Yes	6.1770108002238	1	582422	234
1138.583984375	1	taste	trialStart	3	123	3	foodImage.91	FOODEEG_Images\0896.jpg	NY	Left	No	1.02873399993405	0	582956	251
1139.640625	2	taste	foodImageDisplay	3	123	3	foodImage.91	FOODEEG_Images\0896.jpg	NY	Left	No	1.02873399993405	0	583497	252
1141.705078125	1.02873399993405	taste	choicePhaseStart	3	123	3	foodImage.91	FOODEEG_Images\0896.jpg	NY	Left	No	1.02873399993405	0	584554	253
1142.724609375	0	taste	response	3	123	3	foodImage.91	FOODEEG_Images\0896.jpg	NY	Left	No	1.02873399993405	0	585076	234
1143.767578125	1	taste	trialStart	3	124	4	foodImage.8	FOODEEG_Images\0136.jpg	NY	Left	No	0.622714700177312	0	585610	251
1144.80859375	2	taste	foodImageDisplay	3	124	4	foodImage.8	FOODEEG_Images\0136.jpg	NY	Left	No	0.622714700177312	0	586143	252
1146.87109375	0.622714700177312	taste	choicePhaseStart	3	124	4	foodImage.8	FOODEEG_Images\0136.jpg	NY	Left	No	0.622714700177312	0	587199	253
1147.484375	0	taste	response	3	124	4	foodImage.8	FOODEEG_Images\0136.jpg	NY	Left	No	0.622714700177312	0	587513	234
1148.52734375	1	health	trialStart	3	125	5	foodImage.43	FOODEEG_Images\0445.jpg	YN	Left	Yes	1.07705629989505	0	588047	251
1149.5859375	2	health	foodImageDisplay	3	125	5	foodImage.43	FOODEEG_Images\0445.jpg	YN	Left	Yes	1.07705629989505	0	588589	252
1151.6484375	1.07705629989505	health	choicePhaseStart	3	125	5	foodImage.43	FOODEEG_Images\0445.jpg	YN	Left	Yes	1.07705629989505	0	589645	253
1152.716796875	0	health	response	3	125	5	foodImage.43	FOODEEG_Images\0445.jpg	YN	Left	Yes	1.07705629989505	0	590192	234
1153.759765625	1	health	trialStart	3	126	6	foodImage.79	FOODEEG_Images\0794.jpg	YN	Left	Yes	0.827173300087452	0	590726	251
1154.802734375	2	health	foodImageDisplay	3	126	6	foodImage.79	FOODEEG_Images\0794.jpg	YN	Left	Yes	0.827173300087452	0	591260	252
1156.865234375	0.827173300087452	health	choicePhaseStart	3	126	6	foodImage.79	FOODEEG_Images\0794.jpg	YN	Left	Yes	0.827173300087452	0	592316	253
1157.68359375	0	health	response	3	126	6	foodImage.79	FOODEEG_Images\0794.jpg	YN	Left	Yes	0.827173300087452	0	592735	234
1158.728515625	1	taste	trialStart	3	127	7	foodImage.94	FOODEEG_Images\0902.jpg	YN	Right	No	0.864258899819106	0	593270	251
1159.765625	2	taste	foodImageDisplay	3	127	7	foodImage.94	FOODEEG_Images\0902.jpg	YN	Right	No	0.864258899819106	0	593801	252
1161.828125	0.864258899819106	taste	choicePhaseStart	3	127	7	foodImage.94	FOODEEG_Images\0902.jpg	YN	Right	No	0.864258899819106	0	594857	253
1162.68359375	0	taste	response	3	127	7	foodImage.94	FOODEEG_Images\0902.jpg	YN	Right	No	0.864258899819106	0	595295	235
1163.7265625	1	health	trialStart	3	128	8	foodImage.114	FOODEEG_Images\0922.jpg	YN	Right	No	8.93536120001227	1	595829	251
1164.765625	2	health	foodImageDisplay	3	128	8	foodImage.114	FOODEEG_Images\0922.jpg	YN	Right	No	8.93536120001227	1	596361	252
1166.828125	8.93536120001227	health	choicePhaseStart	3	128	8	foodImage.114	FOODEEG_Images\0922.jpg	YN	Right	No	8.93536120001227	1	597417	253
1175.755859375	0	health	response	3	128	8	foodImage.114	FOODEEG_Images\0922.jpg	YN	Right	No	8.93536120001227	1	601988	235
1176.80078125	1	health	trialStart	3	129	9	foodImage.92	FOODEEG_Images\0900.jpg	YN	Right	No	0.734301800373942	0	602523	251
1177.84765625	2	health	foodImageDisplay	3	129	9	foodImage.92	FOODEEG_Images\0900.jpg	YN	Right	No	0.734301800373942	0	603059	252
1179.91015625	0.734301800373942	health	choicePhaseStart	3	129	9	foodImage.92	FOODEEG_Images\0900.jpg	YN	Right	No	0.734301800373942	0	604115	253
1180.634765625	0	health	response	3	129	9	foodImage.92	FOODEEG_Images\0900.jpg	YN	Right	No	0.734301800373942	0	604486	235
1181.677734375	1	health	trialStart	3	130	10	foodImage.52	FOODEEG_Images\0539.jpg	NY	Right	Yes	0.836111800279468	0	605020	251
1182.734375	2	health	foodImageDisplay	3	130	10	foodImage.52	FOODEEG_Images\0539.jpg	NY	Right	Yes	0.836111800279468	0	605561	252
1184.796875	0.836111800279468	health	choicePhaseStart	3	130	10	foodImage.52	FOODEEG_Images\0539.jpg	NY	Right	Yes	0.836111800279468	0	606617	253
1185.626953125	0	health	response	3	130	10	foodImage.52	FOODEEG_Images\0539.jpg	NY	Right	Yes	0.836111800279468	0	607042	235
1186.669921875	1	health	trialStart	3	131	11	foodImage.19	FOODEEG_Images\0225.jpg	NY	Right	Yes	2.19611010001972	0	607576	251
1187.712890625	2	health	foodImageDisplay	3	131	11	foodImage.19	FOODEEG_Images\0225.jpg	NY	Right	Yes	2.19611010001972	0	608110	252
1189.775390625	2.19611010001972	health	choicePhaseStart	3	131	11	foodImage.19	FOODEEG_Images\0225.jpg	NY	Right	Yes	2.19611010001972	0	609166	253
1191.962890625	0	health	response	3	131	11	foodImage.19	FOODEEG_Images\0225.jpg	NY	Right	Yes	2.19611010001972	0	610286	235
1193.005859375	1	decision	trialStart	3	132	12	foodImage.20	FOODEEG_Images\0226.jpg	YN	Left	Yes	1.16725190030411	0	610820	251
1194.044921875	2	decision	foodImageDisplay	3	132	12	foodImage.20	FOODEEG_Images\0226.jpg	YN	Left	Yes	1.16725190030411	0	611352	252
1196.109375	1.16725190030411	decision	choicePhaseStart	3	132	12	foodImage.20	FOODEEG_Images\0226.jpg	YN	Left	Yes	1.16725190030411	0	612409	253
1197.267578125	0	decision	response	3	132	12	foodImage.20	FOODEEG_Images\0226.jpg	YN	Left	Yes	1.16725190030411	0	613002	234
1198.310546875	1	health	trialStart	3	133	13	foodImage.18	FOODEEG_Images\0202.jpg	YN	Left	Yes	1.1195837999694	0	613536	251
1199.365234375	2	health	foodImageDisplay	3	133	13	foodImage.18	FOODEEG_Images\0202.jpg	YN	Left	Yes	1.1195837999694	0	614076	252
1201.427734375	1.1195837999694	health	choicePhaseStart	3	133	13	foodImage.18	FOODEEG_Images\0202.jpg	YN	Left	Yes	1.1195837999694	0	615132	253
1202.5390625	0	health	response	3	133	13	foodImage.18	FOODEEG_Images\0202.jpg	YN	Left	Yes	1.1195837999694	0	615701	234
1203.583984375	1	decision	trialStart	3	134	14	foodImage.17	FOODEEG_Images\0199.jpg	NY	Left	No	0.827682399656624	0	616236	251
1204.6328125	2	decision	foodImageDisplay	3	134	14	foodImage.17	FOODEEG_Images\0199.jpg	NY	Left	No	0.827682399656624	0	616773	252
1206.6953125	0.827682399656624	decision	choicePhaseStart	3	134	14	foodImage.17	FOODEEG_Images\0199.jpg	NY	Left	No	0.827682399656624	0	617829	253
1207.513671875	0	decision	response	3	134	14	foodImage.17	FOODEEG_Images\0199.jpg	NY	Left	No	0.827682399656624	0	618248	234
1208.556640625	1	health	trialStart	3	135	15	foodImage.70	FOODEEG_Images\0705.jpg	NY	Left	No	3.32889229990542	0	618782	251
1209.634765625	2	health	foodImageDisplay	3	135	15	foodImage.70	FOODEEG_Images\0705.jpg	NY	Left	No	3.32889229990542	0	619334	252
1211.697265625	3.32889229990542	health	choicePhaseStart	3	135	15	foodImage.70	FOODEEG_Images\0705.jpg	NY	Left	No	3.32889229990542	0	620390	253
1215.017578125	0	health	response	3	135	15	foodImage.70	FOODEEG_Images\0705.jpg	NY	Left	No	3.32889229990542	0	622090	234
1216.06640625	1	health	trialStart	3	136	16	foodImage.38	FOODEEG_Images\0365.jpg	YN	Left	Yes	0.810031900182366	0	622627	251
1217.10546875	2	health	foodImageDisplay	3	136	16	foodImage.38	FOODEEG_Images\0365.jpg	YN	Left	Yes	0.810031900182366	0	623159	252
1219.16796875	0.810031900182366	health	choicePhaseStart	3	136	16	foodImage.38	FOODEEG_Images\0365.jpg	YN	Left	Yes	0.810031900182366	0	624215	253
1219.96875	0	health	response	3	136	16	foodImage.38	FOODEEG_Images\0365.jpg	YN	Left	Yes	0.810031900182366	0	624625	234
1221.01171875	1	taste	trialStart	3	137	17	foodImage.107	FOODEEG_Images\0915.jpg	NY	Right	Yes	1.16134179988876	0	625159	251
1222.05078125	2	taste	foodImageDisplay	3	137	17	foodImage.107	FOODEEG_Images\0915.jpg	NY	Right	Yes	1.16134179988876	0	625691	252
1224.11328125	1.16134179988876	taste	choicePhaseStart	3	137	17	foodImage.107	FOODEEG_Images\0915.jpg	NY	Right	Yes	1.16134179988876	0	626747	253
1225.265625	0	taste	response	3	137	17	foodImage.107	FOODEEG_Images\0915.jpg	NY	Right	Yes	1.16134179988876	0	627337	235
1226.30859375	1	decision	trialStart	3	138	18	foodImage.1	FOODEEG_Images\0004.jpg	YN	Right	No	1.63599860016257	0	627871	251
1227.3515625	2	decision	foodImageDisplay	3	138	18	foodImage.1	FOODEEG_Images\0004.jpg	YN	Right	No	1.63599860016257	0	628405	252
1229.4140625	1.63599860016257	decision	choicePhaseStart	3	138	18	foodImage.1	FOODEEG_Images\0004.jpg	YN	Right	No	1.63599860016257	0	629461	253
1231.041015625	0	decision	response	3	138	18	foodImage.1	FOODEEG_Images\0004.jpg	YN	Right	No	1.63599860016257	0	630294	235
1232.083984375	1	health	trialStart	3	139	19	foodImage.55	FOODEEG_Images\0567.jpg	NY	Right	Yes	1.08385610021651	0	630828	251
1233.14453125	2	health	foodImageDisplay	3	139	19	foodImage.55	FOODEEG_Images\0567.jpg	NY	Right	Yes	1.08385610021651	0	631371	252
1235.20703125	1.08385610021651	health	choicePhaseStart	3	139	19	foodImage.55	FOODEEG_Images\0567.jpg	NY	Right	Yes	1.08385610021651	0	632427	253
1236.28125	0	health	response	3	139	19	foodImage.55	FOODEEG_Images\0567.jpg	NY	Right	Yes	1.08385610021651	0	632977	235
1237.32421875	1	decision	trialStart	3	140	20	foodImage.40	FOODEEG_Images\0373.jpg	YN	Left	Yes	1.28465319983661	0	633511	251
1238.3671875	2	decision	foodImageDisplay	3	140	20	foodImage.40	FOODEEG_Images\0373.jpg	YN	Left	Yes	1.28465319983661	0	634045	252
1240.4296875	1.28465319983661	decision	choicePhaseStart	3	140	20	foodImage.40	FOODEEG_Images\0373.jpg	YN	Left	Yes	1.28465319983661	0	635101	253
1241.705078125	0	decision	response	3	140	20	foodImage.40	FOODEEG_Images\0373.jpg	YN	Left	Yes	1.28465319983661	0	635754	234
1242.744140625	1	taste	trialStart	3	141	21	foodImage.71	FOODEEG_Images\0713.jpg	YN	Right	No	1.20143310027197	0	636286	251
1243.78515625	2	taste	foodImageDisplay	3	141	21	foodImage.71	FOODEEG_Images\0713.jpg	YN	Right	No	1.20143310027197	0	636819	252
1245.84765625	1.20143310027197	taste	choicePhaseStart	3	141	21	foodImage.71	FOODEEG_Images\0713.jpg	YN	Right	No	1.20143310027197	0	637875	253
1247.041015625	0	taste	response	3	141	21	foodImage.71	FOODEEG_Images\0713.jpg	YN	Right	No	1.20143310027197	0	638486	235
1248.083984375	1	decision	trialStart	3	142	22	foodImage.3	FOODEEG_Images\0046.jpg	YN	Left	Yes	1.19789620023221	0	639020	251
1249.1328125	2	decision	foodImageDisplay	3	142	22	foodImage.3	FOODEEG_Images\0046.jpg	YN	Left	Yes	1.19789620023221	0	639557	252
1251.1953125	1.19789620023221	decision	choicePhaseStart	3	142	22	foodImage.3	FOODEEG_Images\0046.jpg	YN	Left	Yes	1.19789620023221	0	640613	253
1252.384765625	0	decision	response	3	142	22	foodImage.3	FOODEEG_Images\0046.jpg	YN	Left	Yes	1.19789620023221	0	641222	234
1253.427734375	1	health	trialStart	3	143	23	foodImage.80	FOODEEG_Images\0796.jpg	NY	Right	Yes	0.995339300017804	0	641756	251
1254.486328125	2	health	foodImageDisplay	3	143	23	foodImage.80	FOODEEG_Images\0796.jpg	NY	Right	Yes	0.995339300017804	0	642298	252
1256.548828125	0.995339300017804	health	choicePhaseStart	3	143	23	foodImage.80	FOODEEG_Images\0796.jpg	NY	Right	Yes	0.995339300017804	0	643354	253
1257.537109375	0	health	response	3	143	23	foodImage.80	FOODEEG_Images\0796.jpg	NY	Right	Yes	0.995339300017804	0	643860	235
1258.580078125	1	taste	trialStart	3	144	24	foodImage.99	FOODEEG_Images\0907.jpg	YN	Right	No	1.168357799761	0	644394	251
1259.6171875	2	taste	foodImageDisplay	3	144	24	foodImage.99	FOODEEG_Images\0907.jpg	YN	Right	No	1.168357799761	0	644925	252
1261.6796875	1.168357799761	taste	choicePhaseStart	3	144	24	foodImage.99	FOODEEG_Images\0907.jpg	YN	Right	No	1.168357799761	0	645981	253
1262.83984375	0	taste	response	3	144	24	foodImage.99	FOODEEG_Images\0907.jpg	YN	Right	No	1.168357799761	0	646575	235
1263.8828125	1	decision	trialStart	3	145	25	foodImage.84	FOODEEG_Images\0830.jpg	YN	Left	Yes	1.06127780023962	0	647109	251
1264.94140625	2	decision	foodImageDisplay	3	145	25	foodImage.84	FOODEEG_Images\0830.jpg	YN	Left	Yes	1.06127780023962	0	647651	252
1267.00390625	1.06127780023962	decision	choicePhaseStart	3	145	25	foodImage.84	FOODEEG_Images\0830.jpg	YN	Left	Yes	1.06127780023962	0	648707	253
1268.0546875	0	decision	response	3	145	25	foodImage.84	FOODEEG_Images\0830.jpg	YN	Left	Yes	1.06127780023962	0	649245	234
1269.09765625	1	taste	trialStart	3	146	26	foodImage.57	FOODEEG_Images\0587.jpg	YN	Left	Yes	1.73313299985602	0	649779	251
1270.140625	2	taste	foodImageDisplay	3	146	26	foodImage.57	FOODEEG_Images\0587.jpg	YN	Left	Yes	1.73313299985602	0	650313	252
1272.203125	1.73313299985602	taste	choicePhaseStart	3	146	26	foodImage.57	FOODEEG_Images\0587.jpg	YN	Left	Yes	1.73313299985602	0	651369	253
1273.927734375	0	taste	response	3	146	26	foodImage.57	FOODEEG_Images\0587.jpg	YN	Left	Yes	1.73313299985602	0	652252	234
1274.974609375	1	decision	trialStart	3	147	27	foodImage.97	FOODEEG_Images\0905.jpg	YN	Right	No	0.886309299618006	0	652788	251
1276.01171875	2	decision	foodImageDisplay	3	147	27	foodImage.97	FOODEEG_Images\0905.jpg	YN	Right	No	0.886309299618006	0	653319	252
1278.07421875	0.886309299618006	decision	choicePhaseStart	3	147	27	foodImage.97	FOODEEG_Images\0905.jpg	YN	Right	No	0.886309299618006	0	654375	253
1278.951171875	0	decision	response	3	147	27	foodImage.97	FOODEEG_Images\0905.jpg	YN	Right	No	0.886309299618006	0	654824	235
1280.00390625	1	health	trialStart	3	148	28	foodImage.113	FOODEEG_Images\0921.jpg	YN	Left	Yes	2.66358849965036	0	655363	251
1281.041015625	2	health	foodImageDisplay	3	148	28	foodImage.113	FOODEEG_Images\0921.jpg	YN	Left	Yes	2.66358849965036	0	655894	252
1283.103515625	2.66358849965036	health	choicePhaseStart	3	148	28	foodImage.113	FOODEEG_Images\0921.jpg	YN	Left	Yes	2.66358849965036	0	656950	253
1285.759765625	0	health	response	3	148	28	foodImage.113	FOODEEG_Images\0921.jpg	YN	Left	Yes	2.66358849965036	0	658310	234
1286.80078125	1	decision	trialStart	3	149	29	foodImage.52	FOODEEG_Images\0539.jpg	YN	Left	Yes	1.09939670003951	0	658843	251
1287.861328125	2	decision	foodImageDisplay	3	149	29	foodImage.52	FOODEEG_Images\0539.jpg	YN	Left	Yes	1.09939670003951	0	659386	252
1289.923828125	1.09939670003951	decision	choicePhaseStart	3	149	29	foodImage.52	FOODEEG_Images\0539.jpg	YN	Left	Yes	1.09939670003951	0	660442	253
1291.015625	0	decision	response	3	149	29	foodImage.52	FOODEEG_Images\0539.jpg	YN	Left	Yes	1.09939670003951	0	661001	234
1292.056640625	1	decision	trialStart	3	150	30	foodImage.13	FOODEEG_Images\0183.jpg	YN	Left	Yes	0.710904899984598	0	661534	251
1293.09765625	2	decision	foodImageDisplay	3	150	30	foodImage.13	FOODEEG_Images\0183.jpg	YN	Left	Yes	0.710904899984598	0	662067	252
1295.16015625	0.710904899984598	decision	choicePhaseStart	3	150	30	foodImage.13	FOODEEG_Images\0183.jpg	YN	Left	Yes	0.710904899984598	0	663123	253
1295.86328125	0	decision	response	3	150	30	foodImage.13	FOODEEG_Images\0183.jpg	YN	Left	Yes	0.710904899984598	0	663483	234
1296.904296875	1	health	trialStart	3	151	31	foodImage.15	FOODEEG_Images\0189.jpg	NY	Left	No	1.18613380007446	0	664016	251
1297.958984375	2	health	foodImageDisplay	3	151	31	foodImage.15	FOODEEG_Images\0189.jpg	NY	Left	No	1.18613380007446	0	664556	252
1300.021484375	1.18613380007446	health	choicePhaseStart	3	151	31	foodImage.15	FOODEEG_Images\0189.jpg	NY	Left	No	1.18613380007446	0	665612	253
1301.19921875	0	health	response	3	151	31	foodImage.15	FOODEEG_Images\0189.jpg	NY	Left	No	1.18613380007446	0	666215	234
1302.2421875	1	health	trialStart	3	152	32	foodImage.31	FOODEEG_Images\0294.jpg	NY	Left	No	1.03665030002594	0	666749	251
1303.283203125	2	health	foodImageDisplay	3	152	32	foodImage.31	FOODEEG_Images\0294.jpg	NY	Left	No	1.03665030002594	0	667282	252
1305.345703125	1.03665030002594	health	choicePhaseStart	3	152	32	foodImage.31	FOODEEG_Images\0294.jpg	NY	Left	No	1.03665030002594	0	668338	253
1306.375	0	health	response	3	152	32	foodImage.31	FOODEEG_Images\0294.jpg	NY	Left	No	1.03665030002594	0	668865	234
1307.416015625	1	health	trialStart	3	153	33	foodImage.59	FOODEEG_Images\0607.jpg	YN	Right	No	1.16383170010522	0	669398	251
1308.4609375	2	health	foodImageDisplay	3	153	33	foodImage.59	FOODEEG_Images\0607.jpg	YN	Right	No	1.16383170010522	0	669933	252
1310.5234375	1.16383170010522	health	choicePhaseStart	3	153	33	foodImage.59	FOODEEG_Images\0607.jpg	YN	Right	No	1.16383170010522	0	670989	253
1311.677734375	0	health	response	3	153	33	foodImage.59	FOODEEG_Images\0607.jpg	YN	Right	No	1.16383170010522	0	671580	235
1312.724609375	1	decision	trialStart	3	154	34	foodImage.65	FOODEEG_Images\0658.jpg	YN	Right	No	1.71417650021613	0	672116	251
1313.765625	2	decision	foodImageDisplay	3	154	34	foodImage.65	FOODEEG_Images\0658.jpg	YN	Right	No	1.71417650021613	0	672649	252
1315.828125	1.71417650021613	decision	choicePhaseStart	3	154	34	foodImage.65	FOODEEG_Images\0658.jpg	YN	Right	No	1.71417650021613	0	673705	253
1317.533203125	0	decision	response	3	154	34	foodImage.65	FOODEEG_Images\0658.jpg	YN	Right	No	1.71417650021613	0	674578	235
1318.578125	1	taste	trialStart	3	155	35	foodImage.85	FOODEEG_Images\0841.jpg	YN	Left	Yes	3.52273759990931	0	675113	251
1319.63671875	2	taste	foodImageDisplay	3	155	35	foodImage.85	FOODEEG_Images\0841.jpg	YN	Left	Yes	3.52273759990931	0	675655	252
1321.69921875	3.52273759990931	taste	choicePhaseStart	3	155	35	foodImage.85	FOODEEG_Images\0841.jpg	YN	Left	Yes	3.52273759990931	0	676711	253
1325.212890625	0	taste	response	3	155	35	foodImage.85	FOODEEG_Images\0841.jpg	YN	Left	Yes	3.52273759990931	0	678510	234
1326.26171875	1	health	trialStart	3	156	36	foodImage.95	FOODEEG_Images\0903.jpg	YN	Right	No	3.31579220015556	0	679047	251
1327.298828125	2	health	foodImageDisplay	3	156	36	foodImage.95	FOODEEG_Images\0903.jpg	YN	Right	No	3.31579220015556	0	679578	252
1329.361328125	3.31579220015556	health	choicePhaseStart	3	156	36	foodImage.95	FOODEEG_Images\0903.jpg	YN	Right	No	3.31579220015556	0	680634	253
1332.669921875	0	health	response	3	156	36	foodImage.95	FOODEEG_Images\0903.jpg	YN	Right	No	3.31579220015556	0	682328	235
1333.7109375	1	decision	trialStart	3	157	37	foodImage.32	FOODEEG_Images\0319.jpg	NY	Right	Yes	0.853110499680042	0	682861	251
1334.75390625	2	decision	foodImageDisplay	3	157	37	foodImage.32	FOODEEG_Images\0319.jpg	NY	Right	Yes	0.853110499680042	0	683395	252
1336.81640625	0.853110499680042	decision	choicePhaseStart	3	157	37	foodImage.32	FOODEEG_Images\0319.jpg	NY	Right	Yes	0.853110499680042	0	684451	253
1337.66015625	0	decision	response	3	157	37	foodImage.32	FOODEEG_Images\0319.jpg	NY	Right	Yes	0.853110499680042	0	684883	235
1338.705078125	1	health	trialStart	3	158	38	foodImage.2	FOODEEG_Images\0028.jpg	YN	Right	No	0.916136600077152	0	685418	251
1339.748046875	2	health	foodImageDisplay	3	158	38	foodImage.2	FOODEEG_Images\0028.jpg	YN	Right	No	0.916136600077152	0	685952	252
1341.80859375	0.916136600077152	health	choicePhaseStart	3	158	38	foodImage.2	FOODEEG_Images\0028.jpg	YN	Right	No	0.916136600077152	0	687007	253
1342.716796875	0	health	response	3	158	38	foodImage.2	FOODEEG_Images\0028.jpg	YN	Right	No	0.916136600077152	0	687472	235
1343.759765625	1	decision	trialStart	3	159	39	foodImage.58	FOODEEG_Images\0605.jpg	YN	Right	No	1.30346969980747	0	688006	251
1344.814453125	2	decision	foodImageDisplay	3	159	39	foodImage.58	FOODEEG_Images\0605.jpg	YN	Right	No	1.30346969980747	0	688546	252
1346.876953125	1.30346969980747	decision	choicePhaseStart	3	159	39	foodImage.58	FOODEEG_Images\0605.jpg	YN	Right	No	1.30346969980747	0	689602	253
1348.171875	0	decision	response	3	159	39	foodImage.58	FOODEEG_Images\0605.jpg	YN	Right	No	1.30346969980747	0	690265	235
1349.216796875	1	decision	trialStart	3	160	40	foodImage.72	FOODEEG_Images\0714.jpg	YN	Left	Yes	3.11389419995248	0	690800	251
1350.26171875	2	decision	foodImageDisplay	3	160	40	foodImage.72	FOODEEG_Images\0714.jpg	YN	Left	Yes	3.11389419995248	0	691335	252
1352.32421875	3.11389419995248	decision	choicePhaseStart	3	160	40	foodImage.72	FOODEEG_Images\0714.jpg	YN	Left	Yes	3.11389419995248	0	692391	253
1355.427734375	0	decision	response	3	160	40	foodImage.72	FOODEEG_Images\0714.jpg	YN	Left	Yes	3.11389419995248	0	693980	234
1356.46875	1	decision	trialStart	3	161	41	foodImage.6	FOODEEG_Images\0113.jpg	YN	Left	Yes	1.94020760012791	0	694513	251
1357.51171875	2	decision	foodImageDisplay	3	161	41	foodImage.6	FOODEEG_Images\0113.jpg	YN	Left	Yes	1.94020760012791	0	695047	252
1359.576171875	1.94020760012791	decision	choicePhaseStart	3	161	41	foodImage.6	FOODEEG_Images\0113.jpg	YN	Left	Yes	1.94020760012791	0	696104	253
1361.5078125	0	decision	response	3	161	41	foodImage.6	FOODEEG_Images\0113.jpg	YN	Left	Yes	1.94020760012791	0	697093	234
1362.552734375	1	health	trialStart	3	162	42	foodImage.63	FOODEEG_Images\0645.jpg	YN	Left	Yes	2.08969380008057	0	697628	251
1363.59375	2	health	foodImageDisplay	3	162	42	foodImage.63	FOODEEG_Images\0645.jpg	YN	Left	Yes	2.08969380008057	0	698161	252
1365.658203125	2.08969380008057	health	choicePhaseStart	3	162	42	foodImage.63	FOODEEG_Images\0645.jpg	YN	Left	Yes	2.08969380008057	0	699218	253
1367.740234375	0	health	response	3	162	42	foodImage.63	FOODEEG_Images\0645.jpg	YN	Left	Yes	2.08969380008057	0	700284	234
1368.783203125	1	taste	trialStart	3	163	43	foodImage.66	FOODEEG_Images\0676.jpg	NY	Right	Yes	1.86279030004516	0	700818	251
1369.82421875	2	taste	foodImageDisplay	3	163	43	foodImage.66	FOODEEG_Images\0676.jpg	NY	Right	Yes	1.86279030004516	0	701351	252
1371.88671875	1.86279030004516	taste	choicePhaseStart	3	163	43	foodImage.66	FOODEEG_Images\0676.jpg	NY	Right	Yes	1.86279030004516	0	702407	253
1373.740234375	0	taste	response	3	163	43	foodImage.66	FOODEEG_Images\0676.jpg	NY	Right	Yes	1.86279030004516	0	703356	235
1374.783203125	1	health	trialStart	3	164	44	foodImage.46	FOODEEG_Images\0479.jpg	NY	Right	Yes	0.928603500127792	0	703890	251
1375.84375	2	health	foodImageDisplay	3	164	44	foodImage.46	FOODEEG_Images\0479.jpg	NY	Right	Yes	0.928603500127792	0	704433	252
1377.90625	0.928603500127792	health	choicePhaseStart	3	164	44	foodImage.46	FOODEEG_Images\0479.jpg	NY	Right	Yes	0.928603500127792	0	705489	253
1378.828125	0	health	response	3	164	44	foodImage.46	FOODEEG_Images\0479.jpg	NY	Right	Yes	0.928603500127792	0	705961	235
1379.869140625	1	taste	trialStart	3	165	45	foodImage.40	FOODEEG_Images\0373.jpg	YN	Left	Yes	1.06848619971424	0	706494	251
1380.9140625	2	taste	foodImageDisplay	3	165	45	foodImage.40	FOODEEG_Images\0373.jpg	YN	Left	Yes	1.06848619971424	0	707029	252
1382.9765625	1.06848619971424	taste	choicePhaseStart	3	165	45	foodImage.40	FOODEEG_Images\0373.jpg	YN	Left	Yes	1.06848619971424	0	708085	253
1384.03515625	0	taste	response	3	165	45	foodImage.40	FOODEEG_Images\0373.jpg	YN	Left	Yes	1.06848619971424	0	708627	234
1385.078125	1	taste	trialStart	3	166	46	foodImage.11	FOODEEG_Images\0180.jpg	NY	Left	No	1.12160640023649	0	709161	251
1386.119140625	2	taste	foodImageDisplay	3	166	46	foodImage.11	FOODEEG_Images\0180.jpg	NY	Left	No	1.12160640023649	0	709694	252
1388.185546875	1.12160640023649	taste	choicePhaseStart	3	166	46	foodImage.11	FOODEEG_Images\0180.jpg	NY	Left	No	1.12160640023649	0	710752	253
1389.298828125	0	taste	response	3	166	46	foodImage.11	FOODEEG_Images\0180.jpg	NY	Left	No	1.12160640023649	0	711322	234
1390.34375	1	health	trialStart	3	167	47	foodImage.76	FOODEEG_Images\0766.jpg	NY	Right	Yes	0.965053199790418	0	711857	251
1391.384765625	2	health	foodImageDisplay	3	167	47	foodImage.76	FOODEEG_Images\0766.jpg	NY	Right	Yes	0.965053199790418	0	712390	252
1393.447265625	0.965053199790418	health	choicePhaseStart	3	167	47	foodImage.76	FOODEEG_Images\0766.jpg	NY	Right	Yes	0.965053199790418	0	713446	253
1394.40234375	0	health	response	3	167	47	foodImage.76	FOODEEG_Images\0766.jpg	NY	Right	Yes	0.965053199790418	0	713935	235
1395.443359375	1	decision	trialStart	3	168	48	foodImage.16	FOODEEG_Images\0196.jpg	YN	Left	Yes	0.999685099814087	0	714468	251
1396.501953125	2	decision	foodImageDisplay	3	168	48	foodImage.16	FOODEEG_Images\0196.jpg	YN	Left	Yes	0.999685099814087	0	715010	252
1398.564453125	0.999685099814087	decision	choicePhaseStart	3	168	48	foodImage.16	FOODEEG_Images\0196.jpg	YN	Left	Yes	0.999685099814087	0	716066	253
1399.5546875	0	decision	response	3	168	48	foodImage.16	FOODEEG_Images\0196.jpg	YN	Left	Yes	0.999685099814087	0	716573	234
1400.6015625	1	health	trialStart	3	169	49	foodImage.53	FOODEEG_Images\0547.jpg	NY	Left	No	1.00575740030035	0	717109	251
1401.671875	2	health	foodImageDisplay	3	169	49	foodImage.53	FOODEEG_Images\0547.jpg	NY	Left	No	1.00575740030035	0	717657	252
1403.734375	1.00575740030035	health	choicePhaseStart	3	169	49	foodImage.53	FOODEEG_Images\0547.jpg	NY	Left	No	1.00575740030035	0	718713	253
1404.73046875	0	health	response	3	169	49	foodImage.53	FOODEEG_Images\0547.jpg	NY	Left	No	1.00575740030035	0	719223	234
1405.779296875	1	decision	trialStart	3	170	50	foodImage.19	FOODEEG_Images\0225.jpg	YN	Left	Yes	1.66123960027471	0	719760	251
1406.822265625	2	decision	foodImageDisplay	3	170	50	foodImage.19	FOODEEG_Images\0225.jpg	YN	Left	Yes	1.66123960027471	0	720294	252
1408.884765625	1.66123960027471	decision	choicePhaseStart	3	170	50	foodImage.19	FOODEEG_Images\0225.jpg	YN	Left	Yes	1.66123960027471	0	721350	253
1410.537109375	0	decision	response	3	170	50	foodImage.19	FOODEEG_Images\0225.jpg	YN	Left	Yes	1.66123960027471	0	722196	234
1411.580078125	1	health	trialStart	3	171	51	foodImage.28	FOODEEG_Images\0273.jpg	YN	Left	Yes	0.934950300026685	0	722730	251
1412.62109375	2	health	foodImageDisplay	3	171	51	foodImage.28	FOODEEG_Images\0273.jpg	YN	Left	Yes	0.934950300026685	0	723263	252
1414.68359375	0.934950300026685	health	choicePhaseStart	3	171	51	foodImage.28	FOODEEG_Images\0273.jpg	YN	Left	Yes	0.934950300026685	0	724319	253
1415.609375	0	health	response	3	171	51	foodImage.28	FOODEEG_Images\0273.jpg	YN	Left	Yes	0.934950300026685	0	724793	234
1416.65234375	1	taste	trialStart	3	172	52	foodImage.118	FOODEEG_Images\0926.jpg	NY	Left	No	0.986083900090307	0	725327	251
1417.689453125	2	taste	foodImageDisplay	3	172	52	foodImage.118	FOODEEG_Images\0926.jpg	NY	Left	No	0.986083900090307	0	725858	252
1419.751953125	0.986083900090307	taste	choicePhaseStart	3	172	52	foodImage.118	FOODEEG_Images\0926.jpg	NY	Left	No	0.986083900090307	0	726914	253
1420.73046875	0	taste	response	3	172	52	foodImage.118	FOODEEG_Images\0926.jpg	NY	Left	No	0.986083900090307	0	727415	234
1421.77734375	1	health	trialStart	3	173	53	foodImage.64	FOODEEG_Images\0647.jpg	NY	Right	Yes	0.862326799891889	0	727951	251
1422.837890625	2	health	foodImageDisplay	3	173	53	foodImage.64	FOODEEG_Images\0647.jpg	NY	Right	Yes	0.862326799891889	0	728494	252
1424.900390625	0.862326799891889	health	choicePhaseStart	3	173	53	foodImage.64	FOODEEG_Images\0647.jpg	NY	Right	Yes	0.862326799891889	0	729550	253
1425.75390625	0	health	response	3	173	53	foodImage.64	FOODEEG_Images\0647.jpg	NY	Right	Yes	0.862326799891889	0	729987	235
1426.80078125	1	taste	trialStart	3	174	54	foodImage.84	FOODEEG_Images\0830.jpg	NY	Right	Yes	0.803192200139165	0	730523	251
1427.857421875	2	taste	foodImageDisplay	3	174	54	foodImage.84	FOODEEG_Images\0830.jpg	NY	Right	Yes	0.803192200139165	0	731064	252
1429.919921875	0.803192200139165	taste	choicePhaseStart	3	174	54	foodImage.84	FOODEEG_Images\0830.jpg	NY	Right	Yes	0.803192200139165	0	732120	253
1430.712890625	0	taste	response	3	174	54	foodImage.84	FOODEEG_Images\0830.jpg	NY	Right	Yes	0.803192200139165	0	732526	235
1431.7578125	1	decision	trialStart	3	175	55	foodImage.80	FOODEEG_Images\0796.jpg	YN	Left	Yes	3.52959679998457	0	733061	251
1432.833984375	2	decision	foodImageDisplay	3	175	55	foodImage.80	FOODEEG_Images\0796.jpg	YN	Left	Yes	3.52959679998457	0	733612	252
1434.896484375	3.52959679998457	decision	choicePhaseStart	3	175	55	foodImage.80	FOODEEG_Images\0796.jpg	YN	Left	Yes	3.52959679998457	0	734668	253
1438.41796875	0	decision	response	3	175	55	foodImage.80	FOODEEG_Images\0796.jpg	YN	Left	Yes	3.52959679998457	0	736471	234
1439.4609375	1	health	trialStart	3	176	56	foodImage.85	FOODEEG_Images\0841.jpg	YN	Left	Yes	2.51904369983822	0	737005	251
1440.515625	2	health	foodImageDisplay	3	176	56	foodImage.85	FOODEEG_Images\0841.jpg	YN	Left	Yes	2.51904369983822	0	737545	252
1442.578125	2.51904369983822	health	choicePhaseStart	3	176	56	foodImage.85	FOODEEG_Images\0841.jpg	YN	Left	Yes	2.51904369983822	0	738601	253
1445.08984375	0	health	response	3	176	56	foodImage.85	FOODEEG_Images\0841.jpg	YN	Left	Yes	2.51904369983822	0	739887	234
1446.1328125	1	taste	trialStart	3	177	57	foodImage.80	FOODEEG_Images\0796.jpg	NY	Right	Yes	0.846893400419503	0	740421	251
1447.189453125	2	taste	foodImageDisplay	3	177	57	foodImage.80	FOODEEG_Images\0796.jpg	NY	Right	Yes	0.846893400419503	0	740962	252
1449.251953125	0.846893400419503	taste	choicePhaseStart	3	177	57	foodImage.80	FOODEEG_Images\0796.jpg	NY	Right	Yes	0.846893400419503	0	742018	253
1450.087890625	0	taste	response	3	177	57	foodImage.80	FOODEEG_Images\0796.jpg	NY	Right	Yes	0.846893400419503	0	742446	235
1451.130859375	1	taste	trialStart	3	178	58	foodImage.82	FOODEEG_Images\0805.jpg	NY	Left	No	2.40843820013106	0	742980	251
1452.1875	2	taste	foodImageDisplay	3	178	58	foodImage.82	FOODEEG_Images\0805.jpg	NY	Left	No	2.40843820013106	0	743521	252
1454.25	2.40843820013106	taste	choicePhaseStart	3	178	58	foodImage.82	FOODEEG_Images\0805.jpg	NY	Left	No	2.40843820013106	0	744577	253
1456.6484375	0	taste	response	3	178	58	foodImage.82	FOODEEG_Images\0805.jpg	NY	Left	No	2.40843820013106	0	745805	234
1457.689453125	1	taste	trialStart	3	179	59	foodImage.15	FOODEEG_Images\0189.jpg	YN	Left	Yes	2.07148739974946	0	746338	251
1458.748046875	2	taste	foodImageDisplay	3	179	59	foodImage.15	FOODEEG_Images\0189.jpg	YN	Left	Yes	2.07148739974946	0	746880	252
1460.810546875	2.07148739974946	taste	choicePhaseStart	3	179	59	foodImage.15	FOODEEG_Images\0189.jpg	YN	Left	Yes	2.07148739974946	0	747936	253
1462.87109375	0	taste	response	3	179	59	foodImage.15	FOODEEG_Images\0189.jpg	YN	Left	Yes	2.07148739974946	0	748991	234
1463.919921875	1	health	trialStart	3	180	60	foodImage.86	FOODEEG_Images\0844.jpg	NY	Left	No	1.20351999998093	0	749528	251
1464.9765625	2	health	foodImageDisplay	3	180	60	foodImage.86	FOODEEG_Images\0844.jpg	NY	Left	No	1.20351999998093	0	750069	252
1467.0390625	1.20351999998093	health	choicePhaseStart	3	180	60	foodImage.86	FOODEEG_Images\0844.jpg	NY	Left	No	1.20351999998093	0	751125	253
1468.232421875	0	health	response	3	180	60	foodImage.86	FOODEEG_Images\0844.jpg	NY	Left	No	1.20351999998093	0	751736	234
1470.275390625	31.044921875	n/a	blockEnd	n/a	n/a	n/a	n/a	n/a	n/a	n/a	n/a	n/a	n/a	752782	254
1501.3203125	2	n/a	blockStart	4	n/a	n/a	n/a	n/a	n/a	n/a	n/a	n/a	n/a	768677	250
1503.3515625	1	decision	trialStart	4	181	1	foodImage.74	FOODEEG_Images\0752.jpg	YN	Right	No	0.842280200216919	0	769717	251
1504.3984375	2	decision	foodImageDisplay	4	181	1	foodImage.74	FOODEEG_Images\0752.jpg	YN	Right	No	0.842280200216919	0	770253	252
1506.4609375	0.842280200216919	decision	choicePhaseStart	4	181	1	foodImage.74	FOODEEG_Images\0752.jpg	YN	Right	No	0.842280200216919	0	771309	253
1507.294921875	0	decision	response	4	181	1	foodImage.74	FOODEEG_Images\0752.jpg	YN	Right	No	0.842280200216919	0	771736	235
1508.34375	1	decision	trialStart	4	182	2	foodImage.25	FOODEEG_Images\0261.jpg	YN	Left	Yes	0.906733700074255	0	772273	251
1509.396484375	2	decision	foodImageDisplay	4	182	2	foodImage.25	FOODEEG_Images\0261.jpg	YN	Left	Yes	0.906733700074255	0	772812	252
1511.458984375	0.906733700074255	decision	choicePhaseStart	4	182	2	foodImage.25	FOODEEG_Images\0261.jpg	YN	Left	Yes	0.906733700074255	0	773868	253
1512.357421875	0	decision	response	4	182	2	foodImage.25	FOODEEG_Images\0261.jpg	YN	Left	Yes	0.906733700074255	0	774328	234
1513.404296875	1	decision	trialStart	4	183	3	foodImage.14	FOODEEG_Images\0188.jpg	YN	Right	No	2.39618399972096	0	774864	251
1514.458984375	2	decision	foodImageDisplay	4	183	3	foodImage.14	FOODEEG_Images\0188.jpg	YN	Right	No	2.39618399972096	0	775404	252
1516.521484375	2.39618399972096	decision	choicePhaseStart	4	183	3	foodImage.14	FOODEEG_Images\0188.jpg	YN	Right	No	2.39618399972096	0	776460	253
1518.91015625	0	decision	response	4	183	3	foodImage.14	FOODEEG_Images\0188.jpg	YN	Right	No	2.39618399972096	0	777683	235
1519.953125	1	health	trialStart	4	184	4	foodImage.20	FOODEEG_Images\0226.jpg	NY	Right	Yes	1.74987079994753	0	778217	251
1520.994140625	2	health	foodImageDisplay	4	184	4	foodImage.20	FOODEEG_Images\0226.jpg	NY	Right	Yes	1.74987079994753	0	778750	252
1523.056640625	1.74987079994753	health	choicePhaseStart	4	184	4	foodImage.20	FOODEEG_Images\0226.jpg	NY	Right	Yes	1.74987079994753	0	779806	253
1524.798828125	0	health	response	4	184	4	foodImage.20	FOODEEG_Images\0226.jpg	NY	Right	Yes	1.74987079994753	0	780698	235
1525.83984375	1	decision	trialStart	4	185	5	foodImage.67	FOODEEG_Images\0679.jpg	NY	Left	No	0.699914900120348	0	781231	251
1526.900390625	2	decision	foodImageDisplay	4	185	5	foodImage.67	FOODEEG_Images\0679.jpg	NY	Left	No	0.699914900120348	0	781774	252
1528.962890625	0.699914900120348	decision	choicePhaseStart	4	185	5	foodImage.67	FOODEEG_Images\0679.jpg	NY	Left	No	0.699914900120348	0	782830	253
1529.654296875	0	decision	response	4	185	5	foodImage.67	FOODEEG_Images\0679.jpg	NY	Left	No	0.699914900120348	0	783184	234
1530.69921875	1	taste	trialStart	4	186	6	foodImage.33	FOODEEG_Images\0329.jpg	YN	Left	Yes	0.874925000127405	0	783719	251
1531.740234375	2	taste	foodImageDisplay	4	186	6	foodImage.33	FOODEEG_Images\0329.jpg	YN	Left	Yes	0.874925000127405	0	784252	252
1533.802734375	0.874925000127405	taste	choicePhaseStart	4	186	6	foodImage.33	FOODEEG_Images\0329.jpg	YN	Left	Yes	0.874925000127405	0	785308	253
1534.669921875	0	taste	response	4	186	6	foodImage.33	FOODEEG_Images\0329.jpg	YN	Left	Yes	0.874925000127405	0	785752	234
1535.712890625	1	decision	trialStart	4	187	7	foodImage.42	FOODEEG_Images\0438.jpg	NY	Left	No	4.26575070014223	0	786286	251
1536.798828125	2	decision	foodImageDisplay	4	187	7	foodImage.42	FOODEEG_Images\0438.jpg	NY	Left	No	4.26575070014223	0	786842	252
1538.861328125	4.26575070014223	decision	choicePhaseStart	4	187	7	foodImage.42	FOODEEG_Images\0438.jpg	NY	Left	No	4.26575070014223	0	787898	253
1543.1171875	0	decision	response	4	187	7	foodImage.42	FOODEEG_Images\0438.jpg	NY	Left	No	4.26575070014223	0	790077	234
1544.16015625	1	decision	trialStart	4	188	8	foodImage.82	FOODEEG_Images\0805.jpg	NY	Left	No	0.733715899754316	0	790611	251
1545.216796875	2	decision	foodImageDisplay	4	188	8	foodImage.82	FOODEEG_Images\0805.jpg	NY	Left	No	0.733715899754316	0	791152	252
1547.279296875	0.733715899754316	decision	choicePhaseStart	4	188	8	foodImage.82	FOODEEG_Images\0805.jpg	NY	Left	No	0.733715899754316	0	792208	253
1548.00390625	0	decision	response	4	188	8	foodImage.82	FOODEEG_Images\0805.jpg	NY	Left	No	0.733715899754316	0	792579	234
1549.05078125	1	health	trialStart	4	189	9	foodImage.34	FOODEEG_Images\0339.jpg	YN	Right	No	0.907637199852616	0	793115	251
1550.10546875	2	health	foodImageDisplay	4	189	9	foodImage.34	FOODEEG_Images\0339.jpg	YN	Right	No	0.907637199852616	0	793655	252
1552.16796875	0.907637199852616	health	choicePhaseStart	4	189	9	foodImage.34	FOODEEG_Images\0339.jpg	YN	Right	No	0.907637199852616	0	794711	253
1553.068359375	0	health	response	4	189	9	foodImage.34	FOODEEG_Images\0339.jpg	YN	Right	No	0.907637199852616	0	795172	235
1554.111328125	1	health	trialStart	4	190	10	foodImage.58	FOODEEG_Images\0605.jpg	NY	Right	Yes	1.12408050009981	0	795706	251
1555.171875	2	health	foodImageDisplay	4	190	10	foodImage.58	FOODEEG_Images\0605.jpg	NY	Right	Yes	1.12408050009981	0	796249	252
1557.234375	1.12408050009981	health	choicePhaseStart	4	190	10	foodImage.58	FOODEEG_Images\0605.jpg	NY	Right	Yes	1.12408050009981	0	797305	253
1558.34765625	0	health	response	4	190	10	foodImage.58	FOODEEG_Images\0605.jpg	NY	Right	Yes	1.12408050009981	0	797875	235
1559.390625	1	health	trialStart	4	191	11	foodImage.44	FOODEEG_Images\0459.jpg	NY	Right	Yes	2.10634730011225	0	798409	251
1560.435546875	2	health	foodImageDisplay	4	191	11	foodImage.44	FOODEEG_Images\0459.jpg	NY	Right	Yes	2.10634730011225	0	798944	252
1562.498046875	2.10634730011225	health	choicePhaseStart	4	191	11	foodImage.44	FOODEEG_Images\0459.jpg	NY	Right	Yes	2.10634730011225	0	800000	253
1564.595703125	0	health	response	4	191	11	foodImage.44	FOODEEG_Images\0459.jpg	NY	Right	Yes	2.10634730011225	0	801074	235
1565.64453125	1	decision	trialStart	4	192	12	foodImage.28	FOODEEG_Images\0273.jpg	NY	Right	Yes	1.60013870010152	0	801611	251
1566.685546875	2	decision	foodImageDisplay	4	192	12	foodImage.28	FOODEEG_Images\0273.jpg	NY	Right	Yes	1.60013870010152	0	802144	252
1568.748046875	1.60013870010152	decision	choicePhaseStart	4	192	12	foodImage.28	FOODEEG_Images\0273.jpg	NY	Right	Yes	1.60013870010152	0	803200	253
1570.33984375	0	decision	response	4	192	12	foodImage.28	FOODEEG_Images\0273.jpg	NY	Right	Yes	1.60013870010152	0	804015	235
1571.3828125	1	taste	trialStart	4	193	13	foodImage.115	FOODEEG_Images\0923.jpg	NY	Left	No	0.768076099921018	0	804549	251
1572.421875	2	taste	foodImageDisplay	4	193	13	foodImage.115	FOODEEG_Images\0923.jpg	NY	Left	No	0.768076099921018	0	805081	252
1574.484375	0.768076099921018	taste	choicePhaseStart	4	193	13	foodImage.115	FOODEEG_Images\0923.jpg	NY	Left	No	0.768076099921018	0	806137	253
