onset	duration	trial_type	event_type	block	trial_total	trial_in_block	food_image_code	food_image_path	button_position	resp_position	resp_choice	choice_rt	resp_too_slow	sample	trigger
263.90625	2	n/a	blockStart	1	n/a	n/a	n/a	n/a	n/a	n/a	n/a	n/a	n/a	135121	250
265.9453125	1	taste	trialStart	1	1	1	foodImage.117	FOODEEG_Images\0925.jpg	YN	Right	No	1.34952699999849	0	136165	251
266.990234375	2	taste	foodImageDisplay	1	1	1	foodImage.117	FOODEEG_Images\0925.jpg	YN	Right	No	1.34952699999849	0	136700	252
269.052734375	1.34952699999849	taste	choicePhaseStart	1	1	1	foodImage.117	FOODEEG_Images\0925.jpg	YN	Right	No	1.34952699999849	0	137756	253
270.39453125	0	taste	response	1	1	1	foodImage.117	FOODEEG_Images\0925.jpg	YN	Right	No	1.34952699999849	0	138443	235
271.484375	1	taste	trialStart	1	2	2	foodImage.57	FOODEEG_Images\0587.jpg	NY	Left	No	1.65804480000224	0	139001	251
272.525390625	2	taste	foodImageDisplay	1	2	2	foodImage.57	FOODEEG_Images\0587.jpg	NY	Left	No	1.65804480000224	0	139534	252
274.59765625	1.65804480000224	taste	choicePhaseStart	1	2	2	foodImage.57	FOODEEG_Images\0587.jpg	NY	Left	No	1.65804480000224	0	140595	253
276.25	0	taste	response	1	2	2	foodImage.57	FOODEEG_Images\0587.jpg	NY	Left	No	1.65804480000224	0	141441	234
277.310546875	1	decision	trialStart	1	3	3	foodImage.88	FOODEEG_Images\0878.jpg	YN	Left	Yes	1.53036260000954	0	141984	251
278.3671875	2	decision	foodImageDisplay	1	3	3	foodImage.88	FOODEEG_Images\0878.jpg	YN	Left	Yes	1.53036260000954	0	142525	252
280.431640625	1.53036260000954	decision	choicePhaseStart	1	3	3	foodImage.88	FOODEEG_Images\0878.jpg	YN	Left	Yes	1.53036260000954	0	143582	253
281.955078125	0	decision	response	1	3	3	foodImage.88	FOODEEG_Images\0878.jpg	YN	Left	Yes	1.53036260000954	0	144362	234
283	1	health	trialStart	1	4	4	foodImage.109	FOODEEG_Images\0917.jpg	YN	Right	No	3.7954991000006	0	144897	251
284.0390625	2	health	foodImageDisplay	1	4	4	foodImage.109	FOODEEG_Images\0917.jpg	YN	Right	No	3.7954991000006	0	145429	252
286.103515625	3.7954991000006	health	choicePhaseStart	1	4	4	foodImage.109	FOODEEG_Images\0917.jpg	YN	Right	No	3.7954991000006	0	146486	253
289.890625	0	health	response	1	4	4	foodImage.109	FOODEEG_Images\0917.jpg	YN	Right	No	3.7954991000006	0	148425	235
290.931640625	1	health	trialStart	1	5	5	foodImage.116	FOODEEG_Images\0924.jpg	YN	Right	No	1.02113829999871	0	148958	251
291.97265625	2	health	foodImageDisplay	1	5	5	foodImage.116	FOODEEG_Images\0924.jpg	YN	Right	No	1.02113829999871	0	149491	252
294.037109375	1.02113829999871	health	choicePhaseStart	1	5	5	foodImage.116	FOODEEG_Images\0924.jpg	YN	Right	No	1.02113829999871	0	150548	253
295.05078125	0	health	response	1	5	5	foodImage.116	FOODEEG_Images\0924.jpg	YN	Right	No	1.02113829999871	0	151067	235
296.103515625	1	taste	trialStart	1	6	6	foodImage.27	FOODEEG_Images\0263.jpg	YN	Right	No	1.3435274999938	0	151606	251
297.14453125	2	taste	foodImageDisplay	1	6	6	foodImage.27	FOODEEG_Images\0263.jpg	YN	Right	No	1.3435274999938	0	152139	252
299.208984375	1.3435274999938	taste	choicePhaseStart	1	6	6	foodImage.27	FOODEEG_Images\0263.jpg	YN	Right	No	1.3435274999938	0	153196	253
300.546875	0	taste	response	1	6	6	foodImage.27	FOODEEG_Images\0263.jpg	YN	Right	No	1.3435274999938	0	153881	235
301.58984375	1	decision	trialStart	1	7	7	foodImage.25	FOODEEG_Images\0261.jpg	YN	Left	Yes	0.986095400003251	0	154415	251
302.6328125	2	decision	foodImageDisplay	1	7	7	foodImage.25	FOODEEG_Images\0261.jpg	YN	Left	Yes	0.986095400003251	0	154949	252
304.6953125	0.986095400003251	decision	choicePhaseStart	1	7	7	foodImage.25	FOODEEG_Images\0261.jpg	YN	Left	Yes	0.986095400003251	0	156005	253
305.673828125	0	decision	response	1	7	7	foodImage.25	FOODEEG_Images\0261.jpg	YN	Left	Yes	0.986095400003251	0	156506	234
306.71484375	1	decision	trialStart	1	8	8	foodImage.95	FOODEEG_Images\0903.jpg	NY	Left	No	1.36623400000099	0	157039	251
307.751953125	2	decision	foodImageDisplay	1	8	8	foodImage.95	FOODEEG_Images\0903.jpg	NY	Left	No	1.36623400000099	0	157570	252
309.81640625	1.36623400000099	decision	choicePhaseStart	1	8	8	foodImage.95	FOODEEG_Images\0903.jpg	NY	Left	No	1.36623400000099	0	158627	253
311.177734375	0	decision	response	1	8	8	foodImage.95	FOODEEG_Images\0903.jpg	NY	Left	No	1.36623400000099	0	159324	234
312.22265625	1	decision	trialStart	1	9	9	foodImage.60	FOODEEG_Images\0614.jpg	YN	Left	Yes	0.993326100011473	0	159859	251
313.279296875	2	decision	foodImageDisplay	1	9	9	foodImage.60	FOODEEG_Images\0614.jpg	YN	Left	Yes	0.993326100011473	0	160400	252
315.345703125	0.993326100011473	decision	choicePhaseStart	1	9	9	foodImage.60	FOODEEG_Images\0614.jpg	YN	Left	Yes	0.993326100011473	0	161458	253
316.330078125	0	decision	response	1	9	9	foodImage.60	FOODEEG_Images\0614.jpg	YN	Left	Yes	0.993326100011473	0	161962	234
317.376953125	1	taste	trialStart	1	10	10	foodImage.19	FOODEEG_Images\0225.jpg	NY	Right	Yes	2.9509917999967	0	162498	251
318.4296875	2	taste	foodImageDisplay	1	10	10	foodImage.19	FOODEEG_Images\0225.jpg	NY	Right	Yes	2.9509917999967	0	163037	252
320.4921875	2.9509917999967	taste	choicePhaseStart	1	10	10	foodImage.19	FOODEEG_Images\0225.jpg	NY	Right	Yes	2.9509917999967	0	164093	253
323.43359375	0	taste	response	1	10	10	foodImage.19	FOODEEG_Images\0225.jpg	NY	Right	Yes	2.9509917999967	0	165599	235
324.478515625	1	health	trialStart	1	11	11	foodImage.41	FOODEEG_Images\0409.jpg	NY	Right	Yes	1.21692850001273	0	166134	251
325.525390625	2	health	foodImageDisplay	1	11	11	foodImage.41	FOODEEG_Images\0409.jpg	NY	Right	Yes	1.21692850001273	0	166670	252
327.58984375	1.21692850001273	health	choicePhaseStart	1	11	11	foodImage.41	FOODEEG_Images\0409.jpg	NY	Right	Yes	1.21692850001273	0	167727	253
328.80078125	0	health	response	1	11	11	foodImage.41	FOODEEG_Images\0409.jpg	NY	Right	Yes	1.21692850001273	0	168347	235
329.845703125	1	health	trialStart	1	12	12	foodImage.118	FOODEEG_Images\0926.jpg	YN	Right	No	2.90945659999852	0	168882	251
330.884765625	2	health	foodImageDisplay	1	12	12	foodImage.118	FOODEEG_Images\0926.jpg	YN	Right	No	2.90945659999852	0	169414	252
332.94921875	2.90945659999852	health	choicePhaseStart	1	12	12	foodImage.118	FOODEEG_Images\0926.jpg	YN	Right	No	2.90945659999852	0	170471	253
335.84765625	0	health	response	1	12	12	foodImage.118	FOODEEG_Images\0926.jpg	YN	Right	No	2.90945659999852	0	171955	235
336.888671875	1	health	trialStart	1	13	13	foodImage.108	FOODEEG_Images\0916.jpg	YN	Right	No	1.22845110000344	0	172488	251
337.927734375	2	health	foodImageDisplay	1	13	13	foodImage.108	FOODEEG_Images\0916.jpg	YN	Right	No	1.22845110000344	0	173020	252
339.994140625	1.22845110000344	health	choicePhaseStart	1	13	13	foodImage.108	FOODEEG_Images\0916.jpg	YN	Right	No	1.22845110000344	0	174078	253
341.216796875	0	health	response	1	13	13	foodImage.108	FOODEEG_Images\0916.jpg	YN	Right	No	1.22845110000344	0	174704	235
342.2578125	1	taste	trialStart	1	14	14	foodImage.92	FOODEEG_Images\0900.jpg	NY	Right	Yes	0.908819600008428	0	175237	251
343.298828125	2	taste	foodImageDisplay	1	14	14	foodImage.92	FOODEEG_Images\0900.jpg	NY	Right	Yes	0.908819600008428	0	175770	252
345.36328125	0.908819600008428	taste	choicePhaseStart	1	14	14	foodImage.92	FOODEEG_Images\0900.jpg	NY	Right	Yes	0.908819600008428	0	176827	253
346.263671875	0	taste	response	1	14	14	foodImage.92	FOODEEG_Images\0900.jpg	NY	Right	Yes	0.908819600008428	0	177288	235
347.306640625	1	decision	trialStart	1	15	15	foodImage.56	FOODEEG_Images\0586.jpg	YN	Left	Yes	1.46352400000615	0	177822	251
348.34765625	2	decision	foodImageDisplay	1	15	15	foodImage.56	FOODEEG_Images\0586.jpg	YN	Left	Yes	1.46352400000615	0	178355	252
350.4140625	1.46352400000615	decision	choicePhaseStart	1	15	15	foodImage.56	FOODEEG_Images\0586.jpg	YN	Left	Yes	1.46352400000615	0	179413	253
351.87109375	0	decision	response	1	15	15	foodImage.56	FOODEEG_Images\0586.jpg	YN	Left	Yes	1.46352400000615	0	180159	234
352.916015625	1	health	trialStart	1	16	16	foodImage.43	FOODEEG_Images\0445.jpg	NY	Right	Yes	0.897809000001871	0	180694	251
353.974609375	2	health	foodImageDisplay	1	16	16	foodImage.43	FOODEEG_Images\0445.jpg	NY	Right	Yes	0.897809000001871	0	181236	252
356.0390625	0.897809000001871	health	choicePhaseStart	1	16	16	foodImage.43	FOODEEG_Images\0445.jpg	NY	Right	Yes	0.897809000001871	0	182293	253
356.927734375	0	health	response	1	16	16	foodImage.43	FOODEEG_Images\0445.jpg	NY	Right	Yes	0.897809000001871	0	182748	235
357.96875	1	health	trialStart	1	17	17	foodImage.3	FOODEEG_Images\0046.jpg	YN	Right	No	1.2158885000099	0	183281	251
359.009765625	2	health	foodImageDisplay	1	17	17	foodImage.3	FOODEEG_Images\0046.jpg	YN	Right	No	1.2158885000099	0	183814	252
361.07421875	1.2158885000099	health	choicePhaseStart	1	17	17	foodImage.3	FOODEEG_Images\0046.jpg	YN	Right	No	1.2158885000099	0	184871	253
362.279296875	0	health	response	1	17	17	foodImage.3	FOODEEG_Images\0046.jpg	YN	Right	No	1.2158885000099	0	185488	235
363.322265625	1	health	trialStart	1	18	18	foodImage.11	FOODEEG_Images\0180.jpg	YN	Right	No	0.978409499992267	0	186022	251
364.36328125	2	health	foodImageDisplay	1	18	18	foodImage.11	FOODEEG_Images\0180.jpg	YN	Right	No	0.978409499992267	0	186555	252
366.427734375	0.978409499992267	health	choicePhaseStart	1	18	18	foodImage.11	FOODEEG_Images\0180.jpg	YN	Right	No	0.978409499992267	0	187612	253
367.3984375	0	health	response	1	18	18	foodImage.11	FOODEEG_Images\0180.jpg	YN	Right	No	0.978409499992267	0	188109	235
368.44140625	1	health	trialStart	1	19	19	foodImage.69	FOODEEG_Images\0693.jpg	NY	Right	Yes	1.04436479999276	0	188643	251
369.4921875	2	health	foodImageDisplay	1	19	19	foodImage.69	FOODEEG_Images\0693.jpg	NY	Right	Yes	1.04436479999276	0	189181	252
371.556640625	1.04436479999276	health	choicePhaseStart	1	19	19	foodImage.69	FOODEEG_Images\0693.jpg	NY	Right	Yes	1.04436479999276	0	190238	253
372.591796875	0	health	response	1	19	19	foodImage.69	FOODEEG_Images\0693.jpg	NY	Right	Yes	1.04436479999276	0	190768	235
373.6328125	1	taste	trialStart	1	20	20	foodImage.16	FOODEEG_Images\0196.jpg	NY	Right	Yes	1.26694789998874	0	191301	251
374.716796875	2	taste	foodImageDisplay	1	20	20	foodImage.16	FOODEEG_Images\0196.jpg	NY	Right	Yes	1.26694789998874	0	191856	252
376.78125	1.26694789998874	taste	choicePhaseStart	1	20	20	foodImage.16	FOODEEG_Images\0196.jpg	NY	Right	Yes	1.26694789998874	0	192913	253
378.0390625	0	taste	response	1	20	20	foodImage.16	FOODEEG_Images\0196.jpg	NY	Right	Yes	1.26694789998874	0	193557	235
379.08203125	1	taste	trialStart	1	21	21	foodImage.79	FOODEEG_Images\0794.jpg	NY	Right	Yes	1.87439950001135	0	194091	251
380.1328125	2	taste	foodImageDisplay	1	21	21	foodImage.79	FOODEEG_Images\0794.jpg	NY	Right	Yes	1.87439950001135	0	194629	252
382.1953125	1.87439950001135	taste	choicePhaseStart	1	21	21	foodImage.79	FOODEEG_Images\0794.jpg	NY	Right	Yes	1.87439950001135	0	195685	253
384.0625	0	taste	response	1	21	21	foodImage.79	FOODEEG_Images\0794.jpg	NY	Right	Yes	1.87439950001135	0	196641	235
385.10546875	1	decision	trialStart	1	22	22	foodImage.6	FOODEEG_Images\0113.jpg	YN	Left	Yes	1.04452699999092	0	197175	251
386.146484375	2	decision	foodImageDisplay	1	22	22	foodImage.6	FOODEEG_Images\0113.jpg	YN	Left	Yes	1.04452699999092	0	197708	252
388.2109375	1.04452699999092	decision	choicePhaseStart	1	22	22	foodImage.6	FOODEEG_Images\0113.jpg	YN	Left	Yes	1.04452699999092	0	198765	253
389.24609375	0	decision	response	1	22	22	foodImage.6	FOODEEG_Images\0113.jpg	YN	Left	Yes	1.04452699999092	0	199295	234
390.2890625	1	health	trialStart	1	23	23	foodImage.14	FOODEEG_Images\0188.jpg	YN	Left	Yes	3.30583089998981	0	199829	251
391.34765625	2	health	foodImageDisplay	1	23	23	foodImage.14	FOODEEG_Images\0188.jpg	YN	Left	Yes	3.30583089998981	0	200371	252
393.41015625	3.30583089998981	health	choicePhaseStart	1	23	23	foodImage.14	FOODEEG_Images\0188.jpg	YN	Left	Yes	3.30583089998981	0	201427	253
396.7109375	0	health	response	1	23	23	foodImage.14	FOODEEG_Images\0188.jpg	YN	Left	Yes	3.30583089998981	0	203117	234
397.751953125	1	health	trialStart	1	24	24	foodImage.39	FOODEEG_Images\0367.jpg	YN	Right	No	0.75308120000409	0	203650	251
398.791015625	2	health	foodImageDisplay	1	24	24	foodImage.39	FOODEEG_Images\0367.jpg	YN	Right	No	0.75308120000409	0	204182	252
400.85546875	0.75308120000409	health	choicePhaseStart	1	24	24	foodImage.39	FOODEEG_Images\0367.jpg	YN	Right	No	0.75308120000409	0	205239	253
401.59765625	0	health	response	1	24	24	foodImage.39	FOODEEG_Images\0367.jpg	YN	Right	No	0.75308120000409	0	205619	235
402.638671875	1	taste	trialStart	1	25	25	foodImage.47	FOODEEG_Images\0488.jpg	NY	Left	No	1.27165139999124	0	206152	251
403.6796875	2	taste	foodImageDisplay	1	25	25	foodImage.47	FOODEEG_Images\0488.jpg	NY	Left	No	1.27165139999124	0	206685	252
405.7421875	1.27165139999124	taste	choicePhaseStart	1	25	25	foodImage.47	FOODEEG_Images\0488.jpg	NY	Left	No	1.27165139999124	0	207741	253
407.005859375	0	taste	response	1	25	25	foodImage.47	FOODEEG_Images\0488.jpg	NY	Left	No	1.27165139999124	0	208388	234
408.048828125	1	health	trialStart	1	26	26	foodImage.106	FOODEEG_Images\0914.jpg	NY	Left	No	1.94575759999861	0	208922	251
409.0859375	2	health	foodImageDisplay	1	26	26	foodImage.106	FOODEEG_Images\0914.jpg	NY	Left	No	1.94575759999861	0	209453	252
411.1484375	1.94575759999861	health	choicePhaseStart	1	26	26	foodImage.106	FOODEEG_Images\0914.jpg	NY	Left	No	1.94575759999861	0	210509	253
413.0859375	0	health	response	1	26	26	foodImage.106	FOODEEG_Images\0914.jpg	NY	Left	No	1.94575759999861	0	211501	234
414.126953125	1	decision	trialStart	1	27	27	foodImage.119	FOODEEG_Images\0927.jpg	YN	Right	No	1.06101299999864	0	212034	251
415.166015625	2	decision	foodImageDisplay	1	27	27	foodImage.119	FOODEEG_Images\0927.jpg	YN	Right	No	1.06101299999864	0	212566	252
417.23046875	1.06101299999864	decision	choicePhaseStart	1	27	27	foodImage.119	FOODEEG_Images\0927.jpg	YN	Right	No	1.06101299999864	0	213623	253
418.28515625	0	decision	response	1	27	27	foodImage.119	FOODEEG_Images\0927.jpg	YN	Right	No	1.06101299999864	0	214163	235
419.326171875	1	taste	trialStart	1	28	28	foodImage.68	FOODEEG_Images\0685.jpg	YN	Left	Yes	0.787638399997377	0	214696	251
420.40234375	2	taste	foodImageDisplay	1	28	28	foodImage.68	FOODEEG_Images\0685.jpg	YN	Left	Yes	0.787638399997377	0	215247	252
422.466796875	0.787638399997377	taste	choicePhaseStart	1	28	28	foodImage.68	FOODEEG_Images\0685.jpg	YN	Left	Yes	0.787638399997377	0	216304	253
423.244140625	0	taste	response	1	28	28	foodImage.68	FOODEEG_Images\0685.jpg	YN	Left	Yes	0.787638399997377	0	216702	234
424.291015625	1	health	trialStart	1	29	29	foodImage.92	FOODEEG_Images\0900.jpg	NY	Right	Yes	1.80397989999619	0	217238	251
425.34375	2	health	foodImageDisplay	1	29	29	foodImage.92	FOODEEG_Images\0900.jpg	NY	Right	Yes	1.80397989999619	0	217777	252
427.41015625	1.80397989999619	health	choicePhaseStart	1	29	29	foodImage.92	FOODEEG_Images\0900.jpg	NY	Right	Yes	1.80397989999619	0	218835	253
429.205078125	0	health	response	1	29	29	foodImage.92	FOODEEG_Images\0900.jpg	NY	Right	Yes	1.80397989999619	0	219754	235
430.24609375	1	taste	trialStart	1	30	30	foodImage.17	FOODEEG_Images\0199.jpg	YN	Left	Yes	1.06000339999446	0	220287	251
431.2890625	2	taste	foodImageDisplay	1	30	30	foodImage.17	FOODEEG_Images\0199.jpg	YN	Left	Yes	1.06000339999446	0	220821	252
433.353515625	1.06000339999446	taste	choicePhaseStart	1	30	30	foodImage.17	FOODEEG_Images\0199.jpg	YN	Left	Yes	1.06000339999446	0	221878	253
434.404296875	0	taste	response	1	30	30	foodImage.17	FOODEEG_Images\0199.jpg	YN	Left	Yes	1.06000339999446	0	222416	234
435.4453125	1	decision	trialStart	1	31	31	foodImage.63	FOODEEG_Images\0645.jpg	NY	Right	Yes	0.988495400000829	0	222949	251
436.48828125	2	decision	foodImageDisplay	1	31	31	foodImage.63	FOODEEG_Images\0645.jpg	NY	Right	Yes	0.988495400000829	0	223483	252
438.552734375	0.988495400000829	decision	choicePhaseStart	1	31	31	foodImage.63	FOODEEG_Images\0645.jpg	NY	Right	Yes	0.988495400000829	0	224540	253
439.533203125	0	decision	response	1	31	31	foodImage.63	FOODEEG_Images\0645.jpg	NY	Right	Yes	0.988495400000829	0	225042	235
440.57421875	1	health	trialStart	1	32	32	foodImage.4	FOODEEG_Images\0065.jpg	NY	Right	Yes	2.27342289999069	0	225575	251
441.658203125	2	health	foodImageDisplay	1	32	32	foodImage.4	FOODEEG_Images\0065.jpg	NY	Right	Yes	2.27342289999069	0	226130	252
443.720703125	2.27342289999069	health	choicePhaseStart	1	32	32	foodImage.4	FOODEEG_Images\0065.jpg	NY	Right	Yes	2.27342289999069	0	227186	253
445.98828125	0	health	response	1	32	32	foodImage.4	FOODEEG_Images\0065.jpg	NY	Right	Yes	2.27342289999069	0	228347	235
447.03125	1	taste	trialStart	1	33	33	foodImage.83	FOODEEG_Images\0827.jpg	NY	Right	Yes	0.903444900002796	0	228881	251
448.08984375	2	taste	foodImageDisplay	1	33	33	foodImage.83	FOODEEG_Images\0827.jpg	NY	Right	Yes	0.903444900002796	0	229423	252
450.154296875	0.903444900002796	taste	choicePhaseStart	1	33	33	foodImage.83	FOODEEG_Images\0827.jpg	NY	Right	Yes	0.903444900002796	0	230480	253
451.05078125	0	taste	response	1	33	33	foodImage.83	FOODEEG_Images\0827.jpg	NY	Right	Yes	0.903444900002796	0	230939	235
452.09375	1	taste	trialStart	1	34	34	foodImage.85	FOODEEG_Images\0841.jpg	NY	Left	No	0.908555700007128	0	231473	251
453.154296875	2	taste	foodImageDisplay	1	34	34	foodImage.85	FOODEEG_Images\0841.jpg	NY	Left	No	0.908555700007128	0	232016	252
455.216796875	0.908555700007128	taste	choicePhaseStart	1	34	34	foodImage.85	FOODEEG_Images\0841.jpg	NY	Left	No	0.908555700007128	0	233072	253
456.115234375	0	taste	response	1	34	34	foodImage.85	FOODEEG_Images\0841.jpg	NY	Left	No	0.908555700007128	0	233532	234
457.158203125	1	health	trialStart	1	35	35	foodImage.56	FOODEEG_Images\0586.jpg	YN	Left	Yes	0.81247400000575	0	234066	251
458.19921875	2	health	foodImageDisplay	1	35	35	foodImage.56	FOODEEG_Images\0586.jpg	YN	Left	Yes	0.81247400000575	0	234599	252
460.263671875	0.81247400000575	health	choicePhaseStart	1	35	35	foodImage.56	FOODEEG_Images\0586.jpg	YN	Left	Yes	0.81247400000575	0	235656	253
461.06640625	0	health	response	1	35	35	foodImage.56	FOODEEG_Images\0586.jpg	YN	Left	Yes	0.81247400000575	0	236067	234
462.109375	1	taste	trialStart	1	36	36	foodImage.82	FOODEEG_Images\0805.jpg	YN	Left	Yes	1.37131319999753	0	236601	251
463.166015625	2	taste	foodImageDisplay	1	36	36	foodImage.82	FOODEEG_Images\0805.jpg	YN	Left	Yes	1.37131319999753	0	237142	252
465.232421875	1.37131319999753	taste	choicePhaseStart	1	36	36	foodImage.82	FOODEEG_Images\0805.jpg	YN	Left	Yes	1.37131319999753	0	238200	253
466.595703125	0	taste	response	1	36	36	foodImage.82	FOODEEG_Images\0805.jpg	YN	Left	Yes	1.37131319999753	0	238898	234
467.638671875	1	decision	trialStart	1	37	37	foodImage.52	FOODEEG_Images\0539.jpg	YN	Left	Yes	3.52449760001036	0	239432	251
468.6953125	2	decision	foodImageDisplay	1	37	37	foodImage.52	FOODEEG_Images\0539.jpg	YN	Left	Yes	3.52449760001036	0	239973	252
470.7578125	3.52449760001036	decision	choicePhaseStart	1	37	37	foodImage.52	FOODEEG_Images\0539.jpg	YN	Left	Yes	3.52449760001036	0	241029	253
474.275390625	0	decision	response	1	37	37	foodImage.52	FOODEEG_Images\0539.jpg	YN	Left	Yes	3.52449760001036	0	242830	234
475.318359375	1	decision	trialStart	1	38	38	foodImage.85	FOODEEG_Images\0841.jpg	YN	Right	No	2.5891474000091	0	243364	251
476.375	2	decision	foodImageDisplay	1	38	38	foodImage.85	FOODEEG_Images\0841.jpg	YN	Right	No	2.5891474000091	0	243905	252
478.439453125	2.5891474000091	decision	choicePhaseStart	1	38	38	foodImage.85	FOODEEG_Images\0841.jpg	YN	Right	No	2.5891474000091	0	244962	253
481.017578125	0	decision	response	1	38	38	foodImage.85	FOODEEG_Images\0841.jpg	YN	Right	No	2.5891474000091	0	246282	235
482.060546875	1	health	trialStart	1	39	39	foodImage.65	FOODEEG_Images\0658.jpg	YN	Right	No	1.23695599999337	0	246816	251
483.1015625	2	health	foodImageDisplay	1	39	39	foodImage.65	FOODEEG_Images\0658.jpg	YN	Right	No	1.23695599999337	0	247349	252
485.1640625	1.23695599999337	health	choicePhaseStart	1	39	39	foodImage.65	FOODEEG_Images\0658.jpg	YN	Right	No	1.23695599999337	0	248405	253
486.39453125	0	health	response	1	39	39	foodImage.65	FOODEEG_Images\0658.jpg	YN	Right	No	1.23695599999337	0	249035	235
487.4375	1	taste	trialStart	1	40	40	foodImage.11	FOODEEG_Images\0180.jpg	YN	Left	Yes	0.959036899992498	0	249569	251
488.5	2	taste	foodImageDisplay	1	40	40	foodImage.11	FOODEEG_Images\0180.jpg	YN	Left	Yes	0.959036899992498	0	250113	252
490.564453125	0.959036899992498	taste	choicePhaseStart	1	40	40	foodImage.11	FOODEEG_Images\0180.jpg	YN	Left	Yes	0.959036899992498	0	251170	253
491.513671875	0	taste	response	1	40	40	foodImage.11	FOODEEG_Images\0180.jpg	YN	Left	Yes	0.959036899992498	0	251656	234
492.55859375	1	decision	trialStart	1	41	41	foodImage.69	FOODEEG_Images\0693.jpg	NY	Right	Yes	0.885406400004285	0	252191	251
493.62109375	2	decision	foodImageDisplay	1	41	41	foodImage.69	FOODEEG_Images\0693.jpg	NY	Right	Yes	0.885406400004285	0	252735	252
495.685546875	0.885406400004285	decision	choicePhaseStart	1	41	41	foodImage.69	FOODEEG_Images\0693.jpg	NY	Right	Yes	0.885406400004285	0	253792	253
496.5625	0	decision	response	1	41	41	foodImage.69	FOODEEG_Images\0693.jpg	NY	Right	Yes	0.885406400004285	0	254241	235
497.60546875	1	taste	trialStart	1	42	42	foodImage.44	FOODEEG_Images\0459.jpg	NY	Right	Yes	1.76090629999817	0	254775	251
498.650390625	2	taste	foodImageDisplay	1	42	42	foodImage.44	FOODEEG_Images\0459.jpg	NY	Right	Yes	1.76090629999817	0	255310	252
500.71484375	1.76090629999817	taste	choicePhaseStart	1	42	42	foodImage.44	FOODEEG_Images\0459.jpg	NY	Right	Yes	1.76090629999817	0	256367	253
502.46484375	0	taste	response	1	42	42	foodImage.44	FOODEEG_Images\0459.jpg	NY	Right	Yes	1.76090629999817	0	257263	235
503.509765625	1	taste	trialStart	1	43	43	foodImage.28	FOODEEG_Images\0273.jpg	NY	Right	Yes	0.954467100003967	0	257798	251
504.560546875	2	taste	foodImageDisplay	1	43	43	foodImage.28	FOODEEG_Images\0273.jpg	NY	Right	Yes	0.954467100003967	0	258336	252
506.623046875	0.954467100003967	taste	choicePhaseStart	1	43	43	foodImage.28	FOODEEG_Images\0273.jpg	NY	Right	Yes	0.954467100003967	0	259392	253
507.568359375	0	taste	response	1	43	43	foodImage.28	FOODEEG_Images\0273.jpg	NY	Right	Yes	0.954467100003967	0	259876	235
508.61328125	1	decision	trialStart	1	44	44	foodImage.99	FOODEEG_Images\0907.jpg	NY	Left	No	1.12764399999287	0	260411	251
509.650390625	2	decision	foodImageDisplay	1	44	44	foodImage.99	FOODEEG_Images\0907.jpg	NY	Left	No	1.12764399999287	0	260942	252
511.71484375	1.12764399999287	decision	choicePhaseStart	1	44	44	foodImage.99	FOODEEG_Images\0907.jpg	NY	Left	No	1.12764399999287	0	261999	253
512.833984375	0	decision	response	1	44	44	foodImage.99	FOODEEG_Images\0907.jpg	NY	Left	No	1.12764399999287	0	262572	234
513.875	1	decision	trialStart	1	45	45	foodImage.101	FOODEEG_Images\0909.jpg	YN	Right	No	1.11135799999465	0	263105	251
514.9140625	2	decision	foodImageDisplay	1	45	45	foodImage.101	FOODEEG_Images\0909.jpg	YN	Right	No	1.11135799999465	0	263637	252
516.978515625	1.11135799999465	decision	choicePhaseStart	1	45	45	foodImage.101	FOODEEG_Images\0909.jpg	YN	Right	No	1.11135799999465	0	264694	253
518.08203125	0	decision	response	1	45	45	foodImage.101	FOODEEG_Images\0909.jpg	YN	Right	No	1.11135799999465	0	265259	235
519.123046875	1	decision	trialStart	1	46	46	foodImage.62	FOODEEG_Images\0644.jpg	NY	Right	Yes	1.51315380001324	0	265792	251
520.18359375	2	decision	foodImageDisplay	1	46	46	foodImage.62	FOODEEG_Images\0644.jpg	NY	Right	Yes	1.51315380001324	0	266335	252
522.24609375	1.51315380001324	decision	choicePhaseStart	1	46	46	foodImage.62	FOODEEG_Images\0644.jpg	NY	Right	Yes	1.51315380001324	0	267391	253
523.75390625	0	decision	response	1	46	46	foodImage.62	FOODEEG_Images\0644.jpg	NY	Right	Yes	1.51315380001324	0	268163	235
524.796875	1	decision	trialStart	1	47	47	foodImage.94	FOODEEG_Images\0902.jpg	NY	Right	Yes	1.68041609998909	0	268697	251
525.833984375	2	decision	foodImageDisplay	1	47	47	foodImage.94	FOODEEG_Images\0902.jpg	NY	Right	Yes	1.68041609998909	0	269228	252
527.896484375	1.68041609998909	decision	choicePhaseStart	1	47	47	foodImage.94	FOODEEG_Images\0902.jpg	NY	Right	Yes	1.68041609998909	0	270284	253
529.568359375	0	decision	response	1	47	47	foodImage.94	FOODEEG_Images\0902.jpg	NY	Right	Yes	1.68041609998909	0	271140	235
530.615234375	1	health	trialStart	1	48	48	foodImage.36	FOODEEG_Images\0352.jpg	NY	Right	Yes	1.1676465000055	0	271676	251
531.673828125	2	health	foodImageDisplay	1	48	48	foodImage.36	FOODEEG_Images\0352.jpg	NY	Right	Yes	1.1676465000055	0	272218	252
533.736328125	1.1676465000055	health	choicePhaseStart	1	48	48	foodImage.36	FOODEEG_Images\0352.jpg	NY	Right	Yes	1.1676465000055	0	273274	253
534.896484375	0	health	response	1	48	48	foodImage.36	FOODEEG_Images\0352.jpg	NY	Right	Yes	1.1676465000055	0	273868	235
535.94140625	1	taste	trialStart	1	49	49	foodImage.89	FOODEEG_Images\0881.jpg	NY	Right	Yes	0.946988199997577	0	274403	251
537.0234375	2	taste	foodImageDisplay	1	49	49	foodImage.89	FOODEEG_Images\0881.jpg	NY	Right	Yes	0.946988199997577	0	274957	252
539.0859375	0.946988199997577	taste	choicePhaseStart	1	49	49	foodImage.89	FOODEEG_Images\0881.jpg	NY	Right	Yes	0.946988199997577	0	276013	253
540.0234375	0	taste	response	1	49	49	foodImage.89	FOODEEG_Images\0881.jpg	NY	Right	Yes	0.946988199997577	0	276493	235
541.064453125	1	taste	trialStart	1	50	50	foodImage.84	FOODEEG_Images\0830.jpg	NY	Right	Yes	0.920729199991911	0	277026	251
542.14453125	2	taste	foodImageDisplay	1	50	50	foodImage.84	FOODEEG_Images\0830.jpg	NY	Right	Yes	0.920729199991911	0	277579	252
544.20703125	0.920729199991911	taste	choicePhaseStart	1	50	50	foodImage.84	FOODEEG_Images\0830.jpg	NY	Right	Yes	0.920729199991911	0	278635	253
545.119140625	0	taste	response	1	50	50	foodImage.84	FOODEEG_Images\0830.jpg	NY	Right	Yes	0.920729199991911	0	279102	235
546.162109375	1	decision	trialStart	1	51	51	foodImage.66	FOODEEG_Images\0676.jpg	YN	Left	Yes	1.17338929999096	0	279636	251
547.205078125	2	decision	foodImageDisplay	1	51	51	foodImage.66	FOODEEG_Images\0676.jpg	YN	Left	Yes	1.17338929999096	0	280170	252
549.267578125	1.17338929999096	decision	choicePhaseStart	1	51	51	foodImage.66	FOODEEG_Images\0676.jpg	YN	Left	Yes	1.17338929999096	0	281226	253
550.431640625	0	decision	response	1	51	51	foodImage.66	FOODEEG_Images\0676.jpg	YN	Left	Yes	1.17338929999096	0	281822	234
551.474609375	1	taste	trialStart	1	52	52	foodImage.1	FOODEEG_Images\0004.jpg	NY	Right	Yes	0.825903899996774	0	282356	251
552.517578125	2	taste	foodImageDisplay	1	52	52	foodImage.1	FOODEEG_Images\0004.jpg	NY	Right	Yes	0.825903899996774	0	282890	252
554.580078125	0.825903899996774	taste	choicePhaseStart	1	52	52	foodImage.1	FOODEEG_Images\0004.jpg	NY	Right	Yes	0.825903899996774	0	283946	253
555.400390625	0	taste	response	1	52	52	foodImage.1	FOODEEG_Images\0004.jpg	NY	Right	Yes	0.825903899996774	0	284366	235
556.439453125	1	health	trialStart	1	53	53	foodImage.6	FOODEEG_Images\0113.jpg	YN	Right	No	1.55479709999054	0	284898	251
557.501953125	2	health	foodImageDisplay	1	53	53	foodImage.6	FOODEEG_Images\0113.jpg	YN	Right	No	1.55479709999054	0	285442	252
559.564453125	1.55479709999054	health	choicePhaseStart	1	53	53	foodImage.6	FOODEEG_Images\0113.jpg	YN	Right	No	1.55479709999054	0	286498	253
561.111328125	0	health	response	1	53	53	foodImage.6	FOODEEG_Images\0113.jpg	YN	Right	No	1.55479709999054	0	287290	235
562.154296875	1	taste	trialStart	1	54	54	foodImage.33	FOODEEG_Images\0329.jpg	YN	Left	Yes	0.948521099999198	0	287824	251
563.1953125	2	taste	foodImageDisplay	1	54	54	foodImage.33	FOODEEG_Images\0329.jpg	YN	Left	Yes	0.948521099999198	0	288357	252
565.259765625	0.948521099999198	taste	choicePhaseStart	1	54	54	foodImage.33	FOODEEG_Images\0329.jpg	YN	Left	Yes	0.948521099999198	0	289414	253
566.19921875	0	taste	response	1	54	54	foodImage.33	FOODEEG_Images\0329.jpg	YN	Left	Yes	0.948521099999198	0	289895	234
567.2421875	1	health	trialStart	1	55	55	foodImage.105	FOODEEG_Images\0913.jpg	YN	Left	Yes	0.858033899989096	0	290429	251
568.279296875	2	health	foodImageDisplay	1	55	55	foodImage.105	FOODEEG_Images\0913.jpg	YN	Left	Yes	0.858033899989096	0	290960	252
570.349609375	0.858033899989096	health	choicePhaseStart	1	55	55	foodImage.105	FOODEEG_Images\0913.jpg	YN	Left	Yes	0.858033899989096	0	292020	253
571.19921875	0	health	response	1	55	55	foodImage.105	FOODEEG_Images\0913.jpg	YN	Left	Yes	0.858033899989096	0	292455	234
572.240234375	1	health	trialStart	1	56	56	foodImage.12	FOODEEG_Images\0181.jpg	YN	Right	No	3.62975909998931	0	292988	251
573.283203125	2	health	foodImageDisplay	1	56	56	foodImage.12	FOODEEG_Images\0181.jpg	YN	Right	No	3.62975909998931	0	293522	252
575.34765625	3.62975909998931	health	choicePhaseStart	1	56	56	foodImage.12	FOODEEG_Images\0181.jpg	YN	Right	No	3.62975909998931	0	294579	253
578.966796875	0	health	response	1	56	56	foodImage.12	FOODEEG_Images\0181.jpg	YN	Right	No	3.62975909998931	0	296432	235
580.009765625	1	decision	trialStart	1	57	57	foodImage.115	FOODEEG_Images\0923.jpg	NY	Left	No	1.42456260000472	0	296966	251
581.048828125	2	decision	foodImageDisplay	1	57	57	foodImage.115	FOODEEG_Images\0923.jpg	NY	Left	No	1.42456260000472	0	297498	252
583.111328125	1.42456260000472	decision	choicePhaseStart	1	57	57	foodImage.115	FOODEEG_Images\0923.jpg	NY	Left	No	1.42456260000472	0	298554	253
584.525390625	0	decision	response	1	57	57	foodImage.115	FOODEEG_Images\0923.jpg	NY	Left	No	1.42456260000472	0	299278	234
585.568359375	1	health	trialStart	1	58	58	foodImage.19	FOODEEG_Images\0225.jpg	NY	Right	Yes	1.11413760000141	0	299812	251
586.611328125	2	health	foodImageDisplay	1	58	58	foodImage.19	FOODEEG_Images\0225.jpg	NY	Right	Yes	1.11413760000141	0	300346	252
588.67578125	1.11413760000141	health	choicePhaseStart	1	58	58	foodImage.19	FOODEEG_Images\0225.jpg	NY	Right	Yes	1.11413760000141	0	301403	253
589.78125	0	health	response	1	58	58	foodImage.19	FOODEEG_Images\0225.jpg	NY	Right	Yes	1.11413760000141	0	301969	235
590.82421875	1	taste	trialStart	1	59	59	foodImage.72	FOODEEG_Images\0714.jpg	NY	Right	Yes	1.17911840000306	0	302503	251
591.869140625	2	taste	foodImageDisplay	1	59	59	foodImage.72	FOODEEG_Images\0714.jpg	NY	Right	Yes	1.17911840000306	0	303038	252
593.931640625	1.17911840000306	taste	choicePhaseStart	1	59	59	foodImage.72	FOODEEG_Images\0714.jpg	NY	Right	Yes	1.17911840000306	0	304094	253
595.1015625	0	taste	response	1	59	59	foodImage.72	FOODEEG_Images\0714.jpg	NY	Right	Yes	1.17911840000306	0	304693	235
596.14453125	1	decision	trialStart	1	60	60	foodImage.30	FOODEEG_Images\0282.jpg	YN	Left	Yes	0.887965800007805	0	305227	251
597.20703125	2	decision	foodImageDisplay	1	60	60	foodImage.30	FOODEEG_Images\0282.jpg	YN	Left	Yes	0.887965800007805	0	305771	252
599.271484375	0.887965800007805	decision	choicePhaseStart	1	60	60	foodImage.30	FOODEEG_Images\0282.jpg	YN	Left	Yes	0.887965800007805	0	306828	253
600.150390625	0	decision	response	1	60	60	foodImage.30	FOODEEG_Images\0282.jpg	YN	Left	Yes	0.887965800007805	0	307278	234
602.19140625	3.818359375	n/a	blockEnd	n/a	n/a	n/a	n/a	n/a	n/a	n/a	n/a	n/a	n/a	308323	254
606.009765625	2	n/a	blockStart	2	n/a	n/a	n/a	n/a	n/a	n/a	n/a	n/a	n/a	310278	250
608.04296875	1	decision	trialStart	2	61	1	foodImage.33	FOODEEG_Images\0329.jpg	NY	Right	Yes	3.53683959999762	0	311319	251
609.0859375	2	decision	foodImageDisplay	2	61	1	foodImage.33	FOODEEG_Images\0329.jpg	NY	Right	Yes	3.53683959999762	0	311853	252
611.150390625	3.53683959999762	decision	choicePhaseStart	2	61	1	foodImage.33	FOODEEG_Images\0329.jpg	NY	Right	Yes	3.53683959999762	0	312910	253
614.677734375	0	decision	response	2	61	1	foodImage.33	FOODEEG_Images\0329.jpg	NY	Right	Yes	3.53683959999762	0	314716	235
615.71875	1	decision	trialStart	2	62	2	foodImage.93	FOODEEG_Images\0901.jpg	YN	Right	No	1.31113970000297	0	315249	251
616.755859375	2	decision	foodImageDisplay	2	62	2	foodImage.93	FOODEEG_Images\0901.jpg	YN	Right	No	1.31113970000297	0	315780	252
618.82421875	1.31113970000297	decision	choicePhaseStart	2	62	2	foodImage.93	FOODEEG_Images\0901.jpg	YN	Right	No	1.31113970000297	0	316839	253
620.125	0	decision	response	2	62	2	foodImage.93	FOODEEG_Images\0901.jpg	YN	Right	No	1.31113970000297	0	317505	235
621.16796875	1	health	trialStart	2	63	3	foodImage.50	FOODEEG_Images\0529.jpg	YN	Left	Yes	0.766640699992422	0	318039	251
622.224609375	2	health	foodImageDisplay	2	63	3	foodImage.50	FOODEEG_Images\0529.jpg	YN	Left	Yes	0.766640699992422	0	318580	252
624.287109375	0.766640699992422	health	choicePhaseStart	2	63	3	foodImage.50	FOODEEG_Images\0529.jpg	YN	Left	Yes	0.766640699992422	0	319636	253
625.044921875	0	health	response	2	63	3	foodImage.50	FOODEEG_Images\0529.jpg	YN	Left	Yes	0.766640699992422	0	320024	234
626.087890625	1	taste	trialStart	2	64	4	foodImage.73	FOODEEG_Images\0717.jpg	NY	Right	Yes	1.16840399999637	0	320558	251
627.158203125	2	taste	foodImageDisplay	2	64	4	foodImage.73	FOODEEG_Images\0717.jpg	NY	Right	Yes	1.16840399999637	0	321106	252
629.220703125	1.16840399999637	taste	choicePhaseStart	2	64	4	foodImage.73	FOODEEG_Images\0717.jpg	NY	Right	Yes	1.16840399999637	0	322162	253
630.380859375	0	taste	response	2	64	4	foodImage.73	FOODEEG_Images\0717.jpg	NY	Right	Yes	1.16840399999637	0	322756	235
631.423828125	1	taste	trialStart	2	65	5	foodImage.119	FOODEEG_Images\0927.jpg	YN	Right	No	1.50054889998864	0	323290	251
632.462890625	2	taste	foodImageDisplay	2	65	5	foodImage.119	FOODEEG_Images\0927.jpg	YN	Right	No	1.50054889998864	0	323822	252
634.529296875	1.50054889998864	taste	choicePhaseStart	2	65	5	foodImage.119	FOODEEG_Images\0927.jpg	YN	Right	No	1.50054889998864	0	324880	253
636.01953125	0	taste	response	2	65	5	foodImage.119	FOODEEG_Images\0927.jpg	YN	Right	No	1.50054889998864	0	325643	235
637.060546875	1	health	trialStart	2	66	6	foodImage.66	FOODEEG_Images\0676.jpg	NY	Left	No	0.901257699995767	0	326176	251
638.1015625	2	health	foodImageDisplay	2	66	6	foodImage.66	FOODEEG_Images\0676.jpg	NY	Left	No	0.901257699995767	0	326709	252
640.166015625	0.901257699995767	health	choicePhaseStart	2	66	6	foodImage.66	FOODEEG_Images\0676.jpg	NY	Left	No	0.901257699995767	0	327766	253
641.060546875	0	health	response	2	66	6	foodImage.66	FOODEEG_Images\0676.jpg	NY	Left	No	0.901257699995767	0	328224	234
642.103515625	1	decision	trialStart	2	67	7	foodImage.20	FOODEEG_Images\0226.jpg	YN	Left	Yes	1.12406139999803	0	328758	251
643.14453125	2	decision	foodImageDisplay	2	67	7	foodImage.20	FOODEEG_Images\0226.jpg	YN	Left	Yes	1.12406139999803	0	329291	252
645.20703125	1.12406139999803	decision	choicePhaseStart	2	67	7	foodImage.20	FOODEEG_Images\0226.jpg	YN	Left	Yes	1.12406139999803	0	330347	253
646.32421875	0	decision	response	2	67	7	foodImage.20	FOODEEG_Images\0226.jpg	YN	Left	Yes	1.12406139999803	0	330919	234
647.3671875	1	taste	trialStart	2	68	8	foodImage.50	FOODEEG_Images\0529.jpg	YN	Left	Yes	0.904302199996891	0	331453	251
648.421875	2	taste	foodImageDisplay	2	68	8	foodImage.50	FOODEEG_Images\0529.jpg	YN	Left	Yes	0.904302199996891	0	331993	252
650.484375	0.904302199996891	taste	choicePhaseStart	2	68	8	foodImage.50	FOODEEG_Images\0529.jpg	YN	Left	Yes	0.904302199996891	0	333049	253
651.37890625	0	taste	response	2	68	8	foodImage.50	FOODEEG_Images\0529.jpg	YN	Left	Yes	0.904302199996891	0	333507	234
652.423828125	1	taste	trialStart	2	69	9	foodImage.51	FOODEEG_Images\0536.jpg	NY	Left	No	0.983454300003359	0	334042	251
653.46875	2	taste	foodImageDisplay	2	69	9	foodImage.51	FOODEEG_Images\0536.jpg	NY	Left	No	0.983454300003359	0	334577	252
655.533203125	0.983454300003359	taste	choicePhaseStart	2	69	9	foodImage.51	FOODEEG_Images\0536.jpg	NY	Left	No	0.983454300003359	0	335634	253
656.5078125	0	taste	response	2	69	9	foodImage.51	FOODEEG_Images\0536.jpg	NY	Left	No	0.983454300003359	0	336133	234
657.5546875	1	health	trialStart	2	70	10	foodImage.42	FOODEEG_Images\0438.jpg	NY	Right	Yes	1.00871970001026	0	336669	251
658.642578125	2	health	foodImageDisplay	2	70	10	foodImage.42	FOODEEG_Images\0438.jpg	NY	Right	Yes	1.00871970001026	0	337226	252
660.70703125	1.00871970001026	health	choicePhaseStart	2	70	10	foodImage.42	FOODEEG_Images\0438.jpg	NY	Right	Yes	1.00871970001026	0	338283	253
661.70703125	0	health	response	2	70	10	foodImage.42	FOODEEG_Images\0438.jpg	NY	Right	Yes	1.00871970001026	0	338795	235
662.751953125	1	decision	trialStart	2	71	11	foodImage.16	FOODEEG_Images\0196.jpg	YN	Left	Yes	1.77033120000851	0	339330	251
663.810546875	2	decision	foodImageDisplay	2	71	11	foodImage.16	FOODEEG_Images\0196.jpg	YN	Left	Yes	1.77033120000851	0	339872	252
665.875	1.77033120000851	decision	choicePhaseStart	2	71	11	foodImage.16	FOODEEG_Images\0196.jpg	YN	Left	Yes	1.77033120000851	0	340929	253
667.634765625	0	decision	response	2	71	11	foodImage.16	FOODEEG_Images\0196.jpg	YN	Left	Yes	1.77033120000851	0	341830	234
668.677734375	1	health	trialStart	2	72	12	foodImage.47	FOODEEG_Images\0488.jpg	NY	Left	No	1.14282700000331	0	342364	251
669.716796875	2	health	foodImageDisplay	2	72	12	foodImage.47	FOODEEG_Images\0488.jpg	NY	Left	No	1.14282700000331	0	342896	252
671.78125	1.14282700000331	health	choicePhaseStart	2	72	12	foodImage.47	FOODEEG_Images\0488.jpg	NY	Left	No	1.14282700000331	0	343953	253
672.9140625	0	health	response	2	72	12	foodImage.47	FOODEEG_Images\0488.jpg	NY	Left	No	1.14282700000331	0	344533	234
673.95703125	1	taste	trialStart	2	73	13	foodImage.29	FOODEEG_Images\0278.jpg	YN	Left	Yes	1.1512328999961	0	345067	251
674.998046875	2	taste	foodImageDisplay	2	73	13	foodImage.29	FOODEEG_Images\0278.jpg	YN	Left	Yes	1.1512328999961	0	345600	252
677.060546875	1.1512328999961	taste	choicePhaseStart	2	73	13	foodImage.29	FOODEEG_Images\0278.jpg	YN	Left	Yes	1.1512328999961	0	346656	253
678.203125	0	taste	response	2	73	13	foodImage.29	FOODEEG_Images\0278.jpg	YN	Left	Yes	1.1512328999961	0	347241	234
679.244140625	1	decision	trialStart	2	74	14	foodImage.36	FOODEEG_Images\0352.jpg	NY	Right	Yes	1.99120820000826	0	347774	251
680.30078125	2	decision	foodImageDisplay	2	74	14	foodImage.36	FOODEEG_Images\0352.jpg	NY	Right	Yes	1.99120820000826	0	348315	252
682.365234375	1.99120820000826	decision	choicePhaseStart	2	74	14	foodImage.36	FOODEEG_Images\0352.jpg	NY	Right	Yes	1.99120820000826	0	349372	253
684.345703125	0	decision	response	2	74	14	foodImage.36	FOODEEG_Images\0352.jpg	NY	Right	Yes	1.99120820000826	0	350386	235
685.388671875	1	decision	trialStart	2	75	15	foodImage.96	FOODEEG_Images\0904.jpg	YN	Left	Yes	1.49551219999557	0	350920	251
686.427734375	2	decision	foodImageDisplay	2	75	15	foodImage.96	FOODEEG_Images\0904.jpg	YN	Left	Yes	1.49551219999557	0	351452	252
688.4921875	1.49551219999557	decision	choicePhaseStart	2	75	15	foodImage.96	FOODEEG_Images\0904.jpg	YN	Left	Yes	1.49551219999557	0	352509	253
689.978515625	0	decision	response	2	75	15	foodImage.96	FOODEEG_Images\0904.jpg	YN	Left	Yes	1.49551219999557	0	353270	234
691.01953125	1	decision	trialStart	2	76	16	foodImage.49	FOODEEG_Images\0515.jpg	YN	Left	Yes	0.820022800005972	0	353803	251
692.0625	2	decision	foodImageDisplay	2	76	16	foodImage.49	FOODEEG_Images\0515.jpg	YN	Left	Yes	0.820022800005972	0	354337	252
694.12890625	0.820022800005972	decision	choicePhaseStart	2	76	16	foodImage.49	FOODEEG_Images\0515.jpg	YN	Left	Yes	0.820022800005972	0	355395	253
694.9375	0	decision	response	2	76	16	foodImage.49	FOODEEG_Images\0515.jpg	YN	Left	Yes	0.820022800005972	0	355809	234
695.98046875	1	taste	trialStart	2	77	17	foodImage.113	FOODEEG_Images\0921.jpg	YN	Left	Yes	1.14348159999645	0	356343	251
697.017578125	2	taste	foodImageDisplay	2	77	17	foodImage.113	FOODEEG_Images\0921.jpg	YN	Left	Yes	1.14348159999645	0	356874	252
699.083984375	1.14348159999645	taste	choicePhaseStart	2	77	17	foodImage.113	FOODEEG_Images\0921.jpg	YN	Left	Yes	1.14348159999645	0	357932	253
700.21875	0	taste	response	2	77	17	foodImage.113	FOODEEG_Images\0921.jpg	YN	Left	Yes	1.14348159999645	0	358513	234
701.2578125	1	decision	trialStart	2	78	18	foodImage.67	FOODEEG_Images\0679.jpg	YN	Left	Yes	0.834689600000274	0	359045	251
702.3359375	2	decision	foodImageDisplay	2	78	18	foodImage.67	FOODEEG_Images\0679.jpg	YN	Left	Yes	0.834689600000274	0	359597	252
704.400390625	0.834689600000274	decision	choicePhaseStart	2	78	18	foodImage.67	FOODEEG_Images\0679.jpg	YN	Left	Yes	0.834689600000274	0	360654	253
705.224609375	0	decision	response	2	78	18	foodImage.67	FOODEEG_Images\0679.jpg	YN	Left	Yes	0.834689600000274	0	361076	234
706.267578125	1	health	trialStart	2	79	19	foodImage.29	FOODEEG_Images\0278.jpg	NY	Right	Yes	0.950229399997625	0	361610	251
707.30859375	2	health	foodImageDisplay	2	79	19	foodImage.29	FOODEEG_Images\0278.jpg	NY	Right	Yes	0.950229399997625	0	362143	252
709.373046875	0.950229399997625	health	choicePhaseStart	2	79	19	foodImage.29	FOODEEG_Images\0278.jpg	NY	Right	Yes	0.950229399997625	0	363200	253
710.3125	0	health	response	2	79	19	foodImage.29	FOODEEG_Images\0278.jpg	NY	Right	Yes	0.950229399997625	0	363681	235
711.35546875	1	taste	trialStart	2	80	20	foodImage.59	FOODEEG_Images\0607.jpg	YN	Left	Yes	1.32603089998884	0	364215	251
712.40234375	2	taste	foodImageDisplay	2	80	20	foodImage.59	FOODEEG_Images\0607.jpg	YN	Left	Yes	1.32603089998884	0	364751	252
714.46875	1.32603089998884	taste	choicePhaseStart	2	80	20	foodImage.59	FOODEEG_Images\0607.jpg	YN	Left	Yes	1.32603089998884	0	365809	253
715.78515625	0	taste	response	2	80	20	foodImage.59	FOODEEG_Images\0607.jpg	YN	Left	Yes	1.32603089998884	0	366483	234
716.826171875	1	decision	trialStart	2	81	21	foodImage.64	FOODEEG_Images\0647.jpg	YN	Left	Yes	0.798929500000668	0	367016	251
717.8828125	2	decision	foodImageDisplay	2	81	21	foodImage.64	FOODEEG_Images\0647.jpg	YN	Left	Yes	0.798929500000668	0	367557	252
719.947265625	0.798929500000668	decision	choicePhaseStart	2	81	21	foodImage.64	FOODEEG_Images\0647.jpg	YN	Left	Yes	0.798929500000668	0	368614	253
720.736328125	0	decision	response	2	81	21	foodImage.64	FOODEEG_Images\0647.jpg	YN	Left	Yes	0.798929500000668	0	369018	234
721.78125	1	taste	trialStart	2	82	22	foodImage.38	FOODEEG_Images\0365.jpg	NY	Right	Yes	0.950965399999404	0	369553	251
722.818359375	2	taste	foodImageDisplay	2	82	22	foodImage.38	FOODEEG_Images\0365.jpg	NY	Right	Yes	0.950965399999404	0	370084	252
724.8828125	0.950965399999404	taste	choicePhaseStart	2	82	22	foodImage.38	FOODEEG_Images\0365.jpg	NY	Right	Yes	0.950965399999404	0	371141	253
725.82421875	0	taste	response	2	82	22	foodImage.38	FOODEEG_Images\0365.jpg	NY	Right	Yes	0.950965399999404	0	371623	235
726.8671875	1	decision	trialStart	2	83	23	foodImage.79	FOODEEG_Images\0794.jpg	NY	Right	Yes	1.64236440000241	0	372157	251
727.912109375	2	decision	foodImageDisplay	2	83	23	foodImage.79	FOODEEG_Images\0794.jpg	NY	Right	Yes	1.64236440000241	0	372692	252
729.974609375	1.64236440000241	decision	choicePhaseStart	2	83	23	foodImage.79	FOODEEG_Images\0794.jpg	NY	Right	Yes	1.64236440000241	0	373748	253
731.609375	0	decision	response	2	83	23	foodImage.79	FOODEEG_Images\0794.jpg	NY	Right	Yes	1.64236440000241	0	374585	235
732.65234375	1	taste	trialStart	2	84	24	foodImage.20	FOODEEG_Images\0226.jpg	NY	Right	Yes	2.6401937000046	0	375119	251
733.705078125	2	taste	foodImageDisplay	2	84	24	foodImage.20	FOODEEG_Images\0226.jpg	NY	Right	Yes	2.6401937000046	0	375658	252
735.76953125	2.6401937000046	taste	choicePhaseStart	2	84	24	foodImage.20	FOODEEG_Images\0226.jpg	NY	Right	Yes	2.6401937000046	0	376715	253
738.400390625	0	taste	response	2	84	24	foodImage.20	FOODEEG_Images\0226.jpg	NY	Right	Yes	2.6401937000046	0	378062	235
739.44140625	1	health	trialStart	2	85	25	foodImage.52	FOODEEG_Images\0539.jpg	YN	Left	Yes	0.966272699995898	0	378595	251
740.498046875	2	health	foodImageDisplay	2	85	25	foodImage.52	FOODEEG_Images\0539.jpg	YN	Left	Yes	0.966272699995898	0	379136	252
742.560546875	0.966272699995898	health	choicePhaseStart	2	85	25	foodImage.52	FOODEEG_Images\0539.jpg	YN	Left	Yes	0.966272699995898	0	380192	253
743.51953125	0	health	response	2	85	25	foodImage.52	FOODEEG_Images\0539.jpg	YN	Left	Yes	0.966272699995898	0	380683	234
744.5625	1	decision	trialStart	2	86	26	foodImage.13	FOODEEG_Images\0183.jpg	NY	Right	Yes	0.918802900006995	0	381217	251
745.603515625	2	decision	foodImageDisplay	2	86	26	foodImage.13	FOODEEG_Images\0183.jpg	NY	Right	Yes	0.918802900006995	0	381750	252
747.66796875	0.918802900006995	decision	choicePhaseStart	2	86	26	foodImage.13	FOODEEG_Images\0183.jpg	NY	Right	Yes	0.918802900006995	0	382807	253
748.576171875	0	decision	response	2	86	26	foodImage.13	FOODEEG_Images\0183.jpg	NY	Right	Yes	0.918802900006995	0	383272	235
749.6171875	1	health	trialStart	2	87	27	foodImage.38	FOODEEG_Images\0365.jpg	YN	Left	Yes	0.857827100000577	0	383805	251
750.654296875	2	health	foodImageDisplay	2	87	27	foodImage.38	FOODEEG_Images\0365.jpg	YN	Left	Yes	0.857827100000577	0	384336	252
752.71875	0.857827100000577	health	choicePhaseStart	2	87	27	foodImage.38	FOODEEG_Images\0365.jpg	YN	Left	Yes	0.857827100000577	0	385393	253
753.568359375	0	health	response	2	87	27	foodImage.38	FOODEEG_Images\0365.jpg	YN	Left	Yes	0.857827100000577	0	385828	234
754.609375	1	taste	trialStart	2	88	28	foodImage.120	FOODEEG_Images\0928.jpg	YN	Right	No	1.15631269999722	0	386361	251
755.6484375	2	taste	foodImageDisplay	2	88	28	foodImage.120	FOODEEG_Images\0928.jpg	YN	Right	No	1.15631269999722	0	386893	252
757.716796875	1.15631269999722	taste	choicePhaseStart	2	88	28	foodImage.120	FOODEEG_Images\0928.jpg	YN	Right	No	1.15631269999722	0	387952	253
758.86328125	0	taste	response	2	88	28	foodImage.120	FOODEEG_Images\0928.jpg	YN	Right	No	1.15631269999722	0	388539	235
759.908203125	1	decision	trialStart	2	89	29	foodImage.7	FOODEEG_Images\0116.jpg	NY	Right	Yes	1.37603640000452	0	389074	251
760.951171875	2	decision	foodImageDisplay	2	89	29	foodImage.7	FOODEEG_Images\0116.jpg	NY	Right	Yes	1.37603640000452	0	389608	252
763.013671875	1.37603640000452	decision	choicePhaseStart	2	89	29	foodImage.7	FOODEEG_Images\0116.jpg	NY	Right	Yes	1.37603640000452	0	390664	253
764.3828125	0	decision	response	2	89	29	foodImage.7	FOODEEG_Images\0116.jpg	NY	Right	Yes	1.37603640000452	0	391365	235
765.42578125	1	health	trialStart	2	90	30	foodImage.54	FOODEEG_Images\0560.jpg	YN	Left	Yes	0.994035800002166	0	391899	251
766.486328125	2	health	foodImageDisplay	2	90	30	foodImage.54	FOODEEG_Images\0560.jpg	YN	Left	Yes	0.994035800002166	0	392442	252
768.55078125	0.994035800002166	health	choicePhaseStart	2	90	30	foodImage.54	FOODEEG_Images\0560.jpg	YN	Left	Yes	0.994035800002166	0	393499	253
769.53515625	0	health	response	2	90	30	foodImage.54	FOODEEG_Images\0560.jpg	YN	Left	Yes	0.994035800002166	0	394003	234
770.578125	1	taste	trialStart	2	91	31	foodImage.4	FOODEEG_Images\0065.jpg	YN	Left	Yes	1.18342279999342	0	394537	251
771.634765625	2	taste	foodImageDisplay	2	91	31	foodImage.4	FOODEEG_Images\0065.jpg	YN	Left	Yes	1.18342279999342	0	395078	252
773.697265625	1.18342279999342	taste	choicePhaseStart	2	91	31	foodImage.4	FOODEEG_Images\0065.jpg	YN	Left	Yes	1.18342279999342	0	396134	253
774.87109375	0	taste	response	2	91	31	foodImage.4	FOODEEG_Images\0065.jpg	YN	Left	Yes	1.18342279999342	0	396735	234
775.9140625	1	taste	trialStart	2	92	32	foodImage.103	FOODEEG_Images\0911.jpg	YN	Right	No	1.15990229998715	0	397269	251
776.953125	2	taste	foodImageDisplay	2	92	32	foodImage.103	FOODEEG_Images\0911.jpg	YN	Right	No	1.15990229998715	0	397801	252
779.015625	1.15990229998715	taste	choicePhaseStart	2	92	32	foodImage.103	FOODEEG_Images\0911.jpg	YN	Right	No	1.15990229998715	0	398857	253
780.166015625	0	taste	response	2	92	32	foodImage.103	FOODEEG_Images\0911.jpg	YN	Right	No	1.15990229998715	0	399446	235
781.208984375	1	health	trialStart	2	93	33	foodImage.75	FOODEEG_Images\0763.jpg	NY	Right	Yes	1.09230879999814	0	399980	251
782.2734375	2	health	foodImageDisplay	2	93	33	foodImage.75	FOODEEG_Images\0763.jpg	NY	Right	Yes	1.09230879999814	0	400525	252
784.3359375	1.09230879999814	health	choicePhaseStart	2	93	33	foodImage.75	FOODEEG_Images\0763.jpg	NY	Right	Yes	1.09230879999814	0	401581	253
785.421875	0	health	response	2	93	33	foodImage.75	FOODEEG_Images\0763.jpg	NY	Right	Yes	1.09230879999814	0	402137	235
786.46484375	1	taste	trialStart	2	94	34	foodImage.116	FOODEEG_Images\0924.jpg	YN	Right	No	1.05756690000999	0	402671	251
787.50390625	2	taste	foodImageDisplay	2	94	34	foodImage.116	FOODEEG_Images\0924.jpg	YN	Right	No	1.05756690000999	0	403203	252
789.57421875	1.05756690000999	taste	choicePhaseStart	2	94	34	foodImage.116	FOODEEG_Images\0924.jpg	YN	Right	No	1.05756690000999	0	404263	253
790.623046875	0	taste	response	2	94	34	foodImage.116	FOODEEG_Images\0924.jpg	YN	Right	No	1.05756690000999	0	404800	235
791.66796875	1	health	trialStart	2	95	35	foodImage.97	FOODEEG_Images\0905.jpg	NY	Left	No	0.963853199995356	0	405335	251
792.70703125	2	health	foodImageDisplay	2	95	35	foodImage.97	FOODEEG_Images\0905.jpg	NY	Left	No	0.963853199995356	0	405867	252
794.771484375	0.963853199995356	health	choicePhaseStart	2	95	35	foodImage.97	FOODEEG_Images\0905.jpg	NY	Left	No	0.963853199995356	0	406924	253
795.7265625	0	health	response	2	95	35	foodImage.97	FOODEEG_Images\0905.jpg	NY	Left	No	0.963853199995356	0	407413	234
796.767578125	1	decision	trialStart	2	96	36	foodImage.50	FOODEEG_Images\0529.jpg	NY	Right	Yes	1.12091549999604	0	407946	251
797.837890625	2	decision	foodImageDisplay	2	96	36	foodImage.50	FOODEEG_Images\0529.jpg	NY	Right	Yes	1.12091549999604	0	408494	252
799.90234375	1.12091549999604	decision	choicePhaseStart	2	96	36	foodImage.50	FOODEEG_Images\0529.jpg	NY	Right	Yes	1.12091549999604	0	409551	253
801.013671875	0	decision	response	2	96	36	foodImage.50	FOODEEG_Images\0529.jpg	NY	Right	Yes	1.12091549999604	0	410120	235
802.056640625	1	decision	trialStart	2	97	37	foodImage.34	FOODEEG_Images\0339.jpg	YN	Left	Yes	1.81832259999646	0	410654	251
803.115234375	2	decision	foodImageDisplay	2	97	37	foodImage.34	FOODEEG_Images\0339.jpg	YN	Left	Yes	1.81832259999646	0	411196	252
805.177734375	1.81832259999646	decision	choicePhaseStart	2	97	37	foodImage.34	FOODEEG_Images\0339.jpg	YN	Left	Yes	1.81832259999646	0	412252	253
806.990234375	0	decision	response	2	97	37	foodImage.34	FOODEEG_Images\0339.jpg	YN	Left	Yes	1.81832259999646	0	413180	234
808.033203125	1	taste	trialStart	2	98	38	foodImage.62	FOODEEG_Images\0644.jpg	NY	Right	Yes	1.08621100000164	0	413714	251
809.10546875	2	taste	foodImageDisplay	2	98	38	foodImage.62	FOODEEG_Images\0644.jpg	NY	Right	Yes	1.08621100000164	0	414263	252
811.16796875	1.08621100000164	taste	choicePhaseStart	2	98	38	foodImage.62	FOODEEG_Images\0644.jpg	NY	Right	Yes	1.08621100000164	0	415319	253
812.24609375	0	taste	response	2	98	38	foodImage.62	FOODEEG_Images\0644.jpg	NY	Right	Yes	1.08621100000164	0	415871	235
813.291015625	1	decision	trialStart	2	99	39	foodImage.87	FOODEEG_Images\0873.jpg	NY	Right	Yes	1.02095959999133	0	416406	251
814.353515625	2	decision	foodImageDisplay	2	99	39	foodImage.87	FOODEEG_Images\0873.jpg	NY	Right	Yes	1.02095959999133	0	416950	252
816.41796875	1.02095959999133	decision	choicePhaseStart	2	99	39	foodImage.87	FOODEEG_Images\0873.jpg	NY	Right	Yes	1.02095959999133	0	418007	253
817.4296875	0	decision	response	2	99	39	foodImage.87	FOODEEG_Images\0873.jpg	NY	Right	Yes	1.02095959999133	0	418525	235
818.470703125	1	decision	trialStart	2	100	40	foodImage.17	FOODEEG_Images\0199.jpg	YN	Left	Yes	1.07669259999238	0	419058	251
819.513671875	2	decision	foodImageDisplay	2	100	40	foodImage.17	FOODEEG_Images\0199.jpg	YN	Left	Yes	1.07669259999238	0	419592	252
821.578125	1.07669259999238	decision	choicePhaseStart	2	100	40	foodImage.17	FOODEEG_Images\0199.jpg	YN	Left	Yes	1.07669259999238	0	420649	253
822.64453125	0	decision	response	2	100	40	foodImage.17	FOODEEG_Images\0199.jpg	YN	Left	Yes	1.07669259999238	0	421195	234
823.6875	1	health	trialStart	2	101	41	foodImage.63	FOODEEG_Images\0645.jpg	YN	Left	Yes	3.66072120000899	0	421729	251
824.728515625	2	health	foodImageDisplay	2	101	41	foodImage.63	FOODEEG_Images\0645.jpg	YN	Left	Yes	3.66072120000899	0	422262	252
826.79296875	3.66072120000899	health	choicePhaseStart	2	101	41	foodImage.63	FOODEEG_Images\0645.jpg	YN	Left	Yes	3.66072120000899	0	423319	253
830.4453125	0	health	response	2	101	41	foodImage.63	FOODEEG_Images\0645.jpg	YN	Left	Yes	3.66072120000899	0	425189	234
831.486328125	1	health	trialStart	2	102	42	foodImage.21	FOODEEG_Images\0234.jpg	NY	Right	Yes	0.972050199998193	0	425722	251
832.544921875	2	health	foodImageDisplay	2	102	42	foodImage.21	FOODEEG_Images\0234.jpg	NY	Right	Yes	0.972050199998193	0	426264	252
834.609375	0.972050199998193	health	choicePhaseStart	2	102	42	foodImage.21	FOODEEG_Images\0234.jpg	NY	Right	Yes	0.972050199998193	0	427321	253
835.572265625	0	health	response	2	102	42	foodImage.21	FOODEEG_Images\0234.jpg	NY	Right	Yes	0.972050199998193	0	427814	235
836.615234375	1	taste	trialStart	2	103	43	foodImage.24	FOODEEG_Images\0250.jpg	NY	Right	Yes	2.35229100000288	0	428348	251
837.669921875	2	taste	foodImageDisplay	2	103	43	foodImage.24	FOODEEG_Images\0250.jpg	NY	Right	Yes	2.35229100000288	0	428888	252
839.732421875	2.35229100000288	taste	choicePhaseStart	2	103	43	foodImage.24	FOODEEG_Images\0250.jpg	NY	Right	Yes	2.35229100000288	0	429944	253
842.076171875	0	taste	response	2	103	43	foodImage.24	FOODEEG_Images\0250.jpg	NY	Right	Yes	2.35229100000288	0	431144	235
843.119140625	1	decision	trialStart	2	104	44	foodImage.111	FOODEEG_Images\0919.jpg	YN	Right	No	1.00905469999998	0	431678	251
844.15625	2	decision	foodImageDisplay	2	104	44	foodImage.111	FOODEEG_Images\0919.jpg	YN	Right	No	1.00905469999998	0	432209	252
846.220703125	1.00905469999998	decision	choicePhaseStart	2	104	44	foodImage.111	FOODEEG_Images\0919.jpg	YN	Right	No	1.00905469999998	0	433266	253
847.220703125	0	decision	response	2	104	44	foodImage.111	FOODEEG_Images\0919.jpg	YN	Right	No	1.00905469999998	0	433778	235
848.263671875	1	health	trialStart	2	105	45	foodImage.59	FOODEEG_Images\0607.jpg	NY	Left	No	1.19969259999925	0	434312	251
849.310546875	2	health	foodImageDisplay	2	105	45	foodImage.59	FOODEEG_Images\0607.jpg	NY	Left	No	1.19969259999925	0	434848	252
851.373046875	1.19969259999925	health	choicePhaseStart	2	105	45	foodImage.59	FOODEEG_Images\0607.jpg	NY	Left	No	1.19969259999925	0	435904	253
852.564453125	0	health	response	2	105	45	foodImage.59	FOODEEG_Images\0607.jpg	NY	Left	No	1.19969259999925	0	436514	234
853.60546875	1	decision	trialStart	2	106	46	foodImage.37	FOODEEG_Images\0359.jpg	NY	Right	Yes	0.853487900007167	0	437047	251
854.6484375	2	decision	foodImageDisplay	2	106	46	foodImage.37	FOODEEG_Images\0359.jpg	NY	Right	Yes	0.853487900007167	0	437581	252
856.7109375	0.853487900007167	decision	choicePhaseStart	2	106	46	foodImage.37	FOODEEG_Images\0359.jpg	NY	Right	Yes	0.853487900007167	0	438637	253
857.5546875	0	decision	response	2	106	46	foodImage.37	FOODEEG_Images\0359.jpg	NY	Right	Yes	0.853487900007167	0	439069	235
858.59765625	1	health	trialStart	2	107	47	foodImage.96	FOODEEG_Images\0904.jpg	NY	Left	No	1.1686294000101	0	439603	251
859.65234375	2	health	foodImageDisplay	2	107	47	foodImage.96	FOODEEG_Images\0904.jpg	NY	Left	No	1.1686294000101	0	440143	252
861.716796875	1.1686294000101	health	choicePhaseStart	2	107	47	foodImage.96	FOODEEG_Images\0904.jpg	NY	Left	No	1.1686294000101	0	441200	253
862.875	0	health	response	2	107	47	foodImage.96	FOODEEG_Images\0904.jpg	NY	Left	No	1.1686294000101	0	441793	234
863.91796875	1	taste	trialStart	2	108	48	foodImage.108	FOODEEG_Images\0916.jpg	NY	Left	No	1.27235400000063	0	442327	251
864.95703125	2	taste	foodImageDisplay	2	108	48	foodImage.108	FOODEEG_Images\0916.jpg	NY	Left	No	1.27235400000063	0	442859	252
867.01953125	1.27235400000063	taste	choicePhaseStart	2	108	48	foodImage.108	FOODEEG_Images\0916.jpg	NY	Left	No	1.27235400000063	0	443915	253
868.283203125	0	taste	response	2	108	48	foodImage.108	FOODEEG_Images\0916.jpg	NY	Left	No	1.27235400000063	0	444562	234
869.32421875	1	taste	trialStart	2	109	49	foodImage.25	FOODEEG_Images\0261.jpg	YN	Left	Yes	1.07284210000944	0	445095	251
870.3671875	2	taste	foodImageDisplay	2	109	49	foodImage.25	FOODEEG_Images\0261.jpg	YN	Left	Yes	1.07284210000944	0	445629	252
872.435546875	1.07284210000944	taste	choicePhaseStart	2	109	49	foodImage.25	FOODEEG_Images\0261.jpg	YN	Left	Yes	1.07284210000944	0	446688	253
873.5	0	taste	response	2	109	49	foodImage.25	FOODEEG_Images\0261.jpg	YN	Left	Yes	1.07284210000944	0	447233	234
874.541015625	1	taste	trialStart	2	110	50	foodImage.14	FOODEEG_Images\0188.jpg	NY	Right	Yes	0.828632200005814	0	447766	251
875.6015625	2	taste	foodImageDisplay	2	110	50	foodImage.14	FOODEEG_Images\0188.jpg	NY	Right	Yes	0.828632200005814	0	448309	252
877.6640625	0.828632200005814	taste	choicePhaseStart	2	110	50	foodImage.14	FOODEEG_Images\0188.jpg	NY	Right	Yes	0.828632200005814	0	449365	253
878.482421875	0	taste	response	2	110	50	foodImage.14	FOODEEG_Images\0188.jpg	NY	Right	Yes	0.828632200005814	0	449784	235
879.525390625	1	health	trialStart	2	111	51	foodImage.113	FOODEEG_Images\0921.jpg	NY	Right	Yes	1.08491560000402	0	450318	251
880.564453125	2	health	foodImageDisplay	2	111	51	foodImage.113	FOODEEG_Images\0921.jpg	NY	Right	Yes	1.08491560000402	0	450850	252
882.626953125	1.08491560000402	health	choicePhaseStart	2	111	51	foodImage.113	FOODEEG_Images\0921.jpg	NY	Right	Yes	1.08491560000402	0	451906	253
883.70703125	0	health	response	2	111	51	foodImage.113	FOODEEG_Images\0921.jpg	NY	Right	Yes	1.08491560000402	0	452459	235
884.75	1	health	trialStart	2	112	52	foodImage.101	FOODEEG_Images\0909.jpg	NY	Right	Yes	1.10252359999868	0	452993	251
885.787109375	2	health	foodImageDisplay	2	112	52	foodImage.101	FOODEEG_Images\0909.jpg	NY	Right	Yes	1.10252359999868	0	453524	252
887.849609375	1.10252359999868	health	choicePhaseStart	2	112	52	foodImage.101	FOODEEG_Images\0909.jpg	NY	Right	Yes	1.10252359999868	0	454580	253
888.947265625	0	health	response	2	112	52	foodImage.101	FOODEEG_Images\0909.jpg	NY	Right	Yes	1.10252359999868	0	455142	235
889.98828125	1	decision	trialStart	2	113	53	foodImage.55	FOODEEG_Images\0567.jpg	NY	Right	Yes	0.881773499990231	0	455675	251
891.06640625	2	decision	foodImageDisplay	2	113	53	foodImage.55	FOODEEG_Images\0567.jpg	NY	Right	Yes	0.881773499990231	0	456227	252
893.130859375	0.881773499990231	decision	choicePhaseStart	2	113	53	foodImage.55	FOODEEG_Images\0567.jpg	NY	Right	Yes	0.881773499990231	0	457284	253
894.001953125	0	decision	response	2	113	53	foodImage.55	FOODEEG_Images\0567.jpg	NY	Right	Yes	0.881773499990231	0	457730	235
895.044921875	1	taste	trialStart	2	114	54	foodImage.7	FOODEEG_Images\0116.jpg	NY	Right	Yes	1.10133809999388	0	458264	251
896.0859375	2	taste	foodImageDisplay	2	114	54	foodImage.7	FOODEEG_Images\0116.jpg	NY	Right	Yes	1.10133809999388	0	458797	252
898.1484375	1.10133809999388	taste	choicePhaseStart	2	114	54	foodImage.7	FOODEEG_Images\0116.jpg	NY	Right	Yes	1.10133809999388	0	459853	253
899.2421875	0	taste	response	2	114	54	foodImage.7	FOODEEG_Images\0116.jpg	NY	Right	Yes	1.10133809999388	0	460413	235
900.2890625	1	taste	trialStart	2	115	55	foodImage.107	FOODEEG_Images\0915.jpg	YN	Left	Yes	1.09232749999501	0	460949	251
901.328125	2	taste	foodImageDisplay	2	115	55	foodImage.107	FOODEEG_Images\0915.jpg	YN	Left	Yes	1.09232749999501	0	461481	252
903.390625	1.09232749999501	taste	choicePhaseStart	2	115	55	foodImage.107	FOODEEG_Images\0915.jpg	YN	Left	Yes	1.09232749999501	0	462537	253
904.474609375	0	taste	response	2	115	55	foodImage.107	FOODEEG_Images\0915.jpg	YN	Left	Yes	1.09232749999501	0	463092	234
905.517578125	1	health	trialStart	2	116	56	foodImage.9	FOODEEG_Images\0138.jpg	NY	Left	No	1.01047060001292	0	463626	251
906.57421875	2	health	foodImageDisplay	2	116	56	foodImage.9	FOODEEG_Images\0138.jpg	NY	Left	No	1.01047060001292	0	464167	252
908.638671875	1.01047060001292	health	choicePhaseStart	2	116	56	foodImage.9	FOODEEG_Images\0138.jpg	NY	Left	No	1.01047060001292	0	465224	253
909.642578125	0	health	response	2	116	56	foodImage.9	FOODEEG_Images\0138.jpg	NY	Left	No	1.01047060001292	0	465738	234
910.685546875	1	health	trialStart	2	117	57	foodImage.77	FOODEEG_Images\0771.jpg	YN	Left	Yes	0.779443300009007	0	466272	251
911.728515625	2	health	foodImageDisplay	2	117	57	foodImage.77	FOODEEG_Images\0771.jpg	YN	Left	Yes	0.779443300009007	0	466806	252
913.791015625	0.779443300009007	health	choicePhaseStart	2	117	57	foodImage.77	FOODEEG_Images\0771.jpg	YN	Left	Yes	0.779443300009007	0	467862	253
914.560546875	0	health	response	2	117	57	foodImage.77	FOODEEG_Images\0771.jpg	YN	Left	Yes	0.779443300009007	0	468256	234
915.6015625	1	health	trialStart	2	118	58	foodImage.44	FOODEEG_Images\0459.jpg	NY	Right	Yes	1.1028026999993	0	468789	251
916.646484375	2	health	foodImageDisplay	2	118	58	foodImage.44	FOODEEG_Images\0459.jpg	NY	Right	Yes	1.1028026999993	0	469324	252
918.70703125	1.1028026999993	health	choicePhaseStart	2	118	58	foodImage.44	FOODEEG_Images\0459.jpg	NY	Right	Yes	1.1028026999993	0	470379	253
919.80078125	0	health	response	2	118	58	foodImage.44	FOODEEG_Images\0459.jpg	NY	Right	Yes	1.1028026999993	0	470939	235
920.84375	1	decision	trialStart	2	119	59	foodImage.82	FOODEEG_Images\0805.jpg	YN	Left	Yes	1.39061129999754	0	471473	251
921.900390625	2	decision	foodImageDisplay	2	119	59	foodImage.82	FOODEEG_Images\0805.jpg	YN	Left	Yes	1.39061129999754	0	472014	252
923.96484375	1.39061129999754	decision	choicePhaseStart	2	119	59	foodImage.82	FOODEEG_Images\0805.jpg	YN	Left	Yes	1.39061129999754	0	473071	253
925.345703125	0	decision	response	2	119	59	foodImage.82	FOODEEG_Images\0805.jpg	YN	Left	Yes	1.39061129999754	0	473778	234
926.388671875	1	decision	trialStart	2	120	60	foodImage.3	FOODEEG_Images\0046.jpg	NY	Right	Yes	3.07260739999765	0	474312	251
927.431640625	2	decision	foodImageDisplay	2	120	60	foodImage.3	FOODEEG_Images\0046.jpg	NY	Right	Yes	3.07260739999765	0	474846	252
929.494140625	3.07260739999765	decision	choicePhaseStart	2	120	60	foodImage.3	FOODEEG_Images\0046.jpg	NY	Right	Yes	3.07260739999765	0	475902	253
932.560546875	0	decision	response	2	120	60	foodImage.3	FOODEEG_Images\0046.jpg	NY	Right	Yes	3.07260739999765	0	477472	235
934.603515625	10.025390625	n/a	blockEnd	n/a	n/a	n/a	n/a	n/a	n/a	n/a	n/a	n/a	n/a	478518	254
944.62890625	2	n/a	blockStart	3	n/a	n/a	n/a	n/a	n/a	n/a	n/a	n/a	n/a	483651	250
946.662109375	1	taste	trialStart	3	121	1	foodImage.111	FOODEEG_Images\0919.jpg	NY	Left	No	0.963793100003386	0	484692	251
947.701171875	2	taste	foodImageDisplay	3	121	1	foodImage.111	FOODEEG_Images\0919.jpg	NY	Left	No	0.963793100003386	0	485224	252
949.765625	0.963793100003386	taste	choicePhaseStart	3	121	1	foodImage.111	FOODEEG_Images\0919.jpg	NY	Left	No	0.963793100003386	0	486281	253
950.720703125	0	taste	response	3	121	1	foodImage.111	FOODEEG_Images\0919.jpg	NY	Left	No	0.963793100003386	0	486770	234
951.76171875	1	health	trialStart	3	122	2	foodImage.23	FOODEEG_Images\0244.jpg	YN	Left	Yes	1.06970959999308	0	487303	251
952.8046875	2	health	foodImageDisplay	3	122	2	foodImage.23	FOODEEG_Images\0244.jpg	YN	Left	Yes	1.06970959999308	0	487837	252
954.8671875	1.06970959999308	health	choicePhaseStart	3	122	2	foodImage.23	FOODEEG_Images\0244.jpg	YN	Left	Yes	1.06970959999308	0	488893	253
955.927734375	0	health	response	3	122	2	foodImage.23	FOODEEG_Images\0244.jpg	YN	Left	Yes	1.06970959999308	0	489436	234
956.96875	1	decision	trialStart	3	123	3	foodImage.74	FOODEEG_Images\0752.jpg	YN	Left	Yes	0.956735799991293	0	489969	251
958.01171875	2	decision	foodImageDisplay	3	123	3	foodImage.74	FOODEEG_Images\0752.jpg	YN	Left	Yes	0.956735799991293	0	490503	252
960.076171875	0.956735799991293	decision	choicePhaseStart	3	123	3	foodImage.74	FOODEEG_Images\0752.jpg	YN	Left	Yes	0.956735799991293	0	491560	253
961.0234375	0	decision	response	3	123	3	foodImage.74	FOODEEG_Images\0752.jpg	YN	Left	Yes	0.956735799991293	0	492045	234
962.064453125	1	decision	trialStart	3	124	4	foodImage.120	FOODEEG_Images\0928.jpg	YN	Right	No	1.0093945999979	0	492578	251
963.103515625	2	decision	foodImageDisplay	3	124	4	foodImage.120	FOODEEG_Images\0928.jpg	YN	Right	No	1.0093945999979	0	493110	252
965.16796875	1.0093945999979	decision	choicePhaseStart	3	124	4	foodImage.120	FOODEEG_Images\0928.jpg	YN	Right	No	1.0093945999979	0	494167	253
966.16796875	0	decision	response	3	124	4	foodImage.120	FOODEEG_Images\0928.jpg	YN	Right	No	1.0093945999979	0	494679	235
967.208984375	1	health	trialStart	3	125	5	foodImage.88	FOODEEG_Images\0878.jpg	YN	Right	No	1.20767309999792	0	495212	251
968.2890625	2	health	foodImageDisplay	3	125	5	foodImage.88	FOODEEG_Images\0878.jpg	YN	Right	No	1.20767309999792	0	495765	252
970.3515625	1.20767309999792	health	choicePhaseStart	3	125	5	foodImage.88	FOODEEG_Images\0878.jpg	YN	Right	No	1.20767309999792	0	496821	253
971.55078125	0	health	response	3	125	5	foodImage.88	FOODEEG_Images\0878.jpg	YN	Right	No	1.20767309999792	0	497435	235
972.59375	1	decision	trialStart	3	126	6	foodImage.41	FOODEEG_Images\0409.jpg	NY	Right	Yes	0.798643499991158	0	497969	251
973.640625	2	decision	foodImageDisplay	3	126	6	foodImage.41	FOODEEG_Images\0409.jpg	NY	Right	Yes	0.798643499991158	0	498505	252
975.705078125	0.798643499991158	decision	choicePhaseStart	3	126	6	foodImage.41	FOODEEG_Images\0409.jpg	NY	Right	Yes	0.798643499991158	0	499562	253
976.494140625	0	decision	response	3	126	6	foodImage.41	FOODEEG_Images\0409.jpg	NY	Right	Yes	0.798643499991158	0	499966	235
977.5390625	1	taste	trialStart	3	127	7	foodImage.60	FOODEEG_Images\0614.jpg	YN	Left	Yes	0.803651199996239	0	500501	251
978.595703125	2	taste	foodImageDisplay	3	127	7	foodImage.60	FOODEEG_Images\0614.jpg	YN	Left	Yes	0.803651199996239	0	501042	252
980.66015625	0.803651199996239	taste	choicePhaseStart	3	127	7	foodImage.60	FOODEEG_Images\0614.jpg	YN	Left	Yes	0.803651199996239	0	502099	253
981.455078125	0	taste	response	3	127	7	foodImage.60	FOODEEG_Images\0614.jpg	YN	Left	Yes	0.803651199996239	0	502506	234
982.498046875	1	taste	trialStart	3	128	8	foodImage.41	FOODEEG_Images\0409.jpg	YN	Left	Yes	1.0635798000003	0	503040	251
983.544921875	2	taste	foodImageDisplay	3	128	8	foodImage.41	FOODEEG_Images\0409.jpg	YN	Left	Yes	1.0635798000003	0	503576	252
985.609375	1.0635798000003	taste	choicePhaseStart	3	128	8	foodImage.41	FOODEEG_Images\0409.jpg	YN	Left	Yes	1.0635798000003	0	504633	253
986.662109375	0	taste	response	3	128	8	foodImage.41	FOODEEG_Images\0409.jpg	YN	Left	Yes	1.0635798000003	0	505172	234
987.705078125	1	health	trialStart	3	129	9	foodImage.40	FOODEEG_Images\0373.jpg	YN	Right	No	0.999849799991352	0	505706	251
988.765625	2	health	foodImageDisplay	3	129	9	foodImage.40	FOODEEG_Images\0373.jpg	YN	Right	No	0.999849799991352	0	506249	252
990.83203125	0.999849799991352	health	choicePhaseStart	3	129	9	foodImage.40	FOODEEG_Images\0373.jpg	YN	Right	No	0.999849799991352	0	507307	253
991.822265625	0	health	response	3	129	9	foodImage.40	FOODEEG_Images\0373.jpg	YN	Right	No	0.999849799991352	0	507814	235
992.865234375	1	taste	trialStart	3	130	10	foodImage.18	FOODEEG_Images\0202.jpg	NY	Right	Yes	1.22081430000253	0	508348	251
993.921875	2	taste	foodImageDisplay	3	130	10	foodImage.18	FOODEEG_Images\0202.jpg	NY	Right	Yes	1.22081430000253	0	508889	252
995.984375	1.22081430000253	taste	choicePhaseStart	3	130	10	foodImage.18	FOODEEG_Images\0202.jpg	NY	Right	Yes	1.22081430000253	0	509945	253
997.197265625	0	taste	response	3	130	10	foodImage.18	FOODEEG_Images\0202.jpg	NY	Right	Yes	1.22081430000253	0	510566	235
998.240234375	1	taste	trialStart	3	131	11	foodImage.102	FOODEEG_Images\0910.jpg	NY	Left	No	0.972749799999292	0	511100	251
999.28125	2	taste	foodImageDisplay	3	131	11	foodImage.102	FOODEEG_Images\0910.jpg	NY	Left	No	0.972749799999292	0	511633	252
1001.34375	0.972749799999292	taste	choicePhaseStart	3	131	11	foodImage.102	FOODEEG_Images\0910.jpg	NY	Left	No	0.972749799999292	0	512689	253
1002.310546875	0	taste	response	3	131	11	foodImage.102	FOODEEG_Images\0910.jpg	NY	Left	No	0.972749799999292	0	513184	234
1003.353515625	1	taste	trialStart	3	132	12	foodImage.105	FOODEEG_Images\0913.jpg	YN	Left	Yes	1.79322229999525	0	513718	251
1004.40625	2	taste	foodImageDisplay	3	132	12	foodImage.105	FOODEEG_Images\0913.jpg	YN	Left	Yes	1.79322229999525	0	514257	252
1006.470703125	1.79322229999525	taste	choicePhaseStart	3	132	12	foodImage.105	FOODEEG_Images\0913.jpg	YN	Left	Yes	1.79322229999525	0	515314	253
1008.25390625	0	taste	response	3	132	12	foodImage.105	FOODEEG_Images\0913.jpg	YN	Left	Yes	1.79322229999525	0	516227	234
1009.296875	1	taste	trialStart	3	133	13	foodImage.10	FOODEEG_Images\0145.jpg	YN	Left	Yes	1.24534750000748	0	516761	251
1010.37890625	2	taste	foodImageDisplay	3	133	13	foodImage.10	FOODEEG_Images\0145.jpg	YN	Left	Yes	1.24534750000748	0	517315	252
1012.44140625	1.24534750000748	taste	choicePhaseStart	3	133	13	foodImage.10	FOODEEG_Images\0145.jpg	YN	Left	Yes	1.24534750000748	0	518371	253
1013.677734375	0	taste	response	3	133	13	foodImage.10	FOODEEG_Images\0145.jpg	YN	Left	Yes	1.24534750000748	0	519004	234
1014.720703125	1	taste	trialStart	3	134	14	foodImage.104	FOODEEG_Images\0912.jpg	NY	Left	No	1.03973150000093	0	519538	251
1015.759765625	2	taste	foodImageDisplay	3	134	14	foodImage.104	FOODEEG_Images\0912.jpg	NY	Left	No	1.03973150000093	0	520070	252
1017.822265625	1.03973150000093	taste	choicePhaseStart	3	134	14	foodImage.104	FOODEEG_Images\0912.jpg	NY	Left	No	1.03973150000093	0	521126	253
1018.853515625	0	taste	response	3	134	14	foodImage.104	FOODEEG_Images\0912.jpg	NY	Left	No	1.03973150000093	0	521654	234
1019.896484375	1	taste	trialStart	3	135	15	foodImage.67	FOODEEG_Images\0679.jpg	NY	Right	Yes	0.967958099994576	0	522188	251
1020.951171875	2	taste	foodImageDisplay	3	135	15	foodImage.67	FOODEEG_Images\0679.jpg	NY	Right	Yes	0.967958099994576	0	522728	252
1023.013671875	0.967958099994576	taste	choicePhaseStart	3	135	15	foodImage.67	FOODEEG_Images\0679.jpg	NY	Right	Yes	0.967958099994576	0	523784	253
1023.97265625	0	taste	response	3	135	15	foodImage.67	FOODEEG_Images\0679.jpg	NY	Right	Yes	0.967958099994576	0	524275	235
1025.013671875	1	health	trialStart	3	136	16	foodImage.85	FOODEEG_Images\0841.jpg	NY	Left	No	1.04489440000907	0	524808	251
1026.072265625	2	health	foodImageDisplay	3	136	16	foodImage.85	FOODEEG_Images\0841.jpg	NY	Left	No	1.04489440000907	0	525350	252
1028.13671875	1.04489440000907	health	choicePhaseStart	3	136	16	foodImage.85	FOODEEG_Images\0841.jpg	NY	Left	No	1.04489440000907	0	526407	253
1029.171875	0	health	response	3	136	16	foodImage.85	FOODEEG_Images\0841.jpg	NY	Left	No	1.04489440000907	0	526937	234
1030.21484375	1	decision	trialStart	3	137	17	foodImage.100	FOODEEG_Images\0908.jpg	YN	Left	Yes	1.59263719999581	0	527471	251
1031.25390625	2	decision	foodImageDisplay	3	137	17	foodImage.100	FOODEEG_Images\0908.jpg	YN	Left	Yes	1.59263719999581	0	528003	252
1033.31640625	1.59263719999581	decision	choicePhaseStart	3	137	17	foodImage.100	FOODEEG_Images\0908.jpg	YN	Left	Yes	1.59263719999581	0	529059	253
1034.900390625	0	decision	response	3	137	17	foodImage.100	FOODEEG_Images\0908.jpg	YN	Left	Yes	1.59263719999581	0	529870	234
1035.943359375	1	taste	trialStart	3	138	18	foodImage.22	FOODEEG_Images\0236.jpg	NY	Right	Yes	1.23092289999477	0	530404	251
1036.982421875	2	taste	foodImageDisplay	3	138	18	foodImage.22	FOODEEG_Images\0236.jpg	NY	Right	Yes	1.23092289999477	0	530936	252
1039.046875	1.23092289999477	taste	choicePhaseStart	3	138	18	foodImage.22	FOODEEG_Images\0236.jpg	NY	Right	Yes	1.23092289999477	0	531993	253
1040.267578125	0	taste	response	3	138	18	foodImage.22	FOODEEG_Images\0236.jpg	NY	Right	Yes	1.23092289999477	0	532618	235
1041.310546875	1	health	trialStart	3	139	19	foodImage.33	FOODEEG_Images\0329.jpg	YN	Left	Yes	1.52565730000788	0	533152	251
1042.353515625	2	health	foodImageDisplay	3	139	19	foodImage.33	FOODEEG_Images\0329.jpg	YN	Left	Yes	1.52565730000788	0	533686	252
1044.416015625	1.52565730000788	health	choicePhaseStart	3	139	19	foodImage.33	FOODEEG_Images\0329.jpg	YN	Left	Yes	1.52565730000788	0	534742	253
1045.931640625	0	health	response	3	139	19	foodImage.33	FOODEEG_Images\0329.jpg	YN	Left	Yes	1.52565730000788	0	535518	234
1046.974609375	1	taste	trialStart	3	140	20	foodImage.8	FOODEEG_Images\0136.jpg	NY	Left	No	1.29366280000249	0	536052	251
1048.015625	2	taste	foodImageDisplay	3	140	20	foodImage.8	FOODEEG_Images\0136.jpg	NY	Left	No	1.29366280000249	0	536585	252
1050.080078125	1.29366280000249	taste	choicePhaseStart	3	140	20	foodImage.8	FOODEEG_Images\0136.jpg	NY	Left	No	1.29366280000249	0	537642	253
1051.365234375	0	taste	response	3	140	20	foodImage.8	FOODEEG_Images\0136.jpg	NY	Left	No	1.29366280000249	0	538300	234
1052.40625	1	decision	trialStart	3	141	21	foodImage.21	FOODEEG_Images\0234.jpg	NY	Right	Yes	0.943024299995159	0	538833	251
1053.462890625	2	decision	foodImageDisplay	3	141	21	foodImage.21	FOODEEG_Images\0234.jpg	NY	Right	Yes	0.943024299995159	0	539374	252
1055.52734375	0.943024299995159	decision	choicePhaseStart	3	141	21	foodImage.21	FOODEEG_Images\0234.jpg	NY	Right	Yes	0.943024299995159	0	540431	253
1056.458984375	0	decision	response	3	141	21	foodImage.21	FOODEEG_Images\0234.jpg	NY	Right	Yes	0.943024299995159	0	540908	235
1057.501953125	1	decision	trialStart	3	142	22	foodImage.84	FOODEEG_Images\0830.jpg	YN	Left	Yes	1.13198390000616	0	541442	251
1058.560546875	2	decision	foodImageDisplay	3	142	22	foodImage.84	FOODEEG_Images\0830.jpg	YN	Left	Yes	1.13198390000616	0	541984	252
1060.625	1.13198390000616	decision	choicePhaseStart	3	142	22	foodImage.84	FOODEEG_Images\0830.jpg	YN	Left	Yes	1.13198390000616	0	543041	253
1061.748046875	0	decision	response	3	142	22	foodImage.84	FOODEEG_Images\0830.jpg	YN	Left	Yes	1.13198390000616	0	543616	234
1062.791015625	1	taste	trialStart	3	143	23	foodImage.81	FOODEEG_Images\0797.jpg	NY	Right	Yes	1.06801170000108	0	544150	251
1063.849609375	2	taste	foodImageDisplay	3	143	23	foodImage.81	FOODEEG_Images\0797.jpg	NY	Right	Yes	1.06801170000108	0	544692	252
1065.912109375	1.06801170000108	taste	choicePhaseStart	3	143	23	foodImage.81	FOODEEG_Images\0797.jpg	NY	Right	Yes	1.06801170000108	0	545748	253
1066.970703125	0	taste	response	3	143	23	foodImage.81	FOODEEG_Images\0797.jpg	NY	Right	Yes	1.06801170000108	0	546290	235
1068.013671875	1	taste	trialStart	3	144	24	foodImage.71	FOODEEG_Images\0713.jpg	NY	Right	Yes	0.884729699988384	0	546824	251
1069.056640625	2	taste	foodImageDisplay	3	144	24	foodImage.71	FOODEEG_Images\0713.jpg	NY	Right	Yes	0.884729699988384	0	547358	252
1071.119140625	0.884729699988384	taste	choicePhaseStart	3	144	24	foodImage.71	FOODEEG_Images\0713.jpg	NY	Right	Yes	0.884729699988384	0	548414	253
1071.994140625	0	taste	response	3	144	24	foodImage.71	FOODEEG_Images\0713.jpg	NY	Right	Yes	0.884729699988384	0	548862	235
1073.037109375	1	health	trialStart	3	145	25	foodImage.51	FOODEEG_Images\0536.jpg	NY	Left	No	1.16189479999593	0	549396	251
1074.08203125	2	health	foodImageDisplay	3	145	25	foodImage.51	FOODEEG_Images\0536.jpg	NY	Left	No	1.16189479999593	0	549931	252
1076.146484375	1.16189479999593	health	choicePhaseStart	3	145	25	foodImage.51	FOODEEG_Images\0536.jpg	NY	Left	No	1.16189479999593	0	550988	253
1077.298828125	0	health	response	3	145	25	foodImage.51	FOODEEG_Images\0536.jpg	NY	Left	No	1.16189479999593	0	551578	234
1078.341796875	1	health	trialStart	3	146	26	foodImage.26	FOODEEG_Images\0262.jpg	YN	Left	Yes	1.47567099999287	0	552112	251
1079.384765625	2	health	foodImageDisplay	3	146	26	foodImage.26	FOODEEG_Images\0262.jpg	YN	Left	Yes	1.47567099999287	0	552646	252
1081.44921875	1.47567099999287	health	choicePhaseStart	3	146	26	foodImage.26	FOODEEG_Images\0262.jpg	YN	Left	Yes	1.47567099999287	0	553703	253
1082.9140625	0	health	response	3	146	26	foodImage.26	FOODEEG_Images\0262.jpg	YN	Left	Yes	1.47567099999287	0	554453	234
1083.95703125	1	decision	trialStart	3	147	27	foodImage.103	FOODEEG_Images\0911.jpg	YN	Right	No	1.21447550000448	0	554987	251
1084.99609375	2	decision	foodImageDisplay	3	147	27	foodImage.103	FOODEEG_Images\0911.jpg	YN	Right	No	1.21447550000448	0	555519	252
1087.060546875	1.21447550000448	decision	choicePhaseStart	3	147	27	foodImage.103	FOODEEG_Images\0911.jpg	YN	Right	No	1.21447550000448	0	556576	253
1088.265625	0	decision	response	3	147	27	foodImage.103	FOODEEG_Images\0911.jpg	YN	Right	No	1.21447550000448	0	557193	235
1089.306640625	1	health	trialStart	3	148	28	foodImage.98	FOODEEG_Images\0906.jpg	YN	Right	No	1.59458869999798	0	557726	251
1090.345703125	2	health	foodImageDisplay	3	148	28	foodImage.98	FOODEEG_Images\0906.jpg	YN	Right	No	1.59458869999798	0	558258	252
1092.41015625	1.59458869999798	health	choicePhaseStart	3	148	28	foodImage.98	FOODEEG_Images\0906.jpg	YN	Right	No	1.59458869999798	0	559315	253
1093.994140625	0	health	response	3	148	28	foodImage.98	FOODEEG_Images\0906.jpg	YN	Right	No	1.59458869999798	0	560126	235
1095.0390625	1	taste	trialStart	3	149	29	foodImage.100	FOODEEG_Images\0908.jpg	NY	Left	No	2.55727959999058	0	560661	251
1096.080078125	2	taste	foodImageDisplay	3	149	29	foodImage.100	FOODEEG_Images\0908.jpg	NY	Left	No	2.55727959999058	0	561194	252
1098.142578125	2.55727959999058	taste	choicePhaseStart	3	149	29	foodImage.100	FOODEEG_Images\0908.jpg	NY	Left	No	2.55727959999058	0	562250	253
1100.689453125	0	taste	response	3	149	29	foodImage.100	FOODEEG_Images\0908.jpg	NY	Left	No	2.55727959999058	0	563554	234
1101.732421875	1	taste	trialStart	3	150	30	foodImage.2	FOODEEG_Images\0028.jpg	YN	Left	Yes	1.40687410000828	0	564088	251
1102.7734375	2	taste	foodImageDisplay	3	150	30	foodImage.2	FOODEEG_Images\0028.jpg	YN	Left	Yes	1.40687410000828	0	564621	252
1104.8359375	1.40687410000828	taste	choicePhaseStart	3	150	30	foodImage.2	FOODEEG_Images\0028.jpg	YN	Left	Yes	1.40687410000828	0	565677	253
1106.234375	0	taste	response	3	150	30	foodImage.2	FOODEEG_Images\0028.jpg	YN	Left	Yes	1.40687410000828	0	566393	234
1107.275390625	1	health	trialStart	3	151	31	foodImage.74	FOODEEG_Images\0752.jpg	NY	Right	Yes	0.996380299999146	0	566926	251
1108.3203125	2	health	foodImageDisplay	3	151	31	foodImage.74	FOODEEG_Images\0752.jpg	NY	Right	Yes	0.996380299999146	0	567461	252
1110.3828125	0.996380299999146	health	choicePhaseStart	3	151	31	foodImage.74	FOODEEG_Images\0752.jpg	NY	Right	Yes	0.996380299999146	0	568517	253
1111.369140625	0	health	response	3	151	31	foodImage.74	FOODEEG_Images\0752.jpg	NY	Right	Yes	0.996380299999146	0	569022	235
1112.412109375	1	decision	trialStart	3	152	32	foodImage.51	FOODEEG_Images\0536.jpg	YN	Right	No	1.37294589998783	0	569556	251
1113.45703125	2	decision	foodImageDisplay	3	152	32	foodImage.51	FOODEEG_Images\0536.jpg	YN	Right	No	1.37294589998783	0	570091	252
1115.5234375	1.37294589998783	decision	choicePhaseStart	3	152	32	foodImage.51	FOODEEG_Images\0536.jpg	YN	Right	No	1.37294589998783	0	571149	253
1116.888671875	0	decision	response	3	152	32	foodImage.51	FOODEEG_Images\0536.jpg	YN	Right	No	1.37294589998783	0	571848	235
1117.931640625	1	health	trialStart	3	153	33	foodImage.79	FOODEEG_Images\0794.jpg	YN	Left	Yes	1.01924199999485	0	572382	251
1118.974609375	2	health	foodImageDisplay	3	153	33	foodImage.79	FOODEEG_Images\0794.jpg	YN	Left	Yes	1.01924199999485	0	572916	252
1121.0390625	1.01924199999485	health	choicePhaseStart	3	153	33	foodImage.79	FOODEEG_Images\0794.jpg	YN	Left	Yes	1.01924199999485	0	573973	253
1122.048828125	0	health	response	3	153	33	foodImage.79	FOODEEG_Images\0794.jpg	YN	Left	Yes	1.01924199999485	0	574490	234
1123.091796875	1	decision	trialStart	3	154	34	foodImage.58	FOODEEG_Images\0605.jpg	YN	Left	Yes	4.08277649999945	0	575024	251
1124.17578125	2	decision	foodImageDisplay	3	154	34	foodImage.58	FOODEEG_Images\0605.jpg	YN	Left	Yes	4.08277649999945	0	575579	252
1126.23828125	4.08277649999945	decision	choicePhaseStart	3	154	34	foodImage.58	FOODEEG_Images\0605.jpg	YN	Left	Yes	4.08277649999945	0	576635	253
1130.3125	0	decision	response	3	154	34	foodImage.58	FOODEEG_Images\0605.jpg	YN	Left	Yes	4.08277649999945	0	578721	234
1131.357421875	1	taste	trialStart	3	155	35	foodImage.101	FOODEEG_Images\0909.jpg	NY	Left	No	0.983531399993808	0	579256	251
1132.39453125	2	taste	foodImageDisplay	3	155	35	foodImage.101	FOODEEG_Images\0909.jpg	NY	Left	No	0.983531399993808	0	579787	252
1134.458984375	0.983531399993808	taste	choicePhaseStart	3	155	35	foodImage.101	FOODEEG_Images\0909.jpg	NY	Left	No	0.983531399993808	0	580844	253
1135.43359375	0	taste	response	3	155	35	foodImage.101	FOODEEG_Images\0909.jpg	NY	Left	No	0.983531399993808	0	581343	234
1136.474609375	1	taste	trialStart	3	156	36	foodImage.115	FOODEEG_Images\0923.jpg	NY	Left	No	1.18454960000236	0	581876	251
1137.513671875	2	taste	foodImageDisplay	3	156	36	foodImage.115	FOODEEG_Images\0923.jpg	NY	Left	No	1.18454960000236	0	582408	252
1139.578125	1.18454960000236	taste	choicePhaseStart	3	156	36	foodImage.115	FOODEEG_Images\0923.jpg	NY	Left	No	1.18454960000236	0	583465	253
1140.751953125	0	taste	response	3	156	36	foodImage.115	FOODEEG_Images\0923.jpg	NY	Left	No	1.18454960000236	0	584066	234
1141.794921875	1	decision	trialStart	3	157	37	foodImage.92	FOODEEG_Images\0900.jpg	YN	Right	No	1.42194050000398	0	584600	251
1142.833984375	2	decision	foodImageDisplay	3	157	37	foodImage.92	FOODEEG_Images\0900.jpg	YN	Right	No	1.42194050000398	0	585132	252
1144.896484375	1.42194050000398	decision	choicePhaseStart	3	157	37	foodImage.92	FOODEEG_Images\0900.jpg	YN	Right	No	1.42194050000398	0	586188	253
1146.3125	0	decision	response	3	157	37	foodImage.92	FOODEEG_Images\0900.jpg	YN	Right	No	1.42194050000398	0	586913	235
1147.35546875	1	decision	trialStart	3	158	38	foodImage.114	FOODEEG_Images\0922.jpg	YN	Right	No	1.63639619998867	0	587447	251
1148.392578125	2	decision	foodImageDisplay	3	158	38	foodImage.114	FOODEEG_Images\0922.jpg	YN	Right	No	1.63639619998867	0	587978	252
1150.4609375	1.63639619998867	decision	choicePhaseStart	3	158	38	foodImage.114	FOODEEG_Images\0922.jpg	YN	Right	No	1.63639619998867	0	589037	253
1152.087890625	0	decision	response	3	158	38	foodImage.114	FOODEEG_Images\0922.jpg	YN	Right	No	1.63639619998867	0	589870	235
1153.12890625	1	health	trialStart	3	159	39	foodImage.112	FOODEEG_Images\0920.jpg	YN	Right	No	1.19694710000476	0	590403	251
1154.173828125	2	health	foodImageDisplay	3	159	39	foodImage.112	FOODEEG_Images\0920.jpg	YN	Right	No	1.19694710000476	0	590938	252
1156.236328125	1.19694710000476	health	choicePhaseStart	3	159	39	foodImage.112	FOODEEG_Images\0920.jpg	YN	Right	No	1.19694710000476	0	591994	253
1157.423828125	0	health	response	3	159	39	foodImage.112	FOODEEG_Images\0920.jpg	YN	Right	No	1.19694710000476	0	592602	235
1158.466796875	1	taste	trialStart	3	160	40	foodImage.35	FOODEEG_Images\0350.jpg	YN	Left	Yes	1.38402499999211	0	593136	251
1159.505859375	2	taste	foodImageDisplay	3	160	40	foodImage.35	FOODEEG_Images\0350.jpg	YN	Left	Yes	1.38402499999211	0	593668	252
1161.568359375	1.38402499999211	taste	choicePhaseStart	3	160	40	foodImage.35	FOODEEG_Images\0350.jpg	YN	Left	Yes	1.38402499999211	0	594724	253
1162.943359375	0	taste	response	3	160	40	foodImage.35	FOODEEG_Images\0350.jpg	YN	Left	Yes	1.38402499999211	0	595428	234
1163.986328125	1	taste	trialStart	3	161	41	foodImage.46	FOODEEG_Images\0479.jpg	NY	Right	Yes	0.913981900012004	0	595962	251
1165.044921875	2	taste	foodImageDisplay	3	161	41	foodImage.46	FOODEEG_Images\0479.jpg	NY	Right	Yes	0.913981900012004	0	596504	252
1167.111328125	0.913981900012004	taste	choicePhaseStart	3	161	41	foodImage.46	FOODEEG_Images\0479.jpg	NY	Right	Yes	0.913981900012004	0	597562	253
1168.015625	0	taste	response	3	161	41	foodImage.46	FOODEEG_Images\0479.jpg	NY	Right	Yes	0.913981900012004	0	598025	235
1169.05859375	1	decision	trialStart	3	162	42	foodImage.97	FOODEEG_Images\0905.jpg	NY	Left	No	1.04002479999326	0	598559	251
1170.09765625	2	decision	foodImageDisplay	3	162	42	foodImage.97	FOODEEG_Images\0905.jpg	NY	Left	No	1.04002479999326	0	599091	252
1172.16015625	1.04002479999326	decision	choicePhaseStart	3	162	42	foodImage.97	FOODEEG_Images\0905.jpg	NY	Left	No	1.04002479999326	0	600147	253
1173.19140625	0	decision	response	3	162	42	foodImage.97	FOODEEG_Images\0905.jpg	NY	Left	No	1.04002479999326	0	600675	234
1174.234375	1	health	trialStart	3	163	43	foodImage.103	FOODEEG_Images\0911.jpg	NY	Left	No	1.16190390000702	0	601209	251
1175.271484375	2	health	foodImageDisplay	3	163	43	foodImage.103	FOODEEG_Images\0911.jpg	NY	Left	No	1.16190390000702	0	601740	252
1177.333984375	1.16190390000702	health	choicePhaseStart	3	163	43	foodImage.103	FOODEEG_Images\0911.jpg	NY	Left	No	1.16190390000702	0	602796	253
1178.486328125	0	health	response	3	163	43	foodImage.103	FOODEEG_Images\0911.jpg	NY	Left	No	1.16190390000702	0	603386	234
1179.529296875	1	health	trialStart	3	164	44	foodImage.15	FOODEEG_Images\0189.jpg	NY	Left	No	0.908834000001661	0	603920	251
1180.587890625	2	health	foodImageDisplay	3	164	44	foodImage.15	FOODEEG_Images\0189.jpg	NY	Left	No	0.908834000001661	0	604462	252
1182.65234375	0.908834000001661	health	choicePhaseStart	3	164	44	foodImage.15	FOODEEG_Images\0189.jpg	NY	Left	No	0.908834000001661	0	605519	253
1183.55078125	0	health	response	3	164	44	foodImage.15	FOODEEG_Images\0189.jpg	NY	Left	No	0.908834000001661	0	605979	234
1184.59375	1	health	trialStart	3	165	45	foodImage.107	FOODEEG_Images\0915.jpg	YN	Left	Yes	1.00793040001008	0	606513	251
1185.630859375	2	health	foodImageDisplay	3	165	45	foodImage.107	FOODEEG_Images\0915.jpg	YN	Left	Yes	1.00793040001008	0	607044	252
1187.6953125	1.00793040001008	health	choicePhaseStart	3	165	45	foodImage.107	FOODEEG_Images\0915.jpg	YN	Left	Yes	1.00793040001008	0	608101	253
1188.6953125	0	health	response	3	165	45	foodImage.107	FOODEEG_Images\0915.jpg	YN	Left	Yes	1.00793040001008	0	608613	234
1189.736328125	1	taste	trialStart	3	166	46	foodImage.63	FOODEEG_Images\0645.jpg	NY	Right	Yes	0.885771199988085	0	609146	251
1190.779296875	2	taste	foodImageDisplay	3	166	46	foodImage.63	FOODEEG_Images\0645.jpg	NY	Right	Yes	0.885771199988085	0	609680	252
1192.841796875	0.885771199988085	taste	choicePhaseStart	3	166	46	foodImage.63	FOODEEG_Images\0645.jpg	NY	Right	Yes	0.885771199988085	0	610736	253
1193.71875	0	taste	response	3	166	46	foodImage.63	FOODEEG_Images\0645.jpg	NY	Right	Yes	0.885771199988085	0	611185	235
1194.759765625	1	taste	trialStart	3	167	47	foodImage.23	FOODEEG_Images\0244.jpg	YN	Right	No	1.48614719999023	0	611718	251
1195.80078125	2	taste	foodImageDisplay	3	167	47	foodImage.23	FOODEEG_Images\0244.jpg	YN	Right	No	1.48614719999023	0	612251	252
1197.865234375	1.48614719999023	taste	choicePhaseStart	3	167	47	foodImage.23	FOODEEG_Images\0244.jpg	YN	Right	No	1.48614719999023	0	613308	253
1199.341796875	0	taste	response	3	167	47	foodImage.23	FOODEEG_Images\0244.jpg	YN	Right	No	1.48614719999023	0	614064	235
1200.384765625	1	taste	trialStart	3	168	48	foodImage.15	FOODEEG_Images\0189.jpg	YN	Right	No	0.949068600006285	0	614598	251
1201.443359375	2	taste	foodImageDisplay	3	168	48	foodImage.15	FOODEEG_Images\0189.jpg	YN	Right	No	0.949068600006285	0	615140	252
1203.505859375	0.949068600006285	taste	choicePhaseStart	3	168	48	foodImage.15	FOODEEG_Images\0189.jpg	YN	Right	No	0.949068600006285	0	616196	253
1204.4453125	0	taste	response	3	168	48	foodImage.15	FOODEEG_Images\0189.jpg	YN	Right	No	0.949068600006285	0	616677	235
1205.48828125	1	decision	trialStart	3	169	49	foodImage.2	FOODEEG_Images\0028.jpg	NY	Right	Yes	0.898972700000741	0	617211	251
1206.529296875	2	decision	foodImageDisplay	3	169	49	foodImage.2	FOODEEG_Images\0028.jpg	NY	Right	Yes	0.898972700000741	0	617744	252
1208.59375	0.898972700000741	decision	choicePhaseStart	3	169	49	foodImage.2	FOODEEG_Images\0028.jpg	NY	Right	Yes	0.898972700000741	0	618801	253
1209.486328125	0	decision	response	3	169	49	foodImage.2	FOODEEG_Images\0028.jpg	NY	Right	Yes	0.898972700000741	0	619258	235
1210.52734375	1	decision	trialStart	3	170	50	foodImage.98	FOODEEG_Images\0906.jpg	YN	Right	No	0.913084500003606	0	619791	251
1211.56640625	2	decision	foodImageDisplay	3	170	50	foodImage.98	FOODEEG_Images\0906.jpg	YN	Right	No	0.913084500003606	0	620323	252
1213.62890625	0.913084500003606	decision	choicePhaseStart	3	170	50	foodImage.98	FOODEEG_Images\0906.jpg	YN	Right	No	0.913084500003606	0	621379	253
1214.533203125	0	decision	response	3	170	50	foodImage.98	FOODEEG_Images\0906.jpg	YN	Right	No	0.913084500003606	0	621842	235
1215.576171875	1	decision	trialStart	3	171	51	foodImage.71	FOODEEG_Images\0713.jpg	YN	Left	Yes	1.2635037	0	622376	251
1216.615234375	2	decision	foodImageDisplay	3	171	51	foodImage.71	FOODEEG_Images\0713.jpg	YN	Left	Yes	1.2635037	0	622908	252
1218.6796875	1.2635037	decision	choicePhaseStart	3	171	51	foodImage.71	FOODEEG_Images\0713.jpg	YN	Left	Yes	1.2635037	0	623965	253
1219.93359375	0	decision	response	3	171	51	foodImage.71	FOODEEG_Images\0713.jpg	YN	Left	Yes	1.2635037	0	624607	234
1220.9765625	1	decision	trialStart	3	172	52	foodImage.23	FOODEEG_Images\0244.jpg	NY	Left	No	1.26811410000664	0	625141	251
1222.017578125	2	decision	foodImageDisplay	3	172	52	foodImage.23	FOODEEG_Images\0244.jpg	NY	Left	No	1.26811410000664	0	625674	252
1224.08203125	1.26811410000664	decision	choicePhaseStart	3	172	52	foodImage.23	FOODEEG_Images\0244.jpg	NY	Left	No	1.26811410000664	0	626731	253
1225.341796875	0	decision	response	3	172	52	foodImage.23	FOODEEG_Images\0244.jpg	NY	Left	No	1.26811410000664	0	627376	234
1226.3828125	1	taste	trialStart	3	173	53	foodImage.61	FOODEEG_Images\0640.jpg	YN	Left	Yes	1.2858772000036	0	627909	251
1227.423828125	2	taste	foodImageDisplay	3	173	53	foodImage.61	FOODEEG_Images\0640.jpg	YN	Left	Yes	1.2858772000036	0	628442	252
1229.48828125	1.2858772000036	taste	choicePhaseStart	3	173	53	foodImage.61	FOODEEG_Images\0640.jpg	YN	Left	Yes	1.2858772000036	0	629499	253
1230.765625	0	taste	response	3	173	53	foodImage.61	FOODEEG_Images\0640.jpg	YN	Left	Yes	1.2858772000036	0	630153	234
1231.80859375	1	decision	trialStart	3	174	54	foodImage.116	FOODEEG_Images\0924.jpg	NY	Left	No	1.207690500014	0	630687	251
1232.84765625	2	decision	foodImageDisplay	3	174	54	foodImage.116	FOODEEG_Images\0924.jpg	NY	Left	No	1.207690500014	0	631219	252
1234.91015625	1.207690500014	decision	choicePhaseStart	3	174	54	foodImage.116	FOODEEG_Images\0924.jpg	NY	Left	No	1.207690500014	0	632275	253
1236.109375	0	decision	response	3	174	54	foodImage.116	FOODEEG_Images\0924.jpg	NY	Left	No	1.207690500014	0	632889	234
1237.15234375	1	decision	trialStart	3	175	55	foodImage.105	FOODEEG_Images\0913.jpg	YN	Right	No	1.32926349999616	0	633423	251
1238.189453125	2	decision	foodImageDisplay	3	175	55	foodImage.105	FOODEEG_Images\0913.jpg	YN	Right	No	1.32926349999616	0	633954	252
1240.251953125	1.32926349999616	decision	choicePhaseStart	3	175	55	foodImage.105	FOODEEG_Images\0913.jpg	YN	Right	No	1.32926349999616	0	635010	253
1241.572265625	0	decision	response	3	175	55	foodImage.105	FOODEEG_Images\0913.jpg	YN	Right	No	1.32926349999616	0	635686	235
1242.615234375	1	health	trialStart	3	176	56	foodImage.70	FOODEEG_Images\0705.jpg	YN	Left	Yes	1.52156920000562	0	636220	251
1243.673828125	2	health	foodImageDisplay	3	176	56	foodImage.70	FOODEEG_Images\0705.jpg	YN	Left	Yes	1.52156920000562	0	636762	252
1245.73828125	1.52156920000562	health	choicePhaseStart	3	176	56	foodImage.70	FOODEEG_Images\0705.jpg	YN	Left	Yes	1.52156920000562	0	637819	253
1247.251953125	0	health	response	3	176	56	foodImage.70	FOODEEG_Images\0705.jpg	YN	Left	Yes	1.52156920000562	0	638594	234
1248.298828125	1	decision	trialStart	3	177	57	foodImage.48	FOODEEG_Images\0494.jpg	NY	Left	No	3.27421560000221	0	639130	251
1249.36328125	2	decision	foodImageDisplay	3	177	57	foodImage.48	FOODEEG_Images\0494.jpg	NY	Left	No	3.27421560000221	0	639675	252
1251.427734375	3.27421560000221	decision	choicePhaseStart	3	177	57	foodImage.48	FOODEEG_Images\0494.jpg	NY	Left	No	3.27421560000221	0	640732	253
1254.69140625	0	decision	response	3	177	57	foodImage.48	FOODEEG_Images\0494.jpg	NY	Left	No	3.27421560000221	0	642403	234
1255.734375	1	decision	trialStart	3	178	58	foodImage.54	FOODEEG_Images\0560.jpg	YN	Left	Yes	0.975762999994913	0	642937	251
1256.796875	2	decision	foodImageDisplay	3	178	58	foodImage.54	FOODEEG_Images\0560.jpg	YN	Left	Yes	0.975762999994913	0	643481	252
1258.861328125	0.975762999994913	decision	choicePhaseStart	3	178	58	foodImage.54	FOODEEG_Images\0560.jpg	YN	Left	Yes	0.975762999994913	0	644538	253
1259.828125	0	decision	response	3	178	58	foodImage.54	FOODEEG_Images\0560.jpg	YN	Left	Yes	0.975762999994913	0	645033	234
1260.87109375	1	health	trialStart	3	179	59	foodImage.67	FOODEEG_Images\0679.jpg	YN	Right	No	4.43803279999702	0	645567	251
1261.92578125	2	health	foodImageDisplay	3	179	59	foodImage.67	FOODEEG_Images\0679.jpg	YN	Right	No	4.43803279999702	0	646107	252
1263.990234375	4.43803279999702	health	choicePhaseStart	3	179	59	foodImage.67	FOODEEG_Images\0679.jpg	YN	Right	No	4.43803279999702	0	647164	253
1268.419921875	0	health	response	3	179	59	foodImage.67	FOODEEG_Images\0679.jpg	YN	Right	No	4.43803279999702	0	649432	235
1269.462890625	1	health	trialStart	3	180	60	foodImage.81	FOODEEG_Images\0797.jpg	NY	Right	Yes	1.07769479999843	0	649966	251
1270.51953125	2	health	foodImageDisplay	3	180	60	foodImage.81	FOODEEG_Images\0797.jpg	NY	Right	Yes	1.07769479999843	0	650507	252
1272.58203125	1.07769479999843	health	choicePhaseStart	3	180	60	foodImage.81	FOODEEG_Images\0797.jpg	NY	Right	Yes	1.07769479999843	0	651563	253
1273.650390625	0	health	response	3	180	60	foodImage.81	FOODEEG_Images\0797.jpg	NY	Right	Yes	1.07769479999843	0	652110	235
1275.697265625	7.65234375	n/a	blockEnd	n/a	n/a	n/a	n/a	n/a	n/a	n/a	n/a	n/a	n/a	653158	254
1283.349609375	2	n/a	blockStart	4	n/a	n/a	n/a	n/a	n/a	n/a	n/a	n/a	n/a	657076	250
1285.3828125	1	taste	trialStart	4	181	1	foodImage.78	FOODEEG_Images\0787.jpg	NY	Left	No	0.983176100009587	0	658117	251
1286.427734375	2	taste	foodImageDisplay	4	181	1	foodImage.78	FOODEEG_Images\0787.jpg	NY	Left	No	0.983176100009587	0	658652	252
1288.4921875	0.983176100009587	taste	choicePhaseStart	4	181	1	foodImage.78	FOODEEG_Images\0787.jpg	NY	Left	No	0.983176100009587	0	659709	253
1289.466796875	0	taste	response	4	181	1	foodImage.78	FOODEEG_Images\0787.jpg	NY	Left	No	0.983176100009587	0	660208	234
1290.509765625	1	health	trialStart	4	182	2	foodImage.115	FOODEEG_Images\0923.jpg	NY	Right	Yes	1.69559249999293	0	660742	251
1291.548828125	2	health	foodImageDisplay	4	182	2	foodImage.115	FOODEEG_Images\0923.jpg	NY	Right	Yes	1.69559249999293	0	661274	252
1293.611328125	1.69559249999293	health	choicePhaseStart	4	182	2	foodImage.115	FOODEEG_Images\0923.jpg	NY	Right	Yes	1.69559249999293	0	662330	253
1295.298828125	0	health	response	4	182	2	foodImage.115	FOODEEG_Images\0923.jpg	NY	Right	Yes	1.69559249999293	0	663194	235
1296.33984375	1	taste	trialStart	4	183	3	foodImage.43	FOODEEG_Images\0445.jpg	NY	Right	Yes	1.10298619999958	0	663727	251
1297.396484375	2	taste	foodImageDisplay	4	183	3	foodImage.43	FOODEEG_Images\0445.jpg	NY	Right	Yes	1.10298619999958	0	664268	252
1299.4609375	1.10298619999958	taste	choicePhaseStart	4	183	3	foodImage.43	FOODEEG_Images\0445.jpg	NY	Right	Yes	1.10298619999958	0	665325	253
1300.5546875	0	taste	response	4	183	3	foodImage.43	FOODEEG_Images\0445.jpg	NY	Right	Yes	1.10298619999958	0	665885	235
1301.59765625	1	taste	trialStart	4	184	4	foodImage.69	FOODEEG_Images\0693.jpg	NY	Right	Yes	0.749594499997329	0	666419	251
1302.638671875	2	taste	foodImageDisplay	4	184	4	foodImage.69	FOODEEG_Images\0693.jpg	NY	Right	Yes	0.749594499997329	0	666952	252
1304.701171875	0.749594499997329	taste	choicePhaseStart	4	184	4	foodImage.69	FOODEEG_Images\0693.jpg	NY	Right	Yes	0.749594499997329	0	668008	253
1305.44140625	0	taste	response	4	184	4	foodImage.69	FOODEEG_Images\0693.jpg	NY	Right	Yes	0.749594499997329	0	668387	235
1306.484375	1	decision	trialStart	4	185	5	foodImage.5	FOODEEG_Images\0107.jpg	NY	Right	Yes	0.912207000001217	0	668921	251
1307.5390625	2	decision	foodImageDisplay	4	185	5	foodImage.5	FOODEEG_Images\0107.jpg	NY	Right	Yes	0.912207000001217	0	669461	252
1309.603515625	0.912207000001217	decision	choicePhaseStart	4	185	5	foodImage.5	FOODEEG_Images\0107.jpg	NY	Right	Yes	0.912207000001217	0	670518	253
1310.505859375	0	decision	response	4	185	5	foodImage.5	FOODEEG_Images\0107.jpg	NY	Right	Yes	0.912207000001217	0	670980	235
1311.548828125	1	decision	trialStart	4	186	6	foodImage.22	FOODEEG_Images\0236.jpg	NY	Right	Yes	1.07019050000235	0	671514	251
1312.58984375	2	decision	foodImageDisplay	4	186	6	foodImage.22	FOODEEG_Images\0236.jpg	NY	Right	Yes	1.07019050000235	0	672047	252
1314.65234375	1.07019050000235	decision	choicePhaseStart	4	186	6	foodImage.22	FOODEEG_Images\0236.jpg	NY	Right	Yes	1.07019050000235	0	673103	253
1315.712890625	0	decision	response	4	186	6	foodImage.22	FOODEEG_Images\0236.jpg	NY	Right	Yes	1.07019050000235	0	673646	235
1316.7578125	1	health	trialStart	4	187	7	foodImage.62	FOODEEG_Images\0644.jpg	YN	Left	Yes	1.42043290000584	0	674181	251
1317.814453125	2	health	foodImageDisplay	4	187	7	foodImage.62	FOODEEG_Images\0644.jpg	YN	Left	Yes	1.42043290000584	0	674722	252
1319.87890625	1.42043290000584	health	choicePhaseStart	4	187	7	foodImage.62	FOODEEG_Images\0644.jpg	YN	Left	Yes	1.42043290000584	0	675779	253
1321.2890625	0	health	response	4	187	7	foodImage.62	FOODEEG_Images\0644.jpg	YN	Left	Yes	1.42043290000584	0	676501	234
1322.33203125	1	taste	trialStart	4	188	8	foodImage.65	FOODEEG_Images\0658.jpg	YN	Right	No	0.80401529998926	0	677035	251
1323.373046875	2	taste	foodImageDisplay	4	188	8	foodImage.65	FOODEEG_Images\0658.jpg	YN	Right	No	0.80401529998926	0	677568	252
1325.4375	0.80401529998926	taste	choicePhaseStart	4	188	8	foodImage.65	FOODEEG_Images\0658.jpg	YN	Right	No	0.80401529998926	0	678625	253
1326.232421875	0	taste	response	4	188	8	foodImage.65	FOODEEG_Images\0658.jpg	YN	Right	No	0.80401529998926	0	679032	235
1327.275390625	1	health	trialStart	4	189	9	foodImage.13	FOODEEG_Images\0183.jpg	NY	Right	Yes	0.692898199995398	0	679566	251
1328.318359375	2	health	foodImageDisplay	4	189	9	foodImage.13	FOODEEG_Images\0183.jpg	NY	Right	Yes	0.692898199995398	0	680100	252
1330.380859375	0.692898199995398	health	choicePhaseStart	4	189	9	foodImage.13	FOODEEG_Images\0183.jpg	NY	Right	Yes	0.692898199995398	0	681156	253
1331.064453125	0	health	response	4	189	9	foodImage.13	FOODEEG_Images\0183.jpg	NY	Right	Yes	0.692898199995398	0	681506	235
1332.107421875	1	decision	trialStart	4	190	10	foodImage.77	FOODEEG_Images\0771.jpg	NY	Right	Yes	0.800137600002927	0	682040	251
1333.150390625	2	decision	foodImageDisplay	4	190	10	foodImage.77	FOODEEG_Images\0771.jpg	NY	Right	Yes	0.800137600002927	0	682574	252
1335.21484375	0.800137600002927	decision	choicePhaseStart	4	190	10	foodImage.77	FOODEEG_Images\0771.jpg	NY	Right	Yes	0.800137600002927	0	683631	253
1336.0078125	0	decision	response	4	190	10	foodImage.77	FOODEEG_Images\0771.jpg	NY	Right	Yes	0.800137600002927	0	684037	235
1337.05078125	1	health	trialStart	4	191	11	foodImage.72	FOODEEG_Images\0714.jpg	NY	Right	Yes	0.935981799993897	0	684571	251
1338.09375	2	health	foodImageDisplay	4	191	11	foodImage.72	FOODEEG_Images\0714.jpg	NY	Right	Yes	0.935981799993897	0	685105	252
1340.162109375	0.935981799993897	health	choicePhaseStart	4	191	11	foodImage.72	FOODEEG_Images\0714.jpg	NY	Right	Yes	0.935981799993897	0	686164	253
1341.087890625	0	health	response	4	191	11	foodImage.72	FOODEEG_Images\0714.jpg	NY	Right	Yes	0.935981799993897	0	686638	235
1342.130859375	1	health	trialStart	4	192	12	foodImage.18	FOODEEG_Images\0202.jpg	YN	Left	Yes	1.12349689999246	0	687172	251
1343.19921875	2	health	foodImageDisplay	4	192	12	foodImage.18	FOODEEG_Images\0202.jpg	YN	Left	Yes	1.12349689999246	0	687719	252
1345.26171875	1.12349689999246	health	choicePhaseStart	4	192	12	foodImage.18	FOODEEG_Images\0202.jpg	YN	Left	Yes	1.12349689999246	0	688775	253
1346.375	0	health	response	4	192	12	foodImage.18	FOODEEG_Images\0202.jpg	YN	Left	Yes	1.12349689999246	0	689345	234
1347.421875	1	taste	trialStart	4	193	13	foodImage.97	FOODEEG_Images\0905.jpg	NY	Left	No	1.06253100000322	0	689881	251
1348.4609375	2	taste	foodImageDisplay	4	193	13	foodImage.97	FOODEEG_Images\0905.jpg	NY	Left	No	1.06253100000322	0	690413	252
1350.5234375	1.06253100000322	taste	choicePhaseStart	4	193	13	foodImage.97	FOODEEG_Images\0905.jpg	NY	Left	No	1.06253100000322	0	691469	253
1351.576171875	0	taste	response	4	193	13	foodImage.97	FOODEEG_Images\0905.jpg	NY	Left	No	1.06253100000322	0	692008	234
1352.619140625	1	health	trialStart	4	194	14	foodImage.31	FOODEEG_Images\0294.jpg	YN	Left	Yes	0.907194500003243	0	692542	251
1353.662109375	2	health	foodImageDisplay	4	194	14	foodImage.31	FOODEEG_Images\0294.jpg	YN	Left	Yes	0.907194500003243	0	693076	252
1355.7265625	0.907194500003243	health	choicePhaseStart	4	194	14	foodImage.31	FOODEEG_Images\0294.jpg	YN	Left	Yes	0.907194500003243	0	694133	253
1356.623046875	0	health	response	4	194	14	foodImage.31	FOODEEG_Images\0294.jpg	YN	Left	Yes	0.907194500003243	0	694592	234
