onset	duration	trial_type	event_type	block	trial_total	trial_in_block	food_image_code	food_image_path	button_position	resp_position	resp_choice	choice_rt	resp_too_slow	sample	trigger
371.83203125	2	n/a	blockStart	1	n/a	n/a	n/a	n/a	n/a	n/a	n/a	n/a	n/a	190379	250
373.869140625	1	decision	trialStart	1	1	1	foodImage.96	FOODEEG_Images\0904.jpg	NY	Left	No	1.01520090000122	0	191422	251
374.912109375	2	decision	foodImageDisplay	1	1	1	foodImage.96	FOODEEG_Images\0904.jpg	NY	Left	No	1.01520090000122	0	191956	252
376.978515625	1.01520090000122	decision	choicePhaseStart	1	1	1	foodImage.96	FOODEEG_Images\0904.jpg	NY	Left	No	1.01520090000122	0	193014	253
377.990234375	0	decision	response	1	1	1	foodImage.96	FOODEEG_Images\0904.jpg	NY	Left	No	1.01520090000122	0	193532	234
379.083984375	1	decision	trialStart	1	2	2	foodImage.93	FOODEEG_Images\0901.jpg	NY	Left	No	0.902673799995682	0	194092	251
380.125	2	decision	foodImageDisplay	1	2	2	foodImage.93	FOODEEG_Images\0901.jpg	NY	Left	No	0.902673799995682	0	194625	252
382.193359375	0.902673799995682	decision	choicePhaseStart	1	2	2	foodImage.93	FOODEEG_Images\0901.jpg	NY	Left	No	0.902673799995682	0	195684	253
383.0859375	0	decision	response	1	2	2	foodImage.93	FOODEEG_Images\0901.jpg	NY	Left	No	0.902673799995682	0	196141	234
384.150390625	1	taste	trialStart	1	3	3	foodImage.41	FOODEEG_Images\0409.jpg	NY	Left	No	1.05688699999882	0	196686	251
385.220703125	2	taste	foodImageDisplay	1	3	3	foodImage.41	FOODEEG_Images\0409.jpg	NY	Left	No	1.05688699999882	0	197234	252
387.28515625	1.05688699999882	taste	choicePhaseStart	1	3	3	foodImage.41	FOODEEG_Images\0409.jpg	NY	Left	No	1.05688699999882	0	198291	253
388.333984375	0	taste	response	1	3	3	foodImage.41	FOODEEG_Images\0409.jpg	NY	Left	No	1.05688699999882	0	198828	234
389.376953125	1	health	trialStart	1	4	4	foodImage.72	FOODEEG_Images\0714.jpg	YN	Right	No	1.61178739999013	0	199362	251
390.44140625	2	health	foodImageDisplay	1	4	4	foodImage.72	FOODEEG_Images\0714.jpg	YN	Right	No	1.61178739999013	0	199907	252
392.505859375	1.61178739999013	health	choicePhaseStart	1	4	4	foodImage.72	FOODEEG_Images\0714.jpg	YN	Right	No	1.61178739999013	0	200964	253
394.109375	0	health	response	1	4	4	foodImage.72	FOODEEG_Images\0714.jpg	YN	Right	No	1.61178739999013	0	201785	235
395.15625	1	health	trialStart	1	5	5	foodImage.10	FOODEEG_Images\0145.jpg	YN	Left	Yes	1.34920100000454	0	202321	251
396.216796875	2	health	foodImageDisplay	1	5	5	foodImage.10	FOODEEG_Images\0145.jpg	YN	Left	Yes	1.34920100000454	0	202864	252
398.28125	1.34920100000454	health	choicePhaseStart	1	5	5	foodImage.10	FOODEEG_Images\0145.jpg	YN	Left	Yes	1.34920100000454	0	203921	253
399.62109375	0	health	response	1	5	5	foodImage.10	FOODEEG_Images\0145.jpg	YN	Left	Yes	1.34920100000454	0	204607	234
400.671875	1	decision	trialStart	1	6	6	foodImage.46	FOODEEG_Images\0479.jpg	NY	Left	No	1.60904920000758	0	205145	251
401.732421875	2	decision	foodImageDisplay	1	6	6	foodImage.46	FOODEEG_Images\0479.jpg	NY	Left	No	1.60904920000758	0	205688	252
403.796875	1.60904920000758	decision	choicePhaseStart	1	6	6	foodImage.46	FOODEEG_Images\0479.jpg	NY	Left	No	1.60904920000758	0	206745	253
405.3984375	0	decision	response	1	6	6	foodImage.46	FOODEEG_Images\0479.jpg	NY	Left	No	1.60904920000758	0	207565	234
406.443359375	1	health	trialStart	1	7	7	foodImage.39	FOODEEG_Images\0367.jpg	NY	Left	No	1.19186540000373	0	208100	251
407.48046875	2	health	foodImageDisplay	1	7	7	foodImage.39	FOODEEG_Images\0367.jpg	NY	Left	No	1.19186540000373	0	208631	252
409.548828125	1.19186540000373	health	choicePhaseStart	1	7	7	foodImage.39	FOODEEG_Images\0367.jpg	NY	Left	No	1.19186540000373	0	209690	253
410.732421875	0	health	response	1	7	7	foodImage.39	FOODEEG_Images\0367.jpg	NY	Left	No	1.19186540000373	0	210296	234
411.77734375	1	decision	trialStart	1	8	8	foodImage.65	FOODEEG_Images\0658.jpg	NY	Left	No	1.15394180000294	0	210831	251
412.8203125	2	decision	foodImageDisplay	1	8	8	foodImage.65	FOODEEG_Images\0658.jpg	NY	Left	No	1.15394180000294	0	211365	252
414.884765625	1.15394180000294	decision	choicePhaseStart	1	8	8	foodImage.65	FOODEEG_Images\0658.jpg	NY	Left	No	1.15394180000294	0	212422	253
416.029296875	0	decision	response	1	8	8	foodImage.65	FOODEEG_Images\0658.jpg	NY	Left	No	1.15394180000294	0	213008	234
417.07421875	1	health	trialStart	1	9	9	foodImage.109	FOODEEG_Images\0917.jpg	NY	Left	No	1.19598810000753	0	213543	251
418.11328125	2	health	foodImageDisplay	1	9	9	foodImage.109	FOODEEG_Images\0917.jpg	NY	Left	No	1.19598810000753	0	214075	252
420.177734375	1.19598810000753	health	choicePhaseStart	1	9	9	foodImage.109	FOODEEG_Images\0917.jpg	NY	Left	No	1.19598810000753	0	215132	253
421.365234375	0	health	response	1	9	9	foodImage.109	FOODEEG_Images\0917.jpg	NY	Left	No	1.19598810000753	0	215740	234
422.41015625	1	health	trialStart	1	10	10	foodImage.17	FOODEEG_Images\0199.jpg	NY	Right	Yes	1.06358299999556	0	216275	251
423.451171875	2	health	foodImageDisplay	1	10	10	foodImage.17	FOODEEG_Images\0199.jpg	NY	Right	Yes	1.06358299999556	0	216808	252
425.517578125	1.06358299999556	health	choicePhaseStart	1	10	10	foodImage.17	FOODEEG_Images\0199.jpg	NY	Right	Yes	1.06358299999556	0	217866	253
426.572265625	0	health	response	1	10	10	foodImage.17	FOODEEG_Images\0199.jpg	NY	Right	Yes	1.06358299999556	0	218406	235
427.615234375	1	decision	trialStart	1	11	11	foodImage.51	FOODEEG_Images\0536.jpg	YN	Left	Yes	0.901231700001517	0	218940	251
428.66015625	2	decision	foodImageDisplay	1	11	11	foodImage.51	FOODEEG_Images\0536.jpg	YN	Left	Yes	0.901231700001517	0	219475	252
430.7265625	0.901231700001517	decision	choicePhaseStart	1	11	11	foodImage.51	FOODEEG_Images\0536.jpg	YN	Left	Yes	0.901231700001517	0	220533	253
431.619140625	0	decision	response	1	11	11	foodImage.51	FOODEEG_Images\0536.jpg	YN	Left	Yes	0.901231700001517	0	220990	234
432.66015625	1	health	trialStart	1	12	12	foodImage.107	FOODEEG_Images\0915.jpg	YN	Right	No	2.20807310000237	0	221523	251
433.701171875	2	health	foodImageDisplay	1	12	12	foodImage.107	FOODEEG_Images\0915.jpg	YN	Right	No	2.20807310000237	0	222056	252
435.765625	2.20807310000237	health	choicePhaseStart	1	12	12	foodImage.107	FOODEEG_Images\0915.jpg	YN	Right	No	2.20807310000237	0	223113	253
437.96484375	0	health	response	1	12	12	foodImage.107	FOODEEG_Images\0915.jpg	YN	Right	No	2.20807310000237	0	224239	235
439.005859375	1	decision	trialStart	1	13	13	foodImage.42	FOODEEG_Images\0438.jpg	YN	Left	Yes	0.800332800004981	0	224772	251
440.099609375	2	decision	foodImageDisplay	1	13	13	foodImage.42	FOODEEG_Images\0438.jpg	YN	Left	Yes	0.800332800004981	0	225332	252
442.162109375	0.800332800004981	decision	choicePhaseStart	1	13	13	foodImage.42	FOODEEG_Images\0438.jpg	YN	Left	Yes	0.800332800004981	0	226388	253
442.955078125	0	decision	response	1	13	13	foodImage.42	FOODEEG_Images\0438.jpg	YN	Left	Yes	0.800332800004981	0	226794	234
443.994140625	1	decision	trialStart	1	14	14	foodImage.119	FOODEEG_Images\0927.jpg	YN	Right	No	1.12430169999425	0	227326	251
445.03515625	2	decision	foodImageDisplay	1	14	14	foodImage.119	FOODEEG_Images\0927.jpg	YN	Right	No	1.12430169999425	0	227859	252
447.095703125	1.12430169999425	decision	choicePhaseStart	1	14	14	foodImage.119	FOODEEG_Images\0927.jpg	YN	Right	No	1.12430169999425	0	228914	253
448.2109375	0	decision	response	1	14	14	foodImage.119	FOODEEG_Images\0927.jpg	YN	Right	No	1.12430169999425	0	229485	235
449.251953125	1	decision	trialStart	1	15	15	foodImage.69	FOODEEG_Images\0693.jpg	YN	Right	No	1.67730169999413	0	230018	251
450.310546875	2	decision	foodImageDisplay	1	15	15	foodImage.69	FOODEEG_Images\0693.jpg	YN	Right	No	1.67730169999413	0	230560	252
452.375	1.67730169999413	decision	choicePhaseStart	1	15	15	foodImage.69	FOODEEG_Images\0693.jpg	YN	Right	No	1.67730169999413	0	231617	253
454.044921875	0	decision	response	1	15	15	foodImage.69	FOODEEG_Images\0693.jpg	YN	Right	No	1.67730169999413	0	232472	235
455.0859375	1	decision	trialStart	1	16	16	foodImage.16	FOODEEG_Images\0196.jpg	YN	Right	No	1.10206140000082	0	233005	251
456.142578125	2	decision	foodImageDisplay	1	16	16	foodImage.16	FOODEEG_Images\0196.jpg	YN	Right	No	1.10206140000082	0	233546	252
458.20703125	1.10206140000082	decision	choicePhaseStart	1	16	16	foodImage.16	FOODEEG_Images\0196.jpg	YN	Right	No	1.10206140000082	0	234603	253
459.298828125	0	decision	response	1	16	16	foodImage.16	FOODEEG_Images\0196.jpg	YN	Right	No	1.10206140000082	0	235162	235
460.341796875	1	decision	trialStart	1	17	17	foodImage.41	FOODEEG_Images\0409.jpg	NY	Left	No	1.34587330000068	0	235696	251
461.38671875	2	decision	foodImageDisplay	1	17	17	foodImage.41	FOODEEG_Images\0409.jpg	NY	Left	No	1.34587330000068	0	236231	252
463.451171875	1.34587330000068	decision	choicePhaseStart	1	17	17	foodImage.41	FOODEEG_Images\0409.jpg	NY	Left	No	1.34587330000068	0	237288	253
464.787109375	0	decision	response	1	17	17	foodImage.41	FOODEEG_Images\0409.jpg	NY	Left	No	1.34587330000068	0	237972	234
465.83203125	1	health	trialStart	1	18	18	foodImage.83	FOODEEG_Images\0827.jpg	NY	Right	Yes	0.992703200012329	0	238507	251
466.888671875	2	health	foodImageDisplay	1	18	18	foodImage.83	FOODEEG_Images\0827.jpg	NY	Right	Yes	0.992703200012329	0	239048	252
468.951171875	0.992703200012329	health	choicePhaseStart	1	18	18	foodImage.83	FOODEEG_Images\0827.jpg	NY	Right	Yes	0.992703200012329	0	240104	253
469.939453125	0	health	response	1	18	18	foodImage.83	FOODEEG_Images\0827.jpg	NY	Right	Yes	0.992703200012329	0	240610	235
470.982421875	1	taste	trialStart	1	19	19	foodImage.99	FOODEEG_Images\0907.jpg	NY	Left	No	1.20731330000854	0	241144	251
472.029296875	2	taste	foodImageDisplay	1	19	19	foodImage.99	FOODEEG_Images\0907.jpg	NY	Left	No	1.20731330000854	0	241680	252
474.091796875	1.20731330000854	taste	choicePhaseStart	1	19	19	foodImage.99	FOODEEG_Images\0907.jpg	NY	Left	No	1.20731330000854	0	242736	253
475.291015625	0	taste	response	1	19	19	foodImage.99	FOODEEG_Images\0907.jpg	NY	Left	No	1.20731330000854	0	243350	234
476.33203125	1	decision	trialStart	1	20	20	foodImage.2	FOODEEG_Images\0028.jpg	NY	Right	Yes	1.0110757000075	0	243883	251
477.376953125	2	decision	foodImageDisplay	1	20	20	foodImage.2	FOODEEG_Images\0028.jpg	NY	Right	Yes	1.0110757000075	0	244418	252
479.44140625	1.0110757000075	decision	choicePhaseStart	1	20	20	foodImage.2	FOODEEG_Images\0028.jpg	NY	Right	Yes	1.0110757000075	0	245475	253
480.443359375	0	decision	response	1	20	20	foodImage.2	FOODEEG_Images\0028.jpg	NY	Right	Yes	1.0110757000075	0	245988	235
481.484375	1	decision	trialStart	1	21	21	foodImage.120	FOODEEG_Images\0928.jpg	YN	Right	No	1.00519809999969	0	246521	251
482.541015625	2	decision	foodImageDisplay	1	21	21	foodImage.120	FOODEEG_Images\0928.jpg	YN	Right	No	1.00519809999969	0	247062	252
484.60546875	1.00519809999969	decision	choicePhaseStart	1	21	21	foodImage.120	FOODEEG_Images\0928.jpg	YN	Right	No	1.00519809999969	0	248119	253
485.6015625	0	decision	response	1	21	21	foodImage.120	FOODEEG_Images\0928.jpg	YN	Right	No	1.00519809999969	0	248629	235
486.64453125	1	decision	trialStart	1	22	22	foodImage.27	FOODEEG_Images\0263.jpg	YN	Right	No	0.989534199994523	0	249163	251
487.685546875	2	decision	foodImageDisplay	1	22	22	foodImage.27	FOODEEG_Images\0263.jpg	YN	Right	No	0.989534199994523	0	249696	252
489.75	0.989534199994523	decision	choicePhaseStart	1	22	22	foodImage.27	FOODEEG_Images\0263.jpg	YN	Right	No	0.989534199994523	0	250753	253
490.73046875	0	decision	response	1	22	22	foodImage.27	FOODEEG_Images\0263.jpg	YN	Right	No	0.989534199994523	0	251255	235
491.77734375	1	health	trialStart	1	23	23	foodImage.32	FOODEEG_Images\0319.jpg	NY	Left	No	0.966019100000267	0	251791	251
492.822265625	2	health	foodImageDisplay	1	23	23	foodImage.32	FOODEEG_Images\0319.jpg	NY	Left	No	0.966019100000267	0	252326	252
494.884765625	0.966019100000267	health	choicePhaseStart	1	23	23	foodImage.32	FOODEEG_Images\0319.jpg	NY	Left	No	0.966019100000267	0	253382	253
495.841796875	0	health	response	1	23	23	foodImage.32	FOODEEG_Images\0319.jpg	NY	Left	No	0.966019100000267	0	253872	234
496.8828125	1	taste	trialStart	1	24	24	foodImage.9	FOODEEG_Images\0138.jpg	NY	Right	Yes	1.14151149999816	0	254405	251
497.94140625	2	taste	foodImageDisplay	1	24	24	foodImage.9	FOODEEG_Images\0138.jpg	NY	Right	Yes	1.14151149999816	0	254947	252
500.00390625	1.14151149999816	taste	choicePhaseStart	1	24	24	foodImage.9	FOODEEG_Images\0138.jpg	NY	Right	Yes	1.14151149999816	0	256003	253
501.13671875	0	taste	response	1	24	24	foodImage.9	FOODEEG_Images\0138.jpg	NY	Right	Yes	1.14151149999816	0	256583	235
502.1796875	1	decision	trialStart	1	25	25	foodImage.62	FOODEEG_Images\0644.jpg	NY	Right	Yes	0.966709000000264	0	257117	251
503.236328125	2	decision	foodImageDisplay	1	25	25	foodImage.62	FOODEEG_Images\0644.jpg	NY	Right	Yes	0.966709000000264	0	257658	252
505.30078125	0.966709000000264	decision	choicePhaseStart	1	25	25	foodImage.62	FOODEEG_Images\0644.jpg	NY	Right	Yes	0.966709000000264	0	258715	253
506.2578125	0	decision	response	1	25	25	foodImage.62	FOODEEG_Images\0644.jpg	NY	Right	Yes	0.966709000000264	0	259205	235
507.298828125	1	health	trialStart	1	26	26	foodImage.47	FOODEEG_Images\0488.jpg	NY	Left	No	1.64836579999246	0	259738	251
508.341796875	2	health	foodImageDisplay	1	26	26	foodImage.47	FOODEEG_Images\0488.jpg	NY	Left	No	1.64836579999246	0	260272	252
510.41015625	1.64836579999246	health	choicePhaseStart	1	26	26	foodImage.47	FOODEEG_Images\0488.jpg	NY	Left	No	1.64836579999246	0	261331	253
512.048828125	0	health	response	1	26	26	foodImage.47	FOODEEG_Images\0488.jpg	NY	Left	No	1.64836579999246	0	262170	234
513.09765625	1	taste	trialStart	1	27	27	foodImage.35	FOODEEG_Images\0350.jpg	YN	Left	Yes	1.07475910001085	0	262707	251
514.134765625	2	taste	foodImageDisplay	1	27	27	foodImage.35	FOODEEG_Images\0350.jpg	YN	Left	Yes	1.07475910001085	0	263238	252
516.19921875	1.07475910001085	taste	choicePhaseStart	1	27	27	foodImage.35	FOODEEG_Images\0350.jpg	YN	Left	Yes	1.07475910001085	0	264295	253
517.265625	0	taste	response	1	27	27	foodImage.35	FOODEEG_Images\0350.jpg	YN	Left	Yes	1.07475910001085	0	264841	234
518.30859375	1	health	trialStart	1	28	28	foodImage.65	FOODEEG_Images\0658.jpg	NY	Left	No	1.23290209998959	0	265375	251
519.361328125	2	health	foodImageDisplay	1	28	28	foodImage.65	FOODEEG_Images\0658.jpg	NY	Left	No	1.23290209998959	0	265914	252
521.42578125	1.23290209998959	health	choicePhaseStart	1	28	28	foodImage.65	FOODEEG_Images\0658.jpg	NY	Left	No	1.23290209998959	0	266971	253
522.6484375	0	health	response	1	28	28	foodImage.65	FOODEEG_Images\0658.jpg	NY	Left	No	1.23290209998959	0	267597	234
523.69140625	1	taste	trialStart	1	29	29	foodImage.54	FOODEEG_Images\0560.jpg	NY	Right	Yes	0.986080200003926	0	268131	251
524.75	2	taste	foodImageDisplay	1	29	29	foodImage.54	FOODEEG_Images\0560.jpg	NY	Right	Yes	0.986080200003926	0	268673	252
526.814453125	0.986080200003926	taste	choicePhaseStart	1	29	29	foodImage.54	FOODEEG_Images\0560.jpg	NY	Right	Yes	0.986080200003926	0	269730	253
527.79296875	0	taste	response	1	29	29	foodImage.54	FOODEEG_Images\0560.jpg	NY	Right	Yes	0.986080200003926	0	270231	235
528.837890625	1	taste	trialStart	1	30	30	foodImage.104	FOODEEG_Images\0912.jpg	NY	Left	No	1.24399370000174	0	270766	251
529.876953125	2	taste	foodImageDisplay	1	30	30	foodImage.104	FOODEEG_Images\0912.jpg	NY	Left	No	1.24399370000174	0	271298	252
531.94140625	1.24399370000174	taste	choicePhaseStart	1	30	30	foodImage.104	FOODEEG_Images\0912.jpg	NY	Left	No	1.24399370000174	0	272355	253
533.17578125	0	taste	response	1	30	30	foodImage.104	FOODEEG_Images\0912.jpg	NY	Left	No	1.24399370000174	0	272987	234
534.21875	1	taste	trialStart	1	31	31	foodImage.3	FOODEEG_Images\0046.jpg	YN	Left	Yes	0.858103199992911	0	273521	251
535.263671875	2	taste	foodImageDisplay	1	31	31	foodImage.3	FOODEEG_Images\0046.jpg	YN	Left	Yes	0.858103199992911	0	274056	252
537.328125	0.858103199992911	taste	choicePhaseStart	1	31	31	foodImage.3	FOODEEG_Images\0046.jpg	YN	Left	Yes	0.858103199992911	0	275113	253
538.17578125	0	taste	response	1	31	31	foodImage.3	FOODEEG_Images\0046.jpg	YN	Left	Yes	0.858103199992911	0	275547	234
539.22265625	1	decision	trialStart	1	32	32	foodImage.76	FOODEEG_Images\0766.jpg	NY	Left	No	1.25760949999676	0	276083	251
540.267578125	2	decision	foodImageDisplay	1	32	32	foodImage.76	FOODEEG_Images\0766.jpg	NY	Left	No	1.25760949999676	0	276618	252
542.33203125	1.25760949999676	decision	choicePhaseStart	1	32	32	foodImage.76	FOODEEG_Images\0766.jpg	NY	Left	No	1.25760949999676	0	277675	253
543.583984375	0	decision	response	1	32	32	foodImage.76	FOODEEG_Images\0766.jpg	NY	Left	No	1.25760949999676	0	278316	234
544.626953125	1	health	trialStart	1	33	33	foodImage.97	FOODEEG_Images\0905.jpg	NY	Left	No	1.19002939999336	0	278850	251
545.666015625	2	health	foodImageDisplay	1	33	33	foodImage.97	FOODEEG_Images\0905.jpg	NY	Left	No	1.19002939999336	0	279382	252
547.73046875	1.19002939999336	health	choicePhaseStart	1	33	33	foodImage.97	FOODEEG_Images\0905.jpg	NY	Left	No	1.19002939999336	0	280439	253
548.912109375	0	health	response	1	33	33	foodImage.97	FOODEEG_Images\0905.jpg	NY	Left	No	1.19002939999336	0	281044	234
549.955078125	1	health	trialStart	1	34	34	foodImage.120	FOODEEG_Images\0928.jpg	NY	Left	No	1.45909709999978	0	281578	251
550.9921875	2	health	foodImageDisplay	1	34	34	foodImage.120	FOODEEG_Images\0928.jpg	NY	Left	No	1.45909709999978	0	282109	252
553.0625	1.45909709999978	health	choicePhaseStart	1	34	34	foodImage.120	FOODEEG_Images\0928.jpg	NY	Left	No	1.45909709999978	0	283169	253
554.51171875	0	health	response	1	34	34	foodImage.120	FOODEEG_Images\0928.jpg	NY	Left	No	1.45909709999978	0	283911	234
555.55859375	1	taste	trialStart	1	35	35	foodImage.84	FOODEEG_Images\0830.jpg	NY	Right	Yes	0.842481999992742	0	284447	251
556.638671875	2	taste	foodImageDisplay	1	35	35	foodImage.84	FOODEEG_Images\0830.jpg	NY	Right	Yes	0.842481999992742	0	285000	252
558.701171875	0.842481999992742	taste	choicePhaseStart	1	35	35	foodImage.84	FOODEEG_Images\0830.jpg	NY	Right	Yes	0.842481999992742	0	286056	253
559.53515625	0	taste	response	1	35	35	foodImage.84	FOODEEG_Images\0830.jpg	NY	Right	Yes	0.842481999992742	0	286483	235
560.578125	1	decision	trialStart	1	36	36	foodImage.8	FOODEEG_Images\0136.jpg	YN	Left	Yes	1.23678340000333	0	287017	251
561.619140625	2	decision	foodImageDisplay	1	36	36	foodImage.8	FOODEEG_Images\0136.jpg	YN	Left	Yes	1.23678340000333	0	287550	252
563.68359375	1.23678340000333	decision	choicePhaseStart	1	36	36	foodImage.8	FOODEEG_Images\0136.jpg	YN	Left	Yes	1.23678340000333	0	288607	253
564.91015625	0	decision	response	1	36	36	foodImage.8	FOODEEG_Images\0136.jpg	YN	Left	Yes	1.23678340000333	0	289235	234
565.95703125	1	decision	trialStart	1	37	37	foodImage.114	FOODEEG_Images\0922.jpg	NY	Left	No	0.836727200003224	0	289771	251
566.994140625	2	decision	foodImageDisplay	1	37	37	foodImage.114	FOODEEG_Images\0922.jpg	NY	Left	No	0.836727200003224	0	290302	252
569.05859375	0.836727200003224	decision	choicePhaseStart	1	37	37	foodImage.114	FOODEEG_Images\0922.jpg	NY	Left	No	0.836727200003224	0	291359	253
569.88671875	0	decision	response	1	37	37	foodImage.114	FOODEEG_Images\0922.jpg	NY	Left	No	0.836727200003224	0	291783	234
570.9296875	1	decision	trialStart	1	38	38	foodImage.17	FOODEEG_Images\0199.jpg	YN	Left	Yes	1.02976130000025	0	292317	251
571.970703125	2	decision	foodImageDisplay	1	38	38	foodImage.17	FOODEEG_Images\0199.jpg	YN	Left	Yes	1.02976130000025	0	292850	252
574.033203125	1.02976130000025	decision	choicePhaseStart	1	38	38	foodImage.17	FOODEEG_Images\0199.jpg	YN	Left	Yes	1.02976130000025	0	293906	253
575.0546875	0	decision	response	1	38	38	foodImage.17	FOODEEG_Images\0199.jpg	YN	Left	Yes	1.02976130000025	0	294429	234
576.095703125	1	taste	trialStart	1	39	39	foodImage.33	FOODEEG_Images\0329.jpg	YN	Right	No	0.852329900008044	0	294962	251
577.140625	2	taste	foodImageDisplay	1	39	39	foodImage.33	FOODEEG_Images\0329.jpg	YN	Right	No	0.852329900008044	0	295497	252
579.203125	0.852329900008044	taste	choicePhaseStart	1	39	39	foodImage.33	FOODEEG_Images\0329.jpg	YN	Right	No	0.852329900008044	0	296553	253
580.046875	0	taste	response	1	39	39	foodImage.33	FOODEEG_Images\0329.jpg	YN	Right	No	0.852329900008044	0	296985	235
581.095703125	1	decision	trialStart	1	40	40	foodImage.32	FOODEEG_Images\0319.jpg	YN	Left	Yes	0.994306000007782	0	297522	251
582.138671875	2	decision	foodImageDisplay	1	40	40	foodImage.32	FOODEEG_Images\0319.jpg	YN	Left	Yes	0.994306000007782	0	298056	252
584.203125	0.994306000007782	decision	choicePhaseStart	1	40	40	foodImage.32	FOODEEG_Images\0319.jpg	YN	Left	Yes	0.994306000007782	0	299113	253
585.189453125	0	decision	response	1	40	40	foodImage.32	FOODEEG_Images\0319.jpg	YN	Left	Yes	0.994306000007782	0	299618	234
586.232421875	1	decision	trialStart	1	41	41	foodImage.13	FOODEEG_Images\0183.jpg	YN	Right	No	0.684897300001467	0	300152	251
587.275390625	2	decision	foodImageDisplay	1	41	41	foodImage.13	FOODEEG_Images\0183.jpg	YN	Right	No	0.684897300001467	0	300686	252
589.337890625	0.684897300001467	decision	choicePhaseStart	1	41	41	foodImage.13	FOODEEG_Images\0183.jpg	YN	Right	No	0.684897300001467	0	301742	253
590.013671875	0	decision	response	1	41	41	foodImage.13	FOODEEG_Images\0183.jpg	YN	Right	No	0.684897300001467	0	302088	235
591.056640625	1	taste	trialStart	1	42	42	foodImage.42	FOODEEG_Images\0438.jpg	NY	Right	Yes	1.04028299999482	0	302622	251
592.142578125	2	taste	foodImageDisplay	1	42	42	foodImage.42	FOODEEG_Images\0438.jpg	NY	Right	Yes	1.04028299999482	0	303178	252
594.20703125	1.04028299999482	taste	choicePhaseStart	1	42	42	foodImage.42	FOODEEG_Images\0438.jpg	NY	Right	Yes	1.04028299999482	0	304235	253
595.23828125	0	taste	response	1	42	42	foodImage.42	FOODEEG_Images\0438.jpg	NY	Right	Yes	1.04028299999482	0	304763	235
596.28125	1	taste	trialStart	1	43	43	foodImage.60	FOODEEG_Images\0614.jpg	YN	Left	Yes	0.829870600005961	0	305297	251
597.337890625	2	taste	foodImageDisplay	1	43	43	foodImage.60	FOODEEG_Images\0614.jpg	YN	Left	Yes	0.829870600005961	0	305838	252
599.40625	0.829870600005961	taste	choicePhaseStart	1	43	43	foodImage.60	FOODEEG_Images\0614.jpg	YN	Left	Yes	0.829870600005961	0	306897	253
600.23046875	0	taste	response	1	43	43	foodImage.60	FOODEEG_Images\0614.jpg	YN	Left	Yes	0.829870600005961	0	307319	234
601.2734375	1	taste	trialStart	1	44	44	foodImage.45	FOODEEG_Images\0478.jpg	NY	Right	Yes	0.910501800011843	0	307853	251
602.322265625	2	taste	foodImageDisplay	1	44	44	foodImage.45	FOODEEG_Images\0478.jpg	NY	Right	Yes	0.910501800011843	0	308390	252
604.390625	0.910501800011843	taste	choicePhaseStart	1	44	44	foodImage.45	FOODEEG_Images\0478.jpg	NY	Right	Yes	0.910501800011843	0	309449	253
605.29296875	0	taste	response	1	44	44	foodImage.45	FOODEEG_Images\0478.jpg	NY	Right	Yes	0.910501800011843	0	309911	235
606.333984375	1	taste	trialStart	1	45	45	foodImage.61	FOODEEG_Images\0640.jpg	YN	Left	Yes	1.19894479999493	0	310444	251
607.375	2	taste	foodImageDisplay	1	45	45	foodImage.61	FOODEEG_Images\0640.jpg	YN	Left	Yes	1.19894479999493	0	310977	252
609.439453125	1.19894479999493	taste	choicePhaseStart	1	45	45	foodImage.61	FOODEEG_Images\0640.jpg	YN	Left	Yes	1.19894479999493	0	312034	253
610.62890625	0	taste	response	1	45	45	foodImage.61	FOODEEG_Images\0640.jpg	YN	Left	Yes	1.19894479999493	0	312643	234
611.67578125	1	decision	trialStart	1	46	46	foodImage.72	FOODEEG_Images\0714.jpg	NY	Left	No	0.803400999997393	0	313179	251
612.71875	2	decision	foodImageDisplay	1	46	46	foodImage.72	FOODEEG_Images\0714.jpg	NY	Left	No	0.803400999997393	0	313713	252
614.787109375	0.803400999997393	decision	choicePhaseStart	1	46	46	foodImage.72	FOODEEG_Images\0714.jpg	NY	Left	No	0.803400999997393	0	314772	253
615.580078125	0	decision	response	1	46	46	foodImage.72	FOODEEG_Images\0714.jpg	NY	Left	No	0.803400999997393	0	315178	234
616.626953125	1	decision	trialStart	1	47	47	foodImage.21	FOODEEG_Images\0234.jpg	YN	Left	Yes	0.767276699989452	0	315714	251
617.7109375	2	decision	foodImageDisplay	1	47	47	foodImage.21	FOODEEG_Images\0234.jpg	YN	Left	Yes	0.767276699989452	0	316269	252
619.775390625	0.767276699989452	decision	choicePhaseStart	1	47	47	foodImage.21	FOODEEG_Images\0234.jpg	YN	Left	Yes	0.767276699989452	0	317326	253
620.533203125	0	decision	response	1	47	47	foodImage.21	FOODEEG_Images\0234.jpg	YN	Left	Yes	0.767276699989452	0	317714	234
621.580078125	1	decision	trialStart	1	48	48	foodImage.28	FOODEEG_Images\0273.jpg	NY	Left	No	0.853712500000256	0	318250	251
622.623046875	2	decision	foodImageDisplay	1	48	48	foodImage.28	FOODEEG_Images\0273.jpg	NY	Left	No	0.853712500000256	0	318784	252
624.6875	0.853712500000256	decision	choicePhaseStart	1	48	48	foodImage.28	FOODEEG_Images\0273.jpg	NY	Left	No	0.853712500000256	0	319841	253
625.533203125	0	decision	response	1	48	48	foodImage.28	FOODEEG_Images\0273.jpg	NY	Left	No	0.853712500000256	0	320274	234
626.57421875	1	taste	trialStart	1	49	49	foodImage.59	FOODEEG_Images\0607.jpg	YN	Right	No	1.05542520000017	0	320807	251
627.623046875	2	taste	foodImageDisplay	1	49	49	foodImage.59	FOODEEG_Images\0607.jpg	YN	Right	No	1.05542520000017	0	321344	252
629.685546875	1.05542520000017	taste	choicePhaseStart	1	49	49	foodImage.59	FOODEEG_Images\0607.jpg	YN	Right	No	1.05542520000017	0	322400	253
630.732421875	0	taste	response	1	49	49	foodImage.59	FOODEEG_Images\0607.jpg	YN	Right	No	1.05542520000017	0	322936	235
631.775390625	1	taste	trialStart	1	50	50	foodImage.114	FOODEEG_Images\0922.jpg	YN	Right	No	1.10119960000156	0	323470	251
632.8125	2	taste	foodImageDisplay	1	50	50	foodImage.114	FOODEEG_Images\0922.jpg	YN	Right	No	1.10119960000156	0	324001	252
634.876953125	1.10119960000156	taste	choicePhaseStart	1	50	50	foodImage.114	FOODEEG_Images\0922.jpg	YN	Right	No	1.10119960000156	0	325058	253
635.97265625	0	taste	response	1	50	50	foodImage.114	FOODEEG_Images\0922.jpg	YN	Right	No	1.10119960000156	0	325619	235
637.017578125	1	decision	trialStart	1	51	51	foodImage.110	FOODEEG_Images\0918.jpg	YN	Right	No	0.744000899998355	0	326154	251
638.0546875	2	decision	foodImageDisplay	1	51	51	foodImage.110	FOODEEG_Images\0918.jpg	YN	Right	No	0.744000899998355	0	326685	252
640.1171875	0.744000899998355	decision	choicePhaseStart	1	51	51	foodImage.110	FOODEEG_Images\0918.jpg	YN	Right	No	0.744000899998355	0	327741	253
640.8515625	0	decision	response	1	51	51	foodImage.110	FOODEEG_Images\0918.jpg	YN	Right	No	0.744000899998355	0	328117	235
641.89453125	1	decision	trialStart	1	52	52	foodImage.61	FOODEEG_Images\0640.jpg	YN	Right	No	0.73201560000598	0	328651	251
642.9375	2	decision	foodImageDisplay	1	52	52	foodImage.61	FOODEEG_Images\0640.jpg	YN	Right	No	0.73201560000598	0	329185	252
645	0.73201560000598	decision	choicePhaseStart	1	52	52	foodImage.61	FOODEEG_Images\0640.jpg	YN	Right	No	0.73201560000598	0	330241	253
645.72265625	0	decision	response	1	52	52	foodImage.61	FOODEEG_Images\0640.jpg	YN	Right	No	0.73201560000598	0	330611	235
646.771484375	1	health	trialStart	1	53	53	foodImage.42	FOODEEG_Images\0438.jpg	YN	Left	Yes	1.13662149998709	0	331148	251
647.859375	2	health	foodImageDisplay	1	53	53	foodImage.42	FOODEEG_Images\0438.jpg	YN	Left	Yes	1.13662149998709	0	331705	252
649.923828125	1.13662149998709	health	choicePhaseStart	1	53	53	foodImage.42	FOODEEG_Images\0438.jpg	YN	Left	Yes	1.13662149998709	0	332762	253
651.05078125	0	health	response	1	53	53	foodImage.42	FOODEEG_Images\0438.jpg	YN	Left	Yes	1.13662149998709	0	333339	234
652.09375	1	taste	trialStart	1	54	54	foodImage.86	FOODEEG_Images\0844.jpg	NY	Right	Yes	0.685195300000487	0	333873	251
653.15234375	2	taste	foodImageDisplay	1	54	54	foodImage.86	FOODEEG_Images\0844.jpg	NY	Right	Yes	0.685195300000487	0	334415	252
655.21484375	0.685195300000487	taste	choicePhaseStart	1	54	54	foodImage.86	FOODEEG_Images\0844.jpg	NY	Right	Yes	0.685195300000487	0	335471	253
655.890625	0	taste	response	1	54	54	foodImage.86	FOODEEG_Images\0844.jpg	NY	Right	Yes	0.685195300000487	0	335817	235
656.93359375	1	decision	trialStart	1	55	55	foodImage.113	FOODEEG_Images\0921.jpg	NY	Left	No	0.802147999987938	0	336351	251
657.96875	2	decision	foodImageDisplay	1	55	55	foodImage.113	FOODEEG_Images\0921.jpg	NY	Left	No	0.802147999987938	0	336881	252
660.033203125	0.802147999987938	decision	choicePhaseStart	1	55	55	foodImage.113	FOODEEG_Images\0921.jpg	NY	Left	No	0.802147999987938	0	337938	253
660.826171875	0	decision	response	1	55	55	foodImage.113	FOODEEG_Images\0921.jpg	NY	Left	No	0.802147999987938	0	338344	234
661.873046875	1	decision	trialStart	1	56	56	foodImage.102	FOODEEG_Images\0910.jpg	YN	Right	No	0.853499100005138	0	338880	251
662.91015625	2	decision	foodImageDisplay	1	56	56	foodImage.102	FOODEEG_Images\0910.jpg	YN	Right	No	0.853499100005138	0	339411	252
664.974609375	0.853499100005138	decision	choicePhaseStart	1	56	56	foodImage.102	FOODEEG_Images\0910.jpg	YN	Right	No	0.853499100005138	0	340468	253
665.818359375	0	decision	response	1	56	56	foodImage.102	FOODEEG_Images\0910.jpg	YN	Right	No	0.853499100005138	0	340900	235
666.861328125	1	taste	trialStart	1	57	57	foodImage.78	FOODEEG_Images\0787.jpg	NY	Left	No	1.93852199999674	0	341434	251
667.90625	2	taste	foodImageDisplay	1	57	57	foodImage.78	FOODEEG_Images\0787.jpg	NY	Left	No	1.93852199999674	0	341969	252
669.970703125	1.93852199999674	taste	choicePhaseStart	1	57	57	foodImage.78	FOODEEG_Images\0787.jpg	NY	Left	No	1.93852199999674	0	343026	253
671.8984375	0	taste	response	1	57	57	foodImage.78	FOODEEG_Images\0787.jpg	NY	Left	No	1.93852199999674	0	344013	234
672.94140625	1	decision	trialStart	1	58	58	foodImage.74	FOODEEG_Images\0752.jpg	NY	Right	Yes	0.817316500004381	0	344547	251
673.986328125	2	decision	foodImageDisplay	1	58	58	foodImage.74	FOODEEG_Images\0752.jpg	NY	Right	Yes	0.817316500004381	0	345082	252
676.05078125	0.817316500004381	decision	choicePhaseStart	1	58	58	foodImage.74	FOODEEG_Images\0752.jpg	NY	Right	Yes	0.817316500004381	0	346139	253
676.859375	0	decision	response	1	58	58	foodImage.74	FOODEEG_Images\0752.jpg	NY	Right	Yes	0.817316500004381	0	346553	235
677.900390625	1	taste	trialStart	1	59	59	foodImage.51	FOODEEG_Images\0536.jpg	NY	Right	Yes	0.919209799991222	0	347086	251
678.9453125	2	taste	foodImageDisplay	1	59	59	foodImage.51	FOODEEG_Images\0536.jpg	NY	Right	Yes	0.919209799991222	0	347621	252
681.009765625	0.919209799991222	taste	choicePhaseStart	1	59	59	foodImage.51	FOODEEG_Images\0536.jpg	NY	Right	Yes	0.919209799991222	0	348678	253
681.921875	0	taste	response	1	59	59	foodImage.51	FOODEEG_Images\0536.jpg	NY	Right	Yes	0.919209799991222	0	349145	235
682.966796875	1	health	trialStart	1	60	60	foodImage.115	FOODEEG_Images\0923.jpg	YN	Left	Yes	1.88760419999016	0	349680	251
684.005859375	2	health	foodImageDisplay	1	60	60	foodImage.115	FOODEEG_Images\0923.jpg	YN	Left	Yes	1.88760419999016	0	350212	252
686.068359375	1.88760419999016	health	choicePhaseStart	1	60	60	foodImage.115	FOODEEG_Images\0923.jpg	YN	Left	Yes	1.88760419999016	0	351268	253
687.9453125	0	health	response	1	60	60	foodImage.115	FOODEEG_Images\0923.jpg	YN	Left	Yes	1.88760419999016	0	352229	234
689.98828125	47.8046875	n/a	blockEnd	n/a	n/a	n/a	n/a	n/a	n/a	n/a	n/a	n/a	n/a	353275	254
737.79296875	2	n/a	blockStart	2	n/a	n/a	n/a	n/a	n/a	n/a	n/a	n/a	n/a	377751	250
739.82421875	1	health	trialStart	2	61	1	foodImage.114	FOODEEG_Images\0922.jpg	YN	Left	Yes	1.4810870999936	0	378791	251
740.86328125	2	health	foodImageDisplay	2	61	1	foodImage.114	FOODEEG_Images\0922.jpg	YN	Left	Yes	1.4810870999936	0	379323	252
742.935546875	1.4810870999936	health	choicePhaseStart	2	61	1	foodImage.114	FOODEEG_Images\0922.jpg	YN	Left	Yes	1.4810870999936	0	380384	253
744.408203125	0	health	response	2	61	1	foodImage.114	FOODEEG_Images\0922.jpg	YN	Left	Yes	1.4810870999936	0	381138	234
745.453125	1	health	trialStart	2	62	2	foodImage.59	FOODEEG_Images\0607.jpg	NY	Right	Yes	1.00662090000696	0	381673	251
746.5	2	health	foodImageDisplay	2	62	2	foodImage.59	FOODEEG_Images\0607.jpg	NY	Right	Yes	1.00662090000696	0	382209	252
748.5625	1.00662090000696	health	choicePhaseStart	2	62	2	foodImage.59	FOODEEG_Images\0607.jpg	NY	Right	Yes	1.00662090000696	0	383265	253
749.560546875	0	health	response	2	62	2	foodImage.59	FOODEEG_Images\0607.jpg	NY	Right	Yes	1.00662090000696	0	383776	235
750.6015625	1	health	trialStart	2	63	3	foodImage.45	FOODEEG_Images\0478.jpg	YN	Left	Yes	0.831939199997578	0	384309	251
751.6484375	2	health	foodImageDisplay	2	63	3	foodImage.45	FOODEEG_Images\0478.jpg	YN	Left	Yes	0.831939199997578	0	384845	252
753.712890625	0.831939199997578	health	choicePhaseStart	2	63	3	foodImage.45	FOODEEG_Images\0478.jpg	YN	Left	Yes	0.831939199997578	0	385902	253
754.53515625	0	health	response	2	63	3	foodImage.45	FOODEEG_Images\0478.jpg	YN	Left	Yes	0.831939199997578	0	386323	234
755.578125	1	health	trialStart	2	64	4	foodImage.43	FOODEEG_Images\0445.jpg	NY	Right	Yes	1.34430630000134	0	386857	251
756.63671875	2	health	foodImageDisplay	2	64	4	foodImage.43	FOODEEG_Images\0445.jpg	NY	Right	Yes	1.34430630000134	0	387399	252
758.701171875	1.34430630000134	health	choicePhaseStart	2	64	4	foodImage.43	FOODEEG_Images\0445.jpg	NY	Right	Yes	1.34430630000134	0	388456	253
760.0390625	0	health	response	2	64	4	foodImage.43	FOODEEG_Images\0445.jpg	NY	Right	Yes	1.34430630000134	0	389141	235
761.080078125	1	decision	trialStart	2	65	5	foodImage.100	FOODEEG_Images\0908.jpg	NY	Left	No	0.844497599988244	0	389674	251
762.12109375	2	decision	foodImageDisplay	2	65	5	foodImage.100	FOODEEG_Images\0908.jpg	NY	Left	No	0.844497599988244	0	390207	252
764.185546875	0.844497599988244	decision	choicePhaseStart	2	65	5	foodImage.100	FOODEEG_Images\0908.jpg	NY	Left	No	0.844497599988244	0	391264	253
765.0234375	0	decision	response	2	65	5	foodImage.100	FOODEEG_Images\0908.jpg	NY	Left	No	0.844497599988244	0	391693	234
766.064453125	1	health	trialStart	2	66	6	foodImage.28	FOODEEG_Images\0273.jpg	NY	Right	Yes	1.11459209999884	0	392226	251
767.10546875	2	health	foodImageDisplay	2	66	6	foodImage.28	FOODEEG_Images\0273.jpg	NY	Right	Yes	1.11459209999884	0	392759	252
769.171875	1.11459209999884	health	choicePhaseStart	2	66	6	foodImage.28	FOODEEG_Images\0273.jpg	NY	Right	Yes	1.11459209999884	0	393817	253
770.279296875	0	health	response	2	66	6	foodImage.28	FOODEEG_Images\0273.jpg	NY	Right	Yes	1.11459209999884	0	394384	235
771.322265625	1	taste	trialStart	2	67	7	foodImage.81	FOODEEG_Images\0797.jpg	NY	Left	No	0.926525599992601	0	394918	251
772.37890625	2	taste	foodImageDisplay	2	67	7	foodImage.81	FOODEEG_Images\0797.jpg	NY	Left	No	0.926525599992601	0	395459	252
774.44140625	0.926525599992601	taste	choicePhaseStart	2	67	7	foodImage.81	FOODEEG_Images\0797.jpg	NY	Left	No	0.926525599992601	0	396515	253
775.359375	0	taste	response	2	67	7	foodImage.81	FOODEEG_Images\0797.jpg	NY	Left	No	0.926525599992601	0	396985	234
776.400390625	1	taste	trialStart	2	68	8	foodImage.117	FOODEEG_Images\0925.jpg	NY	Right	Yes	1.04887240000244	0	397518	251
777.439453125	2	taste	foodImageDisplay	2	68	8	foodImage.117	FOODEEG_Images\0925.jpg	NY	Right	Yes	1.04887240000244	0	398050	252
779.50390625	1.04887240000244	taste	choicePhaseStart	2	68	8	foodImage.117	FOODEEG_Images\0925.jpg	NY	Right	Yes	1.04887240000244	0	399107	253
780.54296875	0	taste	response	2	68	8	foodImage.117	FOODEEG_Images\0925.jpg	NY	Right	Yes	1.04887240000244	0	399639	235
781.583984375	1	decision	trialStart	2	69	9	foodImage.54	FOODEEG_Images\0560.jpg	NY	Right	Yes	1.33957860000373	0	400172	251
782.66796875	2	decision	foodImageDisplay	2	69	9	foodImage.54	FOODEEG_Images\0560.jpg	NY	Right	Yes	1.33957860000373	0	400727	252
784.732421875	1.33957860000373	decision	choicePhaseStart	2	69	9	foodImage.54	FOODEEG_Images\0560.jpg	NY	Right	Yes	1.33957860000373	0	401784	253
786.0625	0	decision	response	2	69	9	foodImage.54	FOODEEG_Images\0560.jpg	NY	Right	Yes	1.33957860000373	0	402465	235
787.103515625	1	decision	trialStart	2	70	10	foodImage.116	FOODEEG_Images\0924.jpg	YN	Right	No	0.743127099995036	0	402998	251
788.14453125	2	decision	foodImageDisplay	2	70	10	foodImage.116	FOODEEG_Images\0924.jpg	YN	Right	No	0.743127099995036	0	403531	252
790.208984375	0.743127099995036	decision	choicePhaseStart	2	70	10	foodImage.116	FOODEEG_Images\0924.jpg	YN	Right	No	0.743127099995036	0	404588	253
790.94140625	0	decision	response	2	70	10	foodImage.116	FOODEEG_Images\0924.jpg	YN	Right	No	0.743127099995036	0	404963	235
791.984375	1	taste	trialStart	2	71	11	foodImage.62	FOODEEG_Images\0644.jpg	NY	Right	Yes	1.01059959999111	0	405497	251
793.044921875	2	taste	foodImageDisplay	2	71	11	foodImage.62	FOODEEG_Images\0644.jpg	NY	Right	Yes	1.01059959999111	0	406040	252
795.109375	1.01059959999111	taste	choicePhaseStart	2	71	11	foodImage.62	FOODEEG_Images\0644.jpg	NY	Right	Yes	1.01059959999111	0	407097	253
796.109375	0	taste	response	2	71	11	foodImage.62	FOODEEG_Images\0644.jpg	NY	Right	Yes	1.01059959999111	0	407609	235
797.15234375	1	health	trialStart	2	72	12	foodImage.34	FOODEEG_Images\0339.jpg	YN	Right	No	1.01182469999185	0	408143	251
798.208984375	2	health	foodImageDisplay	2	72	12	foodImage.34	FOODEEG_Images\0339.jpg	YN	Right	No	1.01182469999185	0	408684	252
800.2734375	1.01182469999185	health	choicePhaseStart	2	72	12	foodImage.34	FOODEEG_Images\0339.jpg	YN	Right	No	1.01182469999185	0	409741	253
801.27734375	0	health	response	2	72	12	foodImage.34	FOODEEG_Images\0339.jpg	YN	Right	No	1.01182469999185	0	410255	235
802.3203125	1	decision	trialStart	2	73	13	foodImage.97	FOODEEG_Images\0905.jpg	NY	Left	No	0.814963700002409	0	410789	251
803.369140625	2	decision	foodImageDisplay	2	73	13	foodImage.97	FOODEEG_Images\0905.jpg	NY	Left	No	0.814963700002409	0	411326	252
805.431640625	0.814963700002409	decision	choicePhaseStart	2	73	13	foodImage.97	FOODEEG_Images\0905.jpg	NY	Left	No	0.814963700002409	0	412382	253
806.23828125	0	decision	response	2	73	13	foodImage.97	FOODEEG_Images\0905.jpg	NY	Left	No	0.814963700002409	0	412795	234
807.28125	1	decision	trialStart	2	74	14	foodImage.10	FOODEEG_Images\0145.jpg	YN	Left	Yes	0.795060200005537	0	413329	251
808.33984375	2	decision	foodImageDisplay	2	74	14	foodImage.10	FOODEEG_Images\0145.jpg	YN	Left	Yes	0.795060200005537	0	413871	252
810.404296875	0.795060200005537	decision	choicePhaseStart	2	74	14	foodImage.10	FOODEEG_Images\0145.jpg	YN	Left	Yes	0.795060200005537	0	414928	253
811.189453125	0	decision	response	2	74	14	foodImage.10	FOODEEG_Images\0145.jpg	YN	Left	Yes	0.795060200005537	0	415330	234
812.232421875	1	taste	trialStart	2	75	15	foodImage.4	FOODEEG_Images\0065.jpg	YN	Left	Yes	0.856243000001996	0	415864	251
813.2890625	2	taste	foodImageDisplay	2	75	15	foodImage.4	FOODEEG_Images\0065.jpg	YN	Left	Yes	0.856243000001996	0	416405	252
815.3515625	0.856243000001996	taste	choicePhaseStart	2	75	15	foodImage.4	FOODEEG_Images\0065.jpg	YN	Left	Yes	0.856243000001996	0	417461	253
816.19921875	0	taste	response	2	75	15	foodImage.4	FOODEEG_Images\0065.jpg	YN	Left	Yes	0.856243000001996	0	417895	234
817.2421875	1	taste	trialStart	2	76	16	foodImage.76	FOODEEG_Images\0766.jpg	NY	Left	No	0.960722999996506	0	418429	251
818.30859375	2	taste	foodImageDisplay	2	76	16	foodImage.76	FOODEEG_Images\0766.jpg	NY	Left	No	0.960722999996506	0	418975	252
820.37109375	0.960722999996506	taste	choicePhaseStart	2	76	16	foodImage.76	FOODEEG_Images\0766.jpg	NY	Left	No	0.960722999996506	0	420031	253
821.32421875	0	taste	response	2	76	16	foodImage.76	FOODEEG_Images\0766.jpg	NY	Left	No	0.960722999996506	0	420519	234
822.369140625	1	taste	trialStart	2	77	17	foodImage.103	FOODEEG_Images\0911.jpg	NY	Left	No	0.685307199993986	0	421054	251
823.408203125	2	taste	foodImageDisplay	2	77	17	foodImage.103	FOODEEG_Images\0911.jpg	NY	Left	No	0.685307199993986	0	421586	252
825.47265625	0.685307199993986	taste	choicePhaseStart	2	77	17	foodImage.103	FOODEEG_Images\0911.jpg	NY	Left	No	0.685307199993986	0	422643	253
826.1484375	0	taste	response	2	77	17	foodImage.103	FOODEEG_Images\0911.jpg	NY	Left	No	0.685307199993986	0	422989	234
827.19140625	1	taste	trialStart	2	78	18	foodImage.108	FOODEEG_Images\0916.jpg	YN	Right	No	0.794703499996103	0	423523	251
828.244140625	2	taste	foodImageDisplay	2	78	18	foodImage.108	FOODEEG_Images\0916.jpg	YN	Right	No	0.794703499996103	0	424062	252
830.306640625	0.794703499996103	taste	choicePhaseStart	2	78	18	foodImage.108	FOODEEG_Images\0916.jpg	YN	Right	No	0.794703499996103	0	425118	253
831.091796875	0	taste	response	2	78	18	foodImage.108	FOODEEG_Images\0916.jpg	YN	Right	No	0.794703499996103	0	425520	235
832.134765625	1	decision	trialStart	2	79	19	foodImage.82	FOODEEG_Images\0805.jpg	NY	Left	No	1.09467269999732	0	426054	251
833.216796875	2	decision	foodImageDisplay	2	79	19	foodImage.82	FOODEEG_Images\0805.jpg	NY	Left	No	1.09467269999732	0	426608	252
835.279296875	1.09467269999732	decision	choicePhaseStart	2	79	19	foodImage.82	FOODEEG_Images\0805.jpg	NY	Left	No	1.09467269999732	0	427664	253
836.36328125	0	decision	response	2	79	19	foodImage.82	FOODEEG_Images\0805.jpg	NY	Left	No	1.09467269999732	0	428219	234
837.40625	1	health	trialStart	2	80	20	foodImage.67	FOODEEG_Images\0679.jpg	NY	Right	Yes	1.61085579999781	0	428753	251
838.46484375	2	health	foodImageDisplay	2	80	20	foodImage.67	FOODEEG_Images\0679.jpg	NY	Right	Yes	1.61085579999781	0	429295	252
840.529296875	1.61085579999781	health	choicePhaseStart	2	80	20	foodImage.67	FOODEEG_Images\0679.jpg	NY	Right	Yes	1.61085579999781	0	430352	253
842.130859375	0	health	response	2	80	20	foodImage.67	FOODEEG_Images\0679.jpg	NY	Right	Yes	1.61085579999781	0	431172	235
843.173828125	1	decision	trialStart	2	81	21	foodImage.11	FOODEEG_Images\0180.jpg	NY	Left	No	0.950784300002852	0	431706	251
844.216796875	2	decision	foodImageDisplay	2	81	21	foodImage.11	FOODEEG_Images\0180.jpg	NY	Left	No	0.950784300002852	0	432240	252
846.28515625	0.950784300002852	decision	choicePhaseStart	2	81	21	foodImage.11	FOODEEG_Images\0180.jpg	NY	Left	No	0.950784300002852	0	433299	253
847.2265625	0	decision	response	2	81	21	foodImage.11	FOODEEG_Images\0180.jpg	NY	Left	No	0.950784300002852	0	433781	234
848.26953125	1	health	trialStart	2	82	22	foodImage.75	FOODEEG_Images\0763.jpg	YN	Left	Yes	0.989093800002593	0	434315	251
849.31640625	2	health	foodImageDisplay	2	82	22	foodImage.75	FOODEEG_Images\0763.jpg	YN	Left	Yes	0.989093800002593	0	434851	252
851.3828125	0.989093800002593	health	choicePhaseStart	2	82	22	foodImage.75	FOODEEG_Images\0763.jpg	YN	Left	Yes	0.989093800002593	0	435909	253
852.36328125	0	health	response	2	82	22	foodImage.75	FOODEEG_Images\0763.jpg	YN	Left	Yes	0.989093800002593	0	436411	234
853.408203125	1	taste	trialStart	2	83	23	foodImage.110	FOODEEG_Images\0918.jpg	NY	Left	No	1.09909499999776	0	436946	251
854.447265625	2	taste	foodImageDisplay	2	83	23	foodImage.110	FOODEEG_Images\0918.jpg	NY	Left	No	1.09909499999776	0	437478	252
856.51171875	1.09909499999776	taste	choicePhaseStart	2	83	23	foodImage.110	FOODEEG_Images\0918.jpg	NY	Left	No	1.09909499999776	0	438535	253
857.603515625	0	taste	response	2	83	23	foodImage.110	FOODEEG_Images\0918.jpg	NY	Left	No	1.09909499999776	0	439094	234
858.646484375	1	health	trialStart	2	84	24	foodImage.81	FOODEEG_Images\0797.jpg	YN	Left	Yes	1.22008699999424	0	439628	251
859.705078125	2	health	foodImageDisplay	2	84	24	foodImage.81	FOODEEG_Images\0797.jpg	YN	Left	Yes	1.22008699999424	0	440170	252
861.767578125	1.22008699999424	health	choicePhaseStart	2	84	24	foodImage.81	FOODEEG_Images\0797.jpg	YN	Left	Yes	1.22008699999424	0	441226	253
862.978515625	0	health	response	2	84	24	foodImage.81	FOODEEG_Images\0797.jpg	YN	Left	Yes	1.22008699999424	0	441846	234
864.021484375	1	health	trialStart	2	85	25	foodImage.104	FOODEEG_Images\0912.jpg	YN	Right	No	1.64119759999448	0	442380	251
865.05859375	2	health	foodImageDisplay	2	85	25	foodImage.104	FOODEEG_Images\0912.jpg	YN	Right	No	1.64119759999448	0	442911	252
867.123046875	1.64119759999448	health	choicePhaseStart	2	85	25	foodImage.104	FOODEEG_Images\0912.jpg	YN	Right	No	1.64119759999448	0	443968	253
868.75390625	0	health	response	2	85	25	foodImage.104	FOODEEG_Images\0912.jpg	YN	Right	No	1.64119759999448	0	444803	235
869.796875	1	decision	trialStart	2	86	26	foodImage.85	FOODEEG_Images\0841.jpg	NY	Left	No	0.956304099992849	0	445337	251
870.85546875	2	decision	foodImageDisplay	2	86	26	foodImage.85	FOODEEG_Images\0841.jpg	NY	Left	No	0.956304099992849	0	445879	252
872.919921875	0.956304099992849	decision	choicePhaseStart	2	86	26	foodImage.85	FOODEEG_Images\0841.jpg	NY	Left	No	0.956304099992849	0	446936	253
873.8671875	0	decision	response	2	86	26	foodImage.85	FOODEEG_Images\0841.jpg	NY	Left	No	0.956304099992849	0	447421	234
874.91015625	1	health	trialStart	2	87	27	foodImage.112	FOODEEG_Images\0920.jpg	NY	Left	No	1.35276189999422	0	447955	251
875.94921875	2	health	foodImageDisplay	2	87	27	foodImage.112	FOODEEG_Images\0920.jpg	NY	Left	No	1.35276189999422	0	448487	252
878.01171875	1.35276189999422	health	choicePhaseStart	2	87	27	foodImage.112	FOODEEG_Images\0920.jpg	NY	Left	No	1.35276189999422	0	449543	253
879.353515625	0	health	response	2	87	27	foodImage.112	FOODEEG_Images\0920.jpg	NY	Left	No	1.35276189999422	0	450230	234
880.40234375	1	taste	trialStart	2	88	28	foodImage.101	FOODEEG_Images\0909.jpg	NY	Left	No	0.955512500004261	0	450767	251
881.44140625	2	taste	foodImageDisplay	2	88	28	foodImage.101	FOODEEG_Images\0909.jpg	NY	Left	No	0.955512500004261	0	451299	252
883.50390625	0.955512500004261	taste	choicePhaseStart	2	88	28	foodImage.101	FOODEEG_Images\0909.jpg	NY	Left	No	0.955512500004261	0	452355	253
884.44921875	0	taste	response	2	88	28	foodImage.101	FOODEEG_Images\0909.jpg	NY	Left	No	0.955512500004261	0	452839	234
885.4921875	1	decision	trialStart	2	89	29	foodImage.39	FOODEEG_Images\0367.jpg	NY	Right	Yes	0.836110899996129	0	453373	251
886.53125	2	decision	foodImageDisplay	2	89	29	foodImage.39	FOODEEG_Images\0367.jpg	NY	Right	Yes	0.836110899996129	0	453905	252
888.599609375	0.836110899996129	decision	choicePhaseStart	2	89	29	foodImage.39	FOODEEG_Images\0367.jpg	NY	Right	Yes	0.836110899996129	0	454964	253
889.42578125	0	decision	response	2	89	29	foodImage.39	FOODEEG_Images\0367.jpg	NY	Right	Yes	0.836110899996129	0	455387	235
890.470703125	1	health	trialStart	2	90	30	foodImage.111	FOODEEG_Images\0919.jpg	NY	Left	No	1.16449450000073	0	455922	251
891.509765625	2	health	foodImageDisplay	2	90	30	foodImage.111	FOODEEG_Images\0919.jpg	NY	Left	No	1.16449450000073	0	456454	252
893.57421875	1.16449450000073	health	choicePhaseStart	2	90	30	foodImage.111	FOODEEG_Images\0919.jpg	NY	Left	No	1.16449450000073	0	457511	253
894.73046875	0	health	response	2	90	30	foodImage.111	FOODEEG_Images\0919.jpg	NY	Left	No	1.16449450000073	0	458103	234
895.7734375	1	decision	trialStart	2	91	31	foodImage.12	FOODEEG_Images\0181.jpg	NY	Right	Yes	1.58235880000575	0	458637	251
896.814453125	2	decision	foodImageDisplay	2	91	31	foodImage.12	FOODEEG_Images\0181.jpg	NY	Right	Yes	1.58235880000575	0	459170	252
898.876953125	1.58235880000575	decision	choicePhaseStart	2	91	31	foodImage.12	FOODEEG_Images\0181.jpg	NY	Right	Yes	1.58235880000575	0	460226	253
900.44921875	0	decision	response	2	91	31	foodImage.12	FOODEEG_Images\0181.jpg	NY	Right	Yes	1.58235880000575	0	461031	235
901.4921875	1	decision	trialStart	2	92	32	foodImage.115	FOODEEG_Images\0923.jpg	YN	Right	No	0.829004900006112	0	461565	251
902.53125	2	decision	foodImageDisplay	2	92	32	foodImage.115	FOODEEG_Images\0923.jpg	YN	Right	No	0.829004900006112	0	462097	252
904.59375	0.829004900006112	decision	choicePhaseStart	2	92	32	foodImage.115	FOODEEG_Images\0923.jpg	YN	Right	No	0.829004900006112	0	463153	253
905.41796875	0	decision	response	2	92	32	foodImage.115	FOODEEG_Images\0923.jpg	YN	Right	No	0.829004900006112	0	463575	235
906.458984375	1	health	trialStart	2	93	33	foodImage.113	FOODEEG_Images\0921.jpg	YN	Right	No	0.990216700010933	0	464108	251
907.498046875	2	health	foodImageDisplay	2	93	33	foodImage.113	FOODEEG_Images\0921.jpg	YN	Right	No	0.990216700010933	0	464640	252
909.560546875	0.990216700010933	health	choicePhaseStart	2	93	33	foodImage.113	FOODEEG_Images\0921.jpg	YN	Right	No	0.990216700010933	0	465696	253
910.544921875	0	health	response	2	93	33	foodImage.113	FOODEEG_Images\0921.jpg	YN	Right	No	0.990216700010933	0	466200	235
911.587890625	1	decision	trialStart	2	94	34	foodImage.92	FOODEEG_Images\0900.jpg	NY	Left	No	0.854853400000138	0	466734	251
912.62890625	2	decision	foodImageDisplay	2	94	34	foodImage.92	FOODEEG_Images\0900.jpg	NY	Left	No	0.854853400000138	0	467267	252
914.69140625	0.854853400000138	decision	choicePhaseStart	2	94	34	foodImage.92	FOODEEG_Images\0900.jpg	NY	Left	No	0.854853400000138	0	468323	253
915.537109375	0	decision	response	2	94	34	foodImage.92	FOODEEG_Images\0900.jpg	NY	Left	No	0.854853400000138	0	468756	234
916.576171875	1	taste	trialStart	2	95	35	foodImage.100	FOODEEG_Images\0908.jpg	NY	Left	No	0.675425699999323	0	469288	251
917.615234375	2	taste	foodImageDisplay	2	95	35	foodImage.100	FOODEEG_Images\0908.jpg	NY	Left	No	0.675425699999323	0	469820	252
919.68359375	0.675425699999323	taste	choicePhaseStart	2	95	35	foodImage.100	FOODEEG_Images\0908.jpg	NY	Left	No	0.675425699999323	0	470879	253
920.353515625	0	taste	response	2	95	35	foodImage.100	FOODEEG_Images\0908.jpg	NY	Left	No	0.675425699999323	0	471222	234
921.39453125	1	taste	trialStart	2	96	36	foodImage.8	FOODEEG_Images\0136.jpg	YN	Left	Yes	1.27426379999088	0	471755	251
922.435546875	2	taste	foodImageDisplay	2	96	36	foodImage.8	FOODEEG_Images\0136.jpg	YN	Left	Yes	1.27426379999088	0	472288	252
924.501953125	1.27426379999088	taste	choicePhaseStart	2	96	36	foodImage.8	FOODEEG_Images\0136.jpg	YN	Left	Yes	1.27426379999088	0	473346	253
925.767578125	0	taste	response	2	96	36	foodImage.8	FOODEEG_Images\0136.jpg	YN	Left	Yes	1.27426379999088	0	473994	234
926.810546875	1	taste	trialStart	2	97	37	foodImage.98	FOODEEG_Images\0906.jpg	NY	Left	No	0.765468199999304	0	474528	251
927.865234375	2	taste	foodImageDisplay	2	97	37	foodImage.98	FOODEEG_Images\0906.jpg	NY	Left	No	0.765468199999304	0	475068	252
929.93359375	0.765468199999304	taste	choicePhaseStart	2	97	37	foodImage.98	FOODEEG_Images\0906.jpg	NY	Left	No	0.765468199999304	0	476127	253
930.6875	0	taste	response	2	97	37	foodImage.98	FOODEEG_Images\0906.jpg	NY	Left	No	0.765468199999304	0	476513	234
931.732421875	1	decision	trialStart	2	98	38	foodImage.18	FOODEEG_Images\0202.jpg	YN	Left	Yes	1.34176080000179	0	477048	251
932.787109375	2	decision	foodImageDisplay	2	98	38	foodImage.18	FOODEEG_Images\0202.jpg	YN	Left	Yes	1.34176080000179	0	477588	252
934.8515625	1.34176080000179	decision	choicePhaseStart	2	98	38	foodImage.18	FOODEEG_Images\0202.jpg	YN	Left	Yes	1.34176080000179	0	478645	253
936.18359375	0	decision	response	2	98	38	foodImage.18	FOODEEG_Images\0202.jpg	YN	Left	Yes	1.34176080000179	0	479327	234
937.2265625	1	health	trialStart	2	99	39	foodImage.74	FOODEEG_Images\0752.jpg	NY	Right	Yes	1.54699509999773	0	479861	251
938.271484375	2	health	foodImageDisplay	2	99	39	foodImage.74	FOODEEG_Images\0752.jpg	NY	Right	Yes	1.54699509999773	0	480396	252
940.333984375	1.54699509999773	health	choicePhaseStart	2	99	39	foodImage.74	FOODEEG_Images\0752.jpg	NY	Right	Yes	1.54699509999773	0	481452	253
941.873046875	0	health	response	2	99	39	foodImage.74	FOODEEG_Images\0752.jpg	NY	Right	Yes	1.54699509999773	0	482240	235
942.9140625	1	health	trialStart	2	100	40	foodImage.16	FOODEEG_Images\0196.jpg	NY	Right	Yes	1.38731530000223	0	482773	251
943.974609375	2	health	foodImageDisplay	2	100	40	foodImage.16	FOODEEG_Images\0196.jpg	NY	Right	Yes	1.38731530000223	0	483316	252
946.037109375	1.38731530000223	health	choicePhaseStart	2	100	40	foodImage.16	FOODEEG_Images\0196.jpg	NY	Right	Yes	1.38731530000223	0	484372	253
947.416015625	0	health	response	2	100	40	foodImage.16	FOODEEG_Images\0196.jpg	NY	Right	Yes	1.38731530000223	0	485078	235
948.46484375	1	health	trialStart	2	101	41	foodImage.87	FOODEEG_Images\0873.jpg	YN	Left	Yes	0.687265600005048	0	485615	251
949.521484375	2	health	foodImageDisplay	2	101	41	foodImage.87	FOODEEG_Images\0873.jpg	YN	Left	Yes	0.687265600005048	0	486156	252
951.5859375	0.687265600005048	health	choicePhaseStart	2	101	41	foodImage.87	FOODEEG_Images\0873.jpg	YN	Left	Yes	0.687265600005048	0	487213	253
952.263671875	0	health	response	2	101	41	foodImage.87	FOODEEG_Images\0873.jpg	YN	Left	Yes	0.687265600005048	0	487560	234
953.306640625	1	decision	trialStart	2	102	42	foodImage.56	FOODEEG_Images\0586.jpg	YN	Right	No	1.04449020000175	0	488094	251
954.349609375	2	decision	foodImageDisplay	2	102	42	foodImage.56	FOODEEG_Images\0586.jpg	YN	Right	No	1.04449020000175	0	488628	252
956.412109375	1.04449020000175	decision	choicePhaseStart	2	102	42	foodImage.56	FOODEEG_Images\0586.jpg	YN	Right	No	1.04449020000175	0	489684	253
957.447265625	0	decision	response	2	102	42	foodImage.56	FOODEEG_Images\0586.jpg	YN	Right	No	1.04449020000175	0	490214	235
958.48828125	1	taste	trialStart	2	103	43	foodImage.67	FOODEEG_Images\0679.jpg	YN	Left	Yes	0.75397749998956	0	490747	251
959.546875	2	taste	foodImageDisplay	2	103	43	foodImage.67	FOODEEG_Images\0679.jpg	YN	Left	Yes	0.75397749998956	0	491289	252
961.611328125	0.75397749998956	taste	choicePhaseStart	2	103	43	foodImage.67	FOODEEG_Images\0679.jpg	YN	Left	Yes	0.75397749998956	0	492346	253
962.359375	0	taste	response	2	103	43	foodImage.67	FOODEEG_Images\0679.jpg	YN	Left	Yes	0.75397749998956	0	492729	234
963.40234375	1	taste	trialStart	2	104	44	foodImage.21	FOODEEG_Images\0234.jpg	YN	Left	Yes	0.815382200002205	0	493263	251
964.458984375	2	taste	foodImageDisplay	2	104	44	foodImage.21	FOODEEG_Images\0234.jpg	YN	Left	Yes	0.815382200002205	0	493804	252
966.52734375	0.815382200002205	taste	choicePhaseStart	2	104	44	foodImage.21	FOODEEG_Images\0234.jpg	YN	Left	Yes	0.815382200002205	0	494863	253
967.3359375	0	taste	response	2	104	44	foodImage.21	FOODEEG_Images\0234.jpg	YN	Left	Yes	0.815382200002205	0	495277	234
968.3828125	1	decision	trialStart	2	105	45	foodImage.26	FOODEEG_Images\0262.jpg	NY	Left	No	0.916906899990863	0	495813	251
969.42578125	2	decision	foodImageDisplay	2	105	45	foodImage.26	FOODEEG_Images\0262.jpg	NY	Left	No	0.916906899990863	0	496347	252
971.48828125	0.916906899990863	decision	choicePhaseStart	2	105	45	foodImage.26	FOODEEG_Images\0262.jpg	NY	Left	No	0.916906899990863	0	497403	253
972.3984375	0	decision	response	2	105	45	foodImage.26	FOODEEG_Images\0262.jpg	NY	Left	No	0.916906899990863	0	497869	234
973.44140625	1	taste	trialStart	2	106	46	foodImage.111	FOODEEG_Images\0919.jpg	NY	Left	No	0.871516600003815	0	498403	251
974.48046875	2	taste	foodImageDisplay	2	106	46	foodImage.111	FOODEEG_Images\0919.jpg	NY	Left	No	0.871516600003815	0	498935	252
976.544921875	0.871516600003815	taste	choicePhaseStart	2	106	46	foodImage.111	FOODEEG_Images\0919.jpg	NY	Left	No	0.871516600003815	0	499992	253
977.40625	0	taste	response	2	106	46	foodImage.111	FOODEEG_Images\0919.jpg	NY	Left	No	0.871516600003815	0	500433	234
978.447265625	1	taste	trialStart	2	107	47	foodImage.7	FOODEEG_Images\0116.jpg	YN	Left	Yes	0.802144000001135	0	500966	251
979.490234375	2	taste	foodImageDisplay	2	107	47	foodImage.7	FOODEEG_Images\0116.jpg	YN	Left	Yes	0.802144000001135	0	501500	252
981.556640625	0.802144000001135	taste	choicePhaseStart	2	107	47	foodImage.7	FOODEEG_Images\0116.jpg	YN	Left	Yes	0.802144000001135	0	502558	253
982.349609375	0	taste	response	2	107	47	foodImage.7	FOODEEG_Images\0116.jpg	YN	Left	Yes	0.802144000001135	0	502964	234
983.396484375	1	taste	trialStart	2	108	48	foodImage.49	FOODEEG_Images\0515.jpg	NY	Right	Yes	1.1095587000018	0	503500	251
984.439453125	2	taste	foodImageDisplay	2	108	48	foodImage.49	FOODEEG_Images\0515.jpg	NY	Right	Yes	1.1095587000018	0	504034	252
986.505859375	1.1095587000018	taste	choicePhaseStart	2	108	48	foodImage.49	FOODEEG_Images\0515.jpg	NY	Right	Yes	1.1095587000018	0	505092	253
987.60546875	0	taste	response	2	108	48	foodImage.49	FOODEEG_Images\0515.jpg	NY	Right	Yes	1.1095587000018	0	505655	235
988.6484375	1	decision	trialStart	2	109	49	foodImage.81	FOODEEG_Images\0797.jpg	NY	Left	No	1.04879749999964	0	506189	251
989.70703125	2	decision	foodImageDisplay	2	109	49	foodImage.81	FOODEEG_Images\0797.jpg	NY	Left	No	1.04879749999964	0	506731	252
991.771484375	1.04879749999964	decision	choicePhaseStart	2	109	49	foodImage.81	FOODEEG_Images\0797.jpg	NY	Left	No	1.04879749999964	0	507788	253
992.814453125	0	decision	response	2	109	49	foodImage.81	FOODEEG_Images\0797.jpg	NY	Left	No	1.04879749999964	0	508322	234
993.857421875	1	decision	trialStart	2	110	50	foodImage.95	FOODEEG_Images\0903.jpg	NY	Left	No	0.711891500002821	0	508856	251
994.89453125	2	decision	foodImageDisplay	2	110	50	foodImage.95	FOODEEG_Images\0903.jpg	NY	Left	No	0.711891500002821	0	509387	252
996.958984375	0.711891500002821	decision	choicePhaseStart	2	110	50	foodImage.95	FOODEEG_Images\0903.jpg	NY	Left	No	0.711891500002821	0	510444	253
997.662109375	0	decision	response	2	110	50	foodImage.95	FOODEEG_Images\0903.jpg	NY	Left	No	0.711891500002821	0	510804	234
998.708984375	1	taste	trialStart	2	111	51	foodImage.6	FOODEEG_Images\0113.jpg	YN	Left	Yes	0.75104210000427	0	511340	251
999.751953125	2	taste	foodImageDisplay	2	111	51	foodImage.6	FOODEEG_Images\0113.jpg	YN	Left	Yes	0.75104210000427	0	511874	252
1001.81640625	0.75104210000427	taste	choicePhaseStart	2	111	51	foodImage.6	FOODEEG_Images\0113.jpg	YN	Left	Yes	0.75104210000427	0	512931	253
1002.556640625	0	taste	response	2	111	51	foodImage.6	FOODEEG_Images\0113.jpg	YN	Left	Yes	0.75104210000427	0	513310	234
1003.599609375	1	decision	trialStart	2	112	52	foodImage.36	FOODEEG_Images\0352.jpg	NY	Left	No	0.660172300005797	0	513844	251
1004.658203125	2	decision	foodImageDisplay	2	112	52	foodImage.36	FOODEEG_Images\0352.jpg	NY	Left	No	0.660172300005797	0	514386	252
1006.72265625	0.660172300005797	decision	choicePhaseStart	2	112	52	foodImage.36	FOODEEG_Images\0352.jpg	NY	Left	No	0.660172300005797	0	515443	253
1007.373046875	0	decision	response	2	112	52	foodImage.36	FOODEEG_Images\0352.jpg	NY	Left	No	0.660172300005797	0	515776	234
1008.41796875	1	health	trialStart	2	113	53	foodImage.50	FOODEEG_Images\0529.jpg	NY	Right	Yes	1.31419180000375	0	516311	251
1009.4765625	2	health	foodImageDisplay	2	113	53	foodImage.50	FOODEEG_Images\0529.jpg	NY	Right	Yes	1.31419180000375	0	516853	252
1011.541015625	1.31419180000375	health	choicePhaseStart	2	113	53	foodImage.50	FOODEEG_Images\0529.jpg	NY	Right	Yes	1.31419180000375	0	517910	253
1012.845703125	0	health	response	2	113	53	foodImage.50	FOODEEG_Images\0529.jpg	NY	Right	Yes	1.31419180000375	0	518578	235
1013.888671875	1	health	trialStart	2	114	54	foodImage.76	FOODEEG_Images\0766.jpg	NY	Right	Yes	0.752419800002826	0	519112	251
1014.93359375	2	health	foodImageDisplay	2	114	54	foodImage.76	FOODEEG_Images\0766.jpg	NY	Right	Yes	0.752419800002826	0	519647	252
1016.998046875	0.752419800002826	health	choicePhaseStart	2	114	54	foodImage.76	FOODEEG_Images\0766.jpg	NY	Right	Yes	0.752419800002826	0	520704	253
1017.7421875	0	health	response	2	114	54	foodImage.76	FOODEEG_Images\0766.jpg	NY	Right	Yes	0.752419800002826	0	521085	235
1018.783203125	1	decision	trialStart	2	115	55	foodImage.30	FOODEEG_Images\0282.jpg	NY	Right	Yes	0.903734099993017	0	521618	251
1019.828125	2	decision	foodImageDisplay	2	115	55	foodImage.30	FOODEEG_Images\0282.jpg	NY	Right	Yes	0.903734099993017	0	522153	252
1021.89453125	0.903734099993017	decision	choicePhaseStart	2	115	55	foodImage.30	FOODEEG_Images\0282.jpg	NY	Right	Yes	0.903734099993017	0	523211	253
1022.7890625	0	decision	response	2	115	55	foodImage.30	FOODEEG_Images\0282.jpg	NY	Right	Yes	0.903734099993017	0	523669	235
1023.83203125	1	health	trialStart	2	116	56	foodImage.118	FOODEEG_Images\0926.jpg	YN	Left	Yes	1.23092919999908	0	524203	251
1024.88671875	2	health	foodImageDisplay	2	116	56	foodImage.118	FOODEEG_Images\0926.jpg	YN	Left	Yes	1.23092919999908	0	524743	252
1026.951171875	1.23092919999908	health	choicePhaseStart	2	116	56	foodImage.118	FOODEEG_Images\0926.jpg	YN	Left	Yes	1.23092919999908	0	525800	253
1028.171875	0	health	response	2	116	56	foodImage.118	FOODEEG_Images\0926.jpg	YN	Left	Yes	1.23092919999908	0	526425	234
1029.21484375	1	health	trialStart	2	117	57	foodImage.2	FOODEEG_Images\0028.jpg	NY	Left	No	0.825236199991195	0	526959	251
1030.2578125	2	health	foodImageDisplay	2	117	57	foodImage.2	FOODEEG_Images\0028.jpg	NY	Left	No	0.825236199991195	0	527493	252
1032.3203125	0.825236199991195	health	choicePhaseStart	2	117	57	foodImage.2	FOODEEG_Images\0028.jpg	NY	Left	No	0.825236199991195	0	528549	253
1033.140625	0	health	response	2	117	57	foodImage.2	FOODEEG_Images\0028.jpg	NY	Left	No	0.825236199991195	0	528969	234
1034.185546875	1	decision	trialStart	2	118	58	foodImage.104	FOODEEG_Images\0912.jpg	NY	Left	No	1.1167562000046	0	529504	251
1035.22265625	2	decision	foodImageDisplay	2	118	58	foodImage.104	FOODEEG_Images\0912.jpg	NY	Left	No	1.1167562000046	0	530035	252
1037.2890625	1.1167562000046	decision	choicePhaseStart	2	118	58	foodImage.104	FOODEEG_Images\0912.jpg	NY	Left	No	1.1167562000046	0	531093	253
1038.396484375	0	decision	response	2	118	58	foodImage.104	FOODEEG_Images\0912.jpg	NY	Left	No	1.1167562000046	0	531660	234
1039.4375	1	taste	trialStart	2	119	59	foodImage.11	FOODEEG_Images\0180.jpg	YN	Right	No	1.48593410001195	0	532193	251
1040.478515625	2	taste	foodImageDisplay	2	119	59	foodImage.11	FOODEEG_Images\0180.jpg	YN	Right	No	1.48593410001195	0	532726	252
1042.54296875	1.48593410001195	taste	choicePhaseStart	2	119	59	foodImage.11	FOODEEG_Images\0180.jpg	YN	Right	No	1.48593410001195	0	533783	253
1044.01953125	0	taste	response	2	119	59	foodImage.11	FOODEEG_Images\0180.jpg	YN	Right	No	1.48593410001195	0	534539	235
1045.0625	1	decision	trialStart	2	120	60	foodImage.23	FOODEEG_Images\0244.jpg	YN	Right	No	0.740760100001353	0	535073	251
1046.103515625	2	decision	foodImageDisplay	2	120	60	foodImage.23	FOODEEG_Images\0244.jpg	YN	Right	No	0.740760100001353	0	535606	252
1048.16796875	0.740760100001353	decision	choicePhaseStart	2	120	60	foodImage.23	FOODEEG_Images\0244.jpg	YN	Right	No	0.740760100001353	0	536663	253
1048.900390625	0	decision	response	2	120	60	foodImage.23	FOODEEG_Images\0244.jpg	YN	Right	No	0.740760100001353	0	537038	235
1050.943359375	66.40234375	n/a	blockEnd	n/a	n/a	n/a	n/a	n/a	n/a	n/a	n/a	n/a	n/a	538084	254
1117.345703125	2	n/a	blockStart	3	n/a	n/a	n/a	n/a	n/a	n/a	n/a	n/a	n/a	572082	250
1119.380859375	1	taste	trialStart	3	121	1	foodImage.83	FOODEEG_Images\0827.jpg	YN	Left	Yes	0.80173150000337	0	573124	251
1120.44140625	2	taste	foodImageDisplay	3	121	1	foodImage.83	FOODEEG_Images\0827.jpg	YN	Left	Yes	0.80173150000337	0	573667	252
1122.505859375	0.80173150000337	taste	choicePhaseStart	3	121	1	foodImage.83	FOODEEG_Images\0827.jpg	YN	Left	Yes	0.80173150000337	0	574724	253
1123.298828125	0	taste	response	3	121	1	foodImage.83	FOODEEG_Images\0827.jpg	YN	Left	Yes	0.80173150000337	0	575130	234
1124.33984375	1	taste	trialStart	3	122	2	foodImage.73	FOODEEG_Images\0717.jpg	YN	Left	Yes	0.924755599990021	0	575663	251
1125.3984375	2	taste	foodImageDisplay	3	122	2	foodImage.73	FOODEEG_Images\0717.jpg	YN	Left	Yes	0.924755599990021	0	576205	252
1127.4609375	0.924755599990021	taste	choicePhaseStart	3	122	2	foodImage.73	FOODEEG_Images\0717.jpg	YN	Left	Yes	0.924755599990021	0	577261	253
1128.376953125	0	taste	response	3	122	2	foodImage.73	FOODEEG_Images\0717.jpg	YN	Left	Yes	0.924755599990021	0	577730	234
1129.419921875	1	health	trialStart	3	123	3	foodImage.78	FOODEEG_Images\0787.jpg	YN	Left	Yes	0.663797899993369	0	578264	251
1130.462890625	2	health	foodImageDisplay	3	123	3	foodImage.78	FOODEEG_Images\0787.jpg	YN	Left	Yes	0.663797899993369	0	578798	252
1132.52734375	0.663797899993369	health	choicePhaseStart	3	123	3	foodImage.78	FOODEEG_Images\0787.jpg	YN	Left	Yes	0.663797899993369	0	579855	253
1133.18359375	0	health	response	3	123	3	foodImage.78	FOODEEG_Images\0787.jpg	YN	Left	Yes	0.663797899993369	0	580191	234
1134.2265625	1	taste	trialStart	3	124	4	foodImage.26	FOODEEG_Images\0262.jpg	YN	Right	No	1.30927849998989	0	580725	251
1135.26953125	2	taste	foodImageDisplay	3	124	4	foodImage.26	FOODEEG_Images\0262.jpg	YN	Right	No	1.30927849998989	0	581259	252
1137.33203125	1.30927849998989	taste	choicePhaseStart	3	124	4	foodImage.26	FOODEEG_Images\0262.jpg	YN	Right	No	1.30927849998989	0	582315	253
1138.6328125	0	taste	response	3	124	4	foodImage.26	FOODEEG_Images\0262.jpg	YN	Right	No	1.30927849998989	0	582981	235
1139.67578125	1	taste	trialStart	3	125	5	foodImage.15	FOODEEG_Images\0189.jpg	NY	Right	Yes	0.76189290000184	0	583515	251
1140.751953125	2	taste	foodImageDisplay	3	125	5	foodImage.15	FOODEEG_Images\0189.jpg	NY	Right	Yes	0.76189290000184	0	584066	252
1142.814453125	0.76189290000184	taste	choicePhaseStart	3	125	5	foodImage.15	FOODEEG_Images\0189.jpg	NY	Right	Yes	0.76189290000184	0	585122	253
1143.568359375	0	taste	response	3	125	5	foodImage.15	FOODEEG_Images\0189.jpg	NY	Right	Yes	0.76189290000184	0	585508	235
1144.611328125	1	health	trialStart	3	126	6	foodImage.89	FOODEEG_Images\0881.jpg	YN	Left	Yes	0.924251999997068	0	586042	251
1145.69140625	2	health	foodImageDisplay	3	126	6	foodImage.89	FOODEEG_Images\0881.jpg	YN	Left	Yes	0.924251999997068	0	586595	252
1147.75390625	0.924251999997068	health	choicePhaseStart	3	126	6	foodImage.89	FOODEEG_Images\0881.jpg	YN	Left	Yes	0.924251999997068	0	587651	253
1148.671875	0	health	response	3	126	6	foodImage.89	FOODEEG_Images\0881.jpg	YN	Left	Yes	0.924251999997068	0	588121	234
1149.71484375	1	decision	trialStart	3	127	7	foodImage.1	FOODEEG_Images\0004.jpg	YN	Left	Yes	0.78912620000483	0	588655	251
1150.755859375	2	decision	foodImageDisplay	3	127	7	foodImage.1	FOODEEG_Images\0004.jpg	YN	Left	Yes	0.78912620000483	0	589188	252
1152.8203125	0.78912620000483	decision	choicePhaseStart	3	127	7	foodImage.1	FOODEEG_Images\0004.jpg	YN	Left	Yes	0.78912620000483	0	590245	253
1153.599609375	0	decision	response	3	127	7	foodImage.1	FOODEEG_Images\0004.jpg	YN	Left	Yes	0.78912620000483	0	590644	234
1154.642578125	1	taste	trialStart	3	128	8	foodImage.46	FOODEEG_Images\0479.jpg	NY	Left	No	0.987961999999243	0	591178	251
1155.701171875	2	taste	foodImageDisplay	3	128	8	foodImage.46	FOODEEG_Images\0479.jpg	NY	Left	No	0.987961999999243	0	591720	252
1157.763671875	0.987961999999243	taste	choicePhaseStart	3	128	8	foodImage.46	FOODEEG_Images\0479.jpg	NY	Left	No	0.987961999999243	0	592776	253
1158.744140625	0	taste	response	3	128	8	foodImage.46	FOODEEG_Images\0479.jpg	NY	Left	No	0.987961999999243	0	593278	234
1159.787109375	1	decision	trialStart	3	129	9	foodImage.77	FOODEEG_Images\0771.jpg	NY	Right	Yes	0.705693900003098	0	593812	251
1160.830078125	2	decision	foodImageDisplay	3	129	9	foodImage.77	FOODEEG_Images\0771.jpg	NY	Right	Yes	0.705693900003098	0	594346	252
1162.89453125	0.705693900003098	decision	choicePhaseStart	3	129	9	foodImage.77	FOODEEG_Images\0771.jpg	NY	Right	Yes	0.705693900003098	0	595403	253
1163.591796875	0	decision	response	3	129	9	foodImage.77	FOODEEG_Images\0771.jpg	NY	Right	Yes	0.705693900003098	0	595760	235
1164.63671875	1	taste	trialStart	3	130	10	foodImage.72	FOODEEG_Images\0714.jpg	NY	Left	No	0.649614499998279	0	596295	251
1165.6796875	2	taste	foodImageDisplay	3	130	10	foodImage.72	FOODEEG_Images\0714.jpg	NY	Left	No	0.649614499998279	0	596829	252
1167.7421875	0.649614499998279	taste	choicePhaseStart	3	130	10	foodImage.72	FOODEEG_Images\0714.jpg	NY	Left	No	0.649614499998279	0	597885	253
1168.3828125	0	taste	response	3	130	10	foodImage.72	FOODEEG_Images\0714.jpg	NY	Left	No	0.649614499998279	0	598213	234
1169.42578125	1	decision	trialStart	3	131	11	foodImage.55	FOODEEG_Images\0567.jpg	NY	Left	No	0.7833787999989	0	598747	251
1170.486328125	2	decision	foodImageDisplay	3	131	11	foodImage.55	FOODEEG_Images\0567.jpg	NY	Left	No	0.7833787999989	0	599290	252
1172.55078125	0.7833787999989	decision	choicePhaseStart	3	131	11	foodImage.55	FOODEEG_Images\0567.jpg	NY	Left	No	0.7833787999989	0	600347	253
1173.326171875	0	decision	response	3	131	11	foodImage.55	FOODEEG_Images\0567.jpg	NY	Left	No	0.7833787999989	0	600744	234
1174.369140625	1	decision	trialStart	3	132	12	foodImage.112	FOODEEG_Images\0920.jpg	NY	Left	No	0.559567300006165	0	601278	251
1175.41015625	2	decision	foodImageDisplay	3	132	12	foodImage.112	FOODEEG_Images\0920.jpg	NY	Left	No	0.559567300006165	0	601811	252
1177.47265625	0.559567300006165	decision	choicePhaseStart	3	132	12	foodImage.112	FOODEEG_Images\0920.jpg	NY	Left	No	0.559567300006165	0	602867	253
1178.0234375	0	decision	response	3	132	12	foodImage.112	FOODEEG_Images\0920.jpg	NY	Left	No	0.559567300006165	0	603149	234
1179.06640625	1	decision	trialStart	3	133	13	foodImage.3	FOODEEG_Images\0046.jpg	YN	Left	Yes	0.651363700002548	0	603683	251
1180.109375	2	decision	foodImageDisplay	3	133	13	foodImage.3	FOODEEG_Images\0046.jpg	YN	Left	Yes	0.651363700002548	0	604217	252
1182.171875	0.651363700002548	decision	choicePhaseStart	3	133	13	foodImage.3	FOODEEG_Images\0046.jpg	YN	Left	Yes	0.651363700002548	0	605273	253
1182.814453125	0	decision	response	3	133	13	foodImage.3	FOODEEG_Images\0046.jpg	YN	Left	Yes	0.651363700002548	0	605602	234
1183.857421875	1	taste	trialStart	3	134	14	foodImage.89	FOODEEG_Images\0881.jpg	NY	Right	Yes	0.876604999997653	0	606136	251
1184.912109375	2	taste	foodImageDisplay	3	134	14	foodImage.89	FOODEEG_Images\0881.jpg	NY	Right	Yes	0.876604999997653	0	606676	252
1186.9765625	0.876604999997653	taste	choicePhaseStart	3	134	14	foodImage.89	FOODEEG_Images\0881.jpg	NY	Right	Yes	0.876604999997653	0	607733	253
1187.845703125	0	taste	response	3	134	14	foodImage.89	FOODEEG_Images\0881.jpg	NY	Right	Yes	0.876604999997653	0	608178	235
1188.888671875	1	health	trialStart	3	135	15	foodImage.92	FOODEEG_Images\0900.jpg	YN	Right	No	1.23253919999115	0	608712	251
1189.927734375	2	health	foodImageDisplay	3	135	15	foodImage.92	FOODEEG_Images\0900.jpg	YN	Right	No	1.23253919999115	0	609244	252
1191.990234375	1.23253919999115	health	choicePhaseStart	3	135	15	foodImage.92	FOODEEG_Images\0900.jpg	YN	Right	No	1.23253919999115	0	610300	253
1193.21484375	0	health	response	3	135	15	foodImage.92	FOODEEG_Images\0900.jpg	YN	Right	No	1.23253919999115	0	610927	235
1194.2578125	1	health	trialStart	3	136	16	foodImage.102	FOODEEG_Images\0910.jpg	NY	Left	No	0.749571799999103	0	611461	251
1195.296875	2	health	foodImageDisplay	3	136	16	foodImage.102	FOODEEG_Images\0910.jpg	NY	Left	No	0.749571799999103	0	611993	252
1197.361328125	0.749571799999103	health	choicePhaseStart	3	136	16	foodImage.102	FOODEEG_Images\0910.jpg	NY	Left	No	0.749571799999103	0	613050	253
1198.1015625	0	health	response	3	136	16	foodImage.102	FOODEEG_Images\0910.jpg	NY	Left	No	0.749571799999103	0	613429	234
1199.14453125	1	decision	trialStart	3	137	17	foodImage.33	FOODEEG_Images\0329.jpg	YN	Right	No	0.852068599997438	0	613963	251
1200.185546875	2	decision	foodImageDisplay	3	137	17	foodImage.33	FOODEEG_Images\0329.jpg	YN	Right	No	0.852068599997438	0	614496	252
1202.25	0.852068599997438	decision	choicePhaseStart	3	137	17	foodImage.33	FOODEEG_Images\0329.jpg	YN	Right	No	0.852068599997438	0	615553	253
1203.09375	0	decision	response	3	137	17	foodImage.33	FOODEEG_Images\0329.jpg	YN	Right	No	0.852068599997438	0	615985	235
1204.13671875	1	health	trialStart	3	138	18	foodImage.68	FOODEEG_Images\0685.jpg	NY	Right	Yes	1.96797450000304	0	616519	251
1205.21484375	2	health	foodImageDisplay	3	138	18	foodImage.68	FOODEEG_Images\0685.jpg	NY	Right	Yes	1.96797450000304	0	617071	252
1207.279296875	1.96797450000304	health	choicePhaseStart	3	138	18	foodImage.68	FOODEEG_Images\0685.jpg	NY	Right	Yes	1.96797450000304	0	618128	253
1209.23828125	0	health	response	3	138	18	foodImage.68	FOODEEG_Images\0685.jpg	NY	Right	Yes	1.96797450000304	0	619131	235
1210.28125	1	health	trialStart	3	139	19	foodImage.3	FOODEEG_Images\0046.jpg	YN	Right	No	1.24549239999033	0	619665	251
1211.32421875	2	health	foodImageDisplay	3	139	19	foodImage.3	FOODEEG_Images\0046.jpg	YN	Right	No	1.24549239999033	0	620199	252
1213.392578125	1.24549239999033	health	choicePhaseStart	3	139	19	foodImage.3	FOODEEG_Images\0046.jpg	YN	Right	No	1.24549239999033	0	621258	253
1214.62890625	0	health	response	3	139	19	foodImage.3	FOODEEG_Images\0046.jpg	YN	Right	No	1.24549239999033	0	621891	235
1215.671875	1	taste	trialStart	3	140	20	foodImage.25	FOODEEG_Images\0261.jpg	NY	Left	No	1.45338710000215	0	622425	251
1216.71484375	2	taste	foodImageDisplay	3	140	20	foodImage.25	FOODEEG_Images\0261.jpg	NY	Left	No	1.45338710000215	0	622959	252
1218.77734375	1.45338710000215	taste	choicePhaseStart	3	140	20	foodImage.25	FOODEEG_Images\0261.jpg	NY	Left	No	1.45338710000215	0	624015	253
1220.220703125	0	taste	response	3	140	20	foodImage.25	FOODEEG_Images\0261.jpg	NY	Left	No	1.45338710000215	0	624754	234
1221.263671875	1	health	trialStart	3	141	21	foodImage.58	FOODEEG_Images\0605.jpg	YN	Left	Yes	1.9013452000072	0	625288	251
1222.3203125	2	health	foodImageDisplay	3	141	21	foodImage.58	FOODEEG_Images\0605.jpg	YN	Left	Yes	1.9013452000072	0	625829	252
1224.384765625	1.9013452000072	health	choicePhaseStart	3	141	21	foodImage.58	FOODEEG_Images\0605.jpg	YN	Left	Yes	1.9013452000072	0	626886	253
1226.27734375	0	health	response	3	141	21	foodImage.58	FOODEEG_Images\0605.jpg	YN	Left	Yes	1.9013452000072	0	627855	234
1227.318359375	1	decision	trialStart	3	142	22	foodImage.48	FOODEEG_Images\0494.jpg	NY	Left	No	0.821609199992963	0	628388	251
1228.359375	2	decision	foodImageDisplay	3	142	22	foodImage.48	FOODEEG_Images\0494.jpg	NY	Left	No	0.821609199992963	0	628921	252
1230.423828125	0.821609199992963	decision	choicePhaseStart	3	142	22	foodImage.48	FOODEEG_Images\0494.jpg	NY	Left	No	0.821609199992963	0	629978	253
1231.236328125	0	decision	response	3	142	22	foodImage.48	FOODEEG_Images\0494.jpg	NY	Left	No	0.821609199992963	0	630394	234
1232.279296875	1	decision	trialStart	3	143	23	foodImage.53	FOODEEG_Images\0547.jpg	YN	Left	Yes	1.63793860000442	0	630928	251
1233.337890625	2	decision	foodImageDisplay	3	143	23	foodImage.53	FOODEEG_Images\0547.jpg	YN	Left	Yes	1.63793860000442	0	631470	252
1235.400390625	1.63793860000442	decision	choicePhaseStart	3	143	23	foodImage.53	FOODEEG_Images\0547.jpg	YN	Left	Yes	1.63793860000442	0	632526	253
1237.029296875	0	decision	response	3	143	23	foodImage.53	FOODEEG_Images\0547.jpg	YN	Left	Yes	1.63793860000442	0	633360	234
1238.0703125	1	health	trialStart	3	144	24	foodImage.95	FOODEEG_Images\0903.jpg	NY	Right	Yes	2.72979070000292	0	633893	251
1239.107421875	2	health	foodImageDisplay	3	144	24	foodImage.95	FOODEEG_Images\0903.jpg	NY	Right	Yes	2.72979070000292	0	634424	252
1241.171875	2.72979070000292	health	choicePhaseStart	3	144	24	foodImage.95	FOODEEG_Images\0903.jpg	NY	Right	Yes	2.72979070000292	0	635481	253
1243.892578125	0	health	response	3	144	24	foodImage.95	FOODEEG_Images\0903.jpg	NY	Right	Yes	2.72979070000292	0	636874	235
1244.935546875	1	decision	trialStart	3	145	25	foodImage.118	FOODEEG_Images\0926.jpg	YN	Right	No	0.775830600003246	0	637408	251
1245.97265625	2	decision	foodImageDisplay	3	145	25	foodImage.118	FOODEEG_Images\0926.jpg	YN	Right	No	0.775830600003246	0	637939	252
1248.04296875	0.775830600003246	decision	choicePhaseStart	3	145	25	foodImage.118	FOODEEG_Images\0926.jpg	YN	Right	No	0.775830600003246	0	638999	253
1248.8125	0	decision	response	3	145	25	foodImage.118	FOODEEG_Images\0926.jpg	YN	Right	No	0.775830600003246	0	639393	235
1249.85546875	1	health	trialStart	3	146	26	foodImage.15	FOODEEG_Images\0189.jpg	YN	Right	No	1.05118470000161	0	639927	251
1250.9140625	2	health	foodImageDisplay	3	146	26	foodImage.15	FOODEEG_Images\0189.jpg	YN	Right	No	1.05118470000161	0	640469	252
1252.978515625	1.05118470000161	health	choicePhaseStart	3	146	26	foodImage.15	FOODEEG_Images\0189.jpg	YN	Right	No	1.05118470000161	0	641526	253
1254.01953125	0	health	response	3	146	26	foodImage.15	FOODEEG_Images\0189.jpg	YN	Right	No	1.05118470000161	0	642059	235
1255.068359375	1	health	trialStart	3	147	27	foodImage.100	FOODEEG_Images\0908.jpg	NY	Left	No	1.27183610000066	0	642596	251
1256.107421875	2	health	foodImageDisplay	3	147	27	foodImage.100	FOODEEG_Images\0908.jpg	NY	Left	No	1.27183610000066	0	643128	252
1258.171875	1.27183610000066	health	choicePhaseStart	3	147	27	foodImage.100	FOODEEG_Images\0908.jpg	NY	Left	No	1.27183610000066	0	644185	253
1259.435546875	0	health	response	3	147	27	foodImage.100	FOODEEG_Images\0908.jpg	NY	Left	No	1.27183610000066	0	644832	234
1260.478515625	1	health	trialStart	3	148	28	foodImage.60	FOODEEG_Images\0614.jpg	YN	Left	Yes	1.01129699999001	0	645366	251
1261.537109375	2	health	foodImageDisplay	3	148	28	foodImage.60	FOODEEG_Images\0614.jpg	YN	Left	Yes	1.01129699999001	0	645908	252
1263.6015625	1.01129699999001	health	choicePhaseStart	3	148	28	foodImage.60	FOODEEG_Images\0614.jpg	YN	Left	Yes	1.01129699999001	0	646965	253
1264.603515625	0	health	response	3	148	28	foodImage.60	FOODEEG_Images\0614.jpg	YN	Left	Yes	1.01129699999001	0	647478	234
1265.646484375	1	health	trialStart	3	149	29	foodImage.25	FOODEEG_Images\0261.jpg	YN	Left	Yes	0.580778599993209	0	648012	251
1266.6875	2	health	foodImageDisplay	3	149	29	foodImage.25	FOODEEG_Images\0261.jpg	YN	Left	Yes	0.580778599993209	0	648545	252
1268.751953125	0.580778599993209	health	choicePhaseStart	3	149	29	foodImage.25	FOODEEG_Images\0261.jpg	YN	Left	Yes	0.580778599993209	0	649602	253
1269.322265625	0	health	response	3	149	29	foodImage.25	FOODEEG_Images\0261.jpg	YN	Left	Yes	0.580778599993209	0	649894	234
1270.365234375	1	taste	trialStart	3	150	30	foodImage.37	FOODEEG_Images\0359.jpg	NY	Left	No	0.91662850001012	0	650428	251
1271.408203125	2	taste	foodImageDisplay	3	150	30	foodImage.37	FOODEEG_Images\0359.jpg	NY	Left	No	0.91662850001012	0	650962	252
1273.47265625	0.91662850001012	taste	choicePhaseStart	3	150	30	foodImage.37	FOODEEG_Images\0359.jpg	NY	Left	No	0.91662850001012	0	652019	253
1274.37890625	0	taste	response	3	150	30	foodImage.37	FOODEEG_Images\0359.jpg	NY	Left	No	0.91662850001012	0	652483	234
1275.421875	1	decision	trialStart	3	151	31	foodImage.71	FOODEEG_Images\0713.jpg	NY	Right	Yes	0.742817099991953	0	653017	251
1276.462890625	2	decision	foodImageDisplay	3	151	31	foodImage.71	FOODEEG_Images\0713.jpg	NY	Right	Yes	0.742817099991953	0	653550	252
1278.525390625	0.742817099991953	decision	choicePhaseStart	3	151	31	foodImage.71	FOODEEG_Images\0713.jpg	NY	Right	Yes	0.742817099991953	0	654606	253
1279.259765625	0	decision	response	3	151	31	foodImage.71	FOODEEG_Images\0713.jpg	NY	Right	Yes	0.742817099991953	0	654982	235
1280.30078125	1	decision	trialStart	3	152	32	foodImage.43	FOODEEG_Images\0445.jpg	NY	Left	No	0.83383099999628	0	655515	251
1281.361328125	2	decision	foodImageDisplay	3	152	32	foodImage.43	FOODEEG_Images\0445.jpg	NY	Left	No	0.83383099999628	0	656058	252
1283.42578125	0.83383099999628	decision	choicePhaseStart	3	152	32	foodImage.43	FOODEEG_Images\0445.jpg	NY	Left	No	0.83383099999628	0	657115	253
1284.25	0	decision	response	3	152	32	foodImage.43	FOODEEG_Images\0445.jpg	NY	Left	No	0.83383099999628	0	657537	234
1285.29296875	1	health	trialStart	3	153	33	foodImage.110	FOODEEG_Images\0918.jpg	YN	Right	No	0.761180300003616	0	658071	251
1286.330078125	2	health	foodImageDisplay	3	153	33	foodImage.110	FOODEEG_Images\0918.jpg	YN	Right	No	0.761180300003616	0	658602	252
1288.39453125	0.761180300003616	health	choicePhaseStart	3	153	33	foodImage.110	FOODEEG_Images\0918.jpg	YN	Right	No	0.761180300003616	0	659659	253
1289.146484375	0	health	response	3	153	33	foodImage.110	FOODEEG_Images\0918.jpg	YN	Right	No	0.761180300003616	0	660044	235
1290.1953125	1	health	trialStart	3	154	34	foodImage.94	FOODEEG_Images\0902.jpg	NY	Left	No	1.44184729999688	0	660581	251
1291.234375	2	health	foodImageDisplay	3	154	34	foodImage.94	FOODEEG_Images\0902.jpg	NY	Left	No	1.44184729999688	0	661113	252
1293.296875	1.44184729999688	health	choicePhaseStart	3	154	34	foodImage.94	FOODEEG_Images\0902.jpg	NY	Left	No	1.44184729999688	0	662169	253
1294.73046875	0	health	response	3	154	34	foodImage.94	FOODEEG_Images\0902.jpg	NY	Left	No	1.44184729999688	0	662903	234
1295.7734375	1	health	trialStart	3	155	35	foodImage.29	FOODEEG_Images\0278.jpg	NY	Right	Yes	0.996791600002325	0	663437	251
1296.814453125	2	health	foodImageDisplay	3	155	35	foodImage.29	FOODEEG_Images\0278.jpg	NY	Right	Yes	0.996791600002325	0	663970	252
1298.876953125	0.996791600002325	health	choicePhaseStart	3	155	35	foodImage.29	FOODEEG_Images\0278.jpg	NY	Right	Yes	0.996791600002325	0	665026	253
1299.865234375	0	health	response	3	155	35	foodImage.29	FOODEEG_Images\0278.jpg	NY	Right	Yes	0.996791600002325	0	665532	235
1300.9140625	1	decision	trialStart	3	156	36	foodImage.83	FOODEEG_Images\0827.jpg	NY	Right	Yes	1.61056240000471	0	666069	251
1301.97265625	2	decision	foodImageDisplay	3	156	36	foodImage.83	FOODEEG_Images\0827.jpg	NY	Right	Yes	1.61056240000471	0	666611	252
1304.037109375	1.61056240000471	decision	choicePhaseStart	3	156	36	foodImage.83	FOODEEG_Images\0827.jpg	NY	Right	Yes	1.61056240000471	0	667668	253
1305.640625	0	decision	response	3	156	36	foodImage.83	FOODEEG_Images\0827.jpg	NY	Right	Yes	1.61056240000471	0	668489	235
1306.68359375	1	health	trialStart	3	157	37	foodImage.85	FOODEEG_Images\0841.jpg	YN	Left	Yes	1.20554619999893	0	669023	251
1307.75	2	health	foodImageDisplay	3	157	37	foodImage.85	FOODEEG_Images\0841.jpg	YN	Left	Yes	1.20554619999893	0	669569	252
1309.814453125	1.20554619999893	health	choicePhaseStart	3	157	37	foodImage.85	FOODEEG_Images\0841.jpg	YN	Left	Yes	1.20554619999893	0	670626	253
1311.009765625	0	health	response	3	157	37	foodImage.85	FOODEEG_Images\0841.jpg	YN	Left	Yes	1.20554619999893	0	671238	234
1312.052734375	1	taste	trialStart	3	158	38	foodImage.24	FOODEEG_Images\0250.jpg	YN	Right	No	0.954189500000211	0	671772	251
1313.095703125	2	taste	foodImageDisplay	3	158	38	foodImage.24	FOODEEG_Images\0250.jpg	YN	Right	No	0.954189500000211	0	672306	252
1315.16015625	0.954189500000211	taste	choicePhaseStart	3	158	38	foodImage.24	FOODEEG_Images\0250.jpg	YN	Right	No	0.954189500000211	0	673363	253
1316.10546875	0	taste	response	3	158	38	foodImage.24	FOODEEG_Images\0250.jpg	YN	Right	No	0.954189500000211	0	673847	235
1317.1484375	1	decision	trialStart	3	159	39	foodImage.37	FOODEEG_Images\0359.jpg	NY	Left	No	0.934032999997726	0	674381	251
1318.1875	2	decision	foodImageDisplay	3	159	39	foodImage.37	FOODEEG_Images\0359.jpg	NY	Left	No	0.934032999997726	0	674913	252
1320.251953125	0.934032999997726	decision	choicePhaseStart	3	159	39	foodImage.37	FOODEEG_Images\0359.jpg	NY	Left	No	0.934032999997726	0	675970	253
1321.177734375	0	decision	response	3	159	39	foodImage.37	FOODEEG_Images\0359.jpg	NY	Left	No	0.934032999997726	0	676444	234
1322.220703125	1	health	trialStart	3	160	40	foodImage.105	FOODEEG_Images\0913.jpg	YN	Left	Yes	1.27994310000213	0	676978	251
1323.2578125	2	health	foodImageDisplay	3	160	40	foodImage.105	FOODEEG_Images\0913.jpg	YN	Left	Yes	1.27994310000213	0	677509	252
1325.322265625	1.27994310000213	health	choicePhaseStart	3	160	40	foodImage.105	FOODEEG_Images\0913.jpg	YN	Left	Yes	1.27994310000213	0	678566	253
1326.591796875	0	health	response	3	160	40	foodImage.105	FOODEEG_Images\0913.jpg	YN	Left	Yes	1.27994310000213	0	679216	234
1327.63671875	1	health	trialStart	3	161	41	foodImage.101	FOODEEG_Images\0909.jpg	NY	Left	No	1.46522740001092	0	679751	251
1328.673828125	2	health	foodImageDisplay	3	161	41	foodImage.101	FOODEEG_Images\0909.jpg	NY	Left	No	1.46522740001092	0	680282	252
1330.736328125	1.46522740001092	health	choicePhaseStart	3	161	41	foodImage.101	FOODEEG_Images\0909.jpg	NY	Left	No	1.46522740001092	0	681338	253
1332.193359375	0	health	response	3	161	41	foodImage.101	FOODEEG_Images\0909.jpg	NY	Left	No	1.46522740001092	0	682084	234
1333.236328125	1	taste	trialStart	3	162	42	foodImage.2	FOODEEG_Images\0028.jpg	NY	Right	Yes	0.892029099995852	0	682618	251
1334.279296875	2	taste	foodImageDisplay	3	162	42	foodImage.2	FOODEEG_Images\0028.jpg	NY	Right	Yes	0.892029099995852	0	683152	252
1336.341796875	0.892029099995852	taste	choicePhaseStart	3	162	42	foodImage.2	FOODEEG_Images\0028.jpg	NY	Right	Yes	0.892029099995852	0	684208	253
1337.224609375	0	taste	response	3	162	42	foodImage.2	FOODEEG_Images\0028.jpg	NY	Right	Yes	0.892029099995852	0	684660	235
1338.265625	1	health	trialStart	3	163	43	foodImage.30	FOODEEG_Images\0282.jpg	NY	Right	Yes	0.845486000005621	0	685193	251
1339.30859375	2	health	foodImageDisplay	3	163	43	foodImage.30	FOODEEG_Images\0282.jpg	NY	Right	Yes	0.845486000005621	0	685727	252
1341.373046875	0.845486000005621	health	choicePhaseStart	3	163	43	foodImage.30	FOODEEG_Images\0282.jpg	NY	Right	Yes	0.845486000005621	0	686784	253
1342.208984375	0	health	response	3	163	43	foodImage.30	FOODEEG_Images\0282.jpg	NY	Right	Yes	0.845486000005621	0	687212	235
1343.251953125	1	taste	trialStart	3	164	44	foodImage.91	FOODEEG_Images\0896.jpg	YN	Left	Yes	1.93046070000855	0	687746	251
1344.310546875	2	taste	foodImageDisplay	3	164	44	foodImage.91	FOODEEG_Images\0896.jpg	YN	Left	Yes	1.93046070000855	0	688288	252
1346.375	1.93046070000855	taste	choicePhaseStart	3	164	44	foodImage.91	FOODEEG_Images\0896.jpg	YN	Left	Yes	1.93046070000855	0	689345	253
1348.296875	0	taste	response	3	164	44	foodImage.91	FOODEEG_Images\0896.jpg	YN	Left	Yes	1.93046070000855	0	690329	234
1349.337890625	1	health	trialStart	3	165	45	foodImage.64	FOODEEG_Images\0647.jpg	YN	Left	Yes	1.17162670000107	0	690862	251
1350.396484375	2	health	foodImageDisplay	3	165	45	foodImage.64	FOODEEG_Images\0647.jpg	YN	Left	Yes	1.17162670000107	0	691404	252
1352.4609375	1.17162670000107	health	choicePhaseStart	3	165	45	foodImage.64	FOODEEG_Images\0647.jpg	YN	Left	Yes	1.17162670000107	0	692461	253
1353.623046875	0	health	response	3	165	45	foodImage.64	FOODEEG_Images\0647.jpg	YN	Left	Yes	1.17162670000107	0	693056	234
1354.66796875	1	taste	trialStart	3	166	46	foodImage.23	FOODEEG_Images\0244.jpg	NY	Left	No	1.08303699998942	0	693591	251
1355.708984375	2	taste	foodImageDisplay	3	166	46	foodImage.23	FOODEEG_Images\0244.jpg	NY	Left	No	1.08303699998942	0	694124	252
1357.7734375	1.08303699998942	taste	choicePhaseStart	3	166	46	foodImage.23	FOODEEG_Images\0244.jpg	NY	Left	No	1.08303699998942	0	695181	253
1358.84765625	0	taste	response	3	166	46	foodImage.23	FOODEEG_Images\0244.jpg	NY	Left	No	1.08303699998942	0	695731	234
1359.892578125	1	health	trialStart	3	167	47	foodImage.33	FOODEEG_Images\0329.jpg	YN	Left	Yes	1.54599120000785	0	696266	251
1360.93359375	2	health	foodImageDisplay	3	167	47	foodImage.33	FOODEEG_Images\0329.jpg	YN	Left	Yes	1.54599120000785	0	696799	252
1362.998046875	1.54599120000785	health	choicePhaseStart	3	167	47	foodImage.33	FOODEEG_Images\0329.jpg	YN	Left	Yes	1.54599120000785	0	697856	253
1364.53515625	0	health	response	3	167	47	foodImage.33	FOODEEG_Images\0329.jpg	YN	Left	Yes	1.54599120000785	0	698643	234
1365.578125	1	decision	trialStart	3	168	48	foodImage.84	FOODEEG_Images\0830.jpg	NY	Right	Yes	0.788235100000747	0	699177	251
1366.63671875	2	decision	foodImageDisplay	3	168	48	foodImage.84	FOODEEG_Images\0830.jpg	NY	Right	Yes	0.788235100000747	0	699719	252
1368.701171875	0.788235100000747	decision	choicePhaseStart	3	168	48	foodImage.84	FOODEEG_Images\0830.jpg	NY	Right	Yes	0.788235100000747	0	700776	253
1369.478515625	0	decision	response	3	168	48	foodImage.84	FOODEEG_Images\0830.jpg	NY	Right	Yes	0.788235100000747	0	701174	235
1370.521484375	1	taste	trialStart	3	169	49	foodImage.47	FOODEEG_Images\0488.jpg	YN	Right	No	1.56454659999872	0	701708	251
1371.564453125	2	taste	foodImageDisplay	3	169	49	foodImage.47	FOODEEG_Images\0488.jpg	YN	Right	No	1.56454659999872	0	702242	252
1373.626953125	1.56454659999872	taste	choicePhaseStart	3	169	49	foodImage.47	FOODEEG_Images\0488.jpg	YN	Right	No	1.56454659999872	0	703298	253
1375.18359375	0	taste	response	3	169	49	foodImage.47	FOODEEG_Images\0488.jpg	YN	Right	No	1.56454659999872	0	704095	235
1376.2265625	1	taste	trialStart	3	170	50	foodImage.14	FOODEEG_Images\0188.jpg	NY	Right	Yes	0.778079299998353	0	704629	251
1377.283203125	2	taste	foodImageDisplay	3	170	50	foodImage.14	FOODEEG_Images\0188.jpg	NY	Right	Yes	0.778079299998353	0	705170	252
1379.34765625	0.778079299998353	taste	choicePhaseStart	3	170	50	foodImage.14	FOODEEG_Images\0188.jpg	NY	Right	Yes	0.778079299998353	0	706227	253
1380.119140625	0	taste	response	3	170	50	foodImage.14	FOODEEG_Images\0188.jpg	NY	Right	Yes	0.778079299998353	0	706622	235
1381.162109375	1	taste	trialStart	3	171	51	foodImage.68	FOODEEG_Images\0685.jpg	NY	Left	No	1.7351306000055	0	707156	251
1382.23828125	2	taste	foodImageDisplay	3	171	51	foodImage.68	FOODEEG_Images\0685.jpg	NY	Left	No	1.7351306000055	0	707707	252
1384.30078125	1.7351306000055	taste	choicePhaseStart	3	171	51	foodImage.68	FOODEEG_Images\0685.jpg	NY	Left	No	1.7351306000055	0	708763	253
1386.03125	0	taste	response	3	171	51	foodImage.68	FOODEEG_Images\0685.jpg	NY	Left	No	1.7351306000055	0	709649	234
1387.07421875	1	taste	trialStart	3	172	52	foodImage.17	FOODEEG_Images\0199.jpg	YN	Left	Yes	1.00513890000002	0	710183	251
1388.115234375	2	taste	foodImageDisplay	3	172	52	foodImage.17	FOODEEG_Images\0199.jpg	YN	Left	Yes	1.00513890000002	0	710716	252
1390.1796875	1.00513890000002	taste	choicePhaseStart	3	172	52	foodImage.17	FOODEEG_Images\0199.jpg	YN	Left	Yes	1.00513890000002	0	711773	253
1391.173828125	0	taste	response	3	172	52	foodImage.17	FOODEEG_Images\0199.jpg	YN	Left	Yes	1.00513890000002	0	712282	234
1392.21875	1	decision	trialStart	3	173	53	foodImage.29	FOODEEG_Images\0278.jpg	NY	Left	No	0.99246540000604	0	712817	251
1393.271484375	2	decision	foodImageDisplay	3	173	53	foodImage.29	FOODEEG_Images\0278.jpg	NY	Left	No	0.99246540000604	0	713356	252
1395.33984375	0.99246540000604	decision	choicePhaseStart	3	173	53	foodImage.29	FOODEEG_Images\0278.jpg	NY	Left	No	0.99246540000604	0	714415	253
1396.326171875	0	decision	response	3	173	53	foodImage.29	FOODEEG_Images\0278.jpg	NY	Left	No	0.99246540000604	0	714920	234
1397.369140625	1	taste	trialStart	3	174	54	foodImage.95	FOODEEG_Images\0903.jpg	NY	Left	No	0.703211399988504	0	715454	251
1398.408203125	2	taste	foodImageDisplay	3	174	54	foodImage.95	FOODEEG_Images\0903.jpg	NY	Left	No	0.703211399988504	0	715986	252
1400.47265625	0.703211399988504	taste	choicePhaseStart	3	174	54	foodImage.95	FOODEEG_Images\0903.jpg	NY	Left	No	0.703211399988504	0	717043	253
1401.166015625	0	taste	response	3	174	54	foodImage.95	FOODEEG_Images\0903.jpg	NY	Left	No	0.703211399988504	0	717398	234
1402.208984375	1	decision	trialStart	3	175	55	foodImage.20	FOODEEG_Images\0226.jpg	YN	Right	No	0.773829700003262	0	717932	251
1403.2578125	2	decision	foodImageDisplay	3	175	55	foodImage.20	FOODEEG_Images\0226.jpg	YN	Right	No	0.773829700003262	0	718469	252
1405.3203125	0.773829700003262	decision	choicePhaseStart	3	175	55	foodImage.20	FOODEEG_Images\0226.jpg	YN	Right	No	0.773829700003262	0	719525	253
1406.0859375	0	decision	response	3	175	55	foodImage.20	FOODEEG_Images\0226.jpg	YN	Right	No	0.773829700003262	0	719917	235
1407.1328125	1	taste	trialStart	3	176	56	foodImage.88	FOODEEG_Images\0878.jpg	YN	Left	Yes	0.656973799996194	0	720453	251
1408.189453125	2	taste	foodImageDisplay	3	176	56	foodImage.88	FOODEEG_Images\0878.jpg	YN	Left	Yes	0.656973799996194	0	720994	252
1410.25390625	0.656973799996194	taste	choicePhaseStart	3	176	56	foodImage.88	FOODEEG_Images\0878.jpg	YN	Left	Yes	0.656973799996194	0	722051	253
1410.900390625	0	taste	response	3	176	56	foodImage.88	FOODEEG_Images\0878.jpg	YN	Left	Yes	0.656973799996194	0	722382	234
1411.9453125	1	health	trialStart	3	177	57	foodImage.51	FOODEEG_Images\0536.jpg	NY	Left	No	1.19169140000304	0	722917	251
1412.990234375	2	health	foodImageDisplay	3	177	57	foodImage.51	FOODEEG_Images\0536.jpg	NY	Left	No	1.19169140000304	0	723452	252
1415.052734375	1.19169140000304	health	choicePhaseStart	3	177	57	foodImage.51	FOODEEG_Images\0536.jpg	NY	Left	No	1.19169140000304	0	724508	253
1416.236328125	0	health	response	3	177	57	foodImage.51	FOODEEG_Images\0536.jpg	NY	Left	No	1.19169140000304	0	725114	234
1417.28125	1	decision	trialStart	3	178	58	foodImage.63	FOODEEG_Images\0645.jpg	NY	Right	Yes	0.803912600007607	0	725649	251
1418.322265625	2	decision	foodImageDisplay	3	178	58	foodImage.63	FOODEEG_Images\0645.jpg	NY	Right	Yes	0.803912600007607	0	726182	252
1420.38671875	0.803912600007607	decision	choicePhaseStart	3	178	58	foodImage.63	FOODEEG_Images\0645.jpg	NY	Right	Yes	0.803912600007607	0	727239	253
1421.181640625	0	decision	response	3	178	58	foodImage.63	FOODEEG_Images\0645.jpg	NY	Right	Yes	0.803912600007607	0	727646	235
1422.22265625	1	decision	trialStart	3	179	59	foodImage.7	FOODEEG_Images\0116.jpg	YN	Left	Yes	0.613429799996084	0	728179	251
1423.265625	2	decision	foodImageDisplay	3	179	59	foodImage.7	FOODEEG_Images\0116.jpg	YN	Left	Yes	0.613429799996084	0	728713	252
1425.328125	0.613429799996084	decision	choicePhaseStart	3	179	59	foodImage.7	FOODEEG_Images\0116.jpg	YN	Left	Yes	0.613429799996084	0	729769	253
1425.93359375	0	decision	response	3	179	59	foodImage.7	FOODEEG_Images\0116.jpg	YN	Left	Yes	0.613429799996084	0	730079	234
1426.974609375	1	decision	trialStart	3	180	60	foodImage.15	FOODEEG_Images\0189.jpg	YN	Left	Yes	0.963760400001775	0	730612	251
1428.033203125	2	decision	foodImageDisplay	3	180	60	foodImage.15	FOODEEG_Images\0189.jpg	YN	Left	Yes	0.963760400001775	0	731154	252
1430.099609375	0.963760400001775	decision	choicePhaseStart	3	180	60	foodImage.15	FOODEEG_Images\0189.jpg	YN	Left	Yes	0.963760400001775	0	732212	253
1431.052734375	0	decision	response	3	180	60	foodImage.15	FOODEEG_Images\0189.jpg	YN	Left	Yes	0.963760400001775	0	732700	234
1433.09375	39.685546875	n/a	blockEnd	n/a	n/a	n/a	n/a	n/a	n/a	n/a	n/a	n/a	n/a	733745	254
1472.779296875	2	n/a	blockStart	4	n/a	n/a	n/a	n/a	n/a	n/a	n/a	n/a	n/a	754064	250
1474.8125	1	health	trialStart	4	181	1	foodImage.49	FOODEEG_Images\0515.jpg	YN	Left	Yes	1.21487189999607	0	755105	251
1475.853515625	2	health	foodImageDisplay	4	181	1	foodImage.49	FOODEEG_Images\0515.jpg	YN	Left	Yes	1.21487189999607	0	755638	252
1477.91796875	1.21487189999607	health	choicePhaseStart	4	181	1	foodImage.49	FOODEEG_Images\0515.jpg	YN	Left	Yes	1.21487189999607	0	756695	253
1479.123046875	0	health	response	4	181	1	foodImage.49	FOODEEG_Images\0515.jpg	YN	Left	Yes	1.21487189999607	0	757312	234
1480.166015625	1	decision	trialStart	4	182	2	foodImage.19	FOODEEG_Images\0225.jpg	YN	Right	No	0.859237299999222	0	757846	251
1481.208984375	2	decision	foodImageDisplay	4	182	2	foodImage.19	FOODEEG_Images\0225.jpg	YN	Right	No	0.859237299999222	0	758380	252
1483.2734375	0.859237299999222	decision	choicePhaseStart	4	182	2	foodImage.19	FOODEEG_Images\0225.jpg	YN	Right	No	0.859237299999222	0	759437	253
1484.123046875	0	decision	response	4	182	2	foodImage.19	FOODEEG_Images\0225.jpg	YN	Right	No	0.859237299999222	0	759872	235
1485.166015625	1	decision	trialStart	4	183	3	foodImage.109	FOODEEG_Images\0917.jpg	NY	Left	No	0.75388629999361	0	760406	251
1486.203125	2	decision	foodImageDisplay	4	183	3	foodImage.109	FOODEEG_Images\0917.jpg	NY	Left	No	0.75388629999361	0	760937	252
1488.265625	0.75388629999361	decision	choicePhaseStart	4	183	3	foodImage.109	FOODEEG_Images\0917.jpg	NY	Left	No	0.75388629999361	0	761993	253
1489.009765625	0	decision	response	4	183	3	foodImage.109	FOODEEG_Images\0917.jpg	NY	Left	No	0.75388629999361	0	762374	234
1490.052734375	1	taste	trialStart	4	184	4	foodImage.50	FOODEEG_Images\0529.jpg	YN	Right	No	0.789402099995641	0	762908	251
1491.111328125	2	taste	foodImageDisplay	4	184	4	foodImage.50	FOODEEG_Images\0529.jpg	YN	Right	No	0.789402099995641	0	763450	252
1493.173828125	0.789402099995641	taste	choicePhaseStart	4	184	4	foodImage.50	FOODEEG_Images\0529.jpg	YN	Right	No	0.789402099995641	0	764506	253
1493.955078125	0	taste	response	4	184	4	foodImage.50	FOODEEG_Images\0529.jpg	YN	Right	No	0.789402099995641	0	764906	235
1494.998046875	1	taste	trialStart	4	185	5	foodImage.38	FOODEEG_Images\0365.jpg	YN	Left	Yes	1.00854549999349	0	765440	251
1496.03515625	2	taste	foodImageDisplay	4	185	5	foodImage.38	FOODEEG_Images\0365.jpg	YN	Left	Yes	1.00854549999349	0	765971	252
1498.099609375	1.00854549999349	taste	choicePhaseStart	4	185	5	foodImage.38	FOODEEG_Images\0365.jpg	YN	Left	Yes	1.00854549999349	0	767028	253
1499.09765625	0	taste	response	4	185	5	foodImage.38	FOODEEG_Images\0365.jpg	YN	Left	Yes	1.00854549999349	0	767539	234
1500.140625	1	health	trialStart	4	186	6	foodImage.99	FOODEEG_Images\0907.jpg	YN	Right	No	1.256626900009	0	768073	251
1501.1796875	2	health	foodImageDisplay	4	186	6	foodImage.99	FOODEEG_Images\0907.jpg	YN	Right	No	1.256626900009	0	768605	252
1503.2421875	1.256626900009	health	choicePhaseStart	4	186	6	foodImage.99	FOODEEG_Images\0907.jpg	YN	Right	No	1.256626900009	0	769661	253
1504.490234375	0	health	response	4	186	6	foodImage.99	FOODEEG_Images\0907.jpg	YN	Right	No	1.256626900009	0	770300	235
1505.533203125	1	health	trialStart	4	187	7	foodImage.71	FOODEEG_Images\0713.jpg	NY	Left	No	1.7403159999958	0	770834	251
1506.57421875	2	health	foodImageDisplay	4	187	7	foodImage.71	FOODEEG_Images\0713.jpg	NY	Left	No	1.7403159999958	0	771367	252
1508.638671875	1.7403159999958	health	choicePhaseStart	4	187	7	foodImage.71	FOODEEG_Images\0713.jpg	NY	Left	No	1.7403159999958	0	772424	253
1510.369140625	0	health	response	4	187	7	foodImage.71	FOODEEG_Images\0713.jpg	NY	Left	No	1.7403159999958	0	773310	234
1511.412109375	1	taste	trialStart	4	188	8	foodImage.75	FOODEEG_Images\0763.jpg	YN	Right	No	0.954535899989423	0	773844	251
1512.455078125	2	taste	foodImageDisplay	4	188	8	foodImage.75	FOODEEG_Images\0763.jpg	YN	Right	No	0.954535899989423	0	774378	252
1514.51953125	0.954535899989423	taste	choicePhaseStart	4	188	8	foodImage.75	FOODEEG_Images\0763.jpg	YN	Right	No	0.954535899989423	0	775435	253
1515.46484375	0	taste	response	4	188	8	foodImage.75	FOODEEG_Images\0763.jpg	YN	Right	No	0.954535899989423	0	775919	235
1516.509765625	1	health	trialStart	4	189	9	foodImage.77	FOODEEG_Images\0771.jpg	YN	Left	Yes	0.961985100002494	0	776454	251
1517.552734375	2	health	foodImageDisplay	4	189	9	foodImage.77	FOODEEG_Images\0771.jpg	YN	Left	Yes	0.961985100002494	0	776988	252
1519.615234375	0.961985100002494	health	choicePhaseStart	4	189	9	foodImage.77	FOODEEG_Images\0771.jpg	YN	Left	Yes	0.961985100002494	0	778044	253
1520.568359375	0	health	response	4	189	9	foodImage.77	FOODEEG_Images\0771.jpg	YN	Left	Yes	0.961985100002494	0	778532	234
1521.611328125	1	taste	trialStart	4	190	10	foodImage.43	FOODEEG_Images\0445.jpg	NY	Left	No	0.819188900000881	0	779066	251
1522.671875	2	taste	foodImageDisplay	4	190	10	foodImage.43	FOODEEG_Images\0445.jpg	NY	Left	No	0.819188900000881	0	779609	252
1524.734375	0.819188900000881	taste	choicePhaseStart	4	190	10	foodImage.43	FOODEEG_Images\0445.jpg	NY	Left	No	0.819188900000881	0	780665	253
1525.544921875	0	taste	response	4	190	10	foodImage.43	FOODEEG_Images\0445.jpg	NY	Left	No	0.819188900000881	0	781080	234
1526.587890625	1	taste	trialStart	4	191	11	foodImage.1	FOODEEG_Images\0004.jpg	NY	Right	Yes	0.812191599994549	0	781614	251
1527.630859375	2	taste	foodImageDisplay	4	191	11	foodImage.1	FOODEEG_Images\0004.jpg	NY	Right	Yes	0.812191599994549	0	782148	252
1529.693359375	0.812191599994549	taste	choicePhaseStart	4	191	11	foodImage.1	FOODEEG_Images\0004.jpg	NY	Right	Yes	0.812191599994549	0	783204	253
1530.49609375	0	taste	response	4	191	11	foodImage.1	FOODEEG_Images\0004.jpg	NY	Right	Yes	0.812191599994549	0	783615	235
1531.5390625	1	health	trialStart	4	192	12	foodImage.8	FOODEEG_Images\0136.jpg	YN	Right	No	1.08514569999534	0	784149	251
1532.58203125	2	health	foodImageDisplay	4	192	12	foodImage.8	FOODEEG_Images\0136.jpg	YN	Right	No	1.08514569999534	0	784683	252
1534.64453125	1.08514569999534	health	choicePhaseStart	4	192	12	foodImage.8	FOODEEG_Images\0136.jpg	YN	Right	No	1.08514569999534	0	785739	253
1535.720703125	0	health	response	4	192	12	foodImage.8	FOODEEG_Images\0136.jpg	YN	Right	No	1.08514569999534	0	786290	235
1536.763671875	1	health	trialStart	4	193	13	foodImage.48	FOODEEG_Images\0494.jpg	NY	Left	No	0.617927699990105	0	786824	251
1537.806640625	2	health	foodImageDisplay	4	193	13	foodImage.48	FOODEEG_Images\0494.jpg	NY	Left	No	0.617927699990105	0	787358	252
1539.87109375	0.617927699990105	health	choicePhaseStart	4	193	13	foodImage.48	FOODEEG_Images\0494.jpg	NY	Left	No	0.617927699990105	0	788415	253
1540.48046875	0	health	response	4	193	13	foodImage.48	FOODEEG_Images\0494.jpg	NY	Left	No	0.617927699990105	0	788727	234
1541.525390625	1	taste	trialStart	4	194	14	foodImage.39	FOODEEG_Images\0367.jpg	YN	Left	Yes	0.932022199995117	0	789262	251
1542.5625	2	taste	foodImageDisplay	4	194	14	foodImage.39	FOODEEG_Images\0367.jpg	YN	Left	Yes	0.932022199995117	0	789793	252
1544.626953125	0.932022199995117	taste	choicePhaseStart	4	194	14	foodImage.39	FOODEEG_Images\0367.jpg	YN	Left	Yes	0.932022199995117	0	790850	253
