onset	duration	trial_type	event_type	block	trial_total	trial_in_block	food_image_code	food_image_path	button_position	resp_position	resp_choice	choice_rt	resp_too_slow	sample	trigger
483.458984375	2	n/a	blockStart	1	n/a	n/a	n/a	n/a	n/a	n/a	n/a	n/a	n/a	247532	250
485.494140625	1	decision	trialStart	1	1	1	foodImage.8	FOODEEG_Images\0136.jpg	NY	Right	Yes	1.55472189979628	0	248574	251
486.54296875	2	decision	foodImageDisplay	1	1	1	foodImage.8	FOODEEG_Images\0136.jpg	NY	Right	Yes	1.55472189979628	0	249111	252
488.607421875	1.55472189979628	decision	choicePhaseStart	1	1	1	foodImage.8	FOODEEG_Images\0136.jpg	NY	Right	Yes	1.55472189979628	0	250168	253
490.154296875	0	decision	response	1	1	1	foodImage.8	FOODEEG_Images\0136.jpg	NY	Right	Yes	1.55472189979628	0	250960	235
491.271484375	1	decision	trialStart	1	2	2	foodImage.79	FOODEEG_Images\0794.jpg	YN	Left	Yes	1.02104869997129	0	251532	251
492.318359375	2	decision	foodImageDisplay	1	2	2	foodImage.79	FOODEEG_Images\0794.jpg	YN	Left	Yes	1.02104869997129	0	252068	252
494.380859375	1.02104869997129	decision	choicePhaseStart	1	2	2	foodImage.79	FOODEEG_Images\0794.jpg	YN	Left	Yes	1.02104869997129	0	253124	253
495.39453125	0	decision	response	1	2	2	foodImage.79	FOODEEG_Images\0794.jpg	YN	Left	Yes	1.02104869997129	0	253643	234
496.443359375	1	decision	trialStart	1	3	3	foodImage.112	FOODEEG_Images\0920.jpg	YN	Right	No	1.14099430013448	0	254180	251
497.484375	2	decision	foodImageDisplay	1	3	3	foodImage.112	FOODEEG_Images\0920.jpg	YN	Right	No	1.14099430013448	0	254713	252
499.548828125	1.14099430013448	decision	choicePhaseStart	1	3	3	foodImage.112	FOODEEG_Images\0920.jpg	YN	Right	No	1.14099430013448	0	255770	253
500.681640625	0	decision	response	1	3	3	foodImage.112	FOODEEG_Images\0920.jpg	YN	Right	No	1.14099430013448	0	256350	235
501.724609375	1	taste	trialStart	1	4	4	foodImage.7	FOODEEG_Images\0116.jpg	NY	Right	Yes	0.899586300365627	0	256884	251
502.767578125	2	taste	foodImageDisplay	1	4	4	foodImage.7	FOODEEG_Images\0116.jpg	NY	Right	Yes	0.899586300365627	0	257418	252
504.830078125	0.899586300365627	taste	choicePhaseStart	1	4	4	foodImage.7	FOODEEG_Images\0116.jpg	NY	Right	Yes	0.899586300365627	0	258474	253
505.720703125	0	taste	response	1	4	4	foodImage.7	FOODEEG_Images\0116.jpg	NY	Right	Yes	0.899586300365627	0	258930	235
506.765625	1	taste	trialStart	1	5	5	foodImage.22	FOODEEG_Images\0236.jpg	YN	Left	Yes	1.37379440013319	0	259465	251
507.826171875	2	taste	foodImageDisplay	1	5	5	foodImage.22	FOODEEG_Images\0236.jpg	YN	Left	Yes	1.37379440013319	0	260008	252
509.890625	1.37379440013319	taste	choicePhaseStart	1	5	5	foodImage.22	FOODEEG_Images\0236.jpg	YN	Left	Yes	1.37379440013319	0	261065	253
511.2578125	0	taste	response	1	5	5	foodImage.22	FOODEEG_Images\0236.jpg	YN	Left	Yes	1.37379440013319	0	261765	234
512.310546875	1	health	trialStart	1	6	6	foodImage.112	FOODEEG_Images\0920.jpg	YN	Right	No	1.27573980018497	0	262304	251
513.3515625	2	health	foodImageDisplay	1	6	6	foodImage.112	FOODEEG_Images\0920.jpg	YN	Right	No	1.27573980018497	0	262837	252
515.4140625	1.27573980018497	health	choicePhaseStart	1	6	6	foodImage.112	FOODEEG_Images\0920.jpg	YN	Right	No	1.27573980018497	0	263893	253
516.681640625	0	health	response	1	6	6	foodImage.112	FOODEEG_Images\0920.jpg	YN	Right	No	1.27573980018497	0	264542	235
517.72265625	1	health	trialStart	1	7	7	foodImage.77	FOODEEG_Images\0771.jpg	YN	Left	Yes	0.861637399997562	0	265075	251
518.765625	2	health	foodImageDisplay	1	7	7	foodImage.77	FOODEEG_Images\0771.jpg	YN	Left	Yes	0.861637399997562	0	265609	252
520.833984375	0.861637399997562	health	choicePhaseStart	1	7	7	foodImage.77	FOODEEG_Images\0771.jpg	YN	Left	Yes	0.861637399997562	0	266668	253
521.6875	0	health	response	1	7	7	foodImage.77	FOODEEG_Images\0771.jpg	YN	Left	Yes	0.861637399997562	0	267105	234
522.73046875	1	decision	trialStart	1	8	8	foodImage.78	FOODEEG_Images\0787.jpg	NY	Left	No	1.72429839987308	0	267639	251
523.775390625	2	decision	foodImageDisplay	1	8	8	foodImage.78	FOODEEG_Images\0787.jpg	NY	Left	No	1.72429839987308	0	268174	252
525.837890625	1.72429839987308	decision	choicePhaseStart	1	8	8	foodImage.78	FOODEEG_Images\0787.jpg	NY	Left	No	1.72429839987308	0	269230	253
527.552734375	0	decision	response	1	8	8	foodImage.78	FOODEEG_Images\0787.jpg	NY	Left	No	1.72429839987308	0	270108	234
528.595703125	1	decision	trialStart	1	9	9	foodImage.63	FOODEEG_Images\0645.jpg	YN	Left	Yes	1.31176960002631	0	270642	251
529.65625	2	decision	foodImageDisplay	1	9	9	foodImage.63	FOODEEG_Images\0645.jpg	YN	Left	Yes	1.31176960002631	0	271185	252
531.720703125	1.31176960002631	decision	choicePhaseStart	1	9	9	foodImage.63	FOODEEG_Images\0645.jpg	YN	Left	Yes	1.31176960002631	0	272242	253
533.025390625	0	decision	response	1	9	9	foodImage.63	FOODEEG_Images\0645.jpg	YN	Left	Yes	1.31176960002631	0	272910	234
534.068359375	1	decision	trialStart	1	10	10	foodImage.117	FOODEEG_Images\0925.jpg	YN	Left	Yes	0.971144800074399	0	273444	251
535.109375	2	decision	foodImageDisplay	1	10	10	foodImage.117	FOODEEG_Images\0925.jpg	YN	Left	Yes	0.971144800074399	0	273977	252
537.173828125	0.971144800074399	decision	choicePhaseStart	1	10	10	foodImage.117	FOODEEG_Images\0925.jpg	YN	Left	Yes	0.971144800074399	0	275034	253
538.13671875	0	decision	response	1	10	10	foodImage.117	FOODEEG_Images\0925.jpg	YN	Left	Yes	0.971144800074399	0	275527	234
539.177734375	1	health	trialStart	1	11	11	foodImage.118	FOODEEG_Images\0926.jpg	NY	Right	Yes	1.23343560006469	0	276060	251
540.21875	2	health	foodImageDisplay	1	11	11	foodImage.118	FOODEEG_Images\0926.jpg	NY	Right	Yes	1.23343560006469	0	276593	252
542.287109375	1.23343560006469	health	choicePhaseStart	1	11	11	foodImage.118	FOODEEG_Images\0926.jpg	NY	Right	Yes	1.23343560006469	0	277652	253
543.513671875	0	health	response	1	11	11	foodImage.118	FOODEEG_Images\0926.jpg	NY	Right	Yes	1.23343560006469	0	278280	235
544.5546875	1	health	trialStart	1	12	12	foodImage.70	FOODEEG_Images\0705.jpg	YN	Left	Yes	0.760215800255537	0	278813	251
545.609375	2	health	foodImageDisplay	1	12	12	foodImage.70	FOODEEG_Images\0705.jpg	YN	Left	Yes	0.760215800255537	0	279353	252
547.671875	0.760215800255537	health	choicePhaseStart	1	12	12	foodImage.70	FOODEEG_Images\0705.jpg	YN	Left	Yes	0.760215800255537	0	280409	253
548.423828125	0	health	response	1	12	12	foodImage.70	FOODEEG_Images\0705.jpg	YN	Left	Yes	0.760215800255537	0	280794	234
549.46484375	1	taste	trialStart	1	13	13	foodImage.119	FOODEEG_Images\0927.jpg	NY	Right	Yes	0.915583199821413	0	281327	251
550.5078125	2	taste	foodImageDisplay	1	13	13	foodImage.119	FOODEEG_Images\0927.jpg	NY	Right	Yes	0.915583199821413	0	281861	252
552.5703125	0.915583199821413	taste	choicePhaseStart	1	13	13	foodImage.119	FOODEEG_Images\0927.jpg	NY	Right	Yes	0.915583199821413	0	282917	253
553.48046875	0	taste	response	1	13	13	foodImage.119	FOODEEG_Images\0927.jpg	NY	Right	Yes	0.915583199821413	0	283383	235
554.521484375	1	taste	trialStart	1	14	14	foodImage.60	FOODEEG_Images\0614.jpg	NY	Right	Yes	0.843825000338256	0	283916	251
555.603515625	2	taste	foodImageDisplay	1	14	14	foodImage.60	FOODEEG_Images\0614.jpg	NY	Right	Yes	0.843825000338256	0	284470	252
557.66796875	0.843825000338256	taste	choicePhaseStart	1	14	14	foodImage.60	FOODEEG_Images\0614.jpg	NY	Right	Yes	0.843825000338256	0	285527	253
558.50390625	0	taste	response	1	14	14	foodImage.60	FOODEEG_Images\0614.jpg	NY	Right	Yes	0.843825000338256	0	285955	235
559.544921875	1	health	trialStart	1	15	15	foodImage.98	FOODEEG_Images\0906.jpg	YN	Left	Yes	0.607460299972445	0	286488	251
560.583984375	2	health	foodImageDisplay	1	15	15	foodImage.98	FOODEEG_Images\0906.jpg	YN	Left	Yes	0.607460299972445	0	287020	252
562.646484375	0.607460299972445	health	choicePhaseStart	1	15	15	foodImage.98	FOODEEG_Images\0906.jpg	YN	Left	Yes	0.607460299972445	0	288076	253
563.24609375	0	health	response	1	15	15	foodImage.98	FOODEEG_Images\0906.jpg	YN	Left	Yes	0.607460299972445	0	288383	234
564.2890625	1	taste	trialStart	1	16	16	foodImage.16	FOODEEG_Images\0196.jpg	NY	Left	No	1.28861859999597	0	288917	251
565.34765625	2	taste	foodImageDisplay	1	16	16	foodImage.16	FOODEEG_Images\0196.jpg	NY	Left	No	1.28861859999597	0	289459	252
567.412109375	1.28861859999597	taste	choicePhaseStart	1	16	16	foodImage.16	FOODEEG_Images\0196.jpg	NY	Left	No	1.28861859999597	0	290516	253
568.6953125	0	taste	response	1	16	16	foodImage.16	FOODEEG_Images\0196.jpg	NY	Left	No	1.28861859999597	0	291173	234
569.734375	1	health	trialStart	1	17	17	foodImage.36	FOODEEG_Images\0352.jpg	YN	Left	Yes	1.2088525001891	0	291705	251
570.861328125	2	health	foodImageDisplay	1	17	17	foodImage.36	FOODEEG_Images\0352.jpg	YN	Left	Yes	1.2088525001891	0	292282	252
572.923828125	1.2088525001891	health	choicePhaseStart	1	17	17	foodImage.36	FOODEEG_Images\0352.jpg	YN	Left	Yes	1.2088525001891	0	293338	253
574.126953125	0	health	response	1	17	17	foodImage.36	FOODEEG_Images\0352.jpg	YN	Left	Yes	1.2088525001891	0	293954	234
575.16796875	1	taste	trialStart	1	18	18	foodImage.67	FOODEEG_Images\0679.jpg	YN	Left	Yes	0.909150499850512	0	294487	251
576.228515625	2	taste	foodImageDisplay	1	18	18	foodImage.67	FOODEEG_Images\0679.jpg	YN	Left	Yes	0.909150499850512	0	295030	252
578.291015625	0.909150499850512	taste	choicePhaseStart	1	18	18	foodImage.67	FOODEEG_Images\0679.jpg	YN	Left	Yes	0.909150499850512	0	296086	253
579.19140625	0	taste	response	1	18	18	foodImage.67	FOODEEG_Images\0679.jpg	YN	Left	Yes	0.909150499850512	0	296547	234
580.234375	1	health	trialStart	1	19	19	foodImage.31	FOODEEG_Images\0294.jpg	YN	Right	No	1.08825509995222	0	297081	251
581.294921875	2	health	foodImageDisplay	1	19	19	foodImage.31	FOODEEG_Images\0294.jpg	YN	Right	No	1.08825509995222	0	297624	252
583.357421875	1.08825509995222	health	choicePhaseStart	1	19	19	foodImage.31	FOODEEG_Images\0294.jpg	YN	Right	No	1.08825509995222	0	298680	253
584.4375	0	health	response	1	19	19	foodImage.31	FOODEEG_Images\0294.jpg	YN	Right	No	1.08825509995222	0	299233	235
585.482421875	1	decision	trialStart	1	20	20	foodImage.91	FOODEEG_Images\0896.jpg	YN	Left	Yes	1.37617200007662	0	299768	251
586.541015625	2	decision	foodImageDisplay	1	20	20	foodImage.91	FOODEEG_Images\0896.jpg	YN	Left	Yes	1.37617200007662	0	300310	252
588.607421875	1.37617200007662	decision	choicePhaseStart	1	20	20	foodImage.91	FOODEEG_Images\0896.jpg	YN	Left	Yes	1.37617200007662	0	301368	253
589.97265625	0	decision	response	1	20	20	foodImage.91	FOODEEG_Images\0896.jpg	YN	Left	Yes	1.37617200007662	0	302067	234
591.013671875	1	taste	trialStart	1	21	21	foodImage.40	FOODEEG_Images\0373.jpg	NY	Right	Yes	1.05868510017172	0	302600	251
592.0546875	2	taste	foodImageDisplay	1	21	21	foodImage.40	FOODEEG_Images\0373.jpg	NY	Right	Yes	1.05868510017172	0	303133	252
594.1171875	1.05868510017172	taste	choicePhaseStart	1	21	21	foodImage.40	FOODEEG_Images\0373.jpg	NY	Right	Yes	1.05868510017172	0	304189	253
595.166015625	0	taste	response	1	21	21	foodImage.40	FOODEEG_Images\0373.jpg	NY	Right	Yes	1.05868510017172	0	304726	235
596.208984375	1	decision	trialStart	1	22	22	foodImage.31	FOODEEG_Images\0294.jpg	YN	Right	No	1.34885850036517	0	305260	251
597.251953125	2	decision	foodImageDisplay	1	22	22	foodImage.31	FOODEEG_Images\0294.jpg	YN	Right	No	1.34885850036517	0	305794	252
599.314453125	1.34885850036517	decision	choicePhaseStart	1	22	22	foodImage.31	FOODEEG_Images\0294.jpg	YN	Right	No	1.34885850036517	0	306850	253
600.654296875	0	decision	response	1	22	22	foodImage.31	FOODEEG_Images\0294.jpg	YN	Right	No	1.34885850036517	0	307536	235
601.697265625	1	health	trialStart	1	23	23	foodImage.22	FOODEEG_Images\0236.jpg	YN	Left	Yes	1.10898800007999	0	308070	251
602.740234375	2	health	foodImageDisplay	1	23	23	foodImage.22	FOODEEG_Images\0236.jpg	YN	Left	Yes	1.10898800007999	0	308604	252
604.802734375	1.10898800007999	health	choicePhaseStart	1	23	23	foodImage.22	FOODEEG_Images\0236.jpg	YN	Left	Yes	1.10898800007999	0	309660	253
605.900390625	0	health	response	1	23	23	foodImage.22	FOODEEG_Images\0236.jpg	YN	Left	Yes	1.10898800007999	0	310222	234
606.94140625	1	health	trialStart	1	24	24	foodImage.57	FOODEEG_Images\0587.jpg	NY	Left	No	2.74907210003585	0	310755	251
607.986328125	2	health	foodImageDisplay	1	24	24	foodImage.57	FOODEEG_Images\0587.jpg	NY	Left	No	2.74907210003585	0	311290	252
610.048828125	2.74907210003585	health	choicePhaseStart	1	24	24	foodImage.57	FOODEEG_Images\0587.jpg	NY	Left	No	2.74907210003585	0	312346	253
612.7890625	0	health	response	1	24	24	foodImage.57	FOODEEG_Images\0587.jpg	NY	Left	No	2.74907210003585	0	313749	234
613.830078125	1	taste	trialStart	1	25	25	foodImage.107	FOODEEG_Images\0915.jpg	NY	Right	Yes	1.08511780016124	0	314282	251
614.8671875	2	taste	foodImageDisplay	1	25	25	foodImage.107	FOODEEG_Images\0915.jpg	NY	Right	Yes	1.08511780016124	0	314813	252
616.9296875	1.08511780016124	taste	choicePhaseStart	1	25	25	foodImage.107	FOODEEG_Images\0915.jpg	NY	Right	Yes	1.08511780016124	0	315869	253
618.00390625	0	taste	response	1	25	25	foodImage.107	FOODEEG_Images\0915.jpg	NY	Right	Yes	1.08511780016124	0	316419	235
619.046875	1	taste	trialStart	1	26	26	foodImage.92	FOODEEG_Images\0900.jpg	YN	Left	Yes	1.30557979969308	0	316953	251
620.1015625	2	taste	foodImageDisplay	1	26	26	foodImage.92	FOODEEG_Images\0900.jpg	YN	Left	Yes	1.30557979969308	0	317493	252
622.1640625	1.30557979969308	taste	choicePhaseStart	1	26	26	foodImage.92	FOODEEG_Images\0900.jpg	YN	Left	Yes	1.30557979969308	0	318549	253
623.4609375	0	taste	response	1	26	26	foodImage.92	FOODEEG_Images\0900.jpg	YN	Left	Yes	1.30557979969308	0	319213	234
624.50390625	1	decision	trialStart	1	27	27	foodImage.111	FOODEEG_Images\0919.jpg	NY	Left	No	0.998351100366563	0	319747	251
625.544921875	2	decision	foodImageDisplay	1	27	27	foodImage.111	FOODEEG_Images\0919.jpg	NY	Left	No	0.998351100366563	0	320280	252
627.607421875	0.998351100366563	decision	choicePhaseStart	1	27	27	foodImage.111	FOODEEG_Images\0919.jpg	NY	Left	No	0.998351100366563	0	321336	253
628.595703125	0	decision	response	1	27	27	foodImage.111	FOODEEG_Images\0919.jpg	NY	Left	No	0.998351100366563	0	321842	234
629.642578125	1	health	trialStart	1	28	28	foodImage.59	FOODEEG_Images\0607.jpg	NY	Left	No	0.845915900077671	0	322378	251
630.6875	2	health	foodImageDisplay	1	28	28	foodImage.59	FOODEEG_Images\0607.jpg	NY	Left	No	0.845915900077671	0	322913	252
632.751953125	0.845915900077671	health	choicePhaseStart	1	28	28	foodImage.59	FOODEEG_Images\0607.jpg	NY	Left	No	0.845915900077671	0	323970	253
633.587890625	0	health	response	1	28	28	foodImage.59	FOODEEG_Images\0607.jpg	NY	Left	No	0.845915900077671	0	324398	234
634.630859375	1	decision	trialStart	1	29	29	foodImage.75	FOODEEG_Images\0763.jpg	YN	Left	Yes	0.929134800098836	0	324932	251
635.67578125	2	decision	foodImageDisplay	1	29	29	foodImage.75	FOODEEG_Images\0763.jpg	YN	Left	Yes	0.929134800098836	0	325467	252
637.73828125	0.929134800098836	decision	choicePhaseStart	1	29	29	foodImage.75	FOODEEG_Images\0763.jpg	YN	Left	Yes	0.929134800098836	0	326523	253
638.66015625	0	decision	response	1	29	29	foodImage.75	FOODEEG_Images\0763.jpg	YN	Left	Yes	0.929134800098836	0	326995	234
639.701171875	1	decision	trialStart	1	30	30	foodImage.6	FOODEEG_Images\0113.jpg	YN	Right	No	1.55088080000132	0	327528	251
640.744140625	2	decision	foodImageDisplay	1	30	30	foodImage.6	FOODEEG_Images\0113.jpg	YN	Right	No	1.55088080000132	0	328062	252
642.8046875	1.55088080000132	decision	choicePhaseStart	1	30	30	foodImage.6	FOODEEG_Images\0113.jpg	YN	Right	No	1.55088080000132	0	329117	253
644.34765625	0	decision	response	1	30	30	foodImage.6	FOODEEG_Images\0113.jpg	YN	Right	No	1.55088080000132	0	329907	235
645.390625	1	decision	trialStart	1	31	31	foodImage.61	FOODEEG_Images\0640.jpg	NY	Right	Yes	0.793403199873865	0	330441	251
646.443359375	2	decision	foodImageDisplay	1	31	31	foodImage.61	FOODEEG_Images\0640.jpg	NY	Right	Yes	0.793403199873865	0	330980	252
648.505859375	0.793403199873865	decision	choicePhaseStart	1	31	31	foodImage.61	FOODEEG_Images\0640.jpg	NY	Right	Yes	0.793403199873865	0	332036	253
649.291015625	0	decision	response	1	31	31	foodImage.61	FOODEEG_Images\0640.jpg	NY	Right	Yes	0.793403199873865	0	332438	235
650.3359375	1	decision	trialStart	1	32	32	foodImage.96	FOODEEG_Images\0904.jpg	NY	Right	Yes	0.871544300112873	0	332973	251
651.375	2	decision	foodImageDisplay	1	32	32	foodImage.96	FOODEEG_Images\0904.jpg	NY	Right	Yes	0.871544300112873	0	333505	252
653.4375	0.871544300112873	decision	choicePhaseStart	1	32	32	foodImage.96	FOODEEG_Images\0904.jpg	NY	Right	Yes	0.871544300112873	0	334561	253
654.298828125	0	decision	response	1	32	32	foodImage.96	FOODEEG_Images\0904.jpg	NY	Right	Yes	0.871544300112873	0	335002	235
655.3515625	1	health	trialStart	1	33	33	foodImage.24	FOODEEG_Images\0250.jpg	NY	Right	Yes	0.776022000238299	0	335541	251
656.412109375	2	health	foodImageDisplay	1	33	33	foodImage.24	FOODEEG_Images\0250.jpg	NY	Right	Yes	0.776022000238299	0	336084	252
658.4765625	0.776022000238299	health	choicePhaseStart	1	33	33	foodImage.24	FOODEEG_Images\0250.jpg	NY	Right	Yes	0.776022000238299	0	337141	253
659.2421875	0	health	response	1	33	33	foodImage.24	FOODEEG_Images\0250.jpg	NY	Right	Yes	0.776022000238299	0	337533	235
660.28515625	1	decision	trialStart	1	34	34	foodImage.71	FOODEEG_Images\0713.jpg	YN	Left	Yes	1.07991460012272	0	338067	251
661.326171875	2	decision	foodImageDisplay	1	34	34	foodImage.71	FOODEEG_Images\0713.jpg	YN	Left	Yes	1.07991460012272	0	338600	252
663.388671875	1.07991460012272	decision	choicePhaseStart	1	34	34	foodImage.71	FOODEEG_Images\0713.jpg	YN	Left	Yes	1.07991460012272	0	339656	253
664.458984375	0	decision	response	1	34	34	foodImage.71	FOODEEG_Images\0713.jpg	YN	Left	Yes	1.07991460012272	0	340204	234
665.501953125	1	decision	trialStart	1	35	35	foodImage.120	FOODEEG_Images\0928.jpg	NY	Left	No	0.873822699766606	0	340738	251
666.541015625	2	decision	foodImageDisplay	1	35	35	foodImage.120	FOODEEG_Images\0928.jpg	NY	Left	No	0.873822699766606	0	341270	252
668.603515625	0.873822699766606	decision	choicePhaseStart	1	35	35	foodImage.120	FOODEEG_Images\0928.jpg	NY	Left	No	0.873822699766606	0	342326	253
669.466796875	0	decision	response	1	35	35	foodImage.120	FOODEEG_Images\0928.jpg	NY	Left	No	0.873822699766606	0	342768	234
670.5078125	1	taste	trialStart	1	36	36	foodImage.42	FOODEEG_Images\0438.jpg	YN	Right	No	1.67201070021838	0	343301	251
671.59765625	2	taste	foodImageDisplay	1	36	36	foodImage.42	FOODEEG_Images\0438.jpg	YN	Right	No	1.67201070021838	0	343859	252
673.66015625	1.67201070021838	taste	choicePhaseStart	1	36	36	foodImage.42	FOODEEG_Images\0438.jpg	YN	Right	No	1.67201070021838	0	344915	253
675.322265625	0	taste	response	1	36	36	foodImage.42	FOODEEG_Images\0438.jpg	YN	Right	No	1.67201070021838	0	345766	235
676.36328125	1	taste	trialStart	1	37	37	foodImage.26	FOODEEG_Images\0262.jpg	YN	Right	No	1.89124569995329	0	346299	251
677.40625	2	taste	foodImageDisplay	1	37	37	foodImage.26	FOODEEG_Images\0262.jpg	YN	Right	No	1.89124569995329	0	346833	252
679.474609375	1.89124569995329	taste	choicePhaseStart	1	37	37	foodImage.26	FOODEEG_Images\0262.jpg	YN	Right	No	1.89124569995329	0	347892	253
681.35546875	0	taste	response	1	37	37	foodImage.26	FOODEEG_Images\0262.jpg	YN	Right	No	1.89124569995329	0	348855	235
682.39453125	1	taste	trialStart	1	38	38	foodImage.44	FOODEEG_Images\0459.jpg	YN	Left	Yes	1.38063970021904	0	349387	251
683.439453125	2	taste	foodImageDisplay	1	38	38	foodImage.44	FOODEEG_Images\0459.jpg	YN	Left	Yes	1.38063970021904	0	349922	252
685.50390625	1.38063970021904	taste	choicePhaseStart	1	38	38	foodImage.44	FOODEEG_Images\0459.jpg	YN	Left	Yes	1.38063970021904	0	350979	253
686.875	0	taste	response	1	38	38	foodImage.44	FOODEEG_Images\0459.jpg	YN	Left	Yes	1.38063970021904	0	351681	234
687.916015625	1	decision	trialStart	1	39	39	foodImage.55	FOODEEG_Images\0567.jpg	YN	Left	Yes	0.694163400214165	0	352214	251
688.974609375	2	decision	foodImageDisplay	1	39	39	foodImage.55	FOODEEG_Images\0567.jpg	YN	Left	Yes	0.694163400214165	0	352756	252
691.037109375	0.694163400214165	decision	choicePhaseStart	1	39	39	foodImage.55	FOODEEG_Images\0567.jpg	YN	Left	Yes	0.694163400214165	0	353812	253
691.720703125	0	decision	response	1	39	39	foodImage.55	FOODEEG_Images\0567.jpg	YN	Left	Yes	0.694163400214165	0	354162	234
692.76171875	1	decision	trialStart	1	40	40	foodImage.45	FOODEEG_Images\0478.jpg	YN	Left	Yes	0.597651899792254	0	354695	251
693.80859375	2	decision	foodImageDisplay	1	40	40	foodImage.45	FOODEEG_Images\0478.jpg	YN	Left	Yes	0.597651899792254	0	355231	252
695.876953125	0.597651899792254	decision	choicePhaseStart	1	40	40	foodImage.45	FOODEEG_Images\0478.jpg	YN	Left	Yes	0.597651899792254	0	356290	253
696.46484375	0	decision	response	1	40	40	foodImage.45	FOODEEG_Images\0478.jpg	YN	Left	Yes	0.597651899792254	0	356591	234
697.505859375	1	decision	trialStart	1	41	41	foodImage.89	FOODEEG_Images\0881.jpg	NY	Right	Yes	1.24390009976923	0	357124	251
698.568359375	2	decision	foodImageDisplay	1	41	41	foodImage.89	FOODEEG_Images\0881.jpg	NY	Right	Yes	1.24390009976923	0	357668	252
700.630859375	1.24390009976923	decision	choicePhaseStart	1	41	41	foodImage.89	FOODEEG_Images\0881.jpg	NY	Right	Yes	1.24390009976923	0	358724	253
701.865234375	0	decision	response	1	41	41	foodImage.89	FOODEEG_Images\0881.jpg	NY	Right	Yes	1.24390009976923	0	359356	235
702.90625	1	taste	trialStart	1	42	42	foodImage.101	FOODEEG_Images\0909.jpg	NY	Left	No	1.27403629990295	0	359889	251
703.947265625	2	taste	foodImageDisplay	1	42	42	foodImage.101	FOODEEG_Images\0909.jpg	NY	Left	No	1.27403629990295	0	360422	252
706.009765625	1.27403629990295	taste	choicePhaseStart	1	42	42	foodImage.101	FOODEEG_Images\0909.jpg	NY	Left	No	1.27403629990295	0	361478	253
707.2734375	0	taste	response	1	42	42	foodImage.101	FOODEEG_Images\0909.jpg	NY	Left	No	1.27403629990295	0	362125	234
708.314453125	1	taste	trialStart	1	43	43	foodImage.13	FOODEEG_Images\0183.jpg	NY	Right	Yes	0.913564399816096	0	362658	251
709.35546875	2	taste	foodImageDisplay	1	43	43	foodImage.13	FOODEEG_Images\0183.jpg	NY	Right	Yes	0.913564399816096	0	363191	252
711.416015625	0.913564399816096	taste	choicePhaseStart	1	43	43	foodImage.13	FOODEEG_Images\0183.jpg	NY	Right	Yes	0.913564399816096	0	364246	253
712.322265625	0	taste	response	1	43	43	foodImage.13	FOODEEG_Images\0183.jpg	NY	Right	Yes	0.913564399816096	0	364710	235
713.36328125	1	taste	trialStart	1	44	44	foodImage.45	FOODEEG_Images\0478.jpg	YN	Left	Yes	1.06951649999246	0	365243	251
714.40625	2	taste	foodImageDisplay	1	44	44	foodImage.45	FOODEEG_Images\0478.jpg	YN	Left	Yes	1.06951649999246	0	365777	252
716.46875	1.06951649999246	taste	choicePhaseStart	1	44	44	foodImage.45	FOODEEG_Images\0478.jpg	YN	Left	Yes	1.06951649999246	0	366833	253
717.529296875	0	taste	response	1	44	44	foodImage.45	FOODEEG_Images\0478.jpg	YN	Left	Yes	1.06951649999246	0	367376	234
718.568359375	1	health	trialStart	1	45	45	foodImage.80	FOODEEG_Images\0796.jpg	YN	Left	Yes	0.652283899951726	0	367908	251
719.630859375	2	health	foodImageDisplay	1	45	45	foodImage.80	FOODEEG_Images\0796.jpg	YN	Left	Yes	0.652283899951726	0	368452	252
721.693359375	0.652283899951726	health	choicePhaseStart	1	45	45	foodImage.80	FOODEEG_Images\0796.jpg	YN	Left	Yes	0.652283899951726	0	369508	253
722.3359375	0	health	response	1	45	45	foodImage.80	FOODEEG_Images\0796.jpg	YN	Left	Yes	0.652283899951726	0	369837	234
723.380859375	1	decision	trialStart	1	46	46	foodImage.30	FOODEEG_Images\0282.jpg	YN	Left	Yes	0.846483099739999	0	370372	251
724.421875	2	decision	foodImageDisplay	1	46	46	foodImage.30	FOODEEG_Images\0282.jpg	YN	Left	Yes	0.846483099739999	0	370905	252
726.484375	0.846483099739999	decision	choicePhaseStart	1	46	46	foodImage.30	FOODEEG_Images\0282.jpg	YN	Left	Yes	0.846483099739999	0	371961	253
727.3203125	0	decision	response	1	46	46	foodImage.30	FOODEEG_Images\0282.jpg	YN	Left	Yes	0.846483099739999	0	372389	234
728.361328125	1	taste	trialStart	1	47	47	foodImage.50	FOODEEG_Images\0529.jpg	YN	Right	No	1.29422880010679	0	372922	251
729.419921875	2	taste	foodImageDisplay	1	47	47	foodImage.50	FOODEEG_Images\0529.jpg	YN	Right	No	1.29422880010679	0	373464	252
731.482421875	1.29422880010679	taste	choicePhaseStart	1	47	47	foodImage.50	FOODEEG_Images\0529.jpg	YN	Right	No	1.29422880010679	0	374520	253
732.767578125	0	taste	response	1	47	47	foodImage.50	FOODEEG_Images\0529.jpg	YN	Right	No	1.29422880010679	0	375178	235
733.810546875	1	health	trialStart	1	48	48	foodImage.16	FOODEEG_Images\0196.jpg	YN	Left	Yes	0.854005000088364	0	375712	251
734.869140625	2	health	foodImageDisplay	1	48	48	foodImage.16	FOODEEG_Images\0196.jpg	YN	Left	Yes	0.854005000088364	0	376254	252
736.9296875	0.854005000088364	health	choicePhaseStart	1	48	48	foodImage.16	FOODEEG_Images\0196.jpg	YN	Left	Yes	0.854005000088364	0	377309	253
737.775390625	0	health	response	1	48	48	foodImage.16	FOODEEG_Images\0196.jpg	YN	Left	Yes	0.854005000088364	0	377742	234
738.818359375	1	taste	trialStart	1	49	49	foodImage.79	FOODEEG_Images\0794.jpg	NY	Right	Yes	0.980283999815583	0	378276	251
739.86328125	2	taste	foodImageDisplay	1	49	49	foodImage.79	FOODEEG_Images\0794.jpg	NY	Right	Yes	0.980283999815583	0	378811	252
741.92578125	0.980283999815583	taste	choicePhaseStart	1	49	49	foodImage.79	FOODEEG_Images\0794.jpg	NY	Right	Yes	0.980283999815583	0	379867	253
742.896484375	0	taste	response	1	49	49	foodImage.79	FOODEEG_Images\0794.jpg	NY	Right	Yes	0.980283999815583	0	380364	235
743.939453125	1	decision	trialStart	1	50	50	foodImage.86	FOODEEG_Images\0844.jpg	YN	Left	Yes	1.02669820003211	0	380898	251
745	2	decision	foodImageDisplay	1	50	50	foodImage.86	FOODEEG_Images\0844.jpg	YN	Left	Yes	1.02669820003211	0	381441	252
747.0625	1.02669820003211	decision	choicePhaseStart	1	50	50	foodImage.86	FOODEEG_Images\0844.jpg	YN	Left	Yes	1.02669820003211	0	382497	253
748.080078125	0	decision	response	1	50	50	foodImage.86	FOODEEG_Images\0844.jpg	YN	Left	Yes	1.02669820003211	0	383018	234
749.123046875	1	health	trialStart	1	51	51	foodImage.4	FOODEEG_Images\0065.jpg	NY	Left	No	0.974386800080538	0	383552	251
750.1796875	2	health	foodImageDisplay	1	51	51	foodImage.4	FOODEEG_Images\0065.jpg	NY	Left	No	0.974386800080538	0	384093	252
752.2421875	0.974386800080538	health	choicePhaseStart	1	51	51	foodImage.4	FOODEEG_Images\0065.jpg	NY	Left	No	0.974386800080538	0	385149	253
753.20703125	0	health	response	1	51	51	foodImage.4	FOODEEG_Images\0065.jpg	NY	Left	No	0.974386800080538	0	385643	234
754.251953125	1	taste	trialStart	1	52	52	foodImage.97	FOODEEG_Images\0905.jpg	NY	Left	No	1.128495299723	0	386178	251
755.291015625	2	taste	foodImageDisplay	1	52	52	foodImage.97	FOODEEG_Images\0905.jpg	NY	Left	No	1.128495299723	0	386710	252
757.3515625	1.128495299723	taste	choicePhaseStart	1	52	52	foodImage.97	FOODEEG_Images\0905.jpg	NY	Left	No	1.128495299723	0	387765	253
758.470703125	0	taste	response	1	52	52	foodImage.97	FOODEEG_Images\0905.jpg	NY	Left	No	1.128495299723	0	388338	234
759.515625	1	taste	trialStart	1	53	53	foodImage.30	FOODEEG_Images\0282.jpg	NY	Right	Yes	0.861587999854237	0	388873	251
760.556640625	2	taste	foodImageDisplay	1	53	53	foodImage.30	FOODEEG_Images\0282.jpg	NY	Right	Yes	0.861587999854237	0	389406	252
762.62109375	0.861587999854237	taste	choicePhaseStart	1	53	53	foodImage.30	FOODEEG_Images\0282.jpg	NY	Right	Yes	0.861587999854237	0	390463	253
763.470703125	0	taste	response	1	53	53	foodImage.30	FOODEEG_Images\0282.jpg	NY	Right	Yes	0.861587999854237	0	390898	235
764.513671875	1	taste	trialStart	1	54	54	foodImage.15	FOODEEG_Images\0189.jpg	NY	Right	Yes	0.920679899863899	0	391432	251
765.576171875	2	taste	foodImageDisplay	1	54	54	foodImage.15	FOODEEG_Images\0189.jpg	NY	Right	Yes	0.920679899863899	0	391976	252
767.638671875	0.920679899863899	taste	choicePhaseStart	1	54	54	foodImage.15	FOODEEG_Images\0189.jpg	NY	Right	Yes	0.920679899863899	0	393032	253
768.55078125	0	taste	response	1	54	54	foodImage.15	FOODEEG_Images\0189.jpg	NY	Right	Yes	0.920679899863899	0	393499	235
769.59375	1	decision	trialStart	1	55	55	foodImage.40	FOODEEG_Images\0373.jpg	NY	Right	Yes	1.01924990024418	0	394033	251
770.654296875	2	decision	foodImageDisplay	1	55	55	foodImage.40	FOODEEG_Images\0373.jpg	NY	Right	Yes	1.01924990024418	0	394576	252
772.71484375	1.01924990024418	decision	choicePhaseStart	1	55	55	foodImage.40	FOODEEG_Images\0373.jpg	NY	Right	Yes	1.01924990024418	0	395631	253
773.7265625	0	decision	response	1	55	55	foodImage.40	FOODEEG_Images\0373.jpg	NY	Right	Yes	1.01924990024418	0	396149	235
774.765625	1	taste	trialStart	1	56	56	foodImage.71	FOODEEG_Images\0713.jpg	YN	Left	Yes	0.85116869956255	0	396681	251
775.8046875	2	taste	foodImageDisplay	1	56	56	foodImage.71	FOODEEG_Images\0713.jpg	YN	Left	Yes	0.85116869956255	0	397213	252
777.8671875	0.85116869956255	taste	choicePhaseStart	1	56	56	foodImage.71	FOODEEG_Images\0713.jpg	YN	Left	Yes	0.85116869956255	0	398269	253
778.7109375	0	taste	response	1	56	56	foodImage.71	FOODEEG_Images\0713.jpg	YN	Left	Yes	0.85116869956255	0	398701	234
779.751953125	1	health	trialStart	1	57	57	foodImage.96	FOODEEG_Images\0904.jpg	YN	Left	Yes	0.668610900174826	0	399234	251
780.787109375	2	health	foodImageDisplay	1	57	57	foodImage.96	FOODEEG_Images\0904.jpg	YN	Left	Yes	0.668610900174826	0	399764	252
782.849609375	0.668610900174826	health	choicePhaseStart	1	57	57	foodImage.96	FOODEEG_Images\0904.jpg	YN	Left	Yes	0.668610900174826	0	400820	253
783.509765625	0	health	response	1	57	57	foodImage.96	FOODEEG_Images\0904.jpg	YN	Left	Yes	0.668610900174826	0	401158	234
784.552734375	1	taste	trialStart	1	58	58	foodImage.111	FOODEEG_Images\0919.jpg	NY	Left	No	1.90580169996247	0	401692	251
785.591796875	2	taste	foodImageDisplay	1	58	58	foodImage.111	FOODEEG_Images\0919.jpg	NY	Left	No	1.90580169996247	0	402224	252
787.654296875	1.90580169996247	taste	choicePhaseStart	1	58	58	foodImage.111	FOODEEG_Images\0919.jpg	NY	Left	No	1.90580169996247	0	403280	253
789.55078125	0	taste	response	1	58	58	foodImage.111	FOODEEG_Images\0919.jpg	NY	Left	No	1.90580169996247	0	404251	234
790.591796875	1	health	trialStart	1	59	59	foodImage.52	FOODEEG_Images\0539.jpg	YN	Left	Yes	2.94737110007554	0	404784	251
791.65234375	2	health	foodImageDisplay	1	59	59	foodImage.52	FOODEEG_Images\0539.jpg	YN	Left	Yes	2.94737110007554	0	405327	252
793.71484375	2.94737110007554	health	choicePhaseStart	1	59	59	foodImage.52	FOODEEG_Images\0539.jpg	YN	Left	Yes	2.94737110007554	0	406383	253
796.654296875	0	health	response	1	59	59	foodImage.52	FOODEEG_Images\0539.jpg	YN	Left	Yes	2.94737110007554	0	407888	234
797.6953125	1	taste	trialStart	1	60	60	foodImage.84	FOODEEG_Images\0830.jpg	NY	Right	Yes	0.925283400341868	0	408421	251
798.75390625	2	taste	foodImageDisplay	1	60	60	foodImage.84	FOODEEG_Images\0830.jpg	NY	Right	Yes	0.925283400341868	0	408963	252
800.81640625	0.925283400341868	taste	choicePhaseStart	1	60	60	foodImage.84	FOODEEG_Images\0830.jpg	NY	Right	Yes	0.925283400341868	0	410019	253
801.732421875	0	taste	response	1	60	60	foodImage.84	FOODEEG_Images\0830.jpg	NY	Right	Yes	0.925283400341868	0	410488	235
803.7734375	21.537109375	n/a	blockEnd	n/a	n/a	n/a	n/a	n/a	n/a	n/a	n/a	n/a	n/a	411533	254
825.310546875	2	n/a	blockStart	2	n/a	n/a	n/a	n/a	n/a	n/a	n/a	n/a	n/a	422560	250
827.341796875	1	health	trialStart	2	61	1	foodImage.62	FOODEEG_Images\0644.jpg	NY	Right	Yes	0.947740799747407	0	423600	251
828.400390625	2	health	foodImageDisplay	2	61	1	foodImage.62	FOODEEG_Images\0644.jpg	NY	Right	Yes	0.947740799747407	0	424142	252
830.46484375	0.947740799747407	health	choicePhaseStart	2	61	1	foodImage.62	FOODEEG_Images\0644.jpg	NY	Right	Yes	0.947740799747407	0	425199	253
831.404296875	0	health	response	2	61	1	foodImage.62	FOODEEG_Images\0644.jpg	NY	Right	Yes	0.947740799747407	0	425680	235
832.447265625	1	taste	trialStart	2	62	2	foodImage.106	FOODEEG_Images\0914.jpg	NY	Right	Yes	1.02365949982777	0	426214	251
833.48828125	2	taste	foodImageDisplay	2	62	2	foodImage.106	FOODEEG_Images\0914.jpg	NY	Right	Yes	1.02365949982777	0	426747	252
835.55078125	1.02365949982777	taste	choicePhaseStart	2	62	2	foodImage.106	FOODEEG_Images\0914.jpg	NY	Right	Yes	1.02365949982777	0	427803	253
836.564453125	0	taste	response	2	62	2	foodImage.106	FOODEEG_Images\0914.jpg	NY	Right	Yes	1.02365949982777	0	428322	235
837.607421875	1	health	trialStart	2	63	3	foodImage.89	FOODEEG_Images\0881.jpg	NY	Right	Yes	1.11952670011669	0	428856	251
838.6640625	2	health	foodImageDisplay	2	63	3	foodImage.89	FOODEEG_Images\0881.jpg	NY	Right	Yes	1.11952670011669	0	429397	252
840.7265625	1.11952670011669	health	choicePhaseStart	2	63	3	foodImage.89	FOODEEG_Images\0881.jpg	NY	Right	Yes	1.11952670011669	0	430453	253
841.8359375	0	health	response	2	63	3	foodImage.89	FOODEEG_Images\0881.jpg	NY	Right	Yes	1.11952670011669	0	431021	235
842.880859375	1	decision	trialStart	2	64	4	foodImage.47	FOODEEG_Images\0488.jpg	YN	Left	Yes	1.06896389974281	0	431556	251
843.921875	2	decision	foodImageDisplay	2	64	4	foodImage.47	FOODEEG_Images\0488.jpg	YN	Left	Yes	1.06896389974281	0	432089	252
845.984375	1.06896389974281	decision	choicePhaseStart	2	64	4	foodImage.47	FOODEEG_Images\0488.jpg	YN	Left	Yes	1.06896389974281	0	433145	253
847.04296875	0	decision	response	2	64	4	foodImage.47	FOODEEG_Images\0488.jpg	YN	Left	Yes	1.06896389974281	0	433687	234
848.083984375	1	health	trialStart	2	65	5	foodImage.110	FOODEEG_Images\0918.jpg	NY	Left	No	1.5411228002049	0	434220	251
849.12109375	2	health	foodImageDisplay	2	65	5	foodImage.110	FOODEEG_Images\0918.jpg	NY	Left	No	1.5411228002049	0	434751	252
851.18359375	1.5411228002049	health	choicePhaseStart	2	65	5	foodImage.110	FOODEEG_Images\0918.jpg	NY	Left	No	1.5411228002049	0	435807	253
852.716796875	0	health	response	2	65	5	foodImage.110	FOODEEG_Images\0918.jpg	NY	Left	No	1.5411228002049	0	436592	234
853.755859375	1	health	trialStart	2	66	6	foodImage.20	FOODEEG_Images\0226.jpg	NY	Left	No	1.04926879983395	0	437124	251
854.796875	2	health	foodImageDisplay	2	66	6	foodImage.20	FOODEEG_Images\0226.jpg	NY	Left	No	1.04926879983395	0	437657	252
856.859375	1.04926879983395	health	choicePhaseStart	2	66	6	foodImage.20	FOODEEG_Images\0226.jpg	NY	Left	No	1.04926879983395	0	438713	253
857.8984375	0	health	response	2	66	6	foodImage.20	FOODEEG_Images\0226.jpg	NY	Left	No	1.04926879983395	0	439245	234
858.943359375	1	health	trialStart	2	67	7	foodImage.49	FOODEEG_Images\0515.jpg	YN	Right	No	1.23127969959751	0	439780	251
859.986328125	2	health	foodImageDisplay	2	67	7	foodImage.49	FOODEEG_Images\0515.jpg	YN	Right	No	1.23127969959751	0	440314	252
862.052734375	1.23127969959751	health	choicePhaseStart	2	67	7	foodImage.49	FOODEEG_Images\0515.jpg	YN	Right	No	1.23127969959751	0	441372	253
863.275390625	0	health	response	2	67	7	foodImage.49	FOODEEG_Images\0515.jpg	YN	Right	No	1.23127969959751	0	441998	235
864.31640625	1	health	trialStart	2	68	8	foodImage.100	FOODEEG_Images\0908.jpg	YN	Right	No	2.82546079996973	0	442531	251
865.35546875	2	health	foodImageDisplay	2	68	8	foodImage.100	FOODEEG_Images\0908.jpg	YN	Right	No	2.82546079996973	0	443063	252
867.41796875	2.82546079996973	health	choicePhaseStart	2	68	8	foodImage.100	FOODEEG_Images\0908.jpg	YN	Right	No	2.82546079996973	0	444119	253
870.234375	0	health	response	2	68	8	foodImage.100	FOODEEG_Images\0908.jpg	YN	Right	No	2.82546079996973	0	445561	235
871.2734375	1	decision	trialStart	2	69	9	foodImage.57	FOODEEG_Images\0587.jpg	YN	Left	Yes	0.793787400238216	0	446093	251
872.31640625	2	decision	foodImageDisplay	2	69	9	foodImage.57	FOODEEG_Images\0587.jpg	YN	Left	Yes	0.793787400238216	0	446627	252
874.376953125	0.793787400238216	decision	choicePhaseStart	2	69	9	foodImage.57	FOODEEG_Images\0587.jpg	YN	Left	Yes	0.793787400238216	0	447682	253
875.162109375	0	decision	response	2	69	9	foodImage.57	FOODEEG_Images\0587.jpg	YN	Left	Yes	0.793787400238216	0	448084	234
876.205078125	1	health	trialStart	2	70	10	foodImage.61	FOODEEG_Images\0640.jpg	YN	Left	Yes	1.87949039973319	0	448618	251
877.24609375	2	health	foodImageDisplay	2	70	10	foodImage.61	FOODEEG_Images\0640.jpg	YN	Left	Yes	1.87949039973319	0	449151	252
879.30859375	1.87949039973319	health	choicePhaseStart	2	70	10	foodImage.61	FOODEEG_Images\0640.jpg	YN	Left	Yes	1.87949039973319	0	450207	253
881.177734375	0	health	response	2	70	10	foodImage.61	FOODEEG_Images\0640.jpg	YN	Left	Yes	1.87949039973319	0	451164	234
882.236328125	1	health	trialStart	2	71	11	foodImage.93	FOODEEG_Images\0901.jpg	NY	Left	No	1.63418400008231	0	451706	251
883.275390625	2	health	foodImageDisplay	2	71	11	foodImage.93	FOODEEG_Images\0901.jpg	NY	Left	No	1.63418400008231	0	452238	252
885.337890625	1.63418400008231	health	choicePhaseStart	2	71	11	foodImage.93	FOODEEG_Images\0901.jpg	NY	Left	No	1.63418400008231	0	453294	253
886.962890625	0	health	response	2	71	11	foodImage.93	FOODEEG_Images\0901.jpg	NY	Left	No	1.63418400008231	0	454126	234
888.001953125	1	decision	trialStart	2	72	12	foodImage.103	FOODEEG_Images\0911.jpg	NY	Left	No	1.94101400021464	0	454658	251
889.0390625	2	decision	foodImageDisplay	2	72	12	foodImage.103	FOODEEG_Images\0911.jpg	NY	Left	No	1.94101400021464	0	455189	252
891.1015625	1.94101400021464	decision	choicePhaseStart	2	72	12	foodImage.103	FOODEEG_Images\0911.jpg	NY	Left	No	1.94101400021464	0	456245	253
893.03515625	0	decision	response	2	72	12	foodImage.103	FOODEEG_Images\0911.jpg	NY	Left	No	1.94101400021464	0	457235	234
894.078125	1	taste	trialStart	2	73	13	foodImage.53	FOODEEG_Images\0547.jpg	YN	Left	Yes	1.29878669977188	0	457769	251
895.138671875	2	taste	foodImageDisplay	2	73	13	foodImage.53	FOODEEG_Images\0547.jpg	YN	Left	Yes	1.29878669977188	0	458312	252
897.201171875	1.29878669977188	taste	choicePhaseStart	2	73	13	foodImage.53	FOODEEG_Images\0547.jpg	YN	Left	Yes	1.29878669977188	0	459368	253
898.490234375	0	taste	response	2	73	13	foodImage.53	FOODEEG_Images\0547.jpg	YN	Left	Yes	1.29878669977188	0	460028	234
899.53515625	1	health	trialStart	2	74	14	foodImage.60	FOODEEG_Images\0614.jpg	YN	Left	Yes	0.81149569991976	0	460563	251
900.59375	2	health	foodImageDisplay	2	74	14	foodImage.60	FOODEEG_Images\0614.jpg	YN	Left	Yes	0.81149569991976	0	461105	252
902.65625	0.81149569991976	health	choicePhaseStart	2	74	14	foodImage.60	FOODEEG_Images\0614.jpg	YN	Left	Yes	0.81149569991976	0	462161	253
903.45703125	0	health	response	2	74	14	foodImage.60	FOODEEG_Images\0614.jpg	YN	Left	Yes	0.81149569991976	0	462571	234
904.498046875	1	taste	trialStart	2	75	15	foodImage.93	FOODEEG_Images\0901.jpg	NY	Right	Yes	1.69003910012543	0	463104	251
905.537109375	2	taste	foodImageDisplay	2	75	15	foodImage.93	FOODEEG_Images\0901.jpg	NY	Right	Yes	1.69003910012543	0	463636	252
907.599609375	1.69003910012543	taste	choicePhaseStart	2	75	15	foodImage.93	FOODEEG_Images\0901.jpg	NY	Right	Yes	1.69003910012543	0	464692	253
909.28125	0	taste	response	2	75	15	foodImage.93	FOODEEG_Images\0901.jpg	NY	Right	Yes	1.69003910012543	0	465553	235
910.326171875	1	health	trialStart	2	76	16	foodImage.90	FOODEEG_Images\0890.jpg	NY	Left	No	1.18093170039356	0	466088	251
911.3828125	2	health	foodImageDisplay	2	76	16	foodImage.90	FOODEEG_Images\0890.jpg	NY	Left	No	1.18093170039356	0	466629	252
913.4453125	1.18093170039356	health	choicePhaseStart	2	76	16	foodImage.90	FOODEEG_Images\0890.jpg	NY	Left	No	1.18093170039356	0	467685	253
914.6171875	0	health	response	2	76	16	foodImage.90	FOODEEG_Images\0890.jpg	NY	Left	No	1.18093170039356	0	468285	234
915.66015625	1	decision	trialStart	2	77	17	foodImage.116	FOODEEG_Images\0924.jpg	NY	Left	No	1.53707609977573	0	468819	251
916.69921875	2	decision	foodImageDisplay	2	77	17	foodImage.116	FOODEEG_Images\0924.jpg	NY	Left	No	1.53707609977573	0	469351	252
918.76171875	1.53707609977573	decision	choicePhaseStart	2	77	17	foodImage.116	FOODEEG_Images\0924.jpg	NY	Left	No	1.53707609977573	0	470407	253
920.2890625	0	decision	response	2	77	17	foodImage.116	FOODEEG_Images\0924.jpg	NY	Left	No	1.53707609977573	0	471189	234
921.333984375	1	health	trialStart	2	78	18	foodImage.88	FOODEEG_Images\0878.jpg	YN	Right	No	1.59541649976745	0	471724	251
922.390625	2	health	foodImageDisplay	2	78	18	foodImage.88	FOODEEG_Images\0878.jpg	YN	Right	No	1.59541649976745	0	472265	252
924.453125	1.59541649976745	health	choicePhaseStart	2	78	18	foodImage.88	FOODEEG_Images\0878.jpg	YN	Right	No	1.59541649976745	0	473321	253
926.041015625	0	health	response	2	78	18	foodImage.88	FOODEEG_Images\0878.jpg	YN	Right	No	1.59541649976745	0	474134	235
927.08203125	1	health	trialStart	2	79	19	foodImage.107	FOODEEG_Images\0915.jpg	YN	Left	Yes	0.564057799987495	0	474667	251
928.119140625	2	health	foodImageDisplay	2	79	19	foodImage.107	FOODEEG_Images\0915.jpg	YN	Left	Yes	0.564057799987495	0	475198	252
930.181640625	0.564057799987495	health	choicePhaseStart	2	79	19	foodImage.107	FOODEEG_Images\0915.jpg	YN	Left	Yes	0.564057799987495	0	476254	253
930.736328125	0	health	response	2	79	19	foodImage.107	FOODEEG_Images\0915.jpg	YN	Left	Yes	0.564057799987495	0	476538	234
931.78125	1	decision	trialStart	2	80	20	foodImage.43	FOODEEG_Images\0445.jpg	NY	Right	Yes	1.20155039988458	0	477073	251
932.841796875	2	decision	foodImageDisplay	2	80	20	foodImage.43	FOODEEG_Images\0445.jpg	NY	Right	Yes	1.20155039988458	0	477616	252
934.904296875	1.20155039988458	decision	choicePhaseStart	2	80	20	foodImage.43	FOODEEG_Images\0445.jpg	NY	Right	Yes	1.20155039988458	0	478672	253
936.095703125	0	decision	response	2	80	20	foodImage.43	FOODEEG_Images\0445.jpg	NY	Right	Yes	1.20155039988458	0	479282	235
937.138671875	1	taste	trialStart	2	81	21	foodImage.100	FOODEEG_Images\0908.jpg	YN	Right	No	1.13557070028037	0	479816	251
938.1796875	2	taste	foodImageDisplay	2	81	21	foodImage.100	FOODEEG_Images\0908.jpg	YN	Right	No	1.13557070028037	0	480349	252
940.2421875	1.13557070028037	taste	choicePhaseStart	2	81	21	foodImage.100	FOODEEG_Images\0908.jpg	YN	Right	No	1.13557070028037	0	481405	253
941.369140625	0	taste	response	2	81	21	foodImage.100	FOODEEG_Images\0908.jpg	YN	Right	No	1.13557070028037	0	481982	235
942.41015625	1	taste	trialStart	2	82	22	foodImage.43	FOODEEG_Images\0445.jpg	NY	Right	Yes	1.61869879998267	0	482515	251
943.47265625	2	taste	foodImageDisplay	2	82	22	foodImage.43	FOODEEG_Images\0445.jpg	NY	Right	Yes	1.61869879998267	0	483059	252
945.53515625	1.61869879998267	taste	choicePhaseStart	2	82	22	foodImage.43	FOODEEG_Images\0445.jpg	NY	Right	Yes	1.61869879998267	0	484115	253
947.14453125	0	taste	response	2	82	22	foodImage.43	FOODEEG_Images\0445.jpg	NY	Right	Yes	1.61869879998267	0	484939	235
948.1875	1	health	trialStart	2	83	23	foodImage.58	FOODEEG_Images\0605.jpg	NY	Right	Yes	1.89195269998163	0	485473	251
949.24609375	2	health	foodImageDisplay	2	83	23	foodImage.58	FOODEEG_Images\0605.jpg	NY	Right	Yes	1.89195269998163	0	486015	252
951.30859375	1.89195269998163	health	choicePhaseStart	2	83	23	foodImage.58	FOODEEG_Images\0605.jpg	NY	Right	Yes	1.89195269998163	0	487071	253
953.19140625	0	health	response	2	83	23	foodImage.58	FOODEEG_Images\0605.jpg	NY	Right	Yes	1.89195269998163	0	488035	235
954.236328125	1	health	trialStart	2	84	24	foodImage.78	FOODEEG_Images\0787.jpg	YN	Right	No	1.17854759981856	0	488570	251
955.28125	2	health	foodImageDisplay	2	84	24	foodImage.78	FOODEEG_Images\0787.jpg	YN	Right	No	1.17854759981856	0	489105	252
957.341796875	1.17854759981856	health	choicePhaseStart	2	84	24	foodImage.78	FOODEEG_Images\0787.jpg	YN	Right	No	1.17854759981856	0	490160	253
958.51171875	0	health	response	2	84	24	foodImage.78	FOODEEG_Images\0787.jpg	YN	Right	No	1.17854759981856	0	490759	235
959.552734375	1	decision	trialStart	2	85	25	foodImage.41	FOODEEG_Images\0409.jpg	NY	Right	Yes	1.21979649970308	0	491292	251
960.59765625	2	decision	foodImageDisplay	2	85	25	foodImage.41	FOODEEG_Images\0409.jpg	NY	Right	Yes	1.21979649970308	0	491827	252
962.66015625	1.21979649970308	decision	choicePhaseStart	2	85	25	foodImage.41	FOODEEG_Images\0409.jpg	NY	Right	Yes	1.21979649970308	0	492883	253
963.87109375	0	decision	response	2	85	25	foodImage.41	FOODEEG_Images\0409.jpg	NY	Right	Yes	1.21979649970308	0	493503	235
964.9140625	1	taste	trialStart	2	86	26	foodImage.112	FOODEEG_Images\0920.jpg	YN	Right	No	0.770748800132424	0	494037	251
965.953125	2	taste	foodImageDisplay	2	86	26	foodImage.112	FOODEEG_Images\0920.jpg	YN	Right	No	0.770748800132424	0	494569	252
968.021484375	0.770748800132424	taste	choicePhaseStart	2	86	26	foodImage.112	FOODEEG_Images\0920.jpg	YN	Right	No	0.770748800132424	0	495628	253
968.783203125	0	taste	response	2	86	26	foodImage.112	FOODEEG_Images\0920.jpg	YN	Right	No	0.770748800132424	0	496018	235
969.82421875	1	health	trialStart	2	87	27	foodImage.99	FOODEEG_Images\0907.jpg	YN	Right	No	0.880897200200707	0	496551	251
970.86328125	2	health	foodImageDisplay	2	87	27	foodImage.99	FOODEEG_Images\0907.jpg	YN	Right	No	0.880897200200707	0	497083	252
972.92578125	0.880897200200707	health	choicePhaseStart	2	87	27	foodImage.99	FOODEEG_Images\0907.jpg	YN	Right	No	0.880897200200707	0	498139	253
973.798828125	0	health	response	2	87	27	foodImage.99	FOODEEG_Images\0907.jpg	YN	Right	No	0.880897200200707	0	498586	235
974.83984375	1	decision	trialStart	2	88	28	foodImage.19	FOODEEG_Images\0225.jpg	NY	Right	Yes	1.67877870006487	0	499119	251
975.880859375	2	decision	foodImageDisplay	2	88	28	foodImage.19	FOODEEG_Images\0225.jpg	NY	Right	Yes	1.67877870006487	0	499652	252
977.943359375	1.67877870006487	decision	choicePhaseStart	2	88	28	foodImage.19	FOODEEG_Images\0225.jpg	NY	Right	Yes	1.67877870006487	0	500708	253
979.615234375	0	decision	response	2	88	28	foodImage.19	FOODEEG_Images\0225.jpg	NY	Right	Yes	1.67877870006487	0	501564	235
980.654296875	1	taste	trialStart	2	89	29	foodImage.104	FOODEEG_Images\0912.jpg	NY	Right	Yes	1.86882060021162	0	502096	251
981.693359375	2	taste	foodImageDisplay	2	89	29	foodImage.104	FOODEEG_Images\0912.jpg	NY	Right	Yes	1.86882060021162	0	502628	252
983.75390625	1.86882060021162	taste	choicePhaseStart	2	89	29	foodImage.104	FOODEEG_Images\0912.jpg	NY	Right	Yes	1.86882060021162	0	503683	253
985.615234375	0	taste	response	2	89	29	foodImage.104	FOODEEG_Images\0912.jpg	NY	Right	Yes	1.86882060021162	0	504636	235
986.65625	1	taste	trialStart	2	90	30	foodImage.98	FOODEEG_Images\0906.jpg	NY	Right	Yes	1.86847299989313	0	505169	251
987.693359375	2	taste	foodImageDisplay	2	90	30	foodImage.98	FOODEEG_Images\0906.jpg	NY	Right	Yes	1.86847299989313	0	505700	252
989.755859375	1.86847299989313	taste	choicePhaseStart	2	90	30	foodImage.98	FOODEEG_Images\0906.jpg	NY	Right	Yes	1.86847299989313	0	506756	253
991.615234375	0	taste	response	2	90	30	foodImage.98	FOODEEG_Images\0906.jpg	NY	Right	Yes	1.86847299989313	0	507708	235
992.65625	1	taste	trialStart	2	91	31	foodImage.74	FOODEEG_Images\0752.jpg	YN	Left	Yes	0.988162700086832	0	508241	251
993.701171875	2	taste	foodImageDisplay	2	91	31	foodImage.74	FOODEEG_Images\0752.jpg	YN	Left	Yes	0.988162700086832	0	508776	252
995.763671875	0.988162700086832	taste	choicePhaseStart	2	91	31	foodImage.74	FOODEEG_Images\0752.jpg	YN	Left	Yes	0.988162700086832	0	509832	253
996.7421875	0	taste	response	2	91	31	foodImage.74	FOODEEG_Images\0752.jpg	YN	Left	Yes	0.988162700086832	0	510333	234
997.783203125	1	health	trialStart	2	92	32	foodImage.28	FOODEEG_Images\0273.jpg	NY	Right	Yes	1.11472570011392	0	510866	251
998.822265625	2	health	foodImageDisplay	2	92	32	foodImage.28	FOODEEG_Images\0273.jpg	NY	Right	Yes	1.11472570011392	0	511398	252
1000.884765625	1.11472570011392	health	choicePhaseStart	2	92	32	foodImage.28	FOODEEG_Images\0273.jpg	NY	Right	Yes	1.11472570011392	0	512454	253
1001.990234375	0	health	response	2	92	32	foodImage.28	FOODEEG_Images\0273.jpg	NY	Right	Yes	1.11472570011392	0	513020	235
1003.03125	1	health	trialStart	2	93	33	foodImage.10	FOODEEG_Images\0145.jpg	NY	Left	No	1.08803870016709	0	513553	251
1004.087890625	2	health	foodImageDisplay	2	93	33	foodImage.10	FOODEEG_Images\0145.jpg	NY	Left	No	1.08803870016709	0	514094	252
1006.150390625	1.08803870016709	health	choicePhaseStart	2	93	33	foodImage.10	FOODEEG_Images\0145.jpg	NY	Left	No	1.08803870016709	0	515150	253
1007.23046875	0	health	response	2	93	33	foodImage.10	FOODEEG_Images\0145.jpg	NY	Left	No	1.08803870016709	0	515703	234
1008.2734375	1	health	trialStart	2	94	34	foodImage.79	FOODEEG_Images\0794.jpg	YN	Left	Yes	1.24895959999412	0	516237	251
1009.318359375	2	health	foodImageDisplay	2	94	34	foodImage.79	FOODEEG_Images\0794.jpg	YN	Left	Yes	1.24895959999412	0	516772	252
1011.380859375	1.24895959999412	health	choicePhaseStart	2	94	34	foodImage.79	FOODEEG_Images\0794.jpg	YN	Left	Yes	1.24895959999412	0	517828	253
1012.62109375	0	health	response	2	94	34	foodImage.79	FOODEEG_Images\0794.jpg	YN	Left	Yes	1.24895959999412	0	518463	234
1013.6640625	1	taste	trialStart	2	95	35	foodImage.34	FOODEEG_Images\0339.jpg	YN	Left	Yes	1.4840005999431	0	518997	251
1014.72265625	2	taste	foodImageDisplay	2	95	35	foodImage.34	FOODEEG_Images\0339.jpg	YN	Left	Yes	1.4840005999431	0	519539	252
1016.78515625	1.4840005999431	taste	choicePhaseStart	2	95	35	foodImage.34	FOODEEG_Images\0339.jpg	YN	Left	Yes	1.4840005999431	0	520595	253
1018.26171875	0	taste	response	2	95	35	foodImage.34	FOODEEG_Images\0339.jpg	YN	Left	Yes	1.4840005999431	0	521351	234
1019.3046875	1	health	trialStart	2	96	36	foodImage.103	FOODEEG_Images\0911.jpg	NY	Left	No	1.01721200020984	0	521885	251
1020.341796875	2	health	foodImageDisplay	2	96	36	foodImage.103	FOODEEG_Images\0911.jpg	NY	Left	No	1.01721200020984	0	522416	252
1022.404296875	1.01721200020984	health	choicePhaseStart	2	96	36	foodImage.103	FOODEEG_Images\0911.jpg	NY	Left	No	1.01721200020984	0	523472	253
1023.412109375	0	health	response	2	96	36	foodImage.103	FOODEEG_Images\0911.jpg	NY	Left	No	1.01721200020984	0	523988	234
1024.455078125	1	health	trialStart	2	97	37	foodImage.71	FOODEEG_Images\0713.jpg	NY	Left	No	1.50168470013887	0	524522	251
1025.498046875	2	health	foodImageDisplay	2	97	37	foodImage.71	FOODEEG_Images\0713.jpg	NY	Left	No	1.50168470013887	0	525056	252
1027.560546875	1.50168470013887	health	choicePhaseStart	2	97	37	foodImage.71	FOODEEG_Images\0713.jpg	NY	Left	No	1.50168470013887	0	526112	253
1029.052734375	0	health	response	2	97	37	foodImage.71	FOODEEG_Images\0713.jpg	NY	Left	No	1.50168470013887	0	526876	234
1030.09375	1	decision	trialStart	2	98	38	foodImage.73	FOODEEG_Images\0717.jpg	YN	Left	Yes	0.904354100115597	0	527409	251
1031.16015625	2	decision	foodImageDisplay	2	98	38	foodImage.73	FOODEEG_Images\0717.jpg	YN	Left	Yes	0.904354100115597	0	527955	252
1033.22265625	0.904354100115597	decision	choicePhaseStart	2	98	38	foodImage.73	FOODEEG_Images\0717.jpg	YN	Left	Yes	0.904354100115597	0	529011	253
1034.1171875	0	decision	response	2	98	38	foodImage.73	FOODEEG_Images\0717.jpg	YN	Left	Yes	0.904354100115597	0	529469	234
1035.162109375	1	health	trialStart	2	99	39	foodImage.7	FOODEEG_Images\0116.jpg	NY	Left	No	0.845668900292367	0	530004	251
1036.203125	2	health	foodImageDisplay	2	99	39	foodImage.7	FOODEEG_Images\0116.jpg	NY	Left	No	0.845668900292367	0	530537	252
1038.263671875	0.845668900292367	health	choicePhaseStart	2	99	39	foodImage.7	FOODEEG_Images\0116.jpg	NY	Left	No	0.845668900292367	0	531592	253
1039.099609375	0	health	response	2	99	39	foodImage.7	FOODEEG_Images\0116.jpg	NY	Left	No	0.845668900292367	0	532020	234
1040.140625	1	decision	trialStart	2	100	40	foodImage.74	FOODEEG_Images\0752.jpg	NY	Right	Yes	1.94330479996279	0	532553	251
1041.18359375	2	decision	foodImageDisplay	2	100	40	foodImage.74	FOODEEG_Images\0752.jpg	NY	Right	Yes	1.94330479996279	0	533087	252
1043.24609375	1.94330479996279	decision	choicePhaseStart	2	100	40	foodImage.74	FOODEEG_Images\0752.jpg	NY	Right	Yes	1.94330479996279	0	534143	253
1045.1796875	0	decision	response	2	100	40	foodImage.74	FOODEEG_Images\0752.jpg	NY	Right	Yes	1.94330479996279	0	535133	235
1046.220703125	1	taste	trialStart	2	101	41	foodImage.117	FOODEEG_Images\0925.jpg	YN	Left	Yes	1.25095620006323	0	535666	251
1047.259765625	2	taste	foodImageDisplay	2	101	41	foodImage.117	FOODEEG_Images\0925.jpg	YN	Left	Yes	1.25095620006323	0	536198	252
1049.322265625	1.25095620006323	taste	choicePhaseStart	2	101	41	foodImage.117	FOODEEG_Images\0925.jpg	YN	Left	Yes	1.25095620006323	0	537254	253
1050.564453125	0	taste	response	2	101	41	foodImage.117	FOODEEG_Images\0925.jpg	YN	Left	Yes	1.25095620006323	0	537890	234
1051.607421875	1	taste	trialStart	2	102	42	foodImage.64	FOODEEG_Images\0647.jpg	NY	Right	Yes	1.96714419964701	0	538424	251
1052.6640625	2	taste	foodImageDisplay	2	102	42	foodImage.64	FOODEEG_Images\0647.jpg	NY	Right	Yes	1.96714419964701	0	538965	252
1054.724609375	1.96714419964701	taste	choicePhaseStart	2	102	42	foodImage.64	FOODEEG_Images\0647.jpg	NY	Right	Yes	1.96714419964701	0	540020	253
1056.68359375	0	taste	response	2	102	42	foodImage.64	FOODEEG_Images\0647.jpg	NY	Right	Yes	1.96714419964701	0	541023	235
1057.7265625	1	health	trialStart	2	103	43	foodImage.30	FOODEEG_Images\0282.jpg	NY	Right	Yes	0.937122900038958	0	541557	251
1058.767578125	2	health	foodImageDisplay	2	103	43	foodImage.30	FOODEEG_Images\0282.jpg	NY	Right	Yes	0.937122900038958	0	542090	252
1060.8359375	0.937122900038958	health	choicePhaseStart	2	103	43	foodImage.30	FOODEEG_Images\0282.jpg	NY	Right	Yes	0.937122900038958	0	543149	253
1061.763671875	0	health	response	2	103	43	foodImage.30	FOODEEG_Images\0282.jpg	NY	Right	Yes	0.937122900038958	0	543624	235
1062.806640625	1	health	trialStart	2	104	44	foodImage.41	FOODEEG_Images\0409.jpg	NY	Right	Yes	0.794169100001454	0	544158	251
1063.8515625	2	health	foodImageDisplay	2	104	44	foodImage.41	FOODEEG_Images\0409.jpg	NY	Right	Yes	0.794169100001454	0	544693	252
1065.9140625	0.794169100001454	health	choicePhaseStart	2	104	44	foodImage.41	FOODEEG_Images\0409.jpg	NY	Right	Yes	0.794169100001454	0	545749	253
1066.69921875	0	health	response	2	104	44	foodImage.41	FOODEEG_Images\0409.jpg	NY	Right	Yes	0.794169100001454	0	546151	235
1067.7421875	1	decision	trialStart	2	105	45	foodImage.26	FOODEEG_Images\0262.jpg	YN	Left	Yes	2.01302010007203	0	546685	251
1068.783203125	2	decision	foodImageDisplay	2	105	45	foodImage.26	FOODEEG_Images\0262.jpg	YN	Left	Yes	2.01302010007203	0	547218	252
1070.84765625	2.01302010007203	decision	choicePhaseStart	2	105	45	foodImage.26	FOODEEG_Images\0262.jpg	YN	Left	Yes	2.01302010007203	0	548275	253
1072.8515625	0	decision	response	2	105	45	foodImage.26	FOODEEG_Images\0262.jpg	YN	Left	Yes	2.01302010007203	0	549301	234
1073.8984375	1	decision	trialStart	2	106	46	foodImage.98	FOODEEG_Images\0906.jpg	NY	Left	No	0.963924699928612	0	549837	251
1074.9375	2	decision	foodImageDisplay	2	106	46	foodImage.98	FOODEEG_Images\0906.jpg	NY	Left	No	0.963924699928612	0	550369	252
1077	0.963924699928612	decision	choicePhaseStart	2	106	46	foodImage.98	FOODEEG_Images\0906.jpg	NY	Left	No	0.963924699928612	0	551425	253
1077.955078125	0	decision	response	2	106	46	foodImage.98	FOODEEG_Images\0906.jpg	NY	Left	No	0.963924699928612	0	551914	234
1078.99609375	1	decision	trialStart	2	107	47	foodImage.23	FOODEEG_Images\0244.jpg	YN	Left	Yes	1.7980272998102	0	552447	251
1080.0390625	2	decision	foodImageDisplay	2	107	47	foodImage.23	FOODEEG_Images\0244.jpg	YN	Left	Yes	1.7980272998102	0	552981	252
1082.103515625	1.7980272998102	decision	choicePhaseStart	2	107	47	foodImage.23	FOODEEG_Images\0244.jpg	YN	Left	Yes	1.7980272998102	0	554038	253
1083.890625	0	decision	response	2	107	47	foodImage.23	FOODEEG_Images\0244.jpg	YN	Left	Yes	1.7980272998102	0	554953	234
1084.93359375	1	decision	trialStart	2	108	48	foodImage.12	FOODEEG_Images\0181.jpg	YN	Left	Yes	0.734483500011265	0	555487	251
1085.974609375	2	decision	foodImageDisplay	2	108	48	foodImage.12	FOODEEG_Images\0181.jpg	YN	Left	Yes	0.734483500011265	0	556020	252
1088.037109375	0.734483500011265	decision	choicePhaseStart	2	108	48	foodImage.12	FOODEEG_Images\0181.jpg	YN	Left	Yes	0.734483500011265	0	557076	253
1088.763671875	0	decision	response	2	108	48	foodImage.12	FOODEEG_Images\0181.jpg	YN	Left	Yes	0.734483500011265	0	557448	234
1089.8046875	1	taste	trialStart	2	109	49	foodImage.3	FOODEEG_Images\0046.jpg	YN	Left	Yes	1.46123130014166	0	557981	251
1090.853515625	2	taste	foodImageDisplay	2	109	49	foodImage.3	FOODEEG_Images\0046.jpg	YN	Left	Yes	1.46123130014166	0	558518	252
1092.916015625	1.46123130014166	taste	choicePhaseStart	2	109	49	foodImage.3	FOODEEG_Images\0046.jpg	YN	Left	Yes	1.46123130014166	0	559574	253
1094.37109375	0	taste	response	2	109	49	foodImage.3	FOODEEG_Images\0046.jpg	YN	Left	Yes	1.46123130014166	0	560319	234
1095.41015625	1	decision	trialStart	2	110	50	foodImage.88	FOODEEG_Images\0878.jpg	YN	Left	Yes	1.5249767000787	0	560851	251
1096.462890625	2	decision	foodImageDisplay	2	110	50	foodImage.88	FOODEEG_Images\0878.jpg	YN	Left	Yes	1.5249767000787	0	561390	252
1098.525390625	1.5249767000787	decision	choicePhaseStart	2	110	50	foodImage.88	FOODEEG_Images\0878.jpg	YN	Left	Yes	1.5249767000787	0	562446	253
1100.04296875	0	decision	response	2	110	50	foodImage.88	FOODEEG_Images\0878.jpg	YN	Left	Yes	1.5249767000787	0	563223	234
1101.083984375	1	decision	trialStart	2	111	51	foodImage.5	FOODEEG_Images\0107.jpg	NY	Right	Yes	2.28469779994339	0	563756	251
1102.142578125	2	decision	foodImageDisplay	2	111	51	foodImage.5	FOODEEG_Images\0107.jpg	NY	Right	Yes	2.28469779994339	0	564298	252
1104.205078125	2.28469779994339	decision	choicePhaseStart	2	111	51	foodImage.5	FOODEEG_Images\0107.jpg	NY	Right	Yes	2.28469779994339	0	565354	253
1106.482421875	0	decision	response	2	111	51	foodImage.5	FOODEEG_Images\0107.jpg	NY	Right	Yes	2.28469779994339	0	566520	235
1107.521484375	1	taste	trialStart	2	112	52	foodImage.46	FOODEEG_Images\0479.jpg	YN	Left	Yes	0.967804299667478	0	567052	251
1108.580078125	2	taste	foodImageDisplay	2	112	52	foodImage.46	FOODEEG_Images\0479.jpg	YN	Left	Yes	0.967804299667478	0	567594	252
1110.642578125	0.967804299667478	taste	choicePhaseStart	2	112	52	foodImage.46	FOODEEG_Images\0479.jpg	YN	Left	Yes	0.967804299667478	0	568650	253
1111.6015625	0	taste	response	2	112	52	foodImage.46	FOODEEG_Images\0479.jpg	YN	Left	Yes	0.967804299667478	0	569141	234
1112.64453125	1	health	trialStart	2	113	53	foodImage.17	FOODEEG_Images\0199.jpg	YN	Left	Yes	1.36714319977909	0	569675	251
1113.685546875	2	health	foodImageDisplay	2	113	53	foodImage.17	FOODEEG_Images\0199.jpg	YN	Left	Yes	1.36714319977909	0	570208	252
1115.748046875	1.36714319977909	health	choicePhaseStart	2	113	53	foodImage.17	FOODEEG_Images\0199.jpg	YN	Left	Yes	1.36714319977909	0	571264	253
1117.107421875	0	health	response	2	113	53	foodImage.17	FOODEEG_Images\0199.jpg	YN	Left	Yes	1.36714319977909	0	571960	234
1118.15234375	1	taste	trialStart	2	114	54	foodImage.35	FOODEEG_Images\0350.jpg	NY	Right	Yes	0.923574899788946	0	572495	251
1119.19140625	2	taste	foodImageDisplay	2	114	54	foodImage.35	FOODEEG_Images\0350.jpg	NY	Right	Yes	0.923574899788946	0	573027	252
1121.25390625	0.923574899788946	taste	choicePhaseStart	2	114	54	foodImage.35	FOODEEG_Images\0350.jpg	NY	Right	Yes	0.923574899788946	0	574083	253
1122.169921875	0	taste	response	2	114	54	foodImage.35	FOODEEG_Images\0350.jpg	NY	Right	Yes	0.923574899788946	0	574552	235
1123.2109375	1	taste	trialStart	2	115	55	foodImage.105	FOODEEG_Images\0913.jpg	NY	Right	Yes	2.24148310022429	0	575085	251
1124.25	2	taste	foodImageDisplay	2	115	55	foodImage.105	FOODEEG_Images\0913.jpg	NY	Right	Yes	2.24148310022429	0	575617	252
1126.3125	2.24148310022429	taste	choicePhaseStart	2	115	55	foodImage.105	FOODEEG_Images\0913.jpg	NY	Right	Yes	2.24148310022429	0	576673	253
1128.544921875	0	taste	response	2	115	55	foodImage.105	FOODEEG_Images\0913.jpg	NY	Right	Yes	2.24148310022429	0	577816	235
1129.587890625	1	taste	trialStart	2	116	56	foodImage.32	FOODEEG_Images\0319.jpg	YN	Left	Yes	0.917651599738747	0	578350	251
1130.62890625	2	taste	foodImageDisplay	2	116	56	foodImage.32	FOODEEG_Images\0319.jpg	YN	Left	Yes	0.917651599738747	0	578883	252
1132.693359375	0.917651599738747	taste	choicePhaseStart	2	116	56	foodImage.32	FOODEEG_Images\0319.jpg	YN	Left	Yes	0.917651599738747	0	579940	253
1133.6015625	0	taste	response	2	116	56	foodImage.32	FOODEEG_Images\0319.jpg	YN	Left	Yes	0.917651599738747	0	580405	234
1134.640625	1	decision	trialStart	2	117	57	foodImage.11	FOODEEG_Images\0180.jpg	NY	Right	Yes	1.69626350002363	0	580937	251
1135.68359375	2	decision	foodImageDisplay	2	117	57	foodImage.11	FOODEEG_Images\0180.jpg	NY	Right	Yes	1.69626350002363	0	581471	252
1137.74609375	1.69626350002363	decision	choicePhaseStart	2	117	57	foodImage.11	FOODEEG_Images\0180.jpg	NY	Right	Yes	1.69626350002363	0	582527	253
1139.431640625	0	decision	response	2	117	57	foodImage.11	FOODEEG_Images\0180.jpg	NY	Right	Yes	1.69626350002363	0	583390	235
1140.470703125	1	health	trialStart	2	118	58	foodImage.34	FOODEEG_Images\0339.jpg	NY	Left	No	2.55584760010242	0	583922	251
1141.525390625	2	health	foodImageDisplay	2	118	58	foodImage.34	FOODEEG_Images\0339.jpg	NY	Left	No	2.55584760010242	0	584462	252
1143.58984375	2.55584760010242	health	choicePhaseStart	2	118	58	foodImage.34	FOODEEG_Images\0339.jpg	NY	Left	No	2.55584760010242	0	585519	253
1146.13671875	0	health	response	2	118	58	foodImage.34	FOODEEG_Images\0339.jpg	NY	Left	No	2.55584760010242	0	586823	234
1147.1796875	1	health	trialStart	2	119	59	foodImage.67	FOODEEG_Images\0679.jpg	NY	Left	No	1.45258459961042	0	587357	251
1148.23828125	2	health	foodImageDisplay	2	119	59	foodImage.67	FOODEEG_Images\0679.jpg	NY	Left	No	1.45258459961042	0	587899	252
1150.30078125	1.45258459961042	health	choicePhaseStart	2	119	59	foodImage.67	FOODEEG_Images\0679.jpg	NY	Left	No	1.45258459961042	0	588955	253
1151.744140625	0	health	response	2	119	59	foodImage.67	FOODEEG_Images\0679.jpg	NY	Left	No	1.45258459961042	0	589694	234
1152.787109375	1	decision	trialStart	2	120	60	foodImage.42	FOODEEG_Images\0438.jpg	YN	Right	No	1.5513369999826	0	590228	251
1153.875	2	decision	foodImageDisplay	2	120	60	foodImage.42	FOODEEG_Images\0438.jpg	YN	Right	No	1.5513369999826	0	590785	252
1155.9375	1.5513369999826	decision	choicePhaseStart	2	120	60	foodImage.42	FOODEEG_Images\0438.jpg	YN	Right	No	1.5513369999826	0	591841	253
1157.48046875	0	decision	response	2	120	60	foodImage.42	FOODEEG_Images\0438.jpg	YN	Right	No	1.5513369999826	0	592631	235
1159.51953125	27.138671875	n/a	blockEnd	n/a	n/a	n/a	n/a	n/a	n/a	n/a	n/a	n/a	n/a	593675	254
1186.658203125	2	n/a	blockStart	3	n/a	n/a	n/a	n/a	n/a	n/a	n/a	n/a	n/a	607570	250
1188.689453125	1	decision	trialStart	3	121	1	foodImage.58	FOODEEG_Images\0605.jpg	NY	Left	No	0.848009900189936	0	608610	251
1189.744140625	2	decision	foodImageDisplay	3	121	1	foodImage.58	FOODEEG_Images\0605.jpg	NY	Left	No	0.848009900189936	0	609150	252
1191.80859375	0.848009900189936	decision	choicePhaseStart	3	121	1	foodImage.58	FOODEEG_Images\0605.jpg	NY	Left	No	0.848009900189936	0	610207	253
1192.646484375	0	decision	response	3	121	1	foodImage.58	FOODEEG_Images\0605.jpg	NY	Left	No	0.848009900189936	0	610636	234
1193.689453125	1	health	trialStart	3	122	2	foodImage.120	FOODEEG_Images\0928.jpg	NY	Left	No	1.09059779997915	0	611170	251
1194.7265625	2	health	foodImageDisplay	3	122	2	foodImage.120	FOODEEG_Images\0928.jpg	NY	Left	No	1.09059779997915	0	611701	252
1196.7890625	1.09059779997915	health	choicePhaseStart	3	122	2	foodImage.120	FOODEEG_Images\0928.jpg	NY	Left	No	1.09059779997915	0	612757	253
1197.87109375	0	health	response	3	122	2	foodImage.120	FOODEEG_Images\0928.jpg	NY	Left	No	1.09059779997915	0	613311	234
1198.912109375	1	decision	trialStart	3	123	3	foodImage.38	FOODEEG_Images\0365.jpg	YN	Left	Yes	0.930814000312239	0	613844	251
1199.951171875	2	decision	foodImageDisplay	3	123	3	foodImage.38	FOODEEG_Images\0365.jpg	YN	Left	Yes	0.930814000312239	0	614376	252
1202.01953125	0.930814000312239	decision	choicePhaseStart	3	123	3	foodImage.38	FOODEEG_Images\0365.jpg	YN	Left	Yes	0.930814000312239	0	615435	253
1202.94140625	0	decision	response	3	123	3	foodImage.38	FOODEEG_Images\0365.jpg	YN	Left	Yes	0.930814000312239	0	615907	234
1203.984375	1	health	trialStart	3	124	4	foodImage.1	FOODEEG_Images\0004.jpg	NY	Left	No	1.36521630035713	0	616441	251
1205.02734375	2	health	foodImageDisplay	3	124	4	foodImage.1	FOODEEG_Images\0004.jpg	NY	Left	No	1.36521630035713	0	616975	252
1207.08984375	1.36521630035713	health	choicePhaseStart	3	124	4	foodImage.1	FOODEEG_Images\0004.jpg	NY	Left	No	1.36521630035713	0	618031	253
1208.4453125	0	health	response	3	124	4	foodImage.1	FOODEEG_Images\0004.jpg	NY	Left	No	1.36521630035713	0	618725	234
1209.48828125	1	health	trialStart	3	125	5	foodImage.83	FOODEEG_Images\0827.jpg	NY	Right	Yes	0.791379800066352	0	619259	251
1210.544921875	2	health	foodImageDisplay	3	125	5	foodImage.83	FOODEEG_Images\0827.jpg	NY	Right	Yes	0.791379800066352	0	619800	252
1212.607421875	0.791379800066352	health	choicePhaseStart	3	125	5	foodImage.83	FOODEEG_Images\0827.jpg	NY	Right	Yes	0.791379800066352	0	620856	253
1213.390625	0	health	response	3	125	5	foodImage.83	FOODEEG_Images\0827.jpg	NY	Right	Yes	0.791379800066352	0	621257	235
1214.435546875	1	taste	trialStart	3	126	6	foodImage.80	FOODEEG_Images\0796.jpg	NY	Right	Yes	1.22638380015269	0	621792	251
1215.4921875	2	taste	foodImageDisplay	3	126	6	foodImage.80	FOODEEG_Images\0796.jpg	NY	Right	Yes	1.22638380015269	0	622333	252
1217.556640625	1.22638380015269	taste	choicePhaseStart	3	126	6	foodImage.80	FOODEEG_Images\0796.jpg	NY	Right	Yes	1.22638380015269	0	623390	253
1218.7734375	0	taste	response	3	126	6	foodImage.80	FOODEEG_Images\0796.jpg	NY	Right	Yes	1.22638380015269	0	624013	235
1219.8125	1	taste	trialStart	3	127	7	foodImage.72	FOODEEG_Images\0714.jpg	YN	Left	Yes	1.29794399999082	0	624545	251
1220.87890625	2	taste	foodImageDisplay	3	127	7	foodImage.72	FOODEEG_Images\0714.jpg	YN	Left	Yes	1.29794399999082	0	625091	252
1222.94140625	1.29794399999082	taste	choicePhaseStart	3	127	7	foodImage.72	FOODEEG_Images\0714.jpg	YN	Left	Yes	1.29794399999082	0	626147	253
1224.228515625	0	taste	response	3	127	7	foodImage.72	FOODEEG_Images\0714.jpg	YN	Left	Yes	1.29794399999082	0	626806	234
1225.27734375	1	taste	trialStart	3	128	8	foodImage.24	FOODEEG_Images\0250.jpg	NY	Left	No	1.73691460024565	0	627343	251
1226.3203125	2	taste	foodImageDisplay	3	128	8	foodImage.24	FOODEEG_Images\0250.jpg	NY	Left	No	1.73691460024565	0	627877	252
1228.380859375	1.73691460024565	taste	choicePhaseStart	3	128	8	foodImage.24	FOODEEG_Images\0250.jpg	NY	Left	No	1.73691460024565	0	628932	253
1230.109375	0	taste	response	3	128	8	foodImage.24	FOODEEG_Images\0250.jpg	NY	Left	No	1.73691460024565	0	629817	234
1231.15234375	1	health	trialStart	3	129	9	foodImage.45	FOODEEG_Images\0478.jpg	YN	Left	Yes	0.744905299972743	0	630351	251
1232.197265625	2	health	foodImageDisplay	3	129	9	foodImage.45	FOODEEG_Images\0478.jpg	YN	Left	Yes	0.744905299972743	0	630886	252
1234.26171875	0.744905299972743	health	choicePhaseStart	3	129	9	foodImage.45	FOODEEG_Images\0478.jpg	YN	Left	Yes	0.744905299972743	0	631943	253
1234.99609375	0	health	response	3	129	9	foodImage.45	FOODEEG_Images\0478.jpg	YN	Left	Yes	0.744905299972743	0	632319	234
1236.041015625	1	taste	trialStart	3	130	10	foodImage.78	FOODEEG_Images\0787.jpg	YN	Right	No	1.18726649973541	0	632854	251
1237.083984375	2	taste	foodImageDisplay	3	130	10	foodImage.78	FOODEEG_Images\0787.jpg	YN	Right	No	1.18726649973541	0	633388	252
1239.146484375	1.18726649973541	taste	choicePhaseStart	3	130	10	foodImage.78	FOODEEG_Images\0787.jpg	YN	Right	No	1.18726649973541	0	634444	253
1240.32421875	0	taste	response	3	130	10	foodImage.78	FOODEEG_Images\0787.jpg	YN	Right	No	1.18726649973541	0	635047	235
1241.3671875	1	health	trialStart	3	131	11	foodImage.29	FOODEEG_Images\0278.jpg	NY	Right	Yes	1.5084255002439	0	635581	251
1242.41015625	2	health	foodImageDisplay	3	131	11	foodImage.29	FOODEEG_Images\0278.jpg	NY	Right	Yes	1.5084255002439	0	636115	252
1244.47265625	1.5084255002439	health	choicePhaseStart	3	131	11	foodImage.29	FOODEEG_Images\0278.jpg	NY	Right	Yes	1.5084255002439	0	637171	253
1245.97265625	0	health	response	3	131	11	foodImage.29	FOODEEG_Images\0278.jpg	NY	Right	Yes	1.5084255002439	0	637939	235
1247.013671875	1	taste	trialStart	3	132	12	foodImage.114	FOODEEG_Images\0922.jpg	NY	Left	No	1.06657220004126	0	638472	251
1248.052734375	2	taste	foodImageDisplay	3	132	12	foodImage.114	FOODEEG_Images\0922.jpg	NY	Left	No	1.06657220004126	0	639004	252
1250.115234375	1.06657220004126	taste	choicePhaseStart	3	132	12	foodImage.114	FOODEEG_Images\0922.jpg	NY	Left	No	1.06657220004126	0	640060	253
1251.171875	0	taste	response	3	132	12	foodImage.114	FOODEEG_Images\0922.jpg	NY	Left	No	1.06657220004126	0	640601	234
1252.21484375	1	taste	trialStart	3	133	13	foodImage.68	FOODEEG_Images\0685.jpg	NY	Right	Yes	0.744479599874467	0	641135	251
1253.294921875	2	taste	foodImageDisplay	3	133	13	foodImage.68	FOODEEG_Images\0685.jpg	NY	Right	Yes	0.744479599874467	0	641688	252
1255.357421875	0.744479599874467	taste	choicePhaseStart	3	133	13	foodImage.68	FOODEEG_Images\0685.jpg	NY	Right	Yes	0.744479599874467	0	642744	253
1256.091796875	0	taste	response	3	133	13	foodImage.68	FOODEEG_Images\0685.jpg	NY	Right	Yes	0.744479599874467	0	643120	235
1257.134765625	1	taste	trialStart	3	134	14	foodImage.110	FOODEEG_Images\0918.jpg	YN	Right	No	0.888980600051582	0	643654	251
1258.173828125	2	taste	foodImageDisplay	3	134	14	foodImage.110	FOODEEG_Images\0918.jpg	YN	Right	No	0.888980600051582	0	644186	252
1260.234375	0.888980600051582	taste	choicePhaseStart	3	134	14	foodImage.110	FOODEEG_Images\0918.jpg	YN	Right	No	0.888980600051582	0	645241	253
1261.115234375	0	taste	response	3	134	14	foodImage.110	FOODEEG_Images\0918.jpg	YN	Right	No	0.888980600051582	0	645692	235
1262.16015625	1	taste	trialStart	3	135	15	foodImage.10	FOODEEG_Images\0145.jpg	NY	Right	Yes	0.751523400191218	0	646227	251
1263.216796875	2	taste	foodImageDisplay	3	135	15	foodImage.10	FOODEEG_Images\0145.jpg	NY	Right	Yes	0.751523400191218	0	646768	252
1265.27734375	0.751523400191218	taste	choicePhaseStart	3	135	15	foodImage.10	FOODEEG_Images\0145.jpg	NY	Right	Yes	0.751523400191218	0	647823	253
1266.021484375	0	taste	response	3	135	15	foodImage.10	FOODEEG_Images\0145.jpg	NY	Right	Yes	0.751523400191218	0	648204	235
1267.060546875	1	decision	trialStart	3	136	16	foodImage.64	FOODEEG_Images\0647.jpg	NY	Right	Yes	1.06319059990346	0	648736	251
1268.1171875	2	decision	foodImageDisplay	3	136	16	foodImage.64	FOODEEG_Images\0647.jpg	NY	Right	Yes	1.06319059990346	0	649277	252
1270.1796875	1.06319059990346	decision	choicePhaseStart	3	136	16	foodImage.64	FOODEEG_Images\0647.jpg	NY	Right	Yes	1.06319059990346	0	650333	253
1271.236328125	0	decision	response	3	136	16	foodImage.64	FOODEEG_Images\0647.jpg	NY	Right	Yes	1.06319059990346	0	650874	235
1272.28125	1	decision	trialStart	3	137	17	foodImage.110	FOODEEG_Images\0918.jpg	NY	Left	No	0.990179799962789	0	651409	251
1273.333984375	2	decision	foodImageDisplay	3	137	17	foodImage.110	FOODEEG_Images\0918.jpg	NY	Left	No	0.990179799962789	0	651948	252
1275.396484375	0.990179799962789	decision	choicePhaseStart	3	137	17	foodImage.110	FOODEEG_Images\0918.jpg	NY	Left	No	0.990179799962789	0	653004	253
1276.37890625	0	decision	response	3	137	17	foodImage.110	FOODEEG_Images\0918.jpg	NY	Left	No	0.990179799962789	0	653507	234
1277.421875	1	health	trialStart	3	138	18	foodImage.50	FOODEEG_Images\0529.jpg	YN	Left	Yes	0.750076999887824	0	654041	251
1278.478515625	2	health	foodImageDisplay	3	138	18	foodImage.50	FOODEEG_Images\0529.jpg	YN	Left	Yes	0.750076999887824	0	654582	252
1280.541015625	0.750076999887824	health	choicePhaseStart	3	138	18	foodImage.50	FOODEEG_Images\0529.jpg	YN	Left	Yes	0.750076999887824	0	655638	253
1281.283203125	0	health	response	3	138	18	foodImage.50	FOODEEG_Images\0529.jpg	YN	Left	Yes	0.750076999887824	0	656018	234
1282.326171875	1	health	trialStart	3	139	19	foodImage.104	FOODEEG_Images\0912.jpg	YN	Right	No	2.61112669995055	0	656552	251
1283.36328125	2	health	foodImageDisplay	3	139	19	foodImage.104	FOODEEG_Images\0912.jpg	YN	Right	No	2.61112669995055	0	657083	252
1285.42578125	2.61112669995055	health	choicePhaseStart	3	139	19	foodImage.104	FOODEEG_Images\0912.jpg	YN	Right	No	2.61112669995055	0	658139	253
1288.02734375	0	health	response	3	139	19	foodImage.104	FOODEEG_Images\0912.jpg	YN	Right	No	2.61112669995055	0	659471	235
1289.068359375	1	decision	trialStart	3	140	20	foodImage.83	FOODEEG_Images\0827.jpg	YN	Left	Yes	0.990913199726492	0	660004	251
1290.142578125	2	decision	foodImageDisplay	3	140	20	foodImage.83	FOODEEG_Images\0827.jpg	YN	Left	Yes	0.990913199726492	0	660554	252
1292.203125	0.990913199726492	decision	choicePhaseStart	3	140	20	foodImage.83	FOODEEG_Images\0827.jpg	YN	Left	Yes	0.990913199726492	0	661609	253
1293.1875	0	decision	response	3	140	20	foodImage.83	FOODEEG_Images\0827.jpg	YN	Left	Yes	0.990913199726492	0	662113	234
1294.23046875	1	decision	trialStart	3	141	21	foodImage.106	FOODEEG_Images\0914.jpg	YN	Left	Yes	0.29787759995088	0	662647	251
1295.283203125	2	decision	foodImageDisplay	3	141	21	foodImage.106	FOODEEG_Images\0914.jpg	YN	Left	Yes	0.29787759995088	0	663186	252
1297.345703125	0.29787759995088	decision	choicePhaseStart	3	141	21	foodImage.106	FOODEEG_Images\0914.jpg	YN	Left	Yes	0.29787759995088	0	664242	253
1297.634765625	0	decision	response	3	141	21	foodImage.106	FOODEEG_Images\0914.jpg	YN	Left	Yes	0.29787759995088	0	664390	234
1298.677734375	1	decision	trialStart	3	142	22	foodImage.44	FOODEEG_Images\0459.jpg	YN	Left	Yes	0.858293099794537	0	664924	251
1299.72265625	2	decision	foodImageDisplay	3	142	22	foodImage.44	FOODEEG_Images\0459.jpg	YN	Left	Yes	0.858293099794537	0	665459	252
1301.78515625	0.858293099794537	decision	choicePhaseStart	3	142	22	foodImage.44	FOODEEG_Images\0459.jpg	YN	Left	Yes	0.858293099794537	0	666515	253
1302.634765625	0	decision	response	3	142	22	foodImage.44	FOODEEG_Images\0459.jpg	YN	Left	Yes	0.858293099794537	0	666950	234
1303.677734375	1	decision	trialStart	3	143	23	foodImage.67	FOODEEG_Images\0679.jpg	YN	Left	Yes	0.365507300011814	0	667484	251
1304.736328125	2	decision	foodImageDisplay	3	143	23	foodImage.67	FOODEEG_Images\0679.jpg	YN	Left	Yes	0.365507300011814	0	668026	252
1306.796875	0.365507300011814	decision	choicePhaseStart	3	143	23	foodImage.67	FOODEEG_Images\0679.jpg	YN	Left	Yes	0.365507300011814	0	669081	253
1307.154296875	0	decision	response	3	143	23	foodImage.67	FOODEEG_Images\0679.jpg	YN	Left	Yes	0.365507300011814	0	669264	234
1308.193359375	1	decision	trialStart	3	144	24	foodImage.76	FOODEEG_Images\0766.jpg	NY	Right	Yes	1.03071510000154	0	669796	251
1309.23828125	2	decision	foodImageDisplay	3	144	24	foodImage.76	FOODEEG_Images\0766.jpg	NY	Right	Yes	1.03071510000154	0	670331	252
1311.30078125	1.03071510000154	decision	choicePhaseStart	3	144	24	foodImage.76	FOODEEG_Images\0766.jpg	NY	Right	Yes	1.03071510000154	0	671387	253
1312.322265625	0	decision	response	3	144	24	foodImage.76	FOODEEG_Images\0766.jpg	NY	Right	Yes	1.03071510000154	0	671910	235
1313.36328125	1	health	trialStart	3	145	25	foodImage.66	FOODEEG_Images\0676.jpg	YN	Right	No	1.08876029960811	0	672443	251
1314.404296875	2	health	foodImageDisplay	3	145	25	foodImage.66	FOODEEG_Images\0676.jpg	YN	Right	No	1.08876029960811	0	672976	252
1316.466796875	1.08876029960811	health	choicePhaseStart	3	145	25	foodImage.66	FOODEEG_Images\0676.jpg	YN	Right	No	1.08876029960811	0	674032	253
1317.546875	0	health	response	3	145	25	foodImage.66	FOODEEG_Images\0676.jpg	YN	Right	No	1.08876029960811	0	674585	235
1318.587890625	1	taste	trialStart	3	146	26	foodImage.48	FOODEEG_Images\0494.jpg	NY	Right	Yes	1.86318530002609	0	675118	251
1319.646484375	2	taste	foodImageDisplay	3	146	26	foodImage.48	FOODEEG_Images\0494.jpg	NY	Right	Yes	1.86318530002609	0	675660	252
1321.70703125	1.86318530002609	taste	choicePhaseStart	3	146	26	foodImage.48	FOODEEG_Images\0494.jpg	NY	Right	Yes	1.86318530002609	0	676715	253
1323.5625	0	taste	response	3	146	26	foodImage.48	FOODEEG_Images\0494.jpg	NY	Right	Yes	1.86318530002609	0	677665	235
1324.603515625	1	taste	trialStart	3	147	27	foodImage.82	FOODEEG_Images\0805.jpg	NY	Right	Yes	1.1137049999088	0	678198	251
1325.662109375	2	taste	foodImageDisplay	3	147	27	foodImage.82	FOODEEG_Images\0805.jpg	NY	Right	Yes	1.1137049999088	0	678740	252
1327.728515625	1.1137049999088	taste	choicePhaseStart	3	147	27	foodImage.82	FOODEEG_Images\0805.jpg	NY	Right	Yes	1.1137049999088	0	679798	253
1328.833984375	0	taste	response	3	147	27	foodImage.82	FOODEEG_Images\0805.jpg	NY	Right	Yes	1.1137049999088	0	680364	235
1329.876953125	1	decision	trialStart	3	148	28	foodImage.3	FOODEEG_Images\0046.jpg	YN	Left	Yes	0.820667299907655	0	680898	251
1330.919921875	2	decision	foodImageDisplay	3	148	28	foodImage.3	FOODEEG_Images\0046.jpg	YN	Left	Yes	0.820667299907655	0	681432	252
1332.982421875	0.820667299907655	decision	choicePhaseStart	3	148	28	foodImage.3	FOODEEG_Images\0046.jpg	YN	Left	Yes	0.820667299907655	0	682488	253
1333.79296875	0	decision	response	3	148	28	foodImage.3	FOODEEG_Images\0046.jpg	YN	Left	Yes	0.820667299907655	0	682903	234
1334.8359375	1	health	trialStart	3	149	29	foodImage.82	FOODEEG_Images\0805.jpg	NY	Right	Yes	0.613777300342917	0	683437	251
1335.892578125	2	health	foodImageDisplay	3	149	29	foodImage.82	FOODEEG_Images\0805.jpg	NY	Right	Yes	0.613777300342917	0	683978	252
1337.95703125	0.613777300342917	health	choicePhaseStart	3	149	29	foodImage.82	FOODEEG_Images\0805.jpg	NY	Right	Yes	0.613777300342917	0	685035	253
1338.560546875	0	health	response	3	149	29	foodImage.82	FOODEEG_Images\0805.jpg	NY	Right	Yes	0.613777300342917	0	685344	235
1339.603515625	1	health	trialStart	3	150	30	foodImage.94	FOODEEG_Images\0902.jpg	YN	Left	Yes	0.639419300016016	0	685878	251
1340.642578125	2	health	foodImageDisplay	3	150	30	foodImage.94	FOODEEG_Images\0902.jpg	YN	Left	Yes	0.639419300016016	0	686410	252
1342.705078125	0.639419300016016	health	choicePhaseStart	3	150	30	foodImage.94	FOODEEG_Images\0902.jpg	YN	Left	Yes	0.639419300016016	0	687466	253
1343.3359375	0	health	response	3	150	30	foodImage.94	FOODEEG_Images\0902.jpg	YN	Left	Yes	0.639419300016016	0	687789	234
1344.376953125	1	health	trialStart	3	151	31	foodImage.42	FOODEEG_Images\0438.jpg	YN	Right	No	0.734495299868286	0	688322	251
1345.4609375	2	health	foodImageDisplay	3	151	31	foodImage.42	FOODEEG_Images\0438.jpg	YN	Right	No	0.734495299868286	0	688877	252
1347.5234375	0.734495299868286	health	choicePhaseStart	3	151	31	foodImage.42	FOODEEG_Images\0438.jpg	YN	Right	No	0.734495299868286	0	689933	253
1348.248046875	0	health	response	3	151	31	foodImage.42	FOODEEG_Images\0438.jpg	YN	Right	No	0.734495299868286	0	690304	235
1349.291015625	1	health	trialStart	3	152	32	foodImage.64	FOODEEG_Images\0647.jpg	YN	Left	Yes	1.21650259988382	0	690838	251
1350.34765625	2	health	foodImageDisplay	3	152	32	foodImage.64	FOODEEG_Images\0647.jpg	YN	Left	Yes	1.21650259988382	0	691379	252
1352.41015625	1.21650259988382	health	choicePhaseStart	3	152	32	foodImage.64	FOODEEG_Images\0647.jpg	YN	Left	Yes	1.21650259988382	0	692435	253
1353.6171875	0	health	response	3	152	32	foodImage.64	FOODEEG_Images\0647.jpg	YN	Left	Yes	1.21650259988382	0	693053	234
1354.66015625	1	health	trialStart	3	153	33	foodImage.92	FOODEEG_Images\0900.jpg	YN	Right	No	0.971902700141072	0	693587	251
1355.708984375	2	health	foodImageDisplay	3	153	33	foodImage.92	FOODEEG_Images\0900.jpg	YN	Right	No	0.971902700141072	0	694124	252
1357.7734375	0.971902700141072	health	choicePhaseStart	3	153	33	foodImage.92	FOODEEG_Images\0900.jpg	YN	Right	No	0.971902700141072	0	695181	253
1358.736328125	0	health	response	3	153	33	foodImage.92	FOODEEG_Images\0900.jpg	YN	Right	No	0.971902700141072	0	695674	235
1359.779296875	1	taste	trialStart	3	154	34	foodImage.77	FOODEEG_Images\0771.jpg	YN	Left	Yes	1.46660319995135	0	696208	251
1360.830078125	2	taste	foodImageDisplay	3	154	34	foodImage.77	FOODEEG_Images\0771.jpg	YN	Left	Yes	1.46660319995135	0	696746	252
1362.892578125	1.46660319995135	taste	choicePhaseStart	3	154	34	foodImage.77	FOODEEG_Images\0771.jpg	YN	Left	Yes	1.46660319995135	0	697802	253
1364.3515625	0	taste	response	3	154	34	foodImage.77	FOODEEG_Images\0771.jpg	YN	Left	Yes	1.46660319995135	0	698549	234
1365.396484375	1	taste	trialStart	3	155	35	foodImage.91	FOODEEG_Images\0896.jpg	YN	Left	Yes	1.43158899992704	0	699084	251
1366.451171875	2	taste	foodImageDisplay	3	155	35	foodImage.91	FOODEEG_Images\0896.jpg	YN	Left	Yes	1.43158899992704	0	699624	252
1368.513671875	1.43158899992704	taste	choicePhaseStart	3	155	35	foodImage.91	FOODEEG_Images\0896.jpg	YN	Left	Yes	1.43158899992704	0	700680	253
1369.935546875	0	taste	response	3	155	35	foodImage.91	FOODEEG_Images\0896.jpg	YN	Left	Yes	1.43158899992704	0	701408	234
1370.98046875	1	taste	trialStart	3	156	36	foodImage.90	FOODEEG_Images\0890.jpg	NY	Right	Yes	1.44673349987715	0	701943	251
1372.03515625	2	taste	foodImageDisplay	3	156	36	foodImage.90	FOODEEG_Images\0890.jpg	NY	Right	Yes	1.44673349987715	0	702483	252
1374.09765625	1.44673349987715	taste	choicePhaseStart	3	156	36	foodImage.90	FOODEEG_Images\0890.jpg	NY	Right	Yes	1.44673349987715	0	703539	253
1375.53515625	0	taste	response	3	156	36	foodImage.90	FOODEEG_Images\0890.jpg	NY	Right	Yes	1.44673349987715	0	704275	235
1376.57421875	1	taste	trialStart	3	157	37	foodImage.62	FOODEEG_Images\0644.jpg	NY	Right	Yes	1.00898979976773	0	704807	251
1377.640625	2	taste	foodImageDisplay	3	157	37	foodImage.62	FOODEEG_Images\0644.jpg	NY	Right	Yes	1.00898979976773	0	705353	252
1379.703125	1.00898979976773	taste	choicePhaseStart	3	157	37	foodImage.62	FOODEEG_Images\0644.jpg	NY	Right	Yes	1.00898979976773	0	706409	253
1380.703125	0	taste	response	3	157	37	foodImage.62	FOODEEG_Images\0644.jpg	NY	Right	Yes	1.00898979976773	0	706921	235
1381.744140625	1	decision	trialStart	3	158	38	foodImage.118	FOODEEG_Images\0926.jpg	NY	Right	Yes	0.916387100238353	0	707454	251
1382.78125	2	decision	foodImageDisplay	3	158	38	foodImage.118	FOODEEG_Images\0926.jpg	NY	Right	Yes	0.916387100238353	0	707985	252
1384.84375	0.916387100238353	decision	choicePhaseStart	3	158	38	foodImage.118	FOODEEG_Images\0926.jpg	NY	Right	Yes	0.916387100238353	0	709041	253
1385.751953125	0	decision	response	3	158	38	foodImage.118	FOODEEG_Images\0926.jpg	NY	Right	Yes	0.916387100238353	0	709506	235
1386.79296875	1	decision	trialStart	3	159	39	foodImage.24	FOODEEG_Images\0250.jpg	YN	Right	No	1.21577579993755	0	710039	251
1387.833984375	2	decision	foodImageDisplay	3	159	39	foodImage.24	FOODEEG_Images\0250.jpg	YN	Right	No	1.21577579993755	0	710572	252
1389.896484375	1.21577579993755	decision	choicePhaseStart	3	159	39	foodImage.24	FOODEEG_Images\0250.jpg	YN	Right	No	1.21577579993755	0	711628	253
1391.103515625	0	decision	response	3	159	39	foodImage.24	FOODEEG_Images\0250.jpg	YN	Right	No	1.21577579993755	0	712246	235
1392.146484375	1	taste	trialStart	3	160	40	foodImage.1	FOODEEG_Images\0004.jpg	NY	Right	Yes	0.917960799764842	0	712780	251
1393.1875	2	taste	foodImageDisplay	3	160	40	foodImage.1	FOODEEG_Images\0004.jpg	NY	Right	Yes	0.917960799764842	0	713313	252
1395.25	0.917960799764842	taste	choicePhaseStart	3	160	40	foodImage.1	FOODEEG_Images\0004.jpg	NY	Right	Yes	0.917960799764842	0	714369	253
1396.158203125	0	taste	response	3	160	40	foodImage.1	FOODEEG_Images\0004.jpg	NY	Right	Yes	0.917960799764842	0	714834	235
1397.201171875	1	health	trialStart	3	161	41	foodImage.65	FOODEEG_Images\0658.jpg	YN	Left	Yes	1.58918610028923	0	715368	251
1398.244140625	2	health	foodImageDisplay	3	161	41	foodImage.65	FOODEEG_Images\0658.jpg	YN	Left	Yes	1.58918610028923	0	715902	252
1400.306640625	1.58918610028923	health	choicePhaseStart	3	161	41	foodImage.65	FOODEEG_Images\0658.jpg	YN	Left	Yes	1.58918610028923	0	716958	253
1401.88671875	0	health	response	3	161	41	foodImage.65	FOODEEG_Images\0658.jpg	YN	Left	Yes	1.58918610028923	0	717767	234
1402.9296875	1	health	trialStart	3	162	42	foodImage.11	FOODEEG_Images\0180.jpg	NY	Right	Yes	1.14890429982916	0	718301	251
1403.97265625	2	health	foodImageDisplay	3	162	42	foodImage.11	FOODEEG_Images\0180.jpg	NY	Right	Yes	1.14890429982916	0	718835	252
1406.033203125	1.14890429982916	health	choicePhaseStart	3	162	42	foodImage.11	FOODEEG_Images\0180.jpg	NY	Right	Yes	1.14890429982916	0	719890	253
1407.173828125	0	health	response	3	162	42	foodImage.11	FOODEEG_Images\0180.jpg	NY	Right	Yes	1.14890429982916	0	720474	235
1408.216796875	1	taste	trialStart	3	163	43	foodImage.25	FOODEEG_Images\0261.jpg	NY	Right	Yes	1.61244060005993	0	721008	251
1409.259765625	2	taste	foodImageDisplay	3	163	43	foodImage.25	FOODEEG_Images\0261.jpg	NY	Right	Yes	1.61244060005993	0	721542	252
1411.322265625	1.61244060005993	taste	choicePhaseStart	3	163	43	foodImage.25	FOODEEG_Images\0261.jpg	NY	Right	Yes	1.61244060005993	0	722598	253
1412.92578125	0	taste	response	3	163	43	foodImage.25	FOODEEG_Images\0261.jpg	NY	Right	Yes	1.61244060005993	0	723419	235
1413.966796875	1	taste	trialStart	3	164	44	foodImage.33	FOODEEG_Images\0329.jpg	YN	Left	Yes	2.2551625999622	0	723952	251
1415.0078125	2	taste	foodImageDisplay	3	164	44	foodImage.33	FOODEEG_Images\0329.jpg	YN	Left	Yes	2.2551625999622	0	724485	252
1417.0703125	2.2551625999622	taste	choicePhaseStart	3	164	44	foodImage.33	FOODEEG_Images\0329.jpg	YN	Left	Yes	2.2551625999622	0	725541	253
1419.318359375	0	taste	response	3	164	44	foodImage.33	FOODEEG_Images\0329.jpg	YN	Left	Yes	2.2551625999622	0	726692	234
1420.361328125	1	taste	trialStart	3	165	45	foodImage.57	FOODEEG_Images\0587.jpg	YN	Left	Yes	1.37682749982923	0	727226	251
1421.40625	2	taste	foodImageDisplay	3	165	45	foodImage.57	FOODEEG_Images\0587.jpg	YN	Left	Yes	1.37682749982923	0	727761	252
1423.470703125	1.37682749982923	taste	choicePhaseStart	3	165	45	foodImage.57	FOODEEG_Images\0587.jpg	YN	Left	Yes	1.37682749982923	0	728818	253
1424.837890625	0	taste	response	3	165	45	foodImage.57	FOODEEG_Images\0587.jpg	YN	Left	Yes	1.37682749982923	0	729518	234
1425.876953125	1	decision	trialStart	3	166	46	foodImage.108	FOODEEG_Images\0916.jpg	YN	Right	No	0.700910799670964	0	730050	251
1426.9140625	2	decision	foodImageDisplay	3	166	46	foodImage.108	FOODEEG_Images\0916.jpg	YN	Right	No	0.700910799670964	0	730581	252
1428.9765625	0.700910799670964	decision	choicePhaseStart	3	166	46	foodImage.108	FOODEEG_Images\0916.jpg	YN	Right	No	0.700910799670964	0	731637	253
1429.669921875	0	decision	response	3	166	46	foodImage.108	FOODEEG_Images\0916.jpg	YN	Right	No	0.700910799670964	0	731992	235
1430.712890625	1	taste	trialStart	3	167	47	foodImage.75	FOODEEG_Images\0763.jpg	NY	Right	Yes	0.876164000015706	0	732526	251
1431.763671875	2	taste	foodImageDisplay	3	167	47	foodImage.75	FOODEEG_Images\0763.jpg	NY	Right	Yes	0.876164000015706	0	733064	252
1433.826171875	0.876164000015706	taste	choicePhaseStart	3	167	47	foodImage.75	FOODEEG_Images\0763.jpg	NY	Right	Yes	0.876164000015706	0	734120	253
1434.693359375	0	taste	response	3	167	47	foodImage.75	FOODEEG_Images\0763.jpg	NY	Right	Yes	0.876164000015706	0	734564	235
1435.736328125	1	decision	trialStart	3	168	48	foodImage.56	FOODEEG_Images\0586.jpg	NY	Right	Yes	2.17798459995538	0	735098	251
1436.78125	2	decision	foodImageDisplay	3	168	48	foodImage.56	FOODEEG_Images\0586.jpg	NY	Right	Yes	2.17798459995538	0	735633	252
1438.84375	2.17798459995538	decision	choicePhaseStart	3	168	48	foodImage.56	FOODEEG_Images\0586.jpg	NY	Right	Yes	2.17798459995538	0	736689	253
1441.013671875	0	decision	response	3	168	48	foodImage.56	FOODEEG_Images\0586.jpg	NY	Right	Yes	2.17798459995538	0	737800	235
1442.0546875	1	health	trialStart	3	169	49	foodImage.53	FOODEEG_Images\0547.jpg	NY	Left	No	0.985694900155067	0	738333	251
1443.109375	2	health	foodImageDisplay	3	169	49	foodImage.53	FOODEEG_Images\0547.jpg	NY	Left	No	0.985694900155067	0	738873	252
1445.171875	0.985694900155067	health	choicePhaseStart	3	169	49	foodImage.53	FOODEEG_Images\0547.jpg	NY	Left	No	0.985694900155067	0	739929	253
1446.1484375	0	health	response	3	169	49	foodImage.53	FOODEEG_Images\0547.jpg	NY	Left	No	0.985694900155067	0	740429	234
1447.19140625	1	health	trialStart	3	170	50	foodImage.115	FOODEEG_Images\0923.jpg	NY	Left	No	1.23934620013461	0	740963	251
1448.23046875	2	health	foodImageDisplay	3	170	50	foodImage.115	FOODEEG_Images\0923.jpg	NY	Left	No	1.23934620013461	0	741495	252
1450.29296875	1.23934620013461	health	choicePhaseStart	3	170	50	foodImage.115	FOODEEG_Images\0923.jpg	NY	Left	No	1.23934620013461	0	742551	253
1451.525390625	0	health	response	3	170	50	foodImage.115	FOODEEG_Images\0923.jpg	NY	Left	No	1.23934620013461	0	743182	234
1452.568359375	1	health	trialStart	3	171	51	foodImage.63	FOODEEG_Images\0645.jpg	YN	Left	Yes	1.42268379963934	0	743716	251
1453.607421875	2	health	foodImageDisplay	3	171	51	foodImage.63	FOODEEG_Images\0645.jpg	YN	Left	Yes	1.42268379963934	0	744248	252
1455.669921875	1.42268379963934	health	choicePhaseStart	3	171	51	foodImage.63	FOODEEG_Images\0645.jpg	YN	Left	Yes	1.42268379963934	0	745304	253
1457.083984375	0	health	response	3	171	51	foodImage.63	FOODEEG_Images\0645.jpg	YN	Left	Yes	1.42268379963934	0	746028	234
1458.126953125	1	health	trialStart	3	172	52	foodImage.23	FOODEEG_Images\0244.jpg	NY	Left	No	1.20033020013943	0	746562	251
1459.16796875	2	health	foodImageDisplay	3	172	52	foodImage.23	FOODEEG_Images\0244.jpg	NY	Left	No	1.20033020013943	0	747095	252
1461.228515625	1.20033020013943	health	choicePhaseStart	3	172	52	foodImage.23	FOODEEG_Images\0244.jpg	NY	Left	No	1.20033020013943	0	748150	253
1462.419921875	0	health	response	3	172	52	foodImage.23	FOODEEG_Images\0244.jpg	NY	Left	No	1.20033020013943	0	748760	234
1463.462890625	1	health	trialStart	3	173	53	foodImage.117	FOODEEG_Images\0925.jpg	YN	Right	No	1.42695689992979	0	749294	251
1464.5	2	health	foodImageDisplay	3	173	53	foodImage.117	FOODEEG_Images\0925.jpg	YN	Right	No	1.42695689992979	0	749825	252
1466.564453125	1.42695689992979	health	choicePhaseStart	3	173	53	foodImage.117	FOODEEG_Images\0925.jpg	YN	Right	No	1.42695689992979	0	750882	253
1467.98046875	0	health	response	3	173	53	foodImage.117	FOODEEG_Images\0925.jpg	YN	Right	No	1.42695689992979	0	751607	235
1469.021484375	1	decision	trialStart	3	174	54	foodImage.15	FOODEEG_Images\0189.jpg	NY	Right	Yes	2.06554410001263	0	752140	251
1470.078125	2	decision	foodImageDisplay	3	174	54	foodImage.15	FOODEEG_Images\0189.jpg	NY	Right	Yes	2.06554410001263	0	752681	252
1472.138671875	2.06554410001263	decision	choicePhaseStart	3	174	54	foodImage.15	FOODEEG_Images\0189.jpg	NY	Right	Yes	2.06554410001263	0	753736	253
1474.1953125	0	decision	response	3	174	54	foodImage.15	FOODEEG_Images\0189.jpg	NY	Right	Yes	2.06554410001263	0	754789	235
1475.23828125	1	taste	trialStart	3	175	55	foodImage.47	FOODEEG_Images\0488.jpg	YN	Left	Yes	1.29478369979188	0	755323	251
1476.279296875	2	taste	foodImageDisplay	3	175	55	foodImage.47	FOODEEG_Images\0488.jpg	YN	Left	Yes	1.29478369979188	0	755856	252
1478.341796875	1.29478369979188	taste	choicePhaseStart	3	175	55	foodImage.47	FOODEEG_Images\0488.jpg	YN	Left	Yes	1.29478369979188	0	756912	253
1479.626953125	0	taste	response	3	175	55	foodImage.47	FOODEEG_Images\0488.jpg	YN	Left	Yes	1.29478369979188	0	757570	234
1480.669921875	1	taste	trialStart	3	176	56	foodImage.54	FOODEEG_Images\0560.jpg	NY	Right	Yes	1.39232479967177	0	758104	251
1481.7265625	2	taste	foodImageDisplay	3	176	56	foodImage.54	FOODEEG_Images\0560.jpg	NY	Right	Yes	1.39232479967177	0	758645	252
1483.7890625	1.39232479967177	taste	choicePhaseStart	3	176	56	foodImage.54	FOODEEG_Images\0560.jpg	NY	Right	Yes	1.39232479967177	0	759701	253
1485.171875	0	taste	response	3	176	56	foodImage.54	FOODEEG_Images\0560.jpg	NY	Right	Yes	1.39232479967177	0	760409	235
1486.212890625	1	taste	trialStart	3	177	57	foodImage.89	FOODEEG_Images\0881.jpg	NY	Right	Yes	1.59517370024696	0	760942	251
1487.267578125	2	taste	foodImageDisplay	3	177	57	foodImage.89	FOODEEG_Images\0881.jpg	NY	Right	Yes	1.59517370024696	0	761482	252
1489.330078125	1.59517370024696	taste	choicePhaseStart	3	177	57	foodImage.89	FOODEEG_Images\0881.jpg	NY	Right	Yes	1.59517370024696	0	762538	253
1490.916015625	0	taste	response	3	177	57	foodImage.89	FOODEEG_Images\0881.jpg	NY	Right	Yes	1.59517370024696	0	763350	235
1491.958984375	1	decision	trialStart	3	178	58	foodImage.59	FOODEEG_Images\0607.jpg	NY	Right	Yes	1.3132036998868	0	763884	251
1493.005859375	2	decision	foodImageDisplay	3	178	58	foodImage.59	FOODEEG_Images\0607.jpg	NY	Right	Yes	1.3132036998868	0	764420	252
1495.06640625	1.3132036998868	decision	choicePhaseStart	3	178	58	foodImage.59	FOODEEG_Images\0607.jpg	NY	Right	Yes	1.3132036998868	0	765475	253
1496.37109375	0	decision	response	3	178	58	foodImage.59	FOODEEG_Images\0607.jpg	NY	Right	Yes	1.3132036998868	0	766143	235
1497.421875	1	taste	trialStart	3	179	59	foodImage.65	FOODEEG_Images\0658.jpg	NY	Right	Yes	2.51381909986958	0	766681	251
1498.482421875	2	taste	foodImageDisplay	3	179	59	foodImage.65	FOODEEG_Images\0658.jpg	NY	Right	Yes	2.51381909986958	0	767224	252
1500.544921875	2.51381909986958	taste	choicePhaseStart	3	179	59	foodImage.65	FOODEEG_Images\0658.jpg	NY	Right	Yes	2.51381909986958	0	768280	253
1503.05078125	0	taste	response	3	179	59	foodImage.65	FOODEEG_Images\0658.jpg	NY	Right	Yes	2.51381909986958	0	769563	235
1504.09375	1	decision	trialStart	3	180	60	foodImage.95	FOODEEG_Images\0903.jpg	NY	Left	No	0.80731049971655	0	770097	251
1505.1328125	2	decision	foodImageDisplay	3	180	60	foodImage.95	FOODEEG_Images\0903.jpg	NY	Left	No	0.80731049971655	0	770629	252
1507.1953125	0.80731049971655	decision	choicePhaseStart	3	180	60	foodImage.95	FOODEEG_Images\0903.jpg	NY	Left	No	0.80731049971655	0	771685	253
1507.994140625	0	decision	response	3	180	60	foodImage.95	FOODEEG_Images\0903.jpg	NY	Left	No	0.80731049971655	0	772094	234
1510.0390625	33.01171875	n/a	blockEnd	n/a	n/a	n/a	n/a	n/a	n/a	n/a	n/a	n/a	n/a	773141	254
1543.05078125	2	n/a	blockStart	4	n/a	n/a	n/a	n/a	n/a	n/a	n/a	n/a	n/a	790043	250
1545.08984375	1	health	trialStart	4	181	1	foodImage.14	FOODEEG_Images\0188.jpg	NY	Left	No	1.17884070007131	0	791087	251
1546.15234375	2	health	foodImageDisplay	4	181	1	foodImage.14	FOODEEG_Images\0188.jpg	NY	Left	No	1.17884070007131	0	791631	252
1548.21484375	1.17884070007131	health	choicePhaseStart	4	181	1	foodImage.14	FOODEEG_Images\0188.jpg	NY	Left	No	1.17884070007131	0	792687	253
1549.384765625	0	health	response	4	181	1	foodImage.14	FOODEEG_Images\0188.jpg	NY	Left	No	1.17884070007131	0	793286	234
1550.427734375	1	taste	trialStart	4	182	2	foodImage.31	FOODEEG_Images\0294.jpg	YN	Left	Yes	0.897424099966884	0	793820	251
1551.466796875	2	taste	foodImageDisplay	4	182	2	foodImage.31	FOODEEG_Images\0294.jpg	YN	Left	Yes	0.897424099966884	0	794352	252
1553.529296875	0.897424099966884	taste	choicePhaseStart	4	182	2	foodImage.31	FOODEEG_Images\0294.jpg	YN	Left	Yes	0.897424099966884	0	795408	253
1554.416015625	0	taste	response	4	182	2	foodImage.31	FOODEEG_Images\0294.jpg	YN	Left	Yes	0.897424099966884	0	795862	234
1555.4609375	1	decision	trialStart	4	183	3	foodImage.65	FOODEEG_Images\0658.jpg	YN	Left	Yes	0.69506479986012	0	796397	251
1556.5	2	decision	foodImageDisplay	4	183	3	foodImage.65	FOODEEG_Images\0658.jpg	YN	Left	Yes	0.69506479986012	0	796929	252
1558.5625	0.69506479986012	decision	choicePhaseStart	4	183	3	foodImage.65	FOODEEG_Images\0658.jpg	YN	Left	Yes	0.69506479986012	0	797985	253
1559.248046875	0	decision	response	4	183	3	foodImage.65	FOODEEG_Images\0658.jpg	YN	Left	Yes	0.69506479986012	0	798336	234
1560.291015625	1	taste	trialStart	4	184	4	foodImage.37	FOODEEG_Images\0359.jpg	YN	Right	No	1.18136340007186	0	798870	251
1561.333984375	2	taste	foodImageDisplay	4	184	4	foodImage.37	FOODEEG_Images\0359.jpg	YN	Right	No	1.18136340007186	0	799404	252
1563.396484375	1.18136340007186	taste	choicePhaseStart	4	184	4	foodImage.37	FOODEEG_Images\0359.jpg	YN	Right	No	1.18136340007186	0	800460	253
1564.568359375	0	taste	response	4	184	4	foodImage.37	FOODEEG_Images\0359.jpg	YN	Right	No	1.18136340007186	0	801060	235
1565.607421875	1	decision	trialStart	4	185	5	foodImage.82	FOODEEG_Images\0805.jpg	YN	Left	Yes	1.00592519994825	0	801592	251
1566.66015625	2	decision	foodImageDisplay	4	185	5	foodImage.82	FOODEEG_Images\0805.jpg	YN	Left	Yes	1.00592519994825	0	802131	252
1568.72265625	1.00592519994825	decision	choicePhaseStart	4	185	5	foodImage.82	FOODEEG_Images\0805.jpg	YN	Left	Yes	1.00592519994825	0	803187	253
1569.720703125	0	decision	response	4	185	5	foodImage.82	FOODEEG_Images\0805.jpg	YN	Left	Yes	1.00592519994825	0	803698	234
1570.759765625	1	decision	trialStart	4	186	6	foodImage.46	FOODEEG_Images\0479.jpg	NY	Right	Yes	1.22761090006679	0	804230	251
1571.814453125	2	decision	foodImageDisplay	4	186	6	foodImage.46	FOODEEG_Images\0479.jpg	NY	Right	Yes	1.22761090006679	0	804770	252
1573.876953125	1.22761090006679	decision	choicePhaseStart	4	186	6	foodImage.46	FOODEEG_Images\0479.jpg	NY	Right	Yes	1.22761090006679	0	805826	253
1575.095703125	0	decision	response	4	186	6	foodImage.46	FOODEEG_Images\0479.jpg	NY	Right	Yes	1.22761090006679	0	806450	235
1576.138671875	1	health	trialStart	4	187	7	foodImage.106	FOODEEG_Images\0914.jpg	NY	Left	No	1.21721110027283	0	806984	251
1577.177734375	2	health	foodImageDisplay	4	187	7	foodImage.106	FOODEEG_Images\0914.jpg	NY	Left	No	1.21721110027283	0	807516	252
1579.240234375	1.21721110027283	health	choicePhaseStart	4	187	7	foodImage.106	FOODEEG_Images\0914.jpg	NY	Left	No	1.21721110027283	0	808572	253
1580.447265625	0	health	response	4	187	7	foodImage.106	FOODEEG_Images\0914.jpg	NY	Left	No	1.21721110027283	0	809190	234
1581.490234375	1	health	trialStart	4	188	8	foodImage.55	FOODEEG_Images\0567.jpg	YN	Left	Yes	0.655772799625993	0	809724	251
1582.546875	2	health	foodImageDisplay	4	188	8	foodImage.55	FOODEEG_Images\0567.jpg	YN	Left	Yes	0.655772799625993	0	810265	252
1584.609375	0.655772799625993	health	choicePhaseStart	4	188	8	foodImage.55	FOODEEG_Images\0567.jpg	YN	Left	Yes	0.655772799625993	0	811321	253
1585.255859375	0	health	response	4	188	8	foodImage.55	FOODEEG_Images\0567.jpg	YN	Left	Yes	0.655772799625993	0	811652	234
1586.298828125	1	decision	trialStart	4	189	9	foodImage.18	FOODEEG_Images\0202.jpg	YN	Left	Yes	0.859889199957252	0	812186	251
1587.359375	2	decision	foodImageDisplay	4	189	9	foodImage.18	FOODEEG_Images\0202.jpg	YN	Left	Yes	0.859889199957252	0	812729	252
1589.419921875	0.859889199957252	decision	choicePhaseStart	4	189	9	foodImage.18	FOODEEG_Images\0202.jpg	YN	Left	Yes	0.859889199957252	0	813784	253
1590.271484375	0	decision	response	4	189	9	foodImage.18	FOODEEG_Images\0202.jpg	YN	Left	Yes	0.859889199957252	0	814220	234
1591.314453125	1	health	trialStart	4	190	10	foodImage.74	FOODEEG_Images\0752.jpg	YN	Left	Yes	0.703106500208378	0	814754	251
1592.37109375	2	health	foodImageDisplay	4	190	10	foodImage.74	FOODEEG_Images\0752.jpg	YN	Left	Yes	0.703106500208378	0	815295	252
1594.431640625	0.703106500208378	health	choicePhaseStart	4	190	10	foodImage.74	FOODEEG_Images\0752.jpg	YN	Left	Yes	0.703106500208378	0	816350	253
1595.126953125	0	health	response	4	190	10	foodImage.74	FOODEEG_Images\0752.jpg	YN	Left	Yes	0.703106500208378	0	816706	234
1596.169921875	1	decision	trialStart	4	191	11	foodImage.107	FOODEEG_Images\0915.jpg	NY	Left	No	0.896233200095594	0	817240	251
1597.208984375	2	decision	foodImageDisplay	4	191	11	foodImage.107	FOODEEG_Images\0915.jpg	NY	Left	No	0.896233200095594	0	817772	252
1599.271484375	0.896233200095594	decision	choicePhaseStart	4	191	11	foodImage.107	FOODEEG_Images\0915.jpg	NY	Left	No	0.896233200095594	0	818828	253
1600.158203125	0	decision	response	4	191	11	foodImage.107	FOODEEG_Images\0915.jpg	NY	Left	No	0.896233200095594	0	819282	234
1601.201171875	1	decision	trialStart	4	192	12	foodImage.93	FOODEEG_Images\0901.jpg	YN	Left	Yes	1.01536979991943	0	819816	251
1602.240234375	2	decision	foodImageDisplay	4	192	12	foodImage.93	FOODEEG_Images\0901.jpg	YN	Left	Yes	1.01536979991943	0	820348	252
1604.302734375	1.01536979991943	decision	choicePhaseStart	4	192	12	foodImage.93	FOODEEG_Images\0901.jpg	YN	Left	Yes	1.01536979991943	0	821404	253
1605.310546875	0	decision	response	4	192	12	foodImage.93	FOODEEG_Images\0901.jpg	YN	Left	Yes	1.01536979991943	0	821920	234
1606.353515625	1	health	trialStart	4	193	13	foodImage.51	FOODEEG_Images\0536.jpg	YN	Right	No	1.15287839993834	0	822454	251
