onset	duration	trial_type	event_type	block	trial_total	trial_in_block	food_image_code	food_image_path	button_position	resp_position	resp_choice	choice_rt	resp_too_slow	sample	trigger
290.166015625	2	n/a	blockStart	1	n/a	n/a	n/a	n/a	n/a	n/a	n/a	n/a	n/a	148566	250
292.203125	1	health	trialStart	1	1	1	foodImage.90	FOODEEG_Images\0890.jpg	YN	Left	Yes	1.08922330010682	0	149609	251
293.26171875	2	health	foodImageDisplay	1	1	1	foodImage.90	FOODEEG_Images\0890.jpg	YN	Left	Yes	1.08922330010682	0	150151	252
295.328125	1.08922330010682	health	choicePhaseStart	1	1	1	foodImage.90	FOODEEG_Images\0890.jpg	YN	Left	Yes	1.08922330010682	0	151209	253
296.408203125	0	health	response	1	1	1	foodImage.90	FOODEEG_Images\0890.jpg	YN	Left	Yes	1.08922330010682	0	151762	234
297.498046875	1	decision	trialStart	1	2	2	foodImage.93	FOODEEG_Images\0901.jpg	YN	Right	No	1.07792809978127	0	152320	251
298.5390625	2	decision	foodImageDisplay	1	2	2	foodImage.93	FOODEEG_Images\0901.jpg	YN	Right	No	1.07792809978127	0	152853	252
300.6015625	1.07792809978127	decision	choicePhaseStart	1	2	2	foodImage.93	FOODEEG_Images\0901.jpg	YN	Right	No	1.07792809978127	0	153909	253
301.671875	0	decision	response	1	2	2	foodImage.93	FOODEEG_Images\0901.jpg	YN	Right	No	1.07792809978127	0	154457	235
302.728515625	1	decision	trialStart	1	3	3	foodImage.44	FOODEEG_Images\0459.jpg	NY	Right	Yes	1.23478029994294	0	154998	251
303.7734375	2	decision	foodImageDisplay	1	3	3	foodImage.44	FOODEEG_Images\0459.jpg	NY	Right	Yes	1.23478029994294	0	155533	252
305.8359375	1.23478029994294	decision	choicePhaseStart	1	3	3	foodImage.44	FOODEEG_Images\0459.jpg	NY	Right	Yes	1.23478029994294	0	156589	253
307.064453125	0	decision	response	1	3	3	foodImage.44	FOODEEG_Images\0459.jpg	NY	Right	Yes	1.23478029994294	0	157218	235
308.109375	1	taste	trialStart	1	4	4	foodImage.2	FOODEEG_Images\0028.jpg	YN	Left	Yes	0.808528999798	0	157753	251
309.150390625	2	taste	foodImageDisplay	1	4	4	foodImage.2	FOODEEG_Images\0028.jpg	YN	Left	Yes	0.808528999798	0	158286	252
311.21484375	0.808528999798	taste	choicePhaseStart	1	4	4	foodImage.2	FOODEEG_Images\0028.jpg	YN	Left	Yes	0.808528999798	0	159343	253
312.015625	0	taste	response	1	4	4	foodImage.2	FOODEEG_Images\0028.jpg	YN	Left	Yes	0.808528999798	0	159753	234
313.05859375	1	health	trialStart	1	5	5	foodImage.38	FOODEEG_Images\0365.jpg	NY	Right	Yes	0.760989299975336	0	160287	251
314.1015625	2	health	foodImageDisplay	1	5	5	foodImage.38	FOODEEG_Images\0365.jpg	NY	Right	Yes	0.760989299975336	0	160821	252
316.16796875	0.760989299975336	health	choicePhaseStart	1	5	5	foodImage.38	FOODEEG_Images\0365.jpg	NY	Right	Yes	0.760989299975336	0	161879	253
316.919921875	0	health	response	1	5	5	foodImage.38	FOODEEG_Images\0365.jpg	NY	Right	Yes	0.760989299975336	0	162264	235
317.97265625	1	decision	trialStart	1	6	6	foodImage.19	FOODEEG_Images\0225.jpg	NY	Right	Yes	0.791232099756598	0	162803	251
319.017578125	2	decision	foodImageDisplay	1	6	6	foodImage.19	FOODEEG_Images\0225.jpg	NY	Right	Yes	0.791232099756598	0	163338	252
321.080078125	0.791232099756598	decision	choicePhaseStart	1	6	6	foodImage.19	FOODEEG_Images\0225.jpg	NY	Right	Yes	0.791232099756598	0	164394	253
321.86328125	0	decision	response	1	6	6	foodImage.19	FOODEEG_Images\0225.jpg	NY	Right	Yes	0.791232099756598	0	164795	235
322.908203125	1	health	trialStart	1	7	7	foodImage.17	FOODEEG_Images\0199.jpg	YN	Left	Yes	1.99553970014676	0	165330	251
323.947265625	2	health	foodImageDisplay	1	7	7	foodImage.17	FOODEEG_Images\0199.jpg	YN	Left	Yes	1.99553970014676	0	165862	252
326.01171875	1.99553970014676	health	choicePhaseStart	1	7	7	foodImage.17	FOODEEG_Images\0199.jpg	YN	Left	Yes	1.99553970014676	0	166919	253
328	0	health	response	1	7	7	foodImage.17	FOODEEG_Images\0199.jpg	YN	Left	Yes	1.99553970014676	0	167937	234
329.044921875	1	taste	trialStart	1	8	8	foodImage.20	FOODEEG_Images\0226.jpg	NY	Right	Yes	1.26097339997068	0	168472	251
330.087890625	2	taste	foodImageDisplay	1	8	8	foodImage.20	FOODEEG_Images\0226.jpg	NY	Right	Yes	1.26097339997068	0	169006	252
332.154296875	1.26097339997068	taste	choicePhaseStart	1	8	8	foodImage.20	FOODEEG_Images\0226.jpg	NY	Right	Yes	1.26097339997068	0	170064	253
333.408203125	0	taste	response	1	8	8	foodImage.20	FOODEEG_Images\0226.jpg	NY	Right	Yes	1.26097339997068	0	170706	235
334.451171875	1	taste	trialStart	1	9	9	foodImage.34	FOODEEG_Images\0339.jpg	YN	Left	Yes	0.926480200141668	0	171240	251
335.51171875	2	taste	foodImageDisplay	1	9	9	foodImage.34	FOODEEG_Images\0339.jpg	YN	Left	Yes	0.926480200141668	0	171783	252
337.57421875	0.926480200141668	taste	choicePhaseStart	1	9	9	foodImage.34	FOODEEG_Images\0339.jpg	YN	Left	Yes	0.926480200141668	0	172839	253
338.494140625	0	taste	response	1	9	9	foodImage.34	FOODEEG_Images\0339.jpg	YN	Left	Yes	0.926480200141668	0	173310	234
339.5390625	1	health	trialStart	1	10	10	foodImage.51	FOODEEG_Images\0536.jpg	NY	Left	No	1.11129050003365	0	173845	251
340.58203125	2	health	foodImageDisplay	1	10	10	foodImage.51	FOODEEG_Images\0536.jpg	NY	Left	No	1.11129050003365	0	174379	252
342.64453125	1.11129050003365	health	choicePhaseStart	1	10	10	foodImage.51	FOODEEG_Images\0536.jpg	NY	Left	No	1.11129050003365	0	175435	253
343.751953125	0	health	response	1	10	10	foodImage.51	FOODEEG_Images\0536.jpg	NY	Left	No	1.11129050003365	0	176002	234
344.794921875	1	taste	trialStart	1	11	11	foodImage.41	FOODEEG_Images\0409.jpg	NY	Right	Yes	0.83273239992559	0	176536	251
345.853515625	2	taste	foodImageDisplay	1	11	11	foodImage.41	FOODEEG_Images\0409.jpg	NY	Right	Yes	0.83273239992559	0	177078	252
347.91796875	0.83273239992559	taste	choicePhaseStart	1	11	11	foodImage.41	FOODEEG_Images\0409.jpg	NY	Right	Yes	0.83273239992559	0	178135	253
348.7421875	0	taste	response	1	11	11	foodImage.41	FOODEEG_Images\0409.jpg	NY	Right	Yes	0.83273239992559	0	178557	235
349.78515625	1	health	trialStart	1	12	12	foodImage.80	FOODEEG_Images\0796.jpg	NY	Right	Yes	0.707471899688244	0	179091	251
350.8515625	2	health	foodImageDisplay	1	12	12	foodImage.80	FOODEEG_Images\0796.jpg	NY	Right	Yes	0.707471899688244	0	179637	252
352.916015625	0.707471899688244	health	choicePhaseStart	1	12	12	foodImage.80	FOODEEG_Images\0796.jpg	NY	Right	Yes	0.707471899688244	0	180694	253
353.61328125	0	health	response	1	12	12	foodImage.80	FOODEEG_Images\0796.jpg	NY	Right	Yes	0.707471899688244	0	181051	235
354.65625	1	health	trialStart	1	13	13	foodImage.68	FOODEEG_Images\0685.jpg	NY	Right	Yes	1.01361689995974	0	181585	251
355.74609375	2	health	foodImageDisplay	1	13	13	foodImage.68	FOODEEG_Images\0685.jpg	NY	Right	Yes	1.01361689995974	0	182143	252
357.80859375	1.01361689995974	health	choicePhaseStart	1	13	13	foodImage.68	FOODEEG_Images\0685.jpg	NY	Right	Yes	1.01361689995974	0	183199	253
358.814453125	0	health	response	1	13	13	foodImage.68	FOODEEG_Images\0685.jpg	NY	Right	Yes	1.01361689995974	0	183714	235
359.857421875	1	taste	trialStart	1	14	14	foodImage.105	FOODEEG_Images\0913.jpg	NY	Left	No	1.01636729994789	0	184248	251
360.91015625	2	taste	foodImageDisplay	1	14	14	foodImage.105	FOODEEG_Images\0913.jpg	NY	Left	No	1.01636729994789	0	184787	252
362.974609375	1.01636729994789	taste	choicePhaseStart	1	14	14	foodImage.105	FOODEEG_Images\0913.jpg	NY	Left	No	1.01636729994789	0	185844	253
363.982421875	0	taste	response	1	14	14	foodImage.105	FOODEEG_Images\0913.jpg	NY	Left	No	1.01636729994789	0	186360	234
365.025390625	1	health	trialStart	1	15	15	foodImage.85	FOODEEG_Images\0841.jpg	NY	Left	No	1.01457850029692	0	186894	251
366.08203125	2	health	foodImageDisplay	1	15	15	foodImage.85	FOODEEG_Images\0841.jpg	NY	Left	No	1.01457850029692	0	187435	252
368.14453125	1.01457850029692	health	choicePhaseStart	1	15	15	foodImage.85	FOODEEG_Images\0841.jpg	NY	Left	No	1.01457850029692	0	188491	253
369.150390625	0	health	response	1	15	15	foodImage.85	FOODEEG_Images\0841.jpg	NY	Left	No	1.01457850029692	0	189006	234
370.189453125	1	health	trialStart	1	16	16	foodImage.52	FOODEEG_Images\0539.jpg	YN	Left	Yes	0.847527300007641	0	189538	251
371.24609375	2	health	foodImageDisplay	1	16	16	foodImage.52	FOODEEG_Images\0539.jpg	YN	Left	Yes	0.847527300007641	0	190079	252
373.30859375	0.847527300007641	health	choicePhaseStart	1	16	16	foodImage.52	FOODEEG_Images\0539.jpg	YN	Left	Yes	0.847527300007641	0	191135	253
374.1484375	0	health	response	1	16	16	foodImage.52	FOODEEG_Images\0539.jpg	YN	Left	Yes	0.847527300007641	0	191565	234
375.189453125	1	decision	trialStart	1	17	17	foodImage.102	FOODEEG_Images\0910.jpg	NY	Left	No	2.13157339999452	0	192098	251
376.2265625	2	decision	foodImageDisplay	1	17	17	foodImage.102	FOODEEG_Images\0910.jpg	NY	Left	No	2.13157339999452	0	192629	252
378.2890625	2.13157339999452	decision	choicePhaseStart	1	17	17	foodImage.102	FOODEEG_Images\0910.jpg	NY	Left	No	2.13157339999452	0	193685	253
380.4140625	0	decision	response	1	17	17	foodImage.102	FOODEEG_Images\0910.jpg	NY	Left	No	2.13157339999452	0	194773	234
381.462890625	1	health	trialStart	1	18	18	foodImage.91	FOODEEG_Images\0896.jpg	YN	Left	Yes	1.78333800006658	0	195310	251
382.51953125	2	health	foodImageDisplay	1	18	18	foodImage.91	FOODEEG_Images\0896.jpg	YN	Left	Yes	1.78333800006658	0	195851	252
384.58203125	1.78333800006658	health	choicePhaseStart	1	18	18	foodImage.91	FOODEEG_Images\0896.jpg	YN	Left	Yes	1.78333800006658	0	196907	253
386.357421875	0	health	response	1	18	18	foodImage.91	FOODEEG_Images\0896.jpg	YN	Left	Yes	1.78333800006658	0	197816	234
387.396484375	1	health	trialStart	1	19	19	foodImage.62	FOODEEG_Images\0644.jpg	NY	Right	Yes	1.08234550012276	0	198348	251
388.453125	2	health	foodImageDisplay	1	19	19	foodImage.62	FOODEEG_Images\0644.jpg	NY	Right	Yes	1.08234550012276	0	198889	252
390.515625	1.08234550012276	health	choicePhaseStart	1	19	19	foodImage.62	FOODEEG_Images\0644.jpg	NY	Right	Yes	1.08234550012276	0	199945	253
391.587890625	0	health	response	1	19	19	foodImage.62	FOODEEG_Images\0644.jpg	NY	Right	Yes	1.08234550012276	0	200494	235
392.626953125	1	taste	trialStart	1	20	20	foodImage.83	FOODEEG_Images\0827.jpg	NY	Right	Yes	0.831663200166076	0	201026	251
393.685546875	2	taste	foodImageDisplay	1	20	20	foodImage.83	FOODEEG_Images\0827.jpg	NY	Right	Yes	0.831663200166076	0	201568	252
395.748046875	0.831663200166076	taste	choicePhaseStart	1	20	20	foodImage.83	FOODEEG_Images\0827.jpg	NY	Right	Yes	0.831663200166076	0	202624	253
396.572265625	0	taste	response	1	20	20	foodImage.83	FOODEEG_Images\0827.jpg	NY	Right	Yes	0.831663200166076	0	203046	235
397.619140625	1	health	trialStart	1	21	21	foodImage.46	FOODEEG_Images\0479.jpg	NY	Right	Yes	0.76181080006063	0	203582	251
398.67578125	2	health	foodImageDisplay	1	21	21	foodImage.46	FOODEEG_Images\0479.jpg	NY	Right	Yes	0.76181080006063	0	204123	252
400.740234375	0.76181080006063	health	choicePhaseStart	1	21	21	foodImage.46	FOODEEG_Images\0479.jpg	NY	Right	Yes	0.76181080006063	0	205180	253
401.4921875	0	health	response	1	21	21	foodImage.46	FOODEEG_Images\0479.jpg	NY	Right	Yes	0.76181080006063	0	205565	235
402.537109375	1	decision	trialStart	1	22	22	foodImage.116	FOODEEG_Images\0924.jpg	YN	Left	Yes	1.41450319997966	0	206100	251
403.576171875	2	decision	foodImageDisplay	1	22	22	foodImage.116	FOODEEG_Images\0924.jpg	YN	Left	Yes	1.41450319997966	0	206632	252
405.638671875	1.41450319997966	decision	choicePhaseStart	1	22	22	foodImage.116	FOODEEG_Images\0924.jpg	YN	Left	Yes	1.41450319997966	0	207688	253
407.044921875	0	decision	response	1	22	22	foodImage.116	FOODEEG_Images\0924.jpg	YN	Left	Yes	1.41450319997966	0	208408	234
408.0859375	1	taste	trialStart	1	23	23	foodImage.70	FOODEEG_Images\0705.jpg	NY	Right	Yes	0.974940599873662	0	208941	251
409.15234375	2	taste	foodImageDisplay	1	23	23	foodImage.70	FOODEEG_Images\0705.jpg	NY	Right	Yes	0.974940599873662	0	209487	252
411.21484375	0.974940599873662	taste	choicePhaseStart	1	23	23	foodImage.70	FOODEEG_Images\0705.jpg	NY	Right	Yes	0.974940599873662	0	210543	253
412.1796875	0	taste	response	1	23	23	foodImage.70	FOODEEG_Images\0705.jpg	NY	Right	Yes	0.974940599873662	0	211037	235
413.22265625	1	taste	trialStart	1	24	24	foodImage.63	FOODEEG_Images\0645.jpg	NY	Right	Yes	0.724276800174266	0	211571	251
414.265625	2	taste	foodImageDisplay	1	24	24	foodImage.63	FOODEEG_Images\0645.jpg	NY	Right	Yes	0.724276800174266	0	212105	252
416.328125	0.724276800174266	taste	choicePhaseStart	1	24	24	foodImage.63	FOODEEG_Images\0645.jpg	NY	Right	Yes	0.724276800174266	0	213161	253
417.04296875	0	taste	response	1	24	24	foodImage.63	FOODEEG_Images\0645.jpg	NY	Right	Yes	0.724276800174266	0	213527	235
418.0859375	1	health	trialStart	1	25	25	foodImage.111	FOODEEG_Images\0919.jpg	YN	Right	No	1.29842309979722	0	214061	251
419.130859375	2	health	foodImageDisplay	1	25	25	foodImage.111	FOODEEG_Images\0919.jpg	YN	Right	No	1.29842309979722	0	214596	252
421.193359375	1.29842309979722	health	choicePhaseStart	1	25	25	foodImage.111	FOODEEG_Images\0919.jpg	YN	Right	No	1.29842309979722	0	215652	253
422.484375	0	health	response	1	25	25	foodImage.111	FOODEEG_Images\0919.jpg	YN	Right	No	1.29842309979722	0	216313	235
423.5234375	1	health	trialStart	1	26	26	foodImage.100	FOODEEG_Images\0908.jpg	NY	Left	No	1.55609349999577	0	216845	251
424.5625	2	health	foodImageDisplay	1	26	26	foodImage.100	FOODEEG_Images\0908.jpg	NY	Left	No	1.55609349999577	0	217377	252
426.625	1.55609349999577	health	choicePhaseStart	1	26	26	foodImage.100	FOODEEG_Images\0908.jpg	NY	Left	No	1.55609349999577	0	218433	253
428.171875	0	health	response	1	26	26	foodImage.100	FOODEEG_Images\0908.jpg	NY	Left	No	1.55609349999577	0	219225	234
429.21875	1	health	trialStart	1	27	27	foodImage.23	FOODEEG_Images\0244.jpg	NY	Right	Yes	0.755145899951458	0	219761	251
430.265625	2	health	foodImageDisplay	1	27	27	foodImage.23	FOODEEG_Images\0244.jpg	NY	Right	Yes	0.755145899951458	0	220297	252
432.328125	0.755145899951458	health	choicePhaseStart	1	27	27	foodImage.23	FOODEEG_Images\0244.jpg	NY	Right	Yes	0.755145899951458	0	221353	253
433.07421875	0	health	response	1	27	27	foodImage.23	FOODEEG_Images\0244.jpg	NY	Right	Yes	0.755145899951458	0	221735	235
434.119140625	1	decision	trialStart	1	28	28	foodImage.36	FOODEEG_Images\0352.jpg	NY	Right	Yes	1.07878160011023	0	222270	251
435.173828125	2	decision	foodImageDisplay	1	28	28	foodImage.36	FOODEEG_Images\0352.jpg	NY	Right	Yes	1.07878160011023	0	222810	252
437.236328125	1.07878160011023	decision	choicePhaseStart	1	28	28	foodImage.36	FOODEEG_Images\0352.jpg	NY	Right	Yes	1.07878160011023	0	223866	253
438.306640625	0	decision	response	1	28	28	foodImage.36	FOODEEG_Images\0352.jpg	NY	Right	Yes	1.07878160011023	0	224414	235
439.349609375	1	health	trialStart	1	29	29	foodImage.27	FOODEEG_Images\0263.jpg	YN	Left	Yes	0.809115899726748	0	224948	251
440.41015625	2	health	foodImageDisplay	1	29	29	foodImage.27	FOODEEG_Images\0263.jpg	YN	Left	Yes	0.809115899726748	0	225491	252
442.474609375	0.809115899726748	health	choicePhaseStart	1	29	29	foodImage.27	FOODEEG_Images\0263.jpg	YN	Left	Yes	0.809115899726748	0	226548	253
443.275390625	0	health	response	1	29	29	foodImage.27	FOODEEG_Images\0263.jpg	YN	Left	Yes	0.809115899726748	0	226958	234
444.318359375	1	decision	trialStart	1	30	30	foodImage.83	FOODEEG_Images\0827.jpg	NY	Right	Yes	1.16435909969732	0	227492	251
445.376953125	2	decision	foodImageDisplay	1	30	30	foodImage.83	FOODEEG_Images\0827.jpg	NY	Right	Yes	1.16435909969732	0	228034	252
447.439453125	1.16435909969732	decision	choicePhaseStart	1	30	30	foodImage.83	FOODEEG_Images\0827.jpg	NY	Right	Yes	1.16435909969732	0	229090	253
448.59375	0	decision	response	1	30	30	foodImage.83	FOODEEG_Images\0827.jpg	NY	Right	Yes	1.16435909969732	0	229681	235
449.634765625	1	taste	trialStart	1	31	31	foodImage.78	FOODEEG_Images\0787.jpg	NY	Right	Yes	0.803771300241351	0	230214	251
450.677734375	2	taste	foodImageDisplay	1	31	31	foodImage.78	FOODEEG_Images\0787.jpg	NY	Right	Yes	0.803771300241351	0	230748	252
452.744140625	0.803771300241351	taste	choicePhaseStart	1	31	31	foodImage.78	FOODEEG_Images\0787.jpg	NY	Right	Yes	0.803771300241351	0	231806	253
453.5390625	0	taste	response	1	31	31	foodImage.78	FOODEEG_Images\0787.jpg	NY	Right	Yes	0.803771300241351	0	232213	235
454.580078125	1	decision	trialStart	1	32	32	foodImage.87	FOODEEG_Images\0873.jpg	YN	Right	No	1.03350770007819	0	232746	251
455.634765625	2	decision	foodImageDisplay	1	32	32	foodImage.87	FOODEEG_Images\0873.jpg	YN	Right	No	1.03350770007819	0	233286	252
457.697265625	1.03350770007819	decision	choicePhaseStart	1	32	32	foodImage.87	FOODEEG_Images\0873.jpg	YN	Right	No	1.03350770007819	0	234342	253
458.72265625	0	decision	response	1	32	32	foodImage.87	FOODEEG_Images\0873.jpg	YN	Right	No	1.03350770007819	0	234867	235
459.76171875	1	decision	trialStart	1	33	33	foodImage.80	FOODEEG_Images\0796.jpg	NY	Right	Yes	0.91048360010609	0	235399	251
460.830078125	2	decision	foodImageDisplay	1	33	33	foodImage.80	FOODEEG_Images\0796.jpg	NY	Right	Yes	0.91048360010609	0	235946	252
462.892578125	0.91048360010609	decision	choicePhaseStart	1	33	33	foodImage.80	FOODEEG_Images\0796.jpg	NY	Right	Yes	0.91048360010609	0	237002	253
463.794921875	0	decision	response	1	33	33	foodImage.80	FOODEEG_Images\0796.jpg	NY	Right	Yes	0.91048360010609	0	237464	235
464.833984375	1	decision	trialStart	1	34	34	foodImage.64	FOODEEG_Images\0647.jpg	NY	Right	Yes	0.833346699830145	0	237996	251
465.890625	2	decision	foodImageDisplay	1	34	34	foodImage.64	FOODEEG_Images\0647.jpg	NY	Right	Yes	0.833346699830145	0	238537	252
467.953125	0.833346699830145	decision	choicePhaseStart	1	34	34	foodImage.64	FOODEEG_Images\0647.jpg	NY	Right	Yes	0.833346699830145	0	239593	253
468.77734375	0	decision	response	1	34	34	foodImage.64	FOODEEG_Images\0647.jpg	NY	Right	Yes	0.833346699830145	0	240015	235
469.81640625	1	taste	trialStart	1	35	35	foodImage.98	FOODEEG_Images\0906.jpg	YN	Right	No	0.813331000041217	0	240547	251
470.853515625	2	taste	foodImageDisplay	1	35	35	foodImage.98	FOODEEG_Images\0906.jpg	YN	Right	No	0.813331000041217	0	241078	252
472.916015625	0.813331000041217	taste	choicePhaseStart	1	35	35	foodImage.98	FOODEEG_Images\0906.jpg	YN	Right	No	0.813331000041217	0	242134	253
473.720703125	0	taste	response	1	35	35	foodImage.98	FOODEEG_Images\0906.jpg	YN	Right	No	0.813331000041217	0	242546	235
474.763671875	1	health	trialStart	1	36	36	foodImage.11	FOODEEG_Images\0180.jpg	YN	Left	Yes	1.02167129982263	0	243080	251
475.8046875	2	health	foodImageDisplay	1	36	36	foodImage.11	FOODEEG_Images\0180.jpg	YN	Left	Yes	1.02167129982263	0	243613	252
477.8671875	1.02167129982263	health	choicePhaseStart	1	36	36	foodImage.11	FOODEEG_Images\0180.jpg	YN	Left	Yes	1.02167129982263	0	244669	253
478.880859375	0	health	response	1	36	36	foodImage.11	FOODEEG_Images\0180.jpg	YN	Left	Yes	1.02167129982263	0	245188	234
479.923828125	1	decision	trialStart	1	37	37	foodImage.99	FOODEEG_Images\0907.jpg	YN	Right	No	0.691728699952364	0	245722	251
480.9609375	2	decision	foodImageDisplay	1	37	37	foodImage.99	FOODEEG_Images\0907.jpg	YN	Right	No	0.691728699952364	0	246253	252
483.0234375	0.691728699952364	decision	choicePhaseStart	1	37	37	foodImage.99	FOODEEG_Images\0907.jpg	YN	Right	No	0.691728699952364	0	247309	253
483.705078125	0	decision	response	1	37	37	foodImage.99	FOODEEG_Images\0907.jpg	YN	Right	No	0.691728699952364	0	247658	235
484.74609375	1	taste	trialStart	1	38	38	foodImage.10	FOODEEG_Images\0145.jpg	NY	Right	Yes	0.752163800410926	0	248191	251
485.810546875	2	taste	foodImageDisplay	1	38	38	foodImage.10	FOODEEG_Images\0145.jpg	NY	Right	Yes	0.752163800410926	0	248736	252
487.873046875	0.752163800410926	taste	choicePhaseStart	1	38	38	foodImage.10	FOODEEG_Images\0145.jpg	NY	Right	Yes	0.752163800410926	0	249792	253
488.6171875	0	taste	response	1	38	38	foodImage.10	FOODEEG_Images\0145.jpg	NY	Right	Yes	0.752163800410926	0	250173	235
489.662109375	1	decision	trialStart	1	39	39	foodImage.32	FOODEEG_Images\0319.jpg	NY	Right	Yes	1.18569869967178	0	250708	251
490.705078125	2	decision	foodImageDisplay	1	39	39	foodImage.32	FOODEEG_Images\0319.jpg	NY	Right	Yes	1.18569869967178	0	251242	252
492.767578125	1.18569869967178	decision	choicePhaseStart	1	39	39	foodImage.32	FOODEEG_Images\0319.jpg	NY	Right	Yes	1.18569869967178	0	252298	253
493.9453125	0	decision	response	1	39	39	foodImage.32	FOODEEG_Images\0319.jpg	NY	Right	Yes	1.18569869967178	0	252901	235
494.984375	1	health	trialStart	1	40	40	foodImage.6	FOODEEG_Images\0113.jpg	NY	Left	No	0.922613700386137	0	253433	251
496.025390625	2	health	foodImageDisplay	1	40	40	foodImage.6	FOODEEG_Images\0113.jpg	NY	Left	No	0.922613700386137	0	253966	252
498.087890625	0.922613700386137	health	choicePhaseStart	1	40	40	foodImage.6	FOODEEG_Images\0113.jpg	NY	Left	No	0.922613700386137	0	255022	253
499	0	health	response	1	40	40	foodImage.6	FOODEEG_Images\0113.jpg	NY	Left	No	0.922613700386137	0	255489	234
500.0390625	1	decision	trialStart	1	41	41	foodImage.27	FOODEEG_Images\0263.jpg	YN	Left	Yes	0.704721499700099	0	256021	251
501.08203125	2	decision	foodImageDisplay	1	41	41	foodImage.27	FOODEEG_Images\0263.jpg	YN	Left	Yes	0.704721499700099	0	256555	252
503.142578125	0.704721499700099	decision	choicePhaseStart	1	41	41	foodImage.27	FOODEEG_Images\0263.jpg	YN	Left	Yes	0.704721499700099	0	257610	253
503.83984375	0	decision	response	1	41	41	foodImage.27	FOODEEG_Images\0263.jpg	YN	Left	Yes	0.704721499700099	0	257967	234
504.884765625	1	taste	trialStart	1	42	42	foodImage.1	FOODEEG_Images\0004.jpg	YN	Left	Yes	0.850140599999577	0	258502	251
505.9375	2	taste	foodImageDisplay	1	42	42	foodImage.1	FOODEEG_Images\0004.jpg	YN	Left	Yes	0.850140599999577	0	259041	252
508	0.850140599999577	taste	choicePhaseStart	1	42	42	foodImage.1	FOODEEG_Images\0004.jpg	YN	Left	Yes	0.850140599999577	0	260097	253
508.83984375	0	taste	response	1	42	42	foodImage.1	FOODEEG_Images\0004.jpg	YN	Left	Yes	0.850140599999577	0	260527	234
509.8828125	1	taste	trialStart	1	43	43	foodImage.7	FOODEEG_Images\0116.jpg	YN	Left	Yes	0.758470200002193	0	261061	251
510.923828125	2	taste	foodImageDisplay	1	43	43	foodImage.7	FOODEEG_Images\0116.jpg	YN	Left	Yes	0.758470200002193	0	261594	252
512.986328125	0.758470200002193	taste	choicePhaseStart	1	43	43	foodImage.7	FOODEEG_Images\0116.jpg	YN	Left	Yes	0.758470200002193	0	262650	253
513.736328125	0	taste	response	1	43	43	foodImage.7	FOODEEG_Images\0116.jpg	YN	Left	Yes	0.758470200002193	0	263034	234
514.779296875	1	taste	trialStart	1	44	44	foodImage.37	FOODEEG_Images\0359.jpg	YN	Left	Yes	0.679487499874085	0	263568	251
515.8203125	2	taste	foodImageDisplay	1	44	44	foodImage.37	FOODEEG_Images\0359.jpg	YN	Left	Yes	0.679487499874085	0	264101	252
517.8828125	0.679487499874085	taste	choicePhaseStart	1	44	44	foodImage.37	FOODEEG_Images\0359.jpg	YN	Left	Yes	0.679487499874085	0	265157	253
518.552734375	0	taste	response	1	44	44	foodImage.37	FOODEEG_Images\0359.jpg	YN	Left	Yes	0.679487499874085	0	265500	234
519.595703125	1	taste	trialStart	1	45	45	foodImage.64	FOODEEG_Images\0647.jpg	NY	Right	Yes	0.725256000179797	0	266034	251
520.662109375	2	taste	foodImageDisplay	1	45	45	foodImage.64	FOODEEG_Images\0647.jpg	NY	Right	Yes	0.725256000179797	0	266580	252
522.724609375	0.725256000179797	taste	choicePhaseStart	1	45	45	foodImage.64	FOODEEG_Images\0647.jpg	NY	Right	Yes	0.725256000179797	0	267636	253
523.439453125	0	taste	response	1	45	45	foodImage.64	FOODEEG_Images\0647.jpg	NY	Right	Yes	0.725256000179797	0	268002	235
524.482421875	1	health	trialStart	1	46	46	foodImage.25	FOODEEG_Images\0261.jpg	YN	Left	Yes	0.702266899868846	0	268536	251
525.5234375	2	health	foodImageDisplay	1	46	46	foodImage.25	FOODEEG_Images\0261.jpg	YN	Left	Yes	0.702266899868846	0	269069	252
527.5859375	0.702266899868846	health	choicePhaseStart	1	46	46	foodImage.25	FOODEEG_Images\0261.jpg	YN	Left	Yes	0.702266899868846	0	270125	253
528.279296875	0	health	response	1	46	46	foodImage.25	FOODEEG_Images\0261.jpg	YN	Left	Yes	0.702266899868846	0	270480	234
529.3203125	1	taste	trialStart	1	47	47	foodImage.116	FOODEEG_Images\0924.jpg	NY	Right	Yes	0.872430399991572	0	271013	251
530.376953125	2	taste	foodImageDisplay	1	47	47	foodImage.116	FOODEEG_Images\0924.jpg	NY	Right	Yes	0.872430399991572	0	271554	252
532.439453125	0.872430399991572	taste	choicePhaseStart	1	47	47	foodImage.116	FOODEEG_Images\0924.jpg	NY	Right	Yes	0.872430399991572	0	272610	253
533.302734375	0	taste	response	1	47	47	foodImage.116	FOODEEG_Images\0924.jpg	NY	Right	Yes	0.872430399991572	0	273052	235
534.34375	1	health	trialStart	1	48	48	foodImage.98	FOODEEG_Images\0906.jpg	NY	Right	Yes	1.22381719993427	0	273585	251
535.384765625	2	health	foodImageDisplay	1	48	48	foodImage.98	FOODEEG_Images\0906.jpg	NY	Right	Yes	1.22381719993427	0	274118	252
537.447265625	1.22381719993427	health	choicePhaseStart	1	48	48	foodImage.98	FOODEEG_Images\0906.jpg	NY	Right	Yes	1.22381719993427	0	275174	253
538.6640625	0	health	response	1	48	48	foodImage.98	FOODEEG_Images\0906.jpg	NY	Right	Yes	1.22381719993427	0	275797	235
539.70703125	1	health	trialStart	1	49	49	foodImage.86	FOODEEG_Images\0844.jpg	NY	Right	Yes	1.3556003998965	0	276331	251
540.7734375	2	health	foodImageDisplay	1	49	49	foodImage.86	FOODEEG_Images\0844.jpg	NY	Right	Yes	1.3556003998965	0	276877	252
542.8359375	1.3556003998965	health	choicePhaseStart	1	49	49	foodImage.86	FOODEEG_Images\0844.jpg	NY	Right	Yes	1.3556003998965	0	277933	253
544.18359375	0	health	response	1	49	49	foodImage.86	FOODEEG_Images\0844.jpg	NY	Right	Yes	1.3556003998965	0	278623	235
545.22265625	1	decision	trialStart	1	50	50	foodImage.76	FOODEEG_Images\0766.jpg	YN	Left	Yes	0.984943199902773	0	279155	251
546.265625	2	decision	foodImageDisplay	1	50	50	foodImage.76	FOODEEG_Images\0766.jpg	YN	Left	Yes	0.984943199902773	0	279689	252
548.326171875	0.984943199902773	decision	choicePhaseStart	1	50	50	foodImage.76	FOODEEG_Images\0766.jpg	YN	Left	Yes	0.984943199902773	0	280744	253
549.302734375	0	decision	response	1	50	50	foodImage.76	FOODEEG_Images\0766.jpg	YN	Left	Yes	0.984943199902773	0	281244	234
550.361328125	1	taste	trialStart	1	51	51	foodImage.112	FOODEEG_Images\0920.jpg	YN	Right	No	1.268186500296	0	281786	251
551.400390625	2	taste	foodImageDisplay	1	51	51	foodImage.112	FOODEEG_Images\0920.jpg	YN	Right	No	1.268186500296	0	282318	252
553.466796875	1.268186500296	taste	choicePhaseStart	1	51	51	foodImage.112	FOODEEG_Images\0920.jpg	YN	Right	No	1.268186500296	0	283376	253
554.7265625	0	taste	response	1	51	51	foodImage.112	FOODEEG_Images\0920.jpg	YN	Right	No	1.268186500296	0	284021	235
555.76953125	1	taste	trialStart	1	52	52	foodImage.72	FOODEEG_Images\0714.jpg	NY	Right	Yes	0.86020280001685	0	284555	251
556.810546875	2	taste	foodImageDisplay	1	52	52	foodImage.72	FOODEEG_Images\0714.jpg	NY	Right	Yes	0.86020280001685	0	285088	252
558.873046875	0.86020280001685	taste	choicePhaseStart	1	52	52	foodImage.72	FOODEEG_Images\0714.jpg	NY	Right	Yes	0.86020280001685	0	286144	253
559.7265625	0	taste	response	1	52	52	foodImage.72	FOODEEG_Images\0714.jpg	NY	Right	Yes	0.86020280001685	0	286581	235
560.767578125	1	decision	trialStart	1	53	53	foodImage.114	FOODEEG_Images\0922.jpg	NY	Left	No	0.831229600124061	0	287114	251
561.80859375	2	decision	foodImageDisplay	1	53	53	foodImage.114	FOODEEG_Images\0922.jpg	NY	Left	No	0.831229600124061	0	287647	252
563.87109375	0.831229600124061	decision	choicePhaseStart	1	53	53	foodImage.114	FOODEEG_Images\0922.jpg	NY	Left	No	0.831229600124061	0	288703	253
564.693359375	0	decision	response	1	53	53	foodImage.114	FOODEEG_Images\0922.jpg	NY	Left	No	0.831229600124061	0	289124	234
565.73828125	1	health	trialStart	1	54	54	foodImage.30	FOODEEG_Images\0282.jpg	YN	Left	Yes	1.9607335999608	0	289659	251
566.7890625	2	health	foodImageDisplay	1	54	54	foodImage.30	FOODEEG_Images\0282.jpg	YN	Left	Yes	1.9607335999608	0	290197	252
568.8515625	1.9607335999608	health	choicePhaseStart	1	54	54	foodImage.30	FOODEEG_Images\0282.jpg	YN	Left	Yes	1.9607335999608	0	291253	253
570.806640625	0	health	response	1	54	54	foodImage.30	FOODEEG_Images\0282.jpg	YN	Left	Yes	1.9607335999608	0	292254	234
571.84765625	1	taste	trialStart	1	55	55	foodImage.100	FOODEEG_Images\0908.jpg	NY	Left	No	1.01051290007308	0	292787	251
572.890625	2	taste	foodImageDisplay	1	55	55	foodImage.100	FOODEEG_Images\0908.jpg	NY	Left	No	1.01051290007308	0	293321	252
574.953125	1.01051290007308	taste	choicePhaseStart	1	55	55	foodImage.100	FOODEEG_Images\0908.jpg	NY	Left	No	1.01051290007308	0	294377	253
575.95703125	0	taste	response	1	55	55	foodImage.100	FOODEEG_Images\0908.jpg	NY	Left	No	1.01051290007308	0	294891	234
577	1	decision	trialStart	1	56	56	foodImage.72	FOODEEG_Images\0714.jpg	YN	Left	Yes	0.817290399689227	0	295425	251
578.052734375	2	decision	foodImageDisplay	1	56	56	foodImage.72	FOODEEG_Images\0714.jpg	YN	Left	Yes	0.817290399689227	0	295964	252
580.1171875	0.817290399689227	decision	choicePhaseStart	1	56	56	foodImage.72	FOODEEG_Images\0714.jpg	YN	Left	Yes	0.817290399689227	0	297021	253
580.92578125	0	decision	response	1	56	56	foodImage.72	FOODEEG_Images\0714.jpg	YN	Left	Yes	0.817290399689227	0	297435	234
581.96875	1	taste	trialStart	1	57	57	foodImage.4	FOODEEG_Images\0065.jpg	YN	Left	Yes	0.778168600052595	0	297969	251
583.02734375	2	taste	foodImageDisplay	1	57	57	foodImage.4	FOODEEG_Images\0065.jpg	YN	Left	Yes	0.778168600052595	0	298511	252
585.08984375	0.778168600052595	taste	choicePhaseStart	1	57	57	foodImage.4	FOODEEG_Images\0065.jpg	YN	Left	Yes	0.778168600052595	0	299567	253
585.861328125	0	taste	response	1	57	57	foodImage.4	FOODEEG_Images\0065.jpg	YN	Left	Yes	0.778168600052595	0	299962	234
586.904296875	1	taste	trialStart	1	58	58	foodImage.92	FOODEEG_Images\0900.jpg	NY	Left	No	0.729913999792188	0	300496	251
587.943359375	2	taste	foodImageDisplay	1	58	58	foodImage.92	FOODEEG_Images\0900.jpg	NY	Left	No	0.729913999792188	0	301028	252
590.00390625	0.729913999792188	taste	choicePhaseStart	1	58	58	foodImage.92	FOODEEG_Images\0900.jpg	NY	Left	No	0.729913999792188	0	302083	253
590.724609375	0	taste	response	1	58	58	foodImage.92	FOODEEG_Images\0900.jpg	NY	Left	No	0.729913999792188	0	302452	234
591.771484375	1	taste	trialStart	1	59	59	foodImage.11	FOODEEG_Images\0180.jpg	YN	Left	Yes	0.753309399820864	0	302988	251
592.818359375	2	taste	foodImageDisplay	1	59	59	foodImage.11	FOODEEG_Images\0180.jpg	YN	Left	Yes	0.753309399820864	0	303524	252
594.8828125	0.753309399820864	taste	choicePhaseStart	1	59	59	foodImage.11	FOODEEG_Images\0180.jpg	YN	Left	Yes	0.753309399820864	0	304581	253
595.62890625	0	taste	response	1	59	59	foodImage.11	FOODEEG_Images\0180.jpg	YN	Left	Yes	0.753309399820864	0	304963	234
596.671875	1	decision	trialStart	1	60	60	foodImage.110	FOODEEG_Images\0918.jpg	NY	Right	Yes	0.98625269997865	0	305497	251
597.716796875	2	decision	foodImageDisplay	1	60	60	foodImage.110	FOODEEG_Images\0918.jpg	NY	Right	Yes	0.98625269997865	0	306032	252
599.779296875	0.98625269997865	decision	choicePhaseStart	1	60	60	foodImage.110	FOODEEG_Images\0918.jpg	NY	Right	Yes	0.98625269997865	0	307088	253
600.755859375	0	decision	response	1	60	60	foodImage.110	FOODEEG_Images\0918.jpg	NY	Right	Yes	0.98625269997865	0	307588	235
602.798828125	10.990234375	n/a	blockEnd	n/a	n/a	n/a	n/a	n/a	n/a	n/a	n/a	n/a	n/a	308634	254
613.7890625	2	n/a	blockStart	2	n/a	n/a	n/a	n/a	n/a	n/a	n/a	n/a	n/a	314261	250
615.822265625	1	taste	trialStart	2	61	1	foodImage.59	FOODEEG_Images\0607.jpg	NY	Right	Yes	0.983143200166523	0	315302	251
616.869140625	2	taste	foodImageDisplay	2	61	1	foodImage.59	FOODEEG_Images\0607.jpg	NY	Right	Yes	0.983143200166523	0	315838	252
618.931640625	0.983143200166523	taste	choicePhaseStart	2	61	1	foodImage.59	FOODEEG_Images\0607.jpg	NY	Right	Yes	0.983143200166523	0	316894	253
619.908203125	0	taste	response	2	61	1	foodImage.59	FOODEEG_Images\0607.jpg	NY	Right	Yes	0.983143200166523	0	317394	235
620.951171875	1	taste	trialStart	2	62	2	foodImage.68	FOODEEG_Images\0685.jpg	NY	Right	Yes	0.732380899600685	0	317928	251
622.033203125	2	taste	foodImageDisplay	2	62	2	foodImage.68	FOODEEG_Images\0685.jpg	NY	Right	Yes	0.732380899600685	0	318482	252
624.095703125	0.732380899600685	taste	choicePhaseStart	2	62	2	foodImage.68	FOODEEG_Images\0685.jpg	NY	Right	Yes	0.732380899600685	0	319538	253
624.8203125	0	taste	response	2	62	2	foodImage.68	FOODEEG_Images\0685.jpg	NY	Right	Yes	0.732380899600685	0	319909	235
625.865234375	1	health	trialStart	2	63	3	foodImage.32	FOODEEG_Images\0319.jpg	NY	Right	Yes	1.14861930022016	0	320444	251
626.927734375	2	health	foodImageDisplay	2	63	3	foodImage.32	FOODEEG_Images\0319.jpg	NY	Right	Yes	1.14861930022016	0	320988	252
628.990234375	1.14861930022016	health	choicePhaseStart	2	63	3	foodImage.32	FOODEEG_Images\0319.jpg	NY	Right	Yes	1.14861930022016	0	322044	253
630.130859375	0	health	response	2	63	3	foodImage.32	FOODEEG_Images\0319.jpg	NY	Right	Yes	1.14861930022016	0	322628	235
631.173828125	1	taste	trialStart	2	64	4	foodImage.119	FOODEEG_Images\0927.jpg	NY	Left	No	0.616995399817824	0	323162	251
632.212890625	2	taste	foodImageDisplay	2	64	4	foodImage.119	FOODEEG_Images\0927.jpg	NY	Left	No	0.616995399817824	0	323694	252
634.275390625	0.616995399817824	taste	choicePhaseStart	2	64	4	foodImage.119	FOODEEG_Images\0927.jpg	NY	Left	No	0.616995399817824	0	324750	253
634.8828125	0	taste	response	2	64	4	foodImage.119	FOODEEG_Images\0927.jpg	NY	Left	No	0.616995399817824	0	325061	234
635.9296875	1	taste	trialStart	2	65	5	foodImage.44	FOODEEG_Images\0459.jpg	NY	Right	Yes	0.670684299897403	0	325597	251
636.974609375	2	taste	foodImageDisplay	2	65	5	foodImage.44	FOODEEG_Images\0459.jpg	NY	Right	Yes	0.670684299897403	0	326132	252
639.03515625	0.670684299897403	taste	choicePhaseStart	2	65	5	foodImage.44	FOODEEG_Images\0459.jpg	NY	Right	Yes	0.670684299897403	0	327187	253
639.69921875	0	taste	response	2	65	5	foodImage.44	FOODEEG_Images\0459.jpg	NY	Right	Yes	0.670684299897403	0	327527	235
640.740234375	1	decision	trialStart	2	66	6	foodImage.82	FOODEEG_Images\0805.jpg	YN	Left	Yes	0.785968699958175	0	328060	251
641.794921875	2	decision	foodImageDisplay	2	66	6	foodImage.82	FOODEEG_Images\0805.jpg	YN	Left	Yes	0.785968699958175	0	328600	252
643.857421875	0.785968699958175	decision	choicePhaseStart	2	66	6	foodImage.82	FOODEEG_Images\0805.jpg	YN	Left	Yes	0.785968699958175	0	329656	253
644.634765625	0	decision	response	2	66	6	foodImage.82	FOODEEG_Images\0805.jpg	YN	Left	Yes	0.785968699958175	0	330054	234
645.673828125	1	health	trialStart	2	67	7	foodImage.84	FOODEEG_Images\0830.jpg	NY	Right	Yes	0.697445299942046	0	330586	251
646.73828125	2	health	foodImageDisplay	2	67	7	foodImage.84	FOODEEG_Images\0830.jpg	NY	Right	Yes	0.697445299942046	0	331131	252
648.80078125	0.697445299942046	health	choicePhaseStart	2	67	7	foodImage.84	FOODEEG_Images\0830.jpg	NY	Right	Yes	0.697445299942046	0	332187	253
649.490234375	0	health	response	2	67	7	foodImage.84	FOODEEG_Images\0830.jpg	NY	Right	Yes	0.697445299942046	0	332540	235
650.533203125	1	health	trialStart	2	68	8	foodImage.14	FOODEEG_Images\0188.jpg	YN	Right	No	1.22651669988409	0	333074	251
651.595703125	2	health	foodImageDisplay	2	68	8	foodImage.14	FOODEEG_Images\0188.jpg	YN	Right	No	1.22651669988409	0	333618	252
653.658203125	1.22651669988409	health	choicePhaseStart	2	68	8	foodImage.14	FOODEEG_Images\0188.jpg	YN	Right	No	1.22651669988409	0	334674	253
654.875	0	health	response	2	68	8	foodImage.14	FOODEEG_Images\0188.jpg	YN	Right	No	1.22651669988409	0	335297	235
655.921875	1	decision	trialStart	2	69	9	foodImage.59	FOODEEG_Images\0607.jpg	NY	Right	Yes	0.621779500041157	0	335833	251
656.990234375	2	decision	foodImageDisplay	2	69	9	foodImage.59	FOODEEG_Images\0607.jpg	NY	Right	Yes	0.621779500041157	0	336380	252
659.052734375	0.621779500041157	decision	choicePhaseStart	2	69	9	foodImage.59	FOODEEG_Images\0607.jpg	NY	Right	Yes	0.621779500041157	0	337436	253
659.666015625	0	decision	response	2	69	9	foodImage.59	FOODEEG_Images\0607.jpg	NY	Right	Yes	0.621779500041157	0	337750	235
660.705078125	1	health	trialStart	2	70	10	foodImage.35	FOODEEG_Images\0350.jpg	YN	Left	Yes	1.741033999715	0	338282	251
661.744140625	2	health	foodImageDisplay	2	70	10	foodImage.35	FOODEEG_Images\0350.jpg	YN	Left	Yes	1.741033999715	0	338814	252
663.806640625	1.741033999715	health	choicePhaseStart	2	70	10	foodImage.35	FOODEEG_Images\0350.jpg	YN	Left	Yes	1.741033999715	0	339870	253
665.5390625	0	health	response	2	70	10	foodImage.35	FOODEEG_Images\0350.jpg	YN	Left	Yes	1.741033999715	0	340757	234
666.580078125	1	taste	trialStart	2	71	11	foodImage.76	FOODEEG_Images\0766.jpg	NY	Right	Yes	1.22445590002462	0	341290	251
667.634765625	2	taste	foodImageDisplay	2	71	11	foodImage.76	FOODEEG_Images\0766.jpg	NY	Right	Yes	1.22445590002462	0	341830	252
669.69921875	1.22445590002462	taste	choicePhaseStart	2	71	11	foodImage.76	FOODEEG_Images\0766.jpg	NY	Right	Yes	1.22445590002462	0	342887	253
670.9140625	0	taste	response	2	71	11	foodImage.76	FOODEEG_Images\0766.jpg	NY	Right	Yes	1.22445590002462	0	343509	235
671.95703125	1	decision	trialStart	2	72	12	foodImage.31	FOODEEG_Images\0294.jpg	NY	Right	Yes	0.804694800172001	0	344043	251
672.998046875	2	decision	foodImageDisplay	2	72	12	foodImage.31	FOODEEG_Images\0294.jpg	NY	Right	Yes	0.804694800172001	0	344576	252
675.060546875	0.804694800172001	decision	choicePhaseStart	2	72	12	foodImage.31	FOODEEG_Images\0294.jpg	NY	Right	Yes	0.804694800172001	0	345632	253
675.857421875	0	decision	response	2	72	12	foodImage.31	FOODEEG_Images\0294.jpg	NY	Right	Yes	0.804694800172001	0	346040	235
676.900390625	1	health	trialStart	2	73	13	foodImage.9	FOODEEG_Images\0138.jpg	YN	Right	No	0.927680900320411	0	346574	251
677.95703125	2	health	foodImageDisplay	2	73	13	foodImage.9	FOODEEG_Images\0138.jpg	YN	Right	No	0.927680900320411	0	347115	252
680.01953125	0.927680900320411	health	choicePhaseStart	2	73	13	foodImage.9	FOODEEG_Images\0138.jpg	YN	Right	No	0.927680900320411	0	348171	253
680.9375	0	health	response	2	73	13	foodImage.9	FOODEEG_Images\0138.jpg	YN	Right	No	0.927680900320411	0	348641	235
681.98046875	1	health	trialStart	2	74	14	foodImage.12	FOODEEG_Images\0181.jpg	YN	Left	Yes	0.790861299727112	0	349175	251
683.021484375	2	health	foodImageDisplay	2	74	14	foodImage.12	FOODEEG_Images\0181.jpg	YN	Left	Yes	0.790861299727112	0	349708	252
685.083984375	0.790861299727112	health	choicePhaseStart	2	74	14	foodImage.12	FOODEEG_Images\0181.jpg	YN	Left	Yes	0.790861299727112	0	350764	253
685.865234375	0	health	response	2	74	14	foodImage.12	FOODEEG_Images\0181.jpg	YN	Left	Yes	0.790861299727112	0	351164	234
686.904296875	1	decision	trialStart	2	75	15	foodImage.63	FOODEEG_Images\0645.jpg	NY	Right	Yes	0.682785400189459	0	351696	251
687.9453125	2	decision	foodImageDisplay	2	75	15	foodImage.63	FOODEEG_Images\0645.jpg	NY	Right	Yes	0.682785400189459	0	352229	252
690.0078125	0.682785400189459	decision	choicePhaseStart	2	75	15	foodImage.63	FOODEEG_Images\0645.jpg	NY	Right	Yes	0.682785400189459	0	353285	253
690.681640625	0	decision	response	2	75	15	foodImage.63	FOODEEG_Images\0645.jpg	NY	Right	Yes	0.682785400189459	0	353630	235
691.724609375	1	health	trialStart	2	76	16	foodImage.101	FOODEEG_Images\0909.jpg	NY	Left	No	0.702781099826097	0	354164	251
692.763671875	2	health	foodImageDisplay	2	76	16	foodImage.101	FOODEEG_Images\0909.jpg	NY	Left	No	0.702781099826097	0	354696	252
694.826171875	0.702781099826097	health	choicePhaseStart	2	76	16	foodImage.101	FOODEEG_Images\0909.jpg	NY	Left	No	0.702781099826097	0	355752	253
695.521484375	0	health	response	2	76	16	foodImage.101	FOODEEG_Images\0909.jpg	NY	Left	No	0.702781099826097	0	356108	234
696.564453125	1	health	trialStart	2	77	17	foodImage.42	FOODEEG_Images\0438.jpg	YN	Left	Yes	1.15979779977351	0	356642	251
697.658203125	2	health	foodImageDisplay	2	77	17	foodImage.42	FOODEEG_Images\0438.jpg	YN	Left	Yes	1.15979779977351	0	357202	252
699.720703125	1.15979779977351	health	choicePhaseStart	2	77	17	foodImage.42	FOODEEG_Images\0438.jpg	YN	Left	Yes	1.15979779977351	0	358258	253
700.873046875	0	health	response	2	77	17	foodImage.42	FOODEEG_Images\0438.jpg	YN	Left	Yes	1.15979779977351	0	358848	234
701.916015625	1	taste	trialStart	2	78	18	foodImage.52	FOODEEG_Images\0539.jpg	YN	Left	Yes	0.890327299945056	0	359382	251
702.974609375	2	taste	foodImageDisplay	2	78	18	foodImage.52	FOODEEG_Images\0539.jpg	YN	Left	Yes	0.890327299945056	0	359924	252
705.0390625	0.890327299945056	taste	choicePhaseStart	2	78	18	foodImage.52	FOODEEG_Images\0539.jpg	YN	Left	Yes	0.890327299945056	0	360981	253
705.919921875	0	taste	response	2	78	18	foodImage.52	FOODEEG_Images\0539.jpg	YN	Left	Yes	0.890327299945056	0	361432	234
706.962890625	1	health	trialStart	2	79	19	foodImage.109	FOODEEG_Images\0917.jpg	YN	Right	No	1.13200729992241	0	361966	251
707.998046875	2	health	foodImageDisplay	2	79	19	foodImage.109	FOODEEG_Images\0917.jpg	YN	Right	No	1.13200729992241	0	362496	252
710.060546875	1.13200729992241	health	choicePhaseStart	2	79	19	foodImage.109	FOODEEG_Images\0917.jpg	YN	Right	No	1.13200729992241	0	363552	253
711.18359375	0	health	response	2	79	19	foodImage.109	FOODEEG_Images\0917.jpg	YN	Right	No	1.13200729992241	0	364127	235
712.228515625	1	decision	trialStart	2	80	20	foodImage.53	FOODEEG_Images\0547.jpg	YN	Left	Yes	0.869506299961358	0	364662	251
713.306640625	2	decision	foodImageDisplay	2	80	20	foodImage.53	FOODEEG_Images\0547.jpg	YN	Left	Yes	0.869506299961358	0	365214	252
715.369140625	0.869506299961358	decision	choicePhaseStart	2	80	20	foodImage.53	FOODEEG_Images\0547.jpg	YN	Left	Yes	0.869506299961358	0	366270	253
716.232421875	0	decision	response	2	80	20	foodImage.53	FOODEEG_Images\0547.jpg	YN	Left	Yes	0.869506299961358	0	366712	234
717.2734375	1	health	trialStart	2	81	21	foodImage.8	FOODEEG_Images\0136.jpg	NY	Right	Yes	0.989095900207758	0	367245	251
718.31640625	2	health	foodImageDisplay	2	81	21	foodImage.8	FOODEEG_Images\0136.jpg	NY	Right	Yes	0.989095900207758	0	367779	252
720.380859375	0.989095900207758	health	choicePhaseStart	2	81	21	foodImage.8	FOODEEG_Images\0136.jpg	NY	Right	Yes	0.989095900207758	0	368836	253
721.359375	0	health	response	2	81	21	foodImage.8	FOODEEG_Images\0136.jpg	NY	Right	Yes	0.989095900207758	0	369337	235
722.404296875	1	taste	trialStart	2	82	22	foodImage.102	FOODEEG_Images\0910.jpg	YN	Right	No	1.00664130039513	0	369872	251
723.443359375	2	taste	foodImageDisplay	2	82	22	foodImage.102	FOODEEG_Images\0910.jpg	YN	Right	No	1.00664130039513	0	370404	252
725.505859375	1.00664130039513	taste	choicePhaseStart	2	82	22	foodImage.102	FOODEEG_Images\0910.jpg	YN	Right	No	1.00664130039513	0	371460	253
726.50390625	0	taste	response	2	82	22	foodImage.102	FOODEEG_Images\0910.jpg	YN	Right	No	1.00664130039513	0	371971	235
727.552734375	1	taste	trialStart	2	83	23	foodImage.9	FOODEEG_Images\0138.jpg	NY	Right	Yes	1.00676300004125	0	372508	251
728.611328125	2	taste	foodImageDisplay	2	83	23	foodImage.9	FOODEEG_Images\0138.jpg	NY	Right	Yes	1.00676300004125	0	373050	252
730.673828125	1.00676300004125	taste	choicePhaseStart	2	83	23	foodImage.9	FOODEEG_Images\0138.jpg	NY	Right	Yes	1.00676300004125	0	374106	253
731.671875	0	taste	response	2	83	23	foodImage.9	FOODEEG_Images\0138.jpg	NY	Right	Yes	1.00676300004125	0	374617	235
732.712890625	1	taste	trialStart	2	84	24	foodImage.16	FOODEEG_Images\0196.jpg	YN	Left	Yes	1.31001990009099	0	375150	251
733.787109375	2	taste	foodImageDisplay	2	84	24	foodImage.16	FOODEEG_Images\0196.jpg	YN	Left	Yes	1.31001990009099	0	375700	252
735.849609375	1.31001990009099	taste	choicePhaseStart	2	84	24	foodImage.16	FOODEEG_Images\0196.jpg	YN	Left	Yes	1.31001990009099	0	376756	253
737.150390625	0	taste	response	2	84	24	foodImage.16	FOODEEG_Images\0196.jpg	YN	Left	Yes	1.31001990009099	0	377422	234
738.19140625	1	taste	trialStart	2	85	25	foodImage.82	FOODEEG_Images\0805.jpg	NY	Right	Yes	0.659296700265259	0	377955	251
739.255859375	2	taste	foodImageDisplay	2	85	25	foodImage.82	FOODEEG_Images\0805.jpg	NY	Right	Yes	0.659296700265259	0	378500	252
741.318359375	0.659296700265259	taste	choicePhaseStart	2	85	25	foodImage.82	FOODEEG_Images\0805.jpg	NY	Right	Yes	0.659296700265259	0	379556	253
741.966796875	0	taste	response	2	85	25	foodImage.82	FOODEEG_Images\0805.jpg	NY	Right	Yes	0.659296700265259	0	379888	235
743.009765625	1	taste	trialStart	2	86	26	foodImage.87	FOODEEG_Images\0873.jpg	NY	Left	No	0.831558499950916	0	380422	251
744.06640625	2	taste	foodImageDisplay	2	86	26	foodImage.87	FOODEEG_Images\0873.jpg	NY	Left	No	0.831558499950916	0	380963	252
746.12890625	0.831558499950916	taste	choicePhaseStart	2	86	26	foodImage.87	FOODEEG_Images\0873.jpg	NY	Left	No	0.831558499950916	0	382019	253
746.951171875	0	taste	response	2	86	26	foodImage.87	FOODEEG_Images\0873.jpg	NY	Left	No	0.831558499950916	0	382440	234
747.99609375	1	taste	trialStart	2	87	27	foodImage.6	FOODEEG_Images\0113.jpg	NY	Right	Yes	1.2663048999384	0	382975	251
749.0390625	2	taste	foodImageDisplay	2	87	27	foodImage.6	FOODEEG_Images\0113.jpg	NY	Right	Yes	1.2663048999384	0	383509	252
751.1015625	1.2663048999384	taste	choicePhaseStart	2	87	27	foodImage.6	FOODEEG_Images\0113.jpg	NY	Right	Yes	1.2663048999384	0	384565	253
752.359375	0	taste	response	2	87	27	foodImage.6	FOODEEG_Images\0113.jpg	NY	Right	Yes	1.2663048999384	0	385209	235
753.400390625	1	health	trialStart	2	88	28	foodImage.55	FOODEEG_Images\0567.jpg	NY	Right	Yes	1.48837199993432	0	385742	251
754.462890625	2	health	foodImageDisplay	2	88	28	foodImage.55	FOODEEG_Images\0567.jpg	NY	Right	Yes	1.48837199993432	0	386286	252
756.525390625	1.48837199993432	health	choicePhaseStart	2	88	28	foodImage.55	FOODEEG_Images\0567.jpg	NY	Right	Yes	1.48837199993432	0	387342	253
758.005859375	0	health	response	2	88	28	foodImage.55	FOODEEG_Images\0567.jpg	NY	Right	Yes	1.48837199993432	0	388100	235
759.05078125	1	decision	trialStart	2	89	29	foodImage.11	FOODEEG_Images\0180.jpg	YN	Left	Yes	0.879068699665368	0	388635	251
760.09375	2	decision	foodImageDisplay	2	89	29	foodImage.11	FOODEEG_Images\0180.jpg	YN	Left	Yes	0.879068699665368	0	389169	252
762.16015625	0.879068699665368	decision	choicePhaseStart	2	89	29	foodImage.11	FOODEEG_Images\0180.jpg	YN	Left	Yes	0.879068699665368	0	390227	253
763.029296875	0	decision	response	2	89	29	foodImage.11	FOODEEG_Images\0180.jpg	YN	Left	Yes	0.879068699665368	0	390672	234
764.072265625	1	decision	trialStart	2	90	30	foodImage.113	FOODEEG_Images\0921.jpg	YN	Right	No	0.829746599774808	0	391206	251
765.119140625	2	decision	foodImageDisplay	2	90	30	foodImage.113	FOODEEG_Images\0921.jpg	YN	Right	No	0.829746599774808	0	391742	252
767.185546875	0.829746599774808	decision	choicePhaseStart	2	90	30	foodImage.113	FOODEEG_Images\0921.jpg	YN	Right	No	0.829746599774808	0	392800	253
768.005859375	0	decision	response	2	90	30	foodImage.113	FOODEEG_Images\0921.jpg	YN	Right	No	0.829746599774808	0	393220	235
769.048828125	1	health	trialStart	2	91	31	foodImage.61	FOODEEG_Images\0640.jpg	YN	Left	Yes	0.795456499792635	0	393754	251
770.09375	2	health	foodImageDisplay	2	91	31	foodImage.61	FOODEEG_Images\0640.jpg	YN	Left	Yes	0.795456499792635	0	394289	252
772.15625	0.795456499792635	health	choicePhaseStart	2	91	31	foodImage.61	FOODEEG_Images\0640.jpg	YN	Left	Yes	0.795456499792635	0	395345	253
772.94140625	0	health	response	2	91	31	foodImage.61	FOODEEG_Images\0640.jpg	YN	Left	Yes	0.795456499792635	0	395747	234
773.984375	1	taste	trialStart	2	92	32	foodImage.73	FOODEEG_Images\0717.jpg	NY	Right	Yes	1.30336090037599	0	396281	251
775.041015625	2	taste	foodImageDisplay	2	92	32	foodImage.73	FOODEEG_Images\0717.jpg	NY	Right	Yes	1.30336090037599	0	396822	252
777.103515625	1.30336090037599	taste	choicePhaseStart	2	92	32	foodImage.73	FOODEEG_Images\0717.jpg	NY	Right	Yes	1.30336090037599	0	397878	253
778.3984375	0	taste	response	2	92	32	foodImage.73	FOODEEG_Images\0717.jpg	NY	Right	Yes	1.30336090037599	0	398541	235
779.4375	1	decision	trialStart	2	93	33	foodImage.79	FOODEEG_Images\0794.jpg	NY	Right	Yes	0.935841400176287	0	399073	251
780.48046875	2	decision	foodImageDisplay	2	93	33	foodImage.79	FOODEEG_Images\0794.jpg	NY	Right	Yes	0.935841400176287	0	399607	252
782.54296875	0.935841400176287	decision	choicePhaseStart	2	93	33	foodImage.79	FOODEEG_Images\0794.jpg	NY	Right	Yes	0.935841400176287	0	400663	253
783.46875	0	decision	response	2	93	33	foodImage.79	FOODEEG_Images\0794.jpg	NY	Right	Yes	0.935841400176287	0	401137	235
784.51171875	1	decision	trialStart	2	94	34	foodImage.119	FOODEEG_Images\0927.jpg	YN	Right	No	0.841358700301498	0	401671	251
785.55078125	2	decision	foodImageDisplay	2	94	34	foodImage.119	FOODEEG_Images\0927.jpg	YN	Right	No	0.841358700301498	0	402203	252
787.61328125	0.841358700301498	decision	choicePhaseStart	2	94	34	foodImage.119	FOODEEG_Images\0927.jpg	YN	Right	No	0.841358700301498	0	403259	253
788.4453125	0	decision	response	2	94	34	foodImage.119	FOODEEG_Images\0927.jpg	YN	Right	No	0.841358700301498	0	403685	235
789.484375	1	decision	trialStart	2	95	35	foodImage.24	FOODEEG_Images\0250.jpg	NY	Right	Yes	0.79586619976908	0	404217	251
790.5234375	2	decision	foodImageDisplay	2	95	35	foodImage.24	FOODEEG_Images\0250.jpg	NY	Right	Yes	0.79586619976908	0	404749	252
792.5859375	0.79586619976908	decision	choicePhaseStart	2	95	35	foodImage.24	FOODEEG_Images\0250.jpg	NY	Right	Yes	0.79586619976908	0	405805	253
793.373046875	0	decision	response	2	95	35	foodImage.24	FOODEEG_Images\0250.jpg	NY	Right	Yes	0.79586619976908	0	406208	235
794.416015625	1	decision	trialStart	2	96	36	foodImage.96	FOODEEG_Images\0904.jpg	YN	Left	Yes	0.8414352000691	0	406742	251
795.453125	2	decision	foodImageDisplay	2	96	36	foodImage.96	FOODEEG_Images\0904.jpg	YN	Left	Yes	0.8414352000691	0	407273	252
797.515625	0.8414352000691	decision	choicePhaseStart	2	96	36	foodImage.96	FOODEEG_Images\0904.jpg	YN	Left	Yes	0.8414352000691	0	408329	253
798.349609375	0	decision	response	2	96	36	foodImage.96	FOODEEG_Images\0904.jpg	YN	Left	Yes	0.8414352000691	0	408756	234
799.392578125	1	decision	trialStart	2	97	37	foodImage.118	FOODEEG_Images\0926.jpg	NY	Left	No	0.904706400353462	0	409290	251
800.431640625	2	decision	foodImageDisplay	2	97	37	foodImage.118	FOODEEG_Images\0926.jpg	NY	Left	No	0.904706400353462	0	409822	252
802.494140625	0.904706400353462	decision	choicePhaseStart	2	97	37	foodImage.118	FOODEEG_Images\0926.jpg	NY	Left	No	0.904706400353462	0	410878	253
803.388671875	0	decision	response	2	97	37	foodImage.118	FOODEEG_Images\0926.jpg	NY	Left	No	0.904706400353462	0	411336	234
804.431640625	1	health	trialStart	2	98	38	foodImage.74	FOODEEG_Images\0752.jpg	NY	Right	Yes	1.59533839998767	0	411870	251
805.474609375	2	health	foodImageDisplay	2	98	38	foodImage.74	FOODEEG_Images\0752.jpg	NY	Right	Yes	1.59533839998767	0	412404	252
807.537109375	1.59533839998767	health	choicePhaseStart	2	98	38	foodImage.74	FOODEEG_Images\0752.jpg	NY	Right	Yes	1.59533839998767	0	413460	253
809.125	0	health	response	2	98	38	foodImage.74	FOODEEG_Images\0752.jpg	NY	Right	Yes	1.59533839998767	0	414273	235
810.16796875	1	taste	trialStart	2	99	39	foodImage.49	FOODEEG_Images\0515.jpg	NY	Right	Yes	0.740500200074166	0	414807	251
811.21875	2	taste	foodImageDisplay	2	99	39	foodImage.49	FOODEEG_Images\0515.jpg	NY	Right	Yes	0.740500200074166	0	415345	252
813.28125	0.740500200074166	taste	choicePhaseStart	2	99	39	foodImage.49	FOODEEG_Images\0515.jpg	NY	Right	Yes	0.740500200074166	0	416401	253
814.01171875	0	taste	response	2	99	39	foodImage.49	FOODEEG_Images\0515.jpg	NY	Right	Yes	0.740500200074166	0	416775	235
815.0546875	1	decision	trialStart	2	100	40	foodImage.2	FOODEEG_Images\0028.jpg	YN	Left	Yes	1.21240120008588	0	417309	251
816.09765625	2	decision	foodImageDisplay	2	100	40	foodImage.2	FOODEEG_Images\0028.jpg	YN	Left	Yes	1.21240120008588	0	417843	252
818.16015625	1.21240120008588	decision	choicePhaseStart	2	100	40	foodImage.2	FOODEEG_Images\0028.jpg	YN	Left	Yes	1.21240120008588	0	418899	253
819.36328125	0	decision	response	2	100	40	foodImage.2	FOODEEG_Images\0028.jpg	YN	Left	Yes	1.21240120008588	0	419515	234
820.40625	1	decision	trialStart	2	101	41	foodImage.46	FOODEEG_Images\0479.jpg	YN	Left	Yes	0.774035099893808	0	420049	251
821.46484375	2	decision	foodImageDisplay	2	101	41	foodImage.46	FOODEEG_Images\0479.jpg	YN	Left	Yes	0.774035099893808	0	420591	252
823.525390625	0.774035099893808	decision	choicePhaseStart	2	101	41	foodImage.46	FOODEEG_Images\0479.jpg	YN	Left	Yes	0.774035099893808	0	421646	253
824.291015625	0	decision	response	2	101	41	foodImage.46	FOODEEG_Images\0479.jpg	YN	Left	Yes	0.774035099893808	0	422038	234
825.333984375	1	taste	trialStart	2	102	42	foodImage.96	FOODEEG_Images\0904.jpg	NY	Right	Yes	0.720778900198638	0	422572	251
826.373046875	2	taste	foodImageDisplay	2	102	42	foodImage.96	FOODEEG_Images\0904.jpg	NY	Right	Yes	0.720778900198638	0	423104	252
828.435546875	0.720778900198638	taste	choicePhaseStart	2	102	42	foodImage.96	FOODEEG_Images\0904.jpg	NY	Right	Yes	0.720778900198638	0	424160	253
829.146484375	0	taste	response	2	102	42	foodImage.96	FOODEEG_Images\0904.jpg	NY	Right	Yes	0.720778900198638	0	424524	235
830.1875	1	decision	trialStart	2	103	43	foodImage.70	FOODEEG_Images\0705.jpg	NY	Right	Yes	0.788802199997008	0	425057	251
831.248046875	2	decision	foodImageDisplay	2	103	43	foodImage.70	FOODEEG_Images\0705.jpg	NY	Right	Yes	0.788802199997008	0	425600	252
833.3125	0.788802199997008	decision	choicePhaseStart	2	103	43	foodImage.70	FOODEEG_Images\0705.jpg	NY	Right	Yes	0.788802199997008	0	426657	253
834.091796875	0	decision	response	2	103	43	foodImage.70	FOODEEG_Images\0705.jpg	NY	Right	Yes	0.788802199997008	0	427056	235
835.138671875	1	health	trialStart	2	104	44	foodImage.71	FOODEEG_Images\0713.jpg	YN	Right	No	0.96836100006476	0	427592	251
836.181640625	2	health	foodImageDisplay	2	104	44	foodImage.71	FOODEEG_Images\0713.jpg	YN	Right	No	0.96836100006476	0	428126	252
838.244140625	0.96836100006476	health	choicePhaseStart	2	104	44	foodImage.71	FOODEEG_Images\0713.jpg	YN	Right	No	0.96836100006476	0	429182	253
839.203125	0	health	response	2	104	44	foodImage.71	FOODEEG_Images\0713.jpg	YN	Right	No	0.96836100006476	0	429673	235
840.24609375	1	decision	trialStart	2	105	45	foodImage.107	FOODEEG_Images\0915.jpg	YN	Right	No	0.924743699841201	0	430207	251
841.2890625	2	decision	foodImageDisplay	2	105	45	foodImage.107	FOODEEG_Images\0915.jpg	YN	Right	No	0.924743699841201	0	430741	252
843.3515625	0.924743699841201	decision	choicePhaseStart	2	105	45	foodImage.107	FOODEEG_Images\0915.jpg	YN	Right	No	0.924743699841201	0	431797	253
844.267578125	0	decision	response	2	105	45	foodImage.107	FOODEEG_Images\0915.jpg	YN	Right	No	0.924743699841201	0	432266	235
845.30859375	1	taste	trialStart	2	106	46	foodImage.115	FOODEEG_Images\0923.jpg	YN	Right	No	1.35906089982018	0	432799	251
846.349609375	2	taste	foodImageDisplay	2	106	46	foodImage.115	FOODEEG_Images\0923.jpg	YN	Right	No	1.35906089982018	0	433332	252
848.412109375	1.35906089982018	taste	choicePhaseStart	2	106	46	foodImage.115	FOODEEG_Images\0923.jpg	YN	Right	No	1.35906089982018	0	434388	253
849.763671875	0	taste	response	2	106	46	foodImage.115	FOODEEG_Images\0923.jpg	YN	Right	No	1.35906089982018	0	435080	235
850.8046875	1	decision	trialStart	2	107	47	foodImage.9	FOODEEG_Images\0138.jpg	YN	Left	Yes	0.8182319002226	0	435613	251
851.859375	2	decision	foodImageDisplay	2	107	47	foodImage.9	FOODEEG_Images\0138.jpg	YN	Left	Yes	0.8182319002226	0	436153	252
853.921875	0.8182319002226	decision	choicePhaseStart	2	107	47	foodImage.9	FOODEEG_Images\0138.jpg	YN	Left	Yes	0.8182319002226	0	437209	253
854.73046875	0	decision	response	2	107	47	foodImage.9	FOODEEG_Images\0138.jpg	YN	Left	Yes	0.8182319002226	0	437623	234
855.78515625	1	health	trialStart	2	108	48	foodImage.120	FOODEEG_Images\0928.jpg	NY	Left	No	1.51826759986579	0	438163	251
856.822265625	2	health	foodImageDisplay	2	108	48	foodImage.120	FOODEEG_Images\0928.jpg	NY	Left	No	1.51826759986579	0	438694	252
858.884765625	1.51826759986579	health	choicePhaseStart	2	108	48	foodImage.120	FOODEEG_Images\0928.jpg	NY	Left	No	1.51826759986579	0	439750	253
860.39453125	0	health	response	2	108	48	foodImage.120	FOODEEG_Images\0928.jpg	NY	Left	No	1.51826759986579	0	440523	234
861.4375	1	taste	trialStart	2	109	49	foodImage.14	FOODEEG_Images\0188.jpg	YN	Left	Yes	0.835045500192791	0	441057	251
862.505859375	2	taste	foodImageDisplay	2	109	49	foodImage.14	FOODEEG_Images\0188.jpg	YN	Left	Yes	0.835045500192791	0	441604	252
864.568359375	0.835045500192791	taste	choicePhaseStart	2	109	49	foodImage.14	FOODEEG_Images\0188.jpg	YN	Left	Yes	0.835045500192791	0	442660	253
865.39453125	0	taste	response	2	109	49	foodImage.14	FOODEEG_Images\0188.jpg	YN	Left	Yes	0.835045500192791	0	443083	234
866.44140625	1	decision	trialStart	2	110	50	foodImage.54	FOODEEG_Images\0560.jpg	YN	Left	Yes	0.726921999827027	0	443619	251
867.509765625	2	decision	foodImageDisplay	2	110	50	foodImage.54	FOODEEG_Images\0560.jpg	YN	Left	Yes	0.726921999827027	0	444166	252
869.572265625	0.726921999827027	decision	choicePhaseStart	2	110	50	foodImage.54	FOODEEG_Images\0560.jpg	YN	Left	Yes	0.726921999827027	0	445222	253
870.291015625	0	decision	response	2	110	50	foodImage.54	FOODEEG_Images\0560.jpg	YN	Left	Yes	0.726921999827027	0	445590	234
871.33203125	1	decision	trialStart	2	111	51	foodImage.117	FOODEEG_Images\0925.jpg	YN	Right	No	1.31932169990614	0	446123	251
872.37109375	2	decision	foodImageDisplay	2	111	51	foodImage.117	FOODEEG_Images\0925.jpg	YN	Right	No	1.31932169990614	0	446655	252
874.43359375	1.31932169990614	decision	choicePhaseStart	2	111	51	foodImage.117	FOODEEG_Images\0925.jpg	YN	Right	No	1.31932169990614	0	447711	253
875.74609375	0	decision	response	2	111	51	foodImage.117	FOODEEG_Images\0925.jpg	YN	Right	No	1.31932169990614	0	448383	235
876.7890625	1	health	trialStart	2	112	52	foodImage.7	FOODEEG_Images\0116.jpg	YN	Right	No	0.822462699841708	0	448917	251
877.830078125	2	health	foodImageDisplay	2	112	52	foodImage.7	FOODEEG_Images\0116.jpg	YN	Right	No	0.822462699841708	0	449450	252
879.892578125	0.822462699841708	health	choicePhaseStart	2	112	52	foodImage.7	FOODEEG_Images\0116.jpg	YN	Right	No	0.822462699841708	0	450506	253
880.705078125	0	health	response	2	112	52	foodImage.7	FOODEEG_Images\0116.jpg	YN	Right	No	0.822462699841708	0	450922	235
881.75	1	decision	trialStart	2	113	53	foodImage.74	FOODEEG_Images\0752.jpg	YN	Left	Yes	0.701603299938142	0	451457	251
882.798828125	2	decision	foodImageDisplay	2	113	53	foodImage.74	FOODEEG_Images\0752.jpg	YN	Left	Yes	0.701603299938142	0	451994	252
884.861328125	0.701603299938142	decision	choicePhaseStart	2	113	53	foodImage.74	FOODEEG_Images\0752.jpg	YN	Left	Yes	0.701603299938142	0	453050	253
885.552734375	0	decision	response	2	113	53	foodImage.74	FOODEEG_Images\0752.jpg	YN	Left	Yes	0.701603299938142	0	453404	234
886.6015625	1	health	trialStart	2	114	54	foodImage.81	FOODEEG_Images\0797.jpg	YN	Left	Yes	0.694345199968666	0	453941	251
887.66015625	2	health	foodImageDisplay	2	114	54	foodImage.81	FOODEEG_Images\0797.jpg	YN	Left	Yes	0.694345199968666	0	454483	252
889.72265625	0.694345199968666	health	choicePhaseStart	2	114	54	foodImage.81	FOODEEG_Images\0797.jpg	YN	Left	Yes	0.694345199968666	0	455539	253
890.408203125	0	health	response	2	114	54	foodImage.81	FOODEEG_Images\0797.jpg	YN	Left	Yes	0.694345199968666	0	455890	234
891.451171875	1	health	trialStart	2	115	55	foodImage.39	FOODEEG_Images\0367.jpg	NY	Left	No	1.04777629999444	0	456424	251
892.4921875	2	health	foodImageDisplay	2	115	55	foodImage.39	FOODEEG_Images\0367.jpg	NY	Left	No	1.04777629999444	0	456957	252
894.5546875	1.04777629999444	health	choicePhaseStart	2	115	55	foodImage.39	FOODEEG_Images\0367.jpg	NY	Left	No	1.04777629999444	0	458013	253
895.59375	0	health	response	2	115	55	foodImage.39	FOODEEG_Images\0367.jpg	NY	Left	No	1.04777629999444	0	458545	234
896.63671875	1	taste	trialStart	2	116	56	foodImage.48	FOODEEG_Images\0494.jpg	NY	Right	Yes	0.700356299988925	0	459079	251
897.677734375	2	taste	foodImageDisplay	2	116	56	foodImage.48	FOODEEG_Images\0494.jpg	NY	Right	Yes	0.700356299988925	0	459612	252
899.740234375	0.700356299988925	taste	choicePhaseStart	2	116	56	foodImage.48	FOODEEG_Images\0494.jpg	NY	Right	Yes	0.700356299988925	0	460668	253
900.43359375	0	taste	response	2	116	56	foodImage.48	FOODEEG_Images\0494.jpg	NY	Right	Yes	0.700356299988925	0	461023	235
901.4765625	1	health	trialStart	2	117	57	foodImage.40	FOODEEG_Images\0373.jpg	YN	Right	No	1.04944170033559	0	461557	251
902.521484375	2	health	foodImageDisplay	2	117	57	foodImage.40	FOODEEG_Images\0373.jpg	YN	Right	No	1.04944170033559	0	462092	252
904.583984375	1.04944170033559	health	choicePhaseStart	2	117	57	foodImage.40	FOODEEG_Images\0373.jpg	YN	Right	No	1.04944170033559	0	463148	253
905.625	0	health	response	2	117	57	foodImage.40	FOODEEG_Images\0373.jpg	YN	Right	No	1.04944170033559	0	463681	235
906.671875	1	taste	trialStart	2	118	58	foodImage.51	FOODEEG_Images\0536.jpg	YN	Left	Yes	0.860797700006515	0	464217	251
907.716796875	2	taste	foodImageDisplay	2	118	58	foodImage.51	FOODEEG_Images\0536.jpg	YN	Left	Yes	0.860797700006515	0	464752	252
909.78125	0.860797700006515	taste	choicePhaseStart	2	118	58	foodImage.51	FOODEEG_Images\0536.jpg	YN	Left	Yes	0.860797700006515	0	465809	253
910.6328125	0	taste	response	2	118	58	foodImage.51	FOODEEG_Images\0536.jpg	YN	Left	Yes	0.860797700006515	0	466245	234
911.67578125	1	health	trialStart	2	119	59	foodImage.18	FOODEEG_Images\0202.jpg	NY	Right	Yes	0.695693199988455	0	466779	251
912.73828125	2	health	foodImageDisplay	2	119	59	foodImage.18	FOODEEG_Images\0202.jpg	NY	Right	Yes	0.695693199988455	0	467323	252
914.80078125	0.695693199988455	health	choicePhaseStart	2	119	59	foodImage.18	FOODEEG_Images\0202.jpg	NY	Right	Yes	0.695693199988455	0	468379	253
915.48828125	0	health	response	2	119	59	foodImage.18	FOODEEG_Images\0202.jpg	NY	Right	Yes	0.695693199988455	0	468731	235
916.53125	1	health	trialStart	2	120	60	foodImage.36	FOODEEG_Images\0352.jpg	YN	Right	No	1.23432050039992	0	469265	251
917.59375	2	health	foodImageDisplay	2	120	60	foodImage.36	FOODEEG_Images\0352.jpg	YN	Right	No	1.23432050039992	0	469809	252
919.65625	1.23432050039992	health	choicePhaseStart	2	120	60	foodImage.36	FOODEEG_Images\0352.jpg	YN	Right	No	1.23432050039992	0	470865	253
920.880859375	0	health	response	2	120	60	foodImage.36	FOODEEG_Images\0352.jpg	YN	Right	No	1.23432050039992	0	471492	235
922.921875	10.9921875	n/a	blockEnd	n/a	n/a	n/a	n/a	n/a	n/a	n/a	n/a	n/a	n/a	472537	254
933.9140625	2	n/a	blockStart	3	n/a	n/a	n/a	n/a	n/a	n/a	n/a	n/a	n/a	478165	250
935.94921875	1	decision	trialStart	3	121	1	foodImage.105	FOODEEG_Images\0913.jpg	YN	Right	No	1.16099380003288	0	479207	251
936.990234375	2	decision	foodImageDisplay	3	121	1	foodImage.105	FOODEEG_Images\0913.jpg	YN	Right	No	1.16099380003288	0	479740	252
939.0546875	1.16099380003288	decision	choicePhaseStart	3	121	1	foodImage.105	FOODEEG_Images\0913.jpg	YN	Right	No	1.16099380003288	0	480797	253
940.20703125	0	decision	response	3	121	1	foodImage.105	FOODEEG_Images\0913.jpg	YN	Right	No	1.16099380003288	0	481387	235
941.25	1	taste	trialStart	3	122	2	foodImage.103	FOODEEG_Images\0911.jpg	YN	Right	No	0.643333800137043	0	481921	251
942.287109375	2	taste	foodImageDisplay	3	122	2	foodImage.103	FOODEEG_Images\0911.jpg	YN	Right	No	0.643333800137043	0	482452	252
944.349609375	0.643333800137043	taste	choicePhaseStart	3	122	2	foodImage.103	FOODEEG_Images\0911.jpg	YN	Right	No	0.643333800137043	0	483508	253
944.982421875	0	taste	response	3	122	2	foodImage.103	FOODEEG_Images\0911.jpg	YN	Right	No	0.643333800137043	0	483832	235
946.025390625	1	health	trialStart	3	123	3	foodImage.5	FOODEEG_Images\0107.jpg	NY	Left	No	0.884961899835616	0	484366	251
947.107421875	2	health	foodImageDisplay	3	123	3	foodImage.5	FOODEEG_Images\0107.jpg	NY	Left	No	0.884961899835616	0	484920	252
949.169921875	0.884961899835616	health	choicePhaseStart	3	123	3	foodImage.5	FOODEEG_Images\0107.jpg	NY	Left	No	0.884961899835616	0	485976	253
950.046875	0	health	response	3	123	3	foodImage.5	FOODEEG_Images\0107.jpg	NY	Left	No	0.884961899835616	0	486425	234
951.08984375	1	taste	trialStart	3	124	4	foodImage.85	FOODEEG_Images\0841.jpg	NY	Right	Yes	1.0276962001808	0	486959	251
952.1484375	2	taste	foodImageDisplay	3	124	4	foodImage.85	FOODEEG_Images\0841.jpg	NY	Right	Yes	1.0276962001808	0	487501	252
954.2109375	1.0276962001808	taste	choicePhaseStart	3	124	4	foodImage.85	FOODEEG_Images\0841.jpg	NY	Right	Yes	1.0276962001808	0	488557	253
955.23046875	0	taste	response	3	124	4	foodImage.85	FOODEEG_Images\0841.jpg	NY	Right	Yes	1.0276962001808	0	489079	235
956.2734375	1	health	trialStart	3	125	5	foodImage.76	FOODEEG_Images\0766.jpg	YN	Left	Yes	0.844591800123453	0	489613	251
957.3203125	2	health	foodImageDisplay	3	125	5	foodImage.76	FOODEEG_Images\0766.jpg	YN	Left	Yes	0.844591800123453	0	490149	252
959.384765625	0.844591800123453	health	choicePhaseStart	3	125	5	foodImage.76	FOODEEG_Images\0766.jpg	YN	Left	Yes	0.844591800123453	0	491206	253
960.22265625	0	health	response	3	125	5	foodImage.76	FOODEEG_Images\0766.jpg	YN	Left	Yes	0.844591800123453	0	491635	234
961.271484375	1	health	trialStart	3	126	6	foodImage.110	FOODEEG_Images\0918.jpg	NY	Left	No	1.19986549997702	0	492172	251
962.3125	2	health	foodImageDisplay	3	126	6	foodImage.110	FOODEEG_Images\0918.jpg	NY	Left	No	1.19986549997702	0	492705	252
964.375	1.19986549997702	health	choicePhaseStart	3	126	6	foodImage.110	FOODEEG_Images\0918.jpg	NY	Left	No	1.19986549997702	0	493761	253
965.56640625	0	health	response	3	126	6	foodImage.110	FOODEEG_Images\0918.jpg	NY	Left	No	1.19986549997702	0	494371	234
966.60546875	1	taste	trialStart	3	127	7	foodImage.21	FOODEEG_Images\0234.jpg	YN	Left	Yes	3.31864829966798	0	494903	251
967.6875	2	taste	foodImageDisplay	3	127	7	foodImage.21	FOODEEG_Images\0234.jpg	YN	Left	Yes	3.31864829966798	0	495457	252
969.75	3.31864829966798	taste	choicePhaseStart	3	127	7	foodImage.21	FOODEEG_Images\0234.jpg	YN	Left	Yes	3.31864829966798	0	496513	253
973.0625	0	taste	response	3	127	7	foodImage.21	FOODEEG_Images\0234.jpg	YN	Left	Yes	3.31864829966798	0	498209	234
974.107421875	1	decision	trialStart	3	128	8	foodImage.41	FOODEEG_Images\0409.jpg	NY	Right	Yes	1.01976309996098	0	498744	251
975.154296875	2	decision	foodImageDisplay	3	128	8	foodImage.41	FOODEEG_Images\0409.jpg	NY	Right	Yes	1.01976309996098	0	499280	252
977.21875	1.01976309996098	decision	choicePhaseStart	3	128	8	foodImage.41	FOODEEG_Images\0409.jpg	NY	Right	Yes	1.01976309996098	0	500337	253
978.228515625	0	decision	response	3	128	8	foodImage.41	FOODEEG_Images\0409.jpg	NY	Right	Yes	1.01976309996098	0	500854	235
979.2734375	1	taste	trialStart	3	129	9	foodImage.5	FOODEEG_Images\0107.jpg	NY	Right	Yes	0.698764599859715	0	501389	251
980.333984375	2	taste	foodImageDisplay	3	129	9	foodImage.5	FOODEEG_Images\0107.jpg	NY	Right	Yes	0.698764599859715	0	501932	252
982.396484375	0.698764599859715	taste	choicePhaseStart	3	129	9	foodImage.5	FOODEEG_Images\0107.jpg	NY	Right	Yes	0.698764599859715	0	502988	253
983.0859375	0	taste	response	3	129	9	foodImage.5	FOODEEG_Images\0107.jpg	NY	Right	Yes	0.698764599859715	0	503341	235
984.134765625	1	taste	trialStart	3	130	10	foodImage.22	FOODEEG_Images\0236.jpg	YN	Left	Yes	0.736647600308061	0	503878	251
985.17578125	2	taste	foodImageDisplay	3	130	10	foodImage.22	FOODEEG_Images\0236.jpg	YN	Left	Yes	0.736647600308061	0	504411	252
987.23828125	0.736647600308061	taste	choicePhaseStart	3	130	10	foodImage.22	FOODEEG_Images\0236.jpg	YN	Left	Yes	0.736647600308061	0	505467	253
987.96484375	0	taste	response	3	130	10	foodImage.22	FOODEEG_Images\0236.jpg	YN	Left	Yes	0.736647600308061	0	505839	234
989.009765625	1	taste	trialStart	3	131	11	foodImage.13	FOODEEG_Images\0183.jpg	NY	Right	Yes	0.751244999933988	0	506374	251
990.056640625	2	taste	foodImageDisplay	3	131	11	foodImage.13	FOODEEG_Images\0183.jpg	NY	Right	Yes	0.751244999933988	0	506910	252
992.12109375	0.751244999933988	taste	choicePhaseStart	3	131	11	foodImage.13	FOODEEG_Images\0183.jpg	NY	Right	Yes	0.751244999933988	0	507967	253
992.861328125	0	taste	response	3	131	11	foodImage.13	FOODEEG_Images\0183.jpg	NY	Right	Yes	0.751244999933988	0	508346	235
993.904296875	1	taste	trialStart	3	132	12	foodImage.67	FOODEEG_Images\0679.jpg	YN	Left	Yes	0.638236499857157	0	508880	251
994.9609375	2	taste	foodImageDisplay	3	132	12	foodImage.67	FOODEEG_Images\0679.jpg	YN	Left	Yes	0.638236499857157	0	509421	252
997.0234375	0.638236499857157	taste	choicePhaseStart	3	132	12	foodImage.67	FOODEEG_Images\0679.jpg	YN	Left	Yes	0.638236499857157	0	510477	253
997.65234375	0	taste	response	3	132	12	foodImage.67	FOODEEG_Images\0679.jpg	YN	Left	Yes	0.638236499857157	0	510799	234
998.69140625	1	taste	trialStart	3	133	13	foodImage.24	FOODEEG_Images\0250.jpg	NY	Right	Yes	0.768490999937057	0	511331	251
999.734375	2	taste	foodImageDisplay	3	133	13	foodImage.24	FOODEEG_Images\0250.jpg	NY	Right	Yes	0.768490999937057	0	511865	252
1001.796875	0.768490999937057	taste	choicePhaseStart	3	133	13	foodImage.24	FOODEEG_Images\0250.jpg	NY	Right	Yes	0.768490999937057	0	512921	253
1002.556640625	0	taste	response	3	133	13	foodImage.24	FOODEEG_Images\0250.jpg	NY	Right	Yes	0.768490999937057	0	513310	235
1003.599609375	1	taste	trialStart	3	134	14	foodImage.26	FOODEEG_Images\0262.jpg	NY	Left	No	0.854570399969816	0	513844	251
1004.640625	2	taste	foodImageDisplay	3	134	14	foodImage.26	FOODEEG_Images\0262.jpg	NY	Left	No	0.854570399969816	0	514377	252
1006.703125	0.854570399969816	taste	choicePhaseStart	3	134	14	foodImage.26	FOODEEG_Images\0262.jpg	NY	Left	No	0.854570399969816	0	515433	253
1007.548828125	0	taste	response	3	134	14	foodImage.26	FOODEEG_Images\0262.jpg	NY	Left	No	0.854570399969816	0	515866	234
1008.59375	1	taste	trialStart	3	135	15	foodImage.101	FOODEEG_Images\0909.jpg	YN	Right	No	0.784452999942005	0	516401	251
1009.630859375	2	taste	foodImageDisplay	3	135	15	foodImage.101	FOODEEG_Images\0909.jpg	YN	Right	No	0.784452999942005	0	516932	252
1011.693359375	0.784452999942005	taste	choicePhaseStart	3	135	15	foodImage.101	FOODEEG_Images\0909.jpg	YN	Right	No	0.784452999942005	0	517988	253
1012.46875	0	taste	response	3	135	15	foodImage.101	FOODEEG_Images\0909.jpg	YN	Right	No	0.784452999942005	0	518385	235
1013.51171875	1	taste	trialStart	3	136	16	foodImage.23	FOODEEG_Images\0244.jpg	YN	Left	Yes	0.865180999971926	0	518919	251
1014.556640625	2	taste	foodImageDisplay	3	136	16	foodImage.23	FOODEEG_Images\0244.jpg	YN	Left	Yes	0.865180999971926	0	519454	252
1016.619140625	0.865180999971926	taste	choicePhaseStart	3	136	16	foodImage.23	FOODEEG_Images\0244.jpg	YN	Left	Yes	0.865180999971926	0	520510	253
1017.4765625	0	taste	response	3	136	16	foodImage.23	FOODEEG_Images\0244.jpg	YN	Left	Yes	0.865180999971926	0	520949	234
1018.521484375	1	taste	trialStart	3	137	17	foodImage.18	FOODEEG_Images\0202.jpg	YN	Left	Yes	0.752089000307024	0	521484	251
1019.58203125	2	taste	foodImageDisplay	3	137	17	foodImage.18	FOODEEG_Images\0202.jpg	YN	Left	Yes	0.752089000307024	0	522027	252
1021.64453125	0.752089000307024	taste	choicePhaseStart	3	137	17	foodImage.18	FOODEEG_Images\0202.jpg	YN	Left	Yes	0.752089000307024	0	523083	253
1022.388671875	0	taste	response	3	137	17	foodImage.18	FOODEEG_Images\0202.jpg	YN	Left	Yes	0.752089000307024	0	523464	234
1023.431640625	1	decision	trialStart	3	138	18	foodImage.67	FOODEEG_Images\0679.jpg	NY	Right	Yes	0.810386400204152	0	523998	251
1024.490234375	2	decision	foodImageDisplay	3	138	18	foodImage.67	FOODEEG_Images\0679.jpg	NY	Right	Yes	0.810386400204152	0	524540	252
1026.552734375	0.810386400204152	decision	choicePhaseStart	3	138	18	foodImage.67	FOODEEG_Images\0679.jpg	NY	Right	Yes	0.810386400204152	0	525596	253
1027.35546875	0	decision	response	3	138	18	foodImage.67	FOODEEG_Images\0679.jpg	NY	Right	Yes	0.810386400204152	0	526007	235
1028.3984375	1	health	trialStart	3	139	19	foodImage.20	FOODEEG_Images\0226.jpg	NY	Right	Yes	1.07066409988329	0	526541	251
1029.439453125	2	health	foodImageDisplay	3	139	19	foodImage.20	FOODEEG_Images\0226.jpg	NY	Right	Yes	1.07066409988329	0	527074	252
1031.501953125	1.07066409988329	health	choicePhaseStart	3	139	19	foodImage.20	FOODEEG_Images\0226.jpg	NY	Right	Yes	1.07066409988329	0	528130	253
1032.5625	0	health	response	3	139	19	foodImage.20	FOODEEG_Images\0226.jpg	NY	Right	Yes	1.07066409988329	0	528673	235
1033.609375	1	decision	trialStart	3	140	20	foodImage.38	FOODEEG_Images\0365.jpg	YN	Left	Yes	1.24295330001041	0	529209	251
1034.658203125	2	decision	foodImageDisplay	3	140	20	foodImage.38	FOODEEG_Images\0365.jpg	YN	Left	Yes	1.24295330001041	0	529746	252
1036.720703125	1.24295330001041	decision	choicePhaseStart	3	140	20	foodImage.38	FOODEEG_Images\0365.jpg	YN	Left	Yes	1.24295330001041	0	530802	253
1037.955078125	0	decision	response	3	140	20	foodImage.38	FOODEEG_Images\0365.jpg	YN	Left	Yes	1.24295330001041	0	531434	234
1038.99609375	1	health	trialStart	3	141	21	foodImage.57	FOODEEG_Images\0587.jpg	YN	Right	No	0.764957000035793	0	531967	251
1040.0390625	2	health	foodImageDisplay	3	141	21	foodImage.57	FOODEEG_Images\0587.jpg	YN	Right	No	0.764957000035793	0	532501	252
1042.1015625	0.764957000035793	health	choicePhaseStart	3	141	21	foodImage.57	FOODEEG_Images\0587.jpg	YN	Right	No	0.764957000035793	0	533557	253
1042.859375	0	health	response	3	141	21	foodImage.57	FOODEEG_Images\0587.jpg	YN	Right	No	0.764957000035793	0	533945	235
1043.8984375	1	decision	trialStart	3	142	22	foodImage.7	FOODEEG_Images\0116.jpg	NY	Right	Yes	1.17955989995971	0	534477	251
1044.9375	2	decision	foodImageDisplay	3	142	22	foodImage.7	FOODEEG_Images\0116.jpg	NY	Right	Yes	1.17955989995971	0	535009	252
1047	1.17955989995971	decision	choicePhaseStart	3	142	22	foodImage.7	FOODEEG_Images\0116.jpg	NY	Right	Yes	1.17955989995971	0	536065	253
1048.171875	0	decision	response	3	142	22	foodImage.7	FOODEEG_Images\0116.jpg	NY	Right	Yes	1.17955989995971	0	536665	235
1049.2109375	1	health	trialStart	3	143	23	foodImage.87	FOODEEG_Images\0873.jpg	NY	Left	No	0.973295100033283	0	537197	251
1050.26953125	2	health	foodImageDisplay	3	143	23	foodImage.87	FOODEEG_Images\0873.jpg	NY	Left	No	0.973295100033283	0	537739	252
1052.33203125	0.973295100033283	health	choicePhaseStart	3	143	23	foodImage.87	FOODEEG_Images\0873.jpg	NY	Left	No	0.973295100033283	0	538795	253
1053.298828125	0	health	response	3	143	23	foodImage.87	FOODEEG_Images\0873.jpg	NY	Left	No	0.973295100033283	0	539290	234
1054.345703125	1	health	trialStart	3	144	24	foodImage.24	FOODEEG_Images\0250.jpg	YN	Left	Yes	0.916895899921656	0	539826	251
1055.400390625	2	health	foodImageDisplay	3	144	24	foodImage.24	FOODEEG_Images\0250.jpg	YN	Left	Yes	0.916895899921656	0	540366	252
1057.462890625	0.916895899921656	health	choicePhaseStart	3	144	24	foodImage.24	FOODEEG_Images\0250.jpg	YN	Left	Yes	0.916895899921656	0	541422	253
1058.37109375	0	health	response	3	144	24	foodImage.24	FOODEEG_Images\0250.jpg	YN	Left	Yes	0.916895899921656	0	541887	234
1059.412109375	1	decision	trialStart	3	145	25	foodImage.13	FOODEEG_Images\0183.jpg	YN	Left	Yes	0.868210199754685	0	542420	251
1060.470703125	2	decision	foodImageDisplay	3	145	25	foodImage.13	FOODEEG_Images\0183.jpg	YN	Left	Yes	0.868210199754685	0	542962	252
1062.533203125	0.868210199754685	decision	choicePhaseStart	3	145	25	foodImage.13	FOODEEG_Images\0183.jpg	YN	Left	Yes	0.868210199754685	0	544018	253
1063.39453125	0	decision	response	3	145	25	foodImage.13	FOODEEG_Images\0183.jpg	YN	Left	Yes	0.868210199754685	0	544459	234
1064.4375	1	taste	trialStart	3	146	26	foodImage.25	FOODEEG_Images\0261.jpg	NY	Right	Yes	0.59050829987973	0	544993	251
1065.478515625	2	taste	foodImageDisplay	3	146	26	foodImage.25	FOODEEG_Images\0261.jpg	NY	Right	Yes	0.59050829987973	0	545526	252
1067.541015625	0.59050829987973	taste	choicePhaseStart	3	146	26	foodImage.25	FOODEEG_Images\0261.jpg	NY	Right	Yes	0.59050829987973	0	546582	253
1068.123046875	0	taste	response	3	146	26	foodImage.25	FOODEEG_Images\0261.jpg	NY	Right	Yes	0.59050829987973	0	546880	235
1069.162109375	1	taste	trialStart	3	147	27	foodImage.86	FOODEEG_Images\0844.jpg	YN	Left	Yes	1.18577079987153	0	547412	251
1070.21875	2	taste	foodImageDisplay	3	147	27	foodImage.86	FOODEEG_Images\0844.jpg	YN	Left	Yes	1.18577079987153	0	547953	252
1072.28125	1.18577079987153	taste	choicePhaseStart	3	147	27	foodImage.86	FOODEEG_Images\0844.jpg	YN	Left	Yes	1.18577079987153	0	549009	253
1073.45703125	0	taste	response	3	147	27	foodImage.86	FOODEEG_Images\0844.jpg	YN	Left	Yes	1.18577079987153	0	549611	234
1074.5	1	health	trialStart	3	148	28	foodImage.4	FOODEEG_Images\0065.jpg	NY	Left	No	0.948012999724597	0	550145	251
1075.560546875	2	health	foodImageDisplay	3	148	28	foodImage.4	FOODEEG_Images\0065.jpg	NY	Left	No	0.948012999724597	0	550688	252
1077.62109375	0.948012999724597	health	choicePhaseStart	3	148	28	foodImage.4	FOODEEG_Images\0065.jpg	NY	Left	No	0.948012999724597	0	551743	253
1078.5625	0	health	response	3	148	28	foodImage.4	FOODEEG_Images\0065.jpg	NY	Left	No	0.948012999724597	0	552225	234
1079.60546875	1	decision	trialStart	3	149	29	foodImage.10	FOODEEG_Images\0145.jpg	YN	Left	Yes	0.958304900210351	0	552759	251
1080.6875	2	decision	foodImageDisplay	3	149	29	foodImage.10	FOODEEG_Images\0145.jpg	YN	Left	Yes	0.958304900210351	0	553313	252
1082.75	0.958304900210351	decision	choicePhaseStart	3	149	29	foodImage.10	FOODEEG_Images\0145.jpg	YN	Left	Yes	0.958304900210351	0	554369	253
1083.697265625	0	decision	response	3	149	29	foodImage.10	FOODEEG_Images\0145.jpg	YN	Left	Yes	0.958304900210351	0	554854	234
1084.740234375	1	health	trialStart	3	150	30	foodImage.103	FOODEEG_Images\0911.jpg	NY	Left	No	1.01558540016413	0	555388	251
1085.779296875	2	health	foodImageDisplay	3	150	30	foodImage.103	FOODEEG_Images\0911.jpg	NY	Left	No	1.01558540016413	0	555920	252
1087.841796875	1.01558540016413	health	choicePhaseStart	3	150	30	foodImage.103	FOODEEG_Images\0911.jpg	NY	Left	No	1.01558540016413	0	556976	253
1088.849609375	0	health	response	3	150	30	foodImage.103	FOODEEG_Images\0911.jpg	NY	Left	No	1.01558540016413	0	557492	234
1089.892578125	1	taste	trialStart	3	151	31	foodImage.8	FOODEEG_Images\0136.jpg	NY	Left	No	1.11683409987018	0	558026	251
1090.93359375	2	taste	foodImageDisplay	3	151	31	foodImage.8	FOODEEG_Images\0136.jpg	NY	Left	No	1.11683409987018	0	558559	252
1092.99609375	1.11683409987018	taste	choicePhaseStart	3	151	31	foodImage.8	FOODEEG_Images\0136.jpg	NY	Left	No	1.11683409987018	0	559615	253
1094.10546875	0	taste	response	3	151	31	foodImage.8	FOODEEG_Images\0136.jpg	NY	Left	No	1.11683409987018	0	560183	234
1095.14453125	1	health	trialStart	3	152	32	foodImage.89	FOODEEG_Images\0881.jpg	YN	Left	Yes	0.762914800085127	0	560715	251
1096.201171875	2	health	foodImageDisplay	3	152	32	foodImage.89	FOODEEG_Images\0881.jpg	YN	Left	Yes	0.762914800085127	0	561256	252
1098.263671875	0.762914800085127	health	choicePhaseStart	3	152	32	foodImage.89	FOODEEG_Images\0881.jpg	YN	Left	Yes	0.762914800085127	0	562312	253
1099.017578125	0	health	response	3	152	32	foodImage.89	FOODEEG_Images\0881.jpg	YN	Left	Yes	0.762914800085127	0	562698	234
1100.060546875	1	decision	trialStart	3	153	33	foodImage.65	FOODEEG_Images\0658.jpg	NY	Right	Yes	0.854936600197107	0	563232	251
1101.1015625	2	decision	foodImageDisplay	3	153	33	foodImage.65	FOODEEG_Images\0658.jpg	NY	Right	Yes	0.854936600197107	0	563765	252
1103.1640625	0.854936600197107	decision	choicePhaseStart	3	153	33	foodImage.65	FOODEEG_Images\0658.jpg	NY	Right	Yes	0.854936600197107	0	564821	253
1104.009765625	0	decision	response	3	153	33	foodImage.65	FOODEEG_Images\0658.jpg	NY	Right	Yes	0.854936600197107	0	565254	235
1105.052734375	1	health	trialStart	3	154	34	foodImage.53	FOODEEG_Images\0547.jpg	YN	Right	No	0.99326749984175	0	565788	251
1106.130859375	2	health	foodImageDisplay	3	154	34	foodImage.53	FOODEEG_Images\0547.jpg	YN	Right	No	0.99326749984175	0	566340	252
1108.193359375	0.99326749984175	health	choicePhaseStart	3	154	34	foodImage.53	FOODEEG_Images\0547.jpg	YN	Right	No	0.99326749984175	0	567396	253
1109.17578125	0	health	response	3	154	34	foodImage.53	FOODEEG_Images\0547.jpg	YN	Right	No	0.99326749984175	0	567899	235
1110.21875	1	taste	trialStart	3	155	35	foodImage.39	FOODEEG_Images\0367.jpg	YN	Left	Yes	0.932108100038022	0	568433	251
1111.255859375	2	taste	foodImageDisplay	3	155	35	foodImage.39	FOODEEG_Images\0367.jpg	YN	Left	Yes	0.932108100038022	0	568964	252
1113.318359375	0.932108100038022	taste	choicePhaseStart	3	155	35	foodImage.39	FOODEEG_Images\0367.jpg	YN	Left	Yes	0.932108100038022	0	570020	253
1114.240234375	0	taste	response	3	155	35	foodImage.39	FOODEEG_Images\0367.jpg	YN	Left	Yes	0.932108100038022	0	570492	234
1115.279296875	1	decision	trialStart	3	156	36	foodImage.17	FOODEEG_Images\0199.jpg	NY	Right	Yes	1.03496839990839	0	571024	251
1116.3203125	2	decision	foodImageDisplay	3	156	36	foodImage.17	FOODEEG_Images\0199.jpg	NY	Right	Yes	1.03496839990839	0	571557	252
1118.3828125	1.03496839990839	decision	choicePhaseStart	3	156	36	foodImage.17	FOODEEG_Images\0199.jpg	NY	Right	Yes	1.03496839990839	0	572613	253
1119.408203125	0	decision	response	3	156	36	foodImage.17	FOODEEG_Images\0199.jpg	NY	Right	Yes	1.03496839990839	0	573138	235
1120.453125	1	taste	trialStart	3	157	37	foodImage.75	FOODEEG_Images\0763.jpg	YN	Left	Yes	2.45465059997514	0	573673	251
1121.517578125	2	taste	foodImageDisplay	3	157	37	foodImage.75	FOODEEG_Images\0763.jpg	YN	Left	Yes	2.45465059997514	0	574218	252
1123.580078125	2.45465059997514	taste	choicePhaseStart	3	157	37	foodImage.75	FOODEEG_Images\0763.jpg	YN	Left	Yes	2.45465059997514	0	575274	253
1126.0234375	0	taste	response	3	157	37	foodImage.75	FOODEEG_Images\0763.jpg	YN	Left	Yes	2.45465059997514	0	576525	234
1127.0703125	1	decision	trialStart	3	158	38	foodImage.66	FOODEEG_Images\0676.jpg	YN	Left	Yes	0.673516900278628	0	577061	251
1128.12890625	2	decision	foodImageDisplay	3	158	38	foodImage.66	FOODEEG_Images\0676.jpg	YN	Left	Yes	0.673516900278628	0	577603	252
1130.19140625	0.673516900278628	decision	choicePhaseStart	3	158	38	foodImage.66	FOODEEG_Images\0676.jpg	YN	Left	Yes	0.673516900278628	0	578659	253
1130.85546875	0	decision	response	3	158	38	foodImage.66	FOODEEG_Images\0676.jpg	YN	Left	Yes	0.673516900278628	0	578999	234
1131.8984375	1	taste	trialStart	3	159	39	foodImage.36	FOODEEG_Images\0352.jpg	NY	Right	Yes	0.701901900116354	0	579533	251
1132.955078125	2	taste	foodImageDisplay	3	159	39	foodImage.36	FOODEEG_Images\0352.jpg	NY	Right	Yes	0.701901900116354	0	580074	252
1135.017578125	0.701901900116354	taste	choicePhaseStart	3	159	39	foodImage.36	FOODEEG_Images\0352.jpg	NY	Right	Yes	0.701901900116354	0	581130	253
1135.7109375	0	taste	response	3	159	39	foodImage.36	FOODEEG_Images\0352.jpg	NY	Right	Yes	0.701901900116354	0	581485	235
1136.75390625	1	health	trialStart	3	160	40	foodImage.117	FOODEEG_Images\0925.jpg	YN	Right	No	1.02351620001718	0	582019	251
1137.79296875	2	health	foodImageDisplay	3	160	40	foodImage.117	FOODEEG_Images\0925.jpg	YN	Right	No	1.02351620001718	0	582551	252
1139.85546875	1.02351620001718	health	choicePhaseStart	3	160	40	foodImage.117	FOODEEG_Images\0925.jpg	YN	Right	No	1.02351620001718	0	583607	253
1140.87109375	0	health	response	3	160	40	foodImage.117	FOODEEG_Images\0925.jpg	YN	Right	No	1.02351620001718	0	584127	235
1141.9140625	1	health	trialStart	3	161	41	foodImage.65	FOODEEG_Images\0658.jpg	YN	Right	No	1.87689989991486	0	584661	251
1142.95703125	2	health	foodImageDisplay	3	161	41	foodImage.65	FOODEEG_Images\0658.jpg	YN	Right	No	1.87689989991486	0	585195	252
1145.01953125	1.87689989991486	health	choicePhaseStart	3	161	41	foodImage.65	FOODEEG_Images\0658.jpg	YN	Right	No	1.87689989991486	0	586251	253
1146.88671875	0	health	response	3	161	41	foodImage.65	FOODEEG_Images\0658.jpg	YN	Right	No	1.87689989991486	0	587207	235
1147.931640625	1	decision	trialStart	3	162	42	foodImage.56	FOODEEG_Images\0586.jpg	NY	Right	Yes	0.799980100244284	0	587742	251
1148.984375	2	decision	foodImageDisplay	3	162	42	foodImage.56	FOODEEG_Images\0586.jpg	NY	Right	Yes	0.799980100244284	0	588281	252
1151.046875	0.799980100244284	decision	choicePhaseStart	3	162	42	foodImage.56	FOODEEG_Images\0586.jpg	NY	Right	Yes	0.799980100244284	0	589337	253
1151.837890625	0	decision	response	3	162	42	foodImage.56	FOODEEG_Images\0586.jpg	NY	Right	Yes	0.799980100244284	0	589742	235
1152.880859375	1	decision	trialStart	3	163	43	foodImage.108	FOODEEG_Images\0916.jpg	YN	Right	No	0.954067500308156	0	590276	251
1153.919921875	2	decision	foodImageDisplay	3	163	43	foodImage.108	FOODEEG_Images\0916.jpg	YN	Right	No	0.954067500308156	0	590808	252
1155.982421875	0.954067500308156	decision	choicePhaseStart	3	163	43	foodImage.108	FOODEEG_Images\0916.jpg	YN	Right	No	0.954067500308156	0	591864	253
1156.92578125	0	decision	response	3	163	43	foodImage.108	FOODEEG_Images\0916.jpg	YN	Right	No	0.954067500308156	0	592347	235
1157.970703125	1	taste	trialStart	3	164	44	foodImage.77	FOODEEG_Images\0771.jpg	NY	Right	Yes	0.813991100061685	0	592882	251
1159.01953125	2	taste	foodImageDisplay	3	164	44	foodImage.77	FOODEEG_Images\0771.jpg	NY	Right	Yes	0.813991100061685	0	593419	252
1161.08203125	0.813991100061685	taste	choicePhaseStart	3	164	44	foodImage.77	FOODEEG_Images\0771.jpg	NY	Right	Yes	0.813991100061685	0	594475	253
1161.88671875	0	taste	response	3	164	44	foodImage.77	FOODEEG_Images\0771.jpg	NY	Right	Yes	0.813991100061685	0	594887	235
1162.9296875	1	health	trialStart	3	165	45	foodImage.116	FOODEEG_Images\0924.jpg	YN	Right	No	1.37625050032511	0	595421	251
1163.978515625	2	health	foodImageDisplay	3	165	45	foodImage.116	FOODEEG_Images\0924.jpg	YN	Right	No	1.37625050032511	0	595958	252
1166.0390625	1.37625050032511	health	choicePhaseStart	3	165	45	foodImage.116	FOODEEG_Images\0924.jpg	YN	Right	No	1.37625050032511	0	597013	253
1167.40625	0	health	response	3	165	45	foodImage.116	FOODEEG_Images\0924.jpg	YN	Right	No	1.37625050032511	0	597713	235
1168.44921875	1	health	trialStart	3	166	46	foodImage.70	FOODEEG_Images\0705.jpg	YN	Right	No	0.832344400230795	0	598247	251
1169.51171875	2	health	foodImageDisplay	3	166	46	foodImage.70	FOODEEG_Images\0705.jpg	YN	Right	No	0.832344400230795	0	598791	252
1171.576171875	0.832344400230795	health	choicePhaseStart	3	166	46	foodImage.70	FOODEEG_Images\0705.jpg	YN	Right	No	0.832344400230795	0	599848	253
1172.3984375	0	health	response	3	166	46	foodImage.70	FOODEEG_Images\0705.jpg	YN	Right	No	0.832344400230795	0	600269	235
1173.44140625	1	health	trialStart	3	167	47	foodImage.41	FOODEEG_Images\0409.jpg	YN	Left	Yes	0.97585800010711	0	600803	251
1174.48828125	2	health	foodImageDisplay	3	167	47	foodImage.41	FOODEEG_Images\0409.jpg	YN	Left	Yes	0.97585800010711	0	601339	252
1176.55078125	0.97585800010711	health	choicePhaseStart	3	167	47	foodImage.41	FOODEEG_Images\0409.jpg	YN	Left	Yes	0.97585800010711	0	602395	253
1177.517578125	0	health	response	3	167	47	foodImage.41	FOODEEG_Images\0409.jpg	YN	Left	Yes	0.97585800010711	0	602890	234
1178.56640625	1	taste	trialStart	3	168	48	foodImage.47	FOODEEG_Images\0488.jpg	YN	Left	Yes	0.691972499713302	0	603427	251
1179.607421875	2	taste	foodImageDisplay	3	168	48	foodImage.47	FOODEEG_Images\0488.jpg	YN	Left	Yes	0.691972499713302	0	603960	252
1181.66796875	0.691972499713302	taste	choicePhaseStart	3	168	48	foodImage.47	FOODEEG_Images\0488.jpg	YN	Left	Yes	0.691972499713302	0	605015	253
1182.349609375	0	taste	response	3	168	48	foodImage.47	FOODEEG_Images\0488.jpg	YN	Left	Yes	0.691972499713302	0	605364	234
1183.392578125	1	decision	trialStart	3	169	49	foodImage.115	FOODEEG_Images\0923.jpg	NY	Left	No	0.86139059998095	0	605898	251
1184.43359375	2	decision	foodImageDisplay	3	169	49	foodImage.115	FOODEEG_Images\0923.jpg	NY	Left	No	0.86139059998095	0	606431	252
1186.49609375	0.86139059998095	decision	choicePhaseStart	3	169	49	foodImage.115	FOODEEG_Images\0923.jpg	NY	Left	No	0.86139059998095	0	607487	253
1187.349609375	0	decision	response	3	169	49	foodImage.115	FOODEEG_Images\0923.jpg	NY	Left	No	0.86139059998095	0	607924	234
1188.392578125	1	health	trialStart	3	170	50	foodImage.96	FOODEEG_Images\0904.jpg	YN	Left	Yes	0.999593399930745	0	608458	251
1189.431640625	2	health	foodImageDisplay	3	170	50	foodImage.96	FOODEEG_Images\0904.jpg	YN	Left	Yes	0.999593399930745	0	608990	252
1191.494140625	0.999593399930745	health	choicePhaseStart	3	170	50	foodImage.96	FOODEEG_Images\0904.jpg	YN	Left	Yes	0.999593399930745	0	610046	253
1192.486328125	0	health	response	3	170	50	foodImage.96	FOODEEG_Images\0904.jpg	YN	Left	Yes	0.999593399930745	0	610554	234
1193.525390625	1	health	trialStart	3	171	51	foodImage.67	FOODEEG_Images\0679.jpg	YN	Right	No	1.03215860016644	0	611086	251
1194.591796875	2	health	foodImageDisplay	3	171	51	foodImage.67	FOODEEG_Images\0679.jpg	YN	Right	No	1.03215860016644	0	611632	252
1196.654296875	1.03215860016644	health	choicePhaseStart	3	171	51	foodImage.67	FOODEEG_Images\0679.jpg	YN	Right	No	1.03215860016644	0	612688	253
1197.677734375	0	health	response	3	171	51	foodImage.67	FOODEEG_Images\0679.jpg	YN	Right	No	1.03215860016644	0	613212	235
1198.716796875	1	decision	trialStart	3	172	52	foodImage.85	FOODEEG_Images\0841.jpg	YN	Left	Yes	0.963994400110096	0	613744	251
1199.771484375	2	decision	foodImageDisplay	3	172	52	foodImage.85	FOODEEG_Images\0841.jpg	YN	Left	Yes	0.963994400110096	0	614284	252
1201.833984375	0.963994400110096	decision	choicePhaseStart	3	172	52	foodImage.85	FOODEEG_Images\0841.jpg	YN	Left	Yes	0.963994400110096	0	615340	253
1202.7890625	0	decision	response	3	172	52	foodImage.85	FOODEEG_Images\0841.jpg	YN	Left	Yes	0.963994400110096	0	615829	234
1203.830078125	1	health	trialStart	3	173	53	foodImage.15	FOODEEG_Images\0189.jpg	NY	Left	No	0.759851000271738	0	616362	251
1204.888671875	2	health	foodImageDisplay	3	173	53	foodImage.15	FOODEEG_Images\0189.jpg	NY	Left	No	0.759851000271738	0	616904	252
1206.951171875	0.759851000271738	health	choicePhaseStart	3	173	53	foodImage.15	FOODEEG_Images\0189.jpg	NY	Left	No	0.759851000271738	0	617960	253
1207.701171875	0	health	response	3	173	53	foodImage.15	FOODEEG_Images\0189.jpg	NY	Left	No	0.759851000271738	0	618344	234
1208.7421875	1	taste	trialStart	3	174	54	foodImage.84	FOODEEG_Images\0830.jpg	NY	Right	Yes	0.728997600264847	0	618877	251
1209.796875	2	taste	foodImageDisplay	3	174	54	foodImage.84	FOODEEG_Images\0830.jpg	NY	Right	Yes	0.728997600264847	0	619417	252
1211.859375	0.728997600264847	taste	choicePhaseStart	3	174	54	foodImage.84	FOODEEG_Images\0830.jpg	NY	Right	Yes	0.728997600264847	0	620473	253
1212.580078125	0	taste	response	3	174	54	foodImage.84	FOODEEG_Images\0830.jpg	NY	Right	Yes	0.728997600264847	0	620842	235
1213.623046875	1	decision	trialStart	3	175	55	foodImage.37	FOODEEG_Images\0359.jpg	NY	Right	Yes	0.925121699925512	0	621376	251
1214.666015625	2	decision	foodImageDisplay	3	175	55	foodImage.37	FOODEEG_Images\0359.jpg	NY	Right	Yes	0.925121699925512	0	621910	252
1216.728515625	0.925121699925512	decision	choicePhaseStart	3	175	55	foodImage.37	FOODEEG_Images\0359.jpg	NY	Right	Yes	0.925121699925512	0	622966	253
1217.64453125	0	decision	response	3	175	55	foodImage.37	FOODEEG_Images\0359.jpg	NY	Right	Yes	0.925121699925512	0	623435	235
1218.6875	1	decision	trialStart	3	176	56	foodImage.111	FOODEEG_Images\0919.jpg	NY	Left	No	0.888750500045717	0	623969	251
1219.7265625	2	decision	foodImageDisplay	3	176	56	foodImage.111	FOODEEG_Images\0919.jpg	NY	Left	No	0.888750500045717	0	624501	252
1221.787109375	0.888750500045717	decision	choicePhaseStart	3	176	56	foodImage.111	FOODEEG_Images\0919.jpg	NY	Left	No	0.888750500045717	0	625556	253
1222.66796875	0	decision	response	3	176	56	foodImage.111	FOODEEG_Images\0919.jpg	NY	Left	No	0.888750500045717	0	626007	234
1223.7109375	1	health	trialStart	3	177	57	foodImage.22	FOODEEG_Images\0236.jpg	NY	Right	Yes	0.949209300335497	0	626541	251
1224.751953125	2	health	foodImageDisplay	3	177	57	foodImage.22	FOODEEG_Images\0236.jpg	NY	Right	Yes	0.949209300335497	0	627074	252
1226.814453125	0.949209300335497	health	choicePhaseStart	3	177	57	foodImage.22	FOODEEG_Images\0236.jpg	NY	Right	Yes	0.949209300335497	0	628130	253
1227.755859375	0	health	response	3	177	57	foodImage.22	FOODEEG_Images\0236.jpg	NY	Right	Yes	0.949209300335497	0	628612	235
1228.796875	1	decision	trialStart	3	178	58	foodImage.100	FOODEEG_Images\0908.jpg	YN	Right	No	0.748830200172961	0	629145	251
1229.833984375	2	decision	foodImageDisplay	3	178	58	foodImage.100	FOODEEG_Images\0908.jpg	YN	Right	No	0.748830200172961	0	629676	252
1231.896484375	0.748830200172961	decision	choicePhaseStart	3	178	58	foodImage.100	FOODEEG_Images\0908.jpg	YN	Right	No	0.748830200172961	0	630732	253
1232.634765625	0	decision	response	3	178	58	foodImage.100	FOODEEG_Images\0908.jpg	YN	Right	No	0.748830200172961	0	631110	235
1233.681640625	1	taste	trialStart	3	179	59	foodImage.90	FOODEEG_Images\0890.jpg	NY	Right	Yes	0.623952900059521	0	631646	251
1234.740234375	2	taste	foodImageDisplay	3	179	59	foodImage.90	FOODEEG_Images\0890.jpg	NY	Right	Yes	0.623952900059521	0	632188	252
1236.802734375	0.623952900059521	taste	choicePhaseStart	3	179	59	foodImage.90	FOODEEG_Images\0890.jpg	NY	Right	Yes	0.623952900059521	0	633244	253
1237.419921875	0	taste	response	3	179	59	foodImage.90	FOODEEG_Images\0890.jpg	NY	Right	Yes	0.623952900059521	0	633560	235
1238.46875	1	taste	trialStart	3	180	60	foodImage.42	FOODEEG_Images\0438.jpg	YN	Left	Yes	1.36289069987833	0	634097	251
1239.556640625	2	taste	foodImageDisplay	3	180	60	foodImage.42	FOODEEG_Images\0438.jpg	YN	Left	Yes	1.36289069987833	0	634654	252
1241.619140625	1.36289069987833	taste	choicePhaseStart	3	180	60	foodImage.42	FOODEEG_Images\0438.jpg	YN	Left	Yes	1.36289069987833	0	635710	253
1242.970703125	0	taste	response	3	180	60	foodImage.42	FOODEEG_Images\0438.jpg	YN	Left	Yes	1.36289069987833	0	636402	234
1245.009765625	20.33984375	n/a	blockEnd	n/a	n/a	n/a	n/a	n/a	n/a	n/a	n/a	n/a	n/a	637446	254
1265.349609375	2	n/a	blockStart	4	n/a	n/a	n/a	n/a	n/a	n/a	n/a	n/a	n/a	647860	250
1267.388671875	1	taste	trialStart	4	181	1	foodImage.15	FOODEEG_Images\0189.jpg	NY	Right	Yes	0.79073810018599	0	648904	251
1268.443359375	2	taste	foodImageDisplay	4	181	1	foodImage.15	FOODEEG_Images\0189.jpg	NY	Right	Yes	0.79073810018599	0	649444	252
1270.5078125	0.79073810018599	taste	choicePhaseStart	4	181	1	foodImage.15	FOODEEG_Images\0189.jpg	NY	Right	Yes	0.79073810018599	0	650501	253
1271.2890625	0	taste	response	4	181	1	foodImage.15	FOODEEG_Images\0189.jpg	NY	Right	Yes	0.79073810018599	0	650901	235
1272.333984375	1	health	trialStart	4	182	2	foodImage.50	FOODEEG_Images\0529.jpg	NY	Right	Yes	1.04612579988316	0	651436	251
1273.390625	2	health	foodImageDisplay	4	182	2	foodImage.50	FOODEEG_Images\0529.jpg	NY	Right	Yes	1.04612579988316	0	651977	252
1275.453125	1.04612579988316	health	choicePhaseStart	4	182	2	foodImage.50	FOODEEG_Images\0529.jpg	NY	Right	Yes	1.04612579988316	0	653033	253
1276.490234375	0	health	response	4	182	2	foodImage.50	FOODEEG_Images\0529.jpg	NY	Right	Yes	1.04612579988316	0	653564	235
1277.533203125	1	decision	trialStart	4	183	3	foodImage.12	FOODEEG_Images\0181.jpg	NY	Right	Yes	0.782277999911457	0	654098	251
1278.57421875	2	decision	foodImageDisplay	4	183	3	foodImage.12	FOODEEG_Images\0181.jpg	NY	Right	Yes	0.782277999911457	0	654631	252
1280.63671875	0.782277999911457	decision	choicePhaseStart	4	183	3	foodImage.12	FOODEEG_Images\0181.jpg	NY	Right	Yes	0.782277999911457	0	655687	253
1281.41015625	0	decision	response	4	183	3	foodImage.12	FOODEEG_Images\0181.jpg	NY	Right	Yes	0.782277999911457	0	656083	235
1282.458984375	1	taste	trialStart	4	184	4	foodImage.57	FOODEEG_Images\0587.jpg	YN	Left	Yes	0.805313399992883	0	656620	251
1283.501953125	2	taste	foodImageDisplay	4	184	4	foodImage.57	FOODEEG_Images\0587.jpg	YN	Left	Yes	0.805313399992883	0	657154	252
1285.564453125	0.805313399992883	taste	choicePhaseStart	4	184	4	foodImage.57	FOODEEG_Images\0587.jpg	YN	Left	Yes	0.805313399992883	0	658210	253
1286.361328125	0	taste	response	4	184	4	foodImage.57	FOODEEG_Images\0587.jpg	YN	Left	Yes	0.805313399992883	0	658618	234
1287.40234375	1	taste	trialStart	4	185	5	foodImage.60	FOODEEG_Images\0614.jpg	NY	Right	Yes	0.64034719998017	0	659151	251
1288.484375	2	taste	foodImageDisplay	4	185	5	foodImage.60	FOODEEG_Images\0614.jpg	NY	Right	Yes	0.64034719998017	0	659705	252
1290.546875	0.64034719998017	taste	choicePhaseStart	4	185	5	foodImage.60	FOODEEG_Images\0614.jpg	NY	Right	Yes	0.64034719998017	0	660761	253
1291.177734375	0	taste	response	4	185	5	foodImage.60	FOODEEG_Images\0614.jpg	NY	Right	Yes	0.64034719998017	0	661084	235
1292.216796875	1	decision	trialStart	4	186	6	foodImage.73	FOODEEG_Images\0717.jpg	NY	Right	Yes	0.656072600279003	0	661616	251
1293.275390625	2	decision	foodImageDisplay	4	186	6	foodImage.73	FOODEEG_Images\0717.jpg	NY	Right	Yes	0.656072600279003	0	662158	252
1295.337890625	0.656072600279003	decision	choicePhaseStart	4	186	6	foodImage.73	FOODEEG_Images\0717.jpg	NY	Right	Yes	0.656072600279003	0	663214	253
1295.984375	0	decision	response	4	186	6	foodImage.73	FOODEEG_Images\0717.jpg	NY	Right	Yes	0.656072600279003	0	663545	235
1297.029296875	1	health	trialStart	4	187	7	foodImage.19	FOODEEG_Images\0225.jpg	YN	Left	Yes	0.852914699818939	0	664080	251
1298.078125	2	health	foodImageDisplay	4	187	7	foodImage.19	FOODEEG_Images\0225.jpg	YN	Left	Yes	0.852914699818939	0	664617	252
1300.140625	0.852914699818939	health	choicePhaseStart	4	187	7	foodImage.19	FOODEEG_Images\0225.jpg	YN	Left	Yes	0.852914699818939	0	665673	253
1300.984375	0	health	response	4	187	7	foodImage.19	FOODEEG_Images\0225.jpg	YN	Left	Yes	0.852914699818939	0	666105	234
1302.029296875	1	decision	trialStart	4	188	8	foodImage.92	FOODEEG_Images\0900.jpg	YN	Right	No	0.846802199725062	0	666640	251
1303.083984375	2	decision	foodImageDisplay	4	188	8	foodImage.92	FOODEEG_Images\0900.jpg	YN	Right	No	0.846802199725062	0	667180	252
1305.1484375	0.846802199725062	decision	choicePhaseStart	4	188	8	foodImage.92	FOODEEG_Images\0900.jpg	YN	Right	No	0.846802199725062	0	668237	253
1305.984375	0	decision	response	4	188	8	foodImage.92	FOODEEG_Images\0900.jpg	YN	Right	No	0.846802199725062	0	668665	235
1307.029296875	1	decision	trialStart	4	189	9	foodImage.4	FOODEEG_Images\0065.jpg	NY	Right	Yes	0.955843800213188	0	669200	251
1308.087890625	2	decision	foodImageDisplay	4	189	9	foodImage.4	FOODEEG_Images\0065.jpg	NY	Right	Yes	0.955843800213188	0	669742	252
1310.150390625	0.955843800213188	decision	choicePhaseStart	4	189	9	foodImage.4	FOODEEG_Images\0065.jpg	NY	Right	Yes	0.955843800213188	0	670798	253
1311.095703125	0	decision	response	4	189	9	foodImage.4	FOODEEG_Images\0065.jpg	NY	Right	Yes	0.955843800213188	0	671282	235
1312.140625	1	health	trialStart	4	190	10	foodImage.10	FOODEEG_Images\0145.jpg	NY	Left	No	1.0760015998967	0	671817	251
1313.19921875	2	health	foodImageDisplay	4	190	10	foodImage.10	FOODEEG_Images\0145.jpg	NY	Left	No	1.0760015998967	0	672359	252
1315.26171875	1.0760015998967	health	choicePhaseStart	4	190	10	foodImage.10	FOODEEG_Images\0145.jpg	NY	Left	No	1.0760015998967	0	673415	253
1316.328125	0	health	response	4	190	10	foodImage.10	FOODEEG_Images\0145.jpg	NY	Left	No	1.0760015998967	0	673961	234
1317.3828125	1	taste	trialStart	4	191	11	foodImage.74	FOODEEG_Images\0752.jpg	NY	Right	Yes	0.746421499643475	0	674501	251
1318.44921875	2	taste	foodImageDisplay	4	191	11	foodImage.74	FOODEEG_Images\0752.jpg	NY	Right	Yes	0.746421499643475	0	675047	252
1320.51171875	0.746421499643475	taste	choicePhaseStart	4	191	11	foodImage.74	FOODEEG_Images\0752.jpg	NY	Right	Yes	0.746421499643475	0	676103	253
1321.248046875	0	taste	response	4	191	11	foodImage.74	FOODEEG_Images\0752.jpg	NY	Right	Yes	0.746421499643475	0	676480	235
1322.2890625	1	health	trialStart	4	192	12	foodImage.92	FOODEEG_Images\0900.jpg	YN	Right	No	1.12468170002103	0	677013	251
1323.326171875	2	health	foodImageDisplay	4	192	12	foodImage.92	FOODEEG_Images\0900.jpg	YN	Right	No	1.12468170002103	0	677544	252
1325.388671875	1.12468170002103	health	choicePhaseStart	4	192	12	foodImage.92	FOODEEG_Images\0900.jpg	YN	Right	No	1.12468170002103	0	678600	253
1326.50390625	0	health	response	4	192	12	foodImage.92	FOODEEG_Images\0900.jpg	YN	Right	No	1.12468170002103	0	679171	235
1327.548828125	1	health	trialStart	4	193	13	foodImage.49	FOODEEG_Images\0515.jpg	NY	Left	No	1.0762677998282	0	679706	251
