onset	duration	trial_type	event_type	block	trial_total	trial_in_block	food_image_code	food_image_path	button_position	resp_position	resp_choice	choice_rt	resp_too_slow	sample	trigger
273.20703125	2	n/a	blockStart	1	n/a	n/a	n/a	n/a	n/a	n/a	n/a	n/a	n/a	139883	250
275.2421875	1	health	trialStart	1	1	1	foodImage.106	FOODEEG_Images\0914.jpg	NY	Left	No	1.66388839995489	0	140925	251
276.28515625	2	health	foodImageDisplay	1	1	1	foodImage.106	FOODEEG_Images\0914.jpg	NY	Left	No	1.66388839995489	0	141459	252
278.349609375	1.66388839995489	health	choicePhaseStart	1	1	1	foodImage.106	FOODEEG_Images\0914.jpg	NY	Left	No	1.66388839995489	0	142516	253
280.0078125	0	health	response	1	1	1	foodImage.106	FOODEEG_Images\0914.jpg	NY	Left	No	1.66388839995489	0	143365	234
281.099609375	1	health	trialStart	1	2	2	foodImage.83	FOODEEG_Images\0827.jpg	YN	Left	Yes	0.899519900092855	0	143924	251
282.15625	2	health	foodImageDisplay	1	2	2	foodImage.83	FOODEEG_Images\0827.jpg	YN	Left	Yes	0.899519900092855	0	144465	252
284.21875	0.899519900092855	health	choicePhaseStart	1	2	2	foodImage.83	FOODEEG_Images\0827.jpg	YN	Left	Yes	0.899519900092855	0	145521	253
285.111328125	0	health	response	1	2	2	foodImage.83	FOODEEG_Images\0827.jpg	YN	Left	Yes	0.899519900092855	0	145978	234
286.166015625	1	decision	trialStart	1	3	3	foodImage.93	FOODEEG_Images\0901.jpg	YN	Right	No	1.24475840013474	0	146518	251
287.203125	2	decision	foodImageDisplay	1	3	3	foodImage.93	FOODEEG_Images\0901.jpg	YN	Right	No	1.24475840013474	0	147049	252
289.267578125	1.24475840013474	decision	choicePhaseStart	1	3	3	foodImage.93	FOODEEG_Images\0901.jpg	YN	Right	No	1.24475840013474	0	148106	253
290.501953125	0	decision	response	1	3	3	foodImage.93	FOODEEG_Images\0901.jpg	YN	Right	No	1.24475840013474	0	148738	235
291.546875	1	health	trialStart	1	4	4	foodImage.84	FOODEEG_Images\0830.jpg	YN	Left	Yes	0.744459900073707	0	149273	251
292.603515625	2	health	foodImageDisplay	1	4	4	foodImage.84	FOODEEG_Images\0830.jpg	YN	Left	Yes	0.744459900073707	0	149814	252
294.66796875	0.744459900073707	health	choicePhaseStart	1	4	4	foodImage.84	FOODEEG_Images\0830.jpg	YN	Left	Yes	0.744459900073707	0	150871	253
295.40625	0	health	response	1	4	4	foodImage.84	FOODEEG_Images\0830.jpg	YN	Left	Yes	0.744459900073707	0	151249	234
296.451171875	1	taste	trialStart	1	5	5	foodImage.7	FOODEEG_Images\0116.jpg	NY	Right	Yes	1.1030332997907	0	151784	251
297.494140625	2	taste	foodImageDisplay	1	5	5	foodImage.7	FOODEEG_Images\0116.jpg	NY	Right	Yes	1.1030332997907	0	152318	252
299.55859375	1.1030332997907	taste	choicePhaseStart	1	5	5	foodImage.7	FOODEEG_Images\0116.jpg	NY	Right	Yes	1.1030332997907	0	153375	253
300.654296875	0	taste	response	1	5	5	foodImage.7	FOODEEG_Images\0116.jpg	NY	Right	Yes	1.1030332997907	0	153936	235
301.70703125	1	health	trialStart	1	6	6	foodImage.18	FOODEEG_Images\0202.jpg	NY	Right	Yes	1.3576967001427	0	154475	251
302.7890625	2	health	foodImageDisplay	1	6	6	foodImage.18	FOODEEG_Images\0202.jpg	NY	Right	Yes	1.3576967001427	0	155029	252
304.853515625	1.3576967001427	health	choicePhaseStart	1	6	6	foodImage.18	FOODEEG_Images\0202.jpg	NY	Right	Yes	1.3576967001427	0	156086	253
306.205078125	0	health	response	1	6	6	foodImage.18	FOODEEG_Images\0202.jpg	NY	Right	Yes	1.3576967001427	0	156778	235
307.248046875	1	health	trialStart	1	7	7	foodImage.94	FOODEEG_Images\0902.jpg	YN	Left	Yes	1.51328289997764	0	157312	251
308.28515625	2	health	foodImageDisplay	1	7	7	foodImage.94	FOODEEG_Images\0902.jpg	YN	Left	Yes	1.51328289997764	0	157843	252
310.35546875	1.51328289997764	health	choicePhaseStart	1	7	7	foodImage.94	FOODEEG_Images\0902.jpg	YN	Left	Yes	1.51328289997764	0	158903	253
311.861328125	0	health	response	1	7	7	foodImage.94	FOODEEG_Images\0902.jpg	YN	Left	Yes	1.51328289997764	0	159674	234
312.9140625	1	decision	trialStart	1	8	8	foodImage.15	FOODEEG_Images\0189.jpg	NY	Right	Yes	1.10894980002195	0	160213	251
313.96875	2	decision	foodImageDisplay	1	8	8	foodImage.15	FOODEEG_Images\0189.jpg	NY	Right	Yes	1.10894980002195	0	160753	252
316.033203125	1.10894980002195	decision	choicePhaseStart	1	8	8	foodImage.15	FOODEEG_Images\0189.jpg	NY	Right	Yes	1.10894980002195	0	161810	253
317.1328125	0	decision	response	1	8	8	foodImage.15	FOODEEG_Images\0189.jpg	NY	Right	Yes	1.10894980002195	0	162373	235
318.177734375	1	decision	trialStart	1	9	9	foodImage.55	FOODEEG_Images\0567.jpg	NY	Right	Yes	1.08920569997281	0	162908	251
319.236328125	2	decision	foodImageDisplay	1	9	9	foodImage.55	FOODEEG_Images\0567.jpg	NY	Right	Yes	1.08920569997281	0	163450	252
321.298828125	1.08920569997281	decision	choicePhaseStart	1	9	9	foodImage.55	FOODEEG_Images\0567.jpg	NY	Right	Yes	1.08920569997281	0	164506	253
322.380859375	0	decision	response	1	9	9	foodImage.55	FOODEEG_Images\0567.jpg	NY	Right	Yes	1.08920569997281	0	165060	235
323.42578125	1	taste	trialStart	1	10	10	foodImage.28	FOODEEG_Images\0273.jpg	NY	Left	No	1.06786040007137	0	165595	251
324.466796875	2	taste	foodImageDisplay	1	10	10	foodImage.28	FOODEEG_Images\0273.jpg	NY	Left	No	1.06786040007137	0	166128	252
326.53125	1.06786040007137	taste	choicePhaseStart	1	10	10	foodImage.28	FOODEEG_Images\0273.jpg	NY	Left	No	1.06786040007137	0	167185	253
327.58984375	0	taste	response	1	10	10	foodImage.28	FOODEEG_Images\0273.jpg	NY	Left	No	1.06786040007137	0	167727	234
328.6328125	1	health	trialStart	1	11	11	foodImage.26	FOODEEG_Images\0262.jpg	YN	Left	Yes	1.46875320002437	0	168261	251
329.673828125	2	health	foodImageDisplay	1	11	11	foodImage.26	FOODEEG_Images\0262.jpg	YN	Left	Yes	1.46875320002437	0	168794	252
331.7421875	1.46875320002437	health	choicePhaseStart	1	11	11	foodImage.26	FOODEEG_Images\0262.jpg	YN	Left	Yes	1.46875320002437	0	169853	253
333.205078125	0	health	response	1	11	11	foodImage.26	FOODEEG_Images\0262.jpg	YN	Left	Yes	1.46875320002437	0	170602	234
334.244140625	1	health	trialStart	1	12	12	foodImage.58	FOODEEG_Images\0605.jpg	YN	Right	No	1.12144510005601	0	171134	251
335.302734375	2	health	foodImageDisplay	1	12	12	foodImage.58	FOODEEG_Images\0605.jpg	YN	Right	No	1.12144510005601	0	171676	252
337.365234375	1.12144510005601	health	choicePhaseStart	1	12	12	foodImage.58	FOODEEG_Images\0605.jpg	YN	Right	No	1.12144510005601	0	172732	253
338.4765625	0	health	response	1	12	12	foodImage.58	FOODEEG_Images\0605.jpg	YN	Right	No	1.12144510005601	0	173301	235
339.51953125	1	decision	trialStart	1	13	13	foodImage.64	FOODEEG_Images\0647.jpg	YN	Left	Yes	1.45896989991888	0	173835	251
340.578125	2	decision	foodImageDisplay	1	13	13	foodImage.64	FOODEEG_Images\0647.jpg	YN	Left	Yes	1.45896989991888	0	174377	252
342.6484375	1.45896989991888	decision	choicePhaseStart	1	13	13	foodImage.64	FOODEEG_Images\0647.jpg	YN	Left	Yes	1.45896989991888	0	175437	253
344.099609375	0	decision	response	1	13	13	foodImage.64	FOODEEG_Images\0647.jpg	YN	Left	Yes	1.45896989991888	0	176180	234
345.142578125	1	decision	trialStart	1	14	14	foodImage.16	FOODEEG_Images\0196.jpg	NY	Right	Yes	1.31506489985622	0	176714	251
346.201171875	2	decision	foodImageDisplay	1	14	14	foodImage.16	FOODEEG_Images\0196.jpg	NY	Right	Yes	1.31506489985622	0	177256	252
348.265625	1.31506489985622	decision	choicePhaseStart	1	14	14	foodImage.16	FOODEEG_Images\0196.jpg	NY	Right	Yes	1.31506489985622	0	178313	253
349.572265625	0	decision	response	1	14	14	foodImage.16	FOODEEG_Images\0196.jpg	NY	Right	Yes	1.31506489985622	0	178982	235
350.611328125	1	decision	trialStart	1	15	15	foodImage.101	FOODEEG_Images\0909.jpg	NY	Left	No	1.38388489978388	0	179514	251
351.65625	2	decision	foodImageDisplay	1	15	15	foodImage.101	FOODEEG_Images\0909.jpg	NY	Left	No	1.38388489978388	0	180049	252
353.724609375	1.38388489978388	decision	choicePhaseStart	1	15	15	foodImage.101	FOODEEG_Images\0909.jpg	NY	Left	No	1.38388489978388	0	181108	253
355.099609375	0	decision	response	1	15	15	foodImage.101	FOODEEG_Images\0909.jpg	NY	Left	No	1.38388489978388	0	181812	234
356.140625	1	taste	trialStart	1	16	16	foodImage.89	FOODEEG_Images\0881.jpg	YN	Left	Yes	1.42409450002015	0	182345	251
357.1953125	2	taste	foodImageDisplay	1	16	16	foodImage.89	FOODEEG_Images\0881.jpg	YN	Left	Yes	1.42409450002015	0	182885	252
359.2578125	1.42409450002015	taste	choicePhaseStart	1	16	16	foodImage.89	FOODEEG_Images\0881.jpg	YN	Left	Yes	1.42409450002015	0	183941	253
360.67578125	0	taste	response	1	16	16	foodImage.89	FOODEEG_Images\0881.jpg	YN	Left	Yes	1.42409450002015	0	184667	234
361.71875	1	decision	trialStart	1	17	17	foodImage.98	FOODEEG_Images\0906.jpg	YN	Right	No	1.58384589990601	0	185201	251
362.755859375	2	decision	foodImageDisplay	1	17	17	foodImage.98	FOODEEG_Images\0906.jpg	YN	Right	No	1.58384589990601	0	185732	252
364.8203125	1.58384589990601	decision	choicePhaseStart	1	17	17	foodImage.98	FOODEEG_Images\0906.jpg	YN	Right	No	1.58384589990601	0	186789	253
366.39453125	0	decision	response	1	17	17	foodImage.98	FOODEEG_Images\0906.jpg	YN	Right	No	1.58384589990601	0	187595	235
367.443359375	1	taste	trialStart	1	18	18	foodImage.112	FOODEEG_Images\0920.jpg	YN	Left	Yes	1.09248849982396	0	188132	251
368.482421875	2	taste	foodImageDisplay	1	18	18	foodImage.112	FOODEEG_Images\0920.jpg	YN	Left	Yes	1.09248849982396	0	188664	252
370.544921875	1.09248849982396	taste	choicePhaseStart	1	18	18	foodImage.112	FOODEEG_Images\0920.jpg	YN	Left	Yes	1.09248849982396	0	189720	253
371.626953125	0	taste	response	1	18	18	foodImage.112	FOODEEG_Images\0920.jpg	YN	Left	Yes	1.09248849982396	0	190274	234
372.66796875	1	health	trialStart	1	19	19	foodImage.93	FOODEEG_Images\0901.jpg	YN	Right	No	1.80944169987924	0	190807	251
373.70703125	2	health	foodImageDisplay	1	19	19	foodImage.93	FOODEEG_Images\0901.jpg	YN	Right	No	1.80944169987924	0	191339	252
375.76953125	1.80944169987924	health	choicePhaseStart	1	19	19	foodImage.93	FOODEEG_Images\0901.jpg	YN	Right	No	1.80944169987924	0	192395	253
377.5703125	0	health	response	1	19	19	foodImage.93	FOODEEG_Images\0901.jpg	YN	Right	No	1.80944169987924	0	193317	235
378.61328125	1	taste	trialStart	1	20	20	foodImage.109	FOODEEG_Images\0917.jpg	NY	Right	Yes	1.76017119991593	0	193851	251
379.650390625	2	taste	foodImageDisplay	1	20	20	foodImage.109	FOODEEG_Images\0917.jpg	NY	Right	Yes	1.76017119991593	0	194382	252
381.71484375	1.76017119991593	taste	choicePhaseStart	1	20	20	foodImage.109	FOODEEG_Images\0917.jpg	NY	Right	Yes	1.76017119991593	0	195439	253
383.466796875	0	taste	response	1	20	20	foodImage.109	FOODEEG_Images\0917.jpg	NY	Right	Yes	1.76017119991593	0	196336	235
384.505859375	1	health	trialStart	1	21	21	foodImage.34	FOODEEG_Images\0339.jpg	NY	Left	No	1.44036140013486	0	196868	251
385.5625	2	health	foodImageDisplay	1	21	21	foodImage.34	FOODEEG_Images\0339.jpg	NY	Left	No	1.44036140013486	0	197409	252
387.625	1.44036140013486	health	choicePhaseStart	1	21	21	foodImage.34	FOODEEG_Images\0339.jpg	NY	Left	No	1.44036140013486	0	198465	253
389.05859375	0	health	response	1	21	21	foodImage.34	FOODEEG_Images\0339.jpg	NY	Left	No	1.44036140013486	0	199199	234
390.1015625	1	health	trialStart	1	22	22	foodImage.66	FOODEEG_Images\0676.jpg	YN	Right	No	1.14635619986802	0	199733	251
391.14453125	2	health	foodImageDisplay	1	22	22	foodImage.66	FOODEEG_Images\0676.jpg	YN	Right	No	1.14635619986802	0	200267	252
393.208984375	1.14635619986802	health	choicePhaseStart	1	22	22	foodImage.66	FOODEEG_Images\0676.jpg	YN	Right	No	1.14635619986802	0	201324	253
394.345703125	0	health	response	1	22	22	foodImage.66	FOODEEG_Images\0676.jpg	YN	Right	No	1.14635619986802	0	201906	235
395.388671875	1	taste	trialStart	1	23	23	foodImage.75	FOODEEG_Images\0763.jpg	NY	Right	Yes	1.81079149991274	0	202440	251
396.447265625	2	taste	foodImageDisplay	1	23	23	foodImage.75	FOODEEG_Images\0763.jpg	NY	Right	Yes	1.81079149991274	0	202982	252
398.51171875	1.81079149991274	taste	choicePhaseStart	1	23	23	foodImage.75	FOODEEG_Images\0763.jpg	NY	Right	Yes	1.81079149991274	0	204039	253
400.314453125	0	taste	response	1	23	23	foodImage.75	FOODEEG_Images\0763.jpg	NY	Right	Yes	1.81079149991274	0	204962	235
401.353515625	1	decision	trialStart	1	24	24	foodImage.47	FOODEEG_Images\0488.jpg	YN	Left	Yes	1.09262440004386	0	205494	251
402.39453125	2	decision	foodImageDisplay	1	24	24	foodImage.47	FOODEEG_Images\0488.jpg	YN	Left	Yes	1.09262440004386	0	206027	252
404.458984375	1.09262440004386	decision	choicePhaseStart	1	24	24	foodImage.47	FOODEEG_Images\0488.jpg	YN	Left	Yes	1.09262440004386	0	207084	253
405.544921875	0	decision	response	1	24	24	foodImage.47	FOODEEG_Images\0488.jpg	YN	Left	Yes	1.09262440004386	0	207640	234
406.5859375	1	health	trialStart	1	25	25	foodImage.92	FOODEEG_Images\0900.jpg	NY	Left	No	1.94048419990577	0	208173	251
407.625	2	health	foodImageDisplay	1	25	25	foodImage.92	FOODEEG_Images\0900.jpg	NY	Left	No	1.94048419990577	0	208705	252
409.685546875	1.94048419990577	health	choicePhaseStart	1	25	25	foodImage.92	FOODEEG_Images\0900.jpg	NY	Left	No	1.94048419990577	0	209760	253
411.6171875	0	health	response	1	25	25	foodImage.92	FOODEEG_Images\0900.jpg	NY	Left	No	1.94048419990577	0	210749	234
412.658203125	1	taste	trialStart	1	26	26	foodImage.97	FOODEEG_Images\0905.jpg	NY	Right	Yes	1.78786099981517	0	211282	251
413.6953125	2	taste	foodImageDisplay	1	26	26	foodImage.97	FOODEEG_Images\0905.jpg	NY	Right	Yes	1.78786099981517	0	211813	252
415.7578125	1.78786099981517	taste	choicePhaseStart	1	26	26	foodImage.97	FOODEEG_Images\0905.jpg	NY	Right	Yes	1.78786099981517	0	212869	253
417.537109375	0	taste	response	1	26	26	foodImage.97	FOODEEG_Images\0905.jpg	NY	Right	Yes	1.78786099981517	0	213780	235
418.583984375	1	health	trialStart	1	27	27	foodImage.77	FOODEEG_Images\0771.jpg	YN	Left	Yes	1.34228179999627	0	214316	251
419.62890625	2	health	foodImageDisplay	1	27	27	foodImage.77	FOODEEG_Images\0771.jpg	YN	Left	Yes	1.34228179999627	0	214851	252
421.69140625	1.34228179999627	health	choicePhaseStart	1	27	27	foodImage.77	FOODEEG_Images\0771.jpg	YN	Left	Yes	1.34228179999627	0	215907	253
423.025390625	0	health	response	1	27	27	foodImage.77	FOODEEG_Images\0771.jpg	YN	Left	Yes	1.34228179999627	0	216590	234
424.068359375	1	health	trialStart	1	28	28	foodImage.57	FOODEEG_Images\0587.jpg	NY	Left	No	1.26023890008219	0	217124	251
425.109375	2	health	foodImageDisplay	1	28	28	foodImage.57	FOODEEG_Images\0587.jpg	NY	Left	No	1.26023890008219	0	217657	252
427.173828125	1.26023890008219	health	choicePhaseStart	1	28	28	foodImage.57	FOODEEG_Images\0587.jpg	NY	Left	No	1.26023890008219	0	218714	253
428.42578125	0	health	response	1	28	28	foodImage.57	FOODEEG_Images\0587.jpg	NY	Left	No	1.26023890008219	0	219355	234
429.46875	1	decision	trialStart	1	29	29	foodImage.58	FOODEEG_Images\0605.jpg	NY	Left	No	1.82128209993243	0	219889	251
430.525390625	2	decision	foodImageDisplay	1	29	29	foodImage.58	FOODEEG_Images\0605.jpg	NY	Left	No	1.82128209993243	0	220430	252
432.58984375	1.82128209993243	decision	choicePhaseStart	1	29	29	foodImage.58	FOODEEG_Images\0605.jpg	NY	Left	No	1.82128209993243	0	221487	253
434.400390625	0	decision	response	1	29	29	foodImage.58	FOODEEG_Images\0605.jpg	NY	Left	No	1.82128209993243	0	222414	234
435.443359375	1	health	trialStart	1	30	30	foodImage.53	FOODEEG_Images\0547.jpg	NY	Right	Yes	1.67687380011193	0	222948	251
436.501953125	2	health	foodImageDisplay	1	30	30	foodImage.53	FOODEEG_Images\0547.jpg	NY	Right	Yes	1.67687380011193	0	223490	252
438.564453125	1.67687380011193	health	choicePhaseStart	1	30	30	foodImage.53	FOODEEG_Images\0547.jpg	NY	Right	Yes	1.67687380011193	0	224546	253
440.232421875	0	health	response	1	30	30	foodImage.53	FOODEEG_Images\0547.jpg	NY	Right	Yes	1.67687380011193	0	225400	235
441.275390625	1	taste	trialStart	1	31	31	foodImage.17	FOODEEG_Images\0199.jpg	YN	Left	Yes	1.355025799945	0	225934	251
442.31640625	2	taste	foodImageDisplay	1	31	31	foodImage.17	FOODEEG_Images\0199.jpg	YN	Left	Yes	1.355025799945	0	226467	252
444.37890625	1.355025799945	taste	choicePhaseStart	1	31	31	foodImage.17	FOODEEG_Images\0199.jpg	YN	Left	Yes	1.355025799945	0	227523	253
445.728515625	0	taste	response	1	31	31	foodImage.17	FOODEEG_Images\0199.jpg	YN	Left	Yes	1.355025799945	0	228214	234
446.771484375	1	health	trialStart	1	32	32	foodImage.87	FOODEEG_Images\0873.jpg	NY	Right	Yes	1.41451030015014	0	228748	251
447.828125	2	health	foodImageDisplay	1	32	32	foodImage.87	FOODEEG_Images\0873.jpg	NY	Right	Yes	1.41451030015014	0	229289	252
449.890625	1.41451030015014	health	choicePhaseStart	1	32	32	foodImage.87	FOODEEG_Images\0873.jpg	NY	Right	Yes	1.41451030015014	0	230345	253
451.294921875	0	health	response	1	32	32	foodImage.87	FOODEEG_Images\0873.jpg	NY	Right	Yes	1.41451030015014	0	231064	235
452.33984375	1	decision	trialStart	1	33	33	foodImage.5	FOODEEG_Images\0107.jpg	NY	Right	Yes	3.73153010010719	0	231599	251
453.3984375	2	decision	foodImageDisplay	1	33	33	foodImage.5	FOODEEG_Images\0107.jpg	NY	Right	Yes	3.73153010010719	0	232141	252
455.4609375	3.73153010010719	decision	choicePhaseStart	1	33	33	foodImage.5	FOODEEG_Images\0107.jpg	NY	Right	Yes	3.73153010010719	0	233197	253
459.18359375	0	decision	response	1	33	33	foodImage.5	FOODEEG_Images\0107.jpg	NY	Right	Yes	3.73153010010719	0	235103	235
460.228515625	1	health	trialStart	1	34	34	foodImage.14	FOODEEG_Images\0188.jpg	YN	Right	No	1.28326699999161	0	235638	251
461.28515625	2	health	foodImageDisplay	1	34	34	foodImage.14	FOODEEG_Images\0188.jpg	YN	Right	No	1.28326699999161	0	236179	252
463.349609375	1.28326699999161	health	choicePhaseStart	1	34	34	foodImage.14	FOODEEG_Images\0188.jpg	YN	Right	No	1.28326699999161	0	237236	253
464.623046875	0	health	response	1	34	34	foodImage.14	FOODEEG_Images\0188.jpg	YN	Right	No	1.28326699999161	0	237888	235
465.666015625	1	taste	trialStart	1	35	35	foodImage.111	FOODEEG_Images\0919.jpg	NY	Left	No	1.7123707998544	0	238422	251
466.705078125	2	taste	foodImageDisplay	1	35	35	foodImage.111	FOODEEG_Images\0919.jpg	NY	Left	No	1.7123707998544	0	238954	252
468.767578125	1.7123707998544	taste	choicePhaseStart	1	35	35	foodImage.111	FOODEEG_Images\0919.jpg	NY	Left	No	1.7123707998544	0	240010	253
470.470703125	0	taste	response	1	35	35	foodImage.111	FOODEEG_Images\0919.jpg	NY	Left	No	1.7123707998544	0	240882	234
471.513671875	1	health	trialStart	1	36	36	foodImage.55	FOODEEG_Images\0567.jpg	YN	Left	Yes	1.2160627997946	0	241416	251
472.568359375	2	health	foodImageDisplay	1	36	36	foodImage.55	FOODEEG_Images\0567.jpg	YN	Left	Yes	1.2160627997946	0	241956	252
474.630859375	1.2160627997946	health	choicePhaseStart	1	36	36	foodImage.55	FOODEEG_Images\0567.jpg	YN	Left	Yes	1.2160627997946	0	243012	253
475.83984375	0	health	response	1	36	36	foodImage.55	FOODEEG_Images\0567.jpg	YN	Left	Yes	1.2160627997946	0	243631	234
476.880859375	1	health	trialStart	1	37	37	foodImage.8	FOODEEG_Images\0136.jpg	NY	Left	No	1.4373665000312	0	244164	251
477.921875	2	health	foodImageDisplay	1	37	37	foodImage.8	FOODEEG_Images\0136.jpg	NY	Left	No	1.4373665000312	0	244697	252
479.986328125	1.4373665000312	health	choicePhaseStart	1	37	37	foodImage.8	FOODEEG_Images\0136.jpg	NY	Left	No	1.4373665000312	0	245754	253
481.4140625	0	health	response	1	37	37	foodImage.8	FOODEEG_Images\0136.jpg	NY	Left	No	1.4373665000312	0	246485	234
482.45703125	1	decision	trialStart	1	38	38	foodImage.6	FOODEEG_Images\0113.jpg	YN	Left	Yes	1.2037541999016	0	247019	251
483.498046875	2	decision	foodImageDisplay	1	38	38	foodImage.6	FOODEEG_Images\0113.jpg	YN	Left	Yes	1.2037541999016	0	247552	252
485.5625	1.2037541999016	decision	choicePhaseStart	1	38	38	foodImage.6	FOODEEG_Images\0113.jpg	YN	Left	Yes	1.2037541999016	0	248609	253
486.7578125	0	decision	response	1	38	38	foodImage.6	FOODEEG_Images\0113.jpg	YN	Left	Yes	1.2037541999016	0	249221	234
487.80078125	1	decision	trialStart	1	39	39	foodImage.120	FOODEEG_Images\0928.jpg	NY	Right	Yes	2.27305820002221	0	249755	251
488.837890625	2	decision	foodImageDisplay	1	39	39	foodImage.120	FOODEEG_Images\0928.jpg	NY	Right	Yes	2.27305820002221	0	250286	252
490.90234375	2.27305820002221	decision	choicePhaseStart	1	39	39	foodImage.120	FOODEEG_Images\0928.jpg	NY	Right	Yes	2.27305820002221	0	251343	253
493.166015625	0	decision	response	1	39	39	foodImage.120	FOODEEG_Images\0928.jpg	NY	Right	Yes	2.27305820002221	0	252502	235
494.20703125	1	taste	trialStart	1	40	40	foodImage.44	FOODEEG_Images\0459.jpg	YN	Right	No	1.80485740001313	0	253035	251
495.25	2	taste	foodImageDisplay	1	40	40	foodImage.44	FOODEEG_Images\0459.jpg	YN	Right	No	1.80485740001313	0	253569	252
497.314453125	1.80485740001313	taste	choicePhaseStart	1	40	40	foodImage.44	FOODEEG_Images\0459.jpg	YN	Right	No	1.80485740001313	0	254626	253
499.109375	0	taste	response	1	40	40	foodImage.44	FOODEEG_Images\0459.jpg	YN	Right	No	1.80485740001313	0	255545	235
500.150390625	1	decision	trialStart	1	41	41	foodImage.54	FOODEEG_Images\0560.jpg	NY	Right	Yes	2.62580800009891	0	256078	251
501.20703125	2	decision	foodImageDisplay	1	41	41	foodImage.54	FOODEEG_Images\0560.jpg	NY	Right	Yes	2.62580800009891	0	256619	252
503.26953125	2.62580800009891	decision	choicePhaseStart	1	41	41	foodImage.54	FOODEEG_Images\0560.jpg	NY	Right	Yes	2.62580800009891	0	257675	253
505.88671875	0	decision	response	1	41	41	foodImage.54	FOODEEG_Images\0560.jpg	NY	Right	Yes	2.62580800009891	0	259015	235
506.9375	1	taste	trialStart	1	42	42	foodImage.45	FOODEEG_Images\0478.jpg	YN	Left	Yes	1.76856949995272	0	259553	251
507.982421875	2	taste	foodImageDisplay	1	42	42	foodImage.45	FOODEEG_Images\0478.jpg	YN	Left	Yes	1.76856949995272	0	260088	252
510.046875	1.76856949995272	taste	choicePhaseStart	1	42	42	foodImage.45	FOODEEG_Images\0478.jpg	YN	Left	Yes	1.76856949995272	0	261145	253
511.8046875	0	taste	response	1	42	42	foodImage.45	FOODEEG_Images\0478.jpg	YN	Left	Yes	1.76856949995272	0	262045	234
512.853515625	1	decision	trialStart	1	43	43	foodImage.17	FOODEEG_Images\0199.jpg	NY	Right	Yes	2.2752539999783	0	262582	251
513.916015625	2	decision	foodImageDisplay	1	43	43	foodImage.17	FOODEEG_Images\0199.jpg	NY	Right	Yes	2.2752539999783	0	263126	252
515.98046875	2.2752539999783	decision	choicePhaseStart	1	43	43	foodImage.17	FOODEEG_Images\0199.jpg	NY	Right	Yes	2.2752539999783	0	264183	253
518.24609375	0	decision	response	1	43	43	foodImage.17	FOODEEG_Images\0199.jpg	NY	Right	Yes	2.2752539999783	0	265343	235
519.28515625	1	taste	trialStart	1	44	44	foodImage.18	FOODEEG_Images\0202.jpg	NY	Right	Yes	1.56098880013451	0	265875	251
520.341796875	2	taste	foodImageDisplay	1	44	44	foodImage.18	FOODEEG_Images\0202.jpg	NY	Right	Yes	1.56098880013451	0	266416	252
522.40625	1.56098880013451	taste	choicePhaseStart	1	44	44	foodImage.18	FOODEEG_Images\0202.jpg	NY	Right	Yes	1.56098880013451	0	267473	253
523.95703125	0	taste	response	1	44	44	foodImage.18	FOODEEG_Images\0202.jpg	NY	Right	Yes	1.56098880013451	0	268267	235
525	1	health	trialStart	1	45	45	foodImage.31	FOODEEG_Images\0294.jpg	YN	Left	Yes	0.99950630008243	0	268801	251
526.041015625	2	health	foodImageDisplay	1	45	45	foodImage.31	FOODEEG_Images\0294.jpg	YN	Left	Yes	0.99950630008243	0	269334	252
528.103515625	0.99950630008243	health	choicePhaseStart	1	45	45	foodImage.31	FOODEEG_Images\0294.jpg	YN	Left	Yes	0.99950630008243	0	270390	253
529.09375	0	health	response	1	45	45	foodImage.31	FOODEEG_Images\0294.jpg	YN	Left	Yes	0.99950630008243	0	270897	234
530.138671875	1	taste	trialStart	1	46	46	foodImage.54	FOODEEG_Images\0560.jpg	YN	Left	Yes	1.09386579995044	0	271432	251
531.193359375	2	taste	foodImageDisplay	1	46	46	foodImage.54	FOODEEG_Images\0560.jpg	YN	Left	Yes	1.09386579995044	0	271972	252
533.255859375	1.09386579995044	taste	choicePhaseStart	1	46	46	foodImage.54	FOODEEG_Images\0560.jpg	YN	Left	Yes	1.09386579995044	0	273028	253
534.33984375	0	taste	response	1	46	46	foodImage.54	FOODEEG_Images\0560.jpg	YN	Left	Yes	1.09386579995044	0	273583	234
535.380859375	1	taste	trialStart	1	47	47	foodImage.24	FOODEEG_Images\0250.jpg	NY	Right	Yes	1.04411569982767	0	274116	251
536.423828125	2	taste	foodImageDisplay	1	47	47	foodImage.24	FOODEEG_Images\0250.jpg	NY	Right	Yes	1.04411569982767	0	274650	252
538.486328125	1.04411569982767	taste	choicePhaseStart	1	47	47	foodImage.24	FOODEEG_Images\0250.jpg	NY	Right	Yes	1.04411569982767	0	275706	253
539.5234375	0	taste	response	1	47	47	foodImage.24	FOODEEG_Images\0250.jpg	NY	Right	Yes	1.04411569982767	0	276237	235
540.5703125	1	health	trialStart	1	48	48	foodImage.38	FOODEEG_Images\0365.jpg	NY	Right	Yes	1.45333510008641	0	276773	251
541.625	2	health	foodImageDisplay	1	48	48	foodImage.38	FOODEEG_Images\0365.jpg	NY	Right	Yes	1.45333510008641	0	277313	252
543.6875	1.45333510008641	health	choicePhaseStart	1	48	48	foodImage.38	FOODEEG_Images\0365.jpg	NY	Right	Yes	1.45333510008641	0	278369	253
545.1328125	0	health	response	1	48	48	foodImage.38	FOODEEG_Images\0365.jpg	NY	Right	Yes	1.45333510008641	0	279109	235
546.17578125	1	health	trialStart	1	49	49	foodImage.79	FOODEEG_Images\0794.jpg	YN	Left	Yes	1.10065909987316	0	279643	251
547.234375	2	health	foodImageDisplay	1	49	49	foodImage.79	FOODEEG_Images\0794.jpg	YN	Left	Yes	1.10065909987316	0	280185	252
549.296875	1.10065909987316	health	choicePhaseStart	1	49	49	foodImage.79	FOODEEG_Images\0794.jpg	YN	Left	Yes	1.10065909987316	0	281241	253
550.388671875	0	health	response	1	49	49	foodImage.79	FOODEEG_Images\0794.jpg	YN	Left	Yes	1.10065909987316	0	281800	234
551.431640625	1	health	trialStart	1	50	50	foodImage.32	FOODEEG_Images\0319.jpg	YN	Right	No	1.04425280005671	0	282334	251
552.494140625	2	health	foodImageDisplay	1	50	50	foodImage.32	FOODEEG_Images\0319.jpg	YN	Right	No	1.04425280005671	0	282878	252
554.560546875	1.04425280005671	health	choicePhaseStart	1	50	50	foodImage.32	FOODEEG_Images\0319.jpg	YN	Right	No	1.04425280005671	0	283936	253
555.595703125	0	health	response	1	50	50	foodImage.32	FOODEEG_Images\0319.jpg	YN	Right	No	1.04425280005671	0	284466	235
556.640625	1	health	trialStart	1	51	51	foodImage.109	FOODEEG_Images\0917.jpg	YN	Right	No	1.17452290002257	0	285001	251
557.677734375	2	health	foodImageDisplay	1	51	51	foodImage.109	FOODEEG_Images\0917.jpg	YN	Right	No	1.17452290002257	0	285532	252
559.7421875	1.17452290002257	health	choicePhaseStart	1	51	51	foodImage.109	FOODEEG_Images\0917.jpg	YN	Right	No	1.17452290002257	0	286589	253
560.908203125	0	health	response	1	51	51	foodImage.109	FOODEEG_Images\0917.jpg	YN	Right	No	1.17452290002257	0	287186	235
561.951171875	1	decision	trialStart	1	52	52	foodImage.106	FOODEEG_Images\0914.jpg	YN	Right	No	2.15844130003825	0	287720	251
562.990234375	2	decision	foodImageDisplay	1	52	52	foodImage.106	FOODEEG_Images\0914.jpg	YN	Right	No	2.15844130003825	0	288252	252
565.0546875	2.15844130003825	decision	choicePhaseStart	1	52	52	foodImage.106	FOODEEG_Images\0914.jpg	YN	Right	No	2.15844130003825	0	289309	253
567.203125	0	decision	response	1	52	52	foodImage.106	FOODEEG_Images\0914.jpg	YN	Right	No	2.15844130003825	0	290409	235
568.24609375	1	decision	trialStart	1	53	53	foodImage.111	FOODEEG_Images\0919.jpg	YN	Right	No	0.945190700003877	0	290943	251
569.28515625	2	decision	foodImageDisplay	1	53	53	foodImage.111	FOODEEG_Images\0919.jpg	YN	Right	No	0.945190700003877	0	291475	252
571.34765625	0.945190700003877	decision	choicePhaseStart	1	53	53	foodImage.111	FOODEEG_Images\0919.jpg	YN	Right	No	0.945190700003877	0	292531	253
572.283203125	0	decision	response	1	53	53	foodImage.111	FOODEEG_Images\0919.jpg	YN	Right	No	0.945190700003877	0	293010	235
573.32421875	1	taste	trialStart	1	54	54	foodImage.76	FOODEEG_Images\0766.jpg	NY	Right	Yes	1.17205850011669	0	293543	251
574.369140625	2	taste	foodImageDisplay	1	54	54	foodImage.76	FOODEEG_Images\0766.jpg	NY	Right	Yes	1.17205850011669	0	294078	252
576.431640625	1.17205850011669	taste	choicePhaseStart	1	54	54	foodImage.76	FOODEEG_Images\0766.jpg	NY	Right	Yes	1.17205850011669	0	295134	253
577.595703125	0	taste	response	1	54	54	foodImage.76	FOODEEG_Images\0766.jpg	NY	Right	Yes	1.17205850011669	0	295730	235
578.638671875	1	taste	trialStart	1	55	55	foodImage.58	FOODEEG_Images\0605.jpg	YN	Right	No	1.07378510013223	0	296264	251
579.70703125	2	taste	foodImageDisplay	1	55	55	foodImage.58	FOODEEG_Images\0605.jpg	YN	Right	No	1.07378510013223	0	296811	252
581.76953125	1.07378510013223	taste	choicePhaseStart	1	55	55	foodImage.58	FOODEEG_Images\0605.jpg	YN	Right	No	1.07378510013223	0	297867	253
582.833984375	0	taste	response	1	55	55	foodImage.58	FOODEEG_Images\0605.jpg	YN	Right	No	1.07378510013223	0	298412	235
583.876953125	1	decision	trialStart	1	56	56	foodImage.102	FOODEEG_Images\0910.jpg	NY	Left	No	1.66926530003548	0	298946	251
584.91796875	2	decision	foodImageDisplay	1	56	56	foodImage.102	FOODEEG_Images\0910.jpg	NY	Left	No	1.66926530003548	0	299479	252
586.982421875	1.66926530003548	decision	choicePhaseStart	1	56	56	foodImage.102	FOODEEG_Images\0910.jpg	NY	Left	No	1.66926530003548	0	300536	253
588.642578125	0	decision	response	1	56	56	foodImage.102	FOODEEG_Images\0910.jpg	NY	Left	No	1.66926530003548	0	301386	234
589.681640625	1	decision	trialStart	1	57	57	foodImage.90	FOODEEG_Images\0890.jpg	NY	Right	Yes	1.42736490000971	0	301918	251
590.751953125	2	decision	foodImageDisplay	1	57	57	foodImage.90	FOODEEG_Images\0890.jpg	NY	Right	Yes	1.42736490000971	0	302466	252
592.81640625	1.42736490000971	decision	choicePhaseStart	1	57	57	foodImage.90	FOODEEG_Images\0890.jpg	NY	Right	Yes	1.42736490000971	0	303523	253
594.234375	0	decision	response	1	57	57	foodImage.90	FOODEEG_Images\0890.jpg	NY	Right	Yes	1.42736490000971	0	304249	235
595.27734375	1	taste	trialStart	1	58	58	foodImage.95	FOODEEG_Images\0903.jpg	NY	Left	No	1.0482618000824	0	304783	251
596.314453125	2	taste	foodImageDisplay	1	58	58	foodImage.95	FOODEEG_Images\0903.jpg	NY	Left	No	1.0482618000824	0	305314	252
598.37890625	1.0482618000824	taste	choicePhaseStart	1	58	58	foodImage.95	FOODEEG_Images\0903.jpg	NY	Left	No	1.0482618000824	0	306371	253
599.41796875	0	taste	response	1	58	58	foodImage.95	FOODEEG_Images\0903.jpg	NY	Left	No	1.0482618000824	0	306903	234
600.458984375	1	health	trialStart	1	59	59	foodImage.37	FOODEEG_Images\0359.jpg	YN	Left	Yes	1.14362150011584	0	307436	251
601.5	2	health	foodImageDisplay	1	59	59	foodImage.37	FOODEEG_Images\0359.jpg	YN	Left	Yes	1.14362150011584	0	307969	252
603.564453125	1.14362150011584	health	choicePhaseStart	1	59	59	foodImage.37	FOODEEG_Images\0359.jpg	YN	Left	Yes	1.14362150011584	0	309026	253
604.697265625	0	health	response	1	59	59	foodImage.37	FOODEEG_Images\0359.jpg	YN	Left	Yes	1.14362150011584	0	309606	234
605.740234375	1	decision	trialStart	1	60	60	foodImage.73	FOODEEG_Images\0717.jpg	NY	Right	Yes	0.872211700072512	0	310140	251
606.794921875	2	decision	foodImageDisplay	1	60	60	foodImage.73	FOODEEG_Images\0717.jpg	NY	Right	Yes	0.872211700072512	0	310680	252
608.859375	0.872211700072512	decision	choicePhaseStart	1	60	60	foodImage.73	FOODEEG_Images\0717.jpg	NY	Right	Yes	0.872211700072512	0	311737	253
609.720703125	0	decision	response	1	60	60	foodImage.73	FOODEEG_Images\0717.jpg	NY	Right	Yes	0.872211700072512	0	312178	235
611.765625	63.3046875	n/a	blockEnd	n/a	n/a	n/a	n/a	n/a	n/a	n/a	n/a	n/a	n/a	313225	254
675.0703125	2	n/a	blockStart	2	n/a	n/a	n/a	n/a	n/a	n/a	n/a	n/a	n/a	345637	250
677.103515625	1	decision	trialStart	2	61	1	foodImage.112	FOODEEG_Images\0920.jpg	NY	Right	Yes	1.26339389989153	0	346678	251
678.14453125	2	decision	foodImageDisplay	2	61	1	foodImage.112	FOODEEG_Images\0920.jpg	NY	Right	Yes	1.26339389989153	0	347211	252
680.20703125	1.26339389989153	decision	choicePhaseStart	2	61	1	foodImage.112	FOODEEG_Images\0920.jpg	NY	Right	Yes	1.26339389989153	0	348267	253
681.462890625	0	decision	response	2	61	1	foodImage.112	FOODEEG_Images\0920.jpg	NY	Right	Yes	1.26339389989153	0	348910	235
682.505859375	1	decision	trialStart	2	62	2	foodImage.114	FOODEEG_Images\0922.jpg	YN	Left	Yes	0.97689349995926	0	349444	251
683.54296875	2	decision	foodImageDisplay	2	62	2	foodImage.114	FOODEEG_Images\0922.jpg	YN	Left	Yes	0.97689349995926	0	349975	252
685.607421875	0.97689349995926	decision	choicePhaseStart	2	62	2	foodImage.114	FOODEEG_Images\0922.jpg	YN	Left	Yes	0.97689349995926	0	351032	253
686.57421875	0	decision	response	2	62	2	foodImage.114	FOODEEG_Images\0922.jpg	YN	Left	Yes	0.97689349995926	0	351527	234
687.6171875	1	decision	trialStart	2	63	3	foodImage.104	FOODEEG_Images\0912.jpg	NY	Right	Yes	2.74970629997551	0	352061	251
688.65625	2	decision	foodImageDisplay	2	63	3	foodImage.104	FOODEEG_Images\0912.jpg	NY	Right	Yes	2.74970629997551	0	352593	252
690.720703125	2.74970629997551	decision	choicePhaseStart	2	63	3	foodImage.104	FOODEEG_Images\0912.jpg	NY	Right	Yes	2.74970629997551	0	353650	253
693.462890625	0	decision	response	2	63	3	foodImage.104	FOODEEG_Images\0912.jpg	NY	Right	Yes	2.74970629997551	0	355054	235
694.5078125	1	taste	trialStart	2	64	4	foodImage.27	FOODEEG_Images\0263.jpg	NY	Right	Yes	1.29005030007102	0	355589	251
695.548828125	2	taste	foodImageDisplay	2	64	4	foodImage.27	FOODEEG_Images\0263.jpg	NY	Right	Yes	1.29005030007102	0	356122	252
697.611328125	1.29005030007102	taste	choicePhaseStart	2	64	4	foodImage.27	FOODEEG_Images\0263.jpg	NY	Right	Yes	1.29005030007102	0	357178	253
698.89453125	0	taste	response	2	64	4	foodImage.27	FOODEEG_Images\0263.jpg	NY	Right	Yes	1.29005030007102	0	357835	235
699.94140625	1	decision	trialStart	2	65	5	foodImage.60	FOODEEG_Images\0614.jpg	NY	Right	Yes	1.06905089993961	0	358371	251
700.99609375	2	decision	foodImageDisplay	2	65	5	foodImage.60	FOODEEG_Images\0614.jpg	NY	Right	Yes	1.06905089993961	0	358911	252
703.05859375	1.06905089993961	decision	choicePhaseStart	2	65	5	foodImage.60	FOODEEG_Images\0614.jpg	NY	Right	Yes	1.06905089993961	0	359967	253
704.1171875	0	decision	response	2	65	5	foodImage.60	FOODEEG_Images\0614.jpg	NY	Right	Yes	1.06905089993961	0	360509	235
705.16796875	1	taste	trialStart	2	66	6	foodImage.69	FOODEEG_Images\0693.jpg	YN	Right	No	1.50924309995025	0	361047	251
706.2109375	2	taste	foodImageDisplay	2	66	6	foodImage.69	FOODEEG_Images\0693.jpg	YN	Right	No	1.50924309995025	0	361581	252
708.2734375	1.50924309995025	taste	choicePhaseStart	2	66	6	foodImage.69	FOODEEG_Images\0693.jpg	YN	Right	No	1.50924309995025	0	362637	253
709.7734375	0	taste	response	2	66	6	foodImage.69	FOODEEG_Images\0693.jpg	YN	Right	No	1.50924309995025	0	363405	235
710.814453125	1	taste	trialStart	2	67	7	foodImage.117	FOODEEG_Images\0925.jpg	YN	Right	No	2.05156229995191	0	363938	251
711.8515625	2	taste	foodImageDisplay	2	67	7	foodImage.117	FOODEEG_Images\0925.jpg	YN	Right	No	2.05156229995191	0	364469	252
713.916015625	2.05156229995191	taste	choicePhaseStart	2	67	7	foodImage.117	FOODEEG_Images\0925.jpg	YN	Right	No	2.05156229995191	0	365526	253
715.95703125	0	taste	response	2	67	7	foodImage.117	FOODEEG_Images\0925.jpg	YN	Right	No	2.05156229995191	0	366571	235
717	1	decision	trialStart	2	68	8	foodImage.76	FOODEEG_Images\0766.jpg	YN	Left	Yes	1.68209940008819	0	367105	251
718.044921875	2	decision	foodImageDisplay	2	68	8	foodImage.76	FOODEEG_Images\0766.jpg	YN	Left	Yes	1.68209940008819	0	367640	252
720.109375	1.68209940008819	decision	choicePhaseStart	2	68	8	foodImage.76	FOODEEG_Images\0766.jpg	YN	Left	Yes	1.68209940008819	0	368697	253
721.78125	0	decision	response	2	68	8	foodImage.76	FOODEEG_Images\0766.jpg	YN	Left	Yes	1.68209940008819	0	369553	234
722.82421875	1	health	trialStart	2	69	9	foodImage.104	FOODEEG_Images\0912.jpg	YN	Right	No	1.6946908000391	0	370087	251
723.861328125	2	health	foodImageDisplay	2	69	9	foodImage.104	FOODEEG_Images\0912.jpg	YN	Right	No	1.6946908000391	0	370618	252
725.927734375	1.6946908000391	health	choicePhaseStart	2	69	9	foodImage.104	FOODEEG_Images\0912.jpg	YN	Right	No	1.6946908000391	0	371676	253
727.61328125	0	health	response	2	69	9	foodImage.104	FOODEEG_Images\0912.jpg	YN	Right	No	1.6946908000391	0	372539	235
728.65625	1	taste	trialStart	2	70	10	foodImage.8	FOODEEG_Images\0136.jpg	NY	Right	Yes	1.21023259987123	0	373073	251
729.71484375	2	taste	foodImageDisplay	2	70	10	foodImage.8	FOODEEG_Images\0136.jpg	NY	Right	Yes	1.21023259987123	0	373615	252
731.779296875	1.21023259987123	taste	choicePhaseStart	2	70	10	foodImage.8	FOODEEG_Images\0136.jpg	NY	Right	Yes	1.21023259987123	0	374672	253
732.98046875	0	taste	response	2	70	10	foodImage.8	FOODEEG_Images\0136.jpg	NY	Right	Yes	1.21023259987123	0	375287	235
734.0234375	1	health	trialStart	2	71	11	foodImage.80	FOODEEG_Images\0796.jpg	NY	Right	Yes	1.19750189990737	0	375821	251
735.08203125	2	health	foodImageDisplay	2	71	11	foodImage.80	FOODEEG_Images\0796.jpg	NY	Right	Yes	1.19750189990737	0	376363	252
737.14453125	1.19750189990737	health	choicePhaseStart	2	71	11	foodImage.80	FOODEEG_Images\0796.jpg	NY	Right	Yes	1.19750189990737	0	377419	253
738.33203125	0	health	response	2	71	11	foodImage.80	FOODEEG_Images\0796.jpg	NY	Right	Yes	1.19750189990737	0	378027	235
739.376953125	1	taste	trialStart	2	72	12	foodImage.22	FOODEEG_Images\0236.jpg	NY	Right	Yes	0.856055499985814	0	378562	251
740.4296875	2	taste	foodImageDisplay	2	72	12	foodImage.22	FOODEEG_Images\0236.jpg	NY	Right	Yes	0.856055499985814	0	379101	252
742.4921875	0.856055499985814	taste	choicePhaseStart	2	72	12	foodImage.22	FOODEEG_Images\0236.jpg	NY	Right	Yes	0.856055499985814	0	380157	253
743.33984375	0	taste	response	2	72	12	foodImage.22	FOODEEG_Images\0236.jpg	NY	Right	Yes	0.856055499985814	0	380591	235
744.388671875	1	taste	trialStart	2	73	13	foodImage.35	FOODEEG_Images\0350.jpg	YN	Left	Yes	0.89054589997977	0	381128	251
745.427734375	2	taste	foodImageDisplay	2	73	13	foodImage.35	FOODEEG_Images\0350.jpg	YN	Left	Yes	0.89054589997977	0	381660	252
747.490234375	0.89054589997977	taste	choicePhaseStart	2	73	13	foodImage.35	FOODEEG_Images\0350.jpg	YN	Left	Yes	0.89054589997977	0	382716	253
748.37109375	0	taste	response	2	73	13	foodImage.35	FOODEEG_Images\0350.jpg	YN	Left	Yes	0.89054589997977	0	383167	234
749.4140625	1	health	trialStart	2	74	14	foodImage.73	FOODEEG_Images\0717.jpg	NY	Right	Yes	1.46384209999815	0	383701	251
750.47265625	2	health	foodImageDisplay	2	74	14	foodImage.73	FOODEEG_Images\0717.jpg	NY	Right	Yes	1.46384209999815	0	384243	252
752.541015625	1.46384209999815	health	choicePhaseStart	2	74	14	foodImage.73	FOODEEG_Images\0717.jpg	NY	Right	Yes	1.46384209999815	0	385302	253
753.99609375	0	health	response	2	74	14	foodImage.73	FOODEEG_Images\0717.jpg	NY	Right	Yes	1.46384209999815	0	386047	235
755.0390625	1	decision	trialStart	2	75	15	foodImage.116	FOODEEG_Images\0924.jpg	NY	Left	No	1.01671619992703	0	386581	251
756.076171875	2	decision	foodImageDisplay	2	75	15	foodImage.116	FOODEEG_Images\0924.jpg	NY	Left	No	1.01671619992703	0	387112	252
758.140625	1.01671619992703	decision	choicePhaseStart	2	75	15	foodImage.116	FOODEEG_Images\0924.jpg	NY	Left	No	1.01671619992703	0	388169	253
759.1484375	0	decision	response	2	75	15	foodImage.116	FOODEEG_Images\0924.jpg	NY	Left	No	1.01671619992703	0	388685	234
760.19140625	1	taste	trialStart	2	76	16	foodImage.78	FOODEEG_Images\0787.jpg	NY	Right	Yes	0.979193799896166	0	389219	251
761.234375	2	taste	foodImageDisplay	2	76	16	foodImage.78	FOODEEG_Images\0787.jpg	NY	Right	Yes	0.979193799896166	0	389753	252
763.296875	0.979193799896166	taste	choicePhaseStart	2	76	16	foodImage.78	FOODEEG_Images\0787.jpg	NY	Right	Yes	0.979193799896166	0	390809	253
764.267578125	0	taste	response	2	76	16	foodImage.78	FOODEEG_Images\0787.jpg	NY	Right	Yes	0.979193799896166	0	391306	235
765.30859375	1	health	trialStart	2	77	17	foodImage.118	FOODEEG_Images\0926.jpg	NY	Left	No	2.54413249995559	0	391839	251
766.34765625	2	health	foodImageDisplay	2	77	17	foodImage.118	FOODEEG_Images\0926.jpg	NY	Left	No	2.54413249995559	0	392371	252
768.412109375	2.54413249995559	health	choicePhaseStart	2	77	17	foodImage.118	FOODEEG_Images\0926.jpg	NY	Left	No	2.54413249995559	0	393428	253
770.947265625	0	health	response	2	77	17	foodImage.118	FOODEEG_Images\0926.jpg	NY	Left	No	2.54413249995559	0	394726	234
771.990234375	1	taste	trialStart	2	78	18	foodImage.81	FOODEEG_Images\0797.jpg	YN	Left	Yes	1.2932667999994	0	395260	251
773.046875	2	taste	foodImageDisplay	2	78	18	foodImage.81	FOODEEG_Images\0797.jpg	YN	Left	Yes	1.2932667999994	0	395801	252
775.111328125	1.2932667999994	taste	choicePhaseStart	2	78	18	foodImage.81	FOODEEG_Images\0797.jpg	YN	Left	Yes	1.2932667999994	0	396858	253
776.39453125	0	taste	response	2	78	18	foodImage.81	FOODEEG_Images\0797.jpg	YN	Left	Yes	1.2932667999994	0	397515	234
777.44140625	1	taste	trialStart	2	79	19	foodImage.19	FOODEEG_Images\0225.jpg	NY	Right	Yes	1.09513539983891	0	398051	251
778.484375	2	taste	foodImageDisplay	2	79	19	foodImage.19	FOODEEG_Images\0225.jpg	NY	Right	Yes	1.09513539983891	0	398585	252
780.548828125	1.09513539983891	taste	choicePhaseStart	2	79	19	foodImage.19	FOODEEG_Images\0225.jpg	NY	Right	Yes	1.09513539983891	0	399642	253
781.634765625	0	taste	response	2	79	19	foodImage.19	FOODEEG_Images\0225.jpg	NY	Right	Yes	1.09513539983891	0	400198	235
782.67578125	1	taste	trialStart	2	80	20	foodImage.83	FOODEEG_Images\0827.jpg	YN	Left	Yes	1.18683529994451	0	400731	251
783.74609375	2	taste	foodImageDisplay	2	80	20	foodImage.83	FOODEEG_Images\0827.jpg	YN	Left	Yes	1.18683529994451	0	401279	252
785.80859375	1.18683529994451	taste	choicePhaseStart	2	80	20	foodImage.83	FOODEEG_Images\0827.jpg	YN	Left	Yes	1.18683529994451	0	402335	253
786.986328125	0	taste	response	2	80	20	foodImage.83	FOODEEG_Images\0827.jpg	YN	Left	Yes	1.18683529994451	0	402938	234
788.03515625	1	decision	trialStart	2	81	21	foodImage.38	FOODEEG_Images\0365.jpg	YN	Left	Yes	1.23471119999886	0	403475	251
789.07421875	2	decision	foodImageDisplay	2	81	21	foodImage.38	FOODEEG_Images\0365.jpg	YN	Left	Yes	1.23471119999886	0	404007	252
791.13671875	1.23471119999886	decision	choicePhaseStart	2	81	21	foodImage.38	FOODEEG_Images\0365.jpg	YN	Left	Yes	1.23471119999886	0	405063	253
792.361328125	0	decision	response	2	81	21	foodImage.38	FOODEEG_Images\0365.jpg	YN	Left	Yes	1.23471119999886	0	405690	234
793.40234375	1	taste	trialStart	2	82	22	foodImage.114	FOODEEG_Images\0922.jpg	NY	Right	Yes	2.04562440002337	0	406223	251
794.439453125	2	taste	foodImageDisplay	2	82	22	foodImage.114	FOODEEG_Images\0922.jpg	NY	Right	Yes	2.04562440002337	0	406754	252
796.501953125	2.04562440002337	taste	choicePhaseStart	2	82	22	foodImage.114	FOODEEG_Images\0922.jpg	NY	Right	Yes	2.04562440002337	0	407810	253
798.5390625	0	taste	response	2	82	22	foodImage.114	FOODEEG_Images\0922.jpg	NY	Right	Yes	2.04562440002337	0	408853	235
799.58203125	1	health	trialStart	2	83	23	foodImage.51	FOODEEG_Images\0536.jpg	YN	Left	Yes	1.94006449985318	0	409387	251
800.625	2	health	foodImageDisplay	2	83	23	foodImage.51	FOODEEG_Images\0536.jpg	YN	Left	Yes	1.94006449985318	0	409921	252
802.6875	1.94006449985318	health	choicePhaseStart	2	83	23	foodImage.51	FOODEEG_Images\0536.jpg	YN	Left	Yes	1.94006449985318	0	410977	253
804.6171875	0	health	response	2	83	23	foodImage.51	FOODEEG_Images\0536.jpg	YN	Left	Yes	1.94006449985318	0	411965	234
805.66015625	1	decision	trialStart	2	84	24	foodImage.13	FOODEEG_Images\0183.jpg	NY	Right	Yes	0.805102600017563	0	412499	251
806.703125	2	decision	foodImageDisplay	2	84	24	foodImage.13	FOODEEG_Images\0183.jpg	NY	Right	Yes	0.805102600017563	0	413033	252
808.765625	0.805102600017563	decision	choicePhaseStart	2	84	24	foodImage.13	FOODEEG_Images\0183.jpg	NY	Right	Yes	0.805102600017563	0	414089	253
809.5625	0	decision	response	2	84	24	foodImage.13	FOODEEG_Images\0183.jpg	NY	Right	Yes	0.805102600017563	0	414497	235
810.60546875	1	health	trialStart	2	85	25	foodImage.102	FOODEEG_Images\0910.jpg	NY	Left	No	1.02268179995008	0	415031	251
811.64453125	2	health	foodImageDisplay	2	85	25	foodImage.102	FOODEEG_Images\0910.jpg	NY	Left	No	1.02268179995008	0	415563	252
813.70703125	1.02268179995008	health	choicePhaseStart	2	85	25	foodImage.102	FOODEEG_Images\0910.jpg	NY	Left	No	1.02268179995008	0	416619	253
814.720703125	0	health	response	2	85	25	foodImage.102	FOODEEG_Images\0910.jpg	NY	Left	No	1.02268179995008	0	417138	234
815.763671875	1	health	trialStart	2	86	26	foodImage.113	FOODEEG_Images\0921.jpg	YN	Right	No	1.75954509992152	0	417672	251
816.80078125	2	health	foodImageDisplay	2	86	26	foodImage.113	FOODEEG_Images\0921.jpg	YN	Right	No	1.75954509992152	0	418203	252
818.86328125	1.75954509992152	health	choicePhaseStart	2	86	26	foodImage.113	FOODEEG_Images\0921.jpg	YN	Right	No	1.75954509992152	0	419259	253
820.6171875	0	health	response	2	86	26	foodImage.113	FOODEEG_Images\0921.jpg	YN	Right	No	1.75954509992152	0	420157	235
821.66015625	1	taste	trialStart	2	87	27	foodImage.64	FOODEEG_Images\0647.jpg	NY	Right	Yes	1.49911869992502	0	420691	251
822.71875	2	taste	foodImageDisplay	2	87	27	foodImage.64	FOODEEG_Images\0647.jpg	NY	Right	Yes	1.49911869992502	0	421233	252
824.783203125	1.49911869992502	taste	choicePhaseStart	2	87	27	foodImage.64	FOODEEG_Images\0647.jpg	NY	Right	Yes	1.49911869992502	0	422290	253
826.2734375	0	taste	response	2	87	27	foodImage.64	FOODEEG_Images\0647.jpg	NY	Right	Yes	1.49911869992502	0	423053	235
827.31640625	1	decision	trialStart	2	88	28	foodImage.65	FOODEEG_Images\0658.jpg	YN	Left	Yes	1.79733980004676	0	423587	251
828.357421875	2	decision	foodImageDisplay	2	88	28	foodImage.65	FOODEEG_Images\0658.jpg	YN	Left	Yes	1.79733980004676	0	424120	252
830.419921875	1.79733980004676	decision	choicePhaseStart	2	88	28	foodImage.65	FOODEEG_Images\0658.jpg	YN	Left	Yes	1.79733980004676	0	425176	253
832.208984375	0	decision	response	2	88	28	foodImage.65	FOODEEG_Images\0658.jpg	YN	Left	Yes	1.79733980004676	0	426092	234
833.25390625	1	decision	trialStart	2	89	29	foodImage.28	FOODEEG_Images\0273.jpg	YN	Left	Yes	3.11156230000779	0	426627	251
834.294921875	2	decision	foodImageDisplay	2	89	29	foodImage.28	FOODEEG_Images\0273.jpg	YN	Left	Yes	3.11156230000779	0	427160	252
836.359375	3.11156230000779	decision	choicePhaseStart	2	89	29	foodImage.28	FOODEEG_Images\0273.jpg	YN	Left	Yes	3.11156230000779	0	428217	253
839.46484375	0	decision	response	2	89	29	foodImage.28	FOODEEG_Images\0273.jpg	YN	Left	Yes	3.11156230000779	0	429807	234
840.5078125	1	health	trialStart	2	90	30	foodImage.86	FOODEEG_Images\0844.jpg	YN	Right	No	1.27236339985393	0	430341	251
841.564453125	2	health	foodImageDisplay	2	90	30	foodImage.86	FOODEEG_Images\0844.jpg	YN	Right	No	1.27236339985393	0	430882	252
843.625	1.27236339985393	health	choicePhaseStart	2	90	30	foodImage.86	FOODEEG_Images\0844.jpg	YN	Right	No	1.27236339985393	0	431937	253
844.888671875	0	health	response	2	90	30	foodImage.86	FOODEEG_Images\0844.jpg	YN	Right	No	1.27236339985393	0	432584	235
845.93359375	1	taste	trialStart	2	91	31	foodImage.56	FOODEEG_Images\0586.jpg	YN	Right	No	1.59206659998745	0	433119	251
846.9765625	2	taste	foodImageDisplay	2	91	31	foodImage.56	FOODEEG_Images\0586.jpg	YN	Right	No	1.59206659998745	0	433653	252
849.0390625	1.59206659998745	taste	choicePhaseStart	2	91	31	foodImage.56	FOODEEG_Images\0586.jpg	YN	Right	No	1.59206659998745	0	434709	253
850.625	0	taste	response	2	91	31	foodImage.56	FOODEEG_Images\0586.jpg	YN	Right	No	1.59206659998745	0	435521	235
851.6640625	1	taste	trialStart	2	92	32	foodImage.20	FOODEEG_Images\0226.jpg	YN	Left	Yes	1.32247560005635	0	436053	251
852.703125	2	taste	foodImageDisplay	2	92	32	foodImage.20	FOODEEG_Images\0226.jpg	YN	Left	Yes	1.32247560005635	0	436585	252
854.765625	1.32247560005635	taste	choicePhaseStart	2	92	32	foodImage.20	FOODEEG_Images\0226.jpg	YN	Left	Yes	1.32247560005635	0	437641	253
856.080078125	0	taste	response	2	92	32	foodImage.20	FOODEEG_Images\0226.jpg	YN	Left	Yes	1.32247560005635	0	438314	234
857.123046875	1	decision	trialStart	2	93	33	foodImage.59	FOODEEG_Images\0607.jpg	NY	Right	Yes	1.80774439987727	0	438848	251
858.169921875	2	decision	foodImageDisplay	2	93	33	foodImage.59	FOODEEG_Images\0607.jpg	NY	Right	Yes	1.80774439987727	0	439384	252
860.232421875	1.80774439987727	decision	choicePhaseStart	2	93	33	foodImage.59	FOODEEG_Images\0607.jpg	NY	Right	Yes	1.80774439987727	0	440440	253
862.03125	0	decision	response	2	93	33	foodImage.59	FOODEEG_Images\0607.jpg	NY	Right	Yes	1.80774439987727	0	441361	235
863.076171875	1	taste	trialStart	2	94	34	foodImage.1	FOODEEG_Images\0004.jpg	YN	Left	Yes	1.20489359996282	0	441896	251
864.1171875	2	taste	foodImageDisplay	2	94	34	foodImage.1	FOODEEG_Images\0004.jpg	YN	Left	Yes	1.20489359996282	0	442429	252
866.1796875	1.20489359996282	taste	choicePhaseStart	2	94	34	foodImage.1	FOODEEG_Images\0004.jpg	YN	Left	Yes	1.20489359996282	0	443485	253
867.375	0	taste	response	2	94	34	foodImage.1	FOODEEG_Images\0004.jpg	YN	Left	Yes	1.20489359996282	0	444097	234
868.41796875	1	decision	trialStart	2	95	35	foodImage.79	FOODEEG_Images\0794.jpg	NY	Right	Yes	1.48331129993312	0	444631	251
869.4609375	2	decision	foodImageDisplay	2	95	35	foodImage.79	FOODEEG_Images\0794.jpg	NY	Right	Yes	1.48331129993312	0	445165	252
871.525390625	1.48331129993312	decision	choicePhaseStart	2	95	35	foodImage.79	FOODEEG_Images\0794.jpg	NY	Right	Yes	1.48331129993312	0	446222	253
873	0	decision	response	2	95	35	foodImage.79	FOODEEG_Images\0794.jpg	NY	Right	Yes	1.48331129993312	0	446977	235
874.041015625	1	decision	trialStart	2	96	36	foodImage.24	FOODEEG_Images\0250.jpg	NY	Right	Yes	2.03448489983566	0	447510	251
875.087890625	2	decision	foodImageDisplay	2	96	36	foodImage.24	FOODEEG_Images\0250.jpg	NY	Right	Yes	2.03448489983566	0	448046	252
877.150390625	2.03448489983566	decision	choicePhaseStart	2	96	36	foodImage.24	FOODEEG_Images\0250.jpg	NY	Right	Yes	2.03448489983566	0	449102	253
879.173828125	0	decision	response	2	96	36	foodImage.24	FOODEEG_Images\0250.jpg	NY	Right	Yes	2.03448489983566	0	450138	235
880.22265625	1	decision	trialStart	2	97	37	foodImage.56	FOODEEG_Images\0586.jpg	NY	Left	No	1.65638929978013	0	450675	251
881.263671875	2	decision	foodImageDisplay	2	97	37	foodImage.56	FOODEEG_Images\0586.jpg	NY	Left	No	1.65638929978013	0	451208	252
883.328125	1.65638929978013	decision	choicePhaseStart	2	97	37	foodImage.56	FOODEEG_Images\0586.jpg	NY	Left	No	1.65638929978013	0	452265	253
884.974609375	0	decision	response	2	97	37	foodImage.56	FOODEEG_Images\0586.jpg	NY	Left	No	1.65638929978013	0	453108	234
886.017578125	1	decision	trialStart	2	98	38	foodImage.12	FOODEEG_Images\0181.jpg	YN	Left	Yes	2.9008978002239	0	453642	251
887.056640625	2	decision	foodImageDisplay	2	98	38	foodImage.12	FOODEEG_Images\0181.jpg	YN	Left	Yes	2.9008978002239	0	454174	252
889.12109375	2.9008978002239	decision	choicePhaseStart	2	98	38	foodImage.12	FOODEEG_Images\0181.jpg	YN	Left	Yes	2.9008978002239	0	455231	253
892.013671875	0	decision	response	2	98	38	foodImage.12	FOODEEG_Images\0181.jpg	YN	Left	Yes	2.9008978002239	0	456712	234
893.0625	1	health	trialStart	2	99	39	foodImage.85	FOODEEG_Images\0841.jpg	YN	Right	No	1.19259690004401	0	457249	251
894.12109375	2	health	foodImageDisplay	2	99	39	foodImage.85	FOODEEG_Images\0841.jpg	YN	Right	No	1.19259690004401	0	457791	252
896.18359375	1.19259690004401	health	choicePhaseStart	2	99	39	foodImage.85	FOODEEG_Images\0841.jpg	YN	Right	No	1.19259690004401	0	458847	253
897.365234375	0	health	response	2	99	39	foodImage.85	FOODEEG_Images\0841.jpg	YN	Right	No	1.19259690004401	0	459452	235
898.408203125	1	taste	trialStart	2	100	40	foodImage.86	FOODEEG_Images\0844.jpg	YN	Left	Yes	1.48449770011939	0	459986	251
899.466796875	2	taste	foodImageDisplay	2	100	40	foodImage.86	FOODEEG_Images\0844.jpg	YN	Left	Yes	1.48449770011939	0	460528	252
901.53125	1.48449770011939	taste	choicePhaseStart	2	100	40	foodImage.86	FOODEEG_Images\0844.jpg	YN	Left	Yes	1.48449770011939	0	461585	253
903.005859375	0	taste	response	2	100	40	foodImage.86	FOODEEG_Images\0844.jpg	YN	Left	Yes	1.48449770011939	0	462340	234
904.048828125	1	decision	trialStart	2	101	41	foodImage.61	FOODEEG_Images\0640.jpg	NY	Right	Yes	1.21393930003978	0	462874	251
905.08984375	2	decision	foodImageDisplay	2	101	41	foodImage.61	FOODEEG_Images\0640.jpg	NY	Right	Yes	1.21393930003978	0	463407	252
907.154296875	1.21393930003978	decision	choicePhaseStart	2	101	41	foodImage.61	FOODEEG_Images\0640.jpg	NY	Right	Yes	1.21393930003978	0	464464	253
908.357421875	0	decision	response	2	101	41	foodImage.61	FOODEEG_Images\0640.jpg	NY	Right	Yes	1.21393930003978	0	465080	235
909.3984375	1	taste	trialStart	2	102	42	foodImage.12	FOODEEG_Images\0181.jpg	NY	Right	Yes	1.28443469991907	0	465613	251
910.44140625	2	taste	foodImageDisplay	2	102	42	foodImage.12	FOODEEG_Images\0181.jpg	NY	Right	Yes	1.28443469991907	0	466147	252
912.50390625	1.28443469991907	taste	choicePhaseStart	2	102	42	foodImage.12	FOODEEG_Images\0181.jpg	NY	Right	Yes	1.28443469991907	0	467203	253
913.78125	0	taste	response	2	102	42	foodImage.12	FOODEEG_Images\0181.jpg	NY	Right	Yes	1.28443469991907	0	467857	235
914.822265625	1	decision	trialStart	2	103	43	foodImage.71	FOODEEG_Images\0713.jpg	YN	Left	Yes	1.08735869987868	0	468390	251
915.86328125	2	decision	foodImageDisplay	2	103	43	foodImage.71	FOODEEG_Images\0713.jpg	YN	Left	Yes	1.08735869987868	0	468923	252
917.92578125	1.08735869987868	decision	choicePhaseStart	2	103	43	foodImage.71	FOODEEG_Images\0713.jpg	YN	Left	Yes	1.08735869987868	0	469979	253
919.005859375	0	decision	response	2	103	43	foodImage.71	FOODEEG_Images\0713.jpg	YN	Left	Yes	1.08735869987868	0	470532	234
920.048828125	1	decision	trialStart	2	104	44	foodImage.108	FOODEEG_Images\0916.jpg	YN	Right	No	0.974943599896505	0	471066	251
921.103515625	2	decision	foodImageDisplay	2	104	44	foodImage.108	FOODEEG_Images\0916.jpg	YN	Right	No	0.974943599896505	0	471606	252
923.16796875	0.974943599896505	decision	choicePhaseStart	2	104	44	foodImage.108	FOODEEG_Images\0916.jpg	YN	Right	No	0.974943599896505	0	472663	253
924.1328125	0	decision	response	2	104	44	foodImage.108	FOODEEG_Images\0916.jpg	YN	Right	No	0.974943599896505	0	473157	235
925.17578125	1	health	trialStart	2	105	45	foodImage.78	FOODEEG_Images\0787.jpg	YN	Left	Yes	1.25812850007787	0	473691	251
926.22265625	2	health	foodImageDisplay	2	105	45	foodImage.78	FOODEEG_Images\0787.jpg	YN	Left	Yes	1.25812850007787	0	474227	252
928.28515625	1.25812850007787	health	choicePhaseStart	2	105	45	foodImage.78	FOODEEG_Images\0787.jpg	YN	Left	Yes	1.25812850007787	0	475283	253
929.533203125	0	health	response	2	105	45	foodImage.78	FOODEEG_Images\0787.jpg	YN	Left	Yes	1.25812850007787	0	475922	234
930.576171875	1	decision	trialStart	2	106	46	foodImage.22	FOODEEG_Images\0236.jpg	YN	Left	Yes	1.10985510004684	0	476456	251
931.6171875	2	decision	foodImageDisplay	2	106	46	foodImage.22	FOODEEG_Images\0236.jpg	YN	Left	Yes	1.10985510004684	0	476989	252
933.6796875	1.10985510004684	decision	choicePhaseStart	2	106	46	foodImage.22	FOODEEG_Images\0236.jpg	YN	Left	Yes	1.10985510004684	0	478045	253
934.78125	0	decision	response	2	106	46	foodImage.22	FOODEEG_Images\0236.jpg	YN	Left	Yes	1.10985510004684	0	478609	234
935.822265625	1	taste	trialStart	2	107	47	foodImage.21	FOODEEG_Images\0234.jpg	NY	Right	Yes	1.42852249997668	0	479142	251
936.8828125	2	taste	foodImageDisplay	2	107	47	foodImage.21	FOODEEG_Images\0234.jpg	NY	Right	Yes	1.42852249997668	0	479685	252
938.9453125	1.42852249997668	taste	choicePhaseStart	2	107	47	foodImage.21	FOODEEG_Images\0234.jpg	NY	Right	Yes	1.42852249997668	0	480741	253
940.365234375	0	taste	response	2	107	47	foodImage.21	FOODEEG_Images\0234.jpg	NY	Right	Yes	1.42852249997668	0	481468	235
941.40625	1	decision	trialStart	2	108	48	foodImage.103	FOODEEG_Images\0911.jpg	NY	Left	No	1.52106050006114	0	482001	251
942.451171875	2	decision	foodImageDisplay	2	108	48	foodImage.103	FOODEEG_Images\0911.jpg	NY	Left	No	1.52106050006114	0	482536	252
944.515625	1.52106050006114	decision	choicePhaseStart	2	108	48	foodImage.103	FOODEEG_Images\0911.jpg	NY	Left	No	1.52106050006114	0	483593	253
946.02734375	0	decision	response	2	108	48	foodImage.103	FOODEEG_Images\0911.jpg	NY	Left	No	1.52106050006114	0	484367	234
947.068359375	1	decision	trialStart	2	109	49	foodImage.48	FOODEEG_Images\0494.jpg	YN	Right	No	2.27739859977737	0	484900	251
948.1171875	2	decision	foodImageDisplay	2	109	49	foodImage.48	FOODEEG_Images\0494.jpg	YN	Right	No	2.27739859977737	0	485437	252
950.18359375	2.27739859977737	decision	choicePhaseStart	2	109	49	foodImage.48	FOODEEG_Images\0494.jpg	YN	Right	No	2.27739859977737	0	486495	253
952.451171875	0	decision	response	2	109	49	foodImage.48	FOODEEG_Images\0494.jpg	YN	Right	No	2.27739859977737	0	487656	235
953.494140625	1	decision	trialStart	2	110	50	foodImage.84	FOODEEG_Images\0830.jpg	YN	Left	Yes	1.66105089988559	0	488190	251
954.552734375	2	decision	foodImageDisplay	2	110	50	foodImage.84	FOODEEG_Images\0830.jpg	YN	Left	Yes	1.66105089988559	0	488732	252
956.6171875	1.66105089988559	decision	choicePhaseStart	2	110	50	foodImage.84	FOODEEG_Images\0830.jpg	YN	Left	Yes	1.66105089988559	0	489789	253
958.267578125	0	decision	response	2	110	50	foodImage.84	FOODEEG_Images\0830.jpg	YN	Left	Yes	1.66105089988559	0	490634	234
959.310546875	1	health	trialStart	2	111	51	foodImage.107	FOODEEG_Images\0915.jpg	NY	Left	No	1.91366839990951	0	491168	251
960.34765625	2	health	foodImageDisplay	2	111	51	foodImage.107	FOODEEG_Images\0915.jpg	NY	Left	No	1.91366839990951	0	491699	252
962.41015625	1.91366839990951	health	choicePhaseStart	2	111	51	foodImage.107	FOODEEG_Images\0915.jpg	NY	Left	No	1.91366839990951	0	492755	253
964.31640625	0	health	response	2	111	51	foodImage.107	FOODEEG_Images\0915.jpg	NY	Left	No	1.91366839990951	0	493731	234
965.357421875	1	health	trialStart	2	112	52	foodImage.19	FOODEEG_Images\0225.jpg	YN	Left	Yes	1.09256720007397	0	494264	251
966.3984375	2	health	foodImageDisplay	2	112	52	foodImage.19	FOODEEG_Images\0225.jpg	YN	Left	Yes	1.09256720007397	0	494797	252
968.46484375	1.09256720007397	health	choicePhaseStart	2	112	52	foodImage.19	FOODEEG_Images\0225.jpg	YN	Left	Yes	1.09256720007397	0	495855	253
969.546875	0	health	response	2	112	52	foodImage.19	FOODEEG_Images\0225.jpg	YN	Left	Yes	1.09256720007397	0	496409	234
970.591796875	1	taste	trialStart	2	113	53	foodImage.53	FOODEEG_Images\0547.jpg	YN	Left	Yes	1.13854920002632	0	496944	251
971.650390625	2	taste	foodImageDisplay	2	113	53	foodImage.53	FOODEEG_Images\0547.jpg	YN	Left	Yes	1.13854920002632	0	497486	252
973.71484375	1.13854920002632	taste	choicePhaseStart	2	113	53	foodImage.53	FOODEEG_Images\0547.jpg	YN	Left	Yes	1.13854920002632	0	498543	253
974.84375	0	taste	response	2	113	53	foodImage.53	FOODEEG_Images\0547.jpg	YN	Left	Yes	1.13854920002632	0	499121	234
975.88671875	1	decision	trialStart	2	114	54	foodImage.39	FOODEEG_Images\0367.jpg	YN	Left	Yes	1.15206150012091	0	499655	251
976.92578125	2	decision	foodImageDisplay	2	114	54	foodImage.39	FOODEEG_Images\0367.jpg	YN	Left	Yes	1.15206150012091	0	500187	252
978.98828125	1.15206150012091	decision	choicePhaseStart	2	114	54	foodImage.39	FOODEEG_Images\0367.jpg	YN	Left	Yes	1.15206150012091	0	501243	253
980.130859375	0	decision	response	2	114	54	foodImage.39	FOODEEG_Images\0367.jpg	YN	Left	Yes	1.15206150012091	0	501828	234
981.171875	1	health	trialStart	2	115	55	foodImage.97	FOODEEG_Images\0905.jpg	YN	Right	No	1.13678960013203	0	502361	251
982.208984375	2	health	foodImageDisplay	2	115	55	foodImage.97	FOODEEG_Images\0905.jpg	YN	Right	No	1.13678960013203	0	502892	252
984.2734375	1.13678960013203	health	choicePhaseStart	2	115	55	foodImage.97	FOODEEG_Images\0905.jpg	YN	Right	No	1.13678960013203	0	503949	253
985.40234375	0	health	response	2	115	55	foodImage.97	FOODEEG_Images\0905.jpg	YN	Right	No	1.13678960013203	0	504527	235
986.4453125	1	health	trialStart	2	116	56	foodImage.35	FOODEEG_Images\0350.jpg	YN	Right	No	1.73833690001629	0	505061	251
987.482421875	2	health	foodImageDisplay	2	116	56	foodImage.35	FOODEEG_Images\0350.jpg	YN	Right	No	1.73833690001629	0	505592	252
989.544921875	1.73833690001629	health	choicePhaseStart	2	116	56	foodImage.35	FOODEEG_Images\0350.jpg	YN	Right	No	1.73833690001629	0	506648	253
991.2734375	0	health	response	2	116	56	foodImage.35	FOODEEG_Images\0350.jpg	YN	Right	No	1.73833690001629	0	507533	235
992.318359375	1	decision	trialStart	2	117	57	foodImage.52	FOODEEG_Images\0539.jpg	YN	Left	Yes	0.842464500106871	0	508068	251
993.376953125	2	decision	foodImageDisplay	2	117	57	foodImage.52	FOODEEG_Images\0539.jpg	YN	Left	Yes	0.842464500106871	0	508610	252
995.439453125	0.842464500106871	decision	choicePhaseStart	2	117	57	foodImage.52	FOODEEG_Images\0539.jpg	YN	Left	Yes	0.842464500106871	0	509666	253
996.2734375	0	decision	response	2	117	57	foodImage.52	FOODEEG_Images\0539.jpg	YN	Left	Yes	0.842464500106871	0	510093	234
997.31640625	1	decision	trialStart	2	118	58	foodImage.115	FOODEEG_Images\0923.jpg	YN	Right	No	1.1819211000111	0	510627	251
998.35546875	2	decision	foodImageDisplay	2	118	58	foodImage.115	FOODEEG_Images\0923.jpg	YN	Right	No	1.1819211000111	0	511159	252
1000.421875	1.1819211000111	decision	choicePhaseStart	2	118	58	foodImage.115	FOODEEG_Images\0923.jpg	YN	Right	No	1.1819211000111	0	512217	253
1001.59375	0	decision	response	2	118	58	foodImage.115	FOODEEG_Images\0923.jpg	YN	Right	No	1.1819211000111	0	512817	235
1002.63671875	1	decision	trialStart	2	119	59	foodImage.94	FOODEEG_Images\0902.jpg	YN	Right	No	1.6572086000815	0	513351	251
1003.67578125	2	decision	foodImageDisplay	2	119	59	foodImage.94	FOODEEG_Images\0902.jpg	YN	Right	No	1.6572086000815	0	513883	252
1005.73828125	1.6572086000815	decision	choicePhaseStart	2	119	59	foodImage.94	FOODEEG_Images\0902.jpg	YN	Right	No	1.6572086000815	0	514939	253
1007.384765625	0	decision	response	2	119	59	foodImage.94	FOODEEG_Images\0902.jpg	YN	Right	No	1.6572086000815	0	515782	235
1008.42578125	1	decision	trialStart	2	120	60	foodImage.9	FOODEEG_Images\0138.jpg	YN	Left	Yes	1.13484579999931	0	516315	251
1009.494140625	2	decision	foodImageDisplay	2	120	60	foodImage.9	FOODEEG_Images\0138.jpg	YN	Left	Yes	1.13484579999931	0	516862	252
1011.5625	1.13484579999931	decision	choicePhaseStart	2	120	60	foodImage.9	FOODEEG_Images\0138.jpg	YN	Left	Yes	1.13484579999931	0	517921	253
1012.689453125	0	decision	response	2	120	60	foodImage.9	FOODEEG_Images\0138.jpg	YN	Left	Yes	1.13484579999931	0	518498	234
1014.73046875	67.740234375	n/a	blockEnd	n/a	n/a	n/a	n/a	n/a	n/a	n/a	n/a	n/a	n/a	519543	254
1082.470703125	2	n/a	blockStart	3	n/a	n/a	n/a	n/a	n/a	n/a	n/a	n/a	n/a	554226	250
1084.505859375	1	health	trialStart	3	121	1	foodImage.40	FOODEEG_Images\0373.jpg	YN	Right	No	1.27990840002894	0	555268	251
1085.548828125	2	health	foodImageDisplay	3	121	1	foodImage.40	FOODEEG_Images\0373.jpg	YN	Right	No	1.27990840002894	0	555802	252
1087.611328125	1.27990840002894	health	choicePhaseStart	3	121	1	foodImage.40	FOODEEG_Images\0373.jpg	YN	Right	No	1.27990840002894	0	556858	253
1088.88671875	0	health	response	3	121	1	foodImage.40	FOODEEG_Images\0373.jpg	YN	Right	No	1.27990840002894	0	557511	235
1089.931640625	1	health	trialStart	3	122	2	foodImage.33	FOODEEG_Images\0329.jpg	YN	Left	Yes	1.02137970016338	0	558046	251
1090.974609375	2	health	foodImageDisplay	3	122	2	foodImage.33	FOODEEG_Images\0329.jpg	YN	Left	Yes	1.02137970016338	0	558580	252
1093.04296875	1.02137970016338	health	choicePhaseStart	3	122	2	foodImage.33	FOODEEG_Images\0329.jpg	YN	Left	Yes	1.02137970016338	0	559639	253
1094.0546875	0	health	response	3	122	2	foodImage.33	FOODEEG_Images\0329.jpg	YN	Left	Yes	1.02137970016338	0	560157	234
1095.09765625	1	taste	trialStart	3	123	3	foodImage.90	FOODEEG_Images\0890.jpg	NY	Right	Yes	1.20301860012114	0	560691	251
1096.15625	2	taste	foodImageDisplay	3	123	3	foodImage.90	FOODEEG_Images\0890.jpg	NY	Right	Yes	1.20301860012114	0	561233	252
1098.220703125	1.20301860012114	taste	choicePhaseStart	3	123	3	foodImage.90	FOODEEG_Images\0890.jpg	NY	Right	Yes	1.20301860012114	0	562290	253
1099.4140625	0	taste	response	3	123	3	foodImage.90	FOODEEG_Images\0890.jpg	NY	Right	Yes	1.20301860012114	0	562901	235
1100.455078125	1	health	trialStart	3	124	4	foodImage.27	FOODEEG_Images\0263.jpg	YN	Left	Yes	1.02283519995399	0	563434	251
1101.49609375	2	health	foodImageDisplay	3	124	4	foodImage.27	FOODEEG_Images\0263.jpg	YN	Left	Yes	1.02283519995399	0	563967	252
1103.560546875	1.02283519995399	health	choicePhaseStart	3	124	4	foodImage.27	FOODEEG_Images\0263.jpg	YN	Left	Yes	1.02283519995399	0	565024	253
1104.57421875	0	health	response	3	124	4	foodImage.27	FOODEEG_Images\0263.jpg	YN	Left	Yes	1.02283519995399	0	565543	234
1105.6171875	1	taste	trialStart	3	125	5	foodImage.104	FOODEEG_Images\0912.jpg	NY	Left	No	0.776061699958518	0	566077	251
1106.654296875	2	taste	foodImageDisplay	3	125	5	foodImage.104	FOODEEG_Images\0912.jpg	NY	Left	No	0.776061699958518	0	566608	252
1108.71875	0.776061699958518	taste	choicePhaseStart	3	125	5	foodImage.104	FOODEEG_Images\0912.jpg	NY	Left	No	0.776061699958518	0	567665	253
1109.486328125	0	taste	response	3	125	5	foodImage.104	FOODEEG_Images\0912.jpg	NY	Left	No	0.776061699958518	0	568058	234
1110.53125	1	health	trialStart	3	126	6	foodImage.120	FOODEEG_Images\0928.jpg	YN	Left	Yes	0.876491700066254	0	568593	251
1111.5703125	2	health	foodImageDisplay	3	126	6	foodImage.120	FOODEEG_Images\0928.jpg	YN	Left	Yes	0.876491700066254	0	569125	252
1113.634765625	0.876491700066254	health	choicePhaseStart	3	126	6	foodImage.120	FOODEEG_Images\0928.jpg	YN	Left	Yes	0.876491700066254	0	570182	253
1114.501953125	0	health	response	3	126	6	foodImage.120	FOODEEG_Images\0928.jpg	YN	Left	Yes	0.876491700066254	0	570626	234
1115.544921875	1	taste	trialStart	3	127	7	foodImage.116	FOODEEG_Images\0924.jpg	NY	Left	No	1.04039600002579	0	571160	251
1116.583984375	2	taste	foodImageDisplay	3	127	7	foodImage.116	FOODEEG_Images\0924.jpg	NY	Left	No	1.04039600002579	0	571692	252
1118.646484375	1.04039600002579	taste	choicePhaseStart	3	127	7	foodImage.116	FOODEEG_Images\0924.jpg	NY	Left	No	1.04039600002579	0	572748	253
1119.677734375	0	taste	response	3	127	7	foodImage.116	FOODEEG_Images\0924.jpg	NY	Left	No	1.04039600002579	0	573276	234
1120.720703125	1	decision	trialStart	3	128	8	foodImage.41	FOODEEG_Images\0409.jpg	YN	Left	Yes	0.956834699958563	0	573810	251
1121.767578125	2	decision	foodImageDisplay	3	128	8	foodImage.41	FOODEEG_Images\0409.jpg	YN	Left	Yes	0.956834699958563	0	574346	252
1123.830078125	0.956834699958563	decision	choicePhaseStart	3	128	8	foodImage.41	FOODEEG_Images\0409.jpg	YN	Left	Yes	0.956834699958563	0	575402	253
1124.78125	0	decision	response	3	128	8	foodImage.41	FOODEEG_Images\0409.jpg	YN	Left	Yes	0.956834699958563	0	575889	234
1125.826171875	1	decision	trialStart	3	129	9	foodImage.11	FOODEEG_Images\0180.jpg	YN	Left	Yes	1.15748649998568	0	576424	251
1126.8671875	2	decision	foodImageDisplay	3	129	9	foodImage.11	FOODEEG_Images\0180.jpg	YN	Left	Yes	1.15748649998568	0	576957	252
1128.9296875	1.15748649998568	decision	choicePhaseStart	3	129	9	foodImage.11	FOODEEG_Images\0180.jpg	YN	Left	Yes	1.15748649998568	0	578013	253
1130.076171875	0	decision	response	3	129	9	foodImage.11	FOODEEG_Images\0180.jpg	YN	Left	Yes	1.15748649998568	0	578600	234
1131.123046875	1	taste	trialStart	3	130	10	foodImage.68	FOODEEG_Images\0685.jpg	NY	Right	Yes	1.13361099991016	0	579136	251
1132.201171875	2	taste	foodImageDisplay	3	130	10	foodImage.68	FOODEEG_Images\0685.jpg	NY	Right	Yes	1.13361099991016	0	579688	252
1134.265625	1.13361099991016	taste	choicePhaseStart	3	130	10	foodImage.68	FOODEEG_Images\0685.jpg	NY	Right	Yes	1.13361099991016	0	580745	253
1135.388671875	0	taste	response	3	130	10	foodImage.68	FOODEEG_Images\0685.jpg	NY	Right	Yes	1.13361099991016	0	581320	235
1136.431640625	1	decision	trialStart	3	131	11	foodImage.96	FOODEEG_Images\0904.jpg	NY	Left	No	1.11312920018099	0	581854	251
1137.470703125	2	decision	foodImageDisplay	3	131	11	foodImage.96	FOODEEG_Images\0904.jpg	NY	Left	No	1.11312920018099	0	582386	252
1139.533203125	1.11312920018099	decision	choicePhaseStart	3	131	11	foodImage.96	FOODEEG_Images\0904.jpg	NY	Left	No	1.11312920018099	0	583442	253
1140.63671875	0	decision	response	3	131	11	foodImage.96	FOODEEG_Images\0904.jpg	NY	Left	No	1.11312920018099	0	584007	234
1141.6796875	1	taste	trialStart	3	132	12	foodImage.39	FOODEEG_Images\0367.jpg	YN	Left	Yes	1.39271249994636	0	584541	251
1142.732421875	2	taste	foodImageDisplay	3	132	12	foodImage.39	FOODEEG_Images\0367.jpg	YN	Left	Yes	1.39271249994636	0	585080	252
1144.796875	1.39271249994636	taste	choicePhaseStart	3	132	12	foodImage.39	FOODEEG_Images\0367.jpg	YN	Left	Yes	1.39271249994636	0	586137	253
1146.1796875	0	taste	response	3	132	12	foodImage.39	FOODEEG_Images\0367.jpg	YN	Left	Yes	1.39271249994636	0	586845	234
1147.22265625	1	health	trialStart	3	133	13	foodImage.63	FOODEEG_Images\0645.jpg	YN	Right	No	1.44366659992374	0	587379	251
1148.267578125	2	health	foodImageDisplay	3	133	13	foodImage.63	FOODEEG_Images\0645.jpg	YN	Right	No	1.44366659992374	0	587914	252
1150.330078125	1.44366659992374	health	choicePhaseStart	3	133	13	foodImage.63	FOODEEG_Images\0645.jpg	YN	Right	No	1.44366659992374	0	588970	253
1151.763671875	0	health	response	3	133	13	foodImage.63	FOODEEG_Images\0645.jpg	YN	Right	No	1.44366659992374	0	589704	235
1152.8125	1	decision	trialStart	3	134	14	foodImage.62	FOODEEG_Images\0644.jpg	NY	Right	Yes	1.09156690002419	0	590241	251
1153.87109375	2	decision	foodImageDisplay	3	134	14	foodImage.62	FOODEEG_Images\0644.jpg	NY	Right	Yes	1.09156690002419	0	590783	252
1155.935546875	1.09156690002419	decision	choicePhaseStart	3	134	14	foodImage.62	FOODEEG_Images\0644.jpg	NY	Right	Yes	1.09156690002419	0	591840	253
1157.01953125	0	decision	response	3	134	14	foodImage.62	FOODEEG_Images\0644.jpg	NY	Right	Yes	1.09156690002419	0	592395	235
1158.060546875	1	decision	trialStart	3	135	15	foodImage.66	FOODEEG_Images\0676.jpg	YN	Left	Yes	1.49674319988117	0	592928	251
1159.1015625	2	decision	foodImageDisplay	3	135	15	foodImage.66	FOODEEG_Images\0676.jpg	YN	Left	Yes	1.49674319988117	0	593461	252
1161.1640625	1.49674319988117	decision	choicePhaseStart	3	135	15	foodImage.66	FOODEEG_Images\0676.jpg	YN	Left	Yes	1.49674319988117	0	594517	253
1162.65234375	0	decision	response	3	135	15	foodImage.66	FOODEEG_Images\0676.jpg	YN	Left	Yes	1.49674319988117	0	595279	234
1163.6953125	1	decision	trialStart	3	136	16	foodImage.69	FOODEEG_Images\0693.jpg	NY	Left	No	1.18983409996144	0	595813	251
1164.736328125	2	decision	foodImageDisplay	3	136	16	foodImage.69	FOODEEG_Images\0693.jpg	NY	Left	No	1.18983409996144	0	596346	252
1166.798828125	1.18983409996144	decision	choicePhaseStart	3	136	16	foodImage.69	FOODEEG_Images\0693.jpg	NY	Left	No	1.18983409996144	0	597402	253
1167.98046875	0	decision	response	3	136	16	foodImage.69	FOODEEG_Images\0693.jpg	NY	Left	No	1.18983409996144	0	598007	234
1169.0234375	1	decision	trialStart	3	137	17	foodImage.45	FOODEEG_Images\0478.jpg	YN	Left	Yes	1.41079069999978	0	598541	251
1170.068359375	2	decision	foodImageDisplay	3	137	17	foodImage.45	FOODEEG_Images\0478.jpg	YN	Left	Yes	1.41079069999978	0	599076	252
1172.130859375	1.41079069999978	decision	choicePhaseStart	3	137	17	foodImage.45	FOODEEG_Images\0478.jpg	YN	Left	Yes	1.41079069999978	0	600132	253
1173.53125	0	decision	response	3	137	17	foodImage.45	FOODEEG_Images\0478.jpg	YN	Left	Yes	1.41079069999978	0	600849	234
1174.57421875	1	decision	trialStart	3	138	18	foodImage.78	FOODEEG_Images\0787.jpg	NY	Right	Yes	1.13917199987918	0	601383	251
1175.6171875	2	decision	foodImageDisplay	3	138	18	foodImage.78	FOODEEG_Images\0787.jpg	NY	Right	Yes	1.13917199987918	0	601917	252
1177.681640625	1.13917199987918	decision	choicePhaseStart	3	138	18	foodImage.78	FOODEEG_Images\0787.jpg	NY	Right	Yes	1.13917199987918	0	602974	253
1178.810546875	0	decision	response	3	138	18	foodImage.78	FOODEEG_Images\0787.jpg	NY	Right	Yes	1.13917199987918	0	603552	235
1179.85546875	1	taste	trialStart	3	139	19	foodImage.65	FOODEEG_Images\0658.jpg	YN	Left	Yes	1.42152739991434	0	604087	251
1180.896484375	2	taste	foodImageDisplay	3	139	19	foodImage.65	FOODEEG_Images\0658.jpg	YN	Left	Yes	1.42152739991434	0	604620	252
1182.958984375	1.42152739991434	taste	choicePhaseStart	3	139	19	foodImage.65	FOODEEG_Images\0658.jpg	YN	Left	Yes	1.42152739991434	0	605676	253
1184.37109375	0	taste	response	3	139	19	foodImage.65	FOODEEG_Images\0658.jpg	YN	Left	Yes	1.42152739991434	0	606399	234
1185.4140625	1	health	trialStart	3	140	20	foodImage.69	FOODEEG_Images\0693.jpg	YN	Right	No	1.32893220009282	0	606933	251
1186.458984375	2	health	foodImageDisplay	3	140	20	foodImage.69	FOODEEG_Images\0693.jpg	YN	Right	No	1.32893220009282	0	607468	252
1188.521484375	1.32893220009282	health	choicePhaseStart	3	140	20	foodImage.69	FOODEEG_Images\0693.jpg	YN	Right	No	1.32893220009282	0	608524	253
1189.841796875	0	health	response	3	140	20	foodImage.69	FOODEEG_Images\0693.jpg	YN	Right	No	1.32893220009282	0	609200	235
1190.884765625	1	taste	trialStart	3	141	21	foodImage.5	FOODEEG_Images\0107.jpg	NY	Right	Yes	1.12925820006058	0	609734	251
1191.947265625	2	taste	foodImageDisplay	3	141	21	foodImage.5	FOODEEG_Images\0107.jpg	NY	Right	Yes	1.12925820006058	0	610278	252
1194.009765625	1.12925820006058	taste	choicePhaseStart	3	141	21	foodImage.5	FOODEEG_Images\0107.jpg	NY	Right	Yes	1.12925820006058	0	611334	253
1195.130859375	0	taste	response	3	141	21	foodImage.5	FOODEEG_Images\0107.jpg	NY	Right	Yes	1.12925820006058	0	611908	235
1196.173828125	1	health	trialStart	3	142	22	foodImage.22	FOODEEG_Images\0236.jpg	NY	Right	Yes	1.26372250006534	0	612442	251
1197.212890625	2	health	foodImageDisplay	3	142	22	foodImage.22	FOODEEG_Images\0236.jpg	NY	Right	Yes	1.26372250006534	0	612974	252
1199.275390625	1.26372250006534	health	choicePhaseStart	3	142	22	foodImage.22	FOODEEG_Images\0236.jpg	NY	Right	Yes	1.26372250006534	0	614030	253
1200.529296875	0	health	response	3	142	22	foodImage.22	FOODEEG_Images\0236.jpg	NY	Right	Yes	1.26372250006534	0	614672	235
1201.572265625	1	taste	trialStart	3	143	23	foodImage.70	FOODEEG_Images\0705.jpg	YN	Left	Yes	1.07036630017683	0	615206	251
1202.630859375	2	taste	foodImageDisplay	3	143	23	foodImage.70	FOODEEG_Images\0705.jpg	YN	Left	Yes	1.07036630017683	0	615748	252
1204.693359375	1.07036630017683	taste	choicePhaseStart	3	143	23	foodImage.70	FOODEEG_Images\0705.jpg	YN	Left	Yes	1.07036630017683	0	616804	253
1205.75390625	0	taste	response	3	143	23	foodImage.70	FOODEEG_Images\0705.jpg	YN	Left	Yes	1.07036630017683	0	617347	234
1206.796875	1	health	trialStart	3	144	24	foodImage.114	FOODEEG_Images\0922.jpg	NY	Right	Yes	1.10575849981979	0	617881	251
1207.833984375	2	health	foodImageDisplay	3	144	24	foodImage.114	FOODEEG_Images\0922.jpg	NY	Right	Yes	1.10575849981979	0	618412	252
1209.896484375	1.10575849981979	health	choicePhaseStart	3	144	24	foodImage.114	FOODEEG_Images\0922.jpg	NY	Right	Yes	1.10575849981979	0	619468	253
1210.994140625	0	health	response	3	144	24	foodImage.114	FOODEEG_Images\0922.jpg	NY	Right	Yes	1.10575849981979	0	620030	235
1212.037109375	1	decision	trialStart	3	145	25	foodImage.53	FOODEEG_Images\0547.jpg	NY	Right	Yes	1.26755990018137	0	620564	251
1213.09375	2	decision	foodImageDisplay	3	145	25	foodImage.53	FOODEEG_Images\0547.jpg	NY	Right	Yes	1.26755990018137	0	621105	252
1215.158203125	1.26755990018137	decision	choicePhaseStart	3	145	25	foodImage.53	FOODEEG_Images\0547.jpg	NY	Right	Yes	1.26755990018137	0	622162	253
1216.41796875	0	decision	response	3	145	25	foodImage.53	FOODEEG_Images\0547.jpg	NY	Right	Yes	1.26755990018137	0	622807	235
1217.4609375	1	taste	trialStart	3	146	26	foodImage.72	FOODEEG_Images\0714.jpg	NY	Left	No	1.01357050007209	0	623341	251
1218.501953125	2	taste	foodImageDisplay	3	146	26	foodImage.72	FOODEEG_Images\0714.jpg	NY	Left	No	1.01357050007209	0	623874	252
1220.564453125	1.01357050007209	taste	choicePhaseStart	3	146	26	foodImage.72	FOODEEG_Images\0714.jpg	NY	Left	No	1.01357050007209	0	624930	253
1221.568359375	0	taste	response	3	146	26	foodImage.72	FOODEEG_Images\0714.jpg	NY	Left	No	1.01357050007209	0	625444	234
1222.61328125	1	health	trialStart	3	147	27	foodImage.64	FOODEEG_Images\0647.jpg	YN	Left	Yes	0.938720199977979	0	625979	251
1223.671875	2	health	foodImageDisplay	3	147	27	foodImage.64	FOODEEG_Images\0647.jpg	YN	Left	Yes	0.938720199977979	0	626521	252
1225.736328125	0.938720199977979	health	choicePhaseStart	3	147	27	foodImage.64	FOODEEG_Images\0647.jpg	YN	Left	Yes	0.938720199977979	0	627578	253
1226.6640625	0	health	response	3	147	27	foodImage.64	FOODEEG_Images\0647.jpg	YN	Left	Yes	0.938720199977979	0	628053	234
1227.708984375	1	health	trialStart	3	148	28	foodImage.119	FOODEEG_Images\0927.jpg	NY	Left	No	0.916975899832323	0	628588	251
1228.748046875	2	health	foodImageDisplay	3	148	28	foodImage.119	FOODEEG_Images\0927.jpg	NY	Left	No	0.916975899832323	0	629120	252
1230.810546875	0.916975899832323	health	choicePhaseStart	3	148	28	foodImage.119	FOODEEG_Images\0927.jpg	NY	Left	No	0.916975899832323	0	630176	253
1231.720703125	0	health	response	3	148	28	foodImage.119	FOODEEG_Images\0927.jpg	NY	Left	No	0.916975899832323	0	630642	234
1232.763671875	1	taste	trialStart	3	149	29	foodImage.105	FOODEEG_Images\0913.jpg	YN	Right	No	1.40154149988666	0	631176	251
1233.80078125	2	taste	foodImageDisplay	3	149	29	foodImage.105	FOODEEG_Images\0913.jpg	YN	Right	No	1.40154149988666	0	631707	252
1235.865234375	1.40154149988666	taste	choicePhaseStart	3	149	29	foodImage.105	FOODEEG_Images\0913.jpg	YN	Right	No	1.40154149988666	0	632764	253
1237.255859375	0	taste	response	3	149	29	foodImage.105	FOODEEG_Images\0913.jpg	YN	Right	No	1.40154149988666	0	633476	235
1238.3203125	1	decision	trialStart	3	150	30	foodImage.95	FOODEEG_Images\0903.jpg	NY	Left	No	1.31883389991708	0	634021	251
1239.357421875	2	decision	foodImageDisplay	3	150	30	foodImage.95	FOODEEG_Images\0903.jpg	NY	Left	No	1.31883389991708	0	634552	252
1241.419921875	1.31883389991708	decision	choicePhaseStart	3	150	30	foodImage.95	FOODEEG_Images\0903.jpg	NY	Left	No	1.31883389991708	0	635608	253
1242.728515625	0	decision	response	3	150	30	foodImage.95	FOODEEG_Images\0903.jpg	NY	Left	No	1.31883389991708	0	636278	234
1243.771484375	1	decision	trialStart	3	151	31	foodImage.19	FOODEEG_Images\0225.jpg	NY	Right	Yes	0.828923600027338	0	636812	251
1244.814453125	2	decision	foodImageDisplay	3	151	31	foodImage.19	FOODEEG_Images\0225.jpg	NY	Right	Yes	0.828923600027338	0	637346	252
1246.876953125	0.828923600027338	decision	choicePhaseStart	3	151	31	foodImage.19	FOODEEG_Images\0225.jpg	NY	Right	Yes	0.828923600027338	0	638402	253
1247.697265625	0	decision	response	3	151	31	foodImage.19	FOODEEG_Images\0225.jpg	NY	Right	Yes	0.828923600027338	0	638822	235
1248.740234375	1	decision	trialStart	3	152	32	foodImage.21	FOODEEG_Images\0234.jpg	NY	Right	Yes	0.937611800152808	0	639356	251
1249.80078125	2	decision	foodImageDisplay	3	152	32	foodImage.21	FOODEEG_Images\0234.jpg	NY	Right	Yes	0.937611800152808	0	639899	252
1251.86328125	0.937611800152808	decision	choicePhaseStart	3	152	32	foodImage.21	FOODEEG_Images\0234.jpg	NY	Right	Yes	0.937611800152808	0	640955	253
1252.79296875	0	decision	response	3	152	32	foodImage.21	FOODEEG_Images\0234.jpg	NY	Right	Yes	0.937611800152808	0	641431	235
1253.833984375	1	health	trialStart	3	153	33	foodImage.24	FOODEEG_Images\0250.jpg	NY	Right	Yes	1.06158760003746	0	641964	251
1254.884765625	2	health	foodImageDisplay	3	153	33	foodImage.24	FOODEEG_Images\0250.jpg	NY	Right	Yes	1.06158760003746	0	642502	252
1256.947265625	1.06158760003746	health	choicePhaseStart	3	153	33	foodImage.24	FOODEEG_Images\0250.jpg	NY	Right	Yes	1.06158760003746	0	643558	253
1258	0	health	response	3	153	33	foodImage.24	FOODEEG_Images\0250.jpg	NY	Right	Yes	1.06158760003746	0	644097	235
1259.04296875	1	taste	trialStart	3	154	34	foodImage.113	FOODEEG_Images\0921.jpg	YN	Right	No	1.01608359999955	0	644631	251
1260.08203125	2	taste	foodImageDisplay	3	154	34	foodImage.113	FOODEEG_Images\0921.jpg	YN	Right	No	1.01608359999955	0	645163	252
1262.14453125	1.01608359999955	taste	choicePhaseStart	3	154	34	foodImage.113	FOODEEG_Images\0921.jpg	YN	Right	No	1.01608359999955	0	646219	253
1263.15234375	0	taste	response	3	154	34	foodImage.113	FOODEEG_Images\0921.jpg	YN	Right	No	1.01608359999955	0	646735	235
1264.1953125	1	taste	trialStart	3	155	35	foodImage.118	FOODEEG_Images\0926.jpg	NY	Left	No	0.957200600067154	0	647269	251
1265.232421875	2	taste	foodImageDisplay	3	155	35	foodImage.118	FOODEEG_Images\0926.jpg	NY	Left	No	0.957200600067154	0	647800	252
1267.298828125	0.957200600067154	taste	choicePhaseStart	3	155	35	foodImage.118	FOODEEG_Images\0926.jpg	NY	Left	No	0.957200600067154	0	648858	253
1268.248046875	0	taste	response	3	155	35	foodImage.118	FOODEEG_Images\0926.jpg	NY	Left	No	0.957200600067154	0	649344	234
1269.291015625	1	taste	trialStart	3	156	36	foodImage.41	FOODEEG_Images\0409.jpg	NY	Right	Yes	1.67404299997725	0	649878	251
1270.3359375	2	taste	foodImageDisplay	3	156	36	foodImage.41	FOODEEG_Images\0409.jpg	NY	Right	Yes	1.67404299997725	0	650413	252
1272.3984375	1.67404299997725	taste	choicePhaseStart	3	156	36	foodImage.41	FOODEEG_Images\0409.jpg	NY	Right	Yes	1.67404299997725	0	651469	253
1274.0625	0	taste	response	3	156	36	foodImage.41	FOODEEG_Images\0409.jpg	NY	Right	Yes	1.67404299997725	0	652321	235
1275.107421875	1	health	trialStart	3	157	37	foodImage.117	FOODEEG_Images\0925.jpg	YN	Right	No	1.40005050017498	0	652856	251
1276.146484375	2	health	foodImageDisplay	3	157	37	foodImage.117	FOODEEG_Images\0925.jpg	YN	Right	No	1.40005050017498	0	653388	252
1278.208984375	1.40005050017498	health	choicePhaseStart	3	157	37	foodImage.117	FOODEEG_Images\0925.jpg	YN	Right	No	1.40005050017498	0	654444	253
1279.599609375	0	health	response	3	157	37	foodImage.117	FOODEEG_Images\0925.jpg	YN	Right	No	1.40005050017498	0	655156	235
1280.64453125	1	health	trialStart	3	158	38	foodImage.111	FOODEEG_Images\0919.jpg	YN	Right	No	1.22320519993082	0	655691	251
1281.68359375	2	health	foodImageDisplay	3	158	38	foodImage.111	FOODEEG_Images\0919.jpg	YN	Right	No	1.22320519993082	0	656223	252
1283.74609375	1.22320519993082	health	choicePhaseStart	3	158	38	foodImage.111	FOODEEG_Images\0919.jpg	YN	Right	No	1.22320519993082	0	657279	253
1284.958984375	0	health	response	3	158	38	foodImage.111	FOODEEG_Images\0919.jpg	YN	Right	No	1.22320519993082	0	657900	235
1286.005859375	1	decision	trialStart	3	159	39	foodImage.26	FOODEEG_Images\0262.jpg	YN	Left	Yes	1.30428460007533	0	658436	251
1287.048828125	2	decision	foodImageDisplay	3	159	39	foodImage.26	FOODEEG_Images\0262.jpg	YN	Left	Yes	1.30428460007533	0	658970	252
1289.111328125	1.30428460007533	decision	choicePhaseStart	3	159	39	foodImage.26	FOODEEG_Images\0262.jpg	YN	Left	Yes	1.30428460007533	0	660026	253
1290.40625	0	decision	response	3	159	39	foodImage.26	FOODEEG_Images\0262.jpg	YN	Left	Yes	1.30428460007533	0	660689	234
1291.451171875	1	health	trialStart	3	160	40	foodImage.68	FOODEEG_Images\0685.jpg	NY	Right	Yes	1.00206660013646	0	661224	251
1292.525390625	2	health	foodImageDisplay	3	160	40	foodImage.68	FOODEEG_Images\0685.jpg	NY	Right	Yes	1.00206660013646	0	661774	252
1294.58984375	1.00206660013646	health	choicePhaseStart	3	160	40	foodImage.68	FOODEEG_Images\0685.jpg	NY	Right	Yes	1.00206660013646	0	662831	253
1295.58203125	0	health	response	3	160	40	foodImage.68	FOODEEG_Images\0685.jpg	NY	Right	Yes	1.00206660013646	0	663339	235
1296.623046875	1	taste	trialStart	3	161	41	foodImage.37	FOODEEG_Images\0359.jpg	YN	Left	Yes	1.11265669995919	0	663872	251
1297.666015625	2	taste	foodImageDisplay	3	161	41	foodImage.37	FOODEEG_Images\0359.jpg	YN	Left	Yes	1.11265669995919	0	664406	252
1299.728515625	1.11265669995919	taste	choicePhaseStart	3	161	41	foodImage.37	FOODEEG_Images\0359.jpg	YN	Left	Yes	1.11265669995919	0	665462	253
1300.830078125	0	taste	response	3	161	41	foodImage.37	FOODEEG_Images\0359.jpg	YN	Left	Yes	1.11265669995919	0	666026	234
1301.873046875	1	decision	trialStart	3	162	42	foodImage.57	FOODEEG_Images\0587.jpg	YN	Right	No	2.57576819998212	0	666560	251
1302.916015625	2	decision	foodImageDisplay	3	162	42	foodImage.57	FOODEEG_Images\0587.jpg	YN	Right	No	2.57576819998212	0	667094	252
1304.984375	2.57576819998212	decision	choicePhaseStart	3	162	42	foodImage.57	FOODEEG_Images\0587.jpg	YN	Right	No	2.57576819998212	0	668153	253
1307.55078125	0	decision	response	3	162	42	foodImage.57	FOODEEG_Images\0587.jpg	YN	Right	No	2.57576819998212	0	669467	235
1308.595703125	1	decision	trialStart	3	163	43	foodImage.70	FOODEEG_Images\0705.jpg	YN	Left	Yes	1.06039619981311	0	670002	251
1309.65234375	2	decision	foodImageDisplay	3	163	43	foodImage.70	FOODEEG_Images\0705.jpg	YN	Left	Yes	1.06039619981311	0	670543	252
1311.71484375	1.06039619981311	decision	choicePhaseStart	3	163	43	foodImage.70	FOODEEG_Images\0705.jpg	YN	Left	Yes	1.06039619981311	0	671599	253
1312.765625	0	decision	response	3	163	43	foodImage.70	FOODEEG_Images\0705.jpg	YN	Left	Yes	1.06039619981311	0	672137	234
1313.80859375	1	taste	trialStart	3	164	44	foodImage.62	FOODEEG_Images\0644.jpg	NY	Right	Yes	1.08080239989795	0	672671	251
1314.865234375	2	taste	foodImageDisplay	3	164	44	foodImage.62	FOODEEG_Images\0644.jpg	NY	Right	Yes	1.08080239989795	0	673212	252
1316.92578125	1.08080239989795	taste	choicePhaseStart	3	164	44	foodImage.62	FOODEEG_Images\0644.jpg	NY	Right	Yes	1.08080239989795	0	674267	253
1317.998046875	0	taste	response	3	164	44	foodImage.62	FOODEEG_Images\0644.jpg	NY	Right	Yes	1.08080239989795	0	674816	235
1319.041015625	1	decision	trialStart	3	165	45	foodImage.113	FOODEEG_Images\0921.jpg	YN	Right	No	1.03300940012559	0	675350	251
1320.078125	2	decision	foodImageDisplay	3	165	45	foodImage.113	FOODEEG_Images\0921.jpg	YN	Right	No	1.03300940012559	0	675881	252
1322.142578125	1.03300940012559	decision	choicePhaseStart	3	165	45	foodImage.113	FOODEEG_Images\0921.jpg	YN	Right	No	1.03300940012559	0	676938	253
1323.166015625	0	decision	response	3	165	45	foodImage.113	FOODEEG_Images\0921.jpg	YN	Right	No	1.03300940012559	0	677462	235
1324.208984375	1	decision	trialStart	3	166	46	foodImage.89	FOODEEG_Images\0881.jpg	NY	Right	Yes	0.848713499959558	0	677996	251
1325.263671875	2	decision	foodImageDisplay	3	166	46	foodImage.89	FOODEEG_Images\0881.jpg	NY	Right	Yes	0.848713499959558	0	678536	252
1327.326171875	0.848713499959558	decision	choicePhaseStart	3	166	46	foodImage.89	FOODEEG_Images\0881.jpg	NY	Right	Yes	0.848713499959558	0	679592	253
1328.166015625	0	decision	response	3	166	46	foodImage.89	FOODEEG_Images\0881.jpg	NY	Right	Yes	0.848713499959558	0	680022	235
1329.208984375	1	decision	trialStart	3	167	47	foodImage.97	FOODEEG_Images\0905.jpg	NY	Left	No	0.918376999907196	0	680556	251
1330.248046875	2	decision	foodImageDisplay	3	167	47	foodImage.97	FOODEEG_Images\0905.jpg	NY	Left	No	0.918376999907196	0	681088	252
1332.3125	0.918376999907196	decision	choicePhaseStart	3	167	47	foodImage.97	FOODEEG_Images\0905.jpg	NY	Left	No	0.918376999907196	0	682145	253
1333.220703125	0	decision	response	3	167	47	foodImage.97	FOODEEG_Images\0905.jpg	NY	Left	No	0.918376999907196	0	682610	234
1334.265625	1	health	trialStart	3	168	48	foodImage.9	FOODEEG_Images\0138.jpg	NY	Right	Yes	1.09546500002034	0	683145	251
1335.322265625	2	health	foodImageDisplay	3	168	48	foodImage.9	FOODEEG_Images\0138.jpg	NY	Right	Yes	1.09546500002034	0	683686	252
1337.390625	1.09546500002034	health	choicePhaseStart	3	168	48	foodImage.9	FOODEEG_Images\0138.jpg	NY	Right	Yes	1.09546500002034	0	684745	253
1338.4765625	0	health	response	3	168	48	foodImage.9	FOODEEG_Images\0138.jpg	NY	Right	Yes	1.09546500002034	0	685301	235
1339.51953125	1	taste	trialStart	3	169	49	foodImage.38	FOODEEG_Images\0365.jpg	YN	Left	Yes	1.06500699999742	0	685835	251
1340.55859375	2	taste	foodImageDisplay	3	169	49	foodImage.38	FOODEEG_Images\0365.jpg	YN	Left	Yes	1.06500699999742	0	686367	252
1342.62109375	1.06500699999742	taste	choicePhaseStart	3	169	49	foodImage.38	FOODEEG_Images\0365.jpg	YN	Left	Yes	1.06500699999742	0	687423	253
1343.677734375	0	taste	response	3	169	49	foodImage.38	FOODEEG_Images\0365.jpg	YN	Left	Yes	1.06500699999742	0	687964	234
1344.720703125	1	taste	trialStart	3	170	50	foodImage.49	FOODEEG_Images\0515.jpg	NY	Right	Yes	1.05305329989642	0	688498	251
1345.76171875	2	taste	foodImageDisplay	3	170	50	foodImage.49	FOODEEG_Images\0515.jpg	NY	Right	Yes	1.05305329989642	0	689031	252
1347.830078125	1.05305329989642	taste	choicePhaseStart	3	170	50	foodImage.49	FOODEEG_Images\0515.jpg	NY	Right	Yes	1.05305329989642	0	690090	253
1348.876953125	0	taste	response	3	170	50	foodImage.49	FOODEEG_Images\0515.jpg	NY	Right	Yes	1.05305329989642	0	690626	235
1349.91796875	1	taste	trialStart	3	171	51	foodImage.40	FOODEEG_Images\0373.jpg	NY	Right	Yes	0.985606299946085	0	691159	251
1350.958984375	2	taste	foodImageDisplay	3	171	51	foodImage.40	FOODEEG_Images\0373.jpg	NY	Right	Yes	0.985606299946085	0	691692	252
1353.021484375	0.985606299946085	taste	choicePhaseStart	3	171	51	foodImage.40	FOODEEG_Images\0373.jpg	NY	Right	Yes	0.985606299946085	0	692748	253
1353.99609375	0	taste	response	3	171	51	foodImage.40	FOODEEG_Images\0373.jpg	NY	Right	Yes	0.985606299946085	0	693247	235
1355.0390625	1	health	trialStart	3	172	52	foodImage.90	FOODEEG_Images\0890.jpg	YN	Left	Yes	0.895597199909389	0	693781	251
1356.123046875	2	health	foodImageDisplay	3	172	52	foodImage.90	FOODEEG_Images\0890.jpg	YN	Left	Yes	0.895597199909389	0	694336	252
1358.1875	0.895597199909389	health	choicePhaseStart	3	172	52	foodImage.90	FOODEEG_Images\0890.jpg	YN	Left	Yes	0.895597199909389	0	695393	253
1359.076171875	0	health	response	3	172	52	foodImage.90	FOODEEG_Images\0890.jpg	YN	Left	Yes	0.895597199909389	0	695848	234
1360.12109375	1	decision	trialStart	3	173	53	foodImage.32	FOODEEG_Images\0319.jpg	YN	Right	No	2.65163139998913	0	696383	251
1361.162109375	2	decision	foodImageDisplay	3	173	53	foodImage.32	FOODEEG_Images\0319.jpg	YN	Right	No	2.65163139998913	0	696916	252
1363.2265625	2.65163139998913	decision	choicePhaseStart	3	173	53	foodImage.32	FOODEEG_Images\0319.jpg	YN	Right	No	2.65163139998913	0	697973	253
1365.8671875	0	decision	response	3	173	53	foodImage.32	FOODEEG_Images\0319.jpg	YN	Right	No	2.65163139998913	0	699325	235
1366.91015625	1	taste	trialStart	3	174	54	foodImage.14	FOODEEG_Images\0188.jpg	NY	Right	Yes	0.900577299995348	0	699859	251
1367.966796875	2	taste	foodImageDisplay	3	174	54	foodImage.14	FOODEEG_Images\0188.jpg	NY	Right	Yes	0.900577299995348	0	700400	252
1370.029296875	0.900577299995348	taste	choicePhaseStart	3	174	54	foodImage.14	FOODEEG_Images\0188.jpg	NY	Right	Yes	0.900577299995348	0	701456	253
1370.923828125	0	taste	response	3	174	54	foodImage.14	FOODEEG_Images\0188.jpg	NY	Right	Yes	0.900577299995348	0	701914	235
1371.96875	1	health	trialStart	3	175	55	foodImage.47	FOODEEG_Images\0488.jpg	YN	Right	No	1.38681859988719	0	702449	251
1373.009765625	2	health	foodImageDisplay	3	175	55	foodImage.47	FOODEEG_Images\0488.jpg	YN	Right	No	1.38681859988719	0	702982	252
1375.07421875	1.38681859988719	health	choicePhaseStart	3	175	55	foodImage.47	FOODEEG_Images\0488.jpg	YN	Right	No	1.38681859988719	0	704039	253
1376.451171875	0	health	response	3	175	55	foodImage.47	FOODEEG_Images\0488.jpg	YN	Right	No	1.38681859988719	0	704744	235
1377.494140625	1	taste	trialStart	3	176	56	foodImage.10	FOODEEG_Images\0145.jpg	NY	Right	Yes	1.80986890010536	0	705278	251
1378.552734375	2	taste	foodImageDisplay	3	176	56	foodImage.10	FOODEEG_Images\0145.jpg	NY	Right	Yes	1.80986890010536	0	705820	252
1380.619140625	1.80986890010536	taste	choicePhaseStart	3	176	56	foodImage.10	FOODEEG_Images\0145.jpg	NY	Right	Yes	1.80986890010536	0	706878	253
1382.419921875	0	taste	response	3	176	56	foodImage.10	FOODEEG_Images\0145.jpg	NY	Right	Yes	1.80986890010536	0	707800	235
1383.462890625	1	taste	trialStart	3	177	57	foodImage.92	FOODEEG_Images\0900.jpg	NY	Left	No	1.292048699921	0	708334	251
1384.50390625	2	taste	foodImageDisplay	3	177	57	foodImage.92	FOODEEG_Images\0900.jpg	NY	Left	No	1.292048699921	0	708867	252
1386.568359375	1.292048699921	taste	choicePhaseStart	3	177	57	foodImage.92	FOODEEG_Images\0900.jpg	NY	Left	No	1.292048699921	0	709924	253
1387.8515625	0	taste	response	3	177	57	foodImage.92	FOODEEG_Images\0900.jpg	NY	Left	No	1.292048699921	0	710581	234
1388.900390625	1	health	trialStart	3	178	58	foodImage.30	FOODEEG_Images\0282.jpg	YN	Left	Yes	1.11791410017759	0	711118	251
1389.943359375	2	health	foodImageDisplay	3	178	58	foodImage.30	FOODEEG_Images\0282.jpg	YN	Left	Yes	1.11791410017759	0	711652	252
1392.005859375	1.11791410017759	health	choicePhaseStart	3	178	58	foodImage.30	FOODEEG_Images\0282.jpg	YN	Left	Yes	1.11791410017759	0	712708	253
1393.115234375	0	health	response	3	178	58	foodImage.30	FOODEEG_Images\0282.jpg	YN	Left	Yes	1.11791410017759	0	713276	234
1394.154296875	1	health	trialStart	3	179	59	foodImage.21	FOODEEG_Images\0234.jpg	NY	Right	Yes	1.8337131999433	0	713808	251
1395.208984375	2	health	foodImageDisplay	3	179	59	foodImage.21	FOODEEG_Images\0234.jpg	NY	Right	Yes	1.8337131999433	0	714348	252
1397.271484375	1.8337131999433	health	choicePhaseStart	3	179	59	foodImage.21	FOODEEG_Images\0234.jpg	NY	Right	Yes	1.8337131999433	0	715404	253
1399.09765625	0	health	response	3	179	59	foodImage.21	FOODEEG_Images\0234.jpg	NY	Right	Yes	1.8337131999433	0	716339	235
1400.138671875	1	health	trialStart	3	180	60	foodImage.25	FOODEEG_Images\0261.jpg	YN	Left	Yes	1.7915882000234	0	716872	251
1401.1796875	2	health	foodImageDisplay	3	180	60	foodImage.25	FOODEEG_Images\0261.jpg	YN	Left	Yes	1.7915882000234	0	717405	252
1403.240234375	1.7915882000234	health	choicePhaseStart	3	180	60	foodImage.25	FOODEEG_Images\0261.jpg	YN	Left	Yes	1.7915882000234	0	718460	253
1405.025390625	0	health	response	3	180	60	foodImage.25	FOODEEG_Images\0261.jpg	YN	Left	Yes	1.7915882000234	0	719374	234
1407.068359375	75.748046875	n/a	blockEnd	n/a	n/a	n/a	n/a	n/a	n/a	n/a	n/a	n/a	n/a	720420	254
1482.81640625	2	n/a	blockStart	4	n/a	n/a	n/a	n/a	n/a	n/a	n/a	n/a	n/a	759203	250
1484.8515625	1	health	trialStart	4	181	1	foodImage.115	FOODEEG_Images\0923.jpg	YN	Left	Yes	1.45000139996409	0	760245	251
1485.89453125	2	health	foodImageDisplay	4	181	1	foodImage.115	FOODEEG_Images\0923.jpg	YN	Left	Yes	1.45000139996409	0	760779	252
1487.95703125	1.45000139996409	health	choicePhaseStart	4	181	1	foodImage.115	FOODEEG_Images\0923.jpg	YN	Left	Yes	1.45000139996409	0	761835	253
1489.3984375	0	health	response	4	181	1	foodImage.115	FOODEEG_Images\0923.jpg	YN	Left	Yes	1.45000139996409	0	762573	234
1490.443359375	1	decision	trialStart	4	182	2	foodImage.86	FOODEEG_Images\0844.jpg	NY	Right	Yes	1.18713870015927	0	763108	251
1491.501953125	2	decision	foodImageDisplay	4	182	2	foodImage.86	FOODEEG_Images\0844.jpg	NY	Right	Yes	1.18713870015927	0	763650	252
1493.564453125	1.18713870015927	decision	choicePhaseStart	4	182	2	foodImage.86	FOODEEG_Images\0844.jpg	NY	Right	Yes	1.18713870015927	0	764706	253
1494.7421875	0	decision	response	4	182	2	foodImage.86	FOODEEG_Images\0844.jpg	NY	Right	Yes	1.18713870015927	0	765309	235
1495.787109375	1	taste	trialStart	4	183	3	foodImage.99	FOODEEG_Images\0907.jpg	NY	Left	No	1.11494850018062	0	765844	251
1496.822265625	2	taste	foodImageDisplay	4	183	3	foodImage.99	FOODEEG_Images\0907.jpg	NY	Left	No	1.11494850018062	0	766374	252
1498.884765625	1.11494850018062	taste	choicePhaseStart	4	183	3	foodImage.99	FOODEEG_Images\0907.jpg	NY	Left	No	1.11494850018062	0	767430	253
1499.990234375	0	taste	response	4	183	3	foodImage.99	FOODEEG_Images\0907.jpg	NY	Left	No	1.11494850018062	0	767996	234
1501.033203125	1	health	trialStart	4	184	4	foodImage.88	FOODEEG_Images\0878.jpg	NY	Right	Yes	1.17554710013792	0	768530	251
1502.087890625	2	health	foodImageDisplay	4	184	4	foodImage.88	FOODEEG_Images\0878.jpg	NY	Right	Yes	1.17554710013792	0	769070	252
1504.15234375	1.17554710013792	health	choicePhaseStart	4	184	4	foodImage.88	FOODEEG_Images\0878.jpg	NY	Right	Yes	1.17554710013792	0	770127	253
1505.318359375	0	health	response	4	184	4	foodImage.88	FOODEEG_Images\0878.jpg	NY	Right	Yes	1.17554710013792	0	770724	235
1506.365234375	1	taste	trialStart	4	185	5	foodImage.79	FOODEEG_Images\0794.jpg	NY	Right	Yes	2.18803060008213	0	771260	251
1507.408203125	2	taste	foodImageDisplay	4	185	5	foodImage.79	FOODEEG_Images\0794.jpg	NY	Right	Yes	2.18803060008213	0	771794	252
1509.4765625	2.18803060008213	taste	choicePhaseStart	4	185	5	foodImage.79	FOODEEG_Images\0794.jpg	NY	Right	Yes	2.18803060008213	0	772853	253
1511.654296875	0	taste	response	4	185	5	foodImage.79	FOODEEG_Images\0794.jpg	NY	Right	Yes	2.18803060008213	0	773968	235
1512.697265625	1	taste	trialStart	4	186	6	foodImage.103	FOODEEG_Images\0911.jpg	NY	Left	No	1.63229679991491	0	774502	251
1513.734375	2	taste	foodImageDisplay	4	186	6	foodImage.103	FOODEEG_Images\0911.jpg	NY	Left	No	1.63229679991491	0	775033	252
1515.798828125	1.63229679991491	taste	choicePhaseStart	4	186	6	foodImage.103	FOODEEG_Images\0911.jpg	NY	Left	No	1.63229679991491	0	776090	253
1517.421875	0	taste	response	4	186	6	foodImage.103	FOODEEG_Images\0911.jpg	NY	Left	No	1.63229679991491	0	776921	234
1518.46484375	1	decision	trialStart	4	187	7	foodImage.18	FOODEEG_Images\0202.jpg	YN	Left	Yes	1.08575459988788	0	777455	251
1519.521484375	2	decision	foodImageDisplay	4	187	7	foodImage.18	FOODEEG_Images\0202.jpg	YN	Left	Yes	1.08575459988788	0	777996	252
1521.5859375	1.08575459988788	decision	choicePhaseStart	4	187	7	foodImage.18	FOODEEG_Images\0202.jpg	YN	Left	Yes	1.08575459988788	0	779053	253
1522.662109375	0	decision	response	4	187	7	foodImage.18	FOODEEG_Images\0202.jpg	YN	Left	Yes	1.08575459988788	0	779604	234
1523.705078125	1	taste	trialStart	4	188	8	foodImage.106	FOODEEG_Images\0914.jpg	YN	Right	No	1.39787569991313	0	780138	251
1524.74609375	2	taste	foodImageDisplay	4	188	8	foodImage.106	FOODEEG_Images\0914.jpg	YN	Right	No	1.39787569991313	0	780671	252
1526.80859375	1.39787569991313	taste	choicePhaseStart	4	188	8	foodImage.106	FOODEEG_Images\0914.jpg	YN	Right	No	1.39787569991313	0	781727	253
1528.197265625	0	taste	response	4	188	8	foodImage.106	FOODEEG_Images\0914.jpg	YN	Right	No	1.39787569991313	0	782438	235
1529.2421875	1	taste	trialStart	4	189	9	foodImage.52	FOODEEG_Images\0539.jpg	YN	Left	Yes	0.932439400115982	0	782973	251
1530.302734375	2	taste	foodImageDisplay	4	189	9	foodImage.52	FOODEEG_Images\0539.jpg	YN	Left	Yes	0.932439400115982	0	783516	252
1532.3671875	0.932439400115982	taste	choicePhaseStart	4	189	9	foodImage.52	FOODEEG_Images\0539.jpg	YN	Left	Yes	0.932439400115982	0	784573	253
1533.29296875	0	taste	response	4	189	9	foodImage.52	FOODEEG_Images\0539.jpg	YN	Left	Yes	0.932439400115982	0	785047	234
1534.337890625	1	taste	trialStart	4	190	10	foodImage.101	FOODEEG_Images\0909.jpg	NY	Left	No	1.47851480008103	0	785582	251
1535.375	2	taste	foodImageDisplay	4	190	10	foodImage.101	FOODEEG_Images\0909.jpg	NY	Left	No	1.47851480008103	0	786113	252
1537.439453125	1.47851480008103	taste	choicePhaseStart	4	190	10	foodImage.101	FOODEEG_Images\0909.jpg	NY	Left	No	1.47851480008103	0	787170	253
1538.908203125	0	taste	response	4	190	10	foodImage.101	FOODEEG_Images\0909.jpg	NY	Left	No	1.47851480008103	0	787922	234
1539.951171875	1	health	trialStart	4	191	11	foodImage.12	FOODEEG_Images\0181.jpg	NY	Right	Yes	1.32630680012517	0	788456	251
1540.9921875	2	health	foodImageDisplay	4	191	11	foodImage.12	FOODEEG_Images\0181.jpg	NY	Right	Yes	1.32630680012517	0	788989	252
1543.056640625	1.32630680012517	health	choicePhaseStart	4	191	11	foodImage.12	FOODEEG_Images\0181.jpg	NY	Right	Yes	1.32630680012517	0	790046	253
1544.373046875	0	health	response	4	191	11	foodImage.12	FOODEEG_Images\0181.jpg	NY	Right	Yes	1.32630680012517	0	790720	235
1545.416015625	1	health	trialStart	4	192	12	foodImage.112	FOODEEG_Images\0920.jpg	NY	Right	Yes	0.831740900175646	0	791254	251
1546.455078125	2	health	foodImageDisplay	4	192	12	foodImage.112	FOODEEG_Images\0920.jpg	NY	Right	Yes	0.831740900175646	0	791786	252
1548.51953125	0.831740900175646	health	choicePhaseStart	4	192	12	foodImage.112	FOODEEG_Images\0920.jpg	NY	Right	Yes	0.831740900175646	0	792843	253
1549.33984375	0	health	response	4	192	12	foodImage.112	FOODEEG_Images\0920.jpg	NY	Right	Yes	0.831740900175646	0	793263	235
1550.3828125	1	taste	trialStart	4	193	13	foodImage.59	FOODEEG_Images\0607.jpg	NY	Right	Yes	1.23743449989706	0	793797	251
1551.427734375	2	taste	foodImageDisplay	4	193	13	foodImage.59	FOODEEG_Images\0607.jpg	NY	Right	Yes	1.23743449989706	0	794332	252
1553.49609375	1.23743449989706	taste	choicePhaseStart	4	193	13	foodImage.59	FOODEEG_Images\0607.jpg	NY	Right	Yes	1.23743449989706	0	795391	253
