onset	duration	trial_type	event_type	block	trial_total	trial_in_block	food_image_code	food_image_path	button_position	resp_position	resp_choice	choice_rt	resp_too_slow	sample	trigger
262.25390625	2	n/a	blockStart	1	n/a	n/a	n/a	n/a	n/a	n/a	n/a	n/a	n/a	134275	250
264.291015625	1	decision	trialStart	1	1	1	foodImage.78	FOODEEG_Images\0787.jpg	YN	Left	Yes	1.32803099998273	0	135318	251
265.33984375	2	decision	foodImageDisplay	1	1	1	foodImage.78	FOODEEG_Images\0787.jpg	YN	Left	Yes	1.32803099998273	0	135855	252
267.404296875	1.32803099998273	decision	choicePhaseStart	1	1	1	foodImage.78	FOODEEG_Images\0787.jpg	YN	Left	Yes	1.32803099998273	0	136912	253
268.728515625	0	decision	response	1	1	1	foodImage.78	FOODEEG_Images\0787.jpg	YN	Left	Yes	1.32803099998273	0	137590	234
269.837890625	1	taste	trialStart	1	2	2	foodImage.43	FOODEEG_Images\0445.jpg	NY	Right	Yes	0.894352999981493	0	138158	251
270.8984375	2	taste	foodImageDisplay	1	2	2	foodImage.43	FOODEEG_Images\0445.jpg	NY	Right	Yes	0.894352999981493	0	138701	252
272.962890625	0.894352999981493	taste	choicePhaseStart	1	2	2	foodImage.43	FOODEEG_Images\0445.jpg	NY	Right	Yes	0.894352999981493	0	139758	253
273.84765625	0	taste	response	1	2	2	foodImage.43	FOODEEG_Images\0445.jpg	NY	Right	Yes	0.894352999981493	0	140211	235
274.900390625	1	decision	trialStart	1	3	3	foodImage.104	FOODEEG_Images\0912.jpg	YN	Right	No	1.15476850001141	0	140750	251
275.94140625	2	decision	foodImageDisplay	1	3	3	foodImage.104	FOODEEG_Images\0912.jpg	YN	Right	No	1.15476850001141	0	141283	252
278.00390625	1.15476850001141	decision	choicePhaseStart	1	3	3	foodImage.104	FOODEEG_Images\0912.jpg	YN	Right	No	1.15476850001141	0	142339	253
279.15234375	0	decision	response	1	3	3	foodImage.104	FOODEEG_Images\0912.jpg	YN	Right	No	1.15476850001141	0	142927	235
280.197265625	1	health	trialStart	1	4	4	foodImage.19	FOODEEG_Images\0225.jpg	NY	Right	Yes	0.728642900008708	0	143462	251
281.2421875	2	health	foodImageDisplay	1	4	4	foodImage.19	FOODEEG_Images\0225.jpg	NY	Right	Yes	0.728642900008708	0	143997	252
283.3046875	0.728642900008708	health	choicePhaseStart	1	4	4	foodImage.19	FOODEEG_Images\0225.jpg	NY	Right	Yes	0.728642900008708	0	145053	253
284.0234375	0	health	response	1	4	4	foodImage.19	FOODEEG_Images\0225.jpg	NY	Right	Yes	0.728642900008708	0	145421	235
285.06640625	1	health	trialStart	1	5	5	foodImage.35	FOODEEG_Images\0350.jpg	YN	Right	No	1.37979939999059	0	145955	251
286.109375	2	health	foodImageDisplay	1	5	5	foodImage.35	FOODEEG_Images\0350.jpg	YN	Right	No	1.37979939999059	0	146489	252
288.171875	1.37979939999059	health	choicePhaseStart	1	5	5	foodImage.35	FOODEEG_Images\0350.jpg	YN	Right	No	1.37979939999059	0	147545	253
289.54296875	0	health	response	1	5	5	foodImage.35	FOODEEG_Images\0350.jpg	YN	Right	No	1.37979939999059	0	148247	235
290.591796875	1	taste	trialStart	1	6	6	foodImage.36	FOODEEG_Images\0352.jpg	YN	Left	Yes	1.07907029998023	0	148784	251
291.650390625	2	taste	foodImageDisplay	1	6	6	foodImage.36	FOODEEG_Images\0352.jpg	YN	Left	Yes	1.07907029998023	0	149326	252
293.712890625	1.07907029998023	taste	choicePhaseStart	1	6	6	foodImage.36	FOODEEG_Images\0352.jpg	YN	Left	Yes	1.07907029998023	0	150382	253
294.783203125	0	taste	response	1	6	6	foodImage.36	FOODEEG_Images\0352.jpg	YN	Left	Yes	1.07907029998023	0	150930	234
295.82421875	1	decision	trialStart	1	7	7	foodImage.70	FOODEEG_Images\0705.jpg	YN	Left	Yes	0.90117620001547	0	151463	251
296.880859375	2	decision	foodImageDisplay	1	7	7	foodImage.70	FOODEEG_Images\0705.jpg	YN	Left	Yes	0.90117620001547	0	152004	252
298.9453125	0.90117620001547	decision	choicePhaseStart	1	7	7	foodImage.70	FOODEEG_Images\0705.jpg	YN	Left	Yes	0.90117620001547	0	153061	253
299.83984375	0	decision	response	1	7	7	foodImage.70	FOODEEG_Images\0705.jpg	YN	Left	Yes	0.90117620001547	0	153519	234
300.880859375	1	health	trialStart	1	8	8	foodImage.76	FOODEEG_Images\0766.jpg	NY	Right	Yes	0.884066099999472	0	154052	251
301.923828125	2	health	foodImageDisplay	1	8	8	foodImage.76	FOODEEG_Images\0766.jpg	NY	Right	Yes	0.884066099999472	0	154586	252
303.986328125	0.884066099999472	health	choicePhaseStart	1	8	8	foodImage.76	FOODEEG_Images\0766.jpg	NY	Right	Yes	0.884066099999472	0	155642	253
304.86328125	0	health	response	1	8	8	foodImage.76	FOODEEG_Images\0766.jpg	NY	Right	Yes	0.884066099999472	0	156091	235
305.904296875	1	taste	trialStart	1	9	9	foodImage.52	FOODEEG_Images\0539.jpg	NY	Right	Yes	3.15210589999333	0	156624	251
306.9609375	2	taste	foodImageDisplay	1	9	9	foodImage.52	FOODEEG_Images\0539.jpg	NY	Right	Yes	3.15210589999333	0	157165	252
309.0234375	3.15210589999333	taste	choicePhaseStart	1	9	9	foodImage.52	FOODEEG_Images\0539.jpg	NY	Right	Yes	3.15210589999333	0	158221	253
312.166015625	0	taste	response	1	9	9	foodImage.52	FOODEEG_Images\0539.jpg	NY	Right	Yes	3.15210589999333	0	159830	235
313.20703125	1	decision	trialStart	1	10	10	foodImage.107	FOODEEG_Images\0915.jpg	YN	Right	No	1.06489649997093	0	160363	251
314.24609375	2	decision	foodImageDisplay	1	10	10	foodImage.107	FOODEEG_Images\0915.jpg	YN	Right	No	1.06489649997093	0	160895	252
316.310546875	1.06489649997093	decision	choicePhaseStart	1	10	10	foodImage.107	FOODEEG_Images\0915.jpg	YN	Right	No	1.06489649997093	0	161952	253
317.365234375	0	decision	response	1	10	10	foodImage.107	FOODEEG_Images\0915.jpg	YN	Right	No	1.06489649997093	0	162492	235
318.408203125	1	decision	trialStart	1	11	11	foodImage.48	FOODEEG_Images\0494.jpg	NY	Right	Yes	1.72415129991714	0	163026	251
319.44921875	2	decision	foodImageDisplay	1	11	11	foodImage.48	FOODEEG_Images\0494.jpg	NY	Right	Yes	1.72415129991714	0	163559	252
321.513671875	1.72415129991714	decision	choicePhaseStart	1	11	11	foodImage.48	FOODEEG_Images\0494.jpg	NY	Right	Yes	1.72415129991714	0	164616	253
323.23046875	0	decision	response	1	11	11	foodImage.48	FOODEEG_Images\0494.jpg	NY	Right	Yes	1.72415129991714	0	165495	235
324.26953125	1	taste	trialStart	1	12	12	foodImage.7	FOODEEG_Images\0116.jpg	YN	Left	Yes	0.702600199962035	0	166027	251
325.3125	2	taste	foodImageDisplay	1	12	12	foodImage.7	FOODEEG_Images\0116.jpg	YN	Left	Yes	0.702600199962035	0	166561	252
327.375	0.702600199962035	taste	choicePhaseStart	1	12	12	foodImage.7	FOODEEG_Images\0116.jpg	YN	Left	Yes	0.702600199962035	0	167617	253
328.0703125	0	taste	response	1	12	12	foodImage.7	FOODEEG_Images\0116.jpg	YN	Left	Yes	0.702600199962035	0	167973	234
329.11328125	1	health	trialStart	1	13	13	foodImage.28	FOODEEG_Images\0273.jpg	NY	Right	Yes	1.02184519998264	0	168507	251
330.154296875	2	health	foodImageDisplay	1	13	13	foodImage.28	FOODEEG_Images\0273.jpg	NY	Right	Yes	1.02184519998264	0	169040	252
332.216796875	1.02184519998264	health	choicePhaseStart	1	13	13	foodImage.28	FOODEEG_Images\0273.jpg	NY	Right	Yes	1.02184519998264	0	170096	253
333.23046875	0	health	response	1	13	13	foodImage.28	FOODEEG_Images\0273.jpg	NY	Right	Yes	1.02184519998264	0	170615	235
334.26953125	1	health	trialStart	1	14	14	foodImage.10	FOODEEG_Images\0145.jpg	YN	Right	No	1.01605330000166	0	171147	251
335.3359375	2	health	foodImageDisplay	1	14	14	foodImage.10	FOODEEG_Images\0145.jpg	YN	Right	No	1.01605330000166	0	171693	252
337.3984375	1.01605330000166	health	choicePhaseStart	1	14	14	foodImage.10	FOODEEG_Images\0145.jpg	YN	Right	No	1.01605330000166	0	172749	253
338.40625	0	health	response	1	14	14	foodImage.10	FOODEEG_Images\0145.jpg	YN	Right	No	1.01605330000166	0	173265	235
339.447265625	1	taste	trialStart	1	15	15	foodImage.13	FOODEEG_Images\0183.jpg	NY	Right	Yes	1.60640489996877	0	173798	251
340.48828125	2	taste	foodImageDisplay	1	15	15	foodImage.13	FOODEEG_Images\0183.jpg	NY	Right	Yes	1.60640489996877	0	174331	252
342.55078125	1.60640489996877	taste	choicePhaseStart	1	15	15	foodImage.13	FOODEEG_Images\0183.jpg	NY	Right	Yes	1.60640489996877	0	175387	253
344.1484375	0	taste	response	1	15	15	foodImage.13	FOODEEG_Images\0183.jpg	NY	Right	Yes	1.60640489996877	0	176205	235
345.189453125	1	health	trialStart	1	16	16	foodImage.70	FOODEEG_Images\0705.jpg	YN	Right	No	1.72839130007196	0	176738	251
346.255859375	2	health	foodImageDisplay	1	16	16	foodImage.70	FOODEEG_Images\0705.jpg	YN	Right	No	1.72839130007196	0	177284	252
348.318359375	1.72839130007196	health	choicePhaseStart	1	16	16	foodImage.70	FOODEEG_Images\0705.jpg	YN	Right	No	1.72839130007196	0	178340	253
350.037109375	0	health	response	1	16	16	foodImage.70	FOODEEG_Images\0705.jpg	YN	Right	No	1.72839130007196	0	179220	235
351.078125	1	health	trialStart	1	17	17	foodImage.86	FOODEEG_Images\0844.jpg	YN	Right	No	1.0732493000105	0	179753	251
352.134765625	2	health	foodImageDisplay	1	17	17	foodImage.86	FOODEEG_Images\0844.jpg	YN	Right	No	1.0732493000105	0	180294	252
354.197265625	1.0732493000105	health	choicePhaseStart	1	17	17	foodImage.86	FOODEEG_Images\0844.jpg	YN	Right	No	1.0732493000105	0	181350	253
355.26171875	0	health	response	1	17	17	foodImage.86	FOODEEG_Images\0844.jpg	YN	Right	No	1.0732493000105	0	181895	235
356.302734375	1	health	trialStart	1	18	18	foodImage.103	FOODEEG_Images\0911.jpg	NY	Left	No	1.69826029997785	0	182428	251
357.341796875	2	health	foodImageDisplay	1	18	18	foodImage.103	FOODEEG_Images\0911.jpg	NY	Left	No	1.69826029997785	0	182960	252
359.404296875	1.69826029997785	health	choicePhaseStart	1	18	18	foodImage.103	FOODEEG_Images\0911.jpg	NY	Left	No	1.69826029997785	0	184016	253
361.09375	0	health	response	1	18	18	foodImage.103	FOODEEG_Images\0911.jpg	NY	Left	No	1.69826029997785	0	184881	234
362.1328125	1	taste	trialStart	1	19	19	foodImage.31	FOODEEG_Images\0294.jpg	YN	Right	No	2.39128179999534	0	185413	251
363.17578125	2	taste	foodImageDisplay	1	19	19	foodImage.31	FOODEEG_Images\0294.jpg	YN	Right	No	2.39128179999534	0	185947	252
365.23828125	2.39128179999534	taste	choicePhaseStart	1	19	19	foodImage.31	FOODEEG_Images\0294.jpg	YN	Right	No	2.39128179999534	0	187003	253
367.62109375	0	taste	response	1	19	19	foodImage.31	FOODEEG_Images\0294.jpg	YN	Right	No	2.39128179999534	0	188223	235
368.662109375	1	taste	trialStart	1	20	20	foodImage.64	FOODEEG_Images\0647.jpg	NY	Right	Yes	0.981543399975635	0	188756	251
369.72265625	2	taste	foodImageDisplay	1	20	20	foodImage.64	FOODEEG_Images\0647.jpg	NY	Right	Yes	0.981543399975635	0	189299	252
371.78515625	0.981543399975635	taste	choicePhaseStart	1	20	20	foodImage.64	FOODEEG_Images\0647.jpg	NY	Right	Yes	0.981543399975635	0	190355	253
372.755859375	0	taste	response	1	20	20	foodImage.64	FOODEEG_Images\0647.jpg	NY	Right	Yes	0.981543399975635	0	190852	235
373.796875	1	decision	trialStart	1	21	21	foodImage.9	FOODEEG_Images\0138.jpg	YN	Right	No	2.32931549998466	0	191385	251
374.853515625	2	decision	foodImageDisplay	1	21	21	foodImage.9	FOODEEG_Images\0138.jpg	YN	Right	No	2.32931549998466	0	191926	252
376.9140625	2.32931549998466	decision	choicePhaseStart	1	21	21	foodImage.9	FOODEEG_Images\0138.jpg	YN	Right	No	2.32931549998466	0	192981	253
379.236328125	0	decision	response	1	21	21	foodImage.9	FOODEEG_Images\0138.jpg	YN	Right	No	2.32931549998466	0	194170	235
380.275390625	1	decision	trialStart	1	22	22	foodImage.55	FOODEEG_Images\0567.jpg	NY	Right	Yes	0.797217100043781	0	194702	251
381.3359375	2	decision	foodImageDisplay	1	22	22	foodImage.55	FOODEEG_Images\0567.jpg	NY	Right	Yes	0.797217100043781	0	195245	252
383.3984375	0.797217100043781	decision	choicePhaseStart	1	22	22	foodImage.55	FOODEEG_Images\0567.jpg	NY	Right	Yes	0.797217100043781	0	196301	253
384.1875	0	decision	response	1	22	22	foodImage.55	FOODEEG_Images\0567.jpg	NY	Right	Yes	0.797217100043781	0	196705	235
385.2265625	1	taste	trialStart	1	23	23	foodImage.63	FOODEEG_Images\0645.jpg	YN	Left	Yes	0.880685299984179	0	197237	251
386.26953125	2	taste	foodImageDisplay	1	23	23	foodImage.63	FOODEEG_Images\0645.jpg	YN	Left	Yes	0.880685299984179	0	197771	252
388.33203125	0.880685299984179	taste	choicePhaseStart	1	23	23	foodImage.63	FOODEEG_Images\0645.jpg	YN	Left	Yes	0.880685299984179	0	198827	253
389.203125	0	taste	response	1	23	23	foodImage.63	FOODEEG_Images\0645.jpg	YN	Left	Yes	0.880685299984179	0	199273	234
390.244140625	1	decision	trialStart	1	24	24	foodImage.31	FOODEEG_Images\0294.jpg	YN	Right	No	0.997961800079793	0	199806	251
391.287109375	2	decision	foodImageDisplay	1	24	24	foodImage.31	FOODEEG_Images\0294.jpg	YN	Right	No	0.997961800079793	0	200340	252
393.349609375	0.997961800079793	decision	choicePhaseStart	1	24	24	foodImage.31	FOODEEG_Images\0294.jpg	YN	Right	No	0.997961800079793	0	201396	253
394.33984375	0	decision	response	1	24	24	foodImage.31	FOODEEG_Images\0294.jpg	YN	Right	No	0.997961800079793	0	201903	235
395.380859375	1	decision	trialStart	1	25	25	foodImage.98	FOODEEG_Images\0906.jpg	NY	Left	No	1.02000520005822	0	202436	251
396.41796875	2	decision	foodImageDisplay	1	25	25	foodImage.98	FOODEEG_Images\0906.jpg	NY	Left	No	1.02000520005822	0	202967	252
398.48046875	1.02000520005822	decision	choicePhaseStart	1	25	25	foodImage.98	FOODEEG_Images\0906.jpg	NY	Left	No	1.02000520005822	0	204023	253
399.490234375	0	decision	response	1	25	25	foodImage.98	FOODEEG_Images\0906.jpg	NY	Left	No	1.02000520005822	0	204540	234
400.533203125	1	health	trialStart	1	26	26	foodImage.73	FOODEEG_Images\0717.jpg	NY	Right	Yes	1.63728220004123	0	205074	251
401.591796875	2	health	foodImageDisplay	1	26	26	foodImage.73	FOODEEG_Images\0717.jpg	NY	Right	Yes	1.63728220004123	0	205616	252
403.654296875	1.63728220004123	health	choicePhaseStart	1	26	26	foodImage.73	FOODEEG_Images\0717.jpg	NY	Right	Yes	1.63728220004123	0	206672	253
405.283203125	0	health	response	1	26	26	foodImage.73	FOODEEG_Images\0717.jpg	NY	Right	Yes	1.63728220004123	0	207506	235
406.322265625	1	decision	trialStart	1	27	27	foodImage.27	FOODEEG_Images\0263.jpg	YN	Left	Yes	2.52826789999381	0	208038	251
407.36328125	2	decision	foodImageDisplay	1	27	27	foodImage.27	FOODEEG_Images\0263.jpg	YN	Left	Yes	2.52826789999381	0	208571	252
409.42578125	2.52826789999381	decision	choicePhaseStart	1	27	27	foodImage.27	FOODEEG_Images\0263.jpg	YN	Left	Yes	2.52826789999381	0	209627	253
411.9453125	0	decision	response	1	27	27	foodImage.27	FOODEEG_Images\0263.jpg	YN	Left	Yes	2.52826789999381	0	210917	234
412.98828125	1	taste	trialStart	1	28	28	foodImage.44	FOODEEG_Images\0459.jpg	YN	Left	Yes	0.874143299995922	0	211451	251
414.033203125	2	taste	foodImageDisplay	1	28	28	foodImage.44	FOODEEG_Images\0459.jpg	YN	Left	Yes	0.874143299995922	0	211986	252
416.095703125	0.874143299995922	taste	choicePhaseStart	1	28	28	foodImage.44	FOODEEG_Images\0459.jpg	YN	Left	Yes	0.874143299995922	0	213042	253
416.962890625	0	taste	response	1	28	28	foodImage.44	FOODEEG_Images\0459.jpg	YN	Left	Yes	0.874143299995922	0	213486	234
418.005859375	1	decision	trialStart	1	29	29	foodImage.42	FOODEEG_Images\0438.jpg	NY	Left	No	1.12377840001136	0	214020	251
419.09765625	2	decision	foodImageDisplay	1	29	29	foodImage.42	FOODEEG_Images\0438.jpg	NY	Left	No	1.12377840001136	0	214579	252
421.16015625	1.12377840001136	decision	choicePhaseStart	1	29	29	foodImage.42	FOODEEG_Images\0438.jpg	NY	Left	No	1.12377840001136	0	215635	253
422.2734375	0	decision	response	1	29	29	foodImage.42	FOODEEG_Images\0438.jpg	NY	Left	No	1.12377840001136	0	216205	234
423.318359375	1	taste	trialStart	1	30	30	foodImage.112	FOODEEG_Images\0920.jpg	YN	Right	No	0.98234109999612	0	216740	251
424.359375	2	taste	foodImageDisplay	1	30	30	foodImage.112	FOODEEG_Images\0920.jpg	YN	Right	No	0.98234109999612	0	217273	252
426.421875	0.98234109999612	taste	choicePhaseStart	1	30	30	foodImage.112	FOODEEG_Images\0920.jpg	YN	Right	No	0.98234109999612	0	218329	253
427.39453125	0	taste	response	1	30	30	foodImage.112	FOODEEG_Images\0920.jpg	YN	Right	No	0.98234109999612	0	218827	235
428.43359375	1	health	trialStart	1	31	31	foodImage.17	FOODEEG_Images\0199.jpg	NY	Right	Yes	1.62451499991585	0	219359	251
429.474609375	2	health	foodImageDisplay	1	31	31	foodImage.17	FOODEEG_Images\0199.jpg	NY	Right	Yes	1.62451499991585	0	219892	252
431.537109375	1.62451499991585	health	choicePhaseStart	1	31	31	foodImage.17	FOODEEG_Images\0199.jpg	NY	Right	Yes	1.62451499991585	0	220948	253
433.15234375	0	health	response	1	31	31	foodImage.17	FOODEEG_Images\0199.jpg	NY	Right	Yes	1.62451499991585	0	221775	235
434.1953125	1	decision	trialStart	1	32	32	foodImage.65	FOODEEG_Images\0658.jpg	YN	Right	No	0.88900259998627	0	222309	251
435.236328125	2	decision	foodImageDisplay	1	32	32	foodImage.65	FOODEEG_Images\0658.jpg	YN	Right	No	0.88900259998627	0	222842	252
437.3046875	0.88900259998627	decision	choicePhaseStart	1	32	32	foodImage.65	FOODEEG_Images\0658.jpg	YN	Right	No	0.88900259998627	0	223901	253
438.185546875	0	decision	response	1	32	32	foodImage.65	FOODEEG_Images\0658.jpg	YN	Right	No	0.88900259998627	0	224352	235
439.2265625	1	taste	trialStart	1	33	33	foodImage.58	FOODEEG_Images\0605.jpg	YN	Left	Yes	0.649197899969295	0	224885	251
440.283203125	2	taste	foodImageDisplay	1	33	33	foodImage.58	FOODEEG_Images\0605.jpg	YN	Left	Yes	0.649197899969295	0	225426	252
442.345703125	0.649197899969295	taste	choicePhaseStart	1	33	33	foodImage.58	FOODEEG_Images\0605.jpg	YN	Left	Yes	0.649197899969295	0	226482	253
442.984375	0	taste	response	1	33	33	foodImage.58	FOODEEG_Images\0605.jpg	YN	Left	Yes	0.649197899969295	0	226809	234
444.029296875	1	health	trialStart	1	34	34	foodImage.98	FOODEEG_Images\0906.jpg	NY	Left	No	1.09895670006517	0	227344	251
445.06640625	2	health	foodImageDisplay	1	34	34	foodImage.98	FOODEEG_Images\0906.jpg	NY	Left	No	1.09895670006517	0	227875	252
447.12890625	1.09895670006517	health	choicePhaseStart	1	34	34	foodImage.98	FOODEEG_Images\0906.jpg	NY	Left	No	1.09895670006517	0	228931	253
448.216796875	0	health	response	1	34	34	foodImage.98	FOODEEG_Images\0906.jpg	NY	Left	No	1.09895670006517	0	229488	234
449.2578125	1	taste	trialStart	1	35	35	foodImage.46	FOODEEG_Images\0479.jpg	NY	Right	Yes	0.771210600039922	0	230021	251
450.3359375	2	taste	foodImageDisplay	1	35	35	foodImage.46	FOODEEG_Images\0479.jpg	NY	Right	Yes	0.771210600039922	0	230573	252
452.3984375	0.771210600039922	taste	choicePhaseStart	1	35	35	foodImage.46	FOODEEG_Images\0479.jpg	NY	Right	Yes	0.771210600039922	0	231629	253
453.16015625	0	taste	response	1	35	35	foodImage.46	FOODEEG_Images\0479.jpg	NY	Right	Yes	0.771210600039922	0	232019	235
454.203125	1	taste	trialStart	1	36	36	foodImage.54	FOODEEG_Images\0560.jpg	NY	Right	Yes	1.03255080000963	0	232553	251
455.2578125	2	taste	foodImageDisplay	1	36	36	foodImage.54	FOODEEG_Images\0560.jpg	NY	Right	Yes	1.03255080000963	0	233093	252
457.322265625	1.03255080000963	taste	choicePhaseStart	1	36	36	foodImage.54	FOODEEG_Images\0560.jpg	NY	Right	Yes	1.03255080000963	0	234150	253
458.34375	0	taste	response	1	36	36	foodImage.54	FOODEEG_Images\0560.jpg	NY	Right	Yes	1.03255080000963	0	234673	235
459.388671875	1	taste	trialStart	1	37	37	foodImage.38	FOODEEG_Images\0365.jpg	YN	Left	Yes	0.791427199961618	0	235208	251
460.427734375	2	taste	foodImageDisplay	1	37	37	foodImage.38	FOODEEG_Images\0365.jpg	YN	Left	Yes	0.791427199961618	0	235740	252
462.48828125	0.791427199961618	taste	choicePhaseStart	1	37	37	foodImage.38	FOODEEG_Images\0365.jpg	YN	Left	Yes	0.791427199961618	0	236795	253
463.271484375	0	taste	response	1	37	37	foodImage.38	FOODEEG_Images\0365.jpg	YN	Left	Yes	0.791427199961618	0	237196	234
464.3125	1	decision	trialStart	1	38	38	foodImage.101	FOODEEG_Images\0909.jpg	YN	Right	No	1.00300279993098	0	237729	251
465.3515625	2	decision	foodImageDisplay	1	38	38	foodImage.101	FOODEEG_Images\0909.jpg	YN	Right	No	1.00300279993098	0	238261	252
467.4140625	1.00300279993098	decision	choicePhaseStart	1	38	38	foodImage.101	FOODEEG_Images\0909.jpg	YN	Right	No	1.00300279993098	0	239317	253
468.408203125	0	decision	response	1	38	38	foodImage.101	FOODEEG_Images\0909.jpg	YN	Right	No	1.00300279993098	0	239826	235
469.451171875	1	health	trialStart	1	39	39	foodImage.20	FOODEEG_Images\0226.jpg	YN	Left	Yes	0.96528300002683	0	240360	251
470.4921875	2	health	foodImageDisplay	1	39	39	foodImage.20	FOODEEG_Images\0226.jpg	YN	Left	Yes	0.96528300002683	0	240893	252
472.5546875	0.96528300002683	health	choicePhaseStart	1	39	39	foodImage.20	FOODEEG_Images\0226.jpg	YN	Left	Yes	0.96528300002683	0	241949	253
473.51171875	0	health	response	1	39	39	foodImage.20	FOODEEG_Images\0226.jpg	YN	Left	Yes	0.96528300002683	0	242439	234
474.552734375	1	taste	trialStart	1	40	40	foodImage.103	FOODEEG_Images\0911.jpg	YN	Right	No	0.956231799907982	0	242972	251
475.58984375	2	taste	foodImageDisplay	1	40	40	foodImage.103	FOODEEG_Images\0911.jpg	YN	Right	No	0.956231799907982	0	243503	252
477.65234375	0.956231799907982	taste	choicePhaseStart	1	40	40	foodImage.103	FOODEEG_Images\0911.jpg	YN	Right	No	0.956231799907982	0	244559	253
478.599609375	0	taste	response	1	40	40	foodImage.103	FOODEEG_Images\0911.jpg	YN	Right	No	0.956231799907982	0	245044	235
479.642578125	1	decision	trialStart	1	41	41	foodImage.8	FOODEEG_Images\0136.jpg	YN	Right	No	3.16528449999169	0	245578	251
480.685546875	2	decision	foodImageDisplay	1	41	41	foodImage.8	FOODEEG_Images\0136.jpg	YN	Right	No	3.16528449999169	0	246112	252
482.748046875	3.16528449999169	decision	choicePhaseStart	1	41	41	foodImage.8	FOODEEG_Images\0136.jpg	YN	Right	No	3.16528449999169	0	247168	253
485.904296875	0	decision	response	1	41	41	foodImage.8	FOODEEG_Images\0136.jpg	YN	Right	No	3.16528449999169	0	248784	235
486.947265625	1	decision	trialStart	1	42	42	foodImage.96	FOODEEG_Images\0904.jpg	YN	Right	No	0.584772900096141	0	249318	251
487.984375	2	decision	foodImageDisplay	1	42	42	foodImage.96	FOODEEG_Images\0904.jpg	YN	Right	No	0.584772900096141	0	249849	252
490.046875	0.584772900096141	decision	choicePhaseStart	1	42	42	foodImage.96	FOODEEG_Images\0904.jpg	YN	Right	No	0.584772900096141	0	250905	253
490.623046875	0	decision	response	1	42	42	foodImage.96	FOODEEG_Images\0904.jpg	YN	Right	No	0.584772900096141	0	251200	235
491.6640625	1	health	trialStart	1	43	43	foodImage.80	FOODEEG_Images\0796.jpg	NY	Right	Yes	0.84290669998154	0	251733	251
492.71875	2	health	foodImageDisplay	1	43	43	foodImage.80	FOODEEG_Images\0796.jpg	NY	Right	Yes	0.84290669998154	0	252273	252
494.78125	0.84290669998154	health	choicePhaseStart	1	43	43	foodImage.80	FOODEEG_Images\0796.jpg	NY	Right	Yes	0.84290669998154	0	253329	253
495.615234375	0	health	response	1	43	43	foodImage.80	FOODEEG_Images\0796.jpg	NY	Right	Yes	0.84290669998154	0	253756	235
496.65625	1	taste	trialStart	1	44	44	foodImage.76	FOODEEG_Images\0766.jpg	NY	Left	No	1.69392370001879	0	254289	251
497.69921875	2	taste	foodImageDisplay	1	44	44	foodImage.76	FOODEEG_Images\0766.jpg	NY	Left	No	1.69392370001879	0	254823	252
499.76171875	1.69392370001879	taste	choicePhaseStart	1	44	44	foodImage.76	FOODEEG_Images\0766.jpg	NY	Left	No	1.69392370001879	0	255879	253
501.447265625	0	taste	response	1	44	44	foodImage.76	FOODEEG_Images\0766.jpg	NY	Left	No	1.69392370001879	0	256742	234
502.490234375	1	decision	trialStart	1	45	45	foodImage.57	FOODEEG_Images\0587.jpg	NY	Right	Yes	0.728467799955979	0	257276	251
503.53515625	2	decision	foodImageDisplay	1	45	45	foodImage.57	FOODEEG_Images\0587.jpg	NY	Right	Yes	0.728467799955979	0	257811	252
505.599609375	0.728467799955979	decision	choicePhaseStart	1	45	45	foodImage.57	FOODEEG_Images\0587.jpg	NY	Right	Yes	0.728467799955979	0	258868	253
506.318359375	0	decision	response	1	45	45	foodImage.57	FOODEEG_Images\0587.jpg	NY	Right	Yes	0.728467799955979	0	259236	235
507.359375	1	decision	trialStart	1	46	46	foodImage.44	FOODEEG_Images\0459.jpg	YN	Left	Yes	0.884593600057997	0	259769	251
508.404296875	2	decision	foodImageDisplay	1	46	46	foodImage.44	FOODEEG_Images\0459.jpg	YN	Left	Yes	0.884593600057997	0	260304	252
510.466796875	0.884593600057997	decision	choicePhaseStart	1	46	46	foodImage.44	FOODEEG_Images\0459.jpg	YN	Left	Yes	0.884593600057997	0	261360	253
511.341796875	0	decision	response	1	46	46	foodImage.44	FOODEEG_Images\0459.jpg	YN	Left	Yes	0.884593600057997	0	261808	234
512.3828125	1	taste	trialStart	1	47	47	foodImage.1	FOODEEG_Images\0004.jpg	YN	Left	Yes	1.44787350005936	0	262341	251
513.423828125	2	taste	foodImageDisplay	1	47	47	foodImage.1	FOODEEG_Images\0004.jpg	YN	Left	Yes	1.44787350005936	0	262874	252
515.486328125	1.44787350005936	taste	choicePhaseStart	1	47	47	foodImage.1	FOODEEG_Images\0004.jpg	YN	Left	Yes	1.44787350005936	0	263930	253
516.92578125	0	taste	response	1	47	47	foodImage.1	FOODEEG_Images\0004.jpg	YN	Left	Yes	1.44787350005936	0	264667	234
517.96484375	1	health	trialStart	1	48	48	foodImage.44	FOODEEG_Images\0459.jpg	YN	Left	Yes	0.83801280008629	0	265199	251
519.009765625	2	health	foodImageDisplay	1	48	48	foodImage.44	FOODEEG_Images\0459.jpg	YN	Left	Yes	0.83801280008629	0	265734	252
521.072265625	0.83801280008629	health	choicePhaseStart	1	48	48	foodImage.44	FOODEEG_Images\0459.jpg	YN	Left	Yes	0.83801280008629	0	266790	253
521.90234375	0	health	response	1	48	48	foodImage.44	FOODEEG_Images\0459.jpg	YN	Left	Yes	0.83801280008629	0	267215	234
522.943359375	1	taste	trialStart	1	49	49	foodImage.16	FOODEEG_Images\0196.jpg	NY	Right	Yes	1.12585710000712	0	267748	251
524.001953125	2	taste	foodImageDisplay	1	49	49	foodImage.16	FOODEEG_Images\0196.jpg	NY	Right	Yes	1.12585710000712	0	268290	252
526.064453125	1.12585710000712	taste	choicePhaseStart	1	49	49	foodImage.16	FOODEEG_Images\0196.jpg	NY	Right	Yes	1.12585710000712	0	269346	253
527.181640625	0	taste	response	1	49	49	foodImage.16	FOODEEG_Images\0196.jpg	NY	Right	Yes	1.12585710000712	0	269918	235
528.22265625	1	health	trialStart	1	50	50	foodImage.27	FOODEEG_Images\0263.jpg	YN	Left	Yes	1.42373839998618	0	270451	251
529.263671875	2	health	foodImageDisplay	1	50	50	foodImage.27	FOODEEG_Images\0263.jpg	YN	Left	Yes	1.42373839998618	0	270984	252
531.326171875	1.42373839998618	health	choicePhaseStart	1	50	50	foodImage.27	FOODEEG_Images\0263.jpg	YN	Left	Yes	1.42373839998618	0	272040	253
532.7421875	0	health	response	1	50	50	foodImage.27	FOODEEG_Images\0263.jpg	YN	Left	Yes	1.42373839998618	0	272765	234
533.783203125	1	health	trialStart	1	51	51	foodImage.100	FOODEEG_Images\0908.jpg	NY	Left	No	1.36191189999226	0	273298	251
534.822265625	2	health	foodImageDisplay	1	51	51	foodImage.100	FOODEEG_Images\0908.jpg	NY	Left	No	1.36191189999226	0	273830	252
536.884765625	1.36191189999226	health	choicePhaseStart	1	51	51	foodImage.100	FOODEEG_Images\0908.jpg	NY	Left	No	1.36191189999226	0	274886	253
538.23828125	0	health	response	1	51	51	foodImage.100	FOODEEG_Images\0908.jpg	NY	Left	No	1.36191189999226	0	275579	234
539.27734375	1	health	trialStart	1	52	52	foodImage.65	FOODEEG_Images\0658.jpg	YN	Right	No	1.80888649995904	0	276111	251
540.318359375	2	health	foodImageDisplay	1	52	52	foodImage.65	FOODEEG_Images\0658.jpg	YN	Right	No	1.80888649995904	0	276644	252
542.380859375	1.80888649995904	health	choicePhaseStart	1	52	52	foodImage.65	FOODEEG_Images\0658.jpg	YN	Right	No	1.80888649995904	0	277700	253
544.181640625	0	health	response	1	52	52	foodImage.65	FOODEEG_Images\0658.jpg	YN	Right	No	1.80888649995904	0	278622	235
545.220703125	1	health	trialStart	1	53	53	foodImage.91	FOODEEG_Images\0896.jpg	NY	Right	Yes	1.43236540001817	0	279154	251
546.279296875	2	health	foodImageDisplay	1	53	53	foodImage.91	FOODEEG_Images\0896.jpg	NY	Right	Yes	1.43236540001817	0	279696	252
548.341796875	1.43236540001817	health	choicePhaseStart	1	53	53	foodImage.91	FOODEEG_Images\0896.jpg	NY	Right	Yes	1.43236540001817	0	280752	253
549.765625	0	health	response	1	53	53	foodImage.91	FOODEEG_Images\0896.jpg	NY	Right	Yes	1.43236540001817	0	281481	235
550.8125	1	health	trialStart	1	54	54	foodImage.115	FOODEEG_Images\0923.jpg	YN	Right	No	1.05725890002213	0	282017	251
551.853515625	2	health	foodImageDisplay	1	54	54	foodImage.115	FOODEEG_Images\0923.jpg	YN	Right	No	1.05725890002213	0	282550	252
553.916015625	1.05725890002213	health	choicePhaseStart	1	54	54	foodImage.115	FOODEEG_Images\0923.jpg	YN	Right	No	1.05725890002213	0	283606	253
554.96484375	0	health	response	1	54	54	foodImage.115	FOODEEG_Images\0923.jpg	YN	Right	No	1.05725890002213	0	284143	235
556.0078125	1	health	trialStart	1	55	55	foodImage.72	FOODEEG_Images\0714.jpg	NY	Right	Yes	2.08476930006873	0	284677	251
557.05078125	2	health	foodImageDisplay	1	55	55	foodImage.72	FOODEEG_Images\0714.jpg	NY	Right	Yes	2.08476930006873	0	285211	252
559.11328125	2.08476930006873	health	choicePhaseStart	1	55	55	foodImage.72	FOODEEG_Images\0714.jpg	NY	Right	Yes	2.08476930006873	0	286267	253
561.189453125	0	health	response	1	55	55	foodImage.72	FOODEEG_Images\0714.jpg	NY	Right	Yes	2.08476930006873	0	287330	235
562.232421875	1	health	trialStart	1	56	56	foodImage.54	FOODEEG_Images\0560.jpg	NY	Right	Yes	2.19703160005156	0	287864	251
563.2890625	2	health	foodImageDisplay	1	56	56	foodImage.54	FOODEEG_Images\0560.jpg	NY	Right	Yes	2.19703160005156	0	288405	252
565.3515625	2.19703160005156	health	choicePhaseStart	1	56	56	foodImage.54	FOODEEG_Images\0560.jpg	NY	Right	Yes	2.19703160005156	0	289461	253
567.541015625	0	health	response	1	56	56	foodImage.54	FOODEEG_Images\0560.jpg	NY	Right	Yes	2.19703160005156	0	290582	235
568.583984375	1	taste	trialStart	1	57	57	foodImage.40	FOODEEG_Images\0373.jpg	YN	Left	Yes	1.03724860004149	0	291116	251
569.625	2	taste	foodImageDisplay	1	57	57	foodImage.40	FOODEEG_Images\0373.jpg	YN	Left	Yes	1.03724860004149	0	291649	252
571.6875	1.03724860004149	taste	choicePhaseStart	1	57	57	foodImage.40	FOODEEG_Images\0373.jpg	YN	Left	Yes	1.03724860004149	0	292705	253
572.716796875	0	taste	response	1	57	57	foodImage.40	FOODEEG_Images\0373.jpg	YN	Left	Yes	1.03724860004149	0	293232	234
573.759765625	1	decision	trialStart	1	58	58	foodImage.26	FOODEEG_Images\0262.jpg	YN	Right	No	1.50885900005233	0	293766	251
574.802734375	2	decision	foodImageDisplay	1	58	58	foodImage.26	FOODEEG_Images\0262.jpg	YN	Right	No	1.50885900005233	0	294300	252
576.86328125	1.50885900005233	decision	choicePhaseStart	1	58	58	foodImage.26	FOODEEG_Images\0262.jpg	YN	Right	No	1.50885900005233	0	295355	253
578.36328125	0	decision	response	1	58	58	foodImage.26	FOODEEG_Images\0262.jpg	YN	Right	No	1.50885900005233	0	296123	235
579.404296875	1	taste	trialStart	1	59	59	foodImage.80	FOODEEG_Images\0796.jpg	NY	Right	Yes	2.86180549999699	0	296656	251
580.46484375	2	taste	foodImageDisplay	1	59	59	foodImage.80	FOODEEG_Images\0796.jpg	NY	Right	Yes	2.86180549999699	0	297199	252
582.52734375	2.86180549999699	taste	choicePhaseStart	1	59	59	foodImage.80	FOODEEG_Images\0796.jpg	NY	Right	Yes	2.86180549999699	0	298255	253
585.37890625	0	taste	response	1	59	59	foodImage.80	FOODEEG_Images\0796.jpg	NY	Right	Yes	2.86180549999699	0	299715	235
586.419921875	1	taste	trialStart	1	60	60	foodImage.98	FOODEEG_Images\0906.jpg	YN	Right	No	0.779836400062777	0	300248	251
587.458984375	2	taste	foodImageDisplay	1	60	60	foodImage.98	FOODEEG_Images\0906.jpg	YN	Right	No	0.779836400062777	0	300780	252
589.521484375	0.779836400062777	taste	choicePhaseStart	1	60	60	foodImage.98	FOODEEG_Images\0906.jpg	YN	Right	No	0.779836400062777	0	301836	253
590.291015625	0	taste	response	1	60	60	foodImage.98	FOODEEG_Images\0906.jpg	YN	Right	No	0.779836400062777	0	302230	235
592.33203125	39.072265625	n/a	blockEnd	n/a	n/a	n/a	n/a	n/a	n/a	n/a	n/a	n/a	n/a	303275	254
631.404296875	2	n/a	blockStart	2	n/a	n/a	n/a	n/a	n/a	n/a	n/a	n/a	n/a	323280	250
633.435546875	1	decision	trialStart	2	61	1	foodImage.117	FOODEEG_Images\0925.jpg	YN	Left	Yes	0.964011500007473	0	324320	251
634.478515625	2	decision	foodImageDisplay	2	61	1	foodImage.117	FOODEEG_Images\0925.jpg	YN	Left	Yes	0.964011500007473	0	324854	252
636.541015625	0.964011500007473	decision	choicePhaseStart	2	61	1	foodImage.117	FOODEEG_Images\0925.jpg	YN	Left	Yes	0.964011500007473	0	325910	253
637.498046875	0	decision	response	2	61	1	foodImage.117	FOODEEG_Images\0925.jpg	YN	Left	Yes	0.964011500007473	0	326400	234
638.537109375	1	health	trialStart	2	62	2	foodImage.56	FOODEEG_Images\0586.jpg	NY	Right	Yes	1.07842809997965	0	326932	251
639.580078125	2	health	foodImageDisplay	2	62	2	foodImage.56	FOODEEG_Images\0586.jpg	NY	Right	Yes	1.07842809997965	0	327466	252
641.642578125	1.07842809997965	health	choicePhaseStart	2	62	2	foodImage.56	FOODEEG_Images\0586.jpg	NY	Right	Yes	1.07842809997965	0	328522	253
642.712890625	0	health	response	2	62	2	foodImage.56	FOODEEG_Images\0586.jpg	NY	Right	Yes	1.07842809997965	0	329070	235
643.76171875	1	decision	trialStart	2	63	3	foodImage.60	FOODEEG_Images\0614.jpg	YN	Left	Yes	0.787041699979454	0	329607	251
644.81640625	2	decision	foodImageDisplay	2	63	3	foodImage.60	FOODEEG_Images\0614.jpg	YN	Left	Yes	0.787041699979454	0	330147	252
646.87890625	0.787041699979454	decision	choicePhaseStart	2	63	3	foodImage.60	FOODEEG_Images\0614.jpg	YN	Left	Yes	0.787041699979454	0	331203	253
647.658203125	0	decision	response	2	63	3	foodImage.60	FOODEEG_Images\0614.jpg	YN	Left	Yes	0.787041699979454	0	331602	234
648.69921875	1	taste	trialStart	2	64	4	foodImage.71	FOODEEG_Images\0713.jpg	YN	Left	Yes	0.795742999995127	0	332135	251
649.7421875	2	taste	foodImageDisplay	2	64	4	foodImage.71	FOODEEG_Images\0713.jpg	YN	Left	Yes	0.795742999995127	0	332669	252
651.8046875	0.795742999995127	taste	choicePhaseStart	2	64	4	foodImage.71	FOODEEG_Images\0713.jpg	YN	Left	Yes	0.795742999995127	0	333725	253
652.591796875	0	taste	response	2	64	4	foodImage.71	FOODEEG_Images\0713.jpg	YN	Left	Yes	0.795742999995127	0	334128	234
653.63671875	1	taste	trialStart	2	65	5	foodImage.51	FOODEEG_Images\0536.jpg	YN	Left	Yes	2.42455260001589	0	334663	251
654.68359375	2	taste	foodImageDisplay	2	65	5	foodImage.51	FOODEEG_Images\0536.jpg	YN	Left	Yes	2.42455260001589	0	335199	252
656.744140625	2.42455260001589	taste	choicePhaseStart	2	65	5	foodImage.51	FOODEEG_Images\0536.jpg	YN	Left	Yes	2.42455260001589	0	336254	253
659.16015625	0	taste	response	2	65	5	foodImage.51	FOODEEG_Images\0536.jpg	YN	Left	Yes	2.42455260001589	0	337491	234
660.201171875	1	taste	trialStart	2	66	6	foodImage.100	FOODEEG_Images\0908.jpg	NY	Left	No	1.9544550999999	0	338024	251
661.240234375	2	taste	foodImageDisplay	2	66	6	foodImage.100	FOODEEG_Images\0908.jpg	NY	Left	No	1.9544550999999	0	338556	252
663.302734375	1.9544550999999	taste	choicePhaseStart	2	66	6	foodImage.100	FOODEEG_Images\0908.jpg	NY	Left	No	1.9544550999999	0	339612	253
665.248046875	0	taste	response	2	66	6	foodImage.100	FOODEEG_Images\0908.jpg	NY	Left	No	1.9544550999999	0	340608	234
666.2890625	1	health	trialStart	2	67	7	foodImage.119	FOODEEG_Images\0927.jpg	NY	Left	No	1.16239389998373	0	341141	251
667.328125	2	health	foodImageDisplay	2	67	7	foodImage.119	FOODEEG_Images\0927.jpg	NY	Left	No	1.16239389998373	0	341673	252
669.390625	1.16239389998373	health	choicePhaseStart	2	67	7	foodImage.119	FOODEEG_Images\0927.jpg	NY	Left	No	1.16239389998373	0	342729	253
670.544921875	0	health	response	2	67	7	foodImage.119	FOODEEG_Images\0927.jpg	NY	Left	No	1.16239389998373	0	343320	234
671.5859375	1	health	trialStart	2	68	8	foodImage.39	FOODEEG_Images\0367.jpg	NY	Right	Yes	2.58972680009902	0	343853	251
672.62890625	2	health	foodImageDisplay	2	68	8	foodImage.39	FOODEEG_Images\0367.jpg	NY	Right	Yes	2.58972680009902	0	344387	252
674.69140625	2.58972680009902	health	choicePhaseStart	2	68	8	foodImage.39	FOODEEG_Images\0367.jpg	NY	Right	Yes	2.58972680009902	0	345443	253
677.271484375	0	health	response	2	68	8	foodImage.39	FOODEEG_Images\0367.jpg	NY	Right	Yes	2.58972680009902	0	346764	235
678.314453125	1	health	trialStart	2	69	9	foodImage.49	FOODEEG_Images\0515.jpg	YN	Left	Yes	0.829959499998949	0	347298	251
679.35546875	2	health	foodImageDisplay	2	69	9	foodImage.49	FOODEEG_Images\0515.jpg	YN	Left	Yes	0.829959499998949	0	347831	252
681.41796875	0.829959499998949	health	choicePhaseStart	2	69	9	foodImage.49	FOODEEG_Images\0515.jpg	YN	Left	Yes	0.829959499998949	0	348887	253
682.240234375	0	health	response	2	69	9	foodImage.49	FOODEEG_Images\0515.jpg	YN	Left	Yes	0.829959499998949	0	349308	234
683.28125	1	health	trialStart	2	70	10	foodImage.118	FOODEEG_Images\0926.jpg	NY	Left	No	1.18795519997366	0	349841	251
684.318359375	2	health	foodImageDisplay	2	70	10	foodImage.118	FOODEEG_Images\0926.jpg	NY	Left	No	1.18795519997366	0	350372	252
686.380859375	1.18795519997366	health	choicePhaseStart	2	70	10	foodImage.118	FOODEEG_Images\0926.jpg	NY	Left	No	1.18795519997366	0	351428	253
687.55859375	0	health	response	2	70	10	foodImage.118	FOODEEG_Images\0926.jpg	NY	Left	No	1.18795519997366	0	352031	234
688.603515625	1	taste	trialStart	2	71	11	foodImage.26	FOODEEG_Images\0262.jpg	NY	Left	No	1.66120800003409	0	352566	251
689.64453125	2	taste	foodImageDisplay	2	71	11	foodImage.26	FOODEEG_Images\0262.jpg	NY	Left	No	1.66120800003409	0	353099	252
691.70703125	1.66120800003409	taste	choicePhaseStart	2	71	11	foodImage.26	FOODEEG_Images\0262.jpg	NY	Left	No	1.66120800003409	0	354155	253
693.359375	0	taste	response	2	71	11	foodImage.26	FOODEEG_Images\0262.jpg	NY	Left	No	1.66120800003409	0	355001	234
694.400390625	1	decision	trialStart	2	72	12	foodImage.99	FOODEEG_Images\0907.jpg	NY	Left	No	0.780112500069663	0	355534	251
695.4375	2	decision	foodImageDisplay	2	72	12	foodImage.99	FOODEEG_Images\0907.jpg	NY	Left	No	0.780112500069663	0	356065	252
697.5	0.780112500069663	decision	choicePhaseStart	2	72	12	foodImage.99	FOODEEG_Images\0907.jpg	NY	Left	No	0.780112500069663	0	357121	253
698.271484375	0	decision	response	2	72	12	foodImage.99	FOODEEG_Images\0907.jpg	NY	Left	No	0.780112500069663	0	357516	234
699.314453125	1	taste	trialStart	2	73	13	foodImage.86	FOODEEG_Images\0844.jpg	YN	Left	Yes	0.795680399984121	0	358050	251
700.373046875	2	taste	foodImageDisplay	2	73	13	foodImage.86	FOODEEG_Images\0844.jpg	YN	Left	Yes	0.795680399984121	0	358592	252
702.435546875	0.795680399984121	taste	choicePhaseStart	2	73	13	foodImage.86	FOODEEG_Images\0844.jpg	YN	Left	Yes	0.795680399984121	0	359648	253
703.22265625	0	taste	response	2	73	13	foodImage.86	FOODEEG_Images\0844.jpg	YN	Left	Yes	0.795680399984121	0	360051	234
704.265625	1	taste	trialStart	2	74	14	foodImage.10	FOODEEG_Images\0145.jpg	YN	Left	Yes	1.21268789994065	0	360585	251
705.32421875	2	taste	foodImageDisplay	2	74	14	foodImage.10	FOODEEG_Images\0145.jpg	YN	Left	Yes	1.21268789994065	0	361127	252
707.38671875	1.21268789994065	taste	choicePhaseStart	2	74	14	foodImage.10	FOODEEG_Images\0145.jpg	YN	Left	Yes	1.21268789994065	0	362183	253
708.58984375	0	taste	response	2	74	14	foodImage.10	FOODEEG_Images\0145.jpg	YN	Left	Yes	1.21268789994065	0	362799	234
709.634765625	1	health	trialStart	2	75	15	foodImage.52	FOODEEG_Images\0539.jpg	NY	Right	Yes	3.56773709994741	0	363334	251
710.689453125	2	health	foodImageDisplay	2	75	15	foodImage.52	FOODEEG_Images\0539.jpg	NY	Right	Yes	3.56773709994741	0	363874	252
712.751953125	3.56773709994741	health	choicePhaseStart	2	75	15	foodImage.52	FOODEEG_Images\0539.jpg	NY	Right	Yes	3.56773709994741	0	364930	253
716.310546875	0	health	response	2	75	15	foodImage.52	FOODEEG_Images\0539.jpg	NY	Right	Yes	3.56773709994741	0	366752	235
717.3515625	1	taste	trialStart	2	76	16	foodImage.35	FOODEEG_Images\0350.jpg	NY	Right	Yes	1.99548130005132	0	367285	251
718.388671875	2	taste	foodImageDisplay	2	76	16	foodImage.35	FOODEEG_Images\0350.jpg	NY	Right	Yes	1.99548130005132	0	367816	252
720.451171875	1.99548130005132	taste	choicePhaseStart	2	76	16	foodImage.35	FOODEEG_Images\0350.jpg	NY	Right	Yes	1.99548130005132	0	368872	253
722.4375	0	taste	response	2	76	16	foodImage.35	FOODEEG_Images\0350.jpg	NY	Right	Yes	1.99548130005132	0	369889	235
723.478515625	1	taste	trialStart	2	77	17	foodImage.50	FOODEEG_Images\0529.jpg	NY	Right	Yes	0.694906799937598	0	370422	251
724.544921875	2	taste	foodImageDisplay	2	77	17	foodImage.50	FOODEEG_Images\0529.jpg	NY	Right	Yes	0.694906799937598	0	370968	252
726.607421875	0.694906799937598	taste	choicePhaseStart	2	77	17	foodImage.50	FOODEEG_Images\0529.jpg	NY	Right	Yes	0.694906799937598	0	372024	253
727.29296875	0	taste	response	2	77	17	foodImage.50	FOODEEG_Images\0529.jpg	NY	Right	Yes	0.694906799937598	0	372375	235
728.3359375	1	health	trialStart	2	78	18	foodImage.106	FOODEEG_Images\0914.jpg	NY	Left	No	1.23163699998986	0	372909	251
729.376953125	2	health	foodImageDisplay	2	78	18	foodImage.106	FOODEEG_Images\0914.jpg	NY	Left	No	1.23163699998986	0	373442	252
731.439453125	1.23163699998986	health	choicePhaseStart	2	78	18	foodImage.106	FOODEEG_Images\0914.jpg	NY	Left	No	1.23163699998986	0	374498	253
732.662109375	0	health	response	2	78	18	foodImage.106	FOODEEG_Images\0914.jpg	NY	Left	No	1.23163699998986	0	375124	234
733.705078125	1	health	trialStart	2	79	19	foodImage.4	FOODEEG_Images\0065.jpg	NY	Left	No	2.8031605000142	0	375658	251
734.765625	2	health	foodImageDisplay	2	79	19	foodImage.4	FOODEEG_Images\0065.jpg	NY	Left	No	2.8031605000142	0	376201	252
736.828125	2.8031605000142	health	choicePhaseStart	2	79	19	foodImage.4	FOODEEG_Images\0065.jpg	NY	Left	No	2.8031605000142	0	377257	253
739.62109375	0	health	response	2	79	19	foodImage.4	FOODEEG_Images\0065.jpg	NY	Left	No	2.8031605000142	0	378687	234
740.662109375	1	decision	trialStart	2	80	20	foodImage.13	FOODEEG_Images\0183.jpg	NY	Right	Yes	0.830755300004967	0	379220	251
741.705078125	2	decision	foodImageDisplay	2	80	20	foodImage.13	FOODEEG_Images\0183.jpg	NY	Right	Yes	0.830755300004967	0	379754	252
743.767578125	0.830755300004967	decision	choicePhaseStart	2	80	20	foodImage.13	FOODEEG_Images\0183.jpg	NY	Right	Yes	0.830755300004967	0	380810	253
744.58984375	0	decision	response	2	80	20	foodImage.13	FOODEEG_Images\0183.jpg	NY	Right	Yes	0.830755300004967	0	381231	235
745.630859375	1	health	trialStart	2	81	21	foodImage.88	FOODEEG_Images\0878.jpg	NY	Left	No	1.08688139996957	0	381764	251
746.6875	2	health	foodImageDisplay	2	81	21	foodImage.88	FOODEEG_Images\0878.jpg	NY	Left	No	1.08688139996957	0	382305	252
748.75	1.08688139996957	health	choicePhaseStart	2	81	21	foodImage.88	FOODEEG_Images\0878.jpg	NY	Left	No	1.08688139996957	0	383361	253
749.830078125	0	health	response	2	81	21	foodImage.88	FOODEEG_Images\0878.jpg	NY	Left	No	1.08688139996957	0	383914	234
750.869140625	1	decision	trialStart	2	82	22	foodImage.79	FOODEEG_Images\0794.jpg	YN	Left	Yes	0.723881400073878	0	384446	251
751.9140625	2	decision	foodImageDisplay	2	82	22	foodImage.79	FOODEEG_Images\0794.jpg	YN	Left	Yes	0.723881400073878	0	384981	252
753.978515625	0.723881400073878	decision	choicePhaseStart	2	82	22	foodImage.79	FOODEEG_Images\0794.jpg	YN	Left	Yes	0.723881400073878	0	386038	253
754.693359375	0	decision	response	2	82	22	foodImage.79	FOODEEG_Images\0794.jpg	YN	Left	Yes	0.723881400073878	0	386404	234
755.736328125	1	health	trialStart	2	83	23	foodImage.14	FOODEEG_Images\0188.jpg	NY	Left	No	1.59655200003181	0	386938	251
756.794921875	2	health	foodImageDisplay	2	83	23	foodImage.14	FOODEEG_Images\0188.jpg	NY	Left	No	1.59655200003181	0	387480	252
758.857421875	1.59655200003181	health	choicePhaseStart	2	83	23	foodImage.14	FOODEEG_Images\0188.jpg	NY	Left	No	1.59655200003181	0	388536	253
760.4453125	0	health	response	2	83	23	foodImage.14	FOODEEG_Images\0188.jpg	NY	Left	No	1.59655200003181	0	389349	234
761.48828125	1	decision	trialStart	2	84	24	foodImage.92	FOODEEG_Images\0900.jpg	YN	Right	No	2.52111840003636	0	389883	251
762.52734375	2	decision	foodImageDisplay	2	84	24	foodImage.92	FOODEEG_Images\0900.jpg	YN	Right	No	2.52111840003636	0	390415	252
764.58984375	2.52111840003636	decision	choicePhaseStart	2	84	24	foodImage.92	FOODEEG_Images\0900.jpg	YN	Right	No	2.52111840003636	0	391471	253
767.099609375	0	decision	response	2	84	24	foodImage.92	FOODEEG_Images\0900.jpg	YN	Right	No	2.52111840003636	0	392756	235
768.140625	1	decision	trialStart	2	85	25	foodImage.118	FOODEEG_Images\0926.jpg	NY	Left	No	0.866764900041744	0	393289	251
769.1796875	2	decision	foodImageDisplay	2	85	25	foodImage.118	FOODEEG_Images\0926.jpg	NY	Left	No	0.866764900041744	0	393821	252
771.2421875	0.866764900041744	decision	choicePhaseStart	2	85	25	foodImage.118	FOODEEG_Images\0926.jpg	NY	Left	No	0.866764900041744	0	394877	253
772.099609375	0	decision	response	2	85	25	foodImage.118	FOODEEG_Images\0926.jpg	NY	Left	No	0.866764900041744	0	395316	234
773.140625	1	health	trialStart	2	86	26	foodImage.79	FOODEEG_Images\0794.jpg	NY	Right	Yes	1.75132399995346	0	395849	251
774.18359375	2	health	foodImageDisplay	2	86	26	foodImage.79	FOODEEG_Images\0794.jpg	NY	Right	Yes	1.75132399995346	0	396383	252
776.24609375	1.75132399995346	health	choicePhaseStart	2	86	26	foodImage.79	FOODEEG_Images\0794.jpg	NY	Right	Yes	1.75132399995346	0	397439	253
777.98828125	0	health	response	2	86	26	foodImage.79	FOODEEG_Images\0794.jpg	NY	Right	Yes	1.75132399995346	0	398331	235
779.029296875	1	health	trialStart	2	87	27	foodImage.2	FOODEEG_Images\0028.jpg	NY	Left	No	1.72817999997642	0	398864	251
780.0703125	2	health	foodImageDisplay	2	87	27	foodImage.2	FOODEEG_Images\0028.jpg	NY	Left	No	1.72817999997642	0	399397	252
782.138671875	1.72817999997642	health	choicePhaseStart	2	87	27	foodImage.2	FOODEEG_Images\0028.jpg	NY	Left	No	1.72817999997642	0	400456	253
783.859375	0	health	response	2	87	27	foodImage.2	FOODEEG_Images\0028.jpg	NY	Left	No	1.72817999997642	0	401337	234
784.900390625	1	decision	trialStart	2	88	28	foodImage.4	FOODEEG_Images\0065.jpg	NY	Right	Yes	0.75164070003666	0	401870	251
785.958984375	2	decision	foodImageDisplay	2	88	28	foodImage.4	FOODEEG_Images\0065.jpg	NY	Right	Yes	0.75164070003666	0	402412	252
788.021484375	0.75164070003666	decision	choicePhaseStart	2	88	28	foodImage.4	FOODEEG_Images\0065.jpg	NY	Right	Yes	0.75164070003666	0	403468	253
788.763671875	0	decision	response	2	88	28	foodImage.4	FOODEEG_Images\0065.jpg	NY	Right	Yes	0.75164070003666	0	403848	235
789.8125	1	taste	trialStart	2	89	29	foodImage.11	FOODEEG_Images\0180.jpg	YN	Left	Yes	2.24625229998492	0	404385	251
790.85546875	2	taste	foodImageDisplay	2	89	29	foodImage.11	FOODEEG_Images\0180.jpg	YN	Left	Yes	2.24625229998492	0	404919	252
792.91796875	2.24625229998492	taste	choicePhaseStart	2	89	29	foodImage.11	FOODEEG_Images\0180.jpg	YN	Left	Yes	2.24625229998492	0	405975	253
795.15625	0	taste	response	2	89	29	foodImage.11	FOODEEG_Images\0180.jpg	YN	Left	Yes	2.24625229998492	0	407121	234
796.19921875	1	health	trialStart	2	90	30	foodImage.63	FOODEEG_Images\0645.jpg	YN	Right	No	1.04550629993901	0	407655	251
797.240234375	2	health	foodImageDisplay	2	90	30	foodImage.63	FOODEEG_Images\0645.jpg	YN	Right	No	1.04550629993901	0	408188	252
799.302734375	1.04550629993901	health	choicePhaseStart	2	90	30	foodImage.63	FOODEEG_Images\0645.jpg	YN	Right	No	1.04550629993901	0	409244	253
800.33984375	0	health	response	2	90	30	foodImage.63	FOODEEG_Images\0645.jpg	YN	Right	No	1.04550629993901	0	409775	235
801.3828125	1	taste	trialStart	2	91	31	foodImage.75	FOODEEG_Images\0763.jpg	YN	Right	No	2.63392669998575	0	410309	251
802.427734375	2	taste	foodImageDisplay	2	91	31	foodImage.75	FOODEEG_Images\0763.jpg	YN	Right	No	2.63392669998575	0	410844	252
804.490234375	2.63392669998575	taste	choicePhaseStart	2	91	31	foodImage.75	FOODEEG_Images\0763.jpg	YN	Right	No	2.63392669998575	0	411900	253
807.115234375	0	taste	response	2	91	31	foodImage.75	FOODEEG_Images\0763.jpg	YN	Right	No	2.63392669998575	0	413244	235
808.158203125	1	decision	trialStart	2	92	32	foodImage.102	FOODEEG_Images\0910.jpg	NY	Left	No	2.46627959993202	0	413778	251
809.1953125	2	decision	foodImageDisplay	2	92	32	foodImage.102	FOODEEG_Images\0910.jpg	NY	Left	No	2.46627959993202	0	414309	252
811.2578125	2.46627959993202	decision	choicePhaseStart	2	92	32	foodImage.102	FOODEEG_Images\0910.jpg	NY	Left	No	2.46627959993202	0	415365	253
813.71484375	0	decision	response	2	92	32	foodImage.102	FOODEEG_Images\0910.jpg	NY	Left	No	2.46627959993202	0	416623	234
814.75390625	1	taste	trialStart	2	93	33	foodImage.69	FOODEEG_Images\0693.jpg	YN	Left	Yes	0.76673919998575	0	417155	251
815.796875	2	taste	foodImageDisplay	2	93	33	foodImage.69	FOODEEG_Images\0693.jpg	YN	Left	Yes	0.76673919998575	0	417689	252
817.859375	0.76673919998575	taste	choicePhaseStart	2	93	33	foodImage.69	FOODEEG_Images\0693.jpg	YN	Left	Yes	0.76673919998575	0	418745	253
818.619140625	0	taste	response	2	93	33	foodImage.69	FOODEEG_Images\0693.jpg	YN	Left	Yes	0.76673919998575	0	419134	234
819.66015625	1	taste	trialStart	2	94	34	foodImage.107	FOODEEG_Images\0915.jpg	NY	Left	No	0.849436999997124	0	419667	251
820.69921875	2	taste	foodImageDisplay	2	94	34	foodImage.107	FOODEEG_Images\0915.jpg	NY	Left	No	0.849436999997124	0	420199	252
822.76171875	0.849436999997124	taste	choicePhaseStart	2	94	34	foodImage.107	FOODEEG_Images\0915.jpg	NY	Left	No	0.849436999997124	0	421255	253
823.6015625	0	taste	response	2	94	34	foodImage.107	FOODEEG_Images\0915.jpg	NY	Left	No	0.849436999997124	0	421685	234
824.64453125	1	health	trialStart	2	95	35	foodImage.48	FOODEEG_Images\0494.jpg	YN	Right	No	1.24664210004266	0	422219	251
825.685546875	2	health	foodImageDisplay	2	95	35	foodImage.48	FOODEEG_Images\0494.jpg	YN	Right	No	1.24664210004266	0	422752	252
827.748046875	1.24664210004266	health	choicePhaseStart	2	95	35	foodImage.48	FOODEEG_Images\0494.jpg	YN	Right	No	1.24664210004266	0	423808	253
828.986328125	0	health	response	2	95	35	foodImage.48	FOODEEG_Images\0494.jpg	YN	Right	No	1.24664210004266	0	424442	235
830.02734375	1	taste	trialStart	2	96	36	foodImage.60	FOODEEG_Images\0614.jpg	YN	Left	Yes	1.84949819999747	0	424975	251
831.08203125	2	taste	foodImageDisplay	2	96	36	foodImage.60	FOODEEG_Images\0614.jpg	YN	Left	Yes	1.84949819999747	0	425515	252
833.14453125	1.84949819999747	taste	choicePhaseStart	2	96	36	foodImage.60	FOODEEG_Images\0614.jpg	YN	Left	Yes	1.84949819999747	0	426571	253
834.986328125	0	taste	response	2	96	36	foodImage.60	FOODEEG_Images\0614.jpg	YN	Left	Yes	1.84949819999747	0	427514	234
836.029296875	1	taste	trialStart	2	97	37	foodImage.45	FOODEEG_Images\0478.jpg	NY	Right	Yes	0.883734600036405	0	428048	251
837.072265625	2	taste	foodImageDisplay	2	97	37	foodImage.45	FOODEEG_Images\0478.jpg	NY	Right	Yes	0.883734600036405	0	428582	252
839.134765625	0.883734600036405	taste	choicePhaseStart	2	97	37	foodImage.45	FOODEEG_Images\0478.jpg	NY	Right	Yes	0.883734600036405	0	429638	253
840.009765625	0	taste	response	2	97	37	foodImage.45	FOODEEG_Images\0478.jpg	NY	Right	Yes	0.883734600036405	0	430086	235
841.0546875	1	decision	trialStart	2	98	38	foodImage.51	FOODEEG_Images\0536.jpg	NY	Left	No	0.983897499972954	0	430621	251
842.099609375	2	decision	foodImageDisplay	2	98	38	foodImage.51	FOODEEG_Images\0536.jpg	NY	Left	No	0.983897499972954	0	431156	252
844.162109375	0.983897499972954	decision	choicePhaseStart	2	98	38	foodImage.51	FOODEEG_Images\0536.jpg	NY	Left	No	0.983897499972954	0	432212	253
845.13671875	0	decision	response	2	98	38	foodImage.51	FOODEEG_Images\0536.jpg	NY	Left	No	0.983897499972954	0	432711	234
846.1796875	1	taste	trialStart	2	99	39	foodImage.19	FOODEEG_Images\0225.jpg	NY	Right	Yes	1.779583800002	0	433245	251
847.22265625	2	taste	foodImageDisplay	2	99	39	foodImage.19	FOODEEG_Images\0225.jpg	NY	Right	Yes	1.779583800002	0	433779	252
849.287109375	1.779583800002	taste	choicePhaseStart	2	99	39	foodImage.19	FOODEEG_Images\0225.jpg	NY	Right	Yes	1.779583800002	0	434836	253
851.056640625	0	taste	response	2	99	39	foodImage.19	FOODEEG_Images\0225.jpg	NY	Right	Yes	1.779583800002	0	435742	235
852.099609375	1	taste	trialStart	2	100	40	foodImage.39	FOODEEG_Images\0367.jpg	YN	Left	Yes	1.83965049998369	0	436276	251
853.138671875	2	taste	foodImageDisplay	2	100	40	foodImage.39	FOODEEG_Images\0367.jpg	YN	Left	Yes	1.83965049998369	0	436808	252
855.201171875	1.83965049998369	taste	choicePhaseStart	2	100	40	foodImage.39	FOODEEG_Images\0367.jpg	YN	Left	Yes	1.83965049998369	0	437864	253
857.033203125	0	taste	response	2	100	40	foodImage.39	FOODEEG_Images\0367.jpg	YN	Left	Yes	1.83965049998369	0	438802	234
858.076171875	1	health	trialStart	2	101	41	foodImage.37	FOODEEG_Images\0359.jpg	NY	Right	Yes	0.668843600084074	0	439336	251
859.1171875	2	health	foodImageDisplay	2	101	41	foodImage.37	FOODEEG_Images\0359.jpg	NY	Right	Yes	0.668843600084074	0	439869	252
861.1796875	0.668843600084074	health	choicePhaseStart	2	101	41	foodImage.37	FOODEEG_Images\0359.jpg	NY	Right	Yes	0.668843600084074	0	440925	253
861.83984375	0	health	response	2	101	41	foodImage.37	FOODEEG_Images\0359.jpg	NY	Right	Yes	0.668843600084074	0	441263	235
862.8828125	1	decision	trialStart	2	102	42	foodImage.21	FOODEEG_Images\0234.jpg	NY	Right	Yes	0.704188899951987	0	441797	251
863.939453125	2	decision	foodImageDisplay	2	102	42	foodImage.21	FOODEEG_Images\0234.jpg	NY	Right	Yes	0.704188899951987	0	442338	252
866.001953125	0.704188899951987	decision	choicePhaseStart	2	102	42	foodImage.21	FOODEEG_Images\0234.jpg	NY	Right	Yes	0.704188899951987	0	443394	253
866.697265625	0	decision	response	2	102	42	foodImage.21	FOODEEG_Images\0234.jpg	NY	Right	Yes	0.704188899951987	0	443750	235
867.740234375	1	decision	trialStart	2	103	43	foodImage.72	FOODEEG_Images\0714.jpg	NY	Right	Yes	1.92582660005428	0	444284	251
868.78125	2	decision	foodImageDisplay	2	103	43	foodImage.72	FOODEEG_Images\0714.jpg	NY	Right	Yes	1.92582660005428	0	444817	252
870.84375	1.92582660005428	decision	choicePhaseStart	2	103	43	foodImage.72	FOODEEG_Images\0714.jpg	NY	Right	Yes	1.92582660005428	0	445873	253
872.759765625	0	decision	response	2	103	43	foodImage.72	FOODEEG_Images\0714.jpg	NY	Right	Yes	1.92582660005428	0	446854	235
873.80078125	1	health	trialStart	2	104	44	foodImage.16	FOODEEG_Images\0196.jpg	NY	Right	Yes	0.736075900029391	0	447387	251
874.857421875	2	health	foodImageDisplay	2	104	44	foodImage.16	FOODEEG_Images\0196.jpg	NY	Right	Yes	0.736075900029391	0	447928	252
876.919921875	0.736075900029391	health	choicePhaseStart	2	104	44	foodImage.16	FOODEEG_Images\0196.jpg	NY	Right	Yes	0.736075900029391	0	448984	253
877.6484375	0	health	response	2	104	44	foodImage.16	FOODEEG_Images\0196.jpg	NY	Right	Yes	0.736075900029391	0	449357	235
878.69140625	1	taste	trialStart	2	105	45	foodImage.42	FOODEEG_Images\0438.jpg	YN	Left	Yes	0.970506199984811	0	449891	251
879.775390625	2	taste	foodImageDisplay	2	105	45	foodImage.42	FOODEEG_Images\0438.jpg	YN	Left	Yes	0.970506199984811	0	450446	252
881.837890625	0.970506199984811	taste	choicePhaseStart	2	105	45	foodImage.42	FOODEEG_Images\0438.jpg	YN	Left	Yes	0.970506199984811	0	451502	253
882.798828125	0	taste	response	2	105	45	foodImage.42	FOODEEG_Images\0438.jpg	YN	Left	Yes	0.970506199984811	0	451994	234
883.84375	1	health	trialStart	2	106	46	foodImage.87	FOODEEG_Images\0873.jpg	NY	Right	Yes	0.928317200043239	0	452529	251
884.904296875	2	health	foodImageDisplay	2	106	46	foodImage.87	FOODEEG_Images\0873.jpg	NY	Right	Yes	0.928317200043239	0	453072	252
886.966796875	0.928317200043239	health	choicePhaseStart	2	106	46	foodImage.87	FOODEEG_Images\0873.jpg	NY	Right	Yes	0.928317200043239	0	454128	253
887.88671875	0	health	response	2	106	46	foodImage.87	FOODEEG_Images\0873.jpg	NY	Right	Yes	0.928317200043239	0	454599	235
888.931640625	1	decision	trialStart	2	107	47	foodImage.112	FOODEEG_Images\0920.jpg	YN	Right	No	0.703332000062801	0	455134	251
889.96875	2	decision	foodImageDisplay	2	107	47	foodImage.112	FOODEEG_Images\0920.jpg	YN	Right	No	0.703332000062801	0	455665	252
892.033203125	0.703332000062801	decision	choicePhaseStart	2	107	47	foodImage.112	FOODEEG_Images\0920.jpg	YN	Right	No	0.703332000062801	0	456722	253
892.7265625	0	decision	response	2	107	47	foodImage.112	FOODEEG_Images\0920.jpg	YN	Right	No	0.703332000062801	0	457077	235
893.767578125	1	health	trialStart	2	108	48	foodImage.97	FOODEEG_Images\0905.jpg	YN	Right	No	1.65159469994251	0	457610	251
894.806640625	2	health	foodImageDisplay	2	108	48	foodImage.97	FOODEEG_Images\0905.jpg	YN	Right	No	1.65159469994251	0	458142	252
896.869140625	1.65159469994251	health	choicePhaseStart	2	108	48	foodImage.97	FOODEEG_Images\0905.jpg	YN	Right	No	1.65159469994251	0	459198	253
898.51171875	0	health	response	2	108	48	foodImage.97	FOODEEG_Images\0905.jpg	YN	Right	No	1.65159469994251	0	460039	235
899.5546875	1	taste	trialStart	2	109	49	foodImage.105	FOODEEG_Images\0913.jpg	NY	Left	No	0.879498800029978	0	460573	251
900.59375	2	taste	foodImageDisplay	2	109	49	foodImage.105	FOODEEG_Images\0913.jpg	NY	Left	No	0.879498800029978	0	461105	252
902.658203125	0.879498800029978	taste	choicePhaseStart	2	109	49	foodImage.105	FOODEEG_Images\0913.jpg	NY	Left	No	0.879498800029978	0	462162	253
903.52734375	0	taste	response	2	109	49	foodImage.105	FOODEEG_Images\0913.jpg	NY	Left	No	0.879498800029978	0	462607	234
904.568359375	1	taste	trialStart	2	110	50	foodImage.6	FOODEEG_Images\0113.jpg	YN	Left	Yes	2.3021419000579	0	463140	251
905.611328125	2	taste	foodImageDisplay	2	110	50	foodImage.6	FOODEEG_Images\0113.jpg	YN	Left	Yes	2.3021419000579	0	463674	252
907.673828125	2.3021419000579	taste	choicePhaseStart	2	110	50	foodImage.6	FOODEEG_Images\0113.jpg	YN	Left	Yes	2.3021419000579	0	464730	253
909.966796875	0	taste	response	2	110	50	foodImage.6	FOODEEG_Images\0113.jpg	YN	Left	Yes	2.3021419000579	0	465904	234
911.009765625	1	decision	trialStart	2	111	51	foodImage.53	FOODEEG_Images\0547.jpg	YN	Right	No	0.800535299931653	0	466438	251
912.072265625	2	decision	foodImageDisplay	2	111	51	foodImage.53	FOODEEG_Images\0547.jpg	YN	Right	No	0.800535299931653	0	466982	252
914.134765625	0.800535299931653	decision	choicePhaseStart	2	111	51	foodImage.53	FOODEEG_Images\0547.jpg	YN	Right	No	0.800535299931653	0	468038	253
914.92578125	0	decision	response	2	111	51	foodImage.53	FOODEEG_Images\0547.jpg	YN	Right	No	0.800535299931653	0	468443	235
915.96875	1	health	trialStart	2	112	52	foodImage.57	FOODEEG_Images\0587.jpg	NY	Left	No	1.12499969999772	0	468977	251
917.01171875	2	health	foodImageDisplay	2	112	52	foodImage.57	FOODEEG_Images\0587.jpg	NY	Left	No	1.12499969999772	0	469511	252
919.072265625	1.12499969999772	health	choicePhaseStart	2	112	52	foodImage.57	FOODEEG_Images\0587.jpg	NY	Left	No	1.12499969999772	0	470566	253
920.189453125	0	health	response	2	112	52	foodImage.57	FOODEEG_Images\0587.jpg	NY	Left	No	1.12499969999772	0	471138	234
921.234375	1	taste	trialStart	2	113	53	foodImage.53	FOODEEG_Images\0547.jpg	NY	Left	No	0.886045300052501	0	471673	251
922.291015625	2	taste	foodImageDisplay	2	113	53	foodImage.53	FOODEEG_Images\0547.jpg	NY	Left	No	0.886045300052501	0	472214	252
924.353515625	0.886045300052501	taste	choicePhaseStart	2	113	53	foodImage.53	FOODEEG_Images\0547.jpg	NY	Left	No	0.886045300052501	0	473270	253
925.23046875	0	taste	response	2	113	53	foodImage.53	FOODEEG_Images\0547.jpg	NY	Left	No	0.886045300052501	0	473719	234
926.2734375	1	decision	trialStart	2	114	54	foodImage.86	FOODEEG_Images\0844.jpg	YN	Left	Yes	1.83765420003328	0	474253	251
927.328125	2	decision	foodImageDisplay	2	114	54	foodImage.86	FOODEEG_Images\0844.jpg	YN	Left	Yes	1.83765420003328	0	474793	252
929.392578125	1.83765420003328	decision	choicePhaseStart	2	114	54	foodImage.86	FOODEEG_Images\0844.jpg	YN	Left	Yes	1.83765420003328	0	475850	253
931.22265625	0	decision	response	2	114	54	foodImage.86	FOODEEG_Images\0844.jpg	YN	Left	Yes	1.83765420003328	0	476787	234
932.267578125	1	decision	trialStart	2	115	55	foodImage.40	FOODEEG_Images\0373.jpg	YN	Right	No	1.90624629997183	0	477322	251
933.30859375	2	decision	foodImageDisplay	2	115	55	foodImage.40	FOODEEG_Images\0373.jpg	YN	Right	No	1.90624629997183	0	477855	252
935.37109375	1.90624629997183	decision	choicePhaseStart	2	115	55	foodImage.40	FOODEEG_Images\0373.jpg	YN	Right	No	1.90624629997183	0	478911	253
937.26953125	0	decision	response	2	115	55	foodImage.40	FOODEEG_Images\0373.jpg	YN	Right	No	1.90624629997183	0	479883	235
938.3125	1	health	trialStart	2	116	56	foodImage.104	FOODEEG_Images\0912.jpg	NY	Left	No	1.59147639991716	0	480417	251
939.349609375	2	health	foodImageDisplay	2	116	56	foodImage.104	FOODEEG_Images\0912.jpg	NY	Left	No	1.59147639991716	0	480948	252
941.416015625	1.59147639991716	health	choicePhaseStart	2	116	56	foodImage.104	FOODEEG_Images\0912.jpg	NY	Left	No	1.59147639991716	0	482006	253
942.998046875	0	health	response	2	116	56	foodImage.104	FOODEEG_Images\0912.jpg	NY	Left	No	1.59147639991716	0	482816	234
944.037109375	1	taste	trialStart	2	117	57	foodImage.101	FOODEEG_Images\0909.jpg	NY	Left	No	0.72500640002545	0	483348	251
945.07421875	2	taste	foodImageDisplay	2	117	57	foodImage.101	FOODEEG_Images\0909.jpg	NY	Left	No	0.72500640002545	0	483879	252
947.13671875	0.72500640002545	taste	choicePhaseStart	2	117	57	foodImage.101	FOODEEG_Images\0909.jpg	NY	Left	No	0.72500640002545	0	484935	253
947.853515625	0	taste	response	2	117	57	foodImage.101	FOODEEG_Images\0909.jpg	NY	Left	No	0.72500640002545	0	485302	234
948.896484375	1	taste	trialStart	2	118	58	foodImage.94	FOODEEG_Images\0902.jpg	NY	Right	Yes	0.695907699991949	0	485836	251
949.935546875	2	taste	foodImageDisplay	2	118	58	foodImage.94	FOODEEG_Images\0902.jpg	NY	Right	Yes	0.695907699991949	0	486368	252
951.998046875	0.695907699991949	taste	choicePhaseStart	2	118	58	foodImage.94	FOODEEG_Images\0902.jpg	NY	Right	Yes	0.695907699991949	0	487424	253
952.685546875	0	taste	response	2	118	58	foodImage.94	FOODEEG_Images\0902.jpg	NY	Right	Yes	0.695907699991949	0	487776	235
953.728515625	1	health	trialStart	2	119	59	foodImage.32	FOODEEG_Images\0319.jpg	YN	Right	No	1.15530690003652	0	488310	251
954.771484375	2	health	foodImageDisplay	2	119	59	foodImage.32	FOODEEG_Images\0319.jpg	YN	Right	No	1.15530690003652	0	488844	252
956.833984375	1.15530690003652	health	choicePhaseStart	2	119	59	foodImage.32	FOODEEG_Images\0319.jpg	YN	Right	No	1.15530690003652	0	489900	253
957.98046875	0	health	response	2	119	59	foodImage.32	FOODEEG_Images\0319.jpg	YN	Right	No	1.15530690003652	0	490487	235
959.02734375	1	decision	trialStart	2	120	60	foodImage.103	FOODEEG_Images\0911.jpg	NY	Left	No	1.55553439992946	0	491023	251
960.068359375	2	decision	foodImageDisplay	2	120	60	foodImage.103	FOODEEG_Images\0911.jpg	NY	Left	No	1.55553439992946	0	491556	252
962.130859375	1.55553439992946	decision	choicePhaseStart	2	120	60	foodImage.103	FOODEEG_Images\0911.jpg	NY	Left	No	1.55553439992946	0	492612	253
963.67578125	0	decision	response	2	120	60	foodImage.103	FOODEEG_Images\0911.jpg	NY	Left	No	1.55553439992946	0	493403	234
965.71875	26.607421875	n/a	blockEnd	n/a	n/a	n/a	n/a	n/a	n/a	n/a	n/a	n/a	n/a	494449	254
992.326171875	2	n/a	blockStart	3	n/a	n/a	n/a	n/a	n/a	n/a	n/a	n/a	n/a	508072	250
994.365234375	1	health	trialStart	3	121	1	foodImage.74	FOODEEG_Images\0752.jpg	YN	Left	Yes	1.35114189994056	0	509116	251
995.4140625	2	health	foodImageDisplay	3	121	1	foodImage.74	FOODEEG_Images\0752.jpg	YN	Left	Yes	1.35114189994056	0	509653	252
997.4765625	1.35114189994056	health	choicePhaseStart	3	121	1	foodImage.74	FOODEEG_Images\0752.jpg	YN	Left	Yes	1.35114189994056	0	510709	253
998.818359375	0	health	response	3	121	1	foodImage.74	FOODEEG_Images\0752.jpg	YN	Left	Yes	1.35114189994056	0	511396	234
999.859375	1	taste	trialStart	3	122	2	foodImage.15	FOODEEG_Images\0189.jpg	YN	Left	Yes	0.582507199957035	0	511929	251
1000.91796875	2	taste	foodImageDisplay	3	122	2	foodImage.15	FOODEEG_Images\0189.jpg	YN	Left	Yes	0.582507199957035	0	512471	252
1002.98046875	0.582507199957035	taste	choicePhaseStart	3	122	2	foodImage.15	FOODEEG_Images\0189.jpg	YN	Left	Yes	0.582507199957035	0	513527	253
1003.5546875	0	taste	response	3	122	2	foodImage.15	FOODEEG_Images\0189.jpg	YN	Left	Yes	0.582507199957035	0	513821	234
1004.59765625	1	decision	trialStart	3	123	3	foodImage.75	FOODEEG_Images\0763.jpg	NY	Left	No	1.66009659995325	0	514355	251
1005.640625	2	decision	foodImageDisplay	3	123	3	foodImage.75	FOODEEG_Images\0763.jpg	NY	Left	No	1.66009659995325	0	514889	252
1007.703125	1.66009659995325	decision	choicePhaseStart	3	123	3	foodImage.75	FOODEEG_Images\0763.jpg	NY	Left	No	1.66009659995325	0	515945	253
1009.35546875	0	decision	response	3	123	3	foodImage.75	FOODEEG_Images\0763.jpg	NY	Left	No	1.66009659995325	0	516791	234
1010.400390625	1	taste	trialStart	3	124	4	foodImage.17	FOODEEG_Images\0199.jpg	NY	Right	Yes	0.875932700000703	0	517326	251
1011.44140625	2	taste	foodImageDisplay	3	124	4	foodImage.17	FOODEEG_Images\0199.jpg	NY	Right	Yes	0.875932700000703	0	517859	252
1013.50390625	0.875932700000703	taste	choicePhaseStart	3	124	4	foodImage.17	FOODEEG_Images\0199.jpg	NY	Right	Yes	0.875932700000703	0	518915	253
1014.37109375	0	taste	response	3	124	4	foodImage.17	FOODEEG_Images\0199.jpg	NY	Right	Yes	0.875932700000703	0	519359	235
1015.4140625	1	taste	trialStart	3	125	5	foodImage.24	FOODEEG_Images\0250.jpg	NY	Right	Yes	0.655534700024873	0	519893	251
1016.455078125	2	taste	foodImageDisplay	3	125	5	foodImage.24	FOODEEG_Images\0250.jpg	NY	Right	Yes	0.655534700024873	0	520426	252
1018.5234375	0.655534700024873	taste	choicePhaseStart	3	125	5	foodImage.24	FOODEEG_Images\0250.jpg	NY	Right	Yes	0.655534700024873	0	521485	253
1019.169921875	0	taste	response	3	125	5	foodImage.24	FOODEEG_Images\0250.jpg	NY	Right	Yes	0.655534700024873	0	521816	235
1020.212890625	1	taste	trialStart	3	126	6	foodImage.106	FOODEEG_Images\0914.jpg	NY	Right	Yes	0.850727399927564	0	522350	251
1021.251953125	2	taste	foodImageDisplay	3	126	6	foodImage.106	FOODEEG_Images\0914.jpg	NY	Right	Yes	0.850727399927564	0	522882	252
1023.3203125	0.850727399927564	taste	choicePhaseStart	3	126	6	foodImage.106	FOODEEG_Images\0914.jpg	NY	Right	Yes	0.850727399927564	0	523941	253
1024.162109375	0	taste	response	3	126	6	foodImage.106	FOODEEG_Images\0914.jpg	NY	Right	Yes	0.850727399927564	0	524372	235
1025.208984375	1	taste	trialStart	3	127	7	foodImage.92	FOODEEG_Images\0900.jpg	NY	Left	No	0.825375800020993	0	524908	251
1026.248046875	2	taste	foodImageDisplay	3	127	7	foodImage.92	FOODEEG_Images\0900.jpg	NY	Left	No	0.825375800020993	0	525440	252
1028.3125	0.825375800020993	taste	choicePhaseStart	3	127	7	foodImage.92	FOODEEG_Images\0900.jpg	NY	Left	No	0.825375800020993	0	526497	253
1029.130859375	0	taste	response	3	127	7	foodImage.92	FOODEEG_Images\0900.jpg	NY	Left	No	0.825375800020993	0	526916	234
1030.173828125	1	decision	trialStart	3	128	8	foodImage.17	FOODEEG_Images\0199.jpg	YN	Left	Yes	0.772368200006895	0	527450	251
1031.21484375	2	decision	foodImageDisplay	3	128	8	foodImage.17	FOODEEG_Images\0199.jpg	YN	Left	Yes	0.772368200006895	0	527983	252
1033.27734375	0.772368200006895	decision	choicePhaseStart	3	128	8	foodImage.17	FOODEEG_Images\0199.jpg	YN	Left	Yes	0.772368200006895	0	529039	253
1034.041015625	0	decision	response	3	128	8	foodImage.17	FOODEEG_Images\0199.jpg	YN	Left	Yes	0.772368200006895	0	529430	234
1035.0859375	1	health	trialStart	3	129	9	foodImage.117	FOODEEG_Images\0925.jpg	YN	Right	No	0.857990199932829	0	529965	251
1036.123046875	2	health	foodImageDisplay	3	129	9	foodImage.117	FOODEEG_Images\0925.jpg	YN	Right	No	0.857990199932829	0	530496	252
1038.185546875	0.857990199932829	health	choicePhaseStart	3	129	9	foodImage.117	FOODEEG_Images\0925.jpg	YN	Right	No	0.857990199932829	0	531552	253
1039.033203125	0	health	response	3	129	9	foodImage.117	FOODEEG_Images\0925.jpg	YN	Right	No	0.857990199932829	0	531986	235
1040.076171875	1	taste	trialStart	3	130	10	foodImage.21	FOODEEG_Images\0234.jpg	YN	Left	Yes	0.664272499969229	0	532520	251
1041.1328125	2	taste	foodImageDisplay	3	130	10	foodImage.21	FOODEEG_Images\0234.jpg	YN	Left	Yes	0.664272499969229	0	533061	252
1043.193359375	0.664272499969229	taste	choicePhaseStart	3	130	10	foodImage.21	FOODEEG_Images\0234.jpg	YN	Left	Yes	0.664272499969229	0	534116	253
1043.849609375	0	taste	response	3	130	10	foodImage.21	FOODEEG_Images\0234.jpg	YN	Left	Yes	0.664272499969229	0	534452	234
1044.892578125	1	taste	trialStart	3	131	11	foodImage.27	FOODEEG_Images\0263.jpg	YN	Left	Yes	0.754840100067668	0	534986	251
1045.935546875	2	taste	foodImageDisplay	3	131	11	foodImage.27	FOODEEG_Images\0263.jpg	YN	Left	Yes	0.754840100067668	0	535520	252
1047.998046875	0.754840100067668	taste	choicePhaseStart	3	131	11	foodImage.27	FOODEEG_Images\0263.jpg	YN	Left	Yes	0.754840100067668	0	536576	253
1048.74609375	0	taste	response	3	131	11	foodImage.27	FOODEEG_Images\0263.jpg	YN	Left	Yes	0.754840100067668	0	536959	234
1049.787109375	1	health	trialStart	3	132	12	foodImage.13	FOODEEG_Images\0183.jpg	NY	Right	Yes	0.760992300114594	0	537492	251
1050.826171875	2	health	foodImageDisplay	3	132	12	foodImage.13	FOODEEG_Images\0183.jpg	NY	Right	Yes	0.760992300114594	0	538024	252
1052.888671875	0.760992300114594	health	choicePhaseStart	3	132	12	foodImage.13	FOODEEG_Images\0183.jpg	NY	Right	Yes	0.760992300114594	0	539080	253
1053.640625	0	health	response	3	132	12	foodImage.13	FOODEEG_Images\0183.jpg	NY	Right	Yes	0.760992300114594	0	539465	235
1054.68359375	1	health	trialStart	3	133	13	foodImage.62	FOODEEG_Images\0644.jpg	NY	Right	Yes	0.683829499990679	0	539999	251
1055.744140625	2	health	foodImageDisplay	3	133	13	foodImage.62	FOODEEG_Images\0644.jpg	NY	Right	Yes	0.683829499990679	0	540542	252
1057.8046875	0.683829499990679	health	choicePhaseStart	3	133	13	foodImage.62	FOODEEG_Images\0644.jpg	NY	Right	Yes	0.683829499990679	0	541597	253
1058.48046875	0	health	response	3	133	13	foodImage.62	FOODEEG_Images\0644.jpg	NY	Right	Yes	0.683829499990679	0	541943	235
1059.5234375	1	decision	trialStart	3	134	14	foodImage.12	FOODEEG_Images\0181.jpg	YN	Left	Yes	0.619839399936609	0	542477	251
1060.56640625	2	decision	foodImageDisplay	3	134	14	foodImage.12	FOODEEG_Images\0181.jpg	YN	Left	Yes	0.619839399936609	0	543011	252
1062.62890625	0.619839399936609	decision	choicePhaseStart	3	134	14	foodImage.12	FOODEEG_Images\0181.jpg	YN	Left	Yes	0.619839399936609	0	544067	253
1063.240234375	0	decision	response	3	134	14	foodImage.12	FOODEEG_Images\0181.jpg	YN	Left	Yes	0.619839399936609	0	544380	234
1064.283203125	1	decision	trialStart	3	135	15	foodImage.82	FOODEEG_Images\0805.jpg	NY	Right	Yes	1.18903880007565	0	544914	251
1065.33984375	2	decision	foodImageDisplay	3	135	15	foodImage.82	FOODEEG_Images\0805.jpg	NY	Right	Yes	1.18903880007565	0	545455	252
1067.40234375	1.18903880007565	decision	choicePhaseStart	3	135	15	foodImage.82	FOODEEG_Images\0805.jpg	NY	Right	Yes	1.18903880007565	0	546511	253
1068.583984375	0	decision	response	3	135	15	foodImage.82	FOODEEG_Images\0805.jpg	NY	Right	Yes	1.18903880007565	0	547116	235
1069.625	1	taste	trialStart	3	136	16	foodImage.110	FOODEEG_Images\0918.jpg	NY	Left	No	0.705612099962309	0	547649	251
1070.666015625	2	taste	foodImageDisplay	3	136	16	foodImage.110	FOODEEG_Images\0918.jpg	NY	Left	No	0.705612099962309	0	548182	252
1072.728515625	0.705612099962309	taste	choicePhaseStart	3	136	16	foodImage.110	FOODEEG_Images\0918.jpg	NY	Left	No	0.705612099962309	0	549238	253
1073.423828125	0	taste	response	3	136	16	foodImage.110	FOODEEG_Images\0918.jpg	NY	Left	No	0.705612099962309	0	549594	234
1074.466796875	1	decision	trialStart	3	137	17	foodImage.106	FOODEEG_Images\0914.jpg	NY	Right	Yes	0.712858999962918	0	550128	251
1075.505859375	2	decision	foodImageDisplay	3	137	17	foodImage.106	FOODEEG_Images\0914.jpg	NY	Right	Yes	0.712858999962918	0	550660	252
1077.568359375	0.712858999962918	decision	choicePhaseStart	3	137	17	foodImage.106	FOODEEG_Images\0914.jpg	NY	Right	Yes	0.712858999962918	0	551716	253
1078.271484375	0	decision	response	3	137	17	foodImage.106	FOODEEG_Images\0914.jpg	NY	Right	Yes	0.712858999962918	0	552076	235
1079.31640625	1	taste	trialStart	3	138	18	foodImage.23	FOODEEG_Images\0244.jpg	NY	Right	Yes	0.794854399980977	0	552611	251
1080.359375	2	taste	foodImageDisplay	3	138	18	foodImage.23	FOODEEG_Images\0244.jpg	NY	Right	Yes	0.794854399980977	0	553145	252
1082.421875	0.794854399980977	taste	choicePhaseStart	3	138	18	foodImage.23	FOODEEG_Images\0244.jpg	NY	Right	Yes	0.794854399980977	0	554201	253
1083.20703125	0	taste	response	3	138	18	foodImage.23	FOODEEG_Images\0244.jpg	NY	Right	Yes	0.794854399980977	0	554603	235
1084.25	1	health	trialStart	3	139	19	foodImage.60	FOODEEG_Images\0614.jpg	NY	Right	Yes	0.775044400012121	0	555137	251
1085.306640625	2	health	foodImageDisplay	3	139	19	foodImage.60	FOODEEG_Images\0614.jpg	NY	Right	Yes	0.775044400012121	0	555678	252
1087.369140625	0.775044400012121	health	choicePhaseStart	3	139	19	foodImage.60	FOODEEG_Images\0614.jpg	NY	Right	Yes	0.775044400012121	0	556734	253
1088.134765625	0	health	response	3	139	19	foodImage.60	FOODEEG_Images\0614.jpg	NY	Right	Yes	0.775044400012121	0	557126	235
1089.177734375	1	health	trialStart	3	140	20	foodImage.108	FOODEEG_Images\0916.jpg	YN	Left	Yes	1.38601169991307	0	557660	251
1090.216796875	2	health	foodImageDisplay	3	140	20	foodImage.108	FOODEEG_Images\0916.jpg	YN	Left	Yes	1.38601169991307	0	558192	252
1092.279296875	1.38601169991307	health	choicePhaseStart	3	140	20	foodImage.108	FOODEEG_Images\0916.jpg	YN	Left	Yes	1.38601169991307	0	559248	253
1093.65625	0	health	response	3	140	20	foodImage.108	FOODEEG_Images\0916.jpg	YN	Left	Yes	1.38601169991307	0	559953	234
1094.69921875	1	taste	trialStart	3	141	21	foodImage.29	FOODEEG_Images\0278.jpg	NY	Left	No	1.13171450002119	0	560487	251
1095.7421875	2	taste	foodImageDisplay	3	141	21	foodImage.29	FOODEEG_Images\0278.jpg	NY	Left	No	1.13171450002119	0	561021	252
1097.8046875	1.13171450002119	taste	choicePhaseStart	3	141	21	foodImage.29	FOODEEG_Images\0278.jpg	NY	Left	No	1.13171450002119	0	562077	253
1098.927734375	0	taste	response	3	141	21	foodImage.29	FOODEEG_Images\0278.jpg	NY	Left	No	1.13171450002119	0	562652	234
1099.970703125	1	decision	trialStart	3	142	22	foodImage.90	FOODEEG_Images\0890.jpg	YN	Left	Yes	0.724564600037411	0	563186	251
1101.029296875	2	decision	foodImageDisplay	3	142	22	foodImage.90	FOODEEG_Images\0890.jpg	YN	Left	Yes	0.724564600037411	0	563728	252
1103.091796875	0.724564600037411	decision	choicePhaseStart	3	142	22	foodImage.90	FOODEEG_Images\0890.jpg	YN	Left	Yes	0.724564600037411	0	564784	253
1103.806640625	0	decision	response	3	142	22	foodImage.90	FOODEEG_Images\0890.jpg	YN	Left	Yes	0.724564600037411	0	565150	234
1104.8515625	1	decision	trialStart	3	143	23	foodImage.30	FOODEEG_Images\0282.jpg	NY	Right	Yes	2.35332479991484	0	565685	251
1105.896484375	2	decision	foodImageDisplay	3	143	23	foodImage.30	FOODEEG_Images\0282.jpg	NY	Right	Yes	2.35332479991484	0	566220	252
1107.958984375	2.35332479991484	decision	choicePhaseStart	3	143	23	foodImage.30	FOODEEG_Images\0282.jpg	NY	Right	Yes	2.35332479991484	0	567276	253
1110.302734375	0	decision	response	3	143	23	foodImage.30	FOODEEG_Images\0282.jpg	NY	Right	Yes	2.35332479991484	0	568476	235
1111.34375	1	health	trialStart	3	144	24	foodImage.114	FOODEEG_Images\0922.jpg	YN	Right	No	1.05123520002235	0	569009	251
1112.3828125	2	health	foodImageDisplay	3	144	24	foodImage.114	FOODEEG_Images\0922.jpg	YN	Right	No	1.05123520002235	0	569541	252
1114.4453125	1.05123520002235	health	choicePhaseStart	3	144	24	foodImage.114	FOODEEG_Images\0922.jpg	YN	Right	No	1.05123520002235	0	570597	253
1115.486328125	0	health	response	3	144	24	foodImage.114	FOODEEG_Images\0922.jpg	YN	Right	No	1.05123520002235	0	571130	235
1116.53125	1	health	trialStart	3	145	25	foodImage.11	FOODEEG_Images\0180.jpg	YN	Left	Yes	2.36409970000386	0	571665	251
1117.572265625	2	health	foodImageDisplay	3	145	25	foodImage.11	FOODEEG_Images\0180.jpg	YN	Left	Yes	2.36409970000386	0	572198	252
1119.634765625	2.36409970000386	health	choicePhaseStart	3	145	25	foodImage.11	FOODEEG_Images\0180.jpg	YN	Left	Yes	2.36409970000386	0	573254	253
1121.990234375	0	health	response	3	145	25	foodImage.11	FOODEEG_Images\0180.jpg	YN	Left	Yes	2.36409970000386	0	574460	234
1123.033203125	1	taste	trialStart	3	146	26	foodImage.18	FOODEEG_Images\0202.jpg	YN	Left	Yes	2.35054690006655	0	574994	251
1124.08984375	2	taste	foodImageDisplay	3	146	26	foodImage.18	FOODEEG_Images\0202.jpg	YN	Left	Yes	2.35054690006655	0	575535	252
1126.15234375	2.35054690006655	taste	choicePhaseStart	3	146	26	foodImage.18	FOODEEG_Images\0202.jpg	YN	Left	Yes	2.35054690006655	0	576591	253
1128.494140625	0	taste	response	3	146	26	foodImage.18	FOODEEG_Images\0202.jpg	YN	Left	Yes	2.35054690006655	0	577790	234
1129.537109375	1	decision	trialStart	3	147	27	foodImage.88	FOODEEG_Images\0878.jpg	YN	Left	Yes	4.56852720002644	0	578324	251
1130.58984375	2	decision	foodImageDisplay	3	147	27	foodImage.88	FOODEEG_Images\0878.jpg	YN	Left	Yes	4.56852720002644	0	578863	252
1132.654296875	4.56852720002644	decision	choicePhaseStart	3	147	27	foodImage.88	FOODEEG_Images\0878.jpg	YN	Left	Yes	4.56852720002644	0	579920	253
1137.212890625	0	decision	response	3	147	27	foodImage.88	FOODEEG_Images\0878.jpg	YN	Left	Yes	4.56852720002644	0	582254	234
1138.2578125	1	decision	trialStart	3	148	28	foodImage.14	FOODEEG_Images\0188.jpg	NY	Left	No	0.565687599941157	0	582789	251
1139.314453125	2	decision	foodImageDisplay	3	148	28	foodImage.14	FOODEEG_Images\0188.jpg	NY	Left	No	0.565687599941157	0	583330	252
1141.376953125	0.565687599941157	decision	choicePhaseStart	3	148	28	foodImage.14	FOODEEG_Images\0188.jpg	NY	Left	No	0.565687599941157	0	584386	253
1141.93359375	0	decision	response	3	148	28	foodImage.14	FOODEEG_Images\0188.jpg	NY	Left	No	0.565687599941157	0	584671	234
1142.9765625	1	health	trialStart	3	149	29	foodImage.96	FOODEEG_Images\0904.jpg	YN	Right	No	1.51498790003825	0	585205	251
1144.029296875	2	health	foodImageDisplay	3	149	29	foodImage.96	FOODEEG_Images\0904.jpg	YN	Right	No	1.51498790003825	0	585744	252
1146.091796875	1.51498790003825	health	choicePhaseStart	3	149	29	foodImage.96	FOODEEG_Images\0904.jpg	YN	Right	No	1.51498790003825	0	586800	253
1147.59765625	0	health	response	3	149	29	foodImage.96	FOODEEG_Images\0904.jpg	YN	Right	No	1.51498790003825	0	587571	235
1148.640625	1	taste	trialStart	3	150	30	foodImage.72	FOODEEG_Images\0714.jpg	YN	Left	Yes	0.681339500006288	0	588105	251
1149.6875	2	taste	foodImageDisplay	3	150	30	foodImage.72	FOODEEG_Images\0714.jpg	YN	Left	Yes	0.681339500006288	0	588641	252
1151.75	0.681339500006288	taste	choicePhaseStart	3	150	30	foodImage.72	FOODEEG_Images\0714.jpg	YN	Left	Yes	0.681339500006288	0	589697	253
1152.421875	0	taste	response	3	150	30	foodImage.72	FOODEEG_Images\0714.jpg	YN	Left	Yes	0.681339500006288	0	590041	234
1153.462890625	1	health	trialStart	3	151	31	foodImage.61	FOODEEG_Images\0640.jpg	YN	Left	Yes	0.734984299982898	0	590574	251
1154.50390625	2	health	foodImageDisplay	3	151	31	foodImage.61	FOODEEG_Images\0640.jpg	YN	Left	Yes	0.734984299982898	0	591107	252
1156.56640625	0.734984299982898	health	choicePhaseStart	3	151	31	foodImage.61	FOODEEG_Images\0640.jpg	YN	Left	Yes	0.734984299982898	0	592163	253
1157.29296875	0	health	response	3	151	31	foodImage.61	FOODEEG_Images\0640.jpg	YN	Left	Yes	0.734984299982898	0	592535	234
1158.3359375	1	decision	trialStart	3	152	32	foodImage.6	FOODEEG_Images\0113.jpg	NY	Right	Yes	1.29696059995331	0	593069	251
1159.375	2	decision	foodImageDisplay	3	152	32	foodImage.6	FOODEEG_Images\0113.jpg	NY	Right	Yes	1.29696059995331	0	593601	252
1161.4375	1.29696059995331	decision	choicePhaseStart	3	152	32	foodImage.6	FOODEEG_Images\0113.jpg	NY	Right	Yes	1.29696059995331	0	594657	253
1162.724609375	0	decision	response	3	152	32	foodImage.6	FOODEEG_Images\0113.jpg	NY	Right	Yes	1.29696059995331	0	595316	235
1163.76953125	1	taste	trialStart	3	153	33	foodImage.30	FOODEEG_Images\0282.jpg	YN	Left	Yes	1.52394099999219	0	595851	251
1164.810546875	2	taste	foodImageDisplay	3	153	33	foodImage.30	FOODEEG_Images\0282.jpg	YN	Left	Yes	1.52394099999219	0	596384	252
1166.873046875	1.52394099999219	taste	choicePhaseStart	3	153	33	foodImage.30	FOODEEG_Images\0282.jpg	YN	Left	Yes	1.52394099999219	0	597440	253
1168.388671875	0	taste	response	3	153	33	foodImage.30	FOODEEG_Images\0282.jpg	YN	Left	Yes	1.52394099999219	0	598216	234
1169.431640625	1	decision	trialStart	3	154	34	foodImage.47	FOODEEG_Images\0488.jpg	NY	Right	Yes	0.997818800038658	0	598750	251
1170.47265625	2	decision	foodImageDisplay	3	154	34	foodImage.47	FOODEEG_Images\0488.jpg	NY	Right	Yes	0.997818800038658	0	599283	252
1172.53515625	0.997818800038658	decision	choicePhaseStart	3	154	34	foodImage.47	FOODEEG_Images\0488.jpg	NY	Right	Yes	0.997818800038658	0	600339	253
1173.5234375	0	decision	response	3	154	34	foodImage.47	FOODEEG_Images\0488.jpg	NY	Right	Yes	0.997818800038658	0	600845	235
1174.564453125	1	taste	trialStart	3	155	35	foodImage.2	FOODEEG_Images\0028.jpg	YN	Left	Yes	0.832443200051785	0	601378	251
1175.607421875	2	taste	foodImageDisplay	3	155	35	foodImage.2	FOODEEG_Images\0028.jpg	YN	Left	Yes	0.832443200051785	0	601912	252
1177.669921875	0.832443200051785	taste	choicePhaseStart	3	155	35	foodImage.2	FOODEEG_Images\0028.jpg	YN	Left	Yes	0.832443200051785	0	602968	253
1178.4921875	0	taste	response	3	155	35	foodImage.2	FOODEEG_Images\0028.jpg	YN	Left	Yes	0.832443200051785	0	603389	234
1179.53515625	1	taste	trialStart	3	156	36	foodImage.49	FOODEEG_Images\0515.jpg	YN	Left	Yes	1.53361539996695	0	603923	251
1180.576171875	2	taste	foodImageDisplay	3	156	36	foodImage.49	FOODEEG_Images\0515.jpg	YN	Left	Yes	1.53361539996695	0	604456	252
1182.638671875	1.53361539996695	taste	choicePhaseStart	3	156	36	foodImage.49	FOODEEG_Images\0515.jpg	YN	Left	Yes	1.53361539996695	0	605512	253
1184.1640625	0	taste	response	3	156	36	foodImage.49	FOODEEG_Images\0515.jpg	YN	Left	Yes	1.53361539996695	0	606293	234
1185.20703125	1	decision	trialStart	3	157	37	foodImage.71	FOODEEG_Images\0713.jpg	YN	Left	Yes	0.65171029989142	0	606827	251
1186.251953125	2	decision	foodImageDisplay	3	157	37	foodImage.71	FOODEEG_Images\0713.jpg	YN	Left	Yes	0.65171029989142	0	607362	252
1188.314453125	0.65171029989142	decision	choicePhaseStart	3	157	37	foodImage.71	FOODEEG_Images\0713.jpg	YN	Left	Yes	0.65171029989142	0	608418	253
1188.955078125	0	decision	response	3	157	37	foodImage.71	FOODEEG_Images\0713.jpg	YN	Left	Yes	0.65171029989142	0	608746	234
1189.998046875	1	decision	trialStart	3	158	38	foodImage.94	FOODEEG_Images\0902.jpg	NY	Right	Yes	2.37690470006783	0	609280	251
1191.037109375	2	decision	foodImageDisplay	3	158	38	foodImage.94	FOODEEG_Images\0902.jpg	NY	Right	Yes	2.37690470006783	0	609812	252
1193.099609375	2.37690470006783	decision	choicePhaseStart	3	158	38	foodImage.94	FOODEEG_Images\0902.jpg	NY	Right	Yes	2.37690470006783	0	610868	253
1195.466796875	0	decision	response	3	158	38	foodImage.94	FOODEEG_Images\0902.jpg	NY	Right	Yes	2.37690470006783	0	612080	235
1196.51171875	1	health	trialStart	3	159	39	foodImage.67	FOODEEG_Images\0679.jpg	YN	Right	No	2.3148825999815	0	612615	251
1197.5703125	2	health	foodImageDisplay	3	159	39	foodImage.67	FOODEEG_Images\0679.jpg	YN	Right	No	2.3148825999815	0	613157	252
1199.6328125	2.3148825999815	health	choicePhaseStart	3	159	39	foodImage.67	FOODEEG_Images\0679.jpg	YN	Right	No	2.3148825999815	0	614213	253
1201.939453125	0	health	response	3	159	39	foodImage.67	FOODEEG_Images\0679.jpg	YN	Right	No	2.3148825999815	0	615394	235
1202.982421875	1	decision	trialStart	3	160	40	foodImage.45	FOODEEG_Images\0478.jpg	YN	Left	Yes	0.697335299919359	0	615928	251
1204.029296875	2	decision	foodImageDisplay	3	160	40	foodImage.45	FOODEEG_Images\0478.jpg	YN	Left	Yes	0.697335299919359	0	616464	252
1206.08984375	0.697335299919359	decision	choicePhaseStart	3	160	40	foodImage.45	FOODEEG_Images\0478.jpg	YN	Left	Yes	0.697335299919359	0	617519	253
1206.779296875	0	decision	response	3	160	40	foodImage.45	FOODEEG_Images\0478.jpg	YN	Left	Yes	0.697335299919359	0	617872	234
1207.822265625	1	decision	trialStart	3	161	41	foodImage.49	FOODEEG_Images\0515.jpg	NY	Right	Yes	0.686032900004648	0	618406	251
1208.86328125	2	decision	foodImageDisplay	3	161	41	foodImage.49	FOODEEG_Images\0515.jpg	NY	Right	Yes	0.686032900004648	0	618939	252
1210.92578125	0.686032900004648	decision	choicePhaseStart	3	161	41	foodImage.49	FOODEEG_Images\0515.jpg	NY	Right	Yes	0.686032900004648	0	619995	253
1211.603515625	0	decision	response	3	161	41	foodImage.49	FOODEEG_Images\0515.jpg	NY	Right	Yes	0.686032900004648	0	620342	235
1212.64453125	1	taste	trialStart	3	162	42	foodImage.12	FOODEEG_Images\0181.jpg	YN	Left	Yes	0.547170900041237	0	620875	251
1213.69140625	2	taste	foodImageDisplay	3	162	42	foodImage.12	FOODEEG_Images\0181.jpg	YN	Left	Yes	0.547170900041237	0	621411	252
1215.751953125	0.547170900041237	taste	choicePhaseStart	3	162	42	foodImage.12	FOODEEG_Images\0181.jpg	YN	Left	Yes	0.547170900041237	0	622466	253
1216.291015625	0	taste	response	3	162	42	foodImage.12	FOODEEG_Images\0181.jpg	YN	Left	Yes	0.547170900041237	0	622742	234
1217.333984375	1	decision	trialStart	3	163	43	foodImage.46	FOODEEG_Images\0479.jpg	NY	Right	Yes	1.20367429999169	0	623276	251
1218.392578125	2	decision	foodImageDisplay	3	163	43	foodImage.46	FOODEEG_Images\0479.jpg	NY	Right	Yes	1.20367429999169	0	623818	252
1220.455078125	1.20367429999169	decision	choicePhaseStart	3	163	43	foodImage.46	FOODEEG_Images\0479.jpg	NY	Right	Yes	1.20367429999169	0	624874	253
1221.650390625	0	decision	response	3	163	43	foodImage.46	FOODEEG_Images\0479.jpg	NY	Right	Yes	1.20367429999169	0	625486	235
1222.693359375	1	taste	trialStart	3	164	44	foodImage.3	FOODEEG_Images\0046.jpg	NY	Right	Yes	0.663166500045918	0	626020	251
1223.736328125	2	taste	foodImageDisplay	3	164	44	foodImage.3	FOODEEG_Images\0046.jpg	NY	Right	Yes	0.663166500045918	0	626554	252
1225.802734375	0.663166500045918	taste	choicePhaseStart	3	164	44	foodImage.3	FOODEEG_Images\0046.jpg	NY	Right	Yes	0.663166500045918	0	627612	253
1226.458984375	0	taste	response	3	164	44	foodImage.3	FOODEEG_Images\0046.jpg	NY	Right	Yes	0.663166500045918	0	627948	235
1227.501953125	1	decision	trialStart	3	165	45	foodImage.120	FOODEEG_Images\0928.jpg	YN	Right	No	0.702575100003742	0	628482	251
1228.54296875	2	decision	foodImageDisplay	3	165	45	foodImage.120	FOODEEG_Images\0928.jpg	YN	Right	No	0.702575100003742	0	629015	252
1230.60546875	0.702575100003742	decision	choicePhaseStart	3	165	45	foodImage.120	FOODEEG_Images\0928.jpg	YN	Right	No	0.702575100003742	0	630071	253
1231.296875	0	decision	response	3	165	45	foodImage.120	FOODEEG_Images\0928.jpg	YN	Right	No	0.702575100003742	0	630425	235
1232.341796875	1	decision	trialStart	3	166	46	foodImage.28	FOODEEG_Images\0273.jpg	NY	Right	Yes	1.69071440002881	0	630960	251
1233.384765625	2	decision	foodImageDisplay	3	166	46	foodImage.28	FOODEEG_Images\0273.jpg	NY	Right	Yes	1.69071440002881	0	631494	252
1235.447265625	1.69071440002881	decision	choicePhaseStart	3	166	46	foodImage.28	FOODEEG_Images\0273.jpg	NY	Right	Yes	1.69071440002881	0	632550	253
1237.12890625	0	decision	response	3	166	46	foodImage.28	FOODEEG_Images\0273.jpg	NY	Right	Yes	1.69071440002881	0	633411	235
1238.171875	1	decision	trialStart	3	167	47	foodImage.64	FOODEEG_Images\0647.jpg	YN	Left	Yes	0.668995499960147	0	633945	251
1239.232421875	2	decision	foodImageDisplay	3	167	47	foodImage.64	FOODEEG_Images\0647.jpg	YN	Left	Yes	0.668995499960147	0	634488	252
1241.294921875	0.668995499960147	decision	choicePhaseStart	3	167	47	foodImage.64	FOODEEG_Images\0647.jpg	YN	Left	Yes	0.668995499960147	0	635544	253
1241.953125	0	decision	response	3	167	47	foodImage.64	FOODEEG_Images\0647.jpg	YN	Left	Yes	0.668995499960147	0	635881	234
1242.998046875	1	health	trialStart	3	168	48	foodImage.3	FOODEEG_Images\0046.jpg	NY	Left	No	1.94542310002726	0	636416	251
1244.041015625	2	health	foodImageDisplay	3	168	48	foodImage.3	FOODEEG_Images\0046.jpg	NY	Left	No	1.94542310002726	0	636950	252
1246.103515625	1.94542310002726	health	choicePhaseStart	3	168	48	foodImage.3	FOODEEG_Images\0046.jpg	NY	Left	No	1.94542310002726	0	638006	253
1248.041015625	0	health	response	3	168	48	foodImage.3	FOODEEG_Images\0046.jpg	NY	Left	No	1.94542310002726	0	638998	234
1249.083984375	1	health	trialStart	3	169	49	foodImage.113	FOODEEG_Images\0921.jpg	YN	Right	No	0.903798699961044	0	639532	251
1250.138671875	2	health	foodImageDisplay	3	169	49	foodImage.113	FOODEEG_Images\0921.jpg	YN	Right	No	0.903798699961044	0	640072	252
1252.201171875	0.903798699961044	health	choicePhaseStart	3	169	49	foodImage.113	FOODEEG_Images\0921.jpg	YN	Right	No	0.903798699961044	0	641128	253
1253.09765625	0	health	response	3	169	49	foodImage.113	FOODEEG_Images\0921.jpg	YN	Right	No	0.903798699961044	0	641587	235
1254.140625	1	decision	trialStart	3	170	50	foodImage.62	FOODEEG_Images\0644.jpg	NY	Right	Yes	2.27443669992499	0	642121	251
1255.193359375	2	decision	foodImageDisplay	3	170	50	foodImage.62	FOODEEG_Images\0644.jpg	NY	Right	Yes	2.27443669992499	0	642660	252
1257.255859375	2.27443669992499	decision	choicePhaseStart	3	170	50	foodImage.62	FOODEEG_Images\0644.jpg	NY	Right	Yes	2.27443669992499	0	643716	253
1259.521484375	0	decision	response	3	170	50	foodImage.62	FOODEEG_Images\0644.jpg	NY	Right	Yes	2.27443669992499	0	644876	235
1260.564453125	1	health	trialStart	3	171	51	foodImage.101	FOODEEG_Images\0909.jpg	NY	Left	No	0.79889579990413	0	645410	251
1261.603515625	2	health	foodImageDisplay	3	171	51	foodImage.101	FOODEEG_Images\0909.jpg	NY	Left	No	0.79889579990413	0	645942	252
1263.666015625	0.79889579990413	health	choicePhaseStart	3	171	51	foodImage.101	FOODEEG_Images\0909.jpg	NY	Left	No	0.79889579990413	0	646998	253
1264.45703125	0	health	response	3	171	51	foodImage.101	FOODEEG_Images\0909.jpg	NY	Left	No	0.79889579990413	0	647403	234
1265.5	1	taste	trialStart	3	172	52	foodImage.14	FOODEEG_Images\0188.jpg	YN	Left	Yes	0.668171500088647	0	647937	251
1266.56640625	2	taste	foodImageDisplay	3	172	52	foodImage.14	FOODEEG_Images\0188.jpg	YN	Left	Yes	0.668171500088647	0	648483	252
1268.62890625	0.668171500088647	taste	choicePhaseStart	3	172	52	foodImage.14	FOODEEG_Images\0188.jpg	YN	Left	Yes	0.668171500088647	0	649539	253
1269.2890625	0	taste	response	3	172	52	foodImage.14	FOODEEG_Images\0188.jpg	YN	Left	Yes	0.668171500088647	0	649877	234
1270.33203125	1	taste	trialStart	3	173	53	foodImage.25	FOODEEG_Images\0261.jpg	NY	Right	Yes	0.653003899962641	0	650411	251
1271.373046875	2	taste	foodImageDisplay	3	173	53	foodImage.25	FOODEEG_Images\0261.jpg	NY	Right	Yes	0.653003899962641	0	650944	252
1273.435546875	0.653003899962641	taste	choicePhaseStart	3	173	53	foodImage.25	FOODEEG_Images\0261.jpg	NY	Right	Yes	0.653003899962641	0	652000	253
1274.080078125	0	taste	response	3	173	53	foodImage.25	FOODEEG_Images\0261.jpg	NY	Right	Yes	0.653003899962641	0	652330	235
1275.123046875	1	taste	trialStart	3	174	54	foodImage.48	FOODEEG_Images\0494.jpg	NY	Right	Yes	0.824106400017627	0	652864	251
1276.162109375	2	taste	foodImageDisplay	3	174	54	foodImage.48	FOODEEG_Images\0494.jpg	NY	Right	Yes	0.824106400017627	0	653396	252
1278.224609375	0.824106400017627	taste	choicePhaseStart	3	174	54	foodImage.48	FOODEEG_Images\0494.jpg	NY	Right	Yes	0.824106400017627	0	654452	253
1279.041015625	0	taste	response	3	174	54	foodImage.48	FOODEEG_Images\0494.jpg	NY	Right	Yes	0.824106400017627	0	654870	235
1280.083984375	1	health	trialStart	3	175	55	foodImage.110	FOODEEG_Images\0918.jpg	YN	Right	No	1.00846549996641	0	655404	251
1281.123046875	2	health	foodImageDisplay	3	175	55	foodImage.110	FOODEEG_Images\0918.jpg	YN	Right	No	1.00846549996641	0	655936	252
1283.18359375	1.00846549996641	health	choicePhaseStart	3	175	55	foodImage.110	FOODEEG_Images\0918.jpg	YN	Right	No	1.00846549996641	0	656991	253
1284.18359375	0	health	response	3	175	55	foodImage.110	FOODEEG_Images\0918.jpg	YN	Right	No	1.00846549996641	0	657503	235
1285.2265625	1	decision	trialStart	3	176	56	foodImage.111	FOODEEG_Images\0919.jpg	YN	Right	No	0.817611900041811	0	658037	251
1286.265625	2	decision	foodImageDisplay	3	176	56	foodImage.111	FOODEEG_Images\0919.jpg	YN	Right	No	0.817611900041811	0	658569	252
1288.328125	0.817611900041811	decision	choicePhaseStart	3	176	56	foodImage.111	FOODEEG_Images\0919.jpg	YN	Right	No	0.817611900041811	0	659625	253
1289.134765625	0	decision	response	3	176	56	foodImage.111	FOODEEG_Images\0919.jpg	YN	Right	No	0.817611900041811	0	660038	235
1290.1796875	1	decision	trialStart	3	177	57	foodImage.83	FOODEEG_Images\0827.jpg	YN	Left	Yes	0.628542399965227	0	660573	251
1291.236328125	2	decision	foodImageDisplay	3	177	57	foodImage.83	FOODEEG_Images\0827.jpg	YN	Left	Yes	0.628542399965227	0	661114	252
1293.298828125	0.628542399965227	decision	choicePhaseStart	3	177	57	foodImage.83	FOODEEG_Images\0827.jpg	YN	Left	Yes	0.628542399965227	0	662170	253
1293.919921875	0	decision	response	3	177	57	foodImage.83	FOODEEG_Images\0827.jpg	YN	Left	Yes	0.628542399965227	0	662488	234
1294.962890625	1	health	trialStart	3	178	58	foodImage.85	FOODEEG_Images\0841.jpg	YN	Right	No	1.24222100002225	0	663022	251
1296.021484375	2	health	foodImageDisplay	3	178	58	foodImage.85	FOODEEG_Images\0841.jpg	YN	Right	No	1.24222100002225	0	663564	252
1298.0859375	1.24222100002225	health	choicePhaseStart	3	178	58	foodImage.85	FOODEEG_Images\0841.jpg	YN	Right	No	1.24222100002225	0	664621	253
1299.318359375	0	health	response	3	178	58	foodImage.85	FOODEEG_Images\0841.jpg	YN	Right	No	1.24222100002225	0	665252	235
1300.36328125	1	decision	trialStart	3	179	59	foodImage.36	FOODEEG_Images\0352.jpg	NY	Right	Yes	1.52614640002139	0	665787	251
1301.41796875	2	decision	foodImageDisplay	3	179	59	foodImage.36	FOODEEG_Images\0352.jpg	NY	Right	Yes	1.52614640002139	0	666327	252
1303.482421875	1.52614640002139	decision	choicePhaseStart	3	179	59	foodImage.36	FOODEEG_Images\0352.jpg	NY	Right	Yes	1.52614640002139	0	667384	253
1305	0	decision	response	3	179	59	foodImage.36	FOODEEG_Images\0352.jpg	NY	Right	Yes	1.52614640002139	0	668161	235
1306.04296875	1	taste	trialStart	3	180	60	foodImage.87	FOODEEG_Images\0873.jpg	YN	Left	Yes	1.31061379995663	0	668695	251
1307.09765625	2	taste	foodImageDisplay	3	180	60	foodImage.87	FOODEEG_Images\0873.jpg	YN	Left	Yes	1.31061379995663	0	669235	252
1309.16015625	1.31061379995663	taste	choicePhaseStart	3	180	60	foodImage.87	FOODEEG_Images\0873.jpg	YN	Left	Yes	1.31061379995663	0	670291	253
1310.462890625	0	taste	response	3	180	60	foodImage.87	FOODEEG_Images\0873.jpg	YN	Left	Yes	1.31061379995663	0	670958	234
1312.505859375	27.798828125	n/a	blockEnd	n/a	n/a	n/a	n/a	n/a	n/a	n/a	n/a	n/a	n/a	672004	254
1340.3046875	2	n/a	blockStart	4	n/a	n/a	n/a	n/a	n/a	n/a	n/a	n/a	n/a	686237	250
1342.337890625	1	decision	trialStart	4	181	1	foodImage.93	FOODEEG_Images\0901.jpg	YN	Right	No	0.892809699987993	0	687278	251
1343.37890625	2	decision	foodImageDisplay	4	181	1	foodImage.93	FOODEEG_Images\0901.jpg	YN	Right	No	0.892809699987993	0	687811	252
1345.44140625	0.892809699987993	decision	choicePhaseStart	4	181	1	foodImage.93	FOODEEG_Images\0901.jpg	YN	Right	No	0.892809699987993	0	688867	253
1346.326171875	0	decision	response	4	181	1	foodImage.93	FOODEEG_Images\0901.jpg	YN	Right	No	0.892809699987993	0	689320	235
1347.369140625	1	taste	trialStart	4	182	2	foodImage.37	FOODEEG_Images\0359.jpg	NY	Right	Yes	0.972858399967663	0	689854	251
1348.412109375	2	taste	foodImageDisplay	4	182	2	foodImage.37	FOODEEG_Images\0359.jpg	NY	Right	Yes	0.972858399967663	0	690388	252
1350.47265625	0.972858399967663	taste	choicePhaseStart	4	182	2	foodImage.37	FOODEEG_Images\0359.jpg	NY	Right	Yes	0.972858399967663	0	691443	253
1351.4375	0	taste	response	4	182	2	foodImage.37	FOODEEG_Images\0359.jpg	NY	Right	Yes	0.972858399967663	0	691937	235
1352.48046875	1	health	trialStart	4	183	3	foodImage.120	FOODEEG_Images\0928.jpg	YN	Right	No	0.713330500060692	0	692471	251
1353.517578125	2	health	foodImageDisplay	4	183	3	foodImage.120	FOODEEG_Images\0928.jpg	YN	Right	No	0.713330500060692	0	693002	252
1355.580078125	0.713330500060692	health	choicePhaseStart	4	183	3	foodImage.120	FOODEEG_Images\0928.jpg	YN	Right	No	0.713330500060692	0	694058	253
1356.28515625	0	health	response	4	183	3	foodImage.120	FOODEEG_Images\0928.jpg	YN	Right	No	0.713330500060692	0	694419	235
1357.33203125	1	decision	trialStart	4	184	4	foodImage.10	FOODEEG_Images\0145.jpg	NY	Right	Yes	2.02593350003008	0	694955	251
1358.388671875	2	decision	foodImageDisplay	4	184	4	foodImage.10	FOODEEG_Images\0145.jpg	NY	Right	Yes	2.02593350003008	0	695496	252
1360.451171875	2.02593350003008	decision	choicePhaseStart	4	184	4	foodImage.10	FOODEEG_Images\0145.jpg	NY	Right	Yes	2.02593350003008	0	696552	253
1362.46875	0	decision	response	4	184	4	foodImage.10	FOODEEG_Images\0145.jpg	NY	Right	Yes	2.02593350003008	0	697585	235
1363.51171875	1	health	trialStart	4	185	5	foodImage.116	FOODEEG_Images\0924.jpg	YN	Right	No	1.12067599990405	0	698119	251
1364.55078125	2	health	foodImageDisplay	4	185	5	foodImage.116	FOODEEG_Images\0924.jpg	YN	Right	No	1.12067599990405	0	698651	252
1366.61328125	1.12067599990405	health	choicePhaseStart	4	185	5	foodImage.116	FOODEEG_Images\0924.jpg	YN	Right	No	1.12067599990405	0	699707	253
1367.724609375	0	health	response	4	185	5	foodImage.116	FOODEEG_Images\0924.jpg	YN	Right	No	1.12067599990405	0	700276	235
1368.767578125	1	decision	trialStart	4	186	6	foodImage.2	FOODEEG_Images\0028.jpg	YN	Left	Yes	1.42199999990407	0	700810	251
1369.80859375	2	decision	foodImageDisplay	4	186	6	foodImage.2	FOODEEG_Images\0028.jpg	YN	Left	Yes	1.42199999990407	0	701343	252
1371.87109375	1.42199999990407	decision	choicePhaseStart	4	186	6	foodImage.2	FOODEEG_Images\0028.jpg	YN	Left	Yes	1.42199999990407	0	702399	253
1373.28515625	0	decision	response	4	186	6	foodImage.2	FOODEEG_Images\0028.jpg	YN	Left	Yes	1.42199999990407	0	703123	234
1374.328125	1	decision	trialStart	4	187	7	foodImage.20	FOODEEG_Images\0226.jpg	YN	Left	Yes	1.75681490008719	0	703657	251
1375.369140625	2	decision	foodImageDisplay	4	187	7	foodImage.20	FOODEEG_Images\0226.jpg	YN	Left	Yes	1.75681490008719	0	704190	252
1377.431640625	1.75681490008719	decision	choicePhaseStart	4	187	7	foodImage.20	FOODEEG_Images\0226.jpg	YN	Left	Yes	1.75681490008719	0	705246	253
1379.1796875	0	decision	response	4	187	7	foodImage.20	FOODEEG_Images\0226.jpg	YN	Left	Yes	1.75681490008719	0	706141	234
1380.22265625	1	decision	trialStart	4	188	8	foodImage.66	FOODEEG_Images\0676.jpg	YN	Left	Yes	0.759324999991804	0	706675	251
1381.263671875	2	decision	foodImageDisplay	4	188	8	foodImage.66	FOODEEG_Images\0676.jpg	YN	Left	Yes	0.759324999991804	0	707208	252
1383.326171875	0.759324999991804	decision	choicePhaseStart	4	188	8	foodImage.66	FOODEEG_Images\0676.jpg	YN	Left	Yes	0.759324999991804	0	708264	253
1384.076171875	0	decision	response	4	188	8	foodImage.66	FOODEEG_Images\0676.jpg	YN	Left	Yes	0.759324999991804	0	708648	234
1385.123046875	1	taste	trialStart	4	189	9	foodImage.99	FOODEEG_Images\0907.jpg	YN	Right	No	0.854852400021628	0	709184	251
1386.16015625	2	taste	foodImageDisplay	4	189	9	foodImage.99	FOODEEG_Images\0907.jpg	YN	Right	No	0.854852400021628	0	709715	252
1388.22265625	0.854852400021628	taste	choicePhaseStart	4	189	9	foodImage.99	FOODEEG_Images\0907.jpg	YN	Right	No	0.854852400021628	0	710771	253
1389.068359375	0	taste	response	4	189	9	foodImage.99	FOODEEG_Images\0907.jpg	YN	Right	No	0.854852400021628	0	711204	235
1390.111328125	1	health	trialStart	4	190	10	foodImage.42	FOODEEG_Images\0438.jpg	YN	Left	Yes	4.09366350003984	0	711738	251
1391.19921875	2	health	foodImageDisplay	4	190	10	foodImage.42	FOODEEG_Images\0438.jpg	YN	Left	Yes	4.09366350003984	0	712295	252
1393.26171875	4.09366350003984	health	choicePhaseStart	4	190	10	foodImage.42	FOODEEG_Images\0438.jpg	YN	Left	Yes	4.09366350003984	0	713351	253
1397.34765625	0	health	response	4	190	10	foodImage.42	FOODEEG_Images\0438.jpg	YN	Left	Yes	4.09366350003984	0	715443	234
1398.392578125	1	health	trialStart	4	191	11	foodImage.34	FOODEEG_Images\0339.jpg	YN	Right	No	0.951818100060336	0	715978	251
1399.447265625	2	health	foodImageDisplay	4	191	11	foodImage.34	FOODEEG_Images\0339.jpg	YN	Right	No	0.951818100060336	0	716518	252
1401.509765625	0.951818100060336	health	choicePhaseStart	4	191	11	foodImage.34	FOODEEG_Images\0339.jpg	YN	Right	No	0.951818100060336	0	717574	253
1402.451171875	0	health	response	4	191	11	foodImage.34	FOODEEG_Images\0339.jpg	YN	Right	No	0.951818100060336	0	718056	235
1403.494140625	1	decision	trialStart	4	192	12	foodImage.7	FOODEEG_Images\0116.jpg	YN	Left	Yes	0.720126500003971	0	718590	251
1404.533203125	2	decision	foodImageDisplay	4	192	12	foodImage.7	FOODEEG_Images\0116.jpg	YN	Left	Yes	0.720126500003971	0	719122	252
1406.595703125	0.720126500003971	decision	choicePhaseStart	4	192	12	foodImage.7	FOODEEG_Images\0116.jpg	YN	Left	Yes	0.720126500003971	0	720178	253
1407.306640625	0	decision	response	4	192	12	foodImage.7	FOODEEG_Images\0116.jpg	YN	Left	Yes	0.720126500003971	0	720542	234
1408.349609375	1	taste	trialStart	4	193	13	foodImage.82	FOODEEG_Images\0805.jpg	YN	Left	Yes	0.934191799955443	0	721076	251
1409.408203125	2	taste	foodImageDisplay	4	193	13	foodImage.82	FOODEEG_Images\0805.jpg	YN	Left	Yes	0.934191799955443	0	721618	252
1411.46875	0.934191799955443	taste	choicePhaseStart	4	193	13	foodImage.82	FOODEEG_Images\0805.jpg	YN	Left	Yes	0.934191799955443	0	722673	253
1412.39453125	0	taste	response	4	193	13	foodImage.82	FOODEEG_Images\0805.jpg	YN	Left	Yes	0.934191799955443	0	723147	234
1413.4375	1	health	trialStart	4	194	14	foodImage.99	FOODEEG_Images\0907.jpg	YN	Right	No	1.14494379993994	0	723681	251
1414.474609375	2	health	foodImageDisplay	4	194	14	foodImage.99	FOODEEG_Images\0907.jpg	YN	Right	No	1.14494379993994	0	724212	252
1416.5390625	1.14494379993994	health	choicePhaseStart	4	194	14	foodImage.99	FOODEEG_Images\0907.jpg	YN	Right	No	1.14494379993994	0	725269	253
