onset	duration	trial_type	event_type	block	trial_total	trial_in_block	food_image_code	food_image_path	button_position	resp_position	resp_choice	choice_rt	resp_too_slow	sample	trigger
245.947265625	2	n/a	blockStart	1	n/a	n/a	n/a	n/a	n/a	n/a	n/a	n/a	n/a	125926	250
247.986328125	1	taste	trialStart	1	1	1	foodImage.68	FOODEEG_Images\0685.jpg	YN	Left	Yes	0.606332499999553	0	126970	251
249.06640625	2	taste	foodImageDisplay	1	1	1	foodImage.68	FOODEEG_Images\0685.jpg	YN	Left	Yes	0.606332499999553	0	127523	252
251.1328125	0.606332499999553	taste	choicePhaseStart	1	1	1	foodImage.68	FOODEEG_Images\0685.jpg	YN	Left	Yes	0.606332499999553	0	128581	253
251.732421875	0	taste	response	1	1	1	foodImage.68	FOODEEG_Images\0685.jpg	YN	Left	Yes	0.606332499999553	0	128888	234
252.82421875	1	health	trialStart	1	2	2	foodImage.83	FOODEEG_Images\0827.jpg	YN	Left	Yes	0.602361400029622	0	129447	251
253.880859375	2	health	foodImageDisplay	1	2	2	foodImage.83	FOODEEG_Images\0827.jpg	YN	Left	Yes	0.602361400029622	0	129988	252
255.943359375	0.602361400029622	health	choicePhaseStart	1	2	2	foodImage.83	FOODEEG_Images\0827.jpg	YN	Left	Yes	0.602361400029622	0	131044	253
256.5390625	0	health	response	1	2	2	foodImage.83	FOODEEG_Images\0827.jpg	YN	Left	Yes	0.602361400029622	0	131349	234
257.595703125	1	taste	trialStart	1	3	3	foodImage.50	FOODEEG_Images\0529.jpg	YN	Left	Yes	0.68290379998507	0	131890	251
258.6640625	2	taste	foodImageDisplay	1	3	3	foodImage.50	FOODEEG_Images\0529.jpg	YN	Left	Yes	0.68290379998507	0	132437	252
260.7265625	0.68290379998507	taste	choicePhaseStart	1	3	3	foodImage.50	FOODEEG_Images\0529.jpg	YN	Left	Yes	0.68290379998507	0	133493	253
261.40234375	0	taste	response	1	3	3	foodImage.50	FOODEEG_Images\0529.jpg	YN	Left	Yes	0.68290379998507	0	133839	234
262.4453125	1	taste	trialStart	1	4	4	foodImage.72	FOODEEG_Images\0714.jpg	NY	Left	No	0.869116699963342	0	134373	251
263.486328125	2	taste	foodImageDisplay	1	4	4	foodImage.72	FOODEEG_Images\0714.jpg	NY	Left	No	0.869116699963342	0	134906	252
265.55078125	0.869116699963342	taste	choicePhaseStart	1	4	4	foodImage.72	FOODEEG_Images\0714.jpg	NY	Left	No	0.869116699963342	0	135963	253
266.41015625	0	taste	response	1	4	4	foodImage.72	FOODEEG_Images\0714.jpg	NY	Left	No	0.869116699963342	0	136403	234
267.453125	1	taste	trialStart	1	5	5	foodImage.25	FOODEEG_Images\0261.jpg	NY	Right	Yes	0.633087599999271	0	136937	251
268.498046875	2	taste	foodImageDisplay	1	5	5	foodImage.25	FOODEEG_Images\0261.jpg	NY	Right	Yes	0.633087599999271	0	137472	252
270.5625	0.633087599999271	taste	choicePhaseStart	1	5	5	foodImage.25	FOODEEG_Images\0261.jpg	NY	Right	Yes	0.633087599999271	0	138529	253
271.1875	0	taste	response	1	5	5	foodImage.25	FOODEEG_Images\0261.jpg	NY	Right	Yes	0.633087599999271	0	138849	235
272.236328125	1	health	trialStart	1	6	6	foodImage.27	FOODEEG_Images\0263.jpg	YN	Left	Yes	0.538601900043432	0	139386	251
273.279296875	2	health	foodImageDisplay	1	6	6	foodImage.27	FOODEEG_Images\0263.jpg	YN	Left	Yes	0.538601900043432	0	139920	252
275.34375	0.538601900043432	health	choicePhaseStart	1	6	6	foodImage.27	FOODEEG_Images\0263.jpg	YN	Left	Yes	0.538601900043432	0	140977	253
275.875	0	health	response	1	6	6	foodImage.27	FOODEEG_Images\0263.jpg	YN	Left	Yes	0.538601900043432	0	141249	234
276.919921875	1	health	trialStart	1	7	7	foodImage.89	FOODEEG_Images\0881.jpg	YN	Left	Yes	0.692676500009838	0	141784	251
277.99609375	2	health	foodImageDisplay	1	7	7	foodImage.89	FOODEEG_Images\0881.jpg	YN	Left	Yes	0.692676500009838	0	142335	252
280.060546875	0.692676500009838	health	choicePhaseStart	1	7	7	foodImage.89	FOODEEG_Images\0881.jpg	YN	Left	Yes	0.692676500009838	0	143392	253
280.74609375	0	health	response	1	7	7	foodImage.89	FOODEEG_Images\0881.jpg	YN	Left	Yes	0.692676500009838	0	143743	234
281.7890625	1	taste	trialStart	1	8	8	foodImage.111	FOODEEG_Images\0919.jpg	NY	Left	No	1.01600830000825	0	144277	251
282.826171875	2	taste	foodImageDisplay	1	8	8	foodImage.111	FOODEEG_Images\0919.jpg	NY	Left	No	1.01600830000825	0	144808	252
284.890625	1.01600830000825	taste	choicePhaseStart	1	8	8	foodImage.111	FOODEEG_Images\0919.jpg	NY	Left	No	1.01600830000825	0	145865	253
285.8984375	0	taste	response	1	8	8	foodImage.111	FOODEEG_Images\0919.jpg	NY	Left	No	1.01600830000825	0	146381	234
286.9453125	1	taste	trialStart	1	9	9	foodImage.120	FOODEEG_Images\0928.jpg	YN	Right	No	0.828131199989002	0	146917	251
287.982421875	2	taste	foodImageDisplay	1	9	9	foodImage.120	FOODEEG_Images\0928.jpg	YN	Right	No	0.828131199989002	0	147448	252
290.046875	0.828131199989002	taste	choicePhaseStart	1	9	9	foodImage.120	FOODEEG_Images\0928.jpg	YN	Right	No	0.828131199989002	0	148505	253
290.865234375	0	taste	response	1	9	9	foodImage.120	FOODEEG_Images\0928.jpg	YN	Right	No	0.828131199989002	0	148924	235
291.90625	1	health	trialStart	1	10	10	foodImage.87	FOODEEG_Images\0873.jpg	NY	Right	Yes	0.593963099992834	0	149457	251
292.978515625	2	health	foodImageDisplay	1	10	10	foodImage.87	FOODEEG_Images\0873.jpg	NY	Right	Yes	0.593963099992834	0	150006	252
295.041015625	0.593963099992834	health	choicePhaseStart	1	10	10	foodImage.87	FOODEEG_Images\0873.jpg	NY	Right	Yes	0.593963099992834	0	151062	253
295.625	0	health	response	1	10	10	foodImage.87	FOODEEG_Images\0873.jpg	NY	Right	Yes	0.593963099992834	0	151361	235
296.673828125	1	decision	trialStart	1	11	11	foodImage.7	FOODEEG_Images\0116.jpg	YN	Left	Yes	0.679872400010936	0	151898	251
297.71484375	2	decision	foodImageDisplay	1	11	11	foodImage.7	FOODEEG_Images\0116.jpg	YN	Left	Yes	0.679872400010936	0	152431	252
299.77734375	0.679872400010936	decision	choicePhaseStart	1	11	11	foodImage.7	FOODEEG_Images\0116.jpg	YN	Left	Yes	0.679872400010936	0	153487	253
300.44921875	0	decision	response	1	11	11	foodImage.7	FOODEEG_Images\0116.jpg	YN	Left	Yes	0.679872400010936	0	153831	234
301.490234375	1	health	trialStart	1	12	12	foodImage.108	FOODEEG_Images\0916.jpg	NY	Left	No	1.17479570000432	0	154364	251
302.529296875	2	health	foodImageDisplay	1	12	12	foodImage.108	FOODEEG_Images\0916.jpg	NY	Left	No	1.17479570000432	0	154896	252
304.59375	1.17479570000432	health	choicePhaseStart	1	12	12	foodImage.108	FOODEEG_Images\0916.jpg	NY	Left	No	1.17479570000432	0	155953	253
305.76171875	0	health	response	1	12	12	foodImage.108	FOODEEG_Images\0916.jpg	NY	Left	No	1.17479570000432	0	156551	234
306.8046875	1	taste	trialStart	1	13	13	foodImage.5	FOODEEG_Images\0107.jpg	NY	Right	Yes	1.43829060002463	0	157085	251
307.861328125	2	taste	foodImageDisplay	1	13	13	foodImage.5	FOODEEG_Images\0107.jpg	NY	Right	Yes	1.43829060002463	0	157626	252
309.923828125	1.43829060002463	taste	choicePhaseStart	1	13	13	foodImage.5	FOODEEG_Images\0107.jpg	NY	Right	Yes	1.43829060002463	0	158682	253
311.353515625	0	taste	response	1	13	13	foodImage.5	FOODEEG_Images\0107.jpg	NY	Right	Yes	1.43829060002463	0	159414	235
312.39453125	1	decision	trialStart	1	14	14	foodImage.67	FOODEEG_Images\0679.jpg	NY	Right	Yes	0.734039800008759	0	159947	251
313.4609375	2	decision	foodImageDisplay	1	14	14	foodImage.67	FOODEEG_Images\0679.jpg	NY	Right	Yes	0.734039800008759	0	160493	252
315.5234375	0.734039800008759	decision	choicePhaseStart	1	14	14	foodImage.67	FOODEEG_Images\0679.jpg	NY	Right	Yes	0.734039800008759	0	161549	253
316.25	0	decision	response	1	14	14	foodImage.67	FOODEEG_Images\0679.jpg	NY	Right	Yes	0.734039800008759	0	161921	235
317.291015625	1	health	trialStart	1	15	15	foodImage.71	FOODEEG_Images\0713.jpg	NY	Left	No	1.42507370002568	0	162454	251
318.3359375	2	health	foodImageDisplay	1	15	15	foodImage.71	FOODEEG_Images\0713.jpg	NY	Left	No	1.42507370002568	0	162989	252
320.3984375	1.42507370002568	health	choicePhaseStart	1	15	15	foodImage.71	FOODEEG_Images\0713.jpg	NY	Left	No	1.42507370002568	0	164045	253
321.81640625	0	health	response	1	15	15	foodImage.71	FOODEEG_Images\0713.jpg	NY	Left	No	1.42507370002568	0	164771	234
322.859375	1	health	trialStart	1	16	16	foodImage.54	FOODEEG_Images\0560.jpg	YN	Left	Yes	0.728095200029202	0	165305	251
323.9140625	2	health	foodImageDisplay	1	16	16	foodImage.54	FOODEEG_Images\0560.jpg	YN	Left	Yes	0.728095200029202	0	165845	252
325.9765625	0.728095200029202	health	choicePhaseStart	1	16	16	foodImage.54	FOODEEG_Images\0560.jpg	YN	Left	Yes	0.728095200029202	0	166901	253
326.6953125	0	health	response	1	16	16	foodImage.54	FOODEEG_Images\0560.jpg	YN	Left	Yes	0.728095200029202	0	167269	234
327.740234375	1	decision	trialStart	1	17	17	foodImage.75	FOODEEG_Images\0763.jpg	YN	Left	Yes	1.60781549999956	0	167804	251
328.783203125	2	decision	foodImageDisplay	1	17	17	foodImage.75	FOODEEG_Images\0763.jpg	YN	Left	Yes	1.60781549999956	0	168338	252
330.84765625	1.60781549999956	decision	choicePhaseStart	1	17	17	foodImage.75	FOODEEG_Images\0763.jpg	YN	Left	Yes	1.60781549999956	0	169395	253
332.447265625	0	decision	response	1	17	17	foodImage.75	FOODEEG_Images\0763.jpg	YN	Left	Yes	1.60781549999956	0	170214	234
333.48828125	1	health	trialStart	1	18	18	foodImage.82	FOODEEG_Images\0805.jpg	NY	Right	Yes	1.0510361000197	0	170747	251
334.54296875	2	health	foodImageDisplay	1	18	18	foodImage.82	FOODEEG_Images\0805.jpg	NY	Right	Yes	1.0510361000197	0	171287	252
336.60546875	1.0510361000197	health	choicePhaseStart	1	18	18	foodImage.82	FOODEEG_Images\0805.jpg	NY	Right	Yes	1.0510361000197	0	172343	253
337.6484375	0	health	response	1	18	18	foodImage.82	FOODEEG_Images\0805.jpg	NY	Right	Yes	1.0510361000197	0	172877	235
338.69140625	1	health	trialStart	1	19	19	foodImage.86	FOODEEG_Images\0844.jpg	YN	Right	No	1.00595700001577	0	173411	251
339.748046875	2	health	foodImageDisplay	1	19	19	foodImage.86	FOODEEG_Images\0844.jpg	YN	Right	No	1.00595700001577	0	173952	252
341.810546875	1.00595700001577	health	choicePhaseStart	1	19	19	foodImage.86	FOODEEG_Images\0844.jpg	YN	Right	No	1.00595700001577	0	175008	253
342.806640625	0	health	response	1	19	19	foodImage.86	FOODEEG_Images\0844.jpg	YN	Right	No	1.00595700001577	0	175518	235
343.86328125	1	decision	trialStart	1	20	20	foodImage.96	FOODEEG_Images\0904.jpg	NY	Left	No	0.796032999991439	0	176059	251
344.908203125	2	decision	foodImageDisplay	1	20	20	foodImage.96	FOODEEG_Images\0904.jpg	NY	Left	No	0.796032999991439	0	176594	252
346.970703125	0.796032999991439	decision	choicePhaseStart	1	20	20	foodImage.96	FOODEEG_Images\0904.jpg	NY	Left	No	0.796032999991439	0	177650	253
347.759765625	0	decision	response	1	20	20	foodImage.96	FOODEEG_Images\0904.jpg	NY	Left	No	0.796032999991439	0	178054	234
348.80078125	1	health	trialStart	1	21	21	foodImage.32	FOODEEG_Images\0319.jpg	NY	Right	Yes	1.4463649999816	0	178587	251
349.84375	2	health	foodImageDisplay	1	21	21	foodImage.32	FOODEEG_Images\0319.jpg	NY	Right	Yes	1.4463649999816	0	179121	252
351.90625	1.4463649999816	health	choicePhaseStart	1	21	21	foodImage.32	FOODEEG_Images\0319.jpg	NY	Right	Yes	1.4463649999816	0	180177	253
353.34375	0	health	response	1	21	21	foodImage.32	FOODEEG_Images\0319.jpg	NY	Right	Yes	1.4463649999816	0	180913	235
354.392578125	1	decision	trialStart	1	22	22	foodImage.104	FOODEEG_Images\0912.jpg	YN	Right	No	0.825541199999861	0	181450	251
355.4296875	2	decision	foodImageDisplay	1	22	22	foodImage.104	FOODEEG_Images\0912.jpg	YN	Right	No	0.825541199999861	0	181981	252
357.494140625	0.825541199999861	decision	choicePhaseStart	1	22	22	foodImage.104	FOODEEG_Images\0912.jpg	YN	Right	No	0.825541199999861	0	183038	253
358.310546875	0	decision	response	1	22	22	foodImage.104	FOODEEG_Images\0912.jpg	YN	Right	No	0.825541199999861	0	183456	235
359.353515625	1	decision	trialStart	1	23	23	foodImage.39	FOODEEG_Images\0367.jpg	YN	Right	No	0.625531800033059	0	183990	251
360.390625	2	decision	foodImageDisplay	1	23	23	foodImage.39	FOODEEG_Images\0367.jpg	YN	Right	No	0.625531800033059	0	184521	252
362.453125	0.625531800033059	decision	choicePhaseStart	1	23	23	foodImage.39	FOODEEG_Images\0367.jpg	YN	Right	No	0.625531800033059	0	185577	253
363.0703125	0	decision	response	1	23	23	foodImage.39	FOODEEG_Images\0367.jpg	YN	Right	No	0.625531800033059	0	185893	235
364.119140625	1	taste	trialStart	1	24	24	foodImage.31	FOODEEG_Images\0294.jpg	YN	Left	Yes	0.912695700011682	0	186430	251
365.162109375	2	taste	foodImageDisplay	1	24	24	foodImage.31	FOODEEG_Images\0294.jpg	YN	Left	Yes	0.912695700011682	0	186964	252
367.224609375	0.912695700011682	taste	choicePhaseStart	1	24	24	foodImage.31	FOODEEG_Images\0294.jpg	YN	Left	Yes	0.912695700011682	0	188020	253
368.126953125	0	taste	response	1	24	24	foodImage.31	FOODEEG_Images\0294.jpg	YN	Left	Yes	0.912695700011682	0	188482	234
369.16796875	1	health	trialStart	1	25	25	foodImage.50	FOODEEG_Images\0529.jpg	YN	Left	Yes	1.3146776999929	0	189015	251
370.23828125	2	health	foodImageDisplay	1	25	25	foodImage.50	FOODEEG_Images\0529.jpg	YN	Left	Yes	1.3146776999929	0	189563	252
372.30078125	1.3146776999929	health	choicePhaseStart	1	25	25	foodImage.50	FOODEEG_Images\0529.jpg	YN	Left	Yes	1.3146776999929	0	190619	253
373.60546875	0	health	response	1	25	25	foodImage.50	FOODEEG_Images\0529.jpg	YN	Left	Yes	1.3146776999929	0	191287	234
374.6484375	1	decision	trialStart	1	26	26	foodImage.43	FOODEEG_Images\0445.jpg	YN	Right	No	0.998083499958739	0	191821	251
375.70703125	2	decision	foodImageDisplay	1	26	26	foodImage.43	FOODEEG_Images\0445.jpg	YN	Right	No	0.998083499958739	0	192363	252
377.76953125	0.998083499958739	decision	choicePhaseStart	1	26	26	foodImage.43	FOODEEG_Images\0445.jpg	YN	Right	No	0.998083499958739	0	193419	253
378.7578125	0	decision	response	1	26	26	foodImage.43	FOODEEG_Images\0445.jpg	YN	Right	No	0.998083499958739	0	193925	235
379.798828125	1	health	trialStart	1	27	27	foodImage.97	FOODEEG_Images\0905.jpg	YN	Right	No	0.825779600010719	0	194458	251
380.837890625	2	health	foodImageDisplay	1	27	27	foodImage.97	FOODEEG_Images\0905.jpg	YN	Right	No	0.825779600010719	0	194990	252
382.90234375	0.825779600010719	health	choicePhaseStart	1	27	27	foodImage.97	FOODEEG_Images\0905.jpg	YN	Right	No	0.825779600010719	0	196047	253
383.71875	0	health	response	1	27	27	foodImage.97	FOODEEG_Images\0905.jpg	YN	Right	No	0.825779600010719	0	196465	235
384.76171875	1	taste	trialStart	1	28	28	foodImage.116	FOODEEG_Images\0924.jpg	NY	Left	No	0.686150500026997	0	196999	251
385.80078125	2	taste	foodImageDisplay	1	28	28	foodImage.116	FOODEEG_Images\0924.jpg	NY	Left	No	0.686150500026997	0	197531	252
387.86328125	0.686150500026997	taste	choicePhaseStart	1	28	28	foodImage.116	FOODEEG_Images\0924.jpg	NY	Left	No	0.686150500026997	0	198587	253
388.541015625	0	taste	response	1	28	28	foodImage.116	FOODEEG_Images\0924.jpg	NY	Left	No	0.686150500026997	0	198934	234
389.583984375	1	taste	trialStart	1	29	29	foodImage.100	FOODEEG_Images\0908.jpg	NY	Right	Yes	0.921564299962483	0	199468	251
390.62109375	2	taste	foodImageDisplay	1	29	29	foodImage.100	FOODEEG_Images\0908.jpg	NY	Right	Yes	0.921564299962483	0	199999	252
392.68359375	0.921564299962483	taste	choicePhaseStart	1	29	29	foodImage.100	FOODEEG_Images\0908.jpg	NY	Right	Yes	0.921564299962483	0	201055	253
393.59765625	0	taste	response	1	29	29	foodImage.100	FOODEEG_Images\0908.jpg	NY	Right	Yes	0.921564299962483	0	201523	235
394.646484375	1	decision	trialStart	1	30	30	foodImage.113	FOODEEG_Images\0921.jpg	YN	Left	Yes	0.58839769999031	0	202060	251
395.69921875	2	decision	foodImageDisplay	1	30	30	foodImage.113	FOODEEG_Images\0921.jpg	YN	Left	Yes	0.58839769999031	0	202599	252
397.76171875	0.58839769999031	decision	choicePhaseStart	1	30	30	foodImage.113	FOODEEG_Images\0921.jpg	YN	Left	Yes	0.58839769999031	0	203655	253
398.341796875	0	decision	response	1	30	30	foodImage.113	FOODEEG_Images\0921.jpg	YN	Left	Yes	0.58839769999031	0	203952	234
399.3828125	1	taste	trialStart	1	31	31	foodImage.108	FOODEEG_Images\0916.jpg	YN	Right	No	0.784886300039943	0	204485	251
400.421875	2	taste	foodImageDisplay	1	31	31	foodImage.108	FOODEEG_Images\0916.jpg	YN	Right	No	0.784886300039943	0	205017	252
402.484375	0.784886300039943	taste	choicePhaseStart	1	31	31	foodImage.108	FOODEEG_Images\0916.jpg	YN	Right	No	0.784886300039943	0	206073	253
403.26171875	0	taste	response	1	31	31	foodImage.108	FOODEEG_Images\0916.jpg	YN	Right	No	0.784886300039943	0	206471	235
404.30859375	1	health	trialStart	1	32	32	foodImage.98	FOODEEG_Images\0906.jpg	YN	Left	Yes	0.66803300002357	0	207007	251
405.34765625	2	health	foodImageDisplay	1	32	32	foodImage.98	FOODEEG_Images\0906.jpg	YN	Left	Yes	0.66803300002357	0	207539	252
407.41015625	0.66803300002357	health	choicePhaseStart	1	32	32	foodImage.98	FOODEEG_Images\0906.jpg	YN	Left	Yes	0.66803300002357	0	208595	253
408.068359375	0	health	response	1	32	32	foodImage.98	FOODEEG_Images\0906.jpg	YN	Left	Yes	0.66803300002357	0	208932	234
409.109375	1	health	trialStart	1	33	33	foodImage.56	FOODEEG_Images\0586.jpg	YN	Right	No	1.00313709996408	0	209465	251
410.171875	2	health	foodImageDisplay	1	33	33	foodImage.56	FOODEEG_Images\0586.jpg	YN	Right	No	1.00313709996408	0	210009	252
412.234375	1.00313709996408	health	choicePhaseStart	1	33	33	foodImage.56	FOODEEG_Images\0586.jpg	YN	Right	No	1.00313709996408	0	211065	253
413.228515625	0	health	response	1	33	33	foodImage.56	FOODEEG_Images\0586.jpg	YN	Right	No	1.00313709996408	0	211574	235
414.279296875	1	decision	trialStart	1	34	34	foodImage.112	FOODEEG_Images\0920.jpg	YN	Right	No	0.689490600023419	0	212112	251
415.318359375	2	decision	foodImageDisplay	1	34	34	foodImage.112	FOODEEG_Images\0920.jpg	YN	Right	No	0.689490600023419	0	212644	252
417.380859375	0.689490600023419	decision	choicePhaseStart	1	34	34	foodImage.112	FOODEEG_Images\0920.jpg	YN	Right	No	0.689490600023419	0	213700	253
418.060546875	0	decision	response	1	34	34	foodImage.112	FOODEEG_Images\0920.jpg	YN	Right	No	0.689490600023419	0	214048	235
419.103515625	1	decision	trialStart	1	35	35	foodImage.36	FOODEEG_Images\0352.jpg	NY	Right	Yes	0.958437799999956	0	214582	251
420.16015625	2	decision	foodImageDisplay	1	35	35	foodImage.36	FOODEEG_Images\0352.jpg	NY	Right	Yes	0.958437799999956	0	215123	252
422.22265625	0.958437799999956	decision	choicePhaseStart	1	35	35	foodImage.36	FOODEEG_Images\0352.jpg	NY	Right	Yes	0.958437799999956	0	216179	253
423.171875	0	decision	response	1	35	35	foodImage.36	FOODEEG_Images\0352.jpg	NY	Right	Yes	0.958437799999956	0	216665	235
424.220703125	1	taste	trialStart	1	36	36	foodImage.115	FOODEEG_Images\0923.jpg	NY	Left	No	0.983537100022659	0	217202	251
425.259765625	2	taste	foodImageDisplay	1	36	36	foodImage.115	FOODEEG_Images\0923.jpg	NY	Left	No	0.983537100022659	0	217734	252
427.326171875	0.983537100022659	taste	choicePhaseStart	1	36	36	foodImage.115	FOODEEG_Images\0923.jpg	NY	Left	No	0.983537100022659	0	218792	253
428.30078125	0	taste	response	1	36	36	foodImage.115	FOODEEG_Images\0923.jpg	NY	Left	No	0.983537100022659	0	219291	234
429.34765625	1	decision	trialStart	1	37	37	foodImage.109	FOODEEG_Images\0917.jpg	YN	Right	No	0.676596300036181	0	219827	251
430.384765625	2	decision	foodImageDisplay	1	37	37	foodImage.109	FOODEEG_Images\0917.jpg	YN	Right	No	0.676596300036181	0	220358	252
432.447265625	0.676596300036181	decision	choicePhaseStart	1	37	37	foodImage.109	FOODEEG_Images\0917.jpg	YN	Right	No	0.676596300036181	0	221414	253
433.115234375	0	decision	response	1	37	37	foodImage.109	FOODEEG_Images\0917.jpg	YN	Right	No	0.676596300036181	0	221756	235
434.16015625	1	taste	trialStart	1	38	38	foodImage.97	FOODEEG_Images\0905.jpg	YN	Right	No	0.692651999997906	0	222291	251
435.197265625	2	taste	foodImageDisplay	1	38	38	foodImage.97	FOODEEG_Images\0905.jpg	YN	Right	No	0.692651999997906	0	222822	252
437.263671875	0.692651999997906	taste	choicePhaseStart	1	38	38	foodImage.97	FOODEEG_Images\0905.jpg	YN	Right	No	0.692651999997906	0	223880	253
437.947265625	0	taste	response	1	38	38	foodImage.97	FOODEEG_Images\0905.jpg	YN	Right	No	0.692651999997906	0	224230	235
438.99609375	1	health	trialStart	1	39	39	foodImage.42	FOODEEG_Images\0438.jpg	YN	Right	No	0.68927839997923	0	224767	251
440.083984375	2	health	foodImageDisplay	1	39	39	foodImage.42	FOODEEG_Images\0438.jpg	YN	Right	No	0.68927839997923	0	225324	252
442.146484375	0.68927839997923	health	choicePhaseStart	1	39	39	foodImage.42	FOODEEG_Images\0438.jpg	YN	Right	No	0.68927839997923	0	226380	253
442.828125	0	health	response	1	39	39	foodImage.42	FOODEEG_Images\0438.jpg	YN	Right	No	0.68927839997923	0	226729	235
443.869140625	1	decision	trialStart	1	40	40	foodImage.27	FOODEEG_Images\0263.jpg	NY	Left	No	0.829284700041171	0	227262	251
444.912109375	2	decision	foodImageDisplay	1	40	40	foodImage.27	FOODEEG_Images\0263.jpg	NY	Left	No	0.829284700041171	0	227796	252
446.974609375	0.829284700041171	decision	choicePhaseStart	1	40	40	foodImage.27	FOODEEG_Images\0263.jpg	NY	Left	No	0.829284700041171	0	228852	253
447.794921875	0	decision	response	1	40	40	foodImage.27	FOODEEG_Images\0263.jpg	NY	Left	No	0.829284700041171	0	229272	234
448.8359375	1	decision	trialStart	1	41	41	foodImage.3	FOODEEG_Images\0046.jpg	NY	Right	Yes	0.635542200005148	0	229805	251
449.880859375	2	decision	foodImageDisplay	1	41	41	foodImage.3	FOODEEG_Images\0046.jpg	NY	Right	Yes	0.635542200005148	0	230340	252
451.9453125	0.635542200005148	decision	choicePhaseStart	1	41	41	foodImage.3	FOODEEG_Images\0046.jpg	NY	Right	Yes	0.635542200005148	0	231397	253
452.5703125	0	decision	response	1	41	41	foodImage.3	FOODEEG_Images\0046.jpg	NY	Right	Yes	0.635542200005148	0	231717	235
453.611328125	1	decision	trialStart	1	42	42	foodImage.12	FOODEEG_Images\0181.jpg	NY	Right	Yes	0.631486299971584	0	232250	251
454.65234375	2	decision	foodImageDisplay	1	42	42	foodImage.12	FOODEEG_Images\0181.jpg	NY	Right	Yes	0.631486299971584	0	232783	252
456.716796875	0.631486299971584	decision	choicePhaseStart	1	42	42	foodImage.12	FOODEEG_Images\0181.jpg	NY	Right	Yes	0.631486299971584	0	233840	253
457.33984375	0	decision	response	1	42	42	foodImage.12	FOODEEG_Images\0181.jpg	NY	Right	Yes	0.631486299971584	0	234159	235
458.37890625	1	decision	trialStart	1	43	43	foodImage.21	FOODEEG_Images\0234.jpg	NY	Right	Yes	0.754281700006686	0	234691	251
459.43359375	2	decision	foodImageDisplay	1	43	43	foodImage.21	FOODEEG_Images\0234.jpg	NY	Right	Yes	0.754281700006686	0	235231	252
461.49609375	0.754281700006686	decision	choicePhaseStart	1	43	43	foodImage.21	FOODEEG_Images\0234.jpg	NY	Right	Yes	0.754281700006686	0	236287	253
462.2421875	0	decision	response	1	43	43	foodImage.21	FOODEEG_Images\0234.jpg	NY	Right	Yes	0.754281700006686	0	236669	235
463.28515625	1	health	trialStart	1	44	44	foodImage.37	FOODEEG_Images\0359.jpg	NY	Right	Yes	0.7179865000071	0	237203	251
464.326171875	2	health	foodImageDisplay	1	44	44	foodImage.37	FOODEEG_Images\0359.jpg	NY	Right	Yes	0.7179865000071	0	237736	252
466.388671875	0.7179865000071	health	choicePhaseStart	1	44	44	foodImage.37	FOODEEG_Images\0359.jpg	NY	Right	Yes	0.7179865000071	0	238792	253
467.09765625	0	health	response	1	44	44	foodImage.37	FOODEEG_Images\0359.jpg	NY	Right	Yes	0.7179865000071	0	239155	235
468.146484375	1	health	trialStart	1	45	45	foodImage.57	FOODEEG_Images\0587.jpg	NY	Left	No	0.893857499992009	0	239692	251
469.19140625	2	health	foodImageDisplay	1	45	45	foodImage.57	FOODEEG_Images\0587.jpg	NY	Left	No	0.893857499992009	0	240227	252
471.25390625	0.893857499992009	health	choicePhaseStart	1	45	45	foodImage.57	FOODEEG_Images\0587.jpg	NY	Left	No	0.893857499992009	0	241283	253
472.138671875	0	health	response	1	45	45	foodImage.57	FOODEEG_Images\0587.jpg	NY	Left	No	0.893857499992009	0	241736	234
473.1796875	1	taste	trialStart	1	46	46	foodImage.11	FOODEEG_Images\0180.jpg	NY	Right	Yes	1.3973066000035	0	242269	251
474.22265625	2	taste	foodImageDisplay	1	46	46	foodImage.11	FOODEEG_Images\0180.jpg	NY	Right	Yes	1.3973066000035	0	242803	252
476.28515625	1.3973066000035	taste	choicePhaseStart	1	46	46	foodImage.11	FOODEEG_Images\0180.jpg	NY	Right	Yes	1.3973066000035	0	243859	253
477.673828125	0	taste	response	1	46	46	foodImage.11	FOODEEG_Images\0180.jpg	NY	Right	Yes	1.3973066000035	0	244570	235
478.71484375	1	health	trialStart	1	47	47	foodImage.79	FOODEEG_Images\0794.jpg	NY	Right	Yes	0.815801899996586	0	245103	251
479.7578125	2	health	foodImageDisplay	1	47	47	foodImage.79	FOODEEG_Images\0794.jpg	NY	Right	Yes	0.815801899996586	0	245637	252
481.8203125	0.815801899996586	health	choicePhaseStart	1	47	47	foodImage.79	FOODEEG_Images\0794.jpg	NY	Right	Yes	0.815801899996586	0	246693	253
482.626953125	0	health	response	1	47	47	foodImage.79	FOODEEG_Images\0794.jpg	NY	Right	Yes	0.815801899996586	0	247106	235
483.673828125	1	health	trialStart	1	48	48	foodImage.47	FOODEEG_Images\0488.jpg	NY	Left	No	1.1602599999751	0	247642	251
484.71484375	2	health	foodImageDisplay	1	48	48	foodImage.47	FOODEEG_Images\0488.jpg	NY	Left	No	1.1602599999751	0	248175	252
486.779296875	1.1602599999751	health	choicePhaseStart	1	48	48	foodImage.47	FOODEEG_Images\0488.jpg	NY	Left	No	1.1602599999751	0	249232	253
487.9296875	0	health	response	1	48	48	foodImage.47	FOODEEG_Images\0488.jpg	NY	Left	No	1.1602599999751	0	249821	234
488.97265625	1	health	trialStart	1	49	49	foodImage.7	FOODEEG_Images\0116.jpg	NY	Left	No	1.26317469996866	0	250355	251
490.013671875	2	health	foodImageDisplay	1	49	49	foodImage.7	FOODEEG_Images\0116.jpg	NY	Left	No	1.26317469996866	0	250888	252
492.076171875	1.26317469996866	health	choicePhaseStart	1	49	49	foodImage.7	FOODEEG_Images\0116.jpg	NY	Left	No	1.26317469996866	0	251944	253
493.330078125	0	health	response	1	49	49	foodImage.7	FOODEEG_Images\0116.jpg	NY	Left	No	1.26317469996866	0	252586	234
494.37109375	1	decision	trialStart	1	50	50	foodImage.76	FOODEEG_Images\0766.jpg	YN	Right	No	0.758359100029338	0	253119	251
495.421875	2	decision	foodImageDisplay	1	50	50	foodImage.76	FOODEEG_Images\0766.jpg	YN	Right	No	0.758359100029338	0	253657	252
497.484375	0.758359100029338	decision	choicePhaseStart	1	50	50	foodImage.76	FOODEEG_Images\0766.jpg	YN	Right	No	0.758359100029338	0	254713	253
498.232421875	0	decision	response	1	50	50	foodImage.76	FOODEEG_Images\0766.jpg	YN	Right	No	0.758359100029338	0	255096	235
499.275390625	1	decision	trialStart	1	51	51	foodImage.58	FOODEEG_Images\0605.jpg	NY	Left	No	0.682625999965239	0	255630	251
500.3359375	2	decision	foodImageDisplay	1	51	51	foodImage.58	FOODEEG_Images\0605.jpg	NY	Left	No	0.682625999965239	0	256173	252
502.3984375	0.682625999965239	decision	choicePhaseStart	1	51	51	foodImage.58	FOODEEG_Images\0605.jpg	NY	Left	No	0.682625999965239	0	257229	253
503.072265625	0	decision	response	1	51	51	foodImage.58	FOODEEG_Images\0605.jpg	NY	Left	No	0.682625999965239	0	257574	234
504.12109375	1	decision	trialStart	1	52	52	foodImage.20	FOODEEG_Images\0226.jpg	YN	Right	No	0.740363300021272	0	258111	251
505.166015625	2	decision	foodImageDisplay	1	52	52	foodImage.20	FOODEEG_Images\0226.jpg	YN	Right	No	0.740363300021272	0	258646	252
507.228515625	0.740363300021272	decision	choicePhaseStart	1	52	52	foodImage.20	FOODEEG_Images\0226.jpg	YN	Right	No	0.740363300021272	0	259702	253
507.9609375	0	decision	response	1	52	52	foodImage.20	FOODEEG_Images\0226.jpg	YN	Right	No	0.740363300021272	0	260077	235
509.005859375	1	health	trialStart	1	53	53	foodImage.62	FOODEEG_Images\0644.jpg	YN	Right	No	0.752320000028703	0	260612	251
510.068359375	2	health	foodImageDisplay	1	53	53	foodImage.62	FOODEEG_Images\0644.jpg	YN	Right	No	0.752320000028703	0	261156	252
512.130859375	0.752320000028703	health	choicePhaseStart	1	53	53	foodImage.62	FOODEEG_Images\0644.jpg	YN	Right	No	0.752320000028703	0	262212	253
512.873046875	0	health	response	1	53	53	foodImage.62	FOODEEG_Images\0644.jpg	YN	Right	No	0.752320000028703	0	262592	235
513.916015625	1	health	trialStart	1	54	54	foodImage.24	FOODEEG_Images\0250.jpg	YN	Left	Yes	0.771688000007998	0	263126	251
514.958984375	2	health	foodImageDisplay	1	54	54	foodImage.24	FOODEEG_Images\0250.jpg	YN	Left	Yes	0.771688000007998	0	263660	252
517.021484375	0.771688000007998	health	choicePhaseStart	1	54	54	foodImage.24	FOODEEG_Images\0250.jpg	YN	Left	Yes	0.771688000007998	0	264716	253
517.78515625	0	health	response	1	54	54	foodImage.24	FOODEEG_Images\0250.jpg	YN	Left	Yes	0.771688000007998	0	265107	234
518.828125	1	health	trialStart	1	55	55	foodImage.115	FOODEEG_Images\0923.jpg	NY	Right	Yes	1.68527499999618	0	265641	251
519.8671875	2	health	foodImageDisplay	1	55	55	foodImage.115	FOODEEG_Images\0923.jpg	NY	Right	Yes	1.68527499999618	0	266173	252
521.93359375	1.68527499999618	health	choicePhaseStart	1	55	55	foodImage.115	FOODEEG_Images\0923.jpg	NY	Right	Yes	1.68527499999618	0	267231	253
523.607421875	0	health	response	1	55	55	foodImage.115	FOODEEG_Images\0923.jpg	NY	Right	Yes	1.68527499999618	0	268088	235
524.650390625	1	taste	trialStart	1	56	56	foodImage.2	FOODEEG_Images\0028.jpg	NY	Left	No	1.07799119997071	0	268622	251
525.693359375	2	taste	foodImageDisplay	1	56	56	foodImage.2	FOODEEG_Images\0028.jpg	NY	Left	No	1.07799119997071	0	269156	252
527.755859375	1.07799119997071	taste	choicePhaseStart	1	56	56	foodImage.2	FOODEEG_Images\0028.jpg	NY	Left	No	1.07799119997071	0	270212	253
528.82421875	0	taste	response	1	56	56	foodImage.2	FOODEEG_Images\0028.jpg	NY	Left	No	1.07799119997071	0	270759	234
529.8671875	1	taste	trialStart	1	57	57	foodImage.6	FOODEEG_Images\0113.jpg	NY	Right	Yes	1.08866150001995	0	271293	251
530.9296875	2	taste	foodImageDisplay	1	57	57	foodImage.6	FOODEEG_Images\0113.jpg	NY	Right	Yes	1.08866150001995	0	271837	252
532.9921875	1.08866150001995	taste	choicePhaseStart	1	57	57	foodImage.6	FOODEEG_Images\0113.jpg	NY	Right	Yes	1.08866150001995	0	272893	253
534.072265625	0	taste	response	1	57	57	foodImage.6	FOODEEG_Images\0113.jpg	NY	Right	Yes	1.08866150001995	0	273446	235
535.115234375	1	decision	trialStart	1	58	58	foodImage.105	FOODEEG_Images\0913.jpg	YN	Right	No	1.15771879995009	0	273980	251
536.15234375	2	decision	foodImageDisplay	1	58	58	foodImage.105	FOODEEG_Images\0913.jpg	YN	Right	No	1.15771879995009	0	274511	252
538.21875	1.15771879995009	decision	choicePhaseStart	1	58	58	foodImage.105	FOODEEG_Images\0913.jpg	YN	Right	No	1.15771879995009	0	275569	253
539.3671875	0	decision	response	1	58	58	foodImage.105	FOODEEG_Images\0913.jpg	YN	Right	No	1.15771879995009	0	276157	235
540.41015625	1	health	trialStart	1	59	59	foodImage.99	FOODEEG_Images\0907.jpg	NY	Left	No	1.70818499999586	0	276691	251
541.447265625	2	health	foodImageDisplay	1	59	59	foodImage.99	FOODEEG_Images\0907.jpg	NY	Left	No	1.70818499999586	0	277222	252
543.509765625	1.70818499999586	health	choicePhaseStart	1	59	59	foodImage.99	FOODEEG_Images\0907.jpg	NY	Left	No	1.70818499999586	0	278278	253
545.208984375	0	health	response	1	59	59	foodImage.99	FOODEEG_Images\0907.jpg	NY	Left	No	1.70818499999586	0	279148	234
546.251953125	1	taste	trialStart	1	60	60	foodImage.85	FOODEEG_Images\0841.jpg	YN	Right	No	1.09604989999207	0	279682	251
547.330078125	2	taste	foodImageDisplay	1	60	60	foodImage.85	FOODEEG_Images\0841.jpg	YN	Right	No	1.09604989999207	0	280234	252
549.392578125	1.09604989999207	taste	choicePhaseStart	1	60	60	foodImage.85	FOODEEG_Images\0841.jpg	YN	Right	No	1.09604989999207	0	281290	253
550.478515625	0	taste	response	1	60	60	foodImage.85	FOODEEG_Images\0841.jpg	YN	Right	No	1.09604989999207	0	281846	235
552.53515625	50.078125	n/a	blockEnd	n/a	n/a	n/a	n/a	n/a	n/a	n/a	n/a	n/a	n/a	282899	254
602.61328125	2	n/a	blockStart	2	n/a	n/a	n/a	n/a	n/a	n/a	n/a	n/a	n/a	308539	250
604.646484375	1	decision	trialStart	2	61	1	foodImage.14	FOODEEG_Images\0188.jpg	NY	Right	Yes	1.19675689999713	0	309580	251
605.708984375	2	decision	foodImageDisplay	2	61	1	foodImage.14	FOODEEG_Images\0188.jpg	NY	Right	Yes	1.19675689999713	0	310124	252
607.7734375	1.19675689999713	decision	choicePhaseStart	2	61	1	foodImage.14	FOODEEG_Images\0188.jpg	NY	Right	Yes	1.19675689999713	0	311181	253
608.96484375	0	decision	response	2	61	1	foodImage.14	FOODEEG_Images\0188.jpg	NY	Right	Yes	1.19675689999713	0	311791	235
610.005859375	1	taste	trialStart	2	62	2	foodImage.17	FOODEEG_Images\0199.jpg	YN	Left	Yes	1.07399710000027	0	312324	251
611.044921875	2	taste	foodImageDisplay	2	62	2	foodImage.17	FOODEEG_Images\0199.jpg	YN	Left	Yes	1.07399710000027	0	312856	252
613.107421875	1.07399710000027	taste	choicePhaseStart	2	62	2	foodImage.17	FOODEEG_Images\0199.jpg	YN	Left	Yes	1.07399710000027	0	313912	253
614.171875	0	taste	response	2	62	2	foodImage.17	FOODEEG_Images\0199.jpg	YN	Left	Yes	1.07399710000027	0	314457	234
615.21484375	1	decision	trialStart	2	63	3	foodImage.68	FOODEEG_Images\0685.jpg	NY	Right	Yes	1.38821720000124	0	314991	251
616.291015625	2	decision	foodImageDisplay	2	63	3	foodImage.68	FOODEEG_Images\0685.jpg	NY	Right	Yes	1.38821720000124	0	315542	252
618.353515625	1.38821720000124	decision	choicePhaseStart	2	63	3	foodImage.68	FOODEEG_Images\0685.jpg	NY	Right	Yes	1.38821720000124	0	316598	253
619.732421875	0	decision	response	2	63	3	foodImage.68	FOODEEG_Images\0685.jpg	NY	Right	Yes	1.38821720000124	0	317304	235
620.775390625	1	decision	trialStart	2	64	4	foodImage.119	FOODEEG_Images\0927.jpg	YN	Right	No	0.724436299991794	0	317838	251
621.8125	2	decision	foodImageDisplay	2	64	4	foodImage.119	FOODEEG_Images\0927.jpg	YN	Right	No	0.724436299991794	0	318369	252
623.880859375	0.724436299991794	decision	choicePhaseStart	2	64	4	foodImage.119	FOODEEG_Images\0927.jpg	YN	Right	No	0.724436299991794	0	319428	253
624.595703125	0	decision	response	2	64	4	foodImage.119	FOODEEG_Images\0927.jpg	YN	Right	No	0.724436299991794	0	319794	235
625.640625	1	decision	trialStart	2	65	5	foodImage.81	FOODEEG_Images\0797.jpg	NY	Left	No	1.06883870001184	0	320329	251
626.69921875	2	decision	foodImageDisplay	2	65	5	foodImage.81	FOODEEG_Images\0797.jpg	NY	Left	No	1.06883870001184	0	320871	252
628.76171875	1.06883870001184	decision	choicePhaseStart	2	65	5	foodImage.81	FOODEEG_Images\0797.jpg	NY	Left	No	1.06883870001184	0	321927	253
629.8203125	0	decision	response	2	65	5	foodImage.81	FOODEEG_Images\0797.jpg	NY	Left	No	1.06883870001184	0	322469	234
630.86328125	1	decision	trialStart	2	66	6	foodImage.80	FOODEEG_Images\0796.jpg	NY	Left	No	1.36498140002368	0	323003	251
631.921875	2	decision	foodImageDisplay	2	66	6	foodImage.80	FOODEEG_Images\0796.jpg	NY	Left	No	1.36498140002368	0	323545	252
633.984375	1.36498140002368	decision	choicePhaseStart	2	66	6	foodImage.80	FOODEEG_Images\0796.jpg	NY	Left	No	1.36498140002368	0	324601	253
635.33984375	0	decision	response	2	66	6	foodImage.80	FOODEEG_Images\0796.jpg	NY	Left	No	1.36498140002368	0	325295	234
636.388671875	1	decision	trialStart	2	67	7	foodImage.37	FOODEEG_Images\0359.jpg	YN	Right	No	1.15312959998846	0	325832	251
637.4296875	2	decision	foodImageDisplay	2	67	7	foodImage.37	FOODEEG_Images\0359.jpg	YN	Right	No	1.15312959998846	0	326365	252
639.4921875	1.15312959998846	decision	choicePhaseStart	2	67	7	foodImage.37	FOODEEG_Images\0359.jpg	YN	Right	No	1.15312959998846	0	327421	253
640.63671875	0	decision	response	2	67	7	foodImage.37	FOODEEG_Images\0359.jpg	YN	Right	No	1.15312959998846	0	328007	235
641.677734375	1	taste	trialStart	2	68	8	foodImage.7	FOODEEG_Images\0116.jpg	NY	Right	Yes	0.979585099965334	0	328540	251
642.720703125	2	taste	foodImageDisplay	2	68	8	foodImage.7	FOODEEG_Images\0116.jpg	NY	Right	Yes	0.979585099965334	0	329074	252
644.783203125	0.979585099965334	taste	choicePhaseStart	2	68	8	foodImage.7	FOODEEG_Images\0116.jpg	NY	Right	Yes	0.979585099965334	0	330130	253
645.755859375	0	taste	response	2	68	8	foodImage.7	FOODEEG_Images\0116.jpg	NY	Right	Yes	0.979585099965334	0	330628	235
646.796875	1	health	trialStart	2	69	9	foodImage.39	FOODEEG_Images\0367.jpg	YN	Right	No	1.33009399997536	0	331161	251
647.8359375	2	health	foodImageDisplay	2	69	9	foodImage.39	FOODEEG_Images\0367.jpg	YN	Right	No	1.33009399997536	0	331693	252
649.8984375	1.33009399997536	health	choicePhaseStart	2	69	9	foodImage.39	FOODEEG_Images\0367.jpg	YN	Right	No	1.33009399997536	0	332749	253
651.21875	0	health	response	2	69	9	foodImage.39	FOODEEG_Images\0367.jpg	YN	Right	No	1.33009399997536	0	333425	235
652.26171875	1	health	trialStart	2	70	10	foodImage.55	FOODEEG_Images\0567.jpg	YN	Left	Yes	0.780324399995152	0	333959	251
653.328125	2	health	foodImageDisplay	2	70	10	foodImage.55	FOODEEG_Images\0567.jpg	YN	Left	Yes	0.780324399995152	0	334505	252
655.392578125	0.780324399995152	health	choicePhaseStart	2	70	10	foodImage.55	FOODEEG_Images\0567.jpg	YN	Left	Yes	0.780324399995152	0	335562	253
656.1640625	0	health	response	2	70	10	foodImage.55	FOODEEG_Images\0567.jpg	YN	Left	Yes	0.780324399995152	0	335957	234
657.2109375	1	health	trialStart	2	71	11	foodImage.64	FOODEEG_Images\0647.jpg	NY	Right	Yes	0.576471399981529	0	336493	251
658.26953125	2	health	foodImageDisplay	2	71	11	foodImage.64	FOODEEG_Images\0647.jpg	NY	Right	Yes	0.576471399981529	0	337035	252
660.33203125	0.576471399981529	health	choicePhaseStart	2	71	11	foodImage.64	FOODEEG_Images\0647.jpg	NY	Right	Yes	0.576471399981529	0	338091	253
660.8984375	0	health	response	2	71	11	foodImage.64	FOODEEG_Images\0647.jpg	NY	Right	Yes	0.576471399981529	0	338381	235
661.94140625	1	taste	trialStart	2	72	12	foodImage.66	FOODEEG_Images\0676.jpg	YN	Right	No	0.789917699992657	0	338915	251
662.982421875	2	taste	foodImageDisplay	2	72	12	foodImage.66	FOODEEG_Images\0676.jpg	YN	Right	No	0.789917699992657	0	339448	252
665.044921875	0.789917699992657	taste	choicePhaseStart	2	72	12	foodImage.66	FOODEEG_Images\0676.jpg	YN	Right	No	0.789917699992657	0	340504	253
665.826171875	0	taste	response	2	72	12	foodImage.66	FOODEEG_Images\0676.jpg	YN	Right	No	0.789917699992657	0	340904	235
666.873046875	1	decision	trialStart	2	73	13	foodImage.82	FOODEEG_Images\0805.jpg	YN	Right	No	1.27657850005198	0	341440	251
667.9296875	2	decision	foodImageDisplay	2	73	13	foodImage.82	FOODEEG_Images\0805.jpg	YN	Right	No	1.27657850005198	0	341981	252
669.9921875	1.27657850005198	decision	choicePhaseStart	2	73	13	foodImage.82	FOODEEG_Images\0805.jpg	YN	Right	No	1.27657850005198	0	343037	253
671.2578125	0	decision	response	2	73	13	foodImage.82	FOODEEG_Images\0805.jpg	YN	Right	No	1.27657850005198	0	343685	235
672.30078125	1	health	trialStart	2	74	14	foodImage.111	FOODEEG_Images\0919.jpg	NY	Left	No	0.800643099995796	0	344219	251
673.33984375	2	health	foodImageDisplay	2	74	14	foodImage.111	FOODEEG_Images\0919.jpg	NY	Left	No	0.800643099995796	0	344751	252
675.40234375	0.800643099995796	health	choicePhaseStart	2	74	14	foodImage.111	FOODEEG_Images\0919.jpg	NY	Left	No	0.800643099995796	0	345807	253
676.193359375	0	health	response	2	74	14	foodImage.111	FOODEEG_Images\0919.jpg	NY	Left	No	0.800643099995796	0	346212	234
677.236328125	1	decision	trialStart	2	75	15	foodImage.13	FOODEEG_Images\0183.jpg	NY	Right	Yes	0.68908989999909	0	346746	251
678.283203125	2	decision	foodImageDisplay	2	75	15	foodImage.13	FOODEEG_Images\0183.jpg	NY	Right	Yes	0.68908989999909	0	347282	252
680.345703125	0.68908989999909	decision	choicePhaseStart	2	75	15	foodImage.13	FOODEEG_Images\0183.jpg	NY	Right	Yes	0.68908989999909	0	348338	253
681.025390625	0	decision	response	2	75	15	foodImage.13	FOODEEG_Images\0183.jpg	NY	Right	Yes	0.68908989999909	0	348686	235
682.068359375	1	health	trialStart	2	76	16	foodImage.18	FOODEEG_Images\0202.jpg	YN	Left	Yes	0.837685299979057	0	349220	251
683.126953125	2	health	foodImageDisplay	2	76	16	foodImage.18	FOODEEG_Images\0202.jpg	YN	Left	Yes	0.837685299979057	0	349762	252
685.189453125	0.837685299979057	health	choicePhaseStart	2	76	16	foodImage.18	FOODEEG_Images\0202.jpg	YN	Left	Yes	0.837685299979057	0	350818	253
686.017578125	0	health	response	2	76	16	foodImage.18	FOODEEG_Images\0202.jpg	YN	Left	Yes	0.837685299979057	0	351242	234
687.060546875	1	taste	trialStart	2	77	17	foodImage.12	FOODEEG_Images\0181.jpg	NY	Right	Yes	1.1039257000084	0	351776	251
688.111328125	2	taste	foodImageDisplay	2	77	17	foodImage.12	FOODEEG_Images\0181.jpg	NY	Right	Yes	1.1039257000084	0	352314	252
690.177734375	1.1039257000084	taste	choicePhaseStart	2	77	17	foodImage.12	FOODEEG_Images\0181.jpg	NY	Right	Yes	1.1039257000084	0	353372	253
691.2734375	0	taste	response	2	77	17	foodImage.12	FOODEEG_Images\0181.jpg	NY	Right	Yes	1.1039257000084	0	353933	235
692.31640625	1	decision	trialStart	2	78	18	foodImage.101	FOODEEG_Images\0909.jpg	YN	Right	No	0.651483899971936	0	354467	251
693.353515625	2	decision	foodImageDisplay	2	78	18	foodImage.101	FOODEEG_Images\0909.jpg	YN	Right	No	0.651483899971936	0	354998	252
695.4140625	0.651483899971936	decision	choicePhaseStart	2	78	18	foodImage.101	FOODEEG_Images\0909.jpg	YN	Right	No	0.651483899971936	0	356053	253
696.056640625	0	decision	response	2	78	18	foodImage.101	FOODEEG_Images\0909.jpg	YN	Right	No	0.651483899971936	0	356382	235
697.099609375	1	health	trialStart	2	79	19	foodImage.48	FOODEEG_Images\0494.jpg	NY	Right	Yes	1.26935199997388	0	356916	251
698.142578125	2	health	foodImageDisplay	2	79	19	foodImage.48	FOODEEG_Images\0494.jpg	NY	Right	Yes	1.26935199997388	0	357450	252
700.205078125	1.26935199997388	health	choicePhaseStart	2	79	19	foodImage.48	FOODEEG_Images\0494.jpg	NY	Right	Yes	1.26935199997388	0	358506	253
701.46484375	0	health	response	2	79	19	foodImage.48	FOODEEG_Images\0494.jpg	NY	Right	Yes	1.26935199997388	0	359151	235
702.509765625	1	taste	trialStart	2	80	20	foodImage.37	FOODEEG_Images\0359.jpg	YN	Right	No	1.06855160003761	0	359686	251
703.55078125	2	taste	foodImageDisplay	2	80	20	foodImage.37	FOODEEG_Images\0359.jpg	YN	Right	No	1.06855160003761	0	360219	252
705.61328125	1.06855160003761	taste	choicePhaseStart	2	80	20	foodImage.37	FOODEEG_Images\0359.jpg	YN	Right	No	1.06855160003761	0	361275	253
706.673828125	0	taste	response	2	80	20	foodImage.37	FOODEEG_Images\0359.jpg	YN	Right	No	1.06855160003761	0	361818	235
707.716796875	1	health	trialStart	2	81	21	foodImage.13	FOODEEG_Images\0183.jpg	YN	Left	Yes	0.800312599982135	0	362352	251
708.771484375	2	health	foodImageDisplay	2	81	21	foodImage.13	FOODEEG_Images\0183.jpg	YN	Left	Yes	0.800312599982135	0	362892	252
710.833984375	0.800312599982135	health	choicePhaseStart	2	81	21	foodImage.13	FOODEEG_Images\0183.jpg	YN	Left	Yes	0.800312599982135	0	363948	253
711.625	0	health	response	2	81	21	foodImage.13	FOODEEG_Images\0183.jpg	YN	Left	Yes	0.800312599982135	0	364353	234
712.673828125	1	taste	trialStart	2	82	22	foodImage.110	FOODEEG_Images\0918.jpg	NY	Left	No	1.47409720002906	0	364890	251
713.712890625	2	taste	foodImageDisplay	2	82	22	foodImage.110	FOODEEG_Images\0918.jpg	NY	Left	No	1.47409720002906	0	365422	252
715.775390625	1.47409720002906	taste	choicePhaseStart	2	82	22	foodImage.110	FOODEEG_Images\0918.jpg	NY	Left	No	1.47409720002906	0	366478	253
717.240234375	0	taste	response	2	82	22	foodImage.110	FOODEEG_Images\0918.jpg	NY	Left	No	1.47409720002906	0	367228	234
718.283203125	1	decision	trialStart	2	83	23	foodImage.34	FOODEEG_Images\0339.jpg	NY	Left	No	1.15361370000755	0	367762	251
719.34375	2	decision	foodImageDisplay	2	83	23	foodImage.34	FOODEEG_Images\0339.jpg	NY	Left	No	1.15361370000755	0	368305	252
721.40625	1.15361370000755	decision	choicePhaseStart	2	83	23	foodImage.34	FOODEEG_Images\0339.jpg	NY	Left	No	1.15361370000755	0	369361	253
722.552734375	0	decision	response	2	83	23	foodImage.34	FOODEEG_Images\0339.jpg	NY	Left	No	1.15361370000755	0	369948	234
723.595703125	1	health	trialStart	2	84	24	foodImage.73	FOODEEG_Images\0717.jpg	YN	Right	No	0.737782599986531	0	370482	251
724.671875	2	health	foodImageDisplay	2	84	24	foodImage.73	FOODEEG_Images\0717.jpg	YN	Right	No	0.737782599986531	0	371033	252
726.734375	0.737782599986531	health	choicePhaseStart	2	84	24	foodImage.73	FOODEEG_Images\0717.jpg	YN	Right	No	0.737782599986531	0	372089	253
727.46484375	0	health	response	2	84	24	foodImage.73	FOODEEG_Images\0717.jpg	YN	Right	No	0.737782599986531	0	372463	235
728.5078125	1	health	trialStart	2	85	25	foodImage.5	FOODEEG_Images\0107.jpg	YN	Right	No	0.892474099993706	0	372997	251
729.56640625	2	health	foodImageDisplay	2	85	25	foodImage.5	FOODEEG_Images\0107.jpg	YN	Right	No	0.892474099993706	0	373539	252
731.62890625	0.892474099993706	health	choicePhaseStart	2	85	25	foodImage.5	FOODEEG_Images\0107.jpg	YN	Right	No	0.892474099993706	0	374595	253
732.51171875	0	health	response	2	85	25	foodImage.5	FOODEEG_Images\0107.jpg	YN	Right	No	0.892474099993706	0	375047	235
733.55078125	1	decision	trialStart	2	86	26	foodImage.52	FOODEEG_Images\0539.jpg	NY	Right	Yes	1.82186129997717	0	375579	251
734.634765625	2	decision	foodImageDisplay	2	86	26	foodImage.52	FOODEEG_Images\0539.jpg	NY	Right	Yes	1.82186129997717	0	376134	252
736.69921875	1.82186129997717	decision	choicePhaseStart	2	86	26	foodImage.52	FOODEEG_Images\0539.jpg	NY	Right	Yes	1.82186129997717	0	377191	253
738.51171875	0	decision	response	2	86	26	foodImage.52	FOODEEG_Images\0539.jpg	NY	Right	Yes	1.82186129997717	0	378119	235
739.5546875	1	decision	trialStart	2	87	27	foodImage.33	FOODEEG_Images\0329.jpg	YN	Left	Yes	0.644557399966288	0	378653	251
740.59765625	2	decision	foodImageDisplay	2	87	27	foodImage.33	FOODEEG_Images\0329.jpg	YN	Left	Yes	0.644557399966288	0	379187	252
742.66015625	0.644557399966288	decision	choicePhaseStart	2	87	27	foodImage.33	FOODEEG_Images\0329.jpg	YN	Left	Yes	0.644557399966288	0	380243	253
743.294921875	0	decision	response	2	87	27	foodImage.33	FOODEEG_Images\0329.jpg	YN	Left	Yes	0.644557399966288	0	380568	234
744.33984375	1	taste	trialStart	2	88	28	foodImage.53	FOODEEG_Images\0547.jpg	YN	Left	Yes	0.809620700019877	0	381103	251
745.400390625	2	taste	foodImageDisplay	2	88	28	foodImage.53	FOODEEG_Images\0547.jpg	YN	Left	Yes	0.809620700019877	0	381646	252
747.462890625	0.809620700019877	taste	choicePhaseStart	2	88	28	foodImage.53	FOODEEG_Images\0547.jpg	YN	Left	Yes	0.809620700019877	0	382702	253
748.263671875	0	taste	response	2	88	28	foodImage.53	FOODEEG_Images\0547.jpg	YN	Left	Yes	0.809620700019877	0	383112	234
749.306640625	1	decision	trialStart	2	89	29	foodImage.72	FOODEEG_Images\0714.jpg	YN	Right	No	0.859512600000016	0	383646	251
750.349609375	2	decision	foodImageDisplay	2	89	29	foodImage.72	FOODEEG_Images\0714.jpg	YN	Right	No	0.859512600000016	0	384180	252
752.412109375	0.859512600000016	decision	choicePhaseStart	2	89	29	foodImage.72	FOODEEG_Images\0714.jpg	YN	Right	No	0.859512600000016	0	385236	253
753.263671875	0	decision	response	2	89	29	foodImage.72	FOODEEG_Images\0714.jpg	YN	Right	No	0.859512600000016	0	385672	235
754.306640625	1	taste	trialStart	2	90	30	foodImage.14	FOODEEG_Images\0188.jpg	YN	Left	Yes	0.636249500035774	0	386206	251
755.365234375	2	taste	foodImageDisplay	2	90	30	foodImage.14	FOODEEG_Images\0188.jpg	YN	Left	Yes	0.636249500035774	0	386748	252
757.427734375	0.636249500035774	taste	choicePhaseStart	2	90	30	foodImage.14	FOODEEG_Images\0188.jpg	YN	Left	Yes	0.636249500035774	0	387804	253
758.0546875	0	taste	response	2	90	30	foodImage.14	FOODEEG_Images\0188.jpg	YN	Left	Yes	0.636249500035774	0	388125	234
759.10546875	1	health	trialStart	2	91	31	foodImage.17	FOODEEG_Images\0199.jpg	NY	Right	Yes	1.30950279999524	0	388663	251
760.15625	2	health	foodImageDisplay	2	91	31	foodImage.17	FOODEEG_Images\0199.jpg	NY	Right	Yes	1.30950279999524	0	389201	252
762.21875	1.30950279999524	health	choicePhaseStart	2	91	31	foodImage.17	FOODEEG_Images\0199.jpg	NY	Right	Yes	1.30950279999524	0	390257	253
763.51953125	0	health	response	2	91	31	foodImage.17	FOODEEG_Images\0199.jpg	NY	Right	Yes	1.30950279999524	0	390923	235
764.5625	1	decision	trialStart	2	92	32	foodImage.117	FOODEEG_Images\0925.jpg	NY	Left	No	1.332057099964	0	391457	251
765.599609375	2	decision	foodImageDisplay	2	92	32	foodImage.117	FOODEEG_Images\0925.jpg	NY	Left	No	1.332057099964	0	391988	252
767.666015625	1.332057099964	decision	choicePhaseStart	2	92	32	foodImage.117	FOODEEG_Images\0925.jpg	NY	Left	No	1.332057099964	0	393046	253
768.990234375	0	decision	response	2	92	32	foodImage.117	FOODEEG_Images\0925.jpg	NY	Left	No	1.332057099964	0	393724	234
770.033203125	1	taste	trialStart	2	93	33	foodImage.56	FOODEEG_Images\0586.jpg	NY	Right	Yes	1.71713580004871	0	394258	251
771.076171875	2	taste	foodImageDisplay	2	93	33	foodImage.56	FOODEEG_Images\0586.jpg	NY	Right	Yes	1.71713580004871	0	394792	252
773.138671875	1.71713580004871	taste	choicePhaseStart	2	93	33	foodImage.56	FOODEEG_Images\0586.jpg	NY	Right	Yes	1.71713580004871	0	395848	253
774.845703125	0	taste	response	2	93	33	foodImage.56	FOODEEG_Images\0586.jpg	NY	Right	Yes	1.71713580004871	0	396722	235
775.89453125	1	taste	trialStart	2	94	34	foodImage.1	FOODEEG_Images\0004.jpg	NY	Right	Yes	0.821777599980123	0	397259	251
776.947265625	2	taste	foodImageDisplay	2	94	34	foodImage.1	FOODEEG_Images\0004.jpg	NY	Right	Yes	0.821777599980123	0	397798	252
779.009765625	0.821777599980123	taste	choicePhaseStart	2	94	34	foodImage.1	FOODEEG_Images\0004.jpg	NY	Right	Yes	0.821777599980123	0	398854	253
779.822265625	0	taste	response	2	94	34	foodImage.1	FOODEEG_Images\0004.jpg	NY	Right	Yes	0.821777599980123	0	399270	235
780.86328125	1	decision	trialStart	2	95	35	foodImage.5	FOODEEG_Images\0107.jpg	NY	Left	No	1.19002939999336	0	399803	251
781.923828125	2	decision	foodImageDisplay	2	95	35	foodImage.5	FOODEEG_Images\0107.jpg	NY	Left	No	1.19002939999336	0	400346	252
783.986328125	1.19002939999336	decision	choicePhaseStart	2	95	35	foodImage.5	FOODEEG_Images\0107.jpg	NY	Left	No	1.19002939999336	0	401402	253
785.166015625	0	decision	response	2	95	35	foodImage.5	FOODEEG_Images\0107.jpg	NY	Left	No	1.19002939999336	0	402006	234
786.20703125	1	taste	trialStart	2	96	36	foodImage.74	FOODEEG_Images\0752.jpg	YN	Left	Yes	1.48274589999346	0	402539	251
787.251953125	2	taste	foodImageDisplay	2	96	36	foodImage.74	FOODEEG_Images\0752.jpg	YN	Left	Yes	1.48274589999346	0	403074	252
789.31640625	1.48274589999346	taste	choicePhaseStart	2	96	36	foodImage.74	FOODEEG_Images\0752.jpg	YN	Left	Yes	1.48274589999346	0	404131	253
790.7890625	0	taste	response	2	96	36	foodImage.74	FOODEEG_Images\0752.jpg	YN	Left	Yes	1.48274589999346	0	404885	234
791.83203125	1	health	trialStart	2	97	37	foodImage.107	FOODEEG_Images\0915.jpg	YN	Right	No	0.913492499967106	0	405419	251
792.87109375	2	health	foodImageDisplay	2	97	37	foodImage.107	FOODEEG_Images\0915.jpg	YN	Right	No	0.913492499967106	0	405951	252
794.93359375	0.913492499967106	health	choicePhaseStart	2	97	37	foodImage.107	FOODEEG_Images\0915.jpg	YN	Right	No	0.913492499967106	0	407007	253
795.837890625	0	health	response	2	97	37	foodImage.107	FOODEEG_Images\0915.jpg	YN	Right	No	0.913492499967106	0	407470	235
796.880859375	1	health	trialStart	2	98	38	foodImage.25	FOODEEG_Images\0261.jpg	NY	Right	Yes	1.12537869997323	0	408004	251
797.923828125	2	health	foodImageDisplay	2	98	38	foodImage.25	FOODEEG_Images\0261.jpg	NY	Right	Yes	1.12537869997323	0	408538	252
799.986328125	1.12537869997323	health	choicePhaseStart	2	98	38	foodImage.25	FOODEEG_Images\0261.jpg	NY	Right	Yes	1.12537869997323	0	409594	253
801.1015625	0	health	response	2	98	38	foodImage.25	FOODEEG_Images\0261.jpg	NY	Right	Yes	1.12537869997323	0	410165	235
802.1484375	1	health	trialStart	2	99	39	foodImage.34	FOODEEG_Images\0339.jpg	YN	Right	No	0.920112499967217	0	410701	251
803.20703125	2	health	foodImageDisplay	2	99	39	foodImage.34	FOODEEG_Images\0339.jpg	YN	Right	No	0.920112499967217	0	411243	252
805.26953125	0.920112499967217	health	choicePhaseStart	2	99	39	foodImage.34	FOODEEG_Images\0339.jpg	YN	Right	No	0.920112499967217	0	412299	253
806.181640625	0	health	response	2	99	39	foodImage.34	FOODEEG_Images\0339.jpg	YN	Right	No	0.920112499967217	0	412766	235
807.22265625	1	taste	trialStart	2	100	40	foodImage.63	FOODEEG_Images\0645.jpg	NY	Left	No	0.670759100001305	0	413299	251
808.271484375	2	taste	foodImageDisplay	2	100	40	foodImage.63	FOODEEG_Images\0645.jpg	NY	Left	No	0.670759100001305	0	413836	252
810.333984375	0.670759100001305	taste	choicePhaseStart	2	100	40	foodImage.63	FOODEEG_Images\0645.jpg	NY	Left	No	0.670759100001305	0	414892	253
810.99609375	0	taste	response	2	100	40	foodImage.63	FOODEEG_Images\0645.jpg	NY	Left	No	0.670759100001305	0	415231	234
812.04296875	1	decision	trialStart	2	101	41	foodImage.86	FOODEEG_Images\0844.jpg	YN	Right	No	0.934436399955302	0	415767	251
813.126953125	2	decision	foodImageDisplay	2	101	41	foodImage.86	FOODEEG_Images\0844.jpg	YN	Right	No	0.934436399955302	0	416322	252
815.19140625	0.934436399955302	decision	choicePhaseStart	2	101	41	foodImage.86	FOODEEG_Images\0844.jpg	YN	Right	No	0.934436399955302	0	417379	253
816.1171875	0	decision	response	2	101	41	foodImage.86	FOODEEG_Images\0844.jpg	YN	Right	No	0.934436399955302	0	417853	235
817.1640625	1	decision	trialStart	2	102	42	foodImage.48	FOODEEG_Images\0494.jpg	NY	Left	No	0.760290400008671	0	418389	251
818.20703125	2	decision	foodImageDisplay	2	102	42	foodImage.48	FOODEEG_Images\0494.jpg	NY	Left	No	0.760290400008671	0	418923	252
820.26953125	0.760290400008671	decision	choicePhaseStart	2	102	42	foodImage.48	FOODEEG_Images\0494.jpg	NY	Left	No	0.760290400008671	0	419979	253
821.021484375	0	decision	response	2	102	42	foodImage.48	FOODEEG_Images\0494.jpg	NY	Left	No	0.760290400008671	0	420364	234
822.068359375	1	taste	trialStart	2	103	43	foodImage.13	FOODEEG_Images\0183.jpg	NY	Right	Yes	1.48588970000856	0	420900	251
823.12109375	2	taste	foodImageDisplay	2	103	43	foodImage.13	FOODEEG_Images\0183.jpg	NY	Right	Yes	1.48588970000856	0	421439	252
825.18359375	1.48588970000856	taste	choicePhaseStart	2	103	43	foodImage.13	FOODEEG_Images\0183.jpg	NY	Right	Yes	1.48588970000856	0	422495	253
826.66015625	0	taste	response	2	103	43	foodImage.13	FOODEEG_Images\0183.jpg	NY	Right	Yes	1.48588970000856	0	423251	235
827.703125	1	taste	trialStart	2	104	44	foodImage.26	FOODEEG_Images\0262.jpg	YN	Right	No	1.51026499998989	0	423785	251
828.744140625	2	taste	foodImageDisplay	2	104	44	foodImage.26	FOODEEG_Images\0262.jpg	YN	Right	No	1.51026499998989	0	424318	252
830.806640625	1.51026499998989	taste	choicePhaseStart	2	104	44	foodImage.26	FOODEEG_Images\0262.jpg	YN	Right	No	1.51026499998989	0	425374	253
832.30859375	0	taste	response	2	104	44	foodImage.26	FOODEEG_Images\0262.jpg	YN	Right	No	1.51026499998989	0	426143	235
833.349609375	1	taste	trialStart	2	105	45	foodImage.67	FOODEEG_Images\0679.jpg	YN	Left	Yes	0.600206899980549	0	426676	251
834.40625	2	taste	foodImageDisplay	2	105	45	foodImage.67	FOODEEG_Images\0679.jpg	YN	Left	Yes	0.600206899980549	0	427217	252
836.46875	0.600206899980549	taste	choicePhaseStart	2	105	45	foodImage.67	FOODEEG_Images\0679.jpg	YN	Left	Yes	0.600206899980549	0	428273	253
837.060546875	0	taste	response	2	105	45	foodImage.67	FOODEEG_Images\0679.jpg	YN	Left	Yes	0.600206899980549	0	428576	234
838.107421875	1	taste	trialStart	2	106	46	foodImage.49	FOODEEG_Images\0515.jpg	YN	Left	Yes	0.856169599981513	0	429112	251
839.150390625	2	taste	foodImageDisplay	2	106	46	foodImage.49	FOODEEG_Images\0515.jpg	YN	Left	Yes	0.856169599981513	0	429646	252
841.2109375	0.856169599981513	taste	choicePhaseStart	2	106	46	foodImage.49	FOODEEG_Images\0515.jpg	YN	Left	Yes	0.856169599981513	0	430701	253
842.060546875	0	taste	response	2	106	46	foodImage.49	FOODEEG_Images\0515.jpg	YN	Left	Yes	0.856169599981513	0	431136	234
843.1015625	1	taste	trialStart	2	107	47	foodImage.40	FOODEEG_Images\0373.jpg	NY	Right	Yes	0.590605299978051	0	431669	251
844.14453125	2	taste	foodImageDisplay	2	107	47	foodImage.40	FOODEEG_Images\0373.jpg	NY	Right	Yes	0.590605299978051	0	432203	252
846.20703125	0.590605299978051	taste	choicePhaseStart	2	107	47	foodImage.40	FOODEEG_Images\0373.jpg	NY	Right	Yes	0.590605299978051	0	433259	253
846.787109375	0	taste	response	2	107	47	foodImage.40	FOODEEG_Images\0373.jpg	NY	Right	Yes	0.590605299978051	0	433556	235
847.833984375	1	taste	trialStart	2	108	48	foodImage.90	FOODEEG_Images\0890.jpg	NY	Left	No	1.53878499998245	0	434092	251
848.892578125	2	taste	foodImageDisplay	2	108	48	foodImage.90	FOODEEG_Images\0890.jpg	NY	Left	No	1.53878499998245	0	434634	252
850.955078125	1.53878499998245	taste	choicePhaseStart	2	108	48	foodImage.90	FOODEEG_Images\0890.jpg	NY	Left	No	1.53878499998245	0	435690	253
852.482421875	0	taste	response	2	108	48	foodImage.90	FOODEEG_Images\0890.jpg	NY	Left	No	1.53878499998245	0	436472	234
853.533203125	1	taste	trialStart	2	109	49	foodImage.88	FOODEEG_Images\0878.jpg	NY	Right	Yes	0.704249700007495	0	437010	251
854.58984375	2	taste	foodImageDisplay	2	109	49	foodImage.88	FOODEEG_Images\0878.jpg	NY	Right	Yes	0.704249700007495	0	437551	252
856.65234375	0.704249700007495	taste	choicePhaseStart	2	109	49	foodImage.88	FOODEEG_Images\0878.jpg	NY	Right	Yes	0.704249700007495	0	438607	253
857.34765625	0	taste	response	2	109	49	foodImage.88	FOODEEG_Images\0878.jpg	NY	Right	Yes	0.704249700007495	0	438963	235
858.392578125	1	decision	trialStart	2	110	50	foodImage.98	FOODEEG_Images\0906.jpg	YN	Left	Yes	0.658293700020295	0	439498	251
859.435546875	2	decision	foodImageDisplay	2	110	50	foodImage.98	FOODEEG_Images\0906.jpg	YN	Left	Yes	0.658293700020295	0	440032	252
861.498046875	0.658293700020295	decision	choicePhaseStart	2	110	50	foodImage.98	FOODEEG_Images\0906.jpg	YN	Left	Yes	0.658293700020295	0	441088	253
862.146484375	0	decision	response	2	110	50	foodImage.98	FOODEEG_Images\0906.jpg	YN	Left	Yes	0.658293700020295	0	441420	234
863.189453125	1	health	trialStart	2	111	51	foodImage.11	FOODEEG_Images\0180.jpg	YN	Left	Yes	0.959351300029084	0	441954	251
864.23046875	2	health	foodImageDisplay	2	111	51	foodImage.11	FOODEEG_Images\0180.jpg	YN	Left	Yes	0.959351300029084	0	442487	252
866.29296875	0.959351300029084	health	choicePhaseStart	2	111	51	foodImage.11	FOODEEG_Images\0180.jpg	YN	Left	Yes	0.959351300029084	0	443543	253
867.2421875	0	health	response	2	111	51	foodImage.11	FOODEEG_Images\0180.jpg	YN	Left	Yes	0.959351300029084	0	444029	234
868.2890625	1	health	trialStart	2	112	52	foodImage.8	FOODEEG_Images\0136.jpg	NY	Right	Yes	0.966106100007892	0	444565	251
869.349609375	2	health	foodImageDisplay	2	112	52	foodImage.8	FOODEEG_Images\0136.jpg	NY	Right	Yes	0.966106100007892	0	445108	252
871.412109375	0.966106100007892	health	choicePhaseStart	2	112	52	foodImage.8	FOODEEG_Images\0136.jpg	NY	Right	Yes	0.966106100007892	0	446164	253
872.37109375	0	health	response	2	112	52	foodImage.8	FOODEEG_Images\0136.jpg	NY	Right	Yes	0.966106100007892	0	446655	235
873.419921875	1	taste	trialStart	2	113	53	foodImage.32	FOODEEG_Images\0319.jpg	NY	Right	Yes	0.725870799971744	0	447192	251
874.462890625	2	taste	foodImageDisplay	2	113	53	foodImage.32	FOODEEG_Images\0319.jpg	NY	Right	Yes	0.725870799971744	0	447726	252
876.525390625	0.725870799971744	taste	choicePhaseStart	2	113	53	foodImage.32	FOODEEG_Images\0319.jpg	NY	Right	Yes	0.725870799971744	0	448782	253
877.2421875	0	taste	response	2	113	53	foodImage.32	FOODEEG_Images\0319.jpg	NY	Right	Yes	0.725870799971744	0	449149	235
878.28515625	1	health	trialStart	2	114	54	foodImage.19	FOODEEG_Images\0225.jpg	NY	Right	Yes	0.762277900008485	0	449683	251
879.345703125	2	health	foodImageDisplay	2	114	54	foodImage.19	FOODEEG_Images\0225.jpg	NY	Right	Yes	0.762277900008485	0	450226	252
881.408203125	0.762277900008485	health	choicePhaseStart	2	114	54	foodImage.19	FOODEEG_Images\0225.jpg	NY	Right	Yes	0.762277900008485	0	451282	253
882.162109375	0	health	response	2	114	54	foodImage.19	FOODEEG_Images\0225.jpg	NY	Right	Yes	0.762277900008485	0	451668	235
883.20703125	1	health	trialStart	2	115	55	foodImage.6	FOODEEG_Images\0113.jpg	NY	Left	No	0.827269000001252	0	452203	251
884.25	2	health	foodImageDisplay	2	115	55	foodImage.6	FOODEEG_Images\0113.jpg	NY	Left	No	0.827269000001252	0	452737	252
886.3125	0.827269000001252	health	choicePhaseStart	2	115	55	foodImage.6	FOODEEG_Images\0113.jpg	NY	Left	No	0.827269000001252	0	453793	253
887.12890625	0	health	response	2	115	55	foodImage.6	FOODEEG_Images\0113.jpg	NY	Left	No	0.827269000001252	0	454211	234
888.171875	1	health	trialStart	2	116	56	foodImage.45	FOODEEG_Images\0478.jpg	NY	Right	Yes	0.921379200008232	0	454745	251
889.21875	2	health	foodImageDisplay	2	116	56	foodImage.45	FOODEEG_Images\0478.jpg	NY	Right	Yes	0.921379200008232	0	455281	252
891.28125	0.921379200008232	health	choicePhaseStart	2	116	56	foodImage.45	FOODEEG_Images\0478.jpg	NY	Right	Yes	0.921379200008232	0	456337	253
892.193359375	0	health	response	2	116	56	foodImage.45	FOODEEG_Images\0478.jpg	NY	Right	Yes	0.921379200008232	0	456804	235
893.236328125	1	health	trialStart	2	117	57	foodImage.109	FOODEEG_Images\0917.jpg	NY	Left	No	0.642148000013549	0	457338	251
894.2734375	2	health	foodImageDisplay	2	117	57	foodImage.109	FOODEEG_Images\0917.jpg	NY	Left	No	0.642148000013549	0	457869	252
896.3359375	0.642148000013549	health	choicePhaseStart	2	117	57	foodImage.109	FOODEEG_Images\0917.jpg	NY	Left	No	0.642148000013549	0	458925	253
896.96875	0	health	response	2	117	57	foodImage.109	FOODEEG_Images\0917.jpg	NY	Left	No	0.642148000013549	0	459249	234
898.013671875	1	decision	trialStart	2	118	58	foodImage.50	FOODEEG_Images\0529.jpg	YN	Left	Yes	0.650591399986297	0	459784	251
899.072265625	2	decision	foodImageDisplay	2	118	58	foodImage.50	FOODEEG_Images\0529.jpg	YN	Left	Yes	0.650591399986297	0	460326	252
901.134765625	0.650591399986297	decision	choicePhaseStart	2	118	58	foodImage.50	FOODEEG_Images\0529.jpg	YN	Left	Yes	0.650591399986297	0	461382	253
901.77734375	0	decision	response	2	118	58	foodImage.50	FOODEEG_Images\0529.jpg	YN	Left	Yes	0.650591399986297	0	461711	234
902.818359375	1	decision	trialStart	2	119	59	foodImage.103	FOODEEG_Images\0911.jpg	YN	Right	No	0.838688699994236	0	462244	251
903.8671875	2	decision	foodImageDisplay	2	119	59	foodImage.103	FOODEEG_Images\0911.jpg	YN	Right	No	0.838688699994236	0	462781	252
905.931640625	0.838688699994236	decision	choicePhaseStart	2	119	59	foodImage.103	FOODEEG_Images\0911.jpg	YN	Right	No	0.838688699994236	0	463838	253
906.76171875	0	decision	response	2	119	59	foodImage.103	FOODEEG_Images\0911.jpg	YN	Right	No	0.838688699994236	0	464263	235
907.802734375	1	decision	trialStart	2	120	60	foodImage.66	FOODEEG_Images\0676.jpg	NY	Left	No	1.35678429994732	0	464796	251
908.845703125	2	decision	foodImageDisplay	2	120	60	foodImage.66	FOODEEG_Images\0676.jpg	NY	Left	No	1.35678429994732	0	465330	252
910.908203125	1.35678429994732	decision	choicePhaseStart	2	120	60	foodImage.66	FOODEEG_Images\0676.jpg	NY	Left	No	1.35678429994732	0	466386	253
912.2578125	0	decision	response	2	120	60	foodImage.66	FOODEEG_Images\0676.jpg	NY	Left	No	1.35678429994732	0	467077	234
914.298828125	58.173828125	n/a	blockEnd	n/a	n/a	n/a	n/a	n/a	n/a	n/a	n/a	n/a	n/a	468122	254
972.47265625	2	n/a	blockStart	3	n/a	n/a	n/a	n/a	n/a	n/a	n/a	n/a	n/a	497907	250
974.509765625	1	decision	trialStart	3	121	1	foodImage.42	FOODEEG_Images\0438.jpg	NY	Left	No	0.610381599981338	0	498950	251
975.60546875	2	decision	foodImageDisplay	3	121	1	foodImage.42	FOODEEG_Images\0438.jpg	NY	Left	No	0.610381599981338	0	499511	252
977.673828125	0.610381599981338	decision	choicePhaseStart	3	121	1	foodImage.42	FOODEEG_Images\0438.jpg	NY	Left	No	0.610381599981338	0	500570	253
978.27734375	0	decision	response	3	121	1	foodImage.42	FOODEEG_Images\0438.jpg	NY	Left	No	0.610381599981338	0	500879	234
979.3203125	1	taste	trialStart	3	122	2	foodImage.15	FOODEEG_Images\0189.jpg	YN	Left	Yes	0.622587000019848	0	501413	251
980.376953125	2	taste	foodImageDisplay	3	122	2	foodImage.15	FOODEEG_Images\0189.jpg	YN	Left	Yes	0.622587000019848	0	501954	252
982.439453125	0.622587000019848	taste	choicePhaseStart	3	122	2	foodImage.15	FOODEEG_Images\0189.jpg	YN	Left	Yes	0.622587000019848	0	503010	253
983.0546875	0	taste	response	3	122	2	foodImage.15	FOODEEG_Images\0189.jpg	YN	Left	Yes	0.622587000019848	0	503325	234
984.095703125	1	taste	trialStart	3	123	3	foodImage.114	FOODEEG_Images\0922.jpg	NY	Left	No	1.00125480000861	0	503858	251
985.134765625	2	taste	foodImageDisplay	3	123	3	foodImage.114	FOODEEG_Images\0922.jpg	NY	Left	No	1.00125480000861	0	504390	252
987.19921875	1.00125480000861	taste	choicePhaseStart	3	123	3	foodImage.114	FOODEEG_Images\0922.jpg	NY	Left	No	1.00125480000861	0	505447	253
988.189453125	0	taste	response	3	123	3	foodImage.114	FOODEEG_Images\0922.jpg	NY	Left	No	1.00125480000861	0	505954	234
989.232421875	1	health	trialStart	3	124	4	foodImage.63	FOODEEG_Images\0645.jpg	YN	Left	Yes	0.635522200027481	0	506488	251
990.283203125	2	health	foodImageDisplay	3	124	4	foodImage.63	FOODEEG_Images\0645.jpg	YN	Left	Yes	0.635522200027481	0	507026	252
992.34765625	0.635522200027481	health	choicePhaseStart	3	124	4	foodImage.63	FOODEEG_Images\0645.jpg	YN	Left	Yes	0.635522200027481	0	508083	253
992.97265625	0	health	response	3	124	4	foodImage.63	FOODEEG_Images\0645.jpg	YN	Left	Yes	0.635522200027481	0	508403	234
994.01953125	1	health	trialStart	3	125	5	foodImage.22	FOODEEG_Images\0236.jpg	YN	Left	Yes	1.53425479994621	0	508939	251
995.080078125	2	health	foodImageDisplay	3	125	5	foodImage.22	FOODEEG_Images\0236.jpg	YN	Left	Yes	1.53425479994621	0	509482	252
997.14453125	1.53425479994621	health	choicePhaseStart	3	125	5	foodImage.22	FOODEEG_Images\0236.jpg	YN	Left	Yes	1.53425479994621	0	510539	253
998.669921875	0	health	response	3	125	5	foodImage.22	FOODEEG_Images\0236.jpg	YN	Left	Yes	1.53425479994621	0	511320	234
999.712890625	1	health	trialStart	3	126	6	foodImage.14	FOODEEG_Images\0188.jpg	NY	Right	Yes	2.0842091999948	0	511854	251
1000.79296875	2	health	foodImageDisplay	3	126	6	foodImage.14	FOODEEG_Images\0188.jpg	NY	Right	Yes	2.0842091999948	0	512407	252
1002.85546875	2.0842091999948	health	choicePhaseStart	3	126	6	foodImage.14	FOODEEG_Images\0188.jpg	NY	Right	Yes	2.0842091999948	0	513463	253
1004.93359375	0	health	response	3	126	6	foodImage.14	FOODEEG_Images\0188.jpg	NY	Right	Yes	2.0842091999948	0	514527	235
1005.982421875	1	taste	trialStart	3	127	7	foodImage.78	FOODEEG_Images\0787.jpg	YN	Right	No	0.933670500002336	0	515064	251
1007.025390625	2	taste	foodImageDisplay	3	127	7	foodImage.78	FOODEEG_Images\0787.jpg	YN	Right	No	0.933670500002336	0	515598	252
1009.087890625	0.933670500002336	taste	choicePhaseStart	3	127	7	foodImage.78	FOODEEG_Images\0787.jpg	YN	Right	No	0.933670500002336	0	516654	253
1010.013671875	0	taste	response	3	127	7	foodImage.78	FOODEEG_Images\0787.jpg	YN	Right	No	0.933670500002336	0	517128	235
1011.056640625	1	health	trialStart	3	128	8	foodImage.72	FOODEEG_Images\0714.jpg	NY	Left	No	0.735470699961297	0	517662	251
1012.119140625	2	health	foodImageDisplay	3	128	8	foodImage.72	FOODEEG_Images\0714.jpg	NY	Left	No	0.735470699961297	0	518206	252
1014.181640625	0.735470699961297	health	choicePhaseStart	3	128	8	foodImage.72	FOODEEG_Images\0714.jpg	NY	Left	No	0.735470699961297	0	519262	253
1014.908203125	0	health	response	3	128	8	foodImage.72	FOODEEG_Images\0714.jpg	NY	Left	No	0.735470699961297	0	519634	234
1015.951171875	1	decision	trialStart	3	129	9	foodImage.6	FOODEEG_Images\0113.jpg	YN	Right	No	1.31859390001046	0	520168	251
1016.9921875	2	decision	foodImageDisplay	3	129	9	foodImage.6	FOODEEG_Images\0113.jpg	YN	Right	No	1.31859390001046	0	520701	252
1019.0546875	1.31859390001046	decision	choicePhaseStart	3	129	9	foodImage.6	FOODEEG_Images\0113.jpg	YN	Right	No	1.31859390001046	0	521757	253
1020.365234375	0	decision	response	3	129	9	foodImage.6	FOODEEG_Images\0113.jpg	YN	Right	No	1.31859390001046	0	522428	235
1021.408203125	1	decision	trialStart	3	130	10	foodImage.56	FOODEEG_Images\0586.jpg	YN	Right	No	1.06838670000434	0	522962	251
1022.451171875	2	decision	foodImageDisplay	3	130	10	foodImage.56	FOODEEG_Images\0586.jpg	YN	Right	No	1.06838670000434	0	523496	252
1024.513671875	1.06838670000434	decision	choicePhaseStart	3	130	10	foodImage.56	FOODEEG_Images\0586.jpg	YN	Right	No	1.06838670000434	0	524552	253
1025.572265625	0	decision	response	3	130	10	foodImage.56	FOODEEG_Images\0586.jpg	YN	Right	No	1.06838670000434	0	525094	235
1026.615234375	1	taste	trialStart	3	131	11	foodImage.103	FOODEEG_Images\0911.jpg	NY	Left	No	0.892365800042171	0	525628	251
1027.65234375	2	taste	foodImageDisplay	3	131	11	foodImage.103	FOODEEG_Images\0911.jpg	NY	Left	No	0.892365800042171	0	526159	252
1029.71484375	0.892365800042171	taste	choicePhaseStart	3	131	11	foodImage.103	FOODEEG_Images\0911.jpg	NY	Left	No	0.892365800042171	0	527215	253
1030.59765625	0	taste	response	3	131	11	foodImage.103	FOODEEG_Images\0911.jpg	NY	Left	No	0.892365800042171	0	527667	234
1031.638671875	1	taste	trialStart	3	132	12	foodImage.19	FOODEEG_Images\0225.jpg	YN	Right	No	0.727444600022864	0	528200	251
1032.685546875	2	taste	foodImageDisplay	3	132	12	foodImage.19	FOODEEG_Images\0225.jpg	YN	Right	No	0.727444600022864	0	528736	252
1034.75	0.727444600022864	taste	choicePhaseStart	3	132	12	foodImage.19	FOODEEG_Images\0225.jpg	YN	Right	No	0.727444600022864	0	529793	253
1035.46875	0	taste	response	3	132	12	foodImage.19	FOODEEG_Images\0225.jpg	YN	Right	No	0.727444600022864	0	530161	235
1036.509765625	1	health	trialStart	3	133	13	foodImage.10	FOODEEG_Images\0145.jpg	NY	Right	Yes	1.5594077000278	0	530694	251
1037.56640625	2	health	foodImageDisplay	3	133	13	foodImage.10	FOODEEG_Images\0145.jpg	NY	Right	Yes	1.5594077000278	0	531235	252
1039.62890625	1.5594077000278	health	choicePhaseStart	3	133	13	foodImage.10	FOODEEG_Images\0145.jpg	NY	Right	Yes	1.5594077000278	0	532291	253
1041.1796875	0	health	response	3	133	13	foodImage.10	FOODEEG_Images\0145.jpg	NY	Right	Yes	1.5594077000278	0	533085	235
1042.22265625	1	taste	trialStart	3	134	14	foodImage.33	FOODEEG_Images\0329.jpg	NY	Right	Yes	0.945431099971756	0	533619	251
1043.265625	2	taste	foodImageDisplay	3	134	14	foodImage.33	FOODEEG_Images\0329.jpg	NY	Right	Yes	0.945431099971756	0	534153	252
1045.33203125	0.945431099971756	taste	choicePhaseStart	3	134	14	foodImage.33	FOODEEG_Images\0329.jpg	NY	Right	Yes	0.945431099971756	0	535211	253
1046.267578125	0	taste	response	3	134	14	foodImage.33	FOODEEG_Images\0329.jpg	NY	Right	Yes	0.945431099971756	0	535690	235
1047.310546875	1	taste	trialStart	3	135	15	foodImage.91	FOODEEG_Images\0896.jpg	YN	Left	Yes	1.14124920003815	0	536224	251
1048.369140625	2	taste	foodImageDisplay	3	135	15	foodImage.91	FOODEEG_Images\0896.jpg	YN	Left	Yes	1.14124920003815	0	536766	252
1050.431640625	1.14124920003815	taste	choicePhaseStart	3	135	15	foodImage.91	FOODEEG_Images\0896.jpg	YN	Left	Yes	1.14124920003815	0	537822	253
1051.564453125	0	taste	response	3	135	15	foodImage.91	FOODEEG_Images\0896.jpg	YN	Left	Yes	1.14124920003815	0	538402	234
1052.60546875	1	taste	trialStart	3	136	16	foodImage.83	FOODEEG_Images\0827.jpg	NY	Left	No	1.18358980002813	0	538935	251
1053.677734375	2	taste	foodImageDisplay	3	136	16	foodImage.83	FOODEEG_Images\0827.jpg	NY	Left	No	1.18358980002813	0	539484	252
1055.740234375	1.18358980002813	taste	choicePhaseStart	3	136	16	foodImage.83	FOODEEG_Images\0827.jpg	NY	Left	No	1.18358980002813	0	540540	253
1056.916015625	0	taste	response	3	136	16	foodImage.83	FOODEEG_Images\0827.jpg	NY	Left	No	1.18358980002813	0	541142	234
1057.9609375	1	taste	trialStart	3	137	17	foodImage.84	FOODEEG_Images\0830.jpg	YN	Right	No	0.889267300022766	0	541677	251
1059.03515625	2	taste	foodImageDisplay	3	137	17	foodImage.84	FOODEEG_Images\0830.jpg	YN	Right	No	0.889267300022766	0	542227	252
1061.09765625	0.889267300022766	taste	choicePhaseStart	3	137	17	foodImage.84	FOODEEG_Images\0830.jpg	YN	Right	No	0.889267300022766	0	543283	253
1061.978515625	0	taste	response	3	137	17	foodImage.84	FOODEEG_Images\0830.jpg	YN	Right	No	0.889267300022766	0	543734	235
1063.02734375	1	health	trialStart	3	138	18	foodImage.67	FOODEEG_Images\0679.jpg	YN	Right	No	1.01962950004963	0	544271	251
1064.08203125	2	health	foodImageDisplay	3	138	18	foodImage.67	FOODEEG_Images\0679.jpg	YN	Right	No	1.01962950004963	0	544811	252
1066.142578125	1.01962950004963	health	choicePhaseStart	3	138	18	foodImage.67	FOODEEG_Images\0679.jpg	YN	Right	No	1.01962950004963	0	545866	253
1067.154296875	0	health	response	3	138	18	foodImage.67	FOODEEG_Images\0679.jpg	YN	Right	No	1.01962950004963	0	546384	235
1068.197265625	1	taste	trialStart	3	139	19	foodImage.51	FOODEEG_Images\0536.jpg	YN	Left	Yes	1.26822029997129	0	546918	251
1069.26171875	2	taste	foodImageDisplay	3	139	19	foodImage.51	FOODEEG_Images\0536.jpg	YN	Left	Yes	1.26822029997129	0	547463	252
1071.32421875	1.26822029997129	taste	choicePhaseStart	3	139	19	foodImage.51	FOODEEG_Images\0536.jpg	YN	Left	Yes	1.26822029997129	0	548519	253
1072.5859375	0	taste	response	3	139	19	foodImage.51	FOODEEG_Images\0536.jpg	YN	Left	Yes	1.26822029997129	0	549165	234
1073.62890625	1	health	trialStart	3	140	20	foodImage.90	FOODEEG_Images\0890.jpg	NY	Right	Yes	1.9363950000261	0	549699	251
1074.708984375	2	health	foodImageDisplay	3	140	20	foodImage.90	FOODEEG_Images\0890.jpg	NY	Right	Yes	1.9363950000261	0	550252	252
1076.771484375	1.9363950000261	health	choicePhaseStart	3	140	20	foodImage.90	FOODEEG_Images\0890.jpg	NY	Right	Yes	1.9363950000261	0	551308	253
1078.69921875	0	health	response	3	140	20	foodImage.90	FOODEEG_Images\0890.jpg	NY	Right	Yes	1.9363950000261	0	552295	235
1079.7421875	1	taste	trialStart	3	141	21	foodImage.55	FOODEEG_Images\0567.jpg	NY	Right	Yes	1.08688550000079	0	552829	251
1080.806640625	2	taste	foodImageDisplay	3	141	21	foodImage.55	FOODEEG_Images\0567.jpg	NY	Right	Yes	1.08688550000079	0	553374	252
1082.869140625	1.08688550000079	taste	choicePhaseStart	3	141	21	foodImage.55	FOODEEG_Images\0567.jpg	NY	Right	Yes	1.08688550000079	0	554430	253
1083.9453125	0	taste	response	3	141	21	foodImage.55	FOODEEG_Images\0567.jpg	NY	Right	Yes	1.08688550000079	0	554981	235
1084.98828125	1	decision	trialStart	3	142	22	foodImage.1	FOODEEG_Images\0004.jpg	NY	Right	Yes	1.2061340000364	0	555515	251
1086.03125	2	decision	foodImageDisplay	3	142	22	foodImage.1	FOODEEG_Images\0004.jpg	NY	Right	Yes	1.2061340000364	0	556049	252
1088.09375	1.2061340000364	decision	choicePhaseStart	3	142	22	foodImage.1	FOODEEG_Images\0004.jpg	NY	Right	Yes	1.2061340000364	0	557105	253
1089.291015625	0	decision	response	3	142	22	foodImage.1	FOODEEG_Images\0004.jpg	NY	Right	Yes	1.2061340000364	0	557718	235
1090.349609375	1	taste	trialStart	3	143	23	foodImage.77	FOODEEG_Images\0771.jpg	YN	Right	No	1.77305209997576	0	558260	251
1091.392578125	2	taste	foodImageDisplay	3	143	23	foodImage.77	FOODEEG_Images\0771.jpg	YN	Right	No	1.77305209997576	0	558794	252
1093.455078125	1.77305209997576	taste	choicePhaseStart	3	143	23	foodImage.77	FOODEEG_Images\0771.jpg	YN	Right	No	1.77305209997576	0	559850	253
1095.21875	0	taste	response	3	143	23	foodImage.77	FOODEEG_Images\0771.jpg	YN	Right	No	1.77305209997576	0	560753	235
1096.259765625	1	taste	trialStart	3	144	24	foodImage.42	FOODEEG_Images\0438.jpg	YN	Right	No	1.24106390000088	0	561286	251
1097.34765625	2	taste	foodImageDisplay	3	144	24	foodImage.42	FOODEEG_Images\0438.jpg	YN	Right	No	1.24106390000088	0	561843	252
1099.41015625	1.24106390000088	taste	choicePhaseStart	3	144	24	foodImage.42	FOODEEG_Images\0438.jpg	YN	Right	No	1.24106390000088	0	562899	253
1100.642578125	0	taste	response	3	144	24	foodImage.42	FOODEEG_Images\0438.jpg	YN	Right	No	1.24106390000088	0	563530	235
1101.68359375	1	taste	trialStart	3	145	25	foodImage.41	FOODEEG_Images\0409.jpg	YN	Right	No	0.736593200010248	0	564063	251
1102.732421875	2	taste	foodImageDisplay	3	145	25	foodImage.41	FOODEEG_Images\0409.jpg	YN	Right	No	0.736593200010248	0	564600	252
1104.794921875	0.736593200010248	taste	choicePhaseStart	3	145	25	foodImage.41	FOODEEG_Images\0409.jpg	YN	Right	No	0.736593200010248	0	565656	253
1105.521484375	0	taste	response	3	145	25	foodImage.41	FOODEEG_Images\0409.jpg	YN	Right	No	0.736593200010248	0	566028	235
1106.568359375	1	health	trialStart	3	146	26	foodImage.2	FOODEEG_Images\0028.jpg	YN	Right	No	1.31345070002135	0	566564	251
1107.609375	2	health	foodImageDisplay	3	146	26	foodImage.2	FOODEEG_Images\0028.jpg	YN	Right	No	1.31345070002135	0	567097	252
1109.671875	1.31345070002135	health	choicePhaseStart	3	146	26	foodImage.2	FOODEEG_Images\0028.jpg	YN	Right	No	1.31345070002135	0	568153	253
1110.9765625	0	health	response	3	146	26	foodImage.2	FOODEEG_Images\0028.jpg	YN	Right	No	1.31345070002135	0	568821	235
1112.01953125	1	health	trialStart	3	147	27	foodImage.26	FOODEEG_Images\0262.jpg	NY	Left	No	1.86161469999934	0	569355	251
1113.060546875	2	health	foodImageDisplay	3	147	27	foodImage.26	FOODEEG_Images\0262.jpg	NY	Left	No	1.86161469999934	0	569888	252
1115.123046875	1.86161469999934	health	choicePhaseStart	3	147	27	foodImage.26	FOODEEG_Images\0262.jpg	NY	Left	No	1.86161469999934	0	570944	253
1116.9765625	0	health	response	3	147	27	foodImage.26	FOODEEG_Images\0262.jpg	NY	Left	No	1.86161469999934	0	571893	234
1118.01953125	1	taste	trialStart	3	148	28	foodImage.10	FOODEEG_Images\0145.jpg	NY	Right	Yes	0.910862099961378	0	572427	251
1119.076171875	2	taste	foodImageDisplay	3	148	28	foodImage.10	FOODEEG_Images\0145.jpg	NY	Right	Yes	0.910862099961378	0	572968	252
1121.138671875	0.910862099961378	taste	choicePhaseStart	3	148	28	foodImage.10	FOODEEG_Images\0145.jpg	NY	Right	Yes	0.910862099961378	0	574024	253
1122.041015625	0	taste	response	3	148	28	foodImage.10	FOODEEG_Images\0145.jpg	NY	Right	Yes	0.910862099961378	0	574486	235
1123.083984375	1	decision	trialStart	3	149	29	foodImage.111	FOODEEG_Images\0919.jpg	YN	Right	No	0.976264199998695	0	575020	251
1124.12109375	2	decision	foodImageDisplay	3	149	29	foodImage.111	FOODEEG_Images\0919.jpg	YN	Right	No	0.976264199998695	0	575551	252
1126.185546875	0.976264199998695	decision	choicePhaseStart	3	149	29	foodImage.111	FOODEEG_Images\0919.jpg	YN	Right	No	0.976264199998695	0	576608	253
1127.15234375	0	decision	response	3	149	29	foodImage.111	FOODEEG_Images\0919.jpg	YN	Right	No	0.976264199998695	0	577103	235
1128.208984375	1	health	trialStart	3	150	30	foodImage.118	FOODEEG_Images\0926.jpg	YN	Right	No	1.63639759999933	0	577644	251
1129.24609375	2	health	foodImageDisplay	3	150	30	foodImage.118	FOODEEG_Images\0926.jpg	YN	Right	No	1.63639759999933	0	578175	252
1131.30859375	1.63639759999933	health	choicePhaseStart	3	150	30	foodImage.118	FOODEEG_Images\0926.jpg	YN	Right	No	1.63639759999933	0	579231	253
1132.935546875	0	health	response	3	150	30	foodImage.118	FOODEEG_Images\0926.jpg	YN	Right	No	1.63639759999933	0	580064	235
1133.98046875	1	health	trialStart	3	151	31	foodImage.106	FOODEEG_Images\0914.jpg	YN	Right	No	1.36789100000169	0	580599	251
1135.017578125	2	health	foodImageDisplay	3	151	31	foodImage.106	FOODEEG_Images\0914.jpg	YN	Right	No	1.36789100000169	0	581130	252
1137.080078125	1.36789100000169	health	choicePhaseStart	3	151	31	foodImage.106	FOODEEG_Images\0914.jpg	YN	Right	No	1.36789100000169	0	582186	253
1138.439453125	0	health	response	3	151	31	foodImage.106	FOODEEG_Images\0914.jpg	YN	Right	No	1.36789100000169	0	582882	235
1139.482421875	1	taste	trialStart	3	152	32	foodImage.80	FOODEEG_Images\0796.jpg	NY	Left	No	0.799365500046406	0	583416	251
1140.564453125	2	taste	foodImageDisplay	3	152	32	foodImage.80	FOODEEG_Images\0796.jpg	NY	Left	No	0.799365500046406	0	583970	252
1142.625	0.799365500046406	taste	choicePhaseStart	3	152	32	foodImage.80	FOODEEG_Images\0796.jpg	NY	Left	No	0.799365500046406	0	585025	253
1143.416015625	0	taste	response	3	152	32	foodImage.80	FOODEEG_Images\0796.jpg	NY	Left	No	0.799365500046406	0	585430	234
1144.46484375	1	decision	trialStart	3	153	33	foodImage.61	FOODEEG_Images\0640.jpg	NY	Left	No	0.733316400030162	0	585967	251
1145.505859375	2	decision	foodImageDisplay	3	153	33	foodImage.61	FOODEEG_Images\0640.jpg	NY	Left	No	0.733316400030162	0	586500	252
1147.572265625	0.733316400030162	decision	choicePhaseStart	3	153	33	foodImage.61	FOODEEG_Images\0640.jpg	NY	Left	No	0.733316400030162	0	587558	253
1148.294921875	0	decision	response	3	153	33	foodImage.61	FOODEEG_Images\0640.jpg	NY	Left	No	0.733316400030162	0	587928	234
1149.337890625	1	taste	trialStart	3	154	34	foodImage.101	FOODEEG_Images\0909.jpg	NY	Left	No	0.680877800041344	0	588462	251
1150.376953125	2	taste	foodImageDisplay	3	154	34	foodImage.101	FOODEEG_Images\0909.jpg	NY	Left	No	0.680877800041344	0	588994	252
1152.439453125	0.680877800041344	taste	choicePhaseStart	3	154	34	foodImage.101	FOODEEG_Images\0909.jpg	NY	Left	No	0.680877800041344	0	590050	253
1153.111328125	0	taste	response	3	154	34	foodImage.101	FOODEEG_Images\0909.jpg	NY	Left	No	0.680877800041344	0	590394	234
1154.15234375	1	decision	trialStart	3	155	35	foodImage.64	FOODEEG_Images\0647.jpg	NY	Left	No	1.5109210999799	0	590927	251
1155.234375	2	decision	foodImageDisplay	3	155	35	foodImage.64	FOODEEG_Images\0647.jpg	NY	Left	No	1.5109210999799	0	591481	252
1157.298828125	1.5109210999799	decision	choicePhaseStart	3	155	35	foodImage.64	FOODEEG_Images\0647.jpg	NY	Left	No	1.5109210999799	0	592538	253
1158.798828125	0	decision	response	3	155	35	foodImage.64	FOODEEG_Images\0647.jpg	NY	Left	No	1.5109210999799	0	593306	234
1159.84375	1	taste	trialStart	3	156	36	foodImage.107	FOODEEG_Images\0915.jpg	YN	Right	No	0.712221599998884	0	593841	251
1160.896484375	2	taste	foodImageDisplay	3	156	36	foodImage.107	FOODEEG_Images\0915.jpg	YN	Right	No	0.712221599998884	0	594380	252
1162.958984375	0.712221599998884	taste	choicePhaseStart	3	156	36	foodImage.107	FOODEEG_Images\0915.jpg	YN	Right	No	0.712221599998884	0	595436	253
1163.662109375	0	taste	response	3	156	36	foodImage.107	FOODEEG_Images\0915.jpg	YN	Right	No	0.712221599998884	0	595796	235
1164.708984375	1	health	trialStart	3	157	37	foodImage.117	FOODEEG_Images\0925.jpg	NY	Left	No	0.925416199956089	0	596332	251
1165.763671875	2	health	foodImageDisplay	3	157	37	foodImage.117	FOODEEG_Images\0925.jpg	NY	Left	No	0.925416199956089	0	596872	252
1167.82421875	0.925416199956089	health	choicePhaseStart	3	157	37	foodImage.117	FOODEEG_Images\0925.jpg	NY	Left	No	0.925416199956089	0	597927	253
1168.7421875	0	health	response	3	157	37	foodImage.117	FOODEEG_Images\0925.jpg	NY	Left	No	0.925416199956089	0	598397	234
1169.791015625	1	taste	trialStart	3	158	38	foodImage.28	FOODEEG_Images\0273.jpg	YN	Right	No	1.30273549997946	0	598934	251
1170.833984375	2	taste	foodImageDisplay	3	158	38	foodImage.28	FOODEEG_Images\0273.jpg	YN	Right	No	1.30273549997946	0	599468	252
1172.896484375	1.30273549997946	taste	choicePhaseStart	3	158	38	foodImage.28	FOODEEG_Images\0273.jpg	YN	Right	No	1.30273549997946	0	600524	253
1174.19140625	0	taste	response	3	158	38	foodImage.28	FOODEEG_Images\0273.jpg	YN	Right	No	1.30273549997946	0	601187	235
1175.236328125	1	taste	trialStart	3	159	39	foodImage.21	FOODEEG_Images\0234.jpg	NY	Right	Yes	1.003350999963	0	601722	251
1176.31640625	2	taste	foodImageDisplay	3	159	39	foodImage.21	FOODEEG_Images\0234.jpg	NY	Right	Yes	1.003350999963	0	602275	252
1178.380859375	1.003350999963	taste	choicePhaseStart	3	159	39	foodImage.21	FOODEEG_Images\0234.jpg	NY	Right	Yes	1.003350999963	0	603332	253
1179.375	0	taste	response	3	159	39	foodImage.21	FOODEEG_Images\0234.jpg	NY	Right	Yes	1.003350999963	0	603841	235
1180.41796875	1	decision	trialStart	3	160	40	foodImage.24	FOODEEG_Images\0250.jpg	NY	Left	No	0.964954899973236	0	604375	251
1181.4609375	2	decision	foodImageDisplay	3	160	40	foodImage.24	FOODEEG_Images\0250.jpg	NY	Left	No	0.964954899973236	0	604909	252
1183.5234375	0.964954899973236	decision	choicePhaseStart	3	160	40	foodImage.24	FOODEEG_Images\0250.jpg	NY	Left	No	0.964954899973236	0	605965	253
1184.478515625	0	decision	response	3	160	40	foodImage.24	FOODEEG_Images\0250.jpg	NY	Left	No	0.964954899973236	0	606454	234
1185.5234375	1	health	trialStart	3	161	41	foodImage.94	FOODEEG_Images\0902.jpg	YN	Left	Yes	1.04761970002437	0	606989	251
1186.560546875	2	health	foodImageDisplay	3	161	41	foodImage.94	FOODEEG_Images\0902.jpg	YN	Left	Yes	1.04761970002437	0	607520	252
1188.623046875	1.04761970002437	health	choicePhaseStart	3	161	41	foodImage.94	FOODEEG_Images\0902.jpg	YN	Left	Yes	1.04761970002437	0	608576	253
1189.662109375	0	health	response	3	161	41	foodImage.94	FOODEEG_Images\0902.jpg	YN	Left	Yes	1.04761970002437	0	609108	234
1190.705078125	1	taste	trialStart	3	162	42	foodImage.57	FOODEEG_Images\0587.jpg	NY	Right	Yes	1.07205519999843	0	609642	251
1191.75	2	taste	foodImageDisplay	3	162	42	foodImage.57	FOODEEG_Images\0587.jpg	NY	Right	Yes	1.07205519999843	0	610177	252
1193.814453125	1.07205519999843	taste	choicePhaseStart	3	162	42	foodImage.57	FOODEEG_Images\0587.jpg	NY	Right	Yes	1.07205519999843	0	611234	253
1194.87890625	0	taste	response	3	162	42	foodImage.57	FOODEEG_Images\0587.jpg	NY	Right	Yes	1.07205519999843	0	611779	235
1195.92578125	1	health	trialStart	3	163	43	foodImage.29	FOODEEG_Images\0278.jpg	NY	Right	Yes	1.08670629997505	0	612315	251
1196.96875	2	health	foodImageDisplay	3	163	43	foodImage.29	FOODEEG_Images\0278.jpg	NY	Right	Yes	1.08670629997505	0	612849	252
1199.03125	1.08670629997505	health	choicePhaseStart	3	163	43	foodImage.29	FOODEEG_Images\0278.jpg	NY	Right	Yes	1.08670629997505	0	613905	253
1200.109375	0	health	response	3	163	43	foodImage.29	FOODEEG_Images\0278.jpg	NY	Right	Yes	1.08670629997505	0	614457	235
1201.15234375	1	health	trialStart	3	164	44	foodImage.16	FOODEEG_Images\0196.jpg	NY	Right	Yes	0.544402299972717	0	614991	251
1202.21484375	2	health	foodImageDisplay	3	164	44	foodImage.16	FOODEEG_Images\0196.jpg	NY	Right	Yes	0.544402299972717	0	615535	252
1204.27734375	0.544402299972717	health	choicePhaseStart	3	164	44	foodImage.16	FOODEEG_Images\0196.jpg	NY	Right	Yes	0.544402299972717	0	616591	253
1204.8125	0	health	response	3	164	44	foodImage.16	FOODEEG_Images\0196.jpg	NY	Right	Yes	0.544402299972717	0	616865	235
1205.85546875	1	decision	trialStart	3	165	45	foodImage.118	FOODEEG_Images\0926.jpg	YN	Right	No	1.37817490001908	0	617399	251
1206.89453125	2	decision	foodImageDisplay	3	165	45	foodImage.118	FOODEEG_Images\0926.jpg	YN	Right	No	1.37817490001908	0	617931	252
1208.95703125	1.37817490001908	decision	choicePhaseStart	3	165	45	foodImage.118	FOODEEG_Images\0926.jpg	YN	Right	No	1.37817490001908	0	618987	253
1210.326171875	0	decision	response	3	165	45	foodImage.118	FOODEEG_Images\0926.jpg	YN	Right	No	1.37817490001908	0	619688	235
1211.3671875	1	decision	trialStart	3	166	46	foodImage.22	FOODEEG_Images\0236.jpg	YN	Left	Yes	1.38135679997504	0	620221	251
1212.41015625	2	decision	foodImageDisplay	3	166	46	foodImage.22	FOODEEG_Images\0236.jpg	YN	Left	Yes	1.38135679997504	0	620755	252
1214.47265625	1.38135679997504	decision	choicePhaseStart	3	166	46	foodImage.22	FOODEEG_Images\0236.jpg	YN	Left	Yes	1.38135679997504	0	621811	253
1215.845703125	0	decision	response	3	166	46	foodImage.22	FOODEEG_Images\0236.jpg	YN	Left	Yes	1.38135679997504	0	622514	234
1216.888671875	1	taste	trialStart	3	167	47	foodImage.34	FOODEEG_Images\0339.jpg	NY	Left	No	1.03668770001968	0	623048	251
1217.962890625	2	taste	foodImageDisplay	3	167	47	foodImage.34	FOODEEG_Images\0339.jpg	NY	Left	No	1.03668770001968	0	623598	252
1220.025390625	1.03668770001968	taste	choicePhaseStart	3	167	47	foodImage.34	FOODEEG_Images\0339.jpg	NY	Left	No	1.03668770001968	0	624654	253
1221.052734375	0	taste	response	3	167	47	foodImage.34	FOODEEG_Images\0339.jpg	NY	Left	No	1.03668770001968	0	625180	234
1222.09765625	1	taste	trialStart	3	168	48	foodImage.118	FOODEEG_Images\0926.jpg	YN	Right	No	0.744213600002695	0	625715	251
1223.134765625	2	taste	foodImageDisplay	3	168	48	foodImage.118	FOODEEG_Images\0926.jpg	YN	Right	No	0.744213600002695	0	626246	252
1225.197265625	0.744213600002695	taste	choicePhaseStart	3	168	48	foodImage.118	FOODEEG_Images\0926.jpg	YN	Right	No	0.744213600002695	0	627302	253
1225.93359375	0	taste	response	3	168	48	foodImage.118	FOODEEG_Images\0926.jpg	YN	Right	No	0.744213600002695	0	627679	235
1226.9765625	1	taste	trialStart	3	169	49	foodImage.64	FOODEEG_Images\0647.jpg	YN	Right	No	1.44517349998932	0	628213	251
1228.033203125	2	taste	foodImageDisplay	3	169	49	foodImage.64	FOODEEG_Images\0647.jpg	YN	Right	No	1.44517349998932	0	628754	252
1230.095703125	1.44517349998932	taste	choicePhaseStart	3	169	49	foodImage.64	FOODEEG_Images\0647.jpg	YN	Right	No	1.44517349998932	0	629810	253
1231.533203125	0	taste	response	3	169	49	foodImage.64	FOODEEG_Images\0647.jpg	YN	Right	No	1.44517349998932	0	630546	235
1232.57421875	1	decision	trialStart	3	170	50	foodImage.92	FOODEEG_Images\0900.jpg	NY	Left	No	0.697289299976546	0	631079	251
1233.61328125	2	decision	foodImageDisplay	3	170	50	foodImage.92	FOODEEG_Images\0900.jpg	NY	Left	No	0.697289299976546	0	631611	252
1235.67578125	0.697289299976546	decision	choicePhaseStart	3	170	50	foodImage.92	FOODEEG_Images\0900.jpg	NY	Left	No	0.697289299976546	0	632667	253
1236.36328125	0	decision	response	3	170	50	foodImage.92	FOODEEG_Images\0900.jpg	NY	Left	No	0.697289299976546	0	633019	234
1237.40625	1	decision	trialStart	3	171	51	foodImage.99	FOODEEG_Images\0907.jpg	NY	Right	Yes	1.12227110000094	0	633553	251
1238.451171875	2	decision	foodImageDisplay	3	171	51	foodImage.99	FOODEEG_Images\0907.jpg	NY	Right	Yes	1.12227110000094	0	634088	252
1240.515625	1.12227110000094	decision	choicePhaseStart	3	171	51	foodImage.99	FOODEEG_Images\0907.jpg	NY	Right	Yes	1.12227110000094	0	635145	253
1241.62890625	0	decision	response	3	171	51	foodImage.99	FOODEEG_Images\0907.jpg	NY	Right	Yes	1.12227110000094	0	635715	235
1242.673828125	1	decision	trialStart	3	172	52	foodImage.51	FOODEEG_Images\0536.jpg	YN	Left	Yes	0.958760500012431	0	636250	251
1243.720703125	2	decision	foodImageDisplay	3	172	52	foodImage.51	FOODEEG_Images\0536.jpg	YN	Left	Yes	0.958760500012431	0	636786	252
1245.78125	0.958760500012431	decision	choicePhaseStart	3	172	52	foodImage.51	FOODEEG_Images\0536.jpg	YN	Left	Yes	0.958760500012431	0	637841	253
1246.732421875	0	decision	response	3	172	52	foodImage.51	FOODEEG_Images\0536.jpg	YN	Left	Yes	0.958760500012431	0	638328	234
1247.775390625	1	taste	trialStart	3	173	53	foodImage.30	FOODEEG_Images\0282.jpg	NY	Left	No	1.54968029999873	0	638862	251
1248.81640625	2	taste	foodImageDisplay	3	173	53	foodImage.30	FOODEEG_Images\0282.jpg	NY	Left	No	1.54968029999873	0	639395	252
1250.87890625	1.54968029999873	taste	choicePhaseStart	3	173	53	foodImage.30	FOODEEG_Images\0282.jpg	NY	Left	No	1.54968029999873	0	640451	253
1252.419921875	0	taste	response	3	173	53	foodImage.30	FOODEEG_Images\0282.jpg	NY	Left	No	1.54968029999873	0	641240	234
1253.462890625	1	health	trialStart	3	174	54	foodImage.20	FOODEEG_Images\0226.jpg	YN	Left	Yes	1.32799800002249	0	641774	251
1254.501953125	2	health	foodImageDisplay	3	174	54	foodImage.20	FOODEEG_Images\0226.jpg	YN	Left	Yes	1.32799800002249	0	642306	252
1256.564453125	1.32799800002249	health	choicePhaseStart	3	174	54	foodImage.20	FOODEEG_Images\0226.jpg	YN	Left	Yes	1.32799800002249	0	643362	253
1257.884765625	0	health	response	3	174	54	foodImage.20	FOODEEG_Images\0226.jpg	YN	Left	Yes	1.32799800002249	0	644038	234
1258.927734375	1	taste	trialStart	3	175	55	foodImage.27	FOODEEG_Images\0263.jpg	YN	Right	No	0.697825499984901	0	644572	251
1259.98828125	2	taste	foodImageDisplay	3	175	55	foodImage.27	FOODEEG_Images\0263.jpg	YN	Right	No	0.697825499984901	0	645115	252
1262.05078125	0.697825499984901	taste	choicePhaseStart	3	175	55	foodImage.27	FOODEEG_Images\0263.jpg	YN	Right	No	0.697825499984901	0	646171	253
1262.73828125	0	taste	response	3	175	55	foodImage.27	FOODEEG_Images\0263.jpg	YN	Right	No	0.697825499984901	0	646523	235
1263.783203125	1	taste	trialStart	3	176	56	foodImage.70	FOODEEG_Images\0705.jpg	YN	Left	Yes	0.603274799999781	0	647058	251
1264.84375	2	taste	foodImageDisplay	3	176	56	foodImage.70	FOODEEG_Images\0705.jpg	YN	Left	Yes	0.603274799999781	0	647601	252
1266.90625	0.603274799999781	taste	choicePhaseStart	3	176	56	foodImage.70	FOODEEG_Images\0705.jpg	YN	Left	Yes	0.603274799999781	0	648657	253
1267.5	0	taste	response	3	176	56	foodImage.70	FOODEEG_Images\0705.jpg	YN	Left	Yes	0.603274799999781	0	648961	234
1268.546875	1	decision	trialStart	3	177	57	foodImage.31	FOODEEG_Images\0294.jpg	YN	Left	Yes	0.938540800008923	0	649497	251
1269.609375	2	decision	foodImageDisplay	3	177	57	foodImage.31	FOODEEG_Images\0294.jpg	YN	Left	Yes	0.938540800008923	0	650041	252
1271.673828125	0.938540800008923	decision	choicePhaseStart	3	177	57	foodImage.31	FOODEEG_Images\0294.jpg	YN	Left	Yes	0.938540800008923	0	651098	253
1272.603515625	0	decision	response	3	177	57	foodImage.31	FOODEEG_Images\0294.jpg	YN	Left	Yes	0.938540800008923	0	651574	234
1273.6484375	1	taste	trialStart	3	178	58	foodImage.75	FOODEEG_Images\0763.jpg	NY	Left	No	0.776014700008091	0	652109	251
1274.693359375	2	taste	foodImageDisplay	3	178	58	foodImage.75	FOODEEG_Images\0763.jpg	NY	Left	No	0.776014700008091	0	652644	252
1276.755859375	0.776014700008091	taste	choicePhaseStart	3	178	58	foodImage.75	FOODEEG_Images\0763.jpg	NY	Left	No	0.776014700008091	0	653700	253
1277.521484375	0	taste	response	3	178	58	foodImage.75	FOODEEG_Images\0763.jpg	NY	Left	No	0.776014700008091	0	654092	234
1278.56640625	1	decision	trialStart	3	179	59	foodImage.38	FOODEEG_Images\0365.jpg	YN	Right	No	1.60864470002707	0	654627	251
1279.603515625	2	decision	foodImageDisplay	3	179	59	foodImage.38	FOODEEG_Images\0365.jpg	YN	Right	No	1.60864470002707	0	655158	252
1281.666015625	1.60864470002707	decision	choicePhaseStart	3	179	59	foodImage.38	FOODEEG_Images\0365.jpg	YN	Right	No	1.60864470002707	0	656214	253
1283.265625	0	decision	response	3	179	59	foodImage.38	FOODEEG_Images\0365.jpg	YN	Right	No	1.60864470002707	0	657033	235
1284.306640625	1	decision	trialStart	3	180	60	foodImage.120	FOODEEG_Images\0928.jpg	YN	Right	No	0.736396500025876	0	657566	251
1285.34765625	2	decision	foodImageDisplay	3	180	60	foodImage.120	FOODEEG_Images\0928.jpg	YN	Right	No	0.736396500025876	0	658099	252
1287.41015625	0.736396500025876	decision	choicePhaseStart	3	180	60	foodImage.120	FOODEEG_Images\0928.jpg	YN	Right	No	0.736396500025876	0	659155	253
1288.138671875	0	decision	response	3	180	60	foodImage.120	FOODEEG_Images\0928.jpg	YN	Right	No	0.736396500025876	0	659528	235
1290.181640625	24.9375	n/a	blockEnd	n/a	n/a	n/a	n/a	n/a	n/a	n/a	n/a	n/a	n/a	660574	254
1315.119140625	2	n/a	blockStart	4	n/a	n/a	n/a	n/a	n/a	n/a	n/a	n/a	n/a	673342	250
1317.15625	1	taste	trialStart	4	181	1	foodImage.60	FOODEEG_Images\0614.jpg	YN	Left	Yes	2.91463569999905	0	674385	251
1318.216796875	2	taste	foodImageDisplay	4	181	1	foodImage.60	FOODEEG_Images\0614.jpg	YN	Left	Yes	2.91463569999905	0	674928	252
1320.279296875	2.91463569999905	taste	choicePhaseStart	4	181	1	foodImage.60	FOODEEG_Images\0614.jpg	YN	Left	Yes	2.91463569999905	0	675984	253
1323.185546875	0	taste	response	4	181	1	foodImage.60	FOODEEG_Images\0614.jpg	YN	Left	Yes	2.91463569999905	0	677472	234
1324.2265625	1	health	trialStart	4	182	2	foodImage.77	FOODEEG_Images\0771.jpg	YN	Left	Yes	0.798358100000769	0	678005	251
1325.26953125	2	health	foodImageDisplay	4	182	2	foodImage.77	FOODEEG_Images\0771.jpg	YN	Left	Yes	0.798358100000769	0	678539	252
1327.33203125	0.798358100000769	health	choicePhaseStart	4	182	2	foodImage.77	FOODEEG_Images\0771.jpg	YN	Left	Yes	0.798358100000769	0	679595	253
1328.12109375	0	health	response	4	182	2	foodImage.77	FOODEEG_Images\0771.jpg	YN	Left	Yes	0.798358100000769	0	679999	234
1329.162109375	1	decision	trialStart	4	183	3	foodImage.53	FOODEEG_Images\0547.jpg	NY	Right	Yes	0.998850099975243	0	680532	251
1330.24609375	2	decision	foodImageDisplay	4	183	3	foodImage.53	FOODEEG_Images\0547.jpg	NY	Right	Yes	0.998850099975243	0	681087	252
1332.306640625	0.998850099975243	decision	choicePhaseStart	4	183	3	foodImage.53	FOODEEG_Images\0547.jpg	NY	Right	Yes	0.998850099975243	0	682142	253
1333.296875	0	decision	response	4	183	3	foodImage.53	FOODEEG_Images\0547.jpg	NY	Right	Yes	0.998850099975243	0	682649	235
1334.33984375	1	health	trialStart	4	184	4	foodImage.46	FOODEEG_Images\0479.jpg	YN	Left	Yes	1.34350449999329	0	683183	251
1335.39453125	2	health	foodImageDisplay	4	184	4	foodImage.46	FOODEEG_Images\0479.jpg	YN	Left	Yes	1.34350449999329	0	683723	252
1337.45703125	1.34350449999329	health	choicePhaseStart	4	184	4	foodImage.46	FOODEEG_Images\0479.jpg	YN	Left	Yes	1.34350449999329	0	684779	253
1338.79296875	0	health	response	4	184	4	foodImage.46	FOODEEG_Images\0479.jpg	YN	Left	Yes	1.34350449999329	0	685463	234
1339.833984375	1	taste	trialStart	4	185	5	foodImage.48	FOODEEG_Images\0494.jpg	YN	Right	No	1.16804939997382	0	685996	251
1340.875	2	taste	foodImageDisplay	4	185	5	foodImage.48	FOODEEG_Images\0494.jpg	YN	Right	No	1.16804939997382	0	686529	252
1342.9375	1.16804939997382	taste	choicePhaseStart	4	185	5	foodImage.48	FOODEEG_Images\0494.jpg	YN	Right	No	1.16804939997382	0	687585	253
1344.095703125	0	taste	response	4	185	5	foodImage.48	FOODEEG_Images\0494.jpg	YN	Right	No	1.16804939997382	0	688178	235
1345.138671875	1	health	trialStart	4	186	6	foodImage.15	FOODEEG_Images\0189.jpg	NY	Left	No	1.25543180003297	0	688712	251
1346.203125	2	health	foodImageDisplay	4	186	6	foodImage.15	FOODEEG_Images\0189.jpg	NY	Left	No	1.25543180003297	0	689257	252
1348.265625	1.25543180003297	health	choicePhaseStart	4	186	6	foodImage.15	FOODEEG_Images\0189.jpg	NY	Left	No	1.25543180003297	0	690313	253
1349.51171875	0	health	response	4	186	6	foodImage.15	FOODEEG_Images\0189.jpg	NY	Left	No	1.25543180003297	0	690951	234
1350.55859375	1	taste	trialStart	4	187	7	foodImage.93	FOODEEG_Images\0901.jpg	NY	Left	No	0.644563599955291	0	691487	251
1351.59765625	2	taste	foodImageDisplay	4	187	7	foodImage.93	FOODEEG_Images\0901.jpg	NY	Left	No	0.644563599955291	0	692019	252
1353.66015625	0.644563599955291	taste	choicePhaseStart	4	187	7	foodImage.93	FOODEEG_Images\0901.jpg	NY	Left	No	0.644563599955291	0	693075	253
1354.294921875	0	taste	response	4	187	7	foodImage.93	FOODEEG_Images\0901.jpg	NY	Left	No	0.644563599955291	0	693400	234
1355.33984375	1	decision	trialStart	4	188	8	foodImage.26	FOODEEG_Images\0262.jpg	NY	Left	No	1.71635790000437	0	693935	251
1356.3984375	2	decision	foodImageDisplay	4	188	8	foodImage.26	FOODEEG_Images\0262.jpg	NY	Left	No	1.71635790000437	0	694477	252
1358.458984375	1.71635790000437	decision	choicePhaseStart	4	188	8	foodImage.26	FOODEEG_Images\0262.jpg	NY	Left	No	1.71635790000437	0	695532	253
1360.16796875	0	decision	response	4	188	8	foodImage.26	FOODEEG_Images\0262.jpg	NY	Left	No	1.71635790000437	0	696407	234
1361.21484375	1	taste	trialStart	4	189	9	foodImage.46	FOODEEG_Images\0479.jpg	YN	Right	No	2.04944859998068	0	696943	251
1362.2734375	2	taste	foodImageDisplay	4	189	9	foodImage.46	FOODEEG_Images\0479.jpg	YN	Right	No	2.04944859998068	0	697485	252
1364.3359375	2.04944859998068	taste	choicePhaseStart	4	189	9	foodImage.46	FOODEEG_Images\0479.jpg	YN	Right	No	2.04944859998068	0	698541	253
1366.375	0	taste	response	4	189	9	foodImage.46	FOODEEG_Images\0479.jpg	YN	Right	No	2.04944859998068	0	699585	235
1367.41796875	1	health	trialStart	4	190	10	foodImage.85	FOODEEG_Images\0841.jpg	NY	Left	No	0.926243300025817	0	700119	251
1368.47265625	2	health	foodImageDisplay	4	190	10	foodImage.85	FOODEEG_Images\0841.jpg	NY	Left	No	0.926243300025817	0	700659	252
1370.53515625	0.926243300025817	health	choicePhaseStart	4	190	10	foodImage.85	FOODEEG_Images\0841.jpg	NY	Left	No	0.926243300025817	0	701715	253
1371.455078125	0	health	response	4	190	10	foodImage.85	FOODEEG_Images\0841.jpg	NY	Left	No	0.926243300025817	0	702186	234
1372.498046875	1	decision	trialStart	4	191	11	foodImage.91	FOODEEG_Images\0896.jpg	NY	Right	Yes	1.33466549997684	0	702720	251
1373.572265625	2	decision	foodImageDisplay	4	191	11	foodImage.91	FOODEEG_Images\0896.jpg	NY	Right	Yes	1.33466549997684	0	703270	252
1375.634765625	1.33466549997684	decision	choicePhaseStart	4	191	11	foodImage.91	FOODEEG_Images\0896.jpg	NY	Right	Yes	1.33466549997684	0	704326	253
1376.958984375	0	decision	response	4	191	11	foodImage.91	FOODEEG_Images\0896.jpg	NY	Right	Yes	1.33466549997684	0	705004	235
1378.0078125	1	health	trialStart	4	192	12	foodImage.9	FOODEEG_Images\0138.jpg	NY	Left	No	0.791019900003448	0	705541	251
1379.064453125	2	health	foodImageDisplay	4	192	12	foodImage.9	FOODEEG_Images\0138.jpg	NY	Left	No	0.791019900003448	0	706082	252
1381.126953125	0.791019900003448	health	choicePhaseStart	4	192	12	foodImage.9	FOODEEG_Images\0138.jpg	NY	Left	No	0.791019900003448	0	707138	253
1381.91015625	0	health	response	4	192	12	foodImage.9	FOODEEG_Images\0138.jpg	NY	Left	No	0.791019900003448	0	707539	234
1382.951171875	1	decision	trialStart	4	193	13	foodImage.47	FOODEEG_Images\0488.jpg	YN	Right	No	1.20572870003525	0	708072	251
1383.994140625	2	decision	foodImageDisplay	4	193	13	foodImage.47	FOODEEG_Images\0488.jpg	YN	Right	No	1.20572870003525	0	708606	252
1386.056640625	1.20572870003525	decision	choicePhaseStart	4	193	13	foodImage.47	FOODEEG_Images\0488.jpg	YN	Right	No	1.20572870003525	0	709662	253
1387.25390625	0	decision	response	4	193	13	foodImage.47	FOODEEG_Images\0488.jpg	YN	Right	No	1.20572870003525	0	710275	235
1388.296875	1	taste	trialStart	4	194	14	foodImage.24	FOODEEG_Images\0250.jpg	NY	Left	No	0.747847000020556	0	710809	251
1389.33984375	2	taste	foodImageDisplay	4	194	14	foodImage.24	FOODEEG_Images\0250.jpg	NY	Left	No	0.747847000020556	0	711343	252
1391.40234375	0.747847000020556	taste	choicePhaseStart	4	194	14	foodImage.24	FOODEEG_Images\0250.jpg	NY	Left	No	0.747847000020556	0	712399	253
1392.142578125	0	taste	response	4	194	14	foodImage.24	FOODEEG_Images\0250.jpg	NY	Left	No	0.747847000020556	0	712778	234
