onset	duration	trial_type	event_type	block	trial_total	trial_in_block	food_image_code	food_image_path	button_position	resp_position	resp_choice	choice_rt	resp_too_slow	sample	trigger
273.271484375	2	n/a	blockStart	1	n/a	n/a	n/a	n/a	n/a	n/a	n/a	n/a	n/a	139916	250
275.310546875	1	health	trialStart	1	1	1	foodImage.6	FOODEEG_Images\0113.jpg	NY	Left	No	1.19562340015545	0	140960	251
276.361328125	2	health	foodImageDisplay	1	1	1	foodImage.6	FOODEEG_Images\0113.jpg	NY	Left	No	1.19562340015545	0	141498	252
278.42578125	1.19562340015545	health	choicePhaseStart	1	1	1	foodImage.6	FOODEEG_Images\0113.jpg	NY	Left	No	1.19562340015545	0	142555	253
279.615234375	0	health	response	1	1	1	foodImage.6	FOODEEG_Images\0113.jpg	NY	Left	No	1.19562340015545	0	143164	234
280.708984375	1	taste	trialStart	1	2	2	foodImage.95	FOODEEG_Images\0903.jpg	NY	Left	No	1.09682059986517	0	143724	251
281.75	2	taste	foodImageDisplay	1	2	2	foodImage.95	FOODEEG_Images\0903.jpg	NY	Left	No	1.09682059986517	0	144257	252
283.814453125	1.09682059986517	taste	choicePhaseStart	1	2	2	foodImage.95	FOODEEG_Images\0903.jpg	NY	Left	No	1.09682059986517	0	145314	253
284.90234375	0	taste	response	1	2	2	foodImage.95	FOODEEG_Images\0903.jpg	NY	Left	No	1.09682059986517	0	145871	234
285.958984375	1	taste	trialStart	1	3	3	foodImage.83	FOODEEG_Images\0827.jpg	YN	Left	Yes	1.1737612998113	0	146412	251
287.017578125	2	taste	foodImageDisplay	1	3	3	foodImage.83	FOODEEG_Images\0827.jpg	YN	Left	Yes	1.1737612998113	0	146954	252
289.080078125	1.1737612998113	taste	choicePhaseStart	1	3	3	foodImage.83	FOODEEG_Images\0827.jpg	YN	Left	Yes	1.1737612998113	0	148010	253
290.24609375	0	taste	response	1	3	3	foodImage.83	FOODEEG_Images\0827.jpg	YN	Left	Yes	1.1737612998113	0	148607	234
291.291015625	1	taste	trialStart	1	4	4	foodImage.96	FOODEEG_Images\0904.jpg	YN	Right	No	2.39723919983953	0	149142	251
292.330078125	2	taste	foodImageDisplay	1	4	4	foodImage.96	FOODEEG_Images\0904.jpg	YN	Right	No	2.39723919983953	0	149674	252
294.392578125	2.39723919983953	taste	choicePhaseStart	1	4	4	foodImage.96	FOODEEG_Images\0904.jpg	YN	Right	No	2.39723919983953	0	150730	253
296.78125	0	taste	response	1	4	4	foodImage.96	FOODEEG_Images\0904.jpg	YN	Right	No	2.39723919983953	0	151953	235
297.82421875	1	decision	trialStart	1	5	5	foodImage.47	FOODEEG_Images\0488.jpg	NY	Right	Yes	0.840812999987975	0	152487	251
298.869140625	2	decision	foodImageDisplay	1	5	5	foodImage.47	FOODEEG_Images\0488.jpg	NY	Right	Yes	0.840812999987975	0	153022	252
300.93359375	0.840812999987975	decision	choicePhaseStart	1	5	5	foodImage.47	FOODEEG_Images\0488.jpg	NY	Right	Yes	0.840812999987975	0	154079	253
301.765625	0	decision	response	1	5	5	foodImage.47	FOODEEG_Images\0488.jpg	NY	Right	Yes	0.840812999987975	0	154505	235
302.814453125	1	taste	trialStart	1	6	6	foodImage.71	FOODEEG_Images\0713.jpg	NY	Right	Yes	0.892377000069246	0	155042	251
303.857421875	2	taste	foodImageDisplay	1	6	6	foodImage.71	FOODEEG_Images\0713.jpg	NY	Right	Yes	0.892377000069246	0	155576	252
305.921875	0.892377000069246	taste	choicePhaseStart	1	6	6	foodImage.71	FOODEEG_Images\0713.jpg	NY	Right	Yes	0.892377000069246	0	156633	253
306.8046875	0	taste	response	1	6	6	foodImage.71	FOODEEG_Images\0713.jpg	NY	Right	Yes	0.892377000069246	0	157085	235
307.849609375	1	taste	trialStart	1	7	7	foodImage.36	FOODEEG_Images\0352.jpg	NY	Right	Yes	0.727818900020793	0	157620	251
308.90625	2	taste	foodImageDisplay	1	7	7	foodImage.36	FOODEEG_Images\0352.jpg	NY	Right	Yes	0.727818900020793	0	158161	252
310.970703125	0.727818900020793	taste	choicePhaseStart	1	7	7	foodImage.36	FOODEEG_Images\0352.jpg	NY	Right	Yes	0.727818900020793	0	159218	253
311.693359375	0	taste	response	1	7	7	foodImage.36	FOODEEG_Images\0352.jpg	NY	Right	Yes	0.727818900020793	0	159588	235
312.734375	1	decision	trialStart	1	8	8	foodImage.99	FOODEEG_Images\0907.jpg	NY	Left	No	0.864705900195986	0	160121	251
313.7734375	2	decision	foodImageDisplay	1	8	8	foodImage.99	FOODEEG_Images\0907.jpg	NY	Left	No	0.864705900195986	0	160653	252
315.8359375	0.864705900195986	decision	choicePhaseStart	1	8	8	foodImage.99	FOODEEG_Images\0907.jpg	NY	Left	No	0.864705900195986	0	161709	253
316.693359375	0	decision	response	1	8	8	foodImage.99	FOODEEG_Images\0907.jpg	NY	Left	No	0.864705900195986	0	162148	234
317.740234375	1	taste	trialStart	1	9	9	foodImage.116	FOODEEG_Images\0924.jpg	NY	Left	No	0.714298400096595	0	162684	251
318.779296875	2	taste	foodImageDisplay	1	9	9	foodImage.116	FOODEEG_Images\0924.jpg	NY	Left	No	0.714298400096595	0	163216	252
320.84375	0.714298400096595	taste	choicePhaseStart	1	9	9	foodImage.116	FOODEEG_Images\0924.jpg	NY	Left	No	0.714298400096595	0	164273	253
321.548828125	0	taste	response	1	9	9	foodImage.116	FOODEEG_Images\0924.jpg	NY	Left	No	0.714298400096595	0	164634	234
322.591796875	1	taste	trialStart	1	10	10	foodImage.27	FOODEEG_Images\0263.jpg	YN	Left	Yes	1.23252530000173	0	165168	251
323.6328125	2	taste	foodImageDisplay	1	10	10	foodImage.27	FOODEEG_Images\0263.jpg	YN	Left	Yes	1.23252530000173	0	165701	252
325.701171875	1.23252530000173	taste	choicePhaseStart	1	10	10	foodImage.27	FOODEEG_Images\0263.jpg	YN	Left	Yes	1.23252530000173	0	166760	253
326.92578125	0	taste	response	1	10	10	foodImage.27	FOODEEG_Images\0263.jpg	YN	Left	Yes	1.23252530000173	0	167387	234
327.966796875	1	health	trialStart	1	11	11	foodImage.54	FOODEEG_Images\0560.jpg	NY	Right	Yes	0.919143399922177	0	167920	251
329.021484375	2	health	foodImageDisplay	1	11	11	foodImage.54	FOODEEG_Images\0560.jpg	NY	Right	Yes	0.919143399922177	0	168460	252
331.0859375	0.919143399922177	health	choicePhaseStart	1	11	11	foodImage.54	FOODEEG_Images\0560.jpg	NY	Right	Yes	0.919143399922177	0	169517	253
331.998046875	0	health	response	1	11	11	foodImage.54	FOODEEG_Images\0560.jpg	NY	Right	Yes	0.919143399922177	0	169984	235
333.0390625	1	decision	trialStart	1	12	12	foodImage.79	FOODEEG_Images\0794.jpg	YN	Left	Yes	1.3620126999449	0	170517	251
334.08203125	2	decision	foodImageDisplay	1	12	12	foodImage.79	FOODEEG_Images\0794.jpg	YN	Left	Yes	1.3620126999449	0	171051	252
336.1484375	1.3620126999449	decision	choicePhaseStart	1	12	12	foodImage.79	FOODEEG_Images\0794.jpg	YN	Left	Yes	1.3620126999449	0	172109	253
337.5	0	decision	response	1	12	12	foodImage.79	FOODEEG_Images\0794.jpg	YN	Left	Yes	1.3620126999449	0	172801	234
338.54296875	1	taste	trialStart	1	13	13	foodImage.78	FOODEEG_Images\0787.jpg	YN	Right	No	1.24496949999593	0	173335	251
339.583984375	2	taste	foodImageDisplay	1	13	13	foodImage.78	FOODEEG_Images\0787.jpg	YN	Right	No	1.24496949999593	0	173868	252
341.646484375	1.24496949999593	taste	choicePhaseStart	1	13	13	foodImage.78	FOODEEG_Images\0787.jpg	YN	Right	No	1.24496949999593	0	174924	253
342.8828125	0	taste	response	1	13	13	foodImage.78	FOODEEG_Images\0787.jpg	YN	Right	No	1.24496949999593	0	175557	235
343.92578125	1	taste	trialStart	1	14	14	foodImage.105	FOODEEG_Images\0913.jpg	YN	Left	Yes	0.703961699968204	0	176091	251
344.98046875	2	taste	foodImageDisplay	1	14	14	foodImage.105	FOODEEG_Images\0913.jpg	YN	Left	Yes	0.703961699968204	0	176631	252
347.044921875	0.703961699968204	taste	choicePhaseStart	1	14	14	foodImage.105	FOODEEG_Images\0913.jpg	YN	Left	Yes	0.703961699968204	0	177688	253
347.740234375	0	taste	response	1	14	14	foodImage.105	FOODEEG_Images\0913.jpg	YN	Left	Yes	0.703961699968204	0	178044	234
348.787109375	1	taste	trialStart	1	15	15	foodImage.79	FOODEEG_Images\0794.jpg	YN	Left	Yes	1.62304189987481	0	178580	251
349.830078125	2	taste	foodImageDisplay	1	15	15	foodImage.79	FOODEEG_Images\0794.jpg	YN	Left	Yes	1.62304189987481	0	179114	252
351.900390625	1.62304189987481	taste	choicePhaseStart	1	15	15	foodImage.79	FOODEEG_Images\0794.jpg	YN	Left	Yes	1.62304189987481	0	180174	253
353.515625	0	taste	response	1	15	15	foodImage.79	FOODEEG_Images\0794.jpg	YN	Left	Yes	1.62304189987481	0	181001	234
354.560546875	1	health	trialStart	1	16	16	foodImage.23	FOODEEG_Images\0244.jpg	YN	Left	Yes	1.16461459989659	0	181536	251
355.599609375	2	health	foodImageDisplay	1	16	16	foodImage.23	FOODEEG_Images\0244.jpg	YN	Left	Yes	1.16461459989659	0	182068	252
357.6640625	1.16461459989659	health	choicePhaseStart	1	16	16	foodImage.23	FOODEEG_Images\0244.jpg	YN	Left	Yes	1.16461459989659	0	183125	253
358.818359375	0	health	response	1	16	16	foodImage.23	FOODEEG_Images\0244.jpg	YN	Left	Yes	1.16461459989659	0	183716	234
359.8671875	1	taste	trialStart	1	17	17	foodImage.19	FOODEEG_Images\0225.jpg	YN	Left	Yes	0.58316560019739	0	184253	251
360.91015625	2	taste	foodImageDisplay	1	17	17	foodImage.19	FOODEEG_Images\0225.jpg	YN	Left	Yes	0.58316560019739	0	184787	252
362.97265625	0.58316560019739	taste	choicePhaseStart	1	17	17	foodImage.19	FOODEEG_Images\0225.jpg	YN	Left	Yes	0.58316560019739	0	185843	253
363.546875	0	taste	response	1	17	17	foodImage.19	FOODEEG_Images\0225.jpg	YN	Left	Yes	0.58316560019739	0	186137	234
364.58984375	1	decision	trialStart	1	18	18	foodImage.8	FOODEEG_Images\0136.jpg	YN	Right	No	0.948382599977776	0	186671	251
365.630859375	2	decision	foodImageDisplay	1	18	18	foodImage.8	FOODEEG_Images\0136.jpg	YN	Right	No	0.948382599977776	0	187204	252
367.6953125	0.948382599977776	decision	choicePhaseStart	1	18	18	foodImage.8	FOODEEG_Images\0136.jpg	YN	Right	No	0.948382599977776	0	188261	253
368.634765625	0	decision	response	1	18	18	foodImage.8	FOODEEG_Images\0136.jpg	YN	Right	No	0.948382599977776	0	188742	235
369.677734375	1	health	trialStart	1	19	19	foodImage.88	FOODEEG_Images\0878.jpg	YN	Right	No	1.58964530006051	0	189276	251
370.736328125	2	health	foodImageDisplay	1	19	19	foodImage.88	FOODEEG_Images\0878.jpg	YN	Right	No	1.58964530006051	0	189818	252
372.798828125	1.58964530006051	health	choicePhaseStart	1	19	19	foodImage.88	FOODEEG_Images\0878.jpg	YN	Right	No	1.58964530006051	0	190874	253
374.37890625	0	health	response	1	19	19	foodImage.88	FOODEEG_Images\0878.jpg	YN	Right	No	1.58964530006051	0	191683	235
375.421875	1	decision	trialStart	1	20	20	foodImage.36	FOODEEG_Images\0352.jpg	NY	Right	Yes	0.780100300209597	0	192217	251
376.478515625	2	decision	foodImageDisplay	1	20	20	foodImage.36	FOODEEG_Images\0352.jpg	NY	Right	Yes	0.780100300209597	0	192758	252
378.54296875	0.780100300209597	decision	choicePhaseStart	1	20	20	foodImage.36	FOODEEG_Images\0352.jpg	NY	Right	Yes	0.780100300209597	0	193815	253
379.314453125	0	decision	response	1	20	20	foodImage.36	FOODEEG_Images\0352.jpg	NY	Right	Yes	0.780100300209597	0	194210	235
380.35546875	1	health	trialStart	1	21	21	foodImage.106	FOODEEG_Images\0914.jpg	NY	Right	Yes	1.25451539992355	0	194743	251
381.39453125	2	health	foodImageDisplay	1	21	21	foodImage.106	FOODEEG_Images\0914.jpg	NY	Right	Yes	1.25451539992355	0	195275	252
383.458984375	1.25451539992355	health	choicePhaseStart	1	21	21	foodImage.106	FOODEEG_Images\0914.jpg	NY	Right	Yes	1.25451539992355	0	196332	253
384.70703125	0	health	response	1	21	21	foodImage.106	FOODEEG_Images\0914.jpg	NY	Right	Yes	1.25451539992355	0	196971	235
385.748046875	1	health	trialStart	1	22	22	foodImage.49	FOODEEG_Images\0515.jpg	YN	Right	No	1.31453839992173	0	197504	251
386.79296875	2	health	foodImageDisplay	1	22	22	foodImage.49	FOODEEG_Images\0515.jpg	YN	Right	No	1.31453839992173	0	198039	252
388.857421875	1.31453839992173	health	choicePhaseStart	1	22	22	foodImage.49	FOODEEG_Images\0515.jpg	YN	Right	No	1.31453839992173	0	199096	253
390.162109375	0	health	response	1	22	22	foodImage.49	FOODEEG_Images\0515.jpg	YN	Right	No	1.31453839992173	0	199764	235
391.205078125	1	decision	trialStart	1	23	23	foodImage.62	FOODEEG_Images\0644.jpg	YN	Right	No	1.33506660000421	0	200298	251
392.26171875	2	decision	foodImageDisplay	1	23	23	foodImage.62	FOODEEG_Images\0644.jpg	YN	Right	No	1.33506660000421	0	200839	252
394.32421875	1.33506660000421	decision	choicePhaseStart	1	23	23	foodImage.62	FOODEEG_Images\0644.jpg	YN	Right	No	1.33506660000421	0	201895	253
395.650390625	0	decision	response	1	23	23	foodImage.62	FOODEEG_Images\0644.jpg	YN	Right	No	1.33506660000421	0	202574	235
396.693359375	1	health	trialStart	1	24	24	foodImage.109	FOODEEG_Images\0917.jpg	NY	Left	No	1.51232500001788	0	203108	251
397.73046875	2	health	foodImageDisplay	1	24	24	foodImage.109	FOODEEG_Images\0917.jpg	NY	Left	No	1.51232500001788	0	203639	252
399.794921875	1.51232500001788	health	choicePhaseStart	1	24	24	foodImage.109	FOODEEG_Images\0917.jpg	NY	Left	No	1.51232500001788	0	204696	253
401.296875	0	health	response	1	24	24	foodImage.109	FOODEEG_Images\0917.jpg	NY	Left	No	1.51232500001788	0	205465	234
402.33984375	1	decision	trialStart	1	25	25	foodImage.23	FOODEEG_Images\0244.jpg	YN	Left	Yes	1.33682510000654	0	205999	251
403.380859375	2	decision	foodImageDisplay	1	25	25	foodImage.23	FOODEEG_Images\0244.jpg	YN	Left	Yes	1.33682510000654	0	206532	252
405.44921875	1.33682510000654	decision	choicePhaseStart	1	25	25	foodImage.23	FOODEEG_Images\0244.jpg	YN	Left	Yes	1.33682510000654	0	207591	253
406.77734375	0	decision	response	1	25	25	foodImage.23	FOODEEG_Images\0244.jpg	YN	Left	Yes	1.33682510000654	0	208271	234
407.826171875	1	decision	trialStart	1	26	26	foodImage.104	FOODEEG_Images\0912.jpg	NY	Left	No	1.14204499986954	0	208808	251
408.869140625	2	decision	foodImageDisplay	1	26	26	foodImage.104	FOODEEG_Images\0912.jpg	NY	Left	No	1.14204499986954	0	209342	252
410.931640625	1.14204499986954	decision	choicePhaseStart	1	26	26	foodImage.104	FOODEEG_Images\0912.jpg	NY	Left	No	1.14204499986954	0	210398	253
412.064453125	0	decision	response	1	26	26	foodImage.104	FOODEEG_Images\0912.jpg	NY	Left	No	1.14204499986954	0	210978	234
413.10546875	1	health	trialStart	1	27	27	foodImage.74	FOODEEG_Images\0752.jpg	NY	Right	Yes	0.716888099908829	0	211511	251
414.1484375	2	health	foodImageDisplay	1	27	27	foodImage.74	FOODEEG_Images\0752.jpg	NY	Right	Yes	0.716888099908829	0	212045	252
416.212890625	0.716888099908829	health	choicePhaseStart	1	27	27	foodImage.74	FOODEEG_Images\0752.jpg	NY	Right	Yes	0.716888099908829	0	213102	253
416.921875	0	health	response	1	27	27	foodImage.74	FOODEEG_Images\0752.jpg	NY	Right	Yes	0.716888099908829	0	213465	235
417.962890625	1	health	trialStart	1	28	28	foodImage.48	FOODEEG_Images\0494.jpg	YN	Left	Yes	0.747679999796674	0	213998	251
419.005859375	2	health	foodImageDisplay	1	28	28	foodImage.48	FOODEEG_Images\0494.jpg	YN	Left	Yes	0.747679999796674	0	214532	252
421.0703125	0.747679999796674	health	choicePhaseStart	1	28	28	foodImage.48	FOODEEG_Images\0494.jpg	YN	Left	Yes	0.747679999796674	0	215589	253
421.80859375	0	health	response	1	28	28	foodImage.48	FOODEEG_Images\0494.jpg	YN	Left	Yes	0.747679999796674	0	215967	234
422.8515625	1	taste	trialStart	1	29	29	foodImage.38	FOODEEG_Images\0365.jpg	YN	Left	Yes	0.97762000001967	0	216501	251
423.888671875	2	taste	foodImageDisplay	1	29	29	foodImage.38	FOODEEG_Images\0365.jpg	YN	Left	Yes	0.97762000001967	0	217032	252
425.953125	0.97762000001967	taste	choicePhaseStart	1	29	29	foodImage.38	FOODEEG_Images\0365.jpg	YN	Left	Yes	0.97762000001967	0	218089	253
426.919921875	0	taste	response	1	29	29	foodImage.38	FOODEEG_Images\0365.jpg	YN	Left	Yes	0.97762000001967	0	218584	234
427.962890625	1	decision	trialStart	1	30	30	foodImage.70	FOODEEG_Images\0705.jpg	NY	Right	Yes	0.778793399920687	0	219118	251
429.021484375	2	decision	foodImageDisplay	1	30	30	foodImage.70	FOODEEG_Images\0705.jpg	NY	Right	Yes	0.778793399920687	0	219660	252
431.087890625	0.778793399920687	decision	choicePhaseStart	1	30	30	foodImage.70	FOODEEG_Images\0705.jpg	NY	Right	Yes	0.778793399920687	0	220718	253
431.857421875	0	decision	response	1	30	30	foodImage.70	FOODEEG_Images\0705.jpg	NY	Right	Yes	0.778793399920687	0	221112	235
432.8984375	1	taste	trialStart	1	31	31	foodImage.52	FOODEEG_Images\0539.jpg	NY	Right	Yes	1.0587913999334	0	221645	251
433.958984375	2	taste	foodImageDisplay	1	31	31	foodImage.52	FOODEEG_Images\0539.jpg	NY	Right	Yes	1.0587913999334	0	222188	252
436.0234375	1.0587913999334	taste	choicePhaseStart	1	31	31	foodImage.52	FOODEEG_Images\0539.jpg	NY	Right	Yes	1.0587913999334	0	223245	253
437.072265625	0	taste	response	1	31	31	foodImage.52	FOODEEG_Images\0539.jpg	NY	Right	Yes	1.0587913999334	0	223782	235
438.115234375	1	health	trialStart	1	32	32	foodImage.46	FOODEEG_Images\0479.jpg	YN	Left	Yes	0.892081399913877	0	224316	251
439.171875	2	health	foodImageDisplay	1	32	32	foodImage.46	FOODEEG_Images\0479.jpg	YN	Left	Yes	0.892081399913877	0	224857	252
441.234375	0.892081399913877	health	choicePhaseStart	1	32	32	foodImage.46	FOODEEG_Images\0479.jpg	YN	Left	Yes	0.892081399913877	0	225913	253
442.119140625	0	health	response	1	32	32	foodImage.46	FOODEEG_Images\0479.jpg	YN	Left	Yes	0.892081399913877	0	226366	234
443.1640625	1	decision	trialStart	1	33	33	foodImage.120	FOODEEG_Images\0928.jpg	NY	Left	No	0.777669599978253	0	226901	251
444.201171875	2	decision	foodImageDisplay	1	33	33	foodImage.120	FOODEEG_Images\0928.jpg	NY	Left	No	0.777669599978253	0	227432	252
446.263671875	0.777669599978253	decision	choicePhaseStart	1	33	33	foodImage.120	FOODEEG_Images\0928.jpg	NY	Left	No	0.777669599978253	0	228488	253
447.03125	0	decision	response	1	33	33	foodImage.120	FOODEEG_Images\0928.jpg	NY	Left	No	0.777669599978253	0	228881	234
448.07421875	1	taste	trialStart	1	34	34	foodImage.3	FOODEEG_Images\0046.jpg	YN	Left	Yes	1.36665750015527	0	229415	251
449.115234375	2	taste	foodImageDisplay	1	34	34	foodImage.3	FOODEEG_Images\0046.jpg	YN	Left	Yes	1.36665750015527	0	229948	252
451.177734375	1.36665750015527	taste	choicePhaseStart	1	34	34	foodImage.3	FOODEEG_Images\0046.jpg	YN	Left	Yes	1.36665750015527	0	231004	253
452.53515625	0	taste	response	1	34	34	foodImage.3	FOODEEG_Images\0046.jpg	YN	Left	Yes	1.36665750015527	0	231699	234
453.580078125	1	decision	trialStart	1	35	35	foodImage.115	FOODEEG_Images\0923.jpg	YN	Right	No	1.40911690006033	0	232234	251
454.634765625	2	decision	foodImageDisplay	1	35	35	foodImage.115	FOODEEG_Images\0923.jpg	YN	Right	No	1.40911690006033	0	232774	252
456.69921875	1.40911690006033	decision	choicePhaseStart	1	35	35	foodImage.115	FOODEEG_Images\0923.jpg	YN	Right	No	1.40911690006033	0	233831	253
458.103515625	0	decision	response	1	35	35	foodImage.115	FOODEEG_Images\0923.jpg	YN	Right	No	1.40911690006033	0	234550	235
459.14453125	1	taste	trialStart	1	36	36	foodImage.91	FOODEEG_Images\0896.jpg	NY	Right	Yes	0.927363299997523	0	235083	251
460.203125	2	taste	foodImageDisplay	1	36	36	foodImage.91	FOODEEG_Images\0896.jpg	NY	Right	Yes	0.927363299997523	0	235625	252
462.265625	0.927363299997523	taste	choicePhaseStart	1	36	36	foodImage.91	FOODEEG_Images\0896.jpg	NY	Right	Yes	0.927363299997523	0	236681	253
463.18359375	0	taste	response	1	36	36	foodImage.91	FOODEEG_Images\0896.jpg	NY	Right	Yes	0.927363299997523	0	237151	235
464.2265625	1	health	trialStart	1	37	37	foodImage.79	FOODEEG_Images\0794.jpg	NY	Right	Yes	1.09892440005206	0	237685	251
465.26953125	2	health	foodImageDisplay	1	37	37	foodImage.79	FOODEEG_Images\0794.jpg	NY	Right	Yes	1.09892440005206	0	238219	252
467.333984375	1.09892440005206	health	choicePhaseStart	1	37	37	foodImage.79	FOODEEG_Images\0794.jpg	NY	Right	Yes	1.09892440005206	0	239276	253
468.423828125	0	health	response	1	37	37	foodImage.79	FOODEEG_Images\0794.jpg	NY	Right	Yes	1.09892440005206	0	239834	235
469.474609375	1	decision	trialStart	1	38	38	foodImage.107	FOODEEG_Images\0915.jpg	NY	Left	No	1.35366569994949	0	240372	251
470.51171875	2	decision	foodImageDisplay	1	38	38	foodImage.107	FOODEEG_Images\0915.jpg	NY	Left	No	1.35366569994949	0	240903	252
472.57421875	1.35366569994949	decision	choicePhaseStart	1	38	38	foodImage.107	FOODEEG_Images\0915.jpg	NY	Left	No	1.35366569994949	0	241959	253
473.91796875	0	decision	response	1	38	38	foodImage.107	FOODEEG_Images\0915.jpg	NY	Left	No	1.35366569994949	0	242647	234
474.9609375	1	decision	trialStart	1	39	39	foodImage.16	FOODEEG_Images\0196.jpg	YN	Left	Yes	1.34733820008114	0	243181	251
476.021484375	2	decision	foodImageDisplay	1	39	39	foodImage.16	FOODEEG_Images\0196.jpg	YN	Left	Yes	1.34733820008114	0	243724	252
478.083984375	1.34733820008114	decision	choicePhaseStart	1	39	39	foodImage.16	FOODEEG_Images\0196.jpg	YN	Left	Yes	1.34733820008114	0	244780	253
479.421875	0	decision	response	1	39	39	foodImage.16	FOODEEG_Images\0196.jpg	YN	Left	Yes	1.34733820008114	0	245465	234
480.46484375	1	health	trialStart	1	40	40	foodImage.13	FOODEEG_Images\0183.jpg	YN	Right	No	1.47945059998892	0	245999	251
481.505859375	2	health	foodImageDisplay	1	40	40	foodImage.13	FOODEEG_Images\0183.jpg	YN	Right	No	1.47945059998892	0	246532	252
483.568359375	1.47945059998892	health	choicePhaseStart	1	40	40	foodImage.13	FOODEEG_Images\0183.jpg	YN	Right	No	1.47945059998892	0	247588	253
485.0390625	0	health	response	1	40	40	foodImage.13	FOODEEG_Images\0183.jpg	YN	Right	No	1.47945059998892	0	248341	235
486.078125	1	taste	trialStart	1	41	41	foodImage.56	FOODEEG_Images\0586.jpg	YN	Left	Yes	1.07995300018229	0	248873	251
487.12109375	2	taste	foodImageDisplay	1	41	41	foodImage.56	FOODEEG_Images\0586.jpg	YN	Left	Yes	1.07995300018229	0	249407	252
489.18359375	1.07995300018229	taste	choicePhaseStart	1	41	41	foodImage.56	FOODEEG_Images\0586.jpg	YN	Left	Yes	1.07995300018229	0	250463	253
490.25390625	0	taste	response	1	41	41	foodImage.56	FOODEEG_Images\0586.jpg	YN	Left	Yes	1.07995300018229	0	251011	234
491.298828125	1	taste	trialStart	1	42	42	foodImage.23	FOODEEG_Images\0244.jpg	NY	Right	Yes	1.02837630012073	0	251546	251
492.33984375	2	taste	foodImageDisplay	1	42	42	foodImage.23	FOODEEG_Images\0244.jpg	NY	Right	Yes	1.02837630012073	0	252079	252
494.404296875	1.02837630012073	taste	choicePhaseStart	1	42	42	foodImage.23	FOODEEG_Images\0244.jpg	NY	Right	Yes	1.02837630012073	0	253136	253
495.421875	0	taste	response	1	42	42	foodImage.23	FOODEEG_Images\0244.jpg	NY	Right	Yes	1.02837630012073	0	253657	235
496.46484375	1	taste	trialStart	1	43	43	foodImage.68	FOODEEG_Images\0685.jpg	YN	Left	Yes	1.07277239998803	0	254191	251
497.544921875	2	taste	foodImageDisplay	1	43	43	foodImage.68	FOODEEG_Images\0685.jpg	YN	Left	Yes	1.07277239998803	0	254744	252
499.60546875	1.07277239998803	taste	choicePhaseStart	1	43	43	foodImage.68	FOODEEG_Images\0685.jpg	YN	Left	Yes	1.07277239998803	0	255799	253
500.669921875	0	taste	response	1	43	43	foodImage.68	FOODEEG_Images\0685.jpg	YN	Left	Yes	1.07277239998803	0	256344	234
501.71484375	1	decision	trialStart	1	44	44	foodImage.117	FOODEEG_Images\0925.jpg	NY	Right	Yes	0.852294200100005	0	256879	251
502.75390625	2	decision	foodImageDisplay	1	44	44	foodImage.117	FOODEEG_Images\0925.jpg	NY	Right	Yes	0.852294200100005	0	257411	252
504.818359375	0.852294200100005	decision	choicePhaseStart	1	44	44	foodImage.117	FOODEEG_Images\0925.jpg	NY	Right	Yes	0.852294200100005	0	258468	253
505.662109375	0	decision	response	1	44	44	foodImage.117	FOODEEG_Images\0925.jpg	NY	Right	Yes	0.852294200100005	0	258900	235
506.708984375	1	health	trialStart	1	45	45	foodImage.100	FOODEEG_Images\0908.jpg	NY	Right	Yes	1.01999090006575	0	259436	251
507.748046875	2	health	foodImageDisplay	1	45	45	foodImage.100	FOODEEG_Images\0908.jpg	NY	Right	Yes	1.01999090006575	0	259968	252
509.810546875	1.01999090006575	health	choicePhaseStart	1	45	45	foodImage.100	FOODEEG_Images\0908.jpg	NY	Right	Yes	1.01999090006575	0	261024	253
510.8203125	0	health	response	1	45	45	foodImage.100	FOODEEG_Images\0908.jpg	NY	Right	Yes	1.01999090006575	0	261541	235
511.86328125	1	decision	trialStart	1	46	46	foodImage.84	FOODEEG_Images\0830.jpg	NY	Right	Yes	0.7438520998694	0	262075	251
512.919921875	2	decision	foodImageDisplay	1	46	46	foodImage.84	FOODEEG_Images\0830.jpg	NY	Right	Yes	0.7438520998694	0	262616	252
514.982421875	0.7438520998694	decision	choicePhaseStart	1	46	46	foodImage.84	FOODEEG_Images\0830.jpg	NY	Right	Yes	0.7438520998694	0	263672	253
515.716796875	0	decision	response	1	46	46	foodImage.84	FOODEEG_Images\0830.jpg	NY	Right	Yes	0.7438520998694	0	264048	235
516.765625	1	health	trialStart	1	47	47	foodImage.22	FOODEEG_Images\0236.jpg	NY	Left	No	1.77848260011524	0	264585	251
517.810546875	2	health	foodImageDisplay	1	47	47	foodImage.22	FOODEEG_Images\0236.jpg	NY	Left	No	1.77848260011524	0	265120	252
519.875	1.77848260011524	health	choicePhaseStart	1	47	47	foodImage.22	FOODEEG_Images\0236.jpg	NY	Left	No	1.77848260011524	0	266177	253
521.64453125	0	health	response	1	47	47	foodImage.22	FOODEEG_Images\0236.jpg	NY	Left	No	1.77848260011524	0	267083	234
522.685546875	1	health	trialStart	1	48	48	foodImage.17	FOODEEG_Images\0199.jpg	YN	Left	Yes	1.34074480016716	0	267616	251
523.73046875	2	health	foodImageDisplay	1	48	48	foodImage.17	FOODEEG_Images\0199.jpg	YN	Left	Yes	1.34074480016716	0	268151	252
525.798828125	1.34074480016716	health	choicePhaseStart	1	48	48	foodImage.17	FOODEEG_Images\0199.jpg	YN	Left	Yes	1.34074480016716	0	269210	253
527.1328125	0	health	response	1	48	48	foodImage.17	FOODEEG_Images\0199.jpg	YN	Left	Yes	1.34074480016716	0	269893	234
528.17578125	1	decision	trialStart	1	49	49	foodImage.15	FOODEEG_Images\0189.jpg	NY	Right	Yes	1.34888439998031	0	270427	251
529.234375	2	decision	foodImageDisplay	1	49	49	foodImage.15	FOODEEG_Images\0189.jpg	NY	Right	Yes	1.34888439998031	0	270969	252
531.296875	1.34888439998031	decision	choicePhaseStart	1	49	49	foodImage.15	FOODEEG_Images\0189.jpg	NY	Right	Yes	1.34888439998031	0	272025	253
532.63671875	0	decision	response	1	49	49	foodImage.15	FOODEEG_Images\0189.jpg	NY	Right	Yes	1.34888439998031	0	272711	235
533.677734375	1	taste	trialStart	1	50	50	foodImage.67	FOODEEG_Images\0679.jpg	YN	Left	Yes	1.10606660018675	0	273244	251
534.732421875	2	taste	foodImageDisplay	1	50	50	foodImage.67	FOODEEG_Images\0679.jpg	YN	Left	Yes	1.10606660018675	0	273784	252
536.796875	1.10606660018675	taste	choicePhaseStart	1	50	50	foodImage.67	FOODEEG_Images\0679.jpg	YN	Left	Yes	1.10606660018675	0	274841	253
537.892578125	0	taste	response	1	50	50	foodImage.67	FOODEEG_Images\0679.jpg	YN	Left	Yes	1.10606660018675	0	275402	234
538.939453125	1	health	trialStart	1	51	51	foodImage.61	FOODEEG_Images\0640.jpg	YN	Left	Yes	0.83816449996084	0	275938	251
539.984375	2	health	foodImageDisplay	1	51	51	foodImage.61	FOODEEG_Images\0640.jpg	YN	Left	Yes	0.83816449996084	0	276473	252
542.046875	0.83816449996084	health	choicePhaseStart	1	51	51	foodImage.61	FOODEEG_Images\0640.jpg	YN	Left	Yes	0.83816449996084	0	277529	253
542.876953125	0	health	response	1	51	51	foodImage.61	FOODEEG_Images\0640.jpg	YN	Left	Yes	0.83816449996084	0	277954	234
543.919921875	1	decision	trialStart	1	52	52	foodImage.91	FOODEEG_Images\0896.jpg	NY	Right	Yes	1.2344124999363	0	278488	251
544.978515625	2	decision	foodImageDisplay	1	52	52	foodImage.91	FOODEEG_Images\0896.jpg	NY	Right	Yes	1.2344124999363	0	279030	252
547.048828125	1.2344124999363	decision	choicePhaseStart	1	52	52	foodImage.91	FOODEEG_Images\0896.jpg	NY	Right	Yes	1.2344124999363	0	280090	253
548.275390625	0	decision	response	1	52	52	foodImage.91	FOODEEG_Images\0896.jpg	NY	Right	Yes	1.2344124999363	0	280718	235
549.318359375	1	taste	trialStart	1	53	53	foodImage.6	FOODEEG_Images\0113.jpg	YN	Left	Yes	0.915518800029531	0	281252	251
550.359375	2	taste	foodImageDisplay	1	53	53	foodImage.6	FOODEEG_Images\0113.jpg	YN	Left	Yes	0.915518800029531	0	281785	252
552.421875	0.915518800029531	taste	choicePhaseStart	1	53	53	foodImage.6	FOODEEG_Images\0113.jpg	YN	Left	Yes	0.915518800029531	0	282841	253
553.33203125	0	taste	response	1	53	53	foodImage.6	FOODEEG_Images\0113.jpg	YN	Left	Yes	0.915518800029531	0	283307	234
554.373046875	1	health	trialStart	1	54	54	foodImage.81	FOODEEG_Images\0797.jpg	YN	Left	Yes	0.812282999977469	0	283840	251
555.43359375	2	health	foodImageDisplay	1	54	54	foodImage.81	FOODEEG_Images\0797.jpg	YN	Left	Yes	0.812282999977469	0	284383	252
557.49609375	0.812282999977469	health	choicePhaseStart	1	54	54	foodImage.81	FOODEEG_Images\0797.jpg	YN	Left	Yes	0.812282999977469	0	285439	253
558.298828125	0	health	response	1	54	54	foodImage.81	FOODEEG_Images\0797.jpg	YN	Left	Yes	0.812282999977469	0	285850	234
559.341796875	1	decision	trialStart	1	55	55	foodImage.13	FOODEEG_Images\0183.jpg	YN	Left	Yes	2.11840729997493	0	286384	251
560.3828125	2	decision	foodImageDisplay	1	55	55	foodImage.13	FOODEEG_Images\0183.jpg	YN	Left	Yes	2.11840729997493	0	286917	252
562.4453125	2.11840729997493	decision	choicePhaseStart	1	55	55	foodImage.13	FOODEEG_Images\0183.jpg	YN	Left	Yes	2.11840729997493	0	287973	253
564.5546875	0	decision	response	1	55	55	foodImage.13	FOODEEG_Images\0183.jpg	YN	Left	Yes	2.11840729997493	0	289053	234
565.59765625	1	decision	trialStart	1	56	56	foodImage.103	FOODEEG_Images\0911.jpg	NY	Left	No	0.90425859997049	0	289587	251
566.63671875	2	decision	foodImageDisplay	1	56	56	foodImage.103	FOODEEG_Images\0911.jpg	NY	Left	No	0.90425859997049	0	290119	252
568.69921875	0.90425859997049	decision	choicePhaseStart	1	56	56	foodImage.103	FOODEEG_Images\0911.jpg	NY	Left	No	0.90425859997049	0	291175	253
569.595703125	0	decision	response	1	56	56	foodImage.103	FOODEEG_Images\0911.jpg	NY	Left	No	0.90425859997049	0	291634	234
570.638671875	1	decision	trialStart	1	57	57	foodImage.48	FOODEEG_Images\0494.jpg	NY	Right	Yes	0.948537999996915	0	292168	251
571.6796875	2	decision	foodImageDisplay	1	57	57	foodImage.48	FOODEEG_Images\0494.jpg	NY	Right	Yes	0.948537999996915	0	292701	252
573.744140625	0.948537999996915	decision	choicePhaseStart	1	57	57	foodImage.48	FOODEEG_Images\0494.jpg	NY	Right	Yes	0.948537999996915	0	293758	253
574.68359375	0	decision	response	1	57	57	foodImage.48	FOODEEG_Images\0494.jpg	NY	Right	Yes	0.948537999996915	0	294239	235
575.7265625	1	health	trialStart	1	58	58	foodImage.94	FOODEEG_Images\0902.jpg	NY	Right	Yes	2.99053640011698	0	294773	251
576.763671875	2	health	foodImageDisplay	1	58	58	foodImage.94	FOODEEG_Images\0902.jpg	NY	Right	Yes	2.99053640011698	0	295304	252
578.828125	2.99053640011698	health	choicePhaseStart	1	58	58	foodImage.94	FOODEEG_Images\0902.jpg	NY	Right	Yes	2.99053640011698	0	296361	253
581.810546875	0	health	response	1	58	58	foodImage.94	FOODEEG_Images\0902.jpg	NY	Right	Yes	2.99053640011698	0	297888	235
582.8515625	1	taste	trialStart	1	59	59	foodImage.120	FOODEEG_Images\0928.jpg	NY	Left	No	1.0027662999928	0	298421	251
583.888671875	2	taste	foodImageDisplay	1	59	59	foodImage.120	FOODEEG_Images\0928.jpg	NY	Left	No	1.0027662999928	0	298952	252
585.953125	1.0027662999928	taste	choicePhaseStart	1	59	59	foodImage.120	FOODEEG_Images\0928.jpg	NY	Left	No	1.0027662999928	0	300009	253
586.9453125	0	taste	response	1	59	59	foodImage.120	FOODEEG_Images\0928.jpg	NY	Left	No	1.0027662999928	0	300517	234
587.994140625	1	health	trialStart	1	60	60	foodImage.85	FOODEEG_Images\0841.jpg	NY	Left	No	2.38282020017505	0	301054	251
589.0546875	2	health	foodImageDisplay	1	60	60	foodImage.85	FOODEEG_Images\0841.jpg	NY	Left	No	2.38282020017505	0	301597	252
591.1171875	2.38282020017505	health	choicePhaseStart	1	60	60	foodImage.85	FOODEEG_Images\0841.jpg	NY	Left	No	2.38282020017505	0	302653	253
593.490234375	0	health	response	1	60	60	foodImage.85	FOODEEG_Images\0841.jpg	NY	Left	No	2.38282020017505	0	303868	234
595.53125	29.212890625	n/a	blockEnd	n/a	n/a	n/a	n/a	n/a	n/a	n/a	n/a	n/a	n/a	304913	254
624.744140625	2	n/a	blockStart	2	n/a	n/a	n/a	n/a	n/a	n/a	n/a	n/a	n/a	319870	250
626.779296875	1	decision	trialStart	2	61	1	foodImage.27	FOODEEG_Images\0263.jpg	YN	Left	Yes	1.01828940003179	0	320912	251
627.822265625	2	decision	foodImageDisplay	2	61	1	foodImage.27	FOODEEG_Images\0263.jpg	YN	Left	Yes	1.01828940003179	0	321446	252
629.88671875	1.01828940003179	decision	choicePhaseStart	2	61	1	foodImage.27	FOODEEG_Images\0263.jpg	YN	Left	Yes	1.01828940003179	0	322503	253
630.896484375	0	decision	response	2	61	1	foodImage.27	FOODEEG_Images\0263.jpg	YN	Left	Yes	1.01828940003179	0	323020	234
631.939453125	1	health	trialStart	2	62	2	foodImage.101	FOODEEG_Images\0909.jpg	YN	Right	No	1.20212739985436	0	323554	251
632.9765625	2	health	foodImageDisplay	2	62	2	foodImage.101	FOODEEG_Images\0909.jpg	YN	Right	No	1.20212739985436	0	324085	252
635.0390625	1.20212739985436	health	choicePhaseStart	2	62	2	foodImage.101	FOODEEG_Images\0909.jpg	YN	Right	No	1.20212739985436	0	325141	253
636.232421875	0	health	response	2	62	2	foodImage.101	FOODEEG_Images\0909.jpg	YN	Right	No	1.20212739985436	0	325752	235
637.2734375	1	health	trialStart	2	63	3	foodImage.21	FOODEEG_Images\0234.jpg	YN	Left	Yes	0.607645699987188	0	326285	251
638.330078125	2	health	foodImageDisplay	2	63	3	foodImage.21	FOODEEG_Images\0234.jpg	YN	Left	Yes	0.607645699987188	0	326826	252
640.39453125	0.607645699987188	health	choicePhaseStart	2	63	3	foodImage.21	FOODEEG_Images\0234.jpg	YN	Left	Yes	0.607645699987188	0	327883	253
640.9921875	0	health	response	2	63	3	foodImage.21	FOODEEG_Images\0234.jpg	YN	Left	Yes	0.607645699987188	0	328189	234
642.033203125	1	decision	trialStart	2	64	4	foodImage.112	FOODEEG_Images\0920.jpg	YN	Right	No	1.34267779998481	0	328722	251
643.07421875	2	decision	foodImageDisplay	2	64	4	foodImage.112	FOODEEG_Images\0920.jpg	YN	Right	No	1.34267779998481	0	329255	252
645.138671875	1.34267779998481	decision	choicePhaseStart	2	64	4	foodImage.112	FOODEEG_Images\0920.jpg	YN	Right	No	1.34267779998481	0	330312	253
646.470703125	0	decision	response	2	64	4	foodImage.112	FOODEEG_Images\0920.jpg	YN	Right	No	1.34267779998481	0	330994	235
647.51171875	1	taste	trialStart	2	65	5	foodImage.100	FOODEEG_Images\0908.jpg	NY	Right	Yes	1.3368186999578	0	331527	251
648.5546875	2	taste	foodImageDisplay	2	65	5	foodImage.100	FOODEEG_Images\0908.jpg	NY	Right	Yes	1.3368186999578	0	332061	252
650.6171875	1.3368186999578	taste	choicePhaseStart	2	65	5	foodImage.100	FOODEEG_Images\0908.jpg	NY	Right	Yes	1.3368186999578	0	333117	253
651.943359375	0	taste	response	2	65	5	foodImage.100	FOODEEG_Images\0908.jpg	NY	Right	Yes	1.3368186999578	0	333796	235
652.990234375	1	health	trialStart	2	66	6	foodImage.53	FOODEEG_Images\0547.jpg	YN	Right	No	1.05894790007733	0	334332	251
654.046875	2	health	foodImageDisplay	2	66	6	foodImage.53	FOODEEG_Images\0547.jpg	YN	Right	No	1.05894790007733	0	334873	252
656.109375	1.05894790007733	health	choicePhaseStart	2	66	6	foodImage.53	FOODEEG_Images\0547.jpg	YN	Right	No	1.05894790007733	0	335929	253
657.16015625	0	health	response	2	66	6	foodImage.53	FOODEEG_Images\0547.jpg	YN	Right	No	1.05894790007733	0	336467	235
658.201171875	1	taste	trialStart	2	67	7	foodImage.45	FOODEEG_Images\0478.jpg	NY	Right	Yes	0.909307399997488	0	337000	251
659.267578125	2	taste	foodImageDisplay	2	67	7	foodImage.45	FOODEEG_Images\0478.jpg	NY	Right	Yes	0.909307399997488	0	337546	252
661.330078125	0.909307399997488	taste	choicePhaseStart	2	67	7	foodImage.45	FOODEEG_Images\0478.jpg	NY	Right	Yes	0.909307399997488	0	338602	253
662.23046875	0	taste	response	2	67	7	foodImage.45	FOODEEG_Images\0478.jpg	NY	Right	Yes	0.909307399997488	0	339063	235
663.2734375	1	health	trialStart	2	68	8	foodImage.102	FOODEEG_Images\0910.jpg	NY	Right	Yes	0.788587700109929	0	339597	251
664.314453125	2	health	foodImageDisplay	2	68	8	foodImage.102	FOODEEG_Images\0910.jpg	NY	Right	Yes	0.788587700109929	0	340130	252
666.376953125	0.788587700109929	health	choicePhaseStart	2	68	8	foodImage.102	FOODEEG_Images\0910.jpg	NY	Right	Yes	0.788587700109929	0	341186	253
667.158203125	0	health	response	2	68	8	foodImage.102	FOODEEG_Images\0910.jpg	NY	Right	Yes	0.788587700109929	0	341586	235
668.201171875	1	health	trialStart	2	69	9	foodImage.40	FOODEEG_Images\0373.jpg	NY	Left	No	1.57983970013447	0	342120	251
669.24609375	2	health	foodImageDisplay	2	69	9	foodImage.40	FOODEEG_Images\0373.jpg	NY	Left	No	1.57983970013447	0	342655	252
671.30859375	1.57983970013447	health	choicePhaseStart	2	69	9	foodImage.40	FOODEEG_Images\0373.jpg	NY	Left	No	1.57983970013447	0	343711	253
672.87890625	0	health	response	2	69	9	foodImage.40	FOODEEG_Images\0373.jpg	NY	Left	No	1.57983970013447	0	344515	234
673.921875	1	health	trialStart	2	70	10	foodImage.55	FOODEEG_Images\0567.jpg	NY	Right	Yes	1.75893040001392	0	345049	251
674.9765625	2	health	foodImageDisplay	2	70	10	foodImage.55	FOODEEG_Images\0567.jpg	NY	Right	Yes	1.75893040001392	0	345589	252
677.041015625	1.75893040001392	health	choicePhaseStart	2	70	10	foodImage.55	FOODEEG_Images\0567.jpg	NY	Right	Yes	1.75893040001392	0	346646	253
678.791015625	0	health	response	2	70	10	foodImage.55	FOODEEG_Images\0567.jpg	NY	Right	Yes	1.75893040001392	0	347542	235
679.833984375	1	decision	trialStart	2	71	11	foodImage.9	FOODEEG_Images\0138.jpg	YN	Left	Yes	1.10552059998736	0	348076	251
680.888671875	2	decision	foodImageDisplay	2	71	11	foodImage.9	FOODEEG_Images\0138.jpg	YN	Left	Yes	1.10552059998736	0	348616	252
682.951171875	1.10552059998736	decision	choicePhaseStart	2	71	11	foodImage.9	FOODEEG_Images\0138.jpg	YN	Left	Yes	1.10552059998736	0	349672	253
684.046875	0	decision	response	2	71	11	foodImage.9	FOODEEG_Images\0138.jpg	YN	Left	Yes	1.10552059998736	0	350233	234
685.087890625	1	health	trialStart	2	72	12	foodImage.31	FOODEEG_Images\0294.jpg	YN	Left	Yes	1.5570400999859	0	350766	251
686.130859375	2	health	foodImageDisplay	2	72	12	foodImage.31	FOODEEG_Images\0294.jpg	YN	Left	Yes	1.5570400999859	0	351300	252
688.193359375	1.5570400999859	health	choicePhaseStart	2	72	12	foodImage.31	FOODEEG_Images\0294.jpg	YN	Left	Yes	1.5570400999859	0	352356	253
689.7421875	0	health	response	2	72	12	foodImage.31	FOODEEG_Images\0294.jpg	YN	Left	Yes	1.5570400999859	0	353149	234
690.783203125	1	decision	trialStart	2	73	13	foodImage.3	FOODEEG_Images\0046.jpg	NY	Right	Yes	1.43620380014181	0	353682	251
691.84375	2	decision	foodImageDisplay	2	73	13	foodImage.3	FOODEEG_Images\0046.jpg	NY	Right	Yes	1.43620380014181	0	354225	252
693.9140625	1.43620380014181	decision	choicePhaseStart	2	73	13	foodImage.3	FOODEEG_Images\0046.jpg	NY	Right	Yes	1.43620380014181	0	355285	253
695.341796875	0	decision	response	2	73	13	foodImage.3	FOODEEG_Images\0046.jpg	NY	Right	Yes	1.43620380014181	0	356016	235
696.380859375	1	taste	trialStart	2	74	14	foodImage.88	FOODEEG_Images\0878.jpg	NY	Right	Yes	0.81846519978717	0	356548	251
697.4375	2	taste	foodImageDisplay	2	74	14	foodImage.88	FOODEEG_Images\0878.jpg	NY	Right	Yes	0.81846519978717	0	357089	252
699.5	0.81846519978717	taste	choicePhaseStart	2	74	14	foodImage.88	FOODEEG_Images\0878.jpg	NY	Right	Yes	0.81846519978717	0	358145	253
700.30859375	0	taste	response	2	74	14	foodImage.88	FOODEEG_Images\0878.jpg	NY	Right	Yes	0.81846519978717	0	358559	235
701.353515625	1	decision	trialStart	2	75	15	foodImage.110	FOODEEG_Images\0918.jpg	YN	Right	No	2.25410410016775	0	359094	251
702.392578125	2	decision	foodImageDisplay	2	75	15	foodImage.110	FOODEEG_Images\0918.jpg	YN	Right	No	2.25410410016775	0	359626	252
704.455078125	2.25410410016775	decision	choicePhaseStart	2	75	15	foodImage.110	FOODEEG_Images\0918.jpg	YN	Right	No	2.25410410016775	0	360682	253
706.701171875	0	decision	response	2	75	15	foodImage.110	FOODEEG_Images\0918.jpg	YN	Right	No	2.25410410016775	0	361832	235
707.7421875	1	taste	trialStart	2	76	16	foodImage.50	FOODEEG_Images\0529.jpg	NY	Left	No	2.74527389998548	0	362365	251
708.796875	2	taste	foodImageDisplay	2	76	16	foodImage.50	FOODEEG_Images\0529.jpg	NY	Left	No	2.74527389998548	0	362905	252
710.861328125	2.74527389998548	taste	choicePhaseStart	2	76	16	foodImage.50	FOODEEG_Images\0529.jpg	NY	Left	No	2.74527389998548	0	363962	253
713.59765625	0	taste	response	2	76	16	foodImage.50	FOODEEG_Images\0529.jpg	NY	Left	No	2.74527389998548	0	365363	234
714.638671875	1	decision	trialStart	2	77	17	foodImage.85	FOODEEG_Images\0841.jpg	NY	Right	Yes	0.877668499946594	0	365896	251
715.697265625	2	decision	foodImageDisplay	2	77	17	foodImage.85	FOODEEG_Images\0841.jpg	NY	Right	Yes	0.877668499946594	0	366438	252
717.76171875	0.877668499946594	decision	choicePhaseStart	2	77	17	foodImage.85	FOODEEG_Images\0841.jpg	NY	Right	Yes	0.877668499946594	0	367495	253
718.62890625	0	decision	response	2	77	17	foodImage.85	FOODEEG_Images\0841.jpg	NY	Right	Yes	0.877668499946594	0	367939	235
719.671875	1	taste	trialStart	2	78	18	foodImage.25	FOODEEG_Images\0261.jpg	NY	Right	Yes	1.62956120003946	0	368473	251
720.712890625	2	taste	foodImageDisplay	2	78	18	foodImage.25	FOODEEG_Images\0261.jpg	NY	Right	Yes	1.62956120003946	0	369006	252
722.77734375	1.62956120003946	taste	choicePhaseStart	2	78	18	foodImage.25	FOODEEG_Images\0261.jpg	NY	Right	Yes	1.62956120003946	0	370063	253
724.396484375	0	taste	response	2	78	18	foodImage.25	FOODEEG_Images\0261.jpg	NY	Right	Yes	1.62956120003946	0	370892	235
725.439453125	1	decision	trialStart	2	79	19	foodImage.40	FOODEEG_Images\0373.jpg	NY	Right	Yes	0.748633699957281	0	371426	251
726.48046875	2	decision	foodImageDisplay	2	79	19	foodImage.40	FOODEEG_Images\0373.jpg	NY	Right	Yes	0.748633699957281	0	371959	252
728.544921875	0.748633699957281	decision	choicePhaseStart	2	79	19	foodImage.40	FOODEEG_Images\0373.jpg	NY	Right	Yes	0.748633699957281	0	373016	253
729.28515625	0	decision	response	2	79	19	foodImage.40	FOODEEG_Images\0373.jpg	NY	Right	Yes	0.748633699957281	0	373395	235
730.328125	1	health	trialStart	2	80	20	foodImage.95	FOODEEG_Images\0903.jpg	NY	Left	No	0.911243099952117	0	373929	251
731.3671875	2	health	foodImageDisplay	2	80	20	foodImage.95	FOODEEG_Images\0903.jpg	NY	Left	No	0.911243099952117	0	374461	252
733.431640625	0.911243099952117	health	choicePhaseStart	2	80	20	foodImage.95	FOODEEG_Images\0903.jpg	NY	Left	No	0.911243099952117	0	375518	253
734.33203125	0	health	response	2	80	20	foodImage.95	FOODEEG_Images\0903.jpg	NY	Left	No	0.911243099952117	0	375979	234
735.375	1	health	trialStart	2	81	21	foodImage.72	FOODEEG_Images\0714.jpg	NY	Right	Yes	2.30967479990795	0	376513	251
736.41796875	2	health	foodImageDisplay	2	81	21	foodImage.72	FOODEEG_Images\0714.jpg	NY	Right	Yes	2.30967479990795	0	377047	252
738.48046875	2.30967479990795	health	choicePhaseStart	2	81	21	foodImage.72	FOODEEG_Images\0714.jpg	NY	Right	Yes	2.30967479990795	0	378103	253
740.779296875	0	health	response	2	81	21	foodImage.72	FOODEEG_Images\0714.jpg	NY	Right	Yes	2.30967479990795	0	379280	235
741.83203125	1	decision	trialStart	2	82	22	foodImage.24	FOODEEG_Images\0250.jpg	YN	Left	Yes	1.82701639994048	0	379819	251
742.873046875	2	decision	foodImageDisplay	2	82	22	foodImage.24	FOODEEG_Images\0250.jpg	YN	Left	Yes	1.82701639994048	0	380352	252
744.9375	1.82701639994048	decision	choicePhaseStart	2	82	22	foodImage.24	FOODEEG_Images\0250.jpg	YN	Left	Yes	1.82701639994048	0	381409	253
746.755859375	0	decision	response	2	82	22	foodImage.24	FOODEEG_Images\0250.jpg	YN	Left	Yes	1.82701639994048	0	382340	234
747.798828125	1	taste	trialStart	2	83	23	foodImage.57	FOODEEG_Images\0587.jpg	YN	Left	Yes	1.05673950002529	0	382874	251
748.841796875	2	taste	foodImageDisplay	2	83	23	foodImage.57	FOODEEG_Images\0587.jpg	YN	Left	Yes	1.05673950002529	0	383408	252
750.908203125	1.05673950002529	taste	choicePhaseStart	2	83	23	foodImage.57	FOODEEG_Images\0587.jpg	YN	Left	Yes	1.05673950002529	0	384466	253
751.955078125	0	taste	response	2	83	23	foodImage.57	FOODEEG_Images\0587.jpg	YN	Left	Yes	1.05673950002529	0	385002	234
752.998046875	1	decision	trialStart	2	84	24	foodImage.41	FOODEEG_Images\0409.jpg	YN	Left	Yes	1.07344760000706	0	385536	251
754.046875	2	decision	foodImageDisplay	2	84	24	foodImage.41	FOODEEG_Images\0409.jpg	YN	Left	Yes	1.07344760000706	0	386073	252
756.107421875	1.07344760000706	decision	choicePhaseStart	2	84	24	foodImage.41	FOODEEG_Images\0409.jpg	YN	Left	Yes	1.07344760000706	0	387128	253
757.171875	0	decision	response	2	84	24	foodImage.41	FOODEEG_Images\0409.jpg	YN	Left	Yes	1.07344760000706	0	387673	234
758.2109375	1	decision	trialStart	2	85	25	foodImage.33	FOODEEG_Images\0329.jpg	YN	Left	Yes	0.835374100133777	0	388205	251
759.251953125	2	decision	foodImageDisplay	2	85	25	foodImage.33	FOODEEG_Images\0329.jpg	YN	Left	Yes	0.835374100133777	0	388738	252
761.3203125	0.835374100133777	decision	choicePhaseStart	2	85	25	foodImage.33	FOODEEG_Images\0329.jpg	YN	Left	Yes	0.835374100133777	0	389797	253
762.146484375	0	decision	response	2	85	25	foodImage.33	FOODEEG_Images\0329.jpg	YN	Left	Yes	0.835374100133777	0	390220	234
763.1875	1	health	trialStart	2	86	26	foodImage.24	FOODEEG_Images\0250.jpg	YN	Left	Yes	0.814146000193432	0	390753	251
764.2265625	2	health	foodImageDisplay	2	86	26	foodImage.24	FOODEEG_Images\0250.jpg	YN	Left	Yes	0.814146000193432	0	391285	252
766.294921875	0.814146000193432	health	choicePhaseStart	2	86	26	foodImage.24	FOODEEG_Images\0250.jpg	YN	Left	Yes	0.814146000193432	0	392344	253
767.099609375	0	health	response	2	86	26	foodImage.24	FOODEEG_Images\0250.jpg	YN	Left	Yes	0.814146000193432	0	392756	234
768.142578125	1	taste	trialStart	2	87	27	foodImage.40	FOODEEG_Images\0373.jpg	NY	Right	Yes	1.73418259993196	0	393290	251
769.18359375	2	taste	foodImageDisplay	2	87	27	foodImage.40	FOODEEG_Images\0373.jpg	NY	Right	Yes	1.73418259993196	0	393823	252
771.24609375	1.73418259993196	taste	choicePhaseStart	2	87	27	foodImage.40	FOODEEG_Images\0373.jpg	NY	Right	Yes	1.73418259993196	0	394879	253
772.970703125	0	taste	response	2	87	27	foodImage.40	FOODEEG_Images\0373.jpg	NY	Right	Yes	1.73418259993196	0	395762	235
774.015625	1	health	trialStart	2	88	28	foodImage.2	FOODEEG_Images\0028.jpg	NY	Left	No	1.37621510005556	0	396297	251
775.076171875	2	health	foodImageDisplay	2	88	28	foodImage.2	FOODEEG_Images\0028.jpg	NY	Left	No	1.37621510005556	0	396840	252
777.138671875	1.37621510005556	health	choicePhaseStart	2	88	28	foodImage.2	FOODEEG_Images\0028.jpg	NY	Left	No	1.37621510005556	0	397896	253
778.505859375	0	health	response	2	88	28	foodImage.2	FOODEEG_Images\0028.jpg	NY	Left	No	1.37621510005556	0	398596	234
779.548828125	1	health	trialStart	2	89	29	foodImage.18	FOODEEG_Images\0202.jpg	YN	Left	Yes	1.028848499991	0	399130	251
780.609375	2	health	foodImageDisplay	2	89	29	foodImage.18	FOODEEG_Images\0202.jpg	YN	Left	Yes	1.028848499991	0	399673	252
782.671875	1.028848499991	health	choicePhaseStart	2	89	29	foodImage.18	FOODEEG_Images\0202.jpg	YN	Left	Yes	1.028848499991	0	400729	253
783.689453125	0	health	response	2	89	29	foodImage.18	FOODEEG_Images\0202.jpg	YN	Left	Yes	1.028848499991	0	401250	234
784.732421875	1	decision	trialStart	2	90	30	foodImage.83	FOODEEG_Images\0827.jpg	NY	Right	Yes	1.06953259999864	0	401784	251
785.791015625	2	decision	foodImageDisplay	2	90	30	foodImage.83	FOODEEG_Images\0827.jpg	NY	Right	Yes	1.06953259999864	0	402326	252
787.853515625	1.06953259999864	decision	choicePhaseStart	2	90	30	foodImage.83	FOODEEG_Images\0827.jpg	NY	Right	Yes	1.06953259999864	0	403382	253
788.9140625	0	decision	response	2	90	30	foodImage.83	FOODEEG_Images\0827.jpg	NY	Right	Yes	1.06953259999864	0	403925	235
789.95703125	1	health	trialStart	2	91	31	foodImage.64	FOODEEG_Images\0647.jpg	NY	Right	Yes	0.660847999854013	0	404459	251
791.015625	2	health	foodImageDisplay	2	91	31	foodImage.64	FOODEEG_Images\0647.jpg	NY	Right	Yes	0.660847999854013	0	405001	252
793.078125	0.660847999854013	health	choicePhaseStart	2	91	31	foodImage.64	FOODEEG_Images\0647.jpg	NY	Right	Yes	0.660847999854013	0	406057	253
793.73046875	0	health	response	2	91	31	foodImage.64	FOODEEG_Images\0647.jpg	NY	Right	Yes	0.660847999854013	0	406391	235
794.7734375	1	taste	trialStart	2	92	32	foodImage.102	FOODEEG_Images\0910.jpg	NY	Right	Yes	0.703499600058421	0	406925	251
795.8125	2	taste	foodImageDisplay	2	92	32	foodImage.102	FOODEEG_Images\0910.jpg	NY	Right	Yes	0.703499600058421	0	407457	252
797.876953125	0.703499600058421	taste	choicePhaseStart	2	92	32	foodImage.102	FOODEEG_Images\0910.jpg	NY	Right	Yes	0.703499600058421	0	408514	253
798.5703125	0	taste	response	2	92	32	foodImage.102	FOODEEG_Images\0910.jpg	NY	Right	Yes	0.703499600058421	0	408869	235
799.61328125	1	decision	trialStart	2	93	33	foodImage.65	FOODEEG_Images\0658.jpg	NY	Left	No	1.07767650019377	0	409403	251
800.654296875	2	decision	foodImageDisplay	2	93	33	foodImage.65	FOODEEG_Images\0658.jpg	NY	Left	No	1.07767650019377	0	409936	252
802.716796875	1.07767650019377	decision	choicePhaseStart	2	93	33	foodImage.65	FOODEEG_Images\0658.jpg	NY	Left	No	1.07767650019377	0	410992	253
803.78515625	0	decision	response	2	93	33	foodImage.65	FOODEEG_Images\0658.jpg	NY	Left	No	1.07767650019377	0	411539	234
804.828125	1	health	trialStart	2	94	34	foodImage.107	FOODEEG_Images\0915.jpg	NY	Right	Yes	2.17439720011316	0	412073	251
805.8671875	2	health	foodImageDisplay	2	94	34	foodImage.107	FOODEEG_Images\0915.jpg	NY	Right	Yes	2.17439720011316	0	412605	252
807.9296875	2.17439720011316	health	choicePhaseStart	2	94	34	foodImage.107	FOODEEG_Images\0915.jpg	NY	Right	Yes	2.17439720011316	0	413661	253
810.09765625	0	health	response	2	94	34	foodImage.107	FOODEEG_Images\0915.jpg	NY	Right	Yes	2.17439720011316	0	414771	235
811.140625	1	decision	trialStart	2	95	35	foodImage.4	FOODEEG_Images\0065.jpg	NY	Right	Yes	0.713335199980065	0	415305	251
812.19921875	2	decision	foodImageDisplay	2	95	35	foodImage.4	FOODEEG_Images\0065.jpg	NY	Right	Yes	0.713335199980065	0	415847	252
814.265625	0.713335199980065	decision	choicePhaseStart	2	95	35	foodImage.4	FOODEEG_Images\0065.jpg	NY	Right	Yes	0.713335199980065	0	416905	253
814.96875	0	decision	response	2	95	35	foodImage.4	FOODEEG_Images\0065.jpg	NY	Right	Yes	0.713335199980065	0	417265	235
816.01171875	1	health	trialStart	2	96	36	foodImage.70	FOODEEG_Images\0705.jpg	NY	Left	No	1.78148719994351	0	417799	251
817.0703125	2	health	foodImageDisplay	2	96	36	foodImage.70	FOODEEG_Images\0705.jpg	NY	Left	No	1.78148719994351	0	418341	252
819.1328125	1.78148719994351	health	choicePhaseStart	2	96	36	foodImage.70	FOODEEG_Images\0705.jpg	NY	Left	No	1.78148719994351	0	419397	253
820.904296875	0	health	response	2	96	36	foodImage.70	FOODEEG_Images\0705.jpg	NY	Left	No	1.78148719994351	0	420304	234
821.947265625	1	taste	trialStart	2	97	37	foodImage.114	FOODEEG_Images\0922.jpg	YN	Right	No	1.199868200114	0	420838	251
822.986328125	2	taste	foodImageDisplay	2	97	37	foodImage.114	FOODEEG_Images\0922.jpg	YN	Right	No	1.199868200114	0	421370	252
825.05078125	1.199868200114	taste	choicePhaseStart	2	97	37	foodImage.114	FOODEEG_Images\0922.jpg	YN	Right	No	1.199868200114	0	422427	253
826.240234375	0	taste	response	2	97	37	foodImage.114	FOODEEG_Images\0922.jpg	YN	Right	No	1.199868200114	0	423036	235
827.283203125	1	taste	trialStart	2	98	38	foodImage.61	FOODEEG_Images\0640.jpg	NY	Right	Yes	1.45151760010049	0	423570	251
828.326171875	2	taste	foodImageDisplay	2	98	38	foodImage.61	FOODEEG_Images\0640.jpg	NY	Right	Yes	1.45151760010049	0	424104	252
830.390625	1.45151760010049	taste	choicePhaseStart	2	98	38	foodImage.61	FOODEEG_Images\0640.jpg	NY	Right	Yes	1.45151760010049	0	425161	253
831.83203125	0	taste	response	2	98	38	foodImage.61	FOODEEG_Images\0640.jpg	NY	Right	Yes	1.45151760010049	0	425899	235
832.875	1	decision	trialStart	2	99	39	foodImage.29	FOODEEG_Images\0278.jpg	YN	Right	No	1.42166289989837	0	426433	251
833.91796875	2	decision	foodImageDisplay	2	99	39	foodImage.29	FOODEEG_Images\0278.jpg	YN	Right	No	1.42166289989837	0	426967	252
835.978515625	1.42166289989837	decision	choicePhaseStart	2	99	39	foodImage.29	FOODEEG_Images\0278.jpg	YN	Right	No	1.42166289989837	0	428022	253
837.392578125	0	decision	response	2	99	39	foodImage.29	FOODEEG_Images\0278.jpg	YN	Right	No	1.42166289989837	0	428746	235
838.4375	1	health	trialStart	2	100	40	foodImage.25	FOODEEG_Images\0261.jpg	YN	Left	Yes	1.26143450010568	0	429281	251
839.4765625	2	health	foodImageDisplay	2	100	40	foodImage.25	FOODEEG_Images\0261.jpg	YN	Left	Yes	1.26143450010568	0	429813	252
841.5390625	1.26143450010568	health	choicePhaseStart	2	100	40	foodImage.25	FOODEEG_Images\0261.jpg	YN	Left	Yes	1.26143450010568	0	430869	253
842.79296875	0	health	response	2	100	40	foodImage.25	FOODEEG_Images\0261.jpg	YN	Left	Yes	1.26143450010568	0	431511	234
843.833984375	1	decision	trialStart	2	101	41	foodImage.105	FOODEEG_Images\0913.jpg	NY	Left	No	1.99367840006016	0	432044	251
844.873046875	2	decision	foodImageDisplay	2	101	41	foodImage.105	FOODEEG_Images\0913.jpg	NY	Left	No	1.99367840006016	0	432576	252
846.935546875	1.99367840006016	decision	choicePhaseStart	2	101	41	foodImage.105	FOODEEG_Images\0913.jpg	NY	Left	No	1.99367840006016	0	433632	253
848.919921875	0	decision	response	2	101	41	foodImage.105	FOODEEG_Images\0913.jpg	NY	Left	No	1.99367840006016	0	434648	234
849.962890625	1	taste	trialStart	2	102	42	foodImage.111	FOODEEG_Images\0919.jpg	YN	Right	No	0.810942699899897	0	435182	251
851	2	taste	foodImageDisplay	2	102	42	foodImage.111	FOODEEG_Images\0919.jpg	YN	Right	No	0.810942699899897	0	435713	252
853.0625	0.810942699899897	taste	choicePhaseStart	2	102	42	foodImage.111	FOODEEG_Images\0919.jpg	YN	Right	No	0.810942699899897	0	436769	253
853.86328125	0	taste	response	2	102	42	foodImage.111	FOODEEG_Images\0919.jpg	YN	Right	No	0.810942699899897	0	437179	235
854.90625	1	taste	trialStart	2	103	43	foodImage.22	FOODEEG_Images\0236.jpg	NY	Right	Yes	1.34805099992082	0	437713	251
855.94921875	2	taste	foodImageDisplay	2	103	43	foodImage.22	FOODEEG_Images\0236.jpg	NY	Right	Yes	1.34805099992082	0	438247	252
858.013671875	1.34805099992082	taste	choicePhaseStart	2	103	43	foodImage.22	FOODEEG_Images\0236.jpg	NY	Right	Yes	1.34805099992082	0	439304	253
859.3515625	0	taste	response	2	103	43	foodImage.22	FOODEEG_Images\0236.jpg	NY	Right	Yes	1.34805099992082	0	439989	235
860.39453125	1	taste	trialStart	2	104	44	foodImage.93	FOODEEG_Images\0901.jpg	YN	Left	Yes	1.70500509999692	0	440523	251
861.43359375	2	taste	foodImageDisplay	2	104	44	foodImage.93	FOODEEG_Images\0901.jpg	YN	Left	Yes	1.70500509999692	0	441055	252
863.501953125	1.70500509999692	taste	choicePhaseStart	2	104	44	foodImage.93	FOODEEG_Images\0901.jpg	YN	Left	Yes	1.70500509999692	0	442114	253
865.19921875	0	taste	response	2	104	44	foodImage.93	FOODEEG_Images\0901.jpg	YN	Left	Yes	1.70500509999692	0	442983	234
866.2421875	1	health	trialStart	2	105	45	foodImage.80	FOODEEG_Images\0796.jpg	YN	Left	Yes	0.75088239996694	0	443517	251
867.296875	2	health	foodImageDisplay	2	105	45	foodImage.80	FOODEEG_Images\0796.jpg	YN	Left	Yes	0.75088239996694	0	444057	252
869.361328125	0.75088239996694	health	choicePhaseStart	2	105	45	foodImage.80	FOODEEG_Images\0796.jpg	YN	Left	Yes	0.75088239996694	0	445114	253
870.103515625	0	health	response	2	105	45	foodImage.80	FOODEEG_Images\0796.jpg	YN	Left	Yes	0.75088239996694	0	445494	234
871.146484375	1	health	trialStart	2	106	46	foodImage.120	FOODEEG_Images\0928.jpg	NY	Right	Yes	3.22460209997371	0	446028	251
872.18359375	2	health	foodImageDisplay	2	106	46	foodImage.120	FOODEEG_Images\0928.jpg	NY	Right	Yes	3.22460209997371	0	446559	252
874.25390625	3.22460209997371	health	choicePhaseStart	2	106	46	foodImage.120	FOODEEG_Images\0928.jpg	NY	Right	Yes	3.22460209997371	0	447619	253
877.470703125	0	health	response	2	106	46	foodImage.120	FOODEEG_Images\0928.jpg	NY	Right	Yes	3.22460209997371	0	449266	235
878.513671875	1	taste	trialStart	2	107	47	foodImage.55	FOODEEG_Images\0567.jpg	NY	Right	Yes	1.12119890004396	0	449800	251
879.568359375	2	taste	foodImageDisplay	2	107	47	foodImage.55	FOODEEG_Images\0567.jpg	NY	Right	Yes	1.12119890004396	0	450340	252
881.630859375	1.12119890004396	taste	choicePhaseStart	2	107	47	foodImage.55	FOODEEG_Images\0567.jpg	NY	Right	Yes	1.12119890004396	0	451396	253
882.7421875	0	taste	response	2	107	47	foodImage.55	FOODEEG_Images\0567.jpg	NY	Right	Yes	1.12119890004396	0	451965	235
883.78515625	1	health	trialStart	2	108	48	foodImage.112	FOODEEG_Images\0920.jpg	NY	Left	No	1.29716790001839	0	452499	251
884.82421875	2	health	foodImageDisplay	2	108	48	foodImage.112	FOODEEG_Images\0920.jpg	NY	Left	No	1.29716790001839	0	453031	252
886.892578125	1.29716790001839	health	choicePhaseStart	2	108	48	foodImage.112	FOODEEG_Images\0920.jpg	NY	Left	No	1.29716790001839	0	454090	253
888.181640625	0	health	response	2	108	48	foodImage.112	FOODEEG_Images\0920.jpg	NY	Left	No	1.29716790001839	0	454750	234
889.224609375	1	decision	trialStart	2	109	49	foodImage.5	FOODEEG_Images\0107.jpg	YN	Left	Yes	0.868368800031021	0	455284	251
890.283203125	2	decision	foodImageDisplay	2	109	49	foodImage.5	FOODEEG_Images\0107.jpg	YN	Left	Yes	0.868368800031021	0	455826	252
892.34765625	0.868368800031021	decision	choicePhaseStart	2	109	49	foodImage.5	FOODEEG_Images\0107.jpg	YN	Left	Yes	0.868368800031021	0	456883	253
893.20703125	0	decision	response	2	109	49	foodImage.5	FOODEEG_Images\0107.jpg	YN	Left	Yes	0.868368800031021	0	457323	234
894.248046875	1	taste	trialStart	2	110	50	foodImage.2	FOODEEG_Images\0028.jpg	YN	Left	Yes	0.996568400179967	0	457856	251
895.291015625	2	taste	foodImageDisplay	2	110	50	foodImage.2	FOODEEG_Images\0028.jpg	YN	Left	Yes	0.996568400179967	0	458390	252
897.35546875	0.996568400179967	taste	choicePhaseStart	2	110	50	foodImage.2	FOODEEG_Images\0028.jpg	YN	Left	Yes	0.996568400179967	0	459447	253
898.341796875	0	taste	response	2	110	50	foodImage.2	FOODEEG_Images\0028.jpg	YN	Left	Yes	0.996568400179967	0	459952	234
899.384765625	1	taste	trialStart	2	111	51	foodImage.47	FOODEEG_Images\0488.jpg	NY	Right	Yes	0.810538899851963	0	460486	251
900.42578125	2	taste	foodImageDisplay	2	111	51	foodImage.47	FOODEEG_Images\0488.jpg	NY	Right	Yes	0.810538899851963	0	461019	252
902.4921875	0.810538899851963	taste	choicePhaseStart	2	111	51	foodImage.47	FOODEEG_Images\0488.jpg	NY	Right	Yes	0.810538899851963	0	462077	253
903.29296875	0	taste	response	2	111	51	foodImage.47	FOODEEG_Images\0488.jpg	NY	Right	Yes	0.810538899851963	0	462487	235
904.3359375	1	taste	trialStart	2	112	52	foodImage.69	FOODEEG_Images\0693.jpg	YN	Left	Yes	0.949625999899581	0	463021	251
905.37890625	2	taste	foodImageDisplay	2	112	52	foodImage.69	FOODEEG_Images\0693.jpg	YN	Left	Yes	0.949625999899581	0	463555	252
907.44140625	0.949625999899581	taste	choicePhaseStart	2	112	52	foodImage.69	FOODEEG_Images\0693.jpg	YN	Left	Yes	0.949625999899581	0	464611	253
908.380859375	0	taste	response	2	112	52	foodImage.69	FOODEEG_Images\0693.jpg	YN	Left	Yes	0.949625999899581	0	465092	234
909.423828125	1	health	trialStart	2	113	53	foodImage.104	FOODEEG_Images\0912.jpg	NY	Left	No	1.33357980009168	0	465626	251
910.462890625	2	health	foodImageDisplay	2	113	53	foodImage.104	FOODEEG_Images\0912.jpg	NY	Left	No	1.33357980009168	0	466158	252
912.525390625	1.33357980009168	health	choicePhaseStart	2	113	53	foodImage.104	FOODEEG_Images\0912.jpg	NY	Left	No	1.33357980009168	0	467214	253
913.853515625	0	health	response	2	113	53	foodImage.104	FOODEEG_Images\0912.jpg	NY	Left	No	1.33357980009168	0	467894	234
914.896484375	1	health	trialStart	2	114	54	foodImage.73	FOODEEG_Images\0717.jpg	NY	Right	Yes	0.899576399940997	0	468428	251
915.955078125	2	health	foodImageDisplay	2	114	54	foodImage.73	FOODEEG_Images\0717.jpg	NY	Right	Yes	0.899576399940997	0	468970	252
918.01953125	0.899576399940997	health	choicePhaseStart	2	114	54	foodImage.73	FOODEEG_Images\0717.jpg	NY	Right	Yes	0.899576399940997	0	470027	253
918.908203125	0	health	response	2	114	54	foodImage.73	FOODEEG_Images\0717.jpg	NY	Right	Yes	0.899576399940997	0	470482	235
919.95703125	1	decision	trialStart	2	115	55	foodImage.80	FOODEEG_Images\0796.jpg	YN	Left	Yes	0.896624800050631	0	471019	251
921.029296875	2	decision	foodImageDisplay	2	115	55	foodImage.80	FOODEEG_Images\0796.jpg	YN	Left	Yes	0.896624800050631	0	471568	252
923.09375	0.896624800050631	decision	choicePhaseStart	2	115	55	foodImage.80	FOODEEG_Images\0796.jpg	YN	Left	Yes	0.896624800050631	0	472625	253
923.98046875	0	decision	response	2	115	55	foodImage.80	FOODEEG_Images\0796.jpg	YN	Left	Yes	0.896624800050631	0	473079	234
925.029296875	1	health	trialStart	2	116	56	foodImage.37	FOODEEG_Images\0359.jpg	NY	Right	Yes	0.745939899934456	0	473616	251
926.068359375	2	health	foodImageDisplay	2	116	56	foodImage.37	FOODEEG_Images\0359.jpg	NY	Right	Yes	0.745939899934456	0	474148	252
928.1328125	0.745939899934456	health	choicePhaseStart	2	116	56	foodImage.37	FOODEEG_Images\0359.jpg	NY	Right	Yes	0.745939899934456	0	475205	253
928.869140625	0	health	response	2	116	56	foodImage.37	FOODEEG_Images\0359.jpg	NY	Right	Yes	0.745939899934456	0	475582	235
929.91015625	1	taste	trialStart	2	117	57	foodImage.51	FOODEEG_Images\0536.jpg	NY	Right	Yes	0.930778699927032	0	476115	251
930.953125	2	taste	foodImageDisplay	2	117	57	foodImage.51	FOODEEG_Images\0536.jpg	NY	Right	Yes	0.930778699927032	0	476649	252
933.017578125	0.930778699927032	taste	choicePhaseStart	2	117	57	foodImage.51	FOODEEG_Images\0536.jpg	NY	Right	Yes	0.930778699927032	0	477706	253
933.939453125	0	taste	response	2	117	57	foodImage.51	FOODEEG_Images\0536.jpg	NY	Right	Yes	0.930778699927032	0	478178	235
934.982421875	1	health	trialStart	2	118	58	foodImage.12	FOODEEG_Images\0181.jpg	YN	Right	No	1.28815650008619	0	478712	251
936.0234375	2	health	foodImageDisplay	2	118	58	foodImage.12	FOODEEG_Images\0181.jpg	YN	Right	No	1.28815650008619	0	479245	252
938.091796875	1.28815650008619	health	choicePhaseStart	2	118	58	foodImage.12	FOODEEG_Images\0181.jpg	YN	Right	No	1.28815650008619	0	480304	253
939.373046875	0	health	response	2	118	58	foodImage.12	FOODEEG_Images\0181.jpg	YN	Right	No	1.28815650008619	0	480960	235
940.4140625	1	decision	trialStart	2	119	59	foodImage.92	FOODEEG_Images\0900.jpg	NY	Left	No	1.05859549995512	0	481493	251
941.451171875	2	decision	foodImageDisplay	2	119	59	foodImage.92	FOODEEG_Images\0900.jpg	NY	Left	No	1.05859549995512	0	482024	252
943.515625	1.05859549995512	decision	choicePhaseStart	2	119	59	foodImage.92	FOODEEG_Images\0900.jpg	NY	Left	No	1.05859549995512	0	483081	253
944.564453125	0	decision	response	2	119	59	foodImage.92	FOODEEG_Images\0900.jpg	NY	Left	No	1.05859549995512	0	483618	234
945.609375	1	health	trialStart	2	120	60	foodImage.50	FOODEEG_Images\0529.jpg	NY	Right	Yes	0.668526099994779	0	484153	251
946.671875	2	health	foodImageDisplay	2	120	60	foodImage.50	FOODEEG_Images\0529.jpg	NY	Right	Yes	0.668526099994779	0	484697	252
948.736328125	0.668526099994779	health	choicePhaseStart	2	120	60	foodImage.50	FOODEEG_Images\0529.jpg	NY	Right	Yes	0.668526099994779	0	485754	253
949.396484375	0	health	response	2	120	60	foodImage.50	FOODEEG_Images\0529.jpg	NY	Right	Yes	0.668526099994779	0	486092	235
951.4375	61.4921875	n/a	blockEnd	n/a	n/a	n/a	n/a	n/a	n/a	n/a	n/a	n/a	n/a	487137	254
1012.9296875	2	n/a	blockStart	3	n/a	n/a	n/a	n/a	n/a	n/a	n/a	n/a	n/a	518621	250
1014.962890625	1	taste	trialStart	3	121	1	foodImage.33	FOODEEG_Images\0329.jpg	NY	Right	Yes	0.66409149998799	0	519662	251
1016.0078125	2	taste	foodImageDisplay	3	121	1	foodImage.33	FOODEEG_Images\0329.jpg	NY	Right	Yes	0.66409149998799	0	520197	252
1018.072265625	0.66409149998799	taste	choicePhaseStart	3	121	1	foodImage.33	FOODEEG_Images\0329.jpg	NY	Right	Yes	0.66409149998799	0	521254	253
1018.728515625	0	taste	response	3	121	1	foodImage.33	FOODEEG_Images\0329.jpg	NY	Right	Yes	0.66409149998799	0	521590	235
1019.771484375	1	health	trialStart	3	122	2	foodImage.19	FOODEEG_Images\0225.jpg	NY	Right	Yes	1.03725569997914	0	522124	251
1020.814453125	2	health	foodImageDisplay	3	122	2	foodImage.19	FOODEEG_Images\0225.jpg	NY	Right	Yes	1.03725569997914	0	522658	252
1022.876953125	1.03725569997914	health	choicePhaseStart	3	122	2	foodImage.19	FOODEEG_Images\0225.jpg	NY	Right	Yes	1.03725569997914	0	523714	253
1023.904296875	0	health	response	3	122	2	foodImage.19	FOODEEG_Images\0225.jpg	NY	Right	Yes	1.03725569997914	0	524240	235
1024.947265625	1	taste	trialStart	3	123	3	foodImage.41	FOODEEG_Images\0409.jpg	NY	Right	Yes	1.24767399998382	0	524774	251
1025.994140625	2	taste	foodImageDisplay	3	123	3	foodImage.41	FOODEEG_Images\0409.jpg	NY	Right	Yes	1.24767399998382	0	525310	252
1028.05859375	1.24767399998382	taste	choicePhaseStart	3	123	3	foodImage.41	FOODEEG_Images\0409.jpg	NY	Right	Yes	1.24767399998382	0	526367	253
1029.296875	0	taste	response	3	123	3	foodImage.41	FOODEEG_Images\0409.jpg	NY	Right	Yes	1.24767399998382	0	527001	235
1030.3359375	1	health	trialStart	3	124	4	foodImage.108	FOODEEG_Images\0916.jpg	NY	Left	No	1.06136159994639	0	527533	251
1031.375	2	health	foodImageDisplay	3	124	4	foodImage.108	FOODEEG_Images\0916.jpg	NY	Left	No	1.06136159994639	0	528065	252
1033.4375	1.06136159994639	health	choicePhaseStart	3	124	4	foodImage.108	FOODEEG_Images\0916.jpg	NY	Left	No	1.06136159994639	0	529121	253
1034.48828125	0	health	response	3	124	4	foodImage.108	FOODEEG_Images\0916.jpg	NY	Left	No	1.06136159994639	0	529659	234
1035.53125	1	decision	trialStart	3	125	5	foodImage.111	FOODEEG_Images\0919.jpg	YN	Right	No	0.931171600008383	0	530193	251
1036.568359375	2	decision	foodImageDisplay	3	125	5	foodImage.111	FOODEEG_Images\0919.jpg	YN	Right	No	0.931171600008383	0	530724	252
1038.630859375	0.931171600008383	decision	choicePhaseStart	3	125	5	foodImage.111	FOODEEG_Images\0919.jpg	YN	Right	No	0.931171600008383	0	531780	253
1039.552734375	0	decision	response	3	125	5	foodImage.111	FOODEEG_Images\0919.jpg	YN	Right	No	0.931171600008383	0	532252	235
1040.595703125	1	health	trialStart	3	126	6	foodImage.83	FOODEEG_Images\0827.jpg	NY	Right	Yes	1.05438719992526	0	532786	251
1041.65234375	2	health	foodImageDisplay	3	126	6	foodImage.83	FOODEEG_Images\0827.jpg	NY	Right	Yes	1.05438719992526	0	533327	252
1043.71484375	1.05438719992526	health	choicePhaseStart	3	126	6	foodImage.83	FOODEEG_Images\0827.jpg	NY	Right	Yes	1.05438719992526	0	534383	253
1044.759765625	0	health	response	3	126	6	foodImage.83	FOODEEG_Images\0827.jpg	NY	Right	Yes	1.05438719992526	0	534918	235
1045.802734375	1	taste	trialStart	3	127	7	foodImage.113	FOODEEG_Images\0921.jpg	NY	Right	Yes	1.29477129993029	0	535452	251
1046.84375	2	taste	foodImageDisplay	3	127	7	foodImage.113	FOODEEG_Images\0921.jpg	NY	Right	Yes	1.29477129993029	0	535985	252
1048.90625	1.29477129993029	taste	choicePhaseStart	3	127	7	foodImage.113	FOODEEG_Images\0921.jpg	NY	Right	Yes	1.29477129993029	0	537041	253
1050.19140625	0	taste	response	3	127	7	foodImage.113	FOODEEG_Images\0921.jpg	NY	Right	Yes	1.29477129993029	0	537699	235
1051.234375	1	health	trialStart	3	128	8	foodImage.29	FOODEEG_Images\0278.jpg	YN	Left	Yes	1.1575267999433	0	538233	251
1052.27734375	2	health	foodImageDisplay	3	128	8	foodImage.29	FOODEEG_Images\0278.jpg	YN	Left	Yes	1.1575267999433	0	538767	252
1054.33984375	1.1575267999433	health	choicePhaseStart	3	128	8	foodImage.29	FOODEEG_Images\0278.jpg	YN	Left	Yes	1.1575267999433	0	539823	253
1055.48828125	0	health	response	3	128	8	foodImage.29	FOODEEG_Images\0278.jpg	YN	Left	Yes	1.1575267999433	0	540411	234
1056.53515625	1	health	trialStart	3	129	9	foodImage.69	FOODEEG_Images\0693.jpg	NY	Right	Yes	1.78279790002853	0	540947	251
1057.578125	2	health	foodImageDisplay	3	129	9	foodImage.69	FOODEEG_Images\0693.jpg	NY	Right	Yes	1.78279790002853	0	541481	252
1059.642578125	1.78279790002853	health	choicePhaseStart	3	129	9	foodImage.69	FOODEEG_Images\0693.jpg	NY	Right	Yes	1.78279790002853	0	542538	253
1061.416015625	0	health	response	3	129	9	foodImage.69	FOODEEG_Images\0693.jpg	NY	Right	Yes	1.78279790002853	0	543446	235
1062.455078125	1	taste	trialStart	3	130	10	foodImage.28	FOODEEG_Images\0273.jpg	NY	Left	No	0.808240799931809	0	543978	251
1063.49609375	2	taste	foodImageDisplay	3	130	10	foodImage.28	FOODEEG_Images\0273.jpg	NY	Left	No	0.808240799931809	0	544511	252
1065.564453125	0.808240799931809	taste	choicePhaseStart	3	130	10	foodImage.28	FOODEEG_Images\0273.jpg	NY	Left	No	0.808240799931809	0	545570	253
1066.3671875	0	taste	response	3	130	10	foodImage.28	FOODEEG_Images\0273.jpg	NY	Left	No	0.808240799931809	0	545981	234
1067.41015625	1	taste	trialStart	3	131	11	foodImage.108	FOODEEG_Images\0916.jpg	YN	Right	No	1.10773700010031	0	546515	251
1068.447265625	2	taste	foodImageDisplay	3	131	11	foodImage.108	FOODEEG_Images\0916.jpg	YN	Right	No	1.10773700010031	0	547046	252
1070.509765625	1.10773700010031	taste	choicePhaseStart	3	131	11	foodImage.108	FOODEEG_Images\0916.jpg	YN	Right	No	1.10773700010031	0	548102	253
1071.607421875	0	taste	response	3	131	11	foodImage.108	FOODEEG_Images\0916.jpg	YN	Right	No	1.10773700010031	0	548664	235
1072.650390625	1	decision	trialStart	3	132	12	foodImage.98	FOODEEG_Images\0906.jpg	NY	Left	No	1.13000290002674	0	549198	251
1073.6953125	2	decision	foodImageDisplay	3	132	12	foodImage.98	FOODEEG_Images\0906.jpg	NY	Left	No	1.13000290002674	0	549733	252
1075.7578125	1.13000290002674	decision	choicePhaseStart	3	132	12	foodImage.98	FOODEEG_Images\0906.jpg	NY	Left	No	1.13000290002674	0	550789	253
1076.87890625	0	decision	response	3	132	12	foodImage.98	FOODEEG_Images\0906.jpg	NY	Left	No	1.13000290002674	0	551363	234
1077.921875	1	taste	trialStart	3	133	13	foodImage.62	FOODEEG_Images\0644.jpg	NY	Left	No	1.04822360002436	0	551897	251
1078.9765625	2	taste	foodImageDisplay	3	133	13	foodImage.62	FOODEEG_Images\0644.jpg	NY	Left	No	1.04822360002436	0	552437	252
1081.041015625	1.04822360002436	taste	choicePhaseStart	3	133	13	foodImage.62	FOODEEG_Images\0644.jpg	NY	Left	No	1.04822360002436	0	553494	253
1082.078125	0	taste	response	3	133	13	foodImage.62	FOODEEG_Images\0644.jpg	NY	Left	No	1.04822360002436	0	554025	234
1083.12109375	1	taste	trialStart	3	134	14	foodImage.1	FOODEEG_Images\0004.jpg	NY	Right	Yes	0.680525100091472	0	554559	251
1084.1640625	2	taste	foodImageDisplay	3	134	14	foodImage.1	FOODEEG_Images\0004.jpg	NY	Right	Yes	0.680525100091472	0	555093	252
1086.228515625	0.680525100091472	taste	choicePhaseStart	3	134	14	foodImage.1	FOODEEG_Images\0004.jpg	NY	Right	Yes	0.680525100091472	0	556150	253
1086.90234375	0	taste	response	3	134	14	foodImage.1	FOODEEG_Images\0004.jpg	NY	Right	Yes	0.680525100091472	0	556495	235
1087.9453125	1	taste	trialStart	3	135	15	foodImage.60	FOODEEG_Images\0614.jpg	NY	Right	Yes	1.50063779996708	0	557029	251
1089.00390625	2	taste	foodImageDisplay	3	135	15	foodImage.60	FOODEEG_Images\0614.jpg	NY	Right	Yes	1.50063779996708	0	557571	252
1091.068359375	1.50063779996708	taste	choicePhaseStart	3	135	15	foodImage.60	FOODEEG_Images\0614.jpg	NY	Right	Yes	1.50063779996708	0	558628	253
1092.55859375	0	taste	response	3	135	15	foodImage.60	FOODEEG_Images\0614.jpg	NY	Right	Yes	1.50063779996708	0	559391	235
1093.6015625	1	decision	trialStart	3	136	16	foodImage.101	FOODEEG_Images\0909.jpg	YN	Right	No	1.05320640001446	0	559925	251
1094.640625	2	decision	foodImageDisplay	3	136	16	foodImage.101	FOODEEG_Images\0909.jpg	YN	Right	No	1.05320640001446	0	560457	252
1096.705078125	1.05320640001446	decision	choicePhaseStart	3	136	16	foodImage.101	FOODEEG_Images\0909.jpg	YN	Right	No	1.05320640001446	0	561514	253
1097.75	0	decision	response	3	136	16	foodImage.101	FOODEEG_Images\0909.jpg	YN	Right	No	1.05320640001446	0	562049	235
1098.791015625	1	health	trialStart	3	137	17	foodImage.90	FOODEEG_Images\0890.jpg	NY	Right	Yes	1.70496809994802	0	562582	251
1099.87109375	2	health	foodImageDisplay	3	137	17	foodImage.90	FOODEEG_Images\0890.jpg	NY	Right	Yes	1.70496809994802	0	563135	252
1101.939453125	1.70496809994802	health	choicePhaseStart	3	137	17	foodImage.90	FOODEEG_Images\0890.jpg	NY	Right	Yes	1.70496809994802	0	564194	253
1103.63671875	0	health	response	3	137	17	foodImage.90	FOODEEG_Images\0890.jpg	NY	Right	Yes	1.70496809994802	0	565063	235
1104.681640625	1	taste	trialStart	3	138	18	foodImage.11	FOODEEG_Images\0180.jpg	YN	Left	Yes	1.22132040001452	0	565598	251
1105.72265625	2	taste	foodImageDisplay	3	138	18	foodImage.11	FOODEEG_Images\0180.jpg	YN	Left	Yes	1.22132040001452	0	566131	252
1107.78515625	1.22132040001452	taste	choicePhaseStart	3	138	18	foodImage.11	FOODEEG_Images\0180.jpg	YN	Left	Yes	1.22132040001452	0	567187	253
1108.998046875	0	taste	response	3	138	18	foodImage.11	FOODEEG_Images\0180.jpg	YN	Left	Yes	1.22132040001452	0	567808	234
1110.041015625	1	decision	trialStart	3	139	19	foodImage.82	FOODEEG_Images\0805.jpg	NY	Right	Yes	0.95717759989202	0	568342	251
1111.09765625	2	decision	foodImageDisplay	3	139	19	foodImage.82	FOODEEG_Images\0805.jpg	NY	Right	Yes	0.95717759989202	0	568883	252
1113.162109375	0.95717759989202	decision	choicePhaseStart	3	139	19	foodImage.82	FOODEEG_Images\0805.jpg	NY	Right	Yes	0.95717759989202	0	569940	253
1114.109375	0	decision	response	3	139	19	foodImage.82	FOODEEG_Images\0805.jpg	NY	Right	Yes	0.95717759989202	0	570425	235
1115.15625	1	decision	trialStart	3	140	20	foodImage.74	FOODEEG_Images\0752.jpg	NY	Right	Yes	0.624515699921176	0	570961	251
1116.19921875	2	decision	foodImageDisplay	3	140	20	foodImage.74	FOODEEG_Images\0752.jpg	NY	Right	Yes	0.624515699921176	0	571495	252
1118.26171875	0.624515699921176	decision	choicePhaseStart	3	140	20	foodImage.74	FOODEEG_Images\0752.jpg	NY	Right	Yes	0.624515699921176	0	572551	253
1118.876953125	0	decision	response	3	140	20	foodImage.74	FOODEEG_Images\0752.jpg	NY	Right	Yes	0.624515699921176	0	572866	235
1119.921875	1	taste	trialStart	3	141	21	foodImage.112	FOODEEG_Images\0920.jpg	YN	Right	No	1.31658439990133	0	573401	251
1120.96484375	2	taste	foodImageDisplay	3	141	21	foodImage.112	FOODEEG_Images\0920.jpg	YN	Right	No	1.31658439990133	0	573935	252
1123.03125	1.31658439990133	taste	choicePhaseStart	3	141	21	foodImage.112	FOODEEG_Images\0920.jpg	YN	Right	No	1.31658439990133	0	574993	253
1124.341796875	0	taste	response	3	141	21	foodImage.112	FOODEEG_Images\0920.jpg	YN	Right	No	1.31658439990133	0	575664	235
1125.3828125	1	decision	trialStart	3	142	22	foodImage.1	FOODEEG_Images\0004.jpg	YN	Left	Yes	0.838468100177124	0	576197	251
1126.423828125	2	decision	foodImageDisplay	3	142	22	foodImage.1	FOODEEG_Images\0004.jpg	YN	Left	Yes	0.838468100177124	0	576730	252
1128.48828125	0.838468100177124	decision	choicePhaseStart	3	142	22	foodImage.1	FOODEEG_Images\0004.jpg	YN	Left	Yes	0.838468100177124	0	577787	253
1129.31640625	0	decision	response	3	142	22	foodImage.1	FOODEEG_Images\0004.jpg	YN	Left	Yes	0.838468100177124	0	578211	234
1130.359375	1	taste	trialStart	3	143	23	foodImage.106	FOODEEG_Images\0914.jpg	YN	Left	Yes	0.834177300101146	0	578745	251
1131.40625	2	taste	foodImageDisplay	3	143	23	foodImage.106	FOODEEG_Images\0914.jpg	YN	Left	Yes	0.834177300101146	0	579281	252
1133.474609375	0.834177300101146	taste	choicePhaseStart	3	143	23	foodImage.106	FOODEEG_Images\0914.jpg	YN	Left	Yes	0.834177300101146	0	580340	253
1134.30078125	0	taste	response	3	143	23	foodImage.106	FOODEEG_Images\0914.jpg	YN	Left	Yes	0.834177300101146	0	580763	234
1135.34375	1	health	trialStart	3	144	24	foodImage.119	FOODEEG_Images\0927.jpg	YN	Right	No	1.46307390020229	0	581297	251
1136.380859375	2	health	foodImageDisplay	3	144	24	foodImage.119	FOODEEG_Images\0927.jpg	YN	Right	No	1.46307390020229	0	581828	252
1138.447265625	1.46307390020229	health	choicePhaseStart	3	144	24	foodImage.119	FOODEEG_Images\0927.jpg	YN	Right	No	1.46307390020229	0	582886	253
1139.900390625	0	health	response	3	144	24	foodImage.119	FOODEEG_Images\0927.jpg	YN	Right	No	1.46307390020229	0	583630	235
1140.943359375	1	taste	trialStart	3	145	25	foodImage.74	FOODEEG_Images\0752.jpg	YN	Left	Yes	1.27024960005656	0	584164	251
1141.986328125	2	taste	foodImageDisplay	3	145	25	foodImage.74	FOODEEG_Images\0752.jpg	YN	Left	Yes	1.27024960005656	0	584698	252
1144.048828125	1.27024960005656	taste	choicePhaseStart	3	145	25	foodImage.74	FOODEEG_Images\0752.jpg	YN	Left	Yes	1.27024960005656	0	585754	253
1145.30859375	0	taste	response	3	145	25	foodImage.74	FOODEEG_Images\0752.jpg	YN	Left	Yes	1.27024960005656	0	586399	234
1146.3515625	1	health	trialStart	3	146	26	foodImage.7	FOODEEG_Images\0116.jpg	YN	Right	No	1.08320420002565	0	586933	251
1147.392578125	2	health	foodImageDisplay	3	146	26	foodImage.7	FOODEEG_Images\0116.jpg	YN	Right	No	1.08320420002565	0	587466	252
1149.455078125	1.08320420002565	health	choicePhaseStart	3	146	26	foodImage.7	FOODEEG_Images\0116.jpg	YN	Right	No	1.08320420002565	0	588522	253
1150.53125	0	health	response	3	146	26	foodImage.7	FOODEEG_Images\0116.jpg	YN	Right	No	1.08320420002565	0	589073	235
1151.576171875	1	decision	trialStart	3	147	27	foodImage.22	FOODEEG_Images\0236.jpg	YN	Left	Yes	1.71677229995839	0	589608	251
1152.6171875	2	decision	foodImageDisplay	3	147	27	foodImage.22	FOODEEG_Images\0236.jpg	YN	Left	Yes	1.71677229995839	0	590141	252
1154.6796875	1.71677229995839	decision	choicePhaseStart	3	147	27	foodImage.22	FOODEEG_Images\0236.jpg	YN	Left	Yes	1.71677229995839	0	591197	253
1156.388671875	0	decision	response	3	147	27	foodImage.22	FOODEEG_Images\0236.jpg	YN	Left	Yes	1.71677229995839	0	592072	234
1157.4296875	1	decision	trialStart	3	148	28	foodImage.18	FOODEEG_Images\0202.jpg	YN	Left	Yes	0.967538400087506	0	592605	251
1158.486328125	2	decision	foodImageDisplay	3	148	28	foodImage.18	FOODEEG_Images\0202.jpg	YN	Left	Yes	0.967538400087506	0	593146	252
1160.548828125	0.967538400087506	decision	choicePhaseStart	3	148	28	foodImage.18	FOODEEG_Images\0202.jpg	YN	Left	Yes	0.967538400087506	0	594202	253
1161.5078125	0	decision	response	3	148	28	foodImage.18	FOODEEG_Images\0202.jpg	YN	Left	Yes	0.967538400087506	0	594693	234
1162.548828125	1	decision	trialStart	3	149	29	foodImage.94	FOODEEG_Images\0902.jpg	NY	Left	No	1.840139699867	0	595226	251
1163.587890625	2	decision	foodImageDisplay	3	149	29	foodImage.94	FOODEEG_Images\0902.jpg	NY	Left	No	1.840139699867	0	595758	252
1165.650390625	1.840139699867	decision	choicePhaseStart	3	149	29	foodImage.94	FOODEEG_Images\0902.jpg	NY	Left	No	1.840139699867	0	596814	253
1167.482421875	0	decision	response	3	149	29	foodImage.94	FOODEEG_Images\0902.jpg	NY	Left	No	1.840139699867	0	597752	234
1168.53125	1	health	trialStart	3	150	30	foodImage.98	FOODEEG_Images\0906.jpg	NY	Left	No	1.306174099911	0	598289	251
1169.568359375	2	health	foodImageDisplay	3	150	30	foodImage.98	FOODEEG_Images\0906.jpg	NY	Left	No	1.306174099911	0	598820	252
1171.630859375	1.306174099911	health	choicePhaseStart	3	150	30	foodImage.98	FOODEEG_Images\0906.jpg	NY	Left	No	1.306174099911	0	599876	253
1172.931640625	0	health	response	3	150	30	foodImage.98	FOODEEG_Images\0906.jpg	NY	Left	No	1.306174099911	0	600542	234
1173.974609375	1	taste	trialStart	3	151	31	foodImage.29	FOODEEG_Images\0278.jpg	NY	Left	No	1.64473020005971	0	601076	251
1175.015625	2	taste	foodImageDisplay	3	151	31	foodImage.29	FOODEEG_Images\0278.jpg	NY	Left	No	1.64473020005971	0	601609	252
1177.078125	1.64473020005971	taste	choicePhaseStart	3	151	31	foodImage.29	FOODEEG_Images\0278.jpg	NY	Left	No	1.64473020005971	0	602665	253
1178.71484375	0	taste	response	3	151	31	foodImage.29	FOODEEG_Images\0278.jpg	NY	Left	No	1.64473020005971	0	603503	234
1179.7578125	1	decision	trialStart	3	152	32	foodImage.44	FOODEEG_Images\0459.jpg	NY	Right	Yes	0.720851600170135	0	604037	251
1180.802734375	2	decision	foodImageDisplay	3	152	32	foodImage.44	FOODEEG_Images\0459.jpg	NY	Right	Yes	0.720851600170135	0	604572	252
1182.865234375	0.720851600170135	decision	choicePhaseStart	3	152	32	foodImage.44	FOODEEG_Images\0459.jpg	NY	Right	Yes	0.720851600170135	0	605628	253
1183.578125	0	decision	response	3	152	32	foodImage.44	FOODEEG_Images\0459.jpg	NY	Right	Yes	0.720851600170135	0	605993	235
1184.623046875	1	health	trialStart	3	153	33	foodImage.96	FOODEEG_Images\0904.jpg	YN	Left	Yes	1.1588805001229	0	606528	251
1185.66015625	2	health	foodImageDisplay	3	153	33	foodImage.96	FOODEEG_Images\0904.jpg	YN	Left	Yes	1.1588805001229	0	607059	252
1187.72265625	1.1588805001229	health	choicePhaseStart	3	153	33	foodImage.96	FOODEEG_Images\0904.jpg	YN	Left	Yes	1.1588805001229	0	608115	253
1188.875	0	health	response	3	153	33	foodImage.96	FOODEEG_Images\0904.jpg	YN	Left	Yes	1.1588805001229	0	608705	234
1189.91796875	1	decision	trialStart	3	154	34	foodImage.50	FOODEEG_Images\0529.jpg	NY	Right	Yes	0.867046399973333	0	609239	251
1190.9765625	2	decision	foodImageDisplay	3	154	34	foodImage.50	FOODEEG_Images\0529.jpg	NY	Right	Yes	0.867046399973333	0	609781	252
1193.041015625	0.867046399973333	decision	choicePhaseStart	3	154	34	foodImage.50	FOODEEG_Images\0529.jpg	NY	Right	Yes	0.867046399973333	0	610838	253
1193.8984375	0	decision	response	3	154	34	foodImage.50	FOODEEG_Images\0529.jpg	NY	Right	Yes	0.867046399973333	0	611277	235
1194.939453125	1	taste	trialStart	3	155	35	foodImage.12	FOODEEG_Images\0181.jpg	YN	Right	No	1.44674739986658	0	611810	251
1195.98828125	2	taste	foodImageDisplay	3	155	35	foodImage.12	FOODEEG_Images\0181.jpg	YN	Right	No	1.44674739986658	0	612347	252
1198.052734375	1.44674739986658	taste	choicePhaseStart	3	155	35	foodImage.12	FOODEEG_Images\0181.jpg	YN	Right	No	1.44674739986658	0	613404	253
1199.490234375	0	taste	response	3	155	35	foodImage.12	FOODEEG_Images\0181.jpg	YN	Right	No	1.44674739986658	0	614140	235
1200.53515625	1	health	trialStart	3	156	36	foodImage.45	FOODEEG_Images\0478.jpg	YN	Left	Yes	0.858769699931145	0	614675	251
1201.580078125	2	health	foodImageDisplay	3	156	36	foodImage.45	FOODEEG_Images\0478.jpg	YN	Left	Yes	0.858769699931145	0	615210	252
1203.646484375	0.858769699931145	health	choicePhaseStart	3	156	36	foodImage.45	FOODEEG_Images\0478.jpg	YN	Left	Yes	0.858769699931145	0	616268	253
1204.498046875	0	health	response	3	156	36	foodImage.45	FOODEEG_Images\0478.jpg	YN	Left	Yes	0.858769699931145	0	616704	234
1205.541015625	1	health	trialStart	3	157	37	foodImage.47	FOODEEG_Images\0488.jpg	YN	Right	No	1.19761499995366	0	617238	251
1206.58203125	2	health	foodImageDisplay	3	157	37	foodImage.47	FOODEEG_Images\0488.jpg	YN	Right	No	1.19761499995366	0	617771	252
1208.646484375	1.19761499995366	health	choicePhaseStart	3	157	37	foodImage.47	FOODEEG_Images\0488.jpg	YN	Right	No	1.19761499995366	0	618828	253
1209.833984375	0	health	response	3	157	37	foodImage.47	FOODEEG_Images\0488.jpg	YN	Right	No	1.19761499995366	0	619436	235
1210.876953125	1	health	trialStart	3	158	38	foodImage.14	FOODEEG_Images\0188.jpg	NY	Left	No	0.805931800045073	0	619970	251
1211.93359375	2	health	foodImageDisplay	3	158	38	foodImage.14	FOODEEG_Images\0188.jpg	NY	Left	No	0.805931800045073	0	620511	252
1213.998046875	0.805931800045073	health	choicePhaseStart	3	158	38	foodImage.14	FOODEEG_Images\0188.jpg	NY	Left	No	0.805931800045073	0	621568	253
1214.79296875	0	health	response	3	158	38	foodImage.14	FOODEEG_Images\0188.jpg	NY	Left	No	0.805931800045073	0	621975	234
1215.8359375	1	taste	trialStart	3	159	39	foodImage.46	FOODEEG_Images\0479.jpg	NY	Right	Yes	1.45345610007644	0	622509	251
1216.892578125	2	taste	foodImageDisplay	3	159	39	foodImage.46	FOODEEG_Images\0479.jpg	NY	Right	Yes	1.45345610007644	0	623050	252
1218.95703125	1.45345610007644	taste	choicePhaseStart	3	159	39	foodImage.46	FOODEEG_Images\0479.jpg	NY	Right	Yes	1.45345610007644	0	624107	253
1220.40234375	0	taste	response	3	159	39	foodImage.46	FOODEEG_Images\0479.jpg	NY	Right	Yes	1.45345610007644	0	624847	235
1221.443359375	1	health	trialStart	3	160	40	foodImage.3	FOODEEG_Images\0046.jpg	YN	Right	No	0.934309500036761	0	625380	251
1222.484375	2	health	foodImageDisplay	3	160	40	foodImage.3	FOODEEG_Images\0046.jpg	YN	Right	No	0.934309500036761	0	625913	252
1224.548828125	0.934309500036761	health	choicePhaseStart	3	160	40	foodImage.3	FOODEEG_Images\0046.jpg	YN	Right	No	0.934309500036761	0	626970	253
1225.47265625	0	health	response	3	160	40	foodImage.3	FOODEEG_Images\0046.jpg	YN	Right	No	0.934309500036761	0	627443	235
1226.515625	1	taste	trialStart	3	161	41	foodImage.10	FOODEEG_Images\0145.jpg	NY	Right	Yes	1.47785229980946	0	627977	251
1227.587890625	2	taste	foodImageDisplay	3	161	41	foodImage.10	FOODEEG_Images\0145.jpg	NY	Right	Yes	1.47785229980946	0	628526	252
1229.65234375	1.47785229980946	taste	choicePhaseStart	3	161	41	foodImage.10	FOODEEG_Images\0145.jpg	NY	Right	Yes	1.47785229980946	0	629583	253
1231.12109375	0	taste	response	3	161	41	foodImage.10	FOODEEG_Images\0145.jpg	NY	Right	Yes	1.47785229980946	0	630335	235
1232.1640625	1	decision	trialStart	3	162	42	foodImage.69	FOODEEG_Images\0693.jpg	YN	Left	Yes	1.14039269997738	0	630869	251
1233.205078125	2	decision	foodImageDisplay	3	162	42	foodImage.69	FOODEEG_Images\0693.jpg	YN	Left	Yes	1.14039269997738	0	631402	252
1235.26953125	1.14039269997738	decision	choicePhaseStart	3	162	42	foodImage.69	FOODEEG_Images\0693.jpg	YN	Left	Yes	1.14039269997738	0	632459	253
1236.400390625	0	decision	response	3	162	42	foodImage.69	FOODEEG_Images\0693.jpg	YN	Left	Yes	1.14039269997738	0	633038	234
1237.44140625	1	decision	trialStart	3	163	43	foodImage.30	FOODEEG_Images\0282.jpg	YN	Left	Yes	1.19889969984069	0	633571	251
1238.482421875	2	decision	foodImageDisplay	3	163	43	foodImage.30	FOODEEG_Images\0282.jpg	YN	Left	Yes	1.19889969984069	0	634104	252
1240.544921875	1.19889969984069	decision	choicePhaseStart	3	163	43	foodImage.30	FOODEEG_Images\0282.jpg	YN	Left	Yes	1.19889969984069	0	635160	253
1241.736328125	0	decision	response	3	163	43	foodImage.30	FOODEEG_Images\0282.jpg	YN	Left	Yes	1.19889969984069	0	635770	234
1242.779296875	1	health	trialStart	3	164	44	foodImage.67	FOODEEG_Images\0679.jpg	YN	Right	No	1.39679799997248	0	636304	251
1243.837890625	2	health	foodImageDisplay	3	164	44	foodImage.67	FOODEEG_Images\0679.jpg	YN	Right	No	1.39679799997248	0	636846	252
1245.900390625	1.39679799997248	health	choicePhaseStart	3	164	44	foodImage.67	FOODEEG_Images\0679.jpg	YN	Right	No	1.39679799997248	0	637902	253
1247.2890625	0	health	response	3	164	44	foodImage.67	FOODEEG_Images\0679.jpg	YN	Right	No	1.39679799997248	0	638613	235
1248.330078125	1	taste	trialStart	3	165	45	foodImage.54	FOODEEG_Images\0560.jpg	YN	Left	Yes	1.14165939996019	0	639146	251
1249.388671875	2	taste	foodImageDisplay	3	165	45	foodImage.54	FOODEEG_Images\0560.jpg	YN	Left	Yes	1.14165939996019	0	639688	252
1251.451171875	1.14165939996019	taste	choicePhaseStart	3	165	45	foodImage.54	FOODEEG_Images\0560.jpg	YN	Left	Yes	1.14165939996019	0	640744	253
1252.583984375	0	taste	response	3	165	45	foodImage.54	FOODEEG_Images\0560.jpg	YN	Left	Yes	1.14165939996019	0	641324	234
1253.625	1	taste	trialStart	3	166	46	foodImage.73	FOODEEG_Images\0717.jpg	NY	Left	No	1.04139950009994	0	641857	251
1254.693359375	2	taste	foodImageDisplay	3	166	46	foodImage.73	FOODEEG_Images\0717.jpg	NY	Left	No	1.04139950009994	0	642404	252
1256.7578125	1.04139950009994	taste	choicePhaseStart	3	166	46	foodImage.73	FOODEEG_Images\0717.jpg	NY	Left	No	1.04139950009994	0	643461	253
1257.791015625	0	taste	response	3	166	46	foodImage.73	FOODEEG_Images\0717.jpg	NY	Left	No	1.04139950009994	0	643990	234
1258.8359375	1	decision	trialStart	3	167	47	foodImage.81	FOODEEG_Images\0797.jpg	NY	Right	Yes	2.07685060007498	0	644525	251
1259.89453125	2	decision	foodImageDisplay	3	167	47	foodImage.81	FOODEEG_Images\0797.jpg	NY	Right	Yes	2.07685060007498	0	645067	252
1261.95703125	2.07685060007498	decision	choicePhaseStart	3	167	47	foodImage.81	FOODEEG_Images\0797.jpg	NY	Right	Yes	2.07685060007498	0	646123	253
1264.0234375	0	decision	response	3	167	47	foodImage.81	FOODEEG_Images\0797.jpg	NY	Right	Yes	2.07685060007498	0	647181	235
1265.06640625	1	health	trialStart	3	168	48	foodImage.42	FOODEEG_Images\0438.jpg	YN	Left	Yes	0.957315400009975	0	647715	251
1266.15625	2	health	foodImageDisplay	3	168	48	foodImage.42	FOODEEG_Images\0438.jpg	YN	Left	Yes	0.957315400009975	0	648273	252
1268.21875	0.957315400009975	health	choicePhaseStart	3	168	48	foodImage.42	FOODEEG_Images\0438.jpg	YN	Left	Yes	0.957315400009975	0	649329	253
1269.16796875	0	health	response	3	168	48	foodImage.42	FOODEEG_Images\0438.jpg	YN	Left	Yes	0.957315400009975	0	649815	234
1270.208984375	1	health	trialStart	3	169	49	foodImage.57	FOODEEG_Images\0587.jpg	YN	Right	No	1.16126580000855	0	650348	251
1271.26953125	2	health	foodImageDisplay	3	169	49	foodImage.57	FOODEEG_Images\0587.jpg	YN	Right	No	1.16126580000855	0	650891	252
1273.333984375	1.16126580000855	health	choicePhaseStart	3	169	49	foodImage.57	FOODEEG_Images\0587.jpg	YN	Right	No	1.16126580000855	0	651948	253
1274.486328125	0	health	response	3	169	49	foodImage.57	FOODEEG_Images\0587.jpg	YN	Right	No	1.16126580000855	0	652538	235
1275.53125	1	decision	trialStart	3	170	50	foodImage.37	FOODEEG_Images\0359.jpg	YN	Left	Yes	1.14564430015162	0	653073	251
1276.572265625	2	decision	foodImageDisplay	3	170	50	foodImage.37	FOODEEG_Images\0359.jpg	YN	Left	Yes	1.14564430015162	0	653606	252
1278.638671875	1.14564430015162	decision	choicePhaseStart	3	170	50	foodImage.37	FOODEEG_Images\0359.jpg	YN	Left	Yes	1.14564430015162	0	654664	253
1279.775390625	0	decision	response	3	170	50	foodImage.37	FOODEEG_Images\0359.jpg	YN	Left	Yes	1.14564430015162	0	655246	234
1280.826171875	1	health	trialStart	3	171	51	foodImage.15	FOODEEG_Images\0189.jpg	NY	Left	No	1.36569649982266	0	655784	251
1281.8828125	2	health	foodImageDisplay	3	171	51	foodImage.15	FOODEEG_Images\0189.jpg	NY	Left	No	1.36569649982266	0	656325	252
1283.947265625	1.36569649982266	health	choicePhaseStart	3	171	51	foodImage.15	FOODEEG_Images\0189.jpg	NY	Left	No	1.36569649982266	0	657382	253
1285.302734375	0	health	response	3	171	51	foodImage.15	FOODEEG_Images\0189.jpg	NY	Left	No	1.36569649982266	0	658076	234
1286.345703125	1	decision	trialStart	3	172	52	foodImage.57	FOODEEG_Images\0587.jpg	YN	Left	Yes	1.65038409992121	0	658610	251
1287.388671875	2	decision	foodImageDisplay	3	172	52	foodImage.57	FOODEEG_Images\0587.jpg	YN	Left	Yes	1.65038409992121	0	659144	252
1289.453125	1.65038409992121	decision	choicePhaseStart	3	172	52	foodImage.57	FOODEEG_Images\0587.jpg	YN	Left	Yes	1.65038409992121	0	660201	253
1291.09375	0	decision	response	3	172	52	foodImage.57	FOODEEG_Images\0587.jpg	YN	Left	Yes	1.65038409992121	0	661041	234
1292.13671875	1	taste	trialStart	3	173	53	foodImage.32	FOODEEG_Images\0319.jpg	YN	Left	Yes	0.779638200066984	0	661575	251
1293.1796875	2	taste	foodImageDisplay	3	173	53	foodImage.32	FOODEEG_Images\0319.jpg	YN	Left	Yes	0.779638200066984	0	662109	252
1295.244140625	0.779638200066984	taste	choicePhaseStart	3	173	53	foodImage.32	FOODEEG_Images\0319.jpg	YN	Left	Yes	0.779638200066984	0	663166	253
1296.013671875	0	taste	response	3	173	53	foodImage.32	FOODEEG_Images\0319.jpg	YN	Left	Yes	0.779638200066984	0	663560	234
1297.0703125	1	decision	trialStart	3	174	54	foodImage.26	FOODEEG_Images\0262.jpg	YN	Left	Yes	1.26934119989164	0	664101	251
1298.11328125	2	decision	foodImageDisplay	3	174	54	foodImage.26	FOODEEG_Images\0262.jpg	YN	Left	Yes	1.26934119989164	0	664635	252
1300.17578125	1.26934119989164	decision	choicePhaseStart	3	174	54	foodImage.26	FOODEEG_Images\0262.jpg	YN	Left	Yes	1.26934119989164	0	665691	253
1301.4375	0	decision	response	3	174	54	foodImage.26	FOODEEG_Images\0262.jpg	YN	Left	Yes	1.26934119989164	0	666337	234
1302.48046875	1	decision	trialStart	3	175	55	foodImage.42	FOODEEG_Images\0438.jpg	YN	Left	Yes	3.09686789987609	0	666871	251
1303.564453125	2	decision	foodImageDisplay	3	175	55	foodImage.42	FOODEEG_Images\0438.jpg	YN	Left	Yes	3.09686789987609	0	667426	252
1305.62890625	3.09686789987609	decision	choicePhaseStart	3	175	55	foodImage.42	FOODEEG_Images\0438.jpg	YN	Left	Yes	3.09686789987609	0	668483	253
1308.71875	0	decision	response	3	175	55	foodImage.42	FOODEEG_Images\0438.jpg	YN	Left	Yes	3.09686789987609	0	670065	234
1309.759765625	1	health	trialStart	3	176	56	foodImage.30	FOODEEG_Images\0282.jpg	NY	Right	Yes	0.895035800058395	0	670598	251
1310.80078125	2	health	foodImageDisplay	3	176	56	foodImage.30	FOODEEG_Images\0282.jpg	NY	Right	Yes	0.895035800058395	0	671131	252
1312.865234375	0.895035800058395	health	choicePhaseStart	3	176	56	foodImage.30	FOODEEG_Images\0282.jpg	NY	Right	Yes	0.895035800058395	0	672188	253
1313.75	0	health	response	3	176	56	foodImage.30	FOODEEG_Images\0282.jpg	NY	Right	Yes	0.895035800058395	0	672641	235
1314.79296875	1	decision	trialStart	3	177	57	foodImage.67	FOODEEG_Images\0679.jpg	NY	Right	Yes	1.03136870008893	0	673175	251
1315.849609375	2	decision	foodImageDisplay	3	177	57	foodImage.67	FOODEEG_Images\0679.jpg	NY	Right	Yes	1.03136870008893	0	673716	252
1317.912109375	1.03136870008893	decision	choicePhaseStart	3	177	57	foodImage.67	FOODEEG_Images\0679.jpg	NY	Right	Yes	1.03136870008893	0	674772	253
1318.93359375	0	decision	response	3	177	57	foodImage.67	FOODEEG_Images\0679.jpg	NY	Right	Yes	1.03136870008893	0	675295	235
1319.97265625	1	health	trialStart	3	178	58	foodImage.111	FOODEEG_Images\0919.jpg	YN	Right	No	0.99942610017024	0	675827	251
1321.01171875	2	health	foodImageDisplay	3	178	58	foodImage.111	FOODEEG_Images\0919.jpg	YN	Right	No	0.99942610017024	0	676359	252
1323.078125	0.99942610017024	health	choicePhaseStart	3	178	58	foodImage.111	FOODEEG_Images\0919.jpg	YN	Right	No	0.99942610017024	0	677417	253
1324.068359375	0	health	response	3	178	58	foodImage.111	FOODEEG_Images\0919.jpg	YN	Right	No	0.99942610017024	0	677924	235
1325.11328125	1	health	trialStart	3	179	59	foodImage.118	FOODEEG_Images\0926.jpg	YN	Right	No	0.921026499941945	0	678459	251
1326.150390625	2	health	foodImageDisplay	3	179	59	foodImage.118	FOODEEG_Images\0926.jpg	YN	Right	No	0.921026499941945	0	678990	252
1328.212890625	0.921026499941945	health	choicePhaseStart	3	179	59	foodImage.118	FOODEEG_Images\0926.jpg	YN	Right	No	0.921026499941945	0	680046	253
1329.125	0	health	response	3	179	59	foodImage.118	FOODEEG_Images\0926.jpg	YN	Right	No	0.921026499941945	0	680513	235
1330.189453125	1	decision	trialStart	3	180	60	foodImage.78	FOODEEG_Images\0787.jpg	YN	Left	Yes	0.795645999955013	0	681058	251
1331.234375	2	decision	foodImageDisplay	3	180	60	foodImage.78	FOODEEG_Images\0787.jpg	YN	Left	Yes	0.795645999955013	0	681593	252
1333.296875	0.795645999955013	decision	choicePhaseStart	3	180	60	foodImage.78	FOODEEG_Images\0787.jpg	YN	Left	Yes	0.795645999955013	0	682649	253
1334.083984375	0	decision	response	3	180	60	foodImage.78	FOODEEG_Images\0787.jpg	YN	Left	Yes	0.795645999955013	0	683052	234
1336.126953125	78.947265625	n/a	blockEnd	n/a	n/a	n/a	n/a	n/a	n/a	n/a	n/a	n/a	n/a	684098	254
1415.07421875	2	n/a	blockStart	4	n/a	n/a	n/a	n/a	n/a	n/a	n/a	n/a	n/a	724519	250
1417.107421875	1	health	trialStart	4	181	1	foodImage.44	FOODEEG_Images\0459.jpg	NY	Right	Yes	0.759390500141308	0	725560	251
1418.154296875	2	health	foodImageDisplay	4	181	1	foodImage.44	FOODEEG_Images\0459.jpg	NY	Right	Yes	0.759390500141308	0	726096	252
1420.21875	0.759390500141308	health	choicePhaseStart	4	181	1	foodImage.44	FOODEEG_Images\0459.jpg	NY	Right	Yes	0.759390500141308	0	727153	253
1420.96875	0	health	response	4	181	1	foodImage.44	FOODEEG_Images\0459.jpg	NY	Right	Yes	0.759390500141308	0	727537	235
1422.01171875	1	health	trialStart	4	182	2	foodImage.41	FOODEEG_Images\0409.jpg	YN	Left	Yes	0.775806100107729	0	728071	251
1423.068359375	2	health	foodImageDisplay	4	182	2	foodImage.41	FOODEEG_Images\0409.jpg	YN	Left	Yes	0.775806100107729	0	728612	252
1425.130859375	0.775806100107729	health	choicePhaseStart	4	182	2	foodImage.41	FOODEEG_Images\0409.jpg	YN	Left	Yes	0.775806100107729	0	729668	253
1425.896484375	0	health	response	4	182	2	foodImage.41	FOODEEG_Images\0409.jpg	YN	Left	Yes	0.775806100107729	0	730060	234
1426.939453125	1	health	trialStart	4	183	3	foodImage.84	FOODEEG_Images\0830.jpg	YN	Left	Yes	0.64605089998804	0	730594	251
1427.998046875	2	health	foodImageDisplay	4	183	3	foodImage.84	FOODEEG_Images\0830.jpg	YN	Left	Yes	0.64605089998804	0	731136	252
1430.060546875	0.64605089998804	health	choicePhaseStart	4	183	3	foodImage.84	FOODEEG_Images\0830.jpg	YN	Left	Yes	0.64605089998804	0	732192	253
1430.697265625	0	health	response	4	183	3	foodImage.84	FOODEEG_Images\0830.jpg	YN	Left	Yes	0.64605089998804	0	732518	234
1431.744140625	1	taste	trialStart	4	184	4	foodImage.110	FOODEEG_Images\0918.jpg	YN	Right	No	0.980348299955949	0	733054	251
1432.783203125	2	taste	foodImageDisplay	4	184	4	foodImage.110	FOODEEG_Images\0918.jpg	YN	Right	No	0.980348299955949	0	733586	252
1434.845703125	0.980348299955949	taste	choicePhaseStart	4	184	4	foodImage.110	FOODEEG_Images\0918.jpg	YN	Right	No	0.980348299955949	0	734642	253
1435.81640625	0	taste	response	4	184	4	foodImage.110	FOODEEG_Images\0918.jpg	YN	Right	No	0.980348299955949	0	735139	235
1436.859375	1	health	trialStart	4	185	5	foodImage.89	FOODEEG_Images\0881.jpg	NY	Right	Yes	1.20224289991893	0	735673	251
1437.9140625	2	health	foodImageDisplay	4	185	5	foodImage.89	FOODEEG_Images\0881.jpg	NY	Right	Yes	1.20224289991893	0	736213	252
1439.9765625	1.20224289991893	health	choicePhaseStart	4	185	5	foodImage.89	FOODEEG_Images\0881.jpg	NY	Right	Yes	1.20224289991893	0	737269	253
1441.16796875	0	health	response	4	185	5	foodImage.89	FOODEEG_Images\0881.jpg	NY	Right	Yes	1.20224289991893	0	737879	235
1442.216796875	1	health	trialStart	4	186	6	foodImage.105	FOODEEG_Images\0913.jpg	YN	Left	Yes	0.98078230000101	0	738416	251
1443.255859375	2	health	foodImageDisplay	4	186	6	foodImage.105	FOODEEG_Images\0913.jpg	YN	Left	Yes	0.98078230000101	0	738948	252
1445.322265625	0.98078230000101	health	choicePhaseStart	4	186	6	foodImage.105	FOODEEG_Images\0913.jpg	YN	Left	Yes	0.98078230000101	0	740006	253
1446.296875	0	health	response	4	186	6	foodImage.105	FOODEEG_Images\0913.jpg	YN	Left	Yes	0.98078230000101	0	740505	234
1447.345703125	1	health	trialStart	4	187	7	foodImage.35	FOODEEG_Images\0350.jpg	NY	Left	No	0.841621500207111	0	741042	251
1448.3828125	2	health	foodImageDisplay	4	187	7	foodImage.35	FOODEEG_Images\0350.jpg	NY	Left	No	0.841621500207111	0	741573	252
1450.447265625	0.841621500207111	health	choicePhaseStart	4	187	7	foodImage.35	FOODEEG_Images\0350.jpg	NY	Left	No	0.841621500207111	0	742630	253
1451.279296875	0	health	response	4	187	7	foodImage.35	FOODEEG_Images\0350.jpg	NY	Left	No	0.841621500207111	0	743056	234
1452.32421875	1	health	trialStart	4	188	8	foodImage.38	FOODEEG_Images\0365.jpg	YN	Left	Yes	0.689623099984601	0	743591	251
1453.361328125	2	health	foodImageDisplay	4	188	8	foodImage.38	FOODEEG_Images\0365.jpg	YN	Left	Yes	0.689623099984601	0	744122	252
1455.423828125	0.689623099984601	health	choicePhaseStart	4	188	8	foodImage.38	FOODEEG_Images\0365.jpg	YN	Left	Yes	0.689623099984601	0	745178	253
1456.103515625	0	health	response	4	188	8	foodImage.38	FOODEEG_Images\0365.jpg	YN	Left	Yes	0.689623099984601	0	745526	234
1457.15234375	1	health	trialStart	4	189	9	foodImage.39	FOODEEG_Images\0367.jpg	NY	Left	No	1.04464820004068	0	746063	251
1458.189453125	2	health	foodImageDisplay	4	189	9	foodImage.39	FOODEEG_Images\0367.jpg	NY	Left	No	1.04464820004068	0	746594	252
1460.251953125	1.04464820004068	health	choicePhaseStart	4	189	9	foodImage.39	FOODEEG_Images\0367.jpg	NY	Left	No	1.04464820004068	0	747650	253
1461.287109375	0	health	response	4	189	9	foodImage.39	FOODEEG_Images\0367.jpg	NY	Left	No	1.04464820004068	0	748180	234
1462.33203125	1	health	trialStart	4	190	10	foodImage.115	FOODEEG_Images\0923.jpg	NY	Right	Yes	2.15772070013918	0	748715	251
1463.380859375	2	health	foodImageDisplay	4	190	10	foodImage.115	FOODEEG_Images\0923.jpg	NY	Right	Yes	2.15772070013918	0	749252	252
1465.443359375	2.15772070013918	health	choicePhaseStart	4	190	10	foodImage.115	FOODEEG_Images\0923.jpg	NY	Right	Yes	2.15772070013918	0	750308	253
1467.591796875	0	health	response	4	190	10	foodImage.115	FOODEEG_Images\0923.jpg	NY	Right	Yes	2.15772070013918	0	751408	235
1468.634765625	1	health	trialStart	4	191	11	foodImage.76	FOODEEG_Images\0766.jpg	YN	Left	Yes	0.826340100029483	0	751942	251
1469.6796875	2	health	foodImageDisplay	4	191	11	foodImage.76	FOODEEG_Images\0766.jpg	YN	Left	Yes	0.826340100029483	0	752477	252
1471.7421875	0.826340100029483	health	choicePhaseStart	4	191	11	foodImage.76	FOODEEG_Images\0766.jpg	YN	Left	Yes	0.826340100029483	0	753533	253
1472.55859375	0	health	response	4	191	11	foodImage.76	FOODEEG_Images\0766.jpg	YN	Left	Yes	0.826340100029483	0	753951	234
1473.6015625	1	decision	trialStart	4	192	12	foodImage.113	FOODEEG_Images\0921.jpg	NY	Right	Yes	0.839430799940601	0	754485	251
1474.640625	2	decision	foodImageDisplay	4	192	12	foodImage.113	FOODEEG_Images\0921.jpg	NY	Right	Yes	0.839430799940601	0	755017	252
1476.705078125	0.839430799940601	decision	choicePhaseStart	4	192	12	foodImage.113	FOODEEG_Images\0921.jpg	NY	Right	Yes	0.839430799940601	0	756074	253
1477.53515625	0	decision	response	4	192	12	foodImage.113	FOODEEG_Images\0921.jpg	NY	Right	Yes	0.839430799940601	0	756499	235
1478.578125	1	health	trialStart	4	193	13	foodImage.33	FOODEEG_Images\0329.jpg	NY	Right	Yes	0.757098000030965	0	757033	251
1479.619140625	2	health	foodImageDisplay	4	193	13	foodImage.33	FOODEEG_Images\0329.jpg	NY	Right	Yes	0.757098000030965	0	757566	252
