onset	duration	trial_type	event_type	block	trial_total	trial_in_block	food_image_code	food_image_path	button_position	resp_position	resp_choice	choice_rt	resp_too_slow	sample	trigger
373.283203125	2	n/a	blockStart	1	n/a	n/a	n/a	n/a	n/a	n/a	n/a	n/a	n/a	191122	250
375.318359375	1	taste	trialStart	1	1	1	foodImage.58	FOODEEG_Images\0605.jpg	NY	Right	Yes	0.775806899997406	0	192164	251
376.380859375	2	taste	foodImageDisplay	1	1	1	foodImage.58	FOODEEG_Images\0605.jpg	NY	Right	Yes	0.775806899997406	0	192708	252
378.447265625	0.775806899997406	taste	choicePhaseStart	1	1	1	foodImage.58	FOODEEG_Images\0605.jpg	NY	Right	Yes	0.775806899997406	0	193766	253
379.21484375	0	taste	response	1	1	1	foodImage.58	FOODEEG_Images\0605.jpg	NY	Right	Yes	0.775806899997406	0	194159	235
380.31640625	1	health	trialStart	1	2	2	foodImage.46	FOODEEG_Images\0479.jpg	YN	Left	Yes	1.39193019999948	0	194723	251
381.375	2	health	foodImageDisplay	1	2	2	foodImage.46	FOODEEG_Images\0479.jpg	YN	Left	Yes	1.39193019999948	0	195265	252
383.4375	1.39193019999948	health	choicePhaseStart	1	2	2	foodImage.46	FOODEEG_Images\0479.jpg	YN	Left	Yes	1.39193019999948	0	196321	253
384.822265625	0	health	response	1	2	2	foodImage.46	FOODEEG_Images\0479.jpg	YN	Left	Yes	1.39193019999948	0	197030	234
385.876953125	1	health	trialStart	1	3	3	foodImage.29	FOODEEG_Images\0278.jpg	YN	Left	Yes	1.52251650000107	0	197570	251
386.939453125	2	health	foodImageDisplay	1	3	3	foodImage.29	FOODEEG_Images\0278.jpg	YN	Left	Yes	1.52251650000107	0	198114	252
389.00390625	1.52251650000107	health	choicePhaseStart	1	3	3	foodImage.29	FOODEEG_Images\0278.jpg	YN	Left	Yes	1.52251650000107	0	199171	253
390.517578125	0	health	response	1	3	3	foodImage.29	FOODEEG_Images\0278.jpg	YN	Left	Yes	1.52251650000107	0	199946	234
391.560546875	1	decision	trialStart	1	4	4	foodImage.26	FOODEEG_Images\0262.jpg	YN	Left	Yes	1.16338080000423	0	200480	251
392.625	2	decision	foodImageDisplay	1	4	4	foodImage.26	FOODEEG_Images\0262.jpg	YN	Left	Yes	1.16338080000423	0	201025	252
394.689453125	1.16338080000423	decision	choicePhaseStart	1	4	4	foodImage.26	FOODEEG_Images\0262.jpg	YN	Left	Yes	1.16338080000423	0	202082	253
395.845703125	0	decision	response	1	4	4	foodImage.26	FOODEEG_Images\0262.jpg	YN	Left	Yes	1.16338080000423	0	202674	234
396.890625	1	decision	trialStart	1	5	5	foodImage.70	FOODEEG_Images\0705.jpg	YN	Left	Yes	0.704509400005918	0	203209	251
397.95703125	2	decision	foodImageDisplay	1	5	5	foodImage.70	FOODEEG_Images\0705.jpg	YN	Left	Yes	0.704509400005918	0	203755	252
400.021484375	0.704509400005918	decision	choicePhaseStart	1	5	5	foodImage.70	FOODEEG_Images\0705.jpg	YN	Left	Yes	0.704509400005918	0	204812	253
400.716796875	0	decision	response	1	5	5	foodImage.70	FOODEEG_Images\0705.jpg	YN	Left	Yes	0.704509400005918	0	205168	234
401.771484375	1	health	trialStart	1	6	6	foodImage.39	FOODEEG_Images\0367.jpg	NY	Left	No	1.46080990000337	0	205708	251
402.822265625	2	health	foodImageDisplay	1	6	6	foodImage.39	FOODEEG_Images\0367.jpg	NY	Left	No	1.46080990000337	0	206246	252
404.88671875	1.46080990000337	health	choicePhaseStart	1	6	6	foodImage.39	FOODEEG_Images\0367.jpg	NY	Left	No	1.46080990000337	0	207303	253
406.341796875	0	health	response	1	6	6	foodImage.39	FOODEEG_Images\0367.jpg	NY	Left	No	1.46080990000337	0	208048	234
407.38671875	1	health	trialStart	1	7	7	foodImage.32	FOODEEG_Images\0319.jpg	NY	Right	Yes	1.65567009999359	0	208583	251
408.44921875	2	health	foodImageDisplay	1	7	7	foodImage.32	FOODEEG_Images\0319.jpg	NY	Right	Yes	1.65567009999359	0	209127	252
410.515625	1.65567009999359	health	choicePhaseStart	1	7	7	foodImage.32	FOODEEG_Images\0319.jpg	NY	Right	Yes	1.65567009999359	0	210185	253
412.1640625	0	health	response	1	7	7	foodImage.32	FOODEEG_Images\0319.jpg	NY	Right	Yes	1.65567009999359	0	211029	235
413.208984375	1	decision	trialStart	1	8	8	foodImage.25	FOODEEG_Images\0261.jpg	YN	Left	Yes	1.24315490000299	0	211564	251
414.263671875	2	decision	foodImageDisplay	1	8	8	foodImage.25	FOODEEG_Images\0261.jpg	YN	Left	Yes	1.24315490000299	0	212104	252
416.328125	1.24315490000299	decision	choicePhaseStart	1	8	8	foodImage.25	FOODEEG_Images\0261.jpg	YN	Left	Yes	1.24315490000299	0	213161	253
417.564453125	0	decision	response	1	8	8	foodImage.25	FOODEEG_Images\0261.jpg	YN	Left	Yes	1.24315490000299	0	213794	234
418.6171875	1	taste	trialStart	1	9	9	foodImage.75	FOODEEG_Images\0763.jpg	YN	Left	Yes	1.89592090000224	0	214333	251
419.66015625	2	taste	foodImageDisplay	1	9	9	foodImage.75	FOODEEG_Images\0763.jpg	YN	Left	Yes	1.89592090000224	0	214867	252
421.73046875	1.89592090000224	taste	choicePhaseStart	1	9	9	foodImage.75	FOODEEG_Images\0763.jpg	YN	Left	Yes	1.89592090000224	0	215927	253
423.62109375	0	taste	response	1	9	9	foodImage.75	FOODEEG_Images\0763.jpg	YN	Left	Yes	1.89592090000224	0	216895	234
424.66015625	1	decision	trialStart	1	10	10	foodImage.28	FOODEEG_Images\0273.jpg	NY	Left	No	1.30610849999357	0	217427	251
425.703125	2	decision	foodImageDisplay	1	10	10	foodImage.28	FOODEEG_Images\0273.jpg	NY	Left	No	1.30610849999357	0	217961	252
427.771484375	1.30610849999357	decision	choicePhaseStart	1	10	10	foodImage.28	FOODEEG_Images\0273.jpg	NY	Left	No	1.30610849999357	0	219020	253
429.068359375	0	decision	response	1	10	10	foodImage.28	FOODEEG_Images\0273.jpg	NY	Left	No	1.30610849999357	0	219684	234
430.111328125	1	decision	trialStart	1	11	11	foodImage.112	FOODEEG_Images\0920.jpg	YN	Right	No	1.20509470000979	0	220218	251
431.154296875	2	decision	foodImageDisplay	1	11	11	foodImage.112	FOODEEG_Images\0920.jpg	YN	Right	No	1.20509470000979	0	220752	252
433.220703125	1.20509470000979	decision	choicePhaseStart	1	11	11	foodImage.112	FOODEEG_Images\0920.jpg	YN	Right	No	1.20509470000979	0	221810	253
434.419921875	0	decision	response	1	11	11	foodImage.112	FOODEEG_Images\0920.jpg	YN	Right	No	1.20509470000979	0	222424	235
435.462890625	1	decision	trialStart	1	12	12	foodImage.66	FOODEEG_Images\0676.jpg	NY	Right	Yes	1.43111419999332	0	222958	251
436.5078125	2	decision	foodImageDisplay	1	12	12	foodImage.66	FOODEEG_Images\0676.jpg	NY	Right	Yes	1.43111419999332	0	223493	252
438.572265625	1.43111419999332	decision	choicePhaseStart	1	12	12	foodImage.66	FOODEEG_Images\0676.jpg	NY	Right	Yes	1.43111419999332	0	224550	253
439.99609375	0	decision	response	1	12	12	foodImage.66	FOODEEG_Images\0676.jpg	NY	Right	Yes	1.43111419999332	0	225279	235
441.037109375	1	decision	trialStart	1	13	13	foodImage.31	FOODEEG_Images\0294.jpg	NY	n/a	n/a	1.01990159999696	0	225812	251
442.08984375	2	decision	foodImageDisplay	1	13	13	foodImage.31	FOODEEG_Images\0294.jpg	NY	Right	Yes	1.01990159999696	0	226351	252
444.154296875	1.01990159999696	decision	choicePhaseStart	1	13	13	foodImage.31	FOODEEG_Images\0294.jpg	NY	Right	Yes	1.01990159999696	0	227408	253
445.1640625	0	decision	response	1	13	13	foodImage.31	FOODEEG_Images\0294.jpg	NY	Right	Yes	1.01990159999696	0	227925	235
446.20703125	1	taste	trialStart	1	14	14	foodImage.103	FOODEEG_Images\0911.jpg	NY	Left	No	1.5256584000017	0	228459	251
447.26171875	2	taste	foodImageDisplay	1	14	14	foodImage.103	FOODEEG_Images\0911.jpg	NY	Left	No	1.5256584000017	0	228999	252
449.326171875	1.5256584000017	taste	choicePhaseStart	1	14	14	foodImage.103	FOODEEG_Images\0911.jpg	NY	Left	No	1.5256584000017	0	230056	253
450.84375	0	taste	response	1	14	14	foodImage.103	FOODEEG_Images\0911.jpg	NY	Left	No	1.5256584000017	0	230833	234
451.88671875	1	taste	trialStart	1	15	15	foodImage.33	FOODEEG_Images\0329.jpg	YN	Left	Yes	1.14065390000178	0	231367	251
452.951171875	2	taste	foodImageDisplay	1	15	15	foodImage.33	FOODEEG_Images\0329.jpg	YN	Left	Yes	1.14065390000178	0	231912	252
455.015625	1.14065390000178	taste	choicePhaseStart	1	15	15	foodImage.33	FOODEEG_Images\0329.jpg	YN	Left	Yes	1.14065390000178	0	232969	253
456.146484375	0	taste	response	1	15	15	foodImage.33	FOODEEG_Images\0329.jpg	YN	Left	Yes	1.14065390000178	0	233548	234
457.19140625	1	health	trialStart	1	16	16	foodImage.95	FOODEEG_Images\0903.jpg	YN	Right	No	1.1609754999954	0	234083	251
458.2421875	2	health	foodImageDisplay	1	16	16	foodImage.95	FOODEEG_Images\0903.jpg	YN	Right	No	1.1609754999954	0	234621	252
460.306640625	1.1609754999954	health	choicePhaseStart	1	16	16	foodImage.95	FOODEEG_Images\0903.jpg	YN	Right	No	1.1609754999954	0	235678	253
461.458984375	0	health	response	1	16	16	foodImage.95	FOODEEG_Images\0903.jpg	YN	Right	No	1.1609754999954	0	236268	235
462.501953125	1	decision	trialStart	1	17	17	foodImage.74	FOODEEG_Images\0752.jpg	NY	Right	Yes	0.850872199996957	0	236802	251
463.546875	2	decision	foodImageDisplay	1	17	17	foodImage.74	FOODEEG_Images\0752.jpg	NY	Right	Yes	0.850872199996957	0	237337	252
465.609375	0.850872199996957	decision	choicePhaseStart	1	17	17	foodImage.74	FOODEEG_Images\0752.jpg	NY	Right	Yes	0.850872199996957	0	238393	253
466.451171875	0	decision	response	1	17	17	foodImage.74	FOODEEG_Images\0752.jpg	NY	Right	Yes	0.850872199996957	0	238824	235
467.4921875	1	taste	trialStart	1	18	18	foodImage.1	FOODEEG_Images\0004.jpg	NY	Right	Yes	1.09637579999981	0	239357	251
468.537109375	2	taste	foodImageDisplay	1	18	18	foodImage.1	FOODEEG_Images\0004.jpg	NY	Right	Yes	1.09637579999981	0	239892	252
470.6015625	1.09637579999981	taste	choicePhaseStart	1	18	18	foodImage.1	FOODEEG_Images\0004.jpg	NY	Right	Yes	1.09637579999981	0	240949	253
471.689453125	0	taste	response	1	18	18	foodImage.1	FOODEEG_Images\0004.jpg	NY	Right	Yes	1.09637579999981	0	241506	235
472.732421875	1	decision	trialStart	1	19	19	foodImage.6	FOODEEG_Images\0113.jpg	NY	Right	Yes	0.998794099999941	0	242040	251
473.796875	2	decision	foodImageDisplay	1	19	19	foodImage.6	FOODEEG_Images\0113.jpg	NY	Right	Yes	0.998794099999941	0	242585	252
475.859375	0.998794099999941	decision	choicePhaseStart	1	19	19	foodImage.6	FOODEEG_Images\0113.jpg	NY	Right	Yes	0.998794099999941	0	243641	253
476.849609375	0	decision	response	1	19	19	foodImage.6	FOODEEG_Images\0113.jpg	NY	Right	Yes	0.998794099999941	0	244148	235
477.896484375	1	decision	trialStart	1	20	20	foodImage.43	FOODEEG_Images\0445.jpg	NY	Left	No	1.79214450001018	0	244684	251
478.978515625	2	decision	foodImageDisplay	1	20	20	foodImage.43	FOODEEG_Images\0445.jpg	NY	Left	No	1.79214450001018	0	245238	252
481.04296875	1.79214450001018	decision	choicePhaseStart	1	20	20	foodImage.43	FOODEEG_Images\0445.jpg	NY	Left	No	1.79214450001018	0	246295	253
482.826171875	0	decision	response	1	20	20	foodImage.43	FOODEEG_Images\0445.jpg	NY	Left	No	1.79214450001018	0	247208	234
483.869140625	1	taste	trialStart	1	21	21	foodImage.66	FOODEEG_Images\0676.jpg	YN	Left	Yes	1.15579819999402	0	247742	251
484.912109375	2	taste	foodImageDisplay	1	21	21	foodImage.66	FOODEEG_Images\0676.jpg	YN	Left	Yes	1.15579819999402	0	248276	252
486.974609375	1.15579819999402	taste	choicePhaseStart	1	21	21	foodImage.66	FOODEEG_Images\0676.jpg	YN	Left	Yes	1.15579819999402	0	249332	253
488.12109375	0	taste	response	1	21	21	foodImage.66	FOODEEG_Images\0676.jpg	YN	Left	Yes	1.15579819999402	0	249919	234
489.1640625	1	taste	trialStart	1	22	22	foodImage.105	FOODEEG_Images\0913.jpg	NY	Left	No	2.24626850000641	0	250453	251
490.205078125	2	taste	foodImageDisplay	1	22	22	foodImage.105	FOODEEG_Images\0913.jpg	NY	Left	No	2.24626850000641	0	250986	252
492.267578125	2.24626850000641	taste	choicePhaseStart	1	22	22	foodImage.105	FOODEEG_Images\0913.jpg	NY	Left	No	2.24626850000641	0	252042	253
494.505859375	0	taste	response	1	22	22	foodImage.105	FOODEEG_Images\0913.jpg	NY	Left	No	2.24626850000641	0	253188	234
495.552734375	1	health	trialStart	1	23	23	foodImage.55	FOODEEG_Images\0567.jpg	YN	Left	Yes	1.30154880000919	0	253724	251
496.61328125	2	health	foodImageDisplay	1	23	23	foodImage.55	FOODEEG_Images\0567.jpg	YN	Left	Yes	1.30154880000919	0	254267	252
498.67578125	1.30154880000919	health	choicePhaseStart	1	23	23	foodImage.55	FOODEEG_Images\0567.jpg	YN	Left	Yes	1.30154880000919	0	255323	253
499.96875	0	health	response	1	23	23	foodImage.55	FOODEEG_Images\0567.jpg	YN	Left	Yes	1.30154880000919	0	255985	234
501.01171875	1	taste	trialStart	1	24	24	foodImage.116	FOODEEG_Images\0924.jpg	NY	Left	No	2.36931619999814	0	256519	251
502.05078125	2	taste	foodImageDisplay	1	24	24	foodImage.116	FOODEEG_Images\0924.jpg	NY	Left	No	2.36931619999814	0	257051	252
504.11328125	2.36931619999814	taste	choicePhaseStart	1	24	24	foodImage.116	FOODEEG_Images\0924.jpg	NY	Left	No	2.36931619999814	0	258107	253
506.47265625	0	taste	response	1	24	24	foodImage.116	FOODEEG_Images\0924.jpg	NY	Left	No	2.36931619999814	0	259315	234
507.517578125	1	health	trialStart	1	25	25	foodImage.110	FOODEEG_Images\0918.jpg	NY	Right	Yes	1.23813320000772	0	259850	251
508.556640625	2	health	foodImageDisplay	1	25	25	foodImage.110	FOODEEG_Images\0918.jpg	NY	Right	Yes	1.23813320000772	0	260382	252
510.619140625	1.23813320000772	health	choicePhaseStart	1	25	25	foodImage.110	FOODEEG_Images\0918.jpg	NY	Right	Yes	1.23813320000772	0	261438	253
511.849609375	0	health	response	1	25	25	foodImage.110	FOODEEG_Images\0918.jpg	NY	Right	Yes	1.23813320000772	0	262068	235
512.888671875	1	decision	trialStart	1	26	26	foodImage.67	FOODEEG_Images\0679.jpg	NY	Right	Yes	1.44162769999821	0	262600	251
513.947265625	2	decision	foodImageDisplay	1	26	26	foodImage.67	FOODEEG_Images\0679.jpg	NY	Right	Yes	1.44162769999821	0	263142	252
516.015625	1.44162769999821	decision	choicePhaseStart	1	26	26	foodImage.67	FOODEEG_Images\0679.jpg	NY	Right	Yes	1.44162769999821	0	264201	253
517.44921875	0	decision	response	1	26	26	foodImage.67	FOODEEG_Images\0679.jpg	NY	Right	Yes	1.44162769999821	0	264935	235
518.4921875	1	decision	trialStart	1	27	27	foodImage.44	FOODEEG_Images\0459.jpg	YN	Left	Yes	1.09866190000321	0	265469	251
519.560546875	2	decision	foodImageDisplay	1	27	27	foodImage.44	FOODEEG_Images\0459.jpg	YN	Left	Yes	1.09866190000321	0	266016	252
521.623046875	1.09866190000321	decision	choicePhaseStart	1	27	27	foodImage.44	FOODEEG_Images\0459.jpg	YN	Left	Yes	1.09866190000321	0	267072	253
522.712890625	0	decision	response	1	27	27	foodImage.44	FOODEEG_Images\0459.jpg	YN	Left	Yes	1.09866190000321	0	267630	234
523.755859375	1	health	trialStart	1	28	28	foodImage.47	FOODEEG_Images\0488.jpg	YN	Right	No	1.47623549999844	0	268164	251
524.796875	2	health	foodImageDisplay	1	28	28	foodImage.47	FOODEEG_Images\0488.jpg	YN	Right	No	1.47623549999844	0	268697	252
526.861328125	1.47623549999844	health	choicePhaseStart	1	28	28	foodImage.47	FOODEEG_Images\0488.jpg	YN	Right	No	1.47623549999844	0	269754	253
528.328125	0	health	response	1	28	28	foodImage.47	FOODEEG_Images\0488.jpg	YN	Right	No	1.47623549999844	0	270505	235
529.37109375	1	health	trialStart	1	29	29	foodImage.101	FOODEEG_Images\0909.jpg	YN	Right	No	0.909082599988324	0	271039	251
530.42578125	2	health	foodImageDisplay	1	29	29	foodImage.101	FOODEEG_Images\0909.jpg	YN	Right	No	0.909082599988324	0	271579	252
532.4921875	0.909082599988324	health	choicePhaseStart	1	29	29	foodImage.101	FOODEEG_Images\0909.jpg	YN	Right	No	0.909082599988324	0	272637	253
533.392578125	0	health	response	1	29	29	foodImage.101	FOODEEG_Images\0909.jpg	YN	Right	No	0.909082599988324	0	273098	235
534.435546875	1	health	trialStart	1	30	30	foodImage.85	FOODEEG_Images\0841.jpg	NY	Right	Yes	1.64060309999331	0	273632	251
535.51171875	2	health	foodImageDisplay	1	30	30	foodImage.85	FOODEEG_Images\0841.jpg	NY	Right	Yes	1.64060309999331	0	274183	252
537.576171875	1.64060309999331	health	choicePhaseStart	1	30	30	foodImage.85	FOODEEG_Images\0841.jpg	NY	Right	Yes	1.64060309999331	0	275240	253
539.20703125	0	health	response	1	30	30	foodImage.85	FOODEEG_Images\0841.jpg	NY	Right	Yes	1.64060309999331	0	276075	235
540.25	1	health	trialStart	1	31	31	foodImage.97	FOODEEG_Images\0905.jpg	NY	Left	No	1.90426650000154	0	276609	251
541.291015625	2	health	foodImageDisplay	1	31	31	foodImage.97	FOODEEG_Images\0905.jpg	NY	Left	No	1.90426650000154	0	277142	252
543.353515625	1.90426650000154	health	choicePhaseStart	1	31	31	foodImage.97	FOODEEG_Images\0905.jpg	NY	Left	No	1.90426650000154	0	278198	253
545.248046875	0	health	response	1	31	31	foodImage.97	FOODEEG_Images\0905.jpg	NY	Left	No	1.90426650000154	0	279168	234
546.2890625	1	taste	trialStart	1	32	32	foodImage.55	FOODEEG_Images\0567.jpg	NY	Right	Yes	1.11674160000985	0	279701	251
547.373046875	2	taste	foodImageDisplay	1	32	32	foodImage.55	FOODEEG_Images\0567.jpg	NY	Right	Yes	1.11674160000985	0	280256	252
549.435546875	1.11674160000985	taste	choicePhaseStart	1	32	32	foodImage.55	FOODEEG_Images\0567.jpg	NY	Right	Yes	1.11674160000985	0	281312	253
550.54296875	0	taste	response	1	32	32	foodImage.55	FOODEEG_Images\0567.jpg	NY	Right	Yes	1.11674160000985	0	281879	235
551.58984375	1	decision	trialStart	1	33	33	foodImage.16	FOODEEG_Images\0196.jpg	NY	Left	No	1.17881009999837	0	282415	251
552.646484375	2	decision	foodImageDisplay	1	33	33	foodImage.16	FOODEEG_Images\0196.jpg	NY	Left	No	1.17881009999837	0	282956	252
554.708984375	1.17881009999837	decision	choicePhaseStart	1	33	33	foodImage.16	FOODEEG_Images\0196.jpg	NY	Left	No	1.17881009999837	0	284012	253
555.87890625	0	decision	response	1	33	33	foodImage.16	FOODEEG_Images\0196.jpg	NY	Left	No	1.17881009999837	0	284611	234
556.921875	1	taste	trialStart	1	34	34	foodImage.40	FOODEEG_Images\0373.jpg	YN	Left	Yes	0.773150199995143	0	285145	251
557.962890625	2	taste	foodImageDisplay	1	34	34	foodImage.40	FOODEEG_Images\0373.jpg	YN	Left	Yes	0.773150199995143	0	285678	252
560.02734375	0.773150199995143	taste	choicePhaseStart	1	34	34	foodImage.40	FOODEEG_Images\0373.jpg	YN	Left	Yes	0.773150199995143	0	286735	253
560.791015625	0	taste	response	1	34	34	foodImage.40	FOODEEG_Images\0373.jpg	YN	Left	Yes	0.773150199995143	0	287126	234
561.833984375	1	health	trialStart	1	35	35	foodImage.9	FOODEEG_Images\0138.jpg	NY	Left	No	3.56649889999244	0	287660	251
562.890625	2	health	foodImageDisplay	1	35	35	foodImage.9	FOODEEG_Images\0138.jpg	NY	Left	No	3.56649889999244	0	288201	252
564.958984375	3.56649889999244	health	choicePhaseStart	1	35	35	foodImage.9	FOODEEG_Images\0138.jpg	NY	Left	No	3.56649889999244	0	289260	253
568.517578125	0	health	response	1	35	35	foodImage.9	FOODEEG_Images\0138.jpg	NY	Left	No	3.56649889999244	0	291082	234
569.5625	1	decision	trialStart	1	36	36	foodImage.64	FOODEEG_Images\0647.jpg	YN	Left	Yes	2.41288479999639	0	291617	251
570.6171875	2	decision	foodImageDisplay	1	36	36	foodImage.64	FOODEEG_Images\0647.jpg	YN	Left	Yes	2.41288479999639	0	292157	252
572.681640625	2.41288479999639	decision	choicePhaseStart	1	36	36	foodImage.64	FOODEEG_Images\0647.jpg	YN	Left	Yes	2.41288479999639	0	293214	253
575.0859375	0	decision	response	1	36	36	foodImage.64	FOODEEG_Images\0647.jpg	YN	Left	Yes	2.41288479999639	0	294445	234
576.12890625	1	taste	trialStart	1	37	37	foodImage.110	FOODEEG_Images\0918.jpg	YN	Right	No	0.872961799992481	0	294979	251
577.169921875	2	taste	foodImageDisplay	1	37	37	foodImage.110	FOODEEG_Images\0918.jpg	YN	Right	No	0.872961799992481	0	295512	252
579.23828125	0.872961799992481	taste	choicePhaseStart	1	37	37	foodImage.110	FOODEEG_Images\0918.jpg	YN	Right	No	0.872961799992481	0	296571	253
580.1015625	0	taste	response	1	37	37	foodImage.110	FOODEEG_Images\0918.jpg	YN	Right	No	0.872961799992481	0	297013	235
581.14453125	1	health	trialStart	1	38	38	foodImage.34	FOODEEG_Images\0339.jpg	YN	Right	No	1.12032219998946	0	297547	251
582.205078125	2	health	foodImageDisplay	1	38	38	foodImage.34	FOODEEG_Images\0339.jpg	YN	Right	No	1.12032219998946	0	298090	252
584.271484375	1.12032219998946	health	choicePhaseStart	1	38	38	foodImage.34	FOODEEG_Images\0339.jpg	YN	Right	No	1.12032219998946	0	299148	253
585.380859375	0	health	response	1	38	38	foodImage.34	FOODEEG_Images\0339.jpg	YN	Right	No	1.12032219998946	0	299716	235
586.42578125	1	taste	trialStart	1	39	39	foodImage.80	FOODEEG_Images\0796.jpg	NY	Right	Yes	1.10709520000091	0	300251	251
587.5078125	2	taste	foodImageDisplay	1	39	39	foodImage.80	FOODEEG_Images\0796.jpg	NY	Right	Yes	1.10709520000091	0	300805	252
589.572265625	1.10709520000091	taste	choicePhaseStart	1	39	39	foodImage.80	FOODEEG_Images\0796.jpg	NY	Right	Yes	1.10709520000091	0	301862	253
590.669921875	0	taste	response	1	39	39	foodImage.80	FOODEEG_Images\0796.jpg	NY	Right	Yes	1.10709520000091	0	302424	235
591.712890625	1	taste	trialStart	1	40	40	foodImage.67	FOODEEG_Images\0679.jpg	YN	Left	Yes	1.47792509999999	0	302958	251
592.79296875	2	taste	foodImageDisplay	1	40	40	foodImage.67	FOODEEG_Images\0679.jpg	YN	Left	Yes	1.47792509999999	0	303511	252
594.857421875	1.47792509999999	taste	choicePhaseStart	1	40	40	foodImage.67	FOODEEG_Images\0679.jpg	YN	Left	Yes	1.47792509999999	0	304568	253
596.326171875	0	taste	response	1	40	40	foodImage.67	FOODEEG_Images\0679.jpg	YN	Left	Yes	1.47792509999999	0	305320	234
597.369140625	1	health	trialStart	1	41	41	foodImage.77	FOODEEG_Images\0771.jpg	YN	Left	Yes	1.41945710001164	0	305854	251
598.419921875	2	health	foodImageDisplay	1	41	41	foodImage.77	FOODEEG_Images\0771.jpg	YN	Left	Yes	1.41945710001164	0	306392	252
600.482421875	1.41945710001164	health	choicePhaseStart	1	41	41	foodImage.77	FOODEEG_Images\0771.jpg	YN	Left	Yes	1.41945710001164	0	307448	253
601.892578125	0	health	response	1	41	41	foodImage.77	FOODEEG_Images\0771.jpg	YN	Left	Yes	1.41945710001164	0	308170	234
602.939453125	1	decision	trialStart	1	42	42	foodImage.118	FOODEEG_Images\0926.jpg	YN	Right	No	0.842828799999552	0	308706	251
603.9921875	2	decision	foodImageDisplay	1	42	42	foodImage.118	FOODEEG_Images\0926.jpg	YN	Right	No	0.842828799999552	0	309245	252
606.056640625	0.842828799999552	decision	choicePhaseStart	1	42	42	foodImage.118	FOODEEG_Images\0926.jpg	YN	Right	No	0.842828799999552	0	310302	253
606.892578125	0	decision	response	1	42	42	foodImage.118	FOODEEG_Images\0926.jpg	YN	Right	No	0.842828799999552	0	310730	235
607.935546875	1	health	trialStart	1	43	43	foodImage.67	FOODEEG_Images\0679.jpg	YN	Left	Yes	2.24488420000125	0	311264	251
609.0078125	2	health	foodImageDisplay	1	43	43	foodImage.67	FOODEEG_Images\0679.jpg	YN	Left	Yes	2.24488420000125	0	311813	252
611.072265625	2.24488420000125	health	choicePhaseStart	1	43	43	foodImage.67	FOODEEG_Images\0679.jpg	YN	Left	Yes	2.24488420000125	0	312870	253
613.30859375	0	health	response	1	43	43	foodImage.67	FOODEEG_Images\0679.jpg	YN	Left	Yes	2.24488420000125	0	314015	234
614.3515625	1	health	trialStart	1	44	44	foodImage.21	FOODEEG_Images\0234.jpg	NY	Right	Yes	1.17524640000192	0	314549	251
615.421875	2	health	foodImageDisplay	1	44	44	foodImage.21	FOODEEG_Images\0234.jpg	NY	Right	Yes	1.17524640000192	0	315097	252
617.486328125	1.17524640000192	health	choicePhaseStart	1	44	44	foodImage.21	FOODEEG_Images\0234.jpg	NY	Right	Yes	1.17524640000192	0	316154	253
618.65234375	0	health	response	1	44	44	foodImage.21	FOODEEG_Images\0234.jpg	NY	Right	Yes	1.17524640000192	0	316751	235
619.697265625	1	health	trialStart	1	45	45	foodImage.73	FOODEEG_Images\0717.jpg	NY	Right	Yes	0.783859300005133	0	317286	251
620.78125	2	health	foodImageDisplay	1	45	45	foodImage.73	FOODEEG_Images\0717.jpg	NY	Right	Yes	0.783859300005133	0	317841	252
622.845703125	0.783859300005133	health	choicePhaseStart	1	45	45	foodImage.73	FOODEEG_Images\0717.jpg	NY	Right	Yes	0.783859300005133	0	318898	253
623.62109375	0	health	response	1	45	45	foodImage.73	FOODEEG_Images\0717.jpg	NY	Right	Yes	0.783859300005133	0	319295	235
624.66796875	1	health	trialStart	1	46	46	foodImage.89	FOODEEG_Images\0881.jpg	NY	Right	Yes	1.20172480000474	0	319831	251
625.748046875	2	health	foodImageDisplay	1	46	46	foodImage.89	FOODEEG_Images\0881.jpg	NY	Right	Yes	1.20172480000474	0	320384	252
627.8125	1.20172480000474	health	choicePhaseStart	1	46	46	foodImage.89	FOODEEG_Images\0881.jpg	NY	Right	Yes	1.20172480000474	0	321441	253
629.00390625	0	health	response	1	46	46	foodImage.89	FOODEEG_Images\0881.jpg	NY	Right	Yes	1.20172480000474	0	322051	235
630.046875	1	taste	trialStart	1	47	47	foodImage.68	FOODEEG_Images\0685.jpg	YN	Left	Yes	0.760589500001515	0	322585	251
631.125	2	taste	foodImageDisplay	1	47	47	foodImage.68	FOODEEG_Images\0685.jpg	YN	Left	Yes	0.760589500001515	0	323137	252
633.1875	0.760589500001515	taste	choicePhaseStart	1	47	47	foodImage.68	FOODEEG_Images\0685.jpg	YN	Left	Yes	0.760589500001515	0	324193	253
633.939453125	0	taste	response	1	47	47	foodImage.68	FOODEEG_Images\0685.jpg	YN	Left	Yes	0.760589500001515	0	324578	234
634.986328125	1	decision	trialStart	1	48	48	foodImage.79	FOODEEG_Images\0794.jpg	NY	Right	Yes	1.57301639999787	0	325114	251
636.03125	2	decision	foodImageDisplay	1	48	48	foodImage.79	FOODEEG_Images\0794.jpg	NY	Right	Yes	1.57301639999787	0	325649	252
638.095703125	1.57301639999787	decision	choicePhaseStart	1	48	48	foodImage.79	FOODEEG_Images\0794.jpg	NY	Right	Yes	1.57301639999787	0	326706	253
639.66015625	0	decision	response	1	48	48	foodImage.79	FOODEEG_Images\0794.jpg	NY	Right	Yes	1.57301639999787	0	327507	235
640.7109375	1	taste	trialStart	1	49	49	foodImage.37	FOODEEG_Images\0359.jpg	NY	Right	Yes	0.782053099988843	0	328045	251
641.751953125	2	taste	foodImageDisplay	1	49	49	foodImage.37	FOODEEG_Images\0359.jpg	NY	Right	Yes	0.782053099988843	0	328578	252
643.814453125	0.782053099988843	taste	choicePhaseStart	1	49	49	foodImage.37	FOODEEG_Images\0359.jpg	NY	Right	Yes	0.782053099988843	0	329634	253
644.587890625	0	taste	response	1	49	49	foodImage.37	FOODEEG_Images\0359.jpg	NY	Right	Yes	0.782053099988843	0	330030	235
645.62890625	1	decision	trialStart	1	50	50	foodImage.59	FOODEEG_Images\0607.jpg	NY	Right	Yes	1.23490920000768	0	330563	251
646.677734375	2	decision	foodImageDisplay	1	50	50	foodImage.59	FOODEEG_Images\0607.jpg	NY	Right	Yes	1.23490920000768	0	331100	252
648.7421875	1.23490920000768	decision	choicePhaseStart	1	50	50	foodImage.59	FOODEEG_Images\0607.jpg	NY	Right	Yes	1.23490920000768	0	332157	253
649.970703125	0	decision	response	1	50	50	foodImage.59	FOODEEG_Images\0607.jpg	NY	Right	Yes	1.23490920000768	0	332786	235
651.013671875	1	health	trialStart	1	51	51	foodImage.90	FOODEEG_Images\0890.jpg	YN	Left	Yes	1.08116169999994	0	333320	251
652.076171875	2	health	foodImageDisplay	1	51	51	foodImage.90	FOODEEG_Images\0890.jpg	YN	Left	Yes	1.08116169999994	0	333864	252
654.140625	1.08116169999994	health	choicePhaseStart	1	51	51	foodImage.90	FOODEEG_Images\0890.jpg	YN	Left	Yes	1.08116169999994	0	334921	253
655.2109375	0	health	response	1	51	51	foodImage.90	FOODEEG_Images\0890.jpg	YN	Left	Yes	1.08116169999994	0	335469	234
656.25390625	1	health	trialStart	1	52	52	foodImage.25	FOODEEG_Images\0261.jpg	YN	Left	Yes	0.897547100001248	0	336003	251
657.314453125	2	health	foodImageDisplay	1	52	52	foodImage.25	FOODEEG_Images\0261.jpg	YN	Left	Yes	0.897547100001248	0	336546	252
659.376953125	0.897547100001248	health	choicePhaseStart	1	52	52	foodImage.25	FOODEEG_Images\0261.jpg	YN	Left	Yes	0.897547100001248	0	337602	253
660.267578125	0	health	response	1	52	52	foodImage.25	FOODEEG_Images\0261.jpg	YN	Left	Yes	0.897547100001248	0	338058	234
661.310546875	1	health	trialStart	1	53	53	foodImage.72	FOODEEG_Images\0714.jpg	YN	Left	Yes	0.875669200002449	0	338592	251
662.353515625	2	health	foodImageDisplay	1	53	53	foodImage.72	FOODEEG_Images\0714.jpg	YN	Left	Yes	0.875669200002449	0	339126	252
664.416015625	0.875669200002449	health	choicePhaseStart	1	53	53	foodImage.72	FOODEEG_Images\0714.jpg	YN	Left	Yes	0.875669200002449	0	340182	253
665.283203125	0	health	response	1	53	53	foodImage.72	FOODEEG_Images\0714.jpg	YN	Left	Yes	0.875669200002449	0	340626	234
666.326171875	1	health	trialStart	1	54	54	foodImage.27	FOODEEG_Images\0263.jpg	NY	Right	Yes	1.20845420000842	0	341160	251
667.38671875	2	health	foodImageDisplay	1	54	54	foodImage.27	FOODEEG_Images\0263.jpg	NY	Right	Yes	1.20845420000842	0	341703	252
669.451171875	1.20845420000842	health	choicePhaseStart	1	54	54	foodImage.27	FOODEEG_Images\0263.jpg	NY	Right	Yes	1.20845420000842	0	342760	253
670.650390625	0	health	response	1	54	54	foodImage.27	FOODEEG_Images\0263.jpg	NY	Right	Yes	1.20845420000842	0	343374	235
671.693359375	1	taste	trialStart	1	55	55	foodImage.86	FOODEEG_Images\0844.jpg	NY	Right	Yes	0.740915999995195	0	343908	251
672.75	2	taste	foodImageDisplay	1	55	55	foodImage.86	FOODEEG_Images\0844.jpg	NY	Right	Yes	0.740915999995195	0	344449	252
674.814453125	0.740915999995195	taste	choicePhaseStart	1	55	55	foodImage.86	FOODEEG_Images\0844.jpg	NY	Right	Yes	0.740915999995195	0	345506	253
675.546875	0	taste	response	1	55	55	foodImage.86	FOODEEG_Images\0844.jpg	NY	Right	Yes	0.740915999995195	0	345881	235
676.587890625	1	health	trialStart	1	56	56	foodImage.40	FOODEEG_Images\0373.jpg	NY	Left	No	2.19353960000444	0	346414	251
677.634765625	2	health	foodImageDisplay	1	56	56	foodImage.40	FOODEEG_Images\0373.jpg	NY	Left	No	2.19353960000444	0	346950	252
679.697265625	2.19353960000444	health	choicePhaseStart	1	56	56	foodImage.40	FOODEEG_Images\0373.jpg	NY	Left	No	2.19353960000444	0	348006	253
681.8828125	0	health	response	1	56	56	foodImage.40	FOODEEG_Images\0373.jpg	NY	Left	No	2.19353960000444	0	349125	234
682.927734375	1	taste	trialStart	1	57	57	foodImage.17	FOODEEG_Images\0199.jpg	YN	Left	Yes	2.29618340000161	0	349660	251
683.98828125	2	taste	foodImageDisplay	1	57	57	foodImage.17	FOODEEG_Images\0199.jpg	YN	Left	Yes	2.29618340000161	0	350203	252
686.056640625	2.29618340000161	taste	choicePhaseStart	1	57	57	foodImage.17	FOODEEG_Images\0199.jpg	YN	Left	Yes	2.29618340000161	0	351262	253
688.345703125	0	taste	response	1	57	57	foodImage.17	FOODEEG_Images\0199.jpg	YN	Left	Yes	2.29618340000161	0	352434	234
689.388671875	1	decision	trialStart	1	58	58	foodImage.91	FOODEEG_Images\0896.jpg	YN	Left	Yes	1.6368516000075	0	352968	251
690.470703125	2	decision	foodImageDisplay	1	58	58	foodImage.91	FOODEEG_Images\0896.jpg	YN	Left	Yes	1.6368516000075	0	353522	252
692.53515625	1.6368516000075	decision	choicePhaseStart	1	58	58	foodImage.91	FOODEEG_Images\0896.jpg	YN	Left	Yes	1.6368516000075	0	354579	253
694.162109375	0	decision	response	1	58	58	foodImage.91	FOODEEG_Images\0896.jpg	YN	Left	Yes	1.6368516000075	0	355412	234
695.205078125	1	health	trialStart	1	59	59	foodImage.100	FOODEEG_Images\0908.jpg	YN	Left	Yes	0.845502099997248	0	355946	251
696.24609375	2	health	foodImageDisplay	1	59	59	foodImage.100	FOODEEG_Images\0908.jpg	YN	Left	Yes	0.845502099997248	0	356479	252
698.30859375	0.845502099997248	health	choicePhaseStart	1	59	59	foodImage.100	FOODEEG_Images\0908.jpg	YN	Left	Yes	0.845502099997248	0	357535	253
699.14453125	0	health	response	1	59	59	foodImage.100	FOODEEG_Images\0908.jpg	YN	Left	Yes	0.845502099997248	0	357963	234
700.189453125	1	taste	trialStart	1	60	60	foodImage.18	FOODEEG_Images\0202.jpg	NY	Right	Yes	1.18023620000167	0	358498	251
701.27734375	2	taste	foodImageDisplay	1	60	60	foodImage.18	FOODEEG_Images\0202.jpg	NY	Right	Yes	1.18023620000167	0	359055	252
703.341796875	1.18023620000167	taste	choicePhaseStart	1	60	60	foodImage.18	FOODEEG_Images\0202.jpg	NY	Right	Yes	1.18023620000167	0	360112	253
704.513671875	0	taste	response	1	60	60	foodImage.18	FOODEEG_Images\0202.jpg	NY	Right	Yes	1.18023620000167	0	360712	235
706.556640625	17.7109375	n/a	blockEnd	n/a	n/a	n/a	n/a	n/a	n/a	n/a	n/a	n/a	n/a	361758	254
724.267578125	2	n/a	blockStart	2	n/a	n/a	n/a	n/a	n/a	n/a	n/a	n/a	n/a	370826	250
726.3046875	1	health	trialStart	2	61	1	foodImage.96	FOODEEG_Images\0904.jpg	NY	Right	Yes	0.943839500003378	0	371869	251
727.34765625	2	health	foodImageDisplay	2	61	1	foodImage.96	FOODEEG_Images\0904.jpg	NY	Right	Yes	0.943839500003378	0	372403	252
729.416015625	0.943839500003378	health	choicePhaseStart	2	61	1	foodImage.96	FOODEEG_Images\0904.jpg	NY	Right	Yes	0.943839500003378	0	373462	253
730.3515625	0	health	response	2	61	1	foodImage.96	FOODEEG_Images\0904.jpg	NY	Right	Yes	0.943839500003378	0	373941	235
731.392578125	1	taste	trialStart	2	62	2	foodImage.6	FOODEEG_Images\0113.jpg	NY	Right	Yes	0.945446400000947	0	374474	251
732.453125	2	taste	foodImageDisplay	2	62	2	foodImage.6	FOODEEG_Images\0113.jpg	NY	Right	Yes	0.945446400000947	0	375017	252
734.517578125	0.945446400000947	taste	choicePhaseStart	2	62	2	foodImage.6	FOODEEG_Images\0113.jpg	NY	Right	Yes	0.945446400000947	0	376074	253
735.455078125	0	taste	response	2	62	2	foodImage.6	FOODEEG_Images\0113.jpg	NY	Right	Yes	0.945446400000947	0	376554	235
736.5078125	1	taste	trialStart	2	63	3	foodImage.90	FOODEEG_Images\0890.jpg	YN	Left	Yes	0.95604099999764	0	377093	251
737.5625	2	taste	foodImageDisplay	2	63	3	foodImage.90	FOODEEG_Images\0890.jpg	YN	Left	Yes	0.95604099999764	0	377633	252
739.626953125	0.95604099999764	taste	choicePhaseStart	2	63	3	foodImage.90	FOODEEG_Images\0890.jpg	YN	Left	Yes	0.95604099999764	0	378690	253
740.576171875	0	taste	response	2	63	3	foodImage.90	FOODEEG_Images\0890.jpg	YN	Left	Yes	0.95604099999764	0	379176	234
741.6171875	1	health	trialStart	2	64	4	foodImage.61	FOODEEG_Images\0640.jpg	YN	Left	Yes	3.33974080000189	0	379709	251
742.677734375	2	health	foodImageDisplay	2	64	4	foodImage.61	FOODEEG_Images\0640.jpg	YN	Left	Yes	3.33974080000189	0	380252	252
744.7421875	3.33974080000189	health	choicePhaseStart	2	64	4	foodImage.61	FOODEEG_Images\0640.jpg	YN	Left	Yes	3.33974080000189	0	381309	253
748.072265625	0	health	response	2	64	4	foodImage.61	FOODEEG_Images\0640.jpg	YN	Left	Yes	3.33974080000189	0	383014	234
749.115234375	1	taste	trialStart	2	65	5	foodImage.113	FOODEEG_Images\0921.jpg	NY	Left	No	1.70535829999426	0	383548	251
750.15234375	2	taste	foodImageDisplay	2	65	5	foodImage.113	FOODEEG_Images\0921.jpg	NY	Left	No	1.70535829999426	0	384079	252
752.216796875	1.70535829999426	taste	choicePhaseStart	2	65	5	foodImage.113	FOODEEG_Images\0921.jpg	NY	Left	No	1.70535829999426	0	385136	253
753.91015625	0	taste	response	2	65	5	foodImage.113	FOODEEG_Images\0921.jpg	NY	Left	No	1.70535829999426	0	386003	234
754.955078125	1	decision	trialStart	2	66	6	foodImage.17	FOODEEG_Images\0199.jpg	YN	Left	Yes	1.97257739999623	0	386538	251
756.009765625	2	decision	foodImageDisplay	2	66	6	foodImage.17	FOODEEG_Images\0199.jpg	YN	Left	Yes	1.97257739999623	0	387078	252
758.072265625	1.97257739999623	decision	choicePhaseStart	2	66	6	foodImage.17	FOODEEG_Images\0199.jpg	YN	Left	Yes	1.97257739999623	0	388134	253
760.0390625	0	decision	response	2	66	6	foodImage.17	FOODEEG_Images\0199.jpg	YN	Left	Yes	1.97257739999623	0	389141	234
761.080078125	1	taste	trialStart	2	67	7	foodImage.34	FOODEEG_Images\0339.jpg	NY	Right	Yes	0.707760700010112	0	389674	251
762.140625	2	taste	foodImageDisplay	2	67	7	foodImage.34	FOODEEG_Images\0339.jpg	NY	Right	Yes	0.707760700010112	0	390217	252
764.205078125	0.707760700010112	taste	choicePhaseStart	2	67	7	foodImage.34	FOODEEG_Images\0339.jpg	NY	Right	Yes	0.707760700010112	0	391274	253
764.90234375	0	taste	response	2	67	7	foodImage.34	FOODEEG_Images\0339.jpg	NY	Right	Yes	0.707760700010112	0	391631	235
765.947265625	1	health	trialStart	2	68	8	foodImage.58	FOODEEG_Images\0605.jpg	YN	Left	Yes	2.87158560000535	0	392166	251
767.015625	2	health	foodImageDisplay	2	68	8	foodImage.58	FOODEEG_Images\0605.jpg	YN	Left	Yes	2.87158560000535	0	392713	252
769.080078125	2.87158560000535	health	choicePhaseStart	2	68	8	foodImage.58	FOODEEG_Images\0605.jpg	YN	Left	Yes	2.87158560000535	0	393770	253
771.943359375	0	health	response	2	68	8	foodImage.58	FOODEEG_Images\0605.jpg	YN	Left	Yes	2.87158560000535	0	395236	234
772.986328125	1	taste	trialStart	2	69	9	foodImage.60	FOODEEG_Images\0614.jpg	YN	Left	Yes	0.899419699999271	0	395770	251
774.068359375	2	taste	foodImageDisplay	2	69	9	foodImage.60	FOODEEG_Images\0614.jpg	YN	Left	Yes	0.899419699999271	0	396324	252
776.1328125	0.899419699999271	taste	choicePhaseStart	2	69	9	foodImage.60	FOODEEG_Images\0614.jpg	YN	Left	Yes	0.899419699999271	0	397381	253
777.021484375	0	taste	response	2	69	9	foodImage.60	FOODEEG_Images\0614.jpg	YN	Left	Yes	0.899419699999271	0	397836	234
778.0703125	1	taste	trialStart	2	70	10	foodImage.100	FOODEEG_Images\0908.jpg	NY	Left	No	1.78674440000032	0	398373	251
779.109375	2	taste	foodImageDisplay	2	70	10	foodImage.100	FOODEEG_Images\0908.jpg	NY	Left	No	1.78674440000032	0	398905	252
781.171875	1.78674440000032	taste	choicePhaseStart	2	70	10	foodImage.100	FOODEEG_Images\0908.jpg	NY	Left	No	1.78674440000032	0	399961	253
782.94921875	0	taste	response	2	70	10	foodImage.100	FOODEEG_Images\0908.jpg	NY	Left	No	1.78674440000032	0	400871	234
783.9921875	1	taste	trialStart	2	71	11	foodImage.107	FOODEEG_Images\0915.jpg	YN	Right	No	0.861276199997519	0	401405	251
785.033203125	2	taste	foodImageDisplay	2	71	11	foodImage.107	FOODEEG_Images\0915.jpg	YN	Right	No	0.861276199997519	0	401938	252
787.09765625	0.861276199997519	taste	choicePhaseStart	2	71	11	foodImage.107	FOODEEG_Images\0915.jpg	YN	Right	No	0.861276199997519	0	402995	253
787.94921875	0	taste	response	2	71	11	foodImage.107	FOODEEG_Images\0915.jpg	YN	Right	No	0.861276199997519	0	403431	235
788.9921875	1	taste	trialStart	2	72	12	foodImage.120	FOODEEG_Images\0928.jpg	YN	Right	No	0.973374399996828	0	403965	251
790.033203125	2	taste	foodImageDisplay	2	72	12	foodImage.120	FOODEEG_Images\0928.jpg	YN	Right	No	0.973374399996828	0	404498	252
792.09765625	0.973374399996828	taste	choicePhaseStart	2	72	12	foodImage.120	FOODEEG_Images\0928.jpg	YN	Right	No	0.973374399996828	0	405555	253
793.0625	0	taste	response	2	72	12	foodImage.120	FOODEEG_Images\0928.jpg	YN	Right	No	0.973374399996828	0	406049	235
794.103515625	1	taste	trialStart	2	73	13	foodImage.47	FOODEEG_Images\0488.jpg	NY	Left	No	1.41145509999478	0	406582	251
795.1640625	2	taste	foodImageDisplay	2	73	13	foodImage.47	FOODEEG_Images\0488.jpg	NY	Left	No	1.41145509999478	0	407125	252
797.2265625	1.41145509999478	taste	choicePhaseStart	2	73	13	foodImage.47	FOODEEG_Images\0488.jpg	NY	Left	No	1.41145509999478	0	408181	253
798.62890625	0	taste	response	2	73	13	foodImage.47	FOODEEG_Images\0488.jpg	NY	Left	No	1.41145509999478	0	408899	234
799.671875	1	taste	trialStart	2	74	14	foodImage.97	FOODEEG_Images\0905.jpg	YN	Right	No	1.23243150000053	0	409433	251
800.7109375	2	taste	foodImageDisplay	2	74	14	foodImage.97	FOODEEG_Images\0905.jpg	YN	Right	No	1.23243150000053	0	409965	252
802.7734375	1.23243150000053	taste	choicePhaseStart	2	74	14	foodImage.97	FOODEEG_Images\0905.jpg	YN	Right	No	1.23243150000053	0	411021	253
803.99609375	0	taste	response	2	74	14	foodImage.97	FOODEEG_Images\0905.jpg	YN	Right	No	1.23243150000053	0	411647	235
805.0390625	1	health	trialStart	2	75	15	foodImage.51	FOODEEG_Images\0536.jpg	YN	Left	Yes	0.81693250000535	0	412181	251
806.0859375	2	health	foodImageDisplay	2	75	15	foodImage.51	FOODEEG_Images\0536.jpg	YN	Left	Yes	0.81693250000535	0	412717	252
808.150390625	0.81693250000535	health	choicePhaseStart	2	75	15	foodImage.51	FOODEEG_Images\0536.jpg	YN	Left	Yes	0.81693250000535	0	413774	253
808.95703125	0	health	response	2	75	15	foodImage.51	FOODEEG_Images\0536.jpg	YN	Left	Yes	0.81693250000535	0	414187	234
810	1	health	trialStart	2	76	16	foodImage.103	FOODEEG_Images\0911.jpg	YN	Right	No	1.53677609999431	0	414721	251
811.0546875	2	health	foodImageDisplay	2	76	16	foodImage.103	FOODEEG_Images\0911.jpg	YN	Right	No	1.53677609999431	0	415261	252
813.1171875	1.53677609999431	health	choicePhaseStart	2	76	16	foodImage.103	FOODEEG_Images\0911.jpg	YN	Right	No	1.53677609999431	0	416317	253
814.64453125	0	health	response	2	76	16	foodImage.103	FOODEEG_Images\0911.jpg	YN	Right	No	1.53677609999431	0	417099	235
815.6875	1	decision	trialStart	2	77	17	foodImage.51	FOODEEG_Images\0536.jpg	YN	Left	Yes	1.3512866999954	0	417633	251
816.740234375	2	decision	foodImageDisplay	2	77	17	foodImage.51	FOODEEG_Images\0536.jpg	YN	Left	Yes	1.3512866999954	0	418172	252
818.8046875	1.3512866999954	decision	choicePhaseStart	2	77	17	foodImage.51	FOODEEG_Images\0536.jpg	YN	Left	Yes	1.3512866999954	0	419229	253
820.1484375	0	decision	response	2	77	17	foodImage.51	FOODEEG_Images\0536.jpg	YN	Left	Yes	1.3512866999954	0	419917	234
821.19140625	1	health	trialStart	2	78	18	foodImage.88	FOODEEG_Images\0878.jpg	YN	Left	Yes	1.09818390000146	0	420451	251
822.259765625	2	health	foodImageDisplay	2	78	18	foodImage.88	FOODEEG_Images\0878.jpg	YN	Left	Yes	1.09818390000146	0	420998	252
824.322265625	1.09818390000146	health	choicePhaseStart	2	78	18	foodImage.88	FOODEEG_Images\0878.jpg	YN	Left	Yes	1.09818390000146	0	422054	253
825.412109375	0	health	response	2	78	18	foodImage.88	FOODEEG_Images\0878.jpg	YN	Left	Yes	1.09818390000146	0	422612	234
826.455078125	1	health	trialStart	2	79	19	foodImage.105	FOODEEG_Images\0913.jpg	YN	Left	Yes	2.00138760000118	0	423146	251
827.5078125	2	health	foodImageDisplay	2	79	19	foodImage.105	FOODEEG_Images\0913.jpg	YN	Left	Yes	2.00138760000118	0	423685	252
829.572265625	2.00138760000118	health	choicePhaseStart	2	79	19	foodImage.105	FOODEEG_Images\0913.jpg	YN	Left	Yes	2.00138760000118	0	424742	253
831.564453125	0	health	response	2	79	19	foodImage.105	FOODEEG_Images\0913.jpg	YN	Left	Yes	2.00138760000118	0	425762	234
832.611328125	1	health	trialStart	2	80	20	foodImage.30	FOODEEG_Images\0282.jpg	YN	Left	Yes	0.790802799994708	0	426298	251
833.6640625	2	health	foodImageDisplay	2	80	20	foodImage.30	FOODEEG_Images\0282.jpg	YN	Left	Yes	0.790802799994708	0	426837	252
835.7265625	0.790802799994708	health	choicePhaseStart	2	80	20	foodImage.30	FOODEEG_Images\0282.jpg	YN	Left	Yes	0.790802799994708	0	427893	253
836.5078125	0	health	response	2	80	20	foodImage.30	FOODEEG_Images\0282.jpg	YN	Left	Yes	0.790802799994708	0	428293	234
837.5546875	1	health	trialStart	2	81	21	foodImage.35	FOODEEG_Images\0350.jpg	YN	Left	Yes	1.42293260000588	0	428829	251
838.591796875	2	health	foodImageDisplay	2	81	21	foodImage.35	FOODEEG_Images\0350.jpg	YN	Left	Yes	1.42293260000588	0	429360	252
840.66015625	1.42293260000588	health	choicePhaseStart	2	81	21	foodImage.35	FOODEEG_Images\0350.jpg	YN	Left	Yes	1.42293260000588	0	430419	253
842.076171875	0	health	response	2	81	21	foodImage.35	FOODEEG_Images\0350.jpg	YN	Left	Yes	1.42293260000588	0	431144	234
843.119140625	1	health	trialStart	2	82	22	foodImage.63	FOODEEG_Images\0645.jpg	YN	Left	Yes	0.899947400001111	0	431678	251
844.169921875	2	health	foodImageDisplay	2	82	22	foodImage.63	FOODEEG_Images\0645.jpg	YN	Left	Yes	0.899947400001111	0	432216	252
846.232421875	0.899947400001111	health	choicePhaseStart	2	82	22	foodImage.63	FOODEEG_Images\0645.jpg	YN	Left	Yes	0.899947400001111	0	433272	253
847.123046875	0	health	response	2	82	22	foodImage.63	FOODEEG_Images\0645.jpg	YN	Left	Yes	0.899947400001111	0	433728	234
848.166015625	1	taste	trialStart	2	83	23	foodImage.11	FOODEEG_Images\0180.jpg	YN	Right	No	1.16319269999804	0	434262	251
849.2109375	2	taste	foodImageDisplay	2	83	23	foodImage.11	FOODEEG_Images\0180.jpg	YN	Right	No	1.16319269999804	0	434797	252
851.2734375	1.16319269999804	taste	choicePhaseStart	2	83	23	foodImage.11	FOODEEG_Images\0180.jpg	YN	Right	No	1.16319269999804	0	435853	253
852.427734375	0	taste	response	2	83	23	foodImage.11	FOODEEG_Images\0180.jpg	YN	Right	No	1.16319269999804	0	436444	235
853.46875	1	decision	trialStart	2	84	24	foodImage.105	FOODEEG_Images\0913.jpg	YN	Right	No	1.10999929999525	0	436977	251
854.51953125	2	decision	foodImageDisplay	2	84	24	foodImage.105	FOODEEG_Images\0913.jpg	YN	Right	No	1.10999929999525	0	437515	252
856.58203125	1.10999929999525	decision	choicePhaseStart	2	84	24	foodImage.105	FOODEEG_Images\0913.jpg	YN	Right	No	1.10999929999525	0	438571	253
857.68359375	0	decision	response	2	84	24	foodImage.105	FOODEEG_Images\0913.jpg	YN	Right	No	1.10999929999525	0	439135	235
858.72265625	1	taste	trialStart	2	85	25	foodImage.78	FOODEEG_Images\0787.jpg	NY	Left	No	1.42877699999372	0	439667	251
859.7890625	2	taste	foodImageDisplay	2	85	25	foodImage.78	FOODEEG_Images\0787.jpg	NY	Left	No	1.42877699999372	0	440213	252
861.85546875	1.42877699999372	taste	choicePhaseStart	2	85	25	foodImage.78	FOODEEG_Images\0787.jpg	NY	Left	No	1.42877699999372	0	441271	253
863.275390625	0	taste	response	2	85	25	foodImage.78	FOODEEG_Images\0787.jpg	NY	Left	No	1.42877699999372	0	441998	234
864.318359375	1	health	trialStart	2	86	26	foodImage.69	FOODEEG_Images\0693.jpg	YN	Left	Yes	0.82340419999673	0	442532	251
865.37890625	2	health	foodImageDisplay	2	86	26	foodImage.69	FOODEEG_Images\0693.jpg	YN	Left	Yes	0.82340419999673	0	443075	252
867.4453125	0.82340419999673	health	choicePhaseStart	2	86	26	foodImage.69	FOODEEG_Images\0693.jpg	YN	Left	Yes	0.82340419999673	0	444133	253
868.2578125	0	health	response	2	86	26	foodImage.69	FOODEEG_Images\0693.jpg	YN	Left	Yes	0.82340419999673	0	444549	234
869.30078125	1	health	trialStart	2	87	27	foodImage.64	FOODEEG_Images\0647.jpg	NY	Right	Yes	1.98433710000245	0	445083	251
870.38671875	2	health	foodImageDisplay	2	87	27	foodImage.64	FOODEEG_Images\0647.jpg	NY	Right	Yes	1.98433710000245	0	445639	252
872.451171875	1.98433710000245	health	choicePhaseStart	2	87	27	foodImage.64	FOODEEG_Images\0647.jpg	NY	Right	Yes	1.98433710000245	0	446696	253
874.42578125	0	health	response	2	87	27	foodImage.64	FOODEEG_Images\0647.jpg	NY	Right	Yes	1.98433710000245	0	447707	235
875.46484375	1	taste	trialStart	2	88	28	foodImage.50	FOODEEG_Images\0529.jpg	YN	Right	No	0.962614900010522	0	448239	251
876.521484375	2	taste	foodImageDisplay	2	88	28	foodImage.50	FOODEEG_Images\0529.jpg	YN	Right	No	0.962614900010522	0	448780	252
878.5859375	0.962614900010522	taste	choicePhaseStart	2	88	28	foodImage.50	FOODEEG_Images\0529.jpg	YN	Right	No	0.962614900010522	0	449837	253
879.5390625	0	taste	response	2	88	28	foodImage.50	FOODEEG_Images\0529.jpg	YN	Right	No	0.962614900010522	0	450325	235
880.583984375	1	decision	trialStart	2	89	29	foodImage.32	FOODEEG_Images\0319.jpg	YN	Left	Yes	0.914596200003871	0	450860	251
881.6484375	2	decision	foodImageDisplay	2	89	29	foodImage.32	FOODEEG_Images\0319.jpg	YN	Left	Yes	0.914596200003871	0	451405	252
883.712890625	0.914596200003871	decision	choicePhaseStart	2	89	29	foodImage.32	FOODEEG_Images\0319.jpg	YN	Left	Yes	0.914596200003871	0	452462	253
884.6171875	0	decision	response	2	89	29	foodImage.32	FOODEEG_Images\0319.jpg	YN	Left	Yes	0.914596200003871	0	452925	234
885.66015625	1	decision	trialStart	2	90	30	foodImage.108	FOODEEG_Images\0916.jpg	NY	Left	No	0.915864200011129	0	453459	251
886.701171875	2	decision	foodImageDisplay	2	90	30	foodImage.108	FOODEEG_Images\0916.jpg	NY	Left	No	0.915864200011129	0	453992	252
888.765625	0.915864200011129	decision	choicePhaseStart	2	90	30	foodImage.108	FOODEEG_Images\0916.jpg	NY	Left	No	0.915864200011129	0	455049	253
889.673828125	0	decision	response	2	90	30	foodImage.108	FOODEEG_Images\0916.jpg	NY	Left	No	0.915864200011129	0	455514	234
890.716796875	1	decision	trialStart	2	91	31	foodImage.71	FOODEEG_Images\0713.jpg	YN	Left	Yes	1.45683629999985	0	456048	251
891.771484375	2	decision	foodImageDisplay	2	91	31	foodImage.71	FOODEEG_Images\0713.jpg	YN	Left	Yes	1.45683629999985	0	456588	252
893.833984375	1.45683629999985	decision	choicePhaseStart	2	91	31	foodImage.71	FOODEEG_Images\0713.jpg	YN	Left	Yes	1.45683629999985	0	457644	253
895.28125	0	decision	response	2	91	31	foodImage.71	FOODEEG_Images\0713.jpg	YN	Left	Yes	1.45683629999985	0	458385	234
896.326171875	1	taste	trialStart	2	92	32	foodImage.14	FOODEEG_Images\0188.jpg	NY	Right	Yes	1.03373589999683	0	458920	251
897.384765625	2	taste	foodImageDisplay	2	92	32	foodImage.14	FOODEEG_Images\0188.jpg	NY	Right	Yes	1.03373589999683	0	459462	252
899.44921875	1.03373589999683	taste	choicePhaseStart	2	92	32	foodImage.14	FOODEEG_Images\0188.jpg	NY	Right	Yes	1.03373589999683	0	460519	253
900.47265625	0	taste	response	2	92	32	foodImage.14	FOODEEG_Images\0188.jpg	NY	Right	Yes	1.03373589999683	0	461043	235
901.515625	1	decision	trialStart	2	93	33	foodImage.109	FOODEEG_Images\0917.jpg	YN	Left	Yes	0.82888100000855	0	461577	251
902.55859375	2	decision	foodImageDisplay	2	93	33	foodImage.109	FOODEEG_Images\0917.jpg	YN	Left	Yes	0.82888100000855	0	462111	252
904.62109375	0.82888100000855	decision	choicePhaseStart	2	93	33	foodImage.109	FOODEEG_Images\0917.jpg	YN	Left	Yes	0.82888100000855	0	463167	253
905.44140625	0	decision	response	2	93	33	foodImage.109	FOODEEG_Images\0917.jpg	YN	Left	Yes	0.82888100000855	0	463587	234
906.484375	1	taste	trialStart	2	94	34	foodImage.85	FOODEEG_Images\0841.jpg	NY	Right	Yes	1.61911390000023	0	464121	251
907.56640625	2	taste	foodImageDisplay	2	94	34	foodImage.85	FOODEEG_Images\0841.jpg	NY	Right	Yes	1.61911390000023	0	464675	252
909.630859375	1.61911390000023	taste	choicePhaseStart	2	94	34	foodImage.85	FOODEEG_Images\0841.jpg	NY	Right	Yes	1.61911390000023	0	465732	253
911.240234375	0	taste	response	2	94	34	foodImage.85	FOODEEG_Images\0841.jpg	NY	Right	Yes	1.61911390000023	0	466556	235
912.28515625	1	health	trialStart	2	95	35	foodImage.80	FOODEEG_Images\0796.jpg	NY	Right	Yes	0.900073800003156	0	467091	251
913.34375	2	health	foodImageDisplay	2	95	35	foodImage.80	FOODEEG_Images\0796.jpg	NY	Right	Yes	0.900073800003156	0	467633	252
915.40625	0.900073800003156	health	choicePhaseStart	2	95	35	foodImage.80	FOODEEG_Images\0796.jpg	NY	Right	Yes	0.900073800003156	0	468689	253
916.296875	0	health	response	2	95	35	foodImage.80	FOODEEG_Images\0796.jpg	NY	Right	Yes	0.900073800003156	0	469145	235
917.33984375	1	taste	trialStart	2	96	36	foodImage.91	FOODEEG_Images\0896.jpg	YN	Left	Yes	1.40105770000082	0	469679	251
918.41796875	2	taste	foodImageDisplay	2	96	36	foodImage.91	FOODEEG_Images\0896.jpg	YN	Left	Yes	1.40105770000082	0	470231	252
920.48046875	1.40105770000082	taste	choicePhaseStart	2	96	36	foodImage.91	FOODEEG_Images\0896.jpg	YN	Left	Yes	1.40105770000082	0	471287	253
921.873046875	0	taste	response	2	96	36	foodImage.91	FOODEEG_Images\0896.jpg	YN	Left	Yes	1.40105770000082	0	472000	234
922.916015625	1	taste	trialStart	2	97	37	foodImage.2	FOODEEG_Images\0028.jpg	YN	Left	Yes	0.80519600000116	0	472534	251
923.95703125	2	taste	foodImageDisplay	2	97	37	foodImage.2	FOODEEG_Images\0028.jpg	YN	Left	Yes	0.80519600000116	0	473067	252
926.021484375	0.80519600000116	taste	choicePhaseStart	2	97	37	foodImage.2	FOODEEG_Images\0028.jpg	YN	Left	Yes	0.80519600000116	0	474124	253
926.81640625	0	taste	response	2	97	37	foodImage.2	FOODEEG_Images\0028.jpg	YN	Left	Yes	0.80519600000116	0	474531	234
927.859375	1	taste	trialStart	2	98	38	foodImage.52	FOODEEG_Images\0539.jpg	NY	Right	Yes	1.9319542000012	0	475065	251
928.91796875	2	taste	foodImageDisplay	2	98	38	foodImage.52	FOODEEG_Images\0539.jpg	NY	Right	Yes	1.9319542000012	0	475607	252
930.982421875	1.9319542000012	taste	choicePhaseStart	2	98	38	foodImage.52	FOODEEG_Images\0539.jpg	NY	Right	Yes	1.9319542000012	0	476664	253
932.904296875	0	taste	response	2	98	38	foodImage.52	FOODEEG_Images\0539.jpg	NY	Right	Yes	1.9319542000012	0	477648	235
933.947265625	1	health	trialStart	2	99	39	foodImage.108	FOODEEG_Images\0916.jpg	YN	Right	No	1.56046139998944	0	478182	251
934.986328125	2	health	foodImageDisplay	2	99	39	foodImage.108	FOODEEG_Images\0916.jpg	YN	Right	No	1.56046139998944	0	478714	252
937.0546875	1.56046139998944	health	choicePhaseStart	2	99	39	foodImage.108	FOODEEG_Images\0916.jpg	YN	Right	No	1.56046139998944	0	479773	253
938.607421875	0	health	response	2	99	39	foodImage.108	FOODEEG_Images\0916.jpg	YN	Right	No	1.56046139998944	0	480568	235
939.65234375	1	decision	trialStart	2	100	40	foodImage.38	FOODEEG_Images\0365.jpg	NY	Right	Yes	1.89408100000583	0	481103	251
940.697265625	2	decision	foodImageDisplay	2	100	40	foodImage.38	FOODEEG_Images\0365.jpg	NY	Right	Yes	1.89408100000583	0	481638	252
942.76171875	1.89408100000583	decision	choicePhaseStart	2	100	40	foodImage.38	FOODEEG_Images\0365.jpg	NY	Right	Yes	1.89408100000583	0	482695	253
944.646484375	0	decision	response	2	100	40	foodImage.38	FOODEEG_Images\0365.jpg	NY	Right	Yes	1.89408100000583	0	483660	235
945.69140625	1	health	trialStart	2	101	41	foodImage.7	FOODEEG_Images\0116.jpg	YN	Right	No	1.12038940000639	0	484195	251
946.75	2	health	foodImageDisplay	2	101	41	foodImage.7	FOODEEG_Images\0116.jpg	YN	Right	No	1.12038940000639	0	484737	252
948.814453125	1.12038940000639	health	choicePhaseStart	2	101	41	foodImage.7	FOODEEG_Images\0116.jpg	YN	Right	No	1.12038940000639	0	485794	253
949.927734375	0	health	response	2	101	41	foodImage.7	FOODEEG_Images\0116.jpg	YN	Right	No	1.12038940000639	0	486364	235
950.970703125	1	taste	trialStart	2	102	42	foodImage.31	FOODEEG_Images\0294.jpg	YN	Left	Yes	2.21835740000824	0	486898	251
952.013671875	2	taste	foodImageDisplay	2	102	42	foodImage.31	FOODEEG_Images\0294.jpg	YN	Left	Yes	2.21835740000824	0	487432	252
954.078125	2.21835740000824	taste	choicePhaseStart	2	102	42	foodImage.31	FOODEEG_Images\0294.jpg	YN	Left	Yes	2.21835740000824	0	488489	253
956.287109375	0	taste	response	2	102	42	foodImage.31	FOODEEG_Images\0294.jpg	YN	Left	Yes	2.21835740000824	0	489620	234
957.330078125	1	decision	trialStart	2	103	43	foodImage.115	FOODEEG_Images\0923.jpg	YN	Right	No	0.934450399989146	0	490154	251
958.3828125	2	decision	foodImageDisplay	2	103	43	foodImage.115	FOODEEG_Images\0923.jpg	YN	Right	No	0.934450399989146	0	490693	252
960.447265625	0.934450399989146	decision	choicePhaseStart	2	103	43	foodImage.115	FOODEEG_Images\0923.jpg	YN	Right	No	0.934450399989146	0	491750	253
961.375	0	decision	response	2	103	43	foodImage.115	FOODEEG_Images\0923.jpg	YN	Right	No	0.934450399989146	0	492225	235
962.41796875	1	taste	trialStart	2	104	44	foodImage.119	FOODEEG_Images\0927.jpg	NY	Left	No	1.04512959999556	0	492759	251
963.4609375	2	taste	foodImageDisplay	2	104	44	foodImage.119	FOODEEG_Images\0927.jpg	NY	Left	No	1.04512959999556	0	493293	252
965.529296875	1.04512959999556	taste	choicePhaseStart	2	104	44	foodImage.119	FOODEEG_Images\0927.jpg	NY	Left	No	1.04512959999556	0	494352	253
966.56640625	0	taste	response	2	104	44	foodImage.119	FOODEEG_Images\0927.jpg	NY	Left	No	1.04512959999556	0	494883	234
967.611328125	1	health	trialStart	2	105	45	foodImage.78	FOODEEG_Images\0787.jpg	YN	Left	Yes	1.93797630000336	0	495418	251
968.654296875	2	health	foodImageDisplay	2	105	45	foodImage.78	FOODEEG_Images\0787.jpg	YN	Left	Yes	1.93797630000336	0	495952	252
970.716796875	1.93797630000336	health	choicePhaseStart	2	105	45	foodImage.78	FOODEEG_Images\0787.jpg	YN	Left	Yes	1.93797630000336	0	497008	253
972.646484375	0	health	response	2	105	45	foodImage.78	FOODEEG_Images\0787.jpg	YN	Left	Yes	1.93797630000336	0	497996	234
973.689453125	1	health	trialStart	2	106	46	foodImage.22	FOODEEG_Images\0236.jpg	NY	Right	Yes	0.929722299988498	0	498530	251
974.751953125	2	health	foodImageDisplay	2	106	46	foodImage.22	FOODEEG_Images\0236.jpg	NY	Right	Yes	0.929722299988498	0	499074	252
976.814453125	0.929722299988498	health	choicePhaseStart	2	106	46	foodImage.22	FOODEEG_Images\0236.jpg	NY	Right	Yes	0.929722299988498	0	500130	253
977.734375	0	health	response	2	106	46	foodImage.22	FOODEEG_Images\0236.jpg	NY	Right	Yes	0.929722299988498	0	500601	235
978.77734375	1	taste	trialStart	2	107	47	foodImage.94	FOODEEG_Images\0902.jpg	YN	Right	No	0.869147699995665	0	501135	251
979.82421875	2	taste	foodImageDisplay	2	107	47	foodImage.94	FOODEEG_Images\0902.jpg	YN	Right	No	0.869147699995665	0	501671	252
981.890625	0.869147699995665	taste	choicePhaseStart	2	107	47	foodImage.94	FOODEEG_Images\0902.jpg	YN	Right	No	0.869147699995665	0	502729	253
982.75	0	taste	response	2	107	47	foodImage.94	FOODEEG_Images\0902.jpg	YN	Right	No	0.869147699995665	0	503169	235
983.79296875	1	taste	trialStart	2	108	48	foodImage.82	FOODEEG_Images\0805.jpg	NY	Right	Yes	0.892448500002502	0	503703	251
984.849609375	2	taste	foodImageDisplay	2	108	48	foodImage.82	FOODEEG_Images\0805.jpg	NY	Right	Yes	0.892448500002502	0	504244	252
986.9140625	0.892448500002502	taste	choicePhaseStart	2	108	48	foodImage.82	FOODEEG_Images\0805.jpg	NY	Right	Yes	0.892448500002502	0	505301	253
987.798828125	0	taste	response	2	108	48	foodImage.82	FOODEEG_Images\0805.jpg	NY	Right	Yes	0.892448500002502	0	505754	235
988.83984375	1	taste	trialStart	2	109	49	foodImage.114	FOODEEG_Images\0922.jpg	NY	Left	No	0.822638799989363	0	506287	251
989.880859375	2	taste	foodImageDisplay	2	109	49	foodImage.114	FOODEEG_Images\0922.jpg	NY	Left	No	0.822638799989363	0	506820	252
991.943359375	0.822638799989363	taste	choicePhaseStart	2	109	49	foodImage.114	FOODEEG_Images\0922.jpg	NY	Left	No	0.822638799989363	0	507876	253
992.7578125	0	taste	response	2	109	49	foodImage.114	FOODEEG_Images\0922.jpg	NY	Left	No	0.822638799989363	0	508293	234
993.80078125	1	health	trialStart	2	110	50	foodImage.17	FOODEEG_Images\0199.jpg	YN	Left	Yes	1.21113160000823	0	508827	251
994.841796875	2	health	foodImageDisplay	2	110	50	foodImage.17	FOODEEG_Images\0199.jpg	YN	Left	Yes	1.21113160000823	0	509360	252
996.90625	1.21113160000823	health	choicePhaseStart	2	110	50	foodImage.17	FOODEEG_Images\0199.jpg	YN	Left	Yes	1.21113160000823	0	510417	253
998.109375	0	health	response	2	110	50	foodImage.17	FOODEEG_Images\0199.jpg	YN	Left	Yes	1.21113160000823	0	511033	234
999.15234375	1	health	trialStart	2	111	51	foodImage.3	FOODEEG_Images\0046.jpg	NY	Left	No	0.758131599999615	0	511567	251
1000.21484375	2	health	foodImageDisplay	2	111	51	foodImage.3	FOODEEG_Images\0046.jpg	NY	Left	No	0.758131599999615	0	512111	252
1002.279296875	0.758131599999615	health	choicePhaseStart	2	111	51	foodImage.3	FOODEEG_Images\0046.jpg	NY	Left	No	0.758131599999615	0	513168	253
1003.029296875	0	health	response	2	111	51	foodImage.3	FOODEEG_Images\0046.jpg	NY	Left	No	0.758131599999615	0	513552	234
1004.072265625	1	decision	trialStart	2	112	52	foodImage.10	FOODEEG_Images\0145.jpg	NY	Right	Yes	0.824912299998687	0	514086	251
1005.140625	2	decision	foodImageDisplay	2	112	52	foodImage.10	FOODEEG_Images\0145.jpg	NY	Right	Yes	0.824912299998687	0	514633	252
1007.205078125	0.824912299998687	decision	choicePhaseStart	2	112	52	foodImage.10	FOODEEG_Images\0145.jpg	NY	Right	Yes	0.824912299998687	0	515690	253
1008.021484375	0	decision	response	2	112	52	foodImage.10	FOODEEG_Images\0145.jpg	NY	Right	Yes	0.824912299998687	0	516108	235
1009.064453125	1	taste	trialStart	2	113	53	foodImage.84	FOODEEG_Images\0830.jpg	YN	Left	Yes	1.02014469999995	0	516642	251
1010.12109375	2	taste	foodImageDisplay	2	113	53	foodImage.84	FOODEEG_Images\0830.jpg	YN	Left	Yes	1.02014469999995	0	517183	252
1012.185546875	1.02014469999995	taste	choicePhaseStart	2	113	53	foodImage.84	FOODEEG_Images\0830.jpg	YN	Left	Yes	1.02014469999995	0	518240	253
1013.197265625	0	taste	response	2	113	53	foodImage.84	FOODEEG_Images\0830.jpg	YN	Left	Yes	1.02014469999995	0	518758	234
1014.23828125	1	health	trialStart	2	114	54	foodImage.102	FOODEEG_Images\0910.jpg	NY	Right	Yes	1.1518844999955	0	519291	251
1015.279296875	2	health	foodImageDisplay	2	114	54	foodImage.102	FOODEEG_Images\0910.jpg	NY	Right	Yes	1.1518844999955	0	519824	252
1017.341796875	1.1518844999955	health	choicePhaseStart	2	114	54	foodImage.102	FOODEEG_Images\0910.jpg	NY	Right	Yes	1.1518844999955	0	520880	253
1018.484375	0	health	response	2	114	54	foodImage.102	FOODEEG_Images\0910.jpg	NY	Right	Yes	1.1518844999955	0	521465	235
1019.52734375	1	health	trialStart	2	115	55	foodImage.12	FOODEEG_Images\0181.jpg	YN	Left	Yes	0.9038528999954	0	521999	251
1020.58984375	2	health	foodImageDisplay	2	115	55	foodImage.12	FOODEEG_Images\0181.jpg	YN	Left	Yes	0.9038528999954	0	522543	252
1022.654296875	0.9038528999954	health	choicePhaseStart	2	115	55	foodImage.12	FOODEEG_Images\0181.jpg	YN	Left	Yes	0.9038528999954	0	523600	253
1023.548828125	0	health	response	2	115	55	foodImage.12	FOODEEG_Images\0181.jpg	YN	Left	Yes	0.9038528999954	0	524058	234
1024.58984375	1	decision	trialStart	2	116	56	foodImage.83	FOODEEG_Images\0827.jpg	NY	Right	Yes	2.16252889999305	0	524591	251
1025.650390625	2	decision	foodImageDisplay	2	116	56	foodImage.83	FOODEEG_Images\0827.jpg	NY	Right	Yes	2.16252889999305	0	525134	252
1027.71484375	2.16252889999305	decision	choicePhaseStart	2	116	56	foodImage.83	FOODEEG_Images\0827.jpg	NY	Right	Yes	2.16252889999305	0	526191	253
1029.869140625	0	decision	response	2	116	56	foodImage.83	FOODEEG_Images\0827.jpg	NY	Right	Yes	2.16252889999305	0	527294	235
1030.912109375	1	health	trialStart	2	117	57	foodImage.4	FOODEEG_Images\0065.jpg	YN	Right	No	1.11007790001167	0	527828	251
1031.9921875	2	health	foodImageDisplay	2	117	57	foodImage.4	FOODEEG_Images\0065.jpg	YN	Right	No	1.11007790001167	0	528381	252
1034.0546875	1.11007790001167	health	choicePhaseStart	2	117	57	foodImage.4	FOODEEG_Images\0065.jpg	YN	Right	No	1.11007790001167	0	529437	253
1035.15625	0	health	response	2	117	57	foodImage.4	FOODEEG_Images\0065.jpg	YN	Right	No	1.11007790001167	0	530001	235
1036.201171875	1	taste	trialStart	2	118	58	foodImage.117	FOODEEG_Images\0925.jpg	NY	Left	No	2.52914860000601	0	530536	251
1037.244140625	2	taste	foodImageDisplay	2	118	58	foodImage.117	FOODEEG_Images\0925.jpg	NY	Left	No	2.52914860000601	0	531070	252
1039.30859375	2.52914860000601	taste	choicePhaseStart	2	118	58	foodImage.117	FOODEEG_Images\0925.jpg	NY	Left	No	2.52914860000601	0	532127	253
1041.828125	0	taste	response	2	118	58	foodImage.117	FOODEEG_Images\0925.jpg	NY	Left	No	2.52914860000601	0	533417	234
1042.873046875	1	health	trialStart	2	119	59	foodImage.48	FOODEEG_Images\0494.jpg	NY	Right	Yes	1.14812220000022	0	533952	251
1043.91796875	2	health	foodImageDisplay	2	119	59	foodImage.48	FOODEEG_Images\0494.jpg	NY	Right	Yes	1.14812220000022	0	534487	252
1045.984375	1.14812220000022	health	choicePhaseStart	2	119	59	foodImage.48	FOODEEG_Images\0494.jpg	NY	Right	Yes	1.14812220000022	0	535545	253
1047.123046875	0	health	response	2	119	59	foodImage.48	FOODEEG_Images\0494.jpg	NY	Right	Yes	1.14812220000022	0	536128	235
1048.16796875	1	decision	trialStart	2	120	60	foodImage.9	FOODEEG_Images\0138.jpg	NY	Right	Yes	0.739993700000923	0	536663	251
1049.22265625	2	decision	foodImageDisplay	2	120	60	foodImage.9	FOODEEG_Images\0138.jpg	NY	Right	Yes	0.739993700000923	0	537203	252
1051.287109375	0.739993700000923	decision	choicePhaseStart	2	120	60	foodImage.9	FOODEEG_Images\0138.jpg	NY	Right	Yes	0.739993700000923	0	538260	253
1052.01953125	0	decision	response	2	120	60	foodImage.9	FOODEEG_Images\0138.jpg	NY	Right	Yes	0.739993700000923	0	538635	235
1054.060546875	22.18359375	n/a	blockEnd	n/a	n/a	n/a	n/a	n/a	n/a	n/a	n/a	n/a	n/a	539680	254
1076.244140625	2	n/a	blockStart	3	n/a	n/a	n/a	n/a	n/a	n/a	n/a	n/a	n/a	551038	250
1078.27734375	1	health	trialStart	3	121	1	foodImage.57	FOODEEG_Images\0587.jpg	NY	Left	No	1.43268679999164	0	552079	251
1079.32421875	2	health	foodImageDisplay	3	121	1	foodImage.57	FOODEEG_Images\0587.jpg	NY	Left	No	1.43268679999164	0	552615	252
1081.38671875	1.43268679999164	health	choicePhaseStart	3	121	1	foodImage.57	FOODEEG_Images\0587.jpg	NY	Left	No	1.43268679999164	0	553671	253
1082.810546875	0	health	response	3	121	1	foodImage.57	FOODEEG_Images\0587.jpg	NY	Left	No	1.43268679999164	0	554400	234
1083.853515625	1	health	trialStart	3	122	2	foodImage.45	FOODEEG_Images\0478.jpg	NY	Right	Yes	0.75258029998804	0	554934	251
1084.91796875	2	health	foodImageDisplay	3	122	2	foodImage.45	FOODEEG_Images\0478.jpg	NY	Right	Yes	0.75258029998804	0	555479	252
1086.986328125	0.75258029998804	health	choicePhaseStart	3	122	2	foodImage.45	FOODEEG_Images\0478.jpg	NY	Right	Yes	0.75258029998804	0	556538	253
1087.73046875	0	health	response	3	122	2	foodImage.45	FOODEEG_Images\0478.jpg	NY	Right	Yes	0.75258029998804	0	556919	235
1088.7734375	1	decision	trialStart	3	123	3	foodImage.41	FOODEEG_Images\0409.jpg	YN	Left	Yes	0.980275300011272	0	557453	251
1089.822265625	2	decision	foodImageDisplay	3	123	3	foodImage.41	FOODEEG_Images\0409.jpg	YN	Left	Yes	0.980275300011272	0	557990	252
1091.88671875	0.980275300011272	decision	choicePhaseStart	3	123	3	foodImage.41	FOODEEG_Images\0409.jpg	YN	Left	Yes	0.980275300011272	0	559047	253
1092.857421875	0	decision	response	3	123	3	foodImage.41	FOODEEG_Images\0409.jpg	YN	Left	Yes	0.980275300011272	0	559544	234
1093.900390625	1	health	trialStart	3	124	4	foodImage.62	FOODEEG_Images\0644.jpg	NY	Right	Yes	0.886835500001325	0	560078	251
1094.990234375	2	health	foodImageDisplay	3	124	4	foodImage.62	FOODEEG_Images\0644.jpg	NY	Right	Yes	0.886835500001325	0	560636	252
1097.052734375	0.886835500001325	health	choicePhaseStart	3	124	4	foodImage.62	FOODEEG_Images\0644.jpg	NY	Right	Yes	0.886835500001325	0	561692	253
1097.9296875	0	health	response	3	124	4	foodImage.62	FOODEEG_Images\0644.jpg	NY	Right	Yes	0.886835500001325	0	562141	235
1098.97265625	1	decision	trialStart	3	125	5	foodImage.100	FOODEEG_Images\0908.jpg	NY	Left	No	1.89172590000089	0	562675	251
1100.015625	2	decision	foodImageDisplay	3	125	5	foodImage.100	FOODEEG_Images\0908.jpg	NY	Left	No	1.89172590000089	0	563209	252
1102.080078125	1.89172590000089	decision	choicePhaseStart	3	125	5	foodImage.100	FOODEEG_Images\0908.jpg	NY	Left	No	1.89172590000089	0	564266	253
1103.9609375	0	decision	response	3	125	5	foodImage.100	FOODEEG_Images\0908.jpg	NY	Left	No	1.89172590000089	0	565229	234
1105.00390625	1	taste	trialStart	3	126	6	foodImage.88	FOODEEG_Images\0878.jpg	YN	Left	Yes	2.29591129999608	0	565763	251
1106.083984375	2	taste	foodImageDisplay	3	126	6	foodImage.88	FOODEEG_Images\0878.jpg	YN	Left	Yes	2.29591129999608	0	566316	252
1108.146484375	2.29591129999608	taste	choicePhaseStart	3	126	6	foodImage.88	FOODEEG_Images\0878.jpg	YN	Left	Yes	2.29591129999608	0	567372	253
1110.43359375	0	taste	response	3	126	6	foodImage.88	FOODEEG_Images\0878.jpg	YN	Left	Yes	2.29591129999608	0	568543	234
1111.4765625	1	taste	trialStart	3	127	7	foodImage.112	FOODEEG_Images\0920.jpg	YN	Right	No	0.936323000001721	0	569077	251
1112.51953125	2	taste	foodImageDisplay	3	127	7	foodImage.112	FOODEEG_Images\0920.jpg	YN	Right	No	0.936323000001721	0	569611	252
1114.58203125	0.936323000001721	taste	choicePhaseStart	3	127	7	foodImage.112	FOODEEG_Images\0920.jpg	YN	Right	No	0.936323000001721	0	570667	253
1115.513671875	0	taste	response	3	127	7	foodImage.112	FOODEEG_Images\0920.jpg	YN	Right	No	0.936323000001721	0	571144	235
1116.5546875	1	decision	trialStart	3	128	8	foodImage.22	FOODEEG_Images\0236.jpg	NY	Right	Yes	0.78434610000113	0	571677	251
1117.595703125	2	decision	foodImageDisplay	3	128	8	foodImage.22	FOODEEG_Images\0236.jpg	NY	Right	Yes	0.78434610000113	0	572210	252
1119.6640625	0.78434610000113	decision	choicePhaseStart	3	128	8	foodImage.22	FOODEEG_Images\0236.jpg	NY	Right	Yes	0.78434610000113	0	573269	253
1120.44140625	0	decision	response	3	128	8	foodImage.22	FOODEEG_Images\0236.jpg	NY	Right	Yes	0.78434610000113	0	573667	235
1121.484375	1	decision	trialStart	3	129	9	foodImage.81	FOODEEG_Images\0797.jpg	YN	Left	Yes	1.56434529999387	0	574201	251
1122.54296875	2	decision	foodImageDisplay	3	129	9	foodImage.81	FOODEEG_Images\0797.jpg	YN	Left	Yes	1.56434529999387	0	574743	252
1124.60546875	1.56434529999387	decision	choicePhaseStart	3	129	9	foodImage.81	FOODEEG_Images\0797.jpg	YN	Left	Yes	1.56434529999387	0	575799	253
1126.16015625	0	decision	response	3	129	9	foodImage.81	FOODEEG_Images\0797.jpg	YN	Left	Yes	1.56434529999387	0	576595	234
1127.203125	1	decision	trialStart	3	130	10	foodImage.48	FOODEEG_Images\0494.jpg	YN	Left	Yes	1.29645829999936	0	577129	251
1128.25	2	decision	foodImageDisplay	3	130	10	foodImage.48	FOODEEG_Images\0494.jpg	YN	Left	Yes	1.29645829999936	0	577665	252
1130.3125	1.29645829999936	decision	choicePhaseStart	3	130	10	foodImage.48	FOODEEG_Images\0494.jpg	YN	Left	Yes	1.29645829999936	0	578721	253
1131.599609375	0	decision	response	3	130	10	foodImage.48	FOODEEG_Images\0494.jpg	YN	Left	Yes	1.29645829999936	0	579380	234
1132.642578125	1	decision	trialStart	3	131	11	foodImage.60	FOODEEG_Images\0614.jpg	NY	Right	Yes	1.51085420000891	0	579914	251
1133.69921875	2	decision	foodImageDisplay	3	131	11	foodImage.60	FOODEEG_Images\0614.jpg	NY	Right	Yes	1.51085420000891	0	580455	252
1135.763671875	1.51085420000891	decision	choicePhaseStart	3	131	11	foodImage.60	FOODEEG_Images\0614.jpg	NY	Right	Yes	1.51085420000891	0	581512	253
1137.263671875	0	decision	response	3	131	11	foodImage.60	FOODEEG_Images\0614.jpg	NY	Right	Yes	1.51085420000891	0	582280	235
1138.306640625	1	health	trialStart	3	132	12	foodImage.109	FOODEEG_Images\0917.jpg	YN	Left	Yes	1.15397469999152	0	582814	251
1139.359375	2	health	foodImageDisplay	3	132	12	foodImage.109	FOODEEG_Images\0917.jpg	YN	Left	Yes	1.15397469999152	0	583353	252
1141.423828125	1.15397469999152	health	choicePhaseStart	3	132	12	foodImage.109	FOODEEG_Images\0917.jpg	YN	Left	Yes	1.15397469999152	0	584410	253
1142.568359375	0	health	response	3	132	12	foodImage.109	FOODEEG_Images\0917.jpg	YN	Left	Yes	1.15397469999152	0	584996	234
1143.611328125	1	taste	trialStart	3	133	13	foodImage.16	FOODEEG_Images\0196.jpg	NY	Right	Yes	2.284519000008	0	585530	251
1144.673828125	2	taste	foodImageDisplay	3	133	13	foodImage.16	FOODEEG_Images\0196.jpg	NY	Right	Yes	2.284519000008	0	586074	252
1146.73828125	2.284519000008	taste	choicePhaseStart	3	133	13	foodImage.16	FOODEEG_Images\0196.jpg	NY	Right	Yes	2.284519000008	0	587131	253
1149.015625	0	taste	response	3	133	13	foodImage.16	FOODEEG_Images\0196.jpg	NY	Right	Yes	2.284519000008	0	588297	235
1150.05859375	1	health	trialStart	3	134	14	foodImage.8	FOODEEG_Images\0136.jpg	NY	Left	No	0.98406960000284	0	588831	251
1151.10546875	2	health	foodImageDisplay	3	134	14	foodImage.8	FOODEEG_Images\0136.jpg	NY	Left	No	0.98406960000284	0	589367	252
1153.16796875	0.98406960000284	health	choicePhaseStart	3	134	14	foodImage.8	FOODEEG_Images\0136.jpg	NY	Left	No	0.98406960000284	0	590423	253
1154.142578125	0	health	response	3	134	14	foodImage.8	FOODEEG_Images\0136.jpg	NY	Left	No	0.98406960000284	0	590922	234
1155.185546875	1	decision	trialStart	3	135	15	foodImage.49	FOODEEG_Images\0515.jpg	NY	Right	Yes	1.31823520000034	0	591456	251
1156.23046875	2	decision	foodImageDisplay	3	135	15	foodImage.49	FOODEEG_Images\0515.jpg	NY	Right	Yes	1.31823520000034	0	591991	252
1158.294921875	1.31823520000034	decision	choicePhaseStart	3	135	15	foodImage.49	FOODEEG_Images\0515.jpg	NY	Right	Yes	1.31823520000034	0	593048	253
1159.607421875	0	decision	response	3	135	15	foodImage.49	FOODEEG_Images\0515.jpg	NY	Right	Yes	1.31823520000034	0	593720	235
1160.650390625	1	taste	trialStart	3	136	16	foodImage.30	FOODEEG_Images\0282.jpg	YN	Left	Yes	1.42782679999073	0	594254	251
1161.693359375	2	taste	foodImageDisplay	3	136	16	foodImage.30	FOODEEG_Images\0282.jpg	YN	Left	Yes	1.42782679999073	0	594788	252
1163.755859375	1.42782679999073	taste	choicePhaseStart	3	136	16	foodImage.30	FOODEEG_Images\0282.jpg	YN	Left	Yes	1.42782679999073	0	595844	253
1165.17578125	0	taste	response	3	136	16	foodImage.30	FOODEEG_Images\0282.jpg	YN	Left	Yes	1.42782679999073	0	596571	234
1166.220703125	1	decision	trialStart	3	137	17	foodImage.19	FOODEEG_Images\0225.jpg	YN	Left	Yes	0.98880900000222	0	597106	251
1167.275390625	2	decision	foodImageDisplay	3	137	17	foodImage.19	FOODEEG_Images\0225.jpg	YN	Left	Yes	0.98880900000222	0	597646	252
1169.337890625	0.98880900000222	decision	choicePhaseStart	3	137	17	foodImage.19	FOODEEG_Images\0225.jpg	YN	Left	Yes	0.98880900000222	0	598702	253
1170.318359375	0	decision	response	3	137	17	foodImage.19	FOODEEG_Images\0225.jpg	YN	Left	Yes	0.98880900000222	0	599204	234
1171.36328125	1	decision	trialStart	3	138	18	foodImage.103	FOODEEG_Images\0911.jpg	YN	Right	No	0.83143970000674	0	599739	251
1172.400390625	2	decision	foodImageDisplay	3	138	18	foodImage.103	FOODEEG_Images\0911.jpg	YN	Right	No	0.83143970000674	0	600270	252
1174.46484375	0.83143970000674	decision	choicePhaseStart	3	138	18	foodImage.103	FOODEEG_Images\0911.jpg	YN	Right	No	0.83143970000674	0	601327	253
1175.287109375	0	decision	response	3	138	18	foodImage.103	FOODEEG_Images\0911.jpg	YN	Right	No	0.83143970000674	0	601748	235
1176.328125	1	taste	trialStart	3	139	19	foodImage.56	FOODEEG_Images\0586.jpg	YN	Left	Yes	0.670974699998624	0	602281	251
1177.39453125	2	taste	foodImageDisplay	3	139	19	foodImage.56	FOODEEG_Images\0586.jpg	YN	Left	Yes	0.670974699998624	0	602827	252
1179.45703125	0.670974699998624	taste	choicePhaseStart	3	139	19	foodImage.56	FOODEEG_Images\0586.jpg	YN	Left	Yes	0.670974699998624	0	603883	253
1180.119140625	0	taste	response	3	139	19	foodImage.56	FOODEEG_Images\0586.jpg	YN	Left	Yes	0.670974699998624	0	604222	234
1181.16015625	1	decision	trialStart	3	140	20	foodImage.3	FOODEEG_Images\0046.jpg	NY	Right	Yes	1.46054220000224	0	604755	251
1182.203125	2	decision	foodImageDisplay	3	140	20	foodImage.3	FOODEEG_Images\0046.jpg	NY	Right	Yes	1.46054220000224	0	605289	252
1184.267578125	1.46054220000224	decision	choicePhaseStart	3	140	20	foodImage.3	FOODEEG_Images\0046.jpg	NY	Right	Yes	1.46054220000224	0	606346	253
1185.71875	0	decision	response	3	140	20	foodImage.3	FOODEEG_Images\0046.jpg	NY	Right	Yes	1.46054220000224	0	607089	235
1186.763671875	1	health	trialStart	3	141	21	foodImage.24	FOODEEG_Images\0250.jpg	YN	Left	Yes	0.962784399991506	0	607624	251
1187.806640625	2	health	foodImageDisplay	3	141	21	foodImage.24	FOODEEG_Images\0250.jpg	YN	Left	Yes	0.962784399991506	0	608158	252
1189.869140625	0.962784399991506	health	choicePhaseStart	3	141	21	foodImage.24	FOODEEG_Images\0250.jpg	YN	Left	Yes	0.962784399991506	0	609214	253
1190.822265625	0	health	response	3	141	21	foodImage.24	FOODEEG_Images\0250.jpg	YN	Left	Yes	0.962784399991506	0	609702	234
1191.865234375	1	health	trialStart	3	142	22	foodImage.83	FOODEEG_Images\0827.jpg	NY	Right	Yes	1.3574074000062	0	610236	251
1192.9453125	2	health	foodImageDisplay	3	142	22	foodImage.83	FOODEEG_Images\0827.jpg	NY	Right	Yes	1.3574074000062	0	610789	252
1195.009765625	1.3574074000062	health	choicePhaseStart	3	142	22	foodImage.83	FOODEEG_Images\0827.jpg	NY	Right	Yes	1.3574074000062	0	611846	253
1196.357421875	0	health	response	3	142	22	foodImage.83	FOODEEG_Images\0827.jpg	NY	Right	Yes	1.3574074000062	0	612536	235
1197.40234375	1	decision	trialStart	3	143	23	foodImage.12	FOODEEG_Images\0181.jpg	NY	Left	No	2.60114340001019	0	613071	251
1198.447265625	2	decision	foodImageDisplay	3	143	23	foodImage.12	FOODEEG_Images\0181.jpg	NY	Left	No	2.60114340001019	0	613606	252
1200.509765625	2.60114340001019	decision	choicePhaseStart	3	143	23	foodImage.12	FOODEEG_Images\0181.jpg	NY	Left	No	2.60114340001019	0	614662	253
1203.1015625	0	decision	response	3	143	23	foodImage.12	FOODEEG_Images\0181.jpg	NY	Left	No	2.60114340001019	0	615989	234
1204.14453125	1	health	trialStart	3	144	24	foodImage.71	FOODEEG_Images\0713.jpg	NY	Left	No	3.04690709999704	0	616523	251
1205.185546875	2	health	foodImageDisplay	3	144	24	foodImage.71	FOODEEG_Images\0713.jpg	NY	Left	No	3.04690709999704	0	617056	252
1207.251953125	3.04690709999704	health	choicePhaseStart	3	144	24	foodImage.71	FOODEEG_Images\0713.jpg	NY	Left	No	3.04690709999704	0	618114	253
1210.29296875	0	health	response	3	144	24	foodImage.71	FOODEEG_Images\0713.jpg	NY	Left	No	3.04690709999704	0	619671	234
1211.337890625	1	decision	trialStart	3	145	25	foodImage.56	FOODEEG_Images\0586.jpg	NY	Right	Yes	1.49142919998849	0	620206	251
1212.388671875	2	decision	foodImageDisplay	3	145	25	foodImage.56	FOODEEG_Images\0586.jpg	NY	Right	Yes	1.49142919998849	0	620744	252
1214.451171875	1.49142919998849	decision	choicePhaseStart	3	145	25	foodImage.56	FOODEEG_Images\0586.jpg	NY	Right	Yes	1.49142919998849	0	621800	253
1215.93359375	0	decision	response	3	145	25	foodImage.56	FOODEEG_Images\0586.jpg	NY	Right	Yes	1.49142919998849	0	622559	235
1216.9765625	1	health	trialStart	3	146	26	foodImage.75	FOODEEG_Images\0763.jpg	YN	Left	Yes	2.71556689999125	0	623093	251
1218.02734375	2	health	foodImageDisplay	3	146	26	foodImage.75	FOODEEG_Images\0763.jpg	YN	Left	Yes	2.71556689999125	0	623631	252
1220.08984375	2.71556689999125	health	choicePhaseStart	3	146	26	foodImage.75	FOODEEG_Images\0763.jpg	YN	Left	Yes	2.71556689999125	0	624687	253
1222.796875	0	health	response	3	146	26	foodImage.75	FOODEEG_Images\0763.jpg	YN	Left	Yes	2.71556689999125	0	626073	234
1223.83984375	1	decision	trialStart	3	147	27	foodImage.40	FOODEEG_Images\0373.jpg	YN	Left	Yes	3.04100710000785	0	626607	251
1224.884765625	2	decision	foodImageDisplay	3	147	27	foodImage.40	FOODEEG_Images\0373.jpg	YN	Left	Yes	3.04100710000785	0	627142	252
1226.94921875	3.04100710000785	decision	choicePhaseStart	3	147	27	foodImage.40	FOODEEG_Images\0373.jpg	YN	Left	Yes	3.04100710000785	0	628199	253
1229.98046875	0	decision	response	3	147	27	foodImage.40	FOODEEG_Images\0373.jpg	YN	Left	Yes	3.04100710000785	0	629751	234
1231.0234375	1	taste	trialStart	3	148	28	foodImage.49	FOODEEG_Images\0515.jpg	YN	Left	Yes	1.55377129999397	0	630285	251
1232.068359375	2	taste	foodImageDisplay	3	148	28	foodImage.49	FOODEEG_Images\0515.jpg	YN	Left	Yes	1.55377129999397	0	630820	252
1234.130859375	1.55377129999397	taste	choicePhaseStart	3	148	28	foodImage.49	FOODEEG_Images\0515.jpg	YN	Left	Yes	1.55377129999397	0	631876	253
1235.67578125	0	taste	response	3	148	28	foodImage.49	FOODEEG_Images\0515.jpg	YN	Left	Yes	1.55377129999397	0	632667	234
1236.71875	1	taste	trialStart	3	149	29	foodImage.5	FOODEEG_Images\0107.jpg	NY	Left	No	0.618216499991831	0	633201	251
1237.779296875	2	taste	foodImageDisplay	3	149	29	foodImage.5	FOODEEG_Images\0107.jpg	NY	Left	No	0.618216499991831	0	633744	252
1239.84375	0.618216499991831	taste	choicePhaseStart	3	149	29	foodImage.5	FOODEEG_Images\0107.jpg	NY	Left	No	0.618216499991831	0	634801	253
1240.451171875	0	taste	response	3	149	29	foodImage.5	FOODEEG_Images\0107.jpg	NY	Left	No	0.618216499991831	0	635112	234
1241.494140625	1	taste	trialStart	3	150	30	foodImage.89	FOODEEG_Images\0881.jpg	NY	Right	Yes	0.837910900008865	0	635646	251
1242.552734375	2	taste	foodImageDisplay	3	150	30	foodImage.89	FOODEEG_Images\0881.jpg	NY	Right	Yes	0.837910900008865	0	636188	252
1244.62109375	0.837910900008865	taste	choicePhaseStart	3	150	30	foodImage.89	FOODEEG_Images\0881.jpg	NY	Right	Yes	0.837910900008865	0	637247	253
1245.451171875	0	taste	response	3	150	30	foodImage.89	FOODEEG_Images\0881.jpg	NY	Right	Yes	0.837910900008865	0	637672	235
1246.49609375	1	decision	trialStart	3	151	31	foodImage.54	FOODEEG_Images\0560.jpg	NY	Right	Yes	1.6454267000081	0	638207	251
1247.56640625	2	decision	foodImageDisplay	3	151	31	foodImage.54	FOODEEG_Images\0560.jpg	NY	Right	Yes	1.6454267000081	0	638755	252
1249.630859375	1.6454267000081	decision	choicePhaseStart	3	151	31	foodImage.54	FOODEEG_Images\0560.jpg	NY	Right	Yes	1.6454267000081	0	639812	253
1251.267578125	0	decision	response	3	151	31	foodImage.54	FOODEEG_Images\0560.jpg	NY	Right	Yes	1.6454267000081	0	640650	235
1252.310546875	1	taste	trialStart	3	152	32	foodImage.51	FOODEEG_Images\0536.jpg	NY	Right	Yes	0.928179900001851	0	641184	251
1253.35546875	2	taste	foodImageDisplay	3	152	32	foodImage.51	FOODEEG_Images\0536.jpg	NY	Right	Yes	0.928179900001851	0	641719	252
1255.419921875	0.928179900001851	taste	choicePhaseStart	3	152	32	foodImage.51	FOODEEG_Images\0536.jpg	NY	Right	Yes	0.928179900001851	0	642776	253
1256.33984375	0	taste	response	3	152	32	foodImage.51	FOODEEG_Images\0536.jpg	NY	Right	Yes	0.928179900001851	0	643247	235
1257.38671875	1	decision	trialStart	3	153	33	foodImage.35	FOODEEG_Images\0350.jpg	YN	Left	Yes	1.52787900000112	0	643783	251
1258.42578125	2	decision	foodImageDisplay	3	153	33	foodImage.35	FOODEEG_Images\0350.jpg	YN	Left	Yes	1.52787900000112	0	644315	252
1260.490234375	1.52787900000112	decision	choicePhaseStart	3	153	33	foodImage.35	FOODEEG_Images\0350.jpg	YN	Left	Yes	1.52787900000112	0	645372	253
1262.01171875	0	decision	response	3	153	33	foodImage.35	FOODEEG_Images\0350.jpg	YN	Left	Yes	1.52787900000112	0	646151	234
1263.052734375	1	health	trialStart	3	154	34	foodImage.91	FOODEEG_Images\0896.jpg	YN	Left	Yes	1.48388460000569	0	646684	251
1264.111328125	2	health	foodImageDisplay	3	154	34	foodImage.91	FOODEEG_Images\0896.jpg	YN	Left	Yes	1.48388460000569	0	647226	252
1266.173828125	1.48388460000569	health	choicePhaseStart	3	154	34	foodImage.91	FOODEEG_Images\0896.jpg	YN	Left	Yes	1.48388460000569	0	648282	253
1267.650390625	0	health	response	3	154	34	foodImage.91	FOODEEG_Images\0896.jpg	YN	Left	Yes	1.48388460000569	0	649038	234
1268.6953125	1	decision	trialStart	3	155	35	foodImage.46	FOODEEG_Images\0479.jpg	YN	Left	Yes	1.43989000000875	0	649573	251
1269.779296875	2	decision	foodImageDisplay	3	155	35	foodImage.46	FOODEEG_Images\0479.jpg	YN	Left	Yes	1.43989000000875	0	650128	252
1271.84375	1.43989000000875	decision	choicePhaseStart	3	155	35	foodImage.46	FOODEEG_Images\0479.jpg	YN	Left	Yes	1.43989000000875	0	651185	253
1273.275390625	0	decision	response	3	155	35	foodImage.46	FOODEEG_Images\0479.jpg	YN	Left	Yes	1.43989000000875	0	651918	234
1274.318359375	1	decision	trialStart	3	156	36	foodImage.104	FOODEEG_Images\0912.jpg	YN	Left	Yes	0.78492720000213	0	652452	251
1275.35546875	2	decision	foodImageDisplay	3	156	36	foodImage.104	FOODEEG_Images\0912.jpg	YN	Left	Yes	0.78492720000213	0	652983	252
1277.419921875	0.78492720000213	decision	choicePhaseStart	3	156	36	foodImage.104	FOODEEG_Images\0912.jpg	YN	Left	Yes	0.78492720000213	0	654040	253
1278.1953125	0	decision	response	3	156	36	foodImage.104	FOODEEG_Images\0912.jpg	YN	Left	Yes	0.78492720000213	0	654437	234
1279.244140625	1	decision	trialStart	3	157	37	foodImage.2	FOODEEG_Images\0028.jpg	YN	Left	Yes	0.711686700000428	0	654974	251
1280.28515625	2	decision	foodImageDisplay	3	157	37	foodImage.2	FOODEEG_Images\0028.jpg	YN	Left	Yes	0.711686700000428	0	655507	252
1282.34765625	0.711686700000428	decision	choicePhaseStart	3	157	37	foodImage.2	FOODEEG_Images\0028.jpg	YN	Left	Yes	0.711686700000428	0	656563	253
1283.05078125	0	decision	response	3	157	37	foodImage.2	FOODEEG_Images\0028.jpg	YN	Left	Yes	0.711686700000428	0	656923	234
1284.091796875	1	health	trialStart	3	158	38	foodImage.119	FOODEEG_Images\0927.jpg	NY	Left	No	0.986702599999262	0	657456	251
1285.134765625	2	health	foodImageDisplay	3	158	38	foodImage.119	FOODEEG_Images\0927.jpg	NY	Left	No	0.986702599999262	0	657990	252
1287.197265625	0.986702599999262	health	choicePhaseStart	3	158	38	foodImage.119	FOODEEG_Images\0927.jpg	NY	Left	No	0.986702599999262	0	659046	253
1288.177734375	0	health	response	3	158	38	foodImage.119	FOODEEG_Images\0927.jpg	NY	Left	No	0.986702599999262	0	659548	234
1289.220703125	1	taste	trialStart	3	159	39	foodImage.53	FOODEEG_Images\0547.jpg	YN	Right	No	0.83005749998847	0	660082	251
1290.29296875	2	taste	foodImageDisplay	3	159	39	foodImage.53	FOODEEG_Images\0547.jpg	YN	Right	No	0.83005749998847	0	660631	252
1292.357421875	0.83005749998847	taste	choicePhaseStart	3	159	39	foodImage.53	FOODEEG_Images\0547.jpg	YN	Right	No	0.83005749998847	0	661688	253
1293.177734375	0	taste	response	3	159	39	foodImage.53	FOODEEG_Images\0547.jpg	YN	Right	No	0.83005749998847	0	662108	235
1294.22265625	1	taste	trialStart	3	160	40	foodImage.41	FOODEEG_Images\0409.jpg	YN	Left	Yes	0.983066399989184	0	662643	251
1295.267578125	2	taste	foodImageDisplay	3	160	40	foodImage.41	FOODEEG_Images\0409.jpg	YN	Left	Yes	0.983066399989184	0	663178	252
1297.33203125	0.983066399989184	taste	choicePhaseStart	3	160	40	foodImage.41	FOODEEG_Images\0409.jpg	YN	Left	Yes	0.983066399989184	0	664235	253
1298.306640625	0	taste	response	3	160	40	foodImage.41	FOODEEG_Images\0409.jpg	YN	Left	Yes	0.983066399989184	0	664734	234
1299.349609375	1	decision	trialStart	3	161	41	foodImage.84	FOODEEG_Images\0830.jpg	NY	Right	Yes	1.6513116999995	0	665268	251
1300.431640625	2	decision	foodImageDisplay	3	161	41	foodImage.84	FOODEEG_Images\0830.jpg	NY	Right	Yes	1.6513116999995	0	665822	252
1302.494140625	1.6513116999995	decision	choicePhaseStart	3	161	41	foodImage.84	FOODEEG_Images\0830.jpg	NY	Right	Yes	1.6513116999995	0	666878	253
1304.13671875	0	decision	response	3	161	41	foodImage.84	FOODEEG_Images\0830.jpg	NY	Right	Yes	1.6513116999995	0	667719	235
1305.1796875	1	decision	trialStart	3	162	42	foodImage.42	FOODEEG_Images\0438.jpg	YN	Left	Yes	2.1461976999999	0	668253	251
1306.28125	2	decision	foodImageDisplay	3	162	42	foodImage.42	FOODEEG_Images\0438.jpg	YN	Left	Yes	2.1461976999999	0	668817	252
1308.34375	2.1461976999999	decision	choicePhaseStart	3	162	42	foodImage.42	FOODEEG_Images\0438.jpg	YN	Left	Yes	2.1461976999999	0	669873	253
1310.48046875	0	decision	response	3	162	42	foodImage.42	FOODEEG_Images\0438.jpg	YN	Left	Yes	2.1461976999999	0	670967	234
1311.5234375	1	decision	trialStart	3	163	43	foodImage.15	FOODEEG_Images\0189.jpg	NY	Left	No	1.8851910999947	0	671501	251
1312.60546875	2	decision	foodImageDisplay	3	163	43	foodImage.15	FOODEEG_Images\0189.jpg	NY	Left	No	1.8851910999947	0	672055	252
1314.669921875	1.8851910999947	decision	choicePhaseStart	3	163	43	foodImage.15	FOODEEG_Images\0189.jpg	NY	Left	No	1.8851910999947	0	673112	253
1316.544921875	0	decision	response	3	163	43	foodImage.15	FOODEEG_Images\0189.jpg	NY	Left	No	1.8851910999947	0	674072	234
1317.587890625	1	health	trialStart	3	164	44	foodImage.60	FOODEEG_Images\0614.jpg	NY	Right	Yes	1.15532009999151	0	674606	251
1318.669921875	2	health	foodImageDisplay	3	164	44	foodImage.60	FOODEEG_Images\0614.jpg	NY	Right	Yes	1.15532009999151	0	675160	252
1320.732421875	1.15532009999151	health	choicePhaseStart	3	164	44	foodImage.60	FOODEEG_Images\0614.jpg	NY	Right	Yes	1.15532009999151	0	676216	253
1321.880859375	0	health	response	3	164	44	foodImage.60	FOODEEG_Images\0614.jpg	NY	Right	Yes	1.15532009999151	0	676804	235
1322.923828125	1	decision	trialStart	3	165	45	foodImage.101	FOODEEG_Images\0909.jpg	YN	Right	No	1.91181030000735	0	677338	251
1323.962890625	2	decision	foodImageDisplay	3	165	45	foodImage.101	FOODEEG_Images\0909.jpg	YN	Right	No	1.91181030000735	0	677870	252
1326.025390625	1.91181030000735	decision	choicePhaseStart	3	165	45	foodImage.101	FOODEEG_Images\0909.jpg	YN	Right	No	1.91181030000735	0	678926	253
1327.927734375	0	decision	response	3	165	45	foodImage.101	FOODEEG_Images\0909.jpg	YN	Right	No	1.91181030000735	0	679900	235
1328.97265625	1	health	trialStart	3	166	46	foodImage.68	FOODEEG_Images\0685.jpg	YN	Left	Yes	1.52863470000739	0	680435	251
1330.048828125	2	health	foodImageDisplay	3	166	46	foodImage.68	FOODEEG_Images\0685.jpg	YN	Left	Yes	1.52863470000739	0	680986	252
1332.11328125	1.52863470000739	health	choicePhaseStart	3	166	46	foodImage.68	FOODEEG_Images\0685.jpg	YN	Left	Yes	1.52863470000739	0	682043	253
1333.6328125	0	health	response	3	166	46	foodImage.68	FOODEEG_Images\0685.jpg	YN	Left	Yes	1.52863470000739	0	682821	234
1334.67578125	1	health	trialStart	3	167	47	foodImage.94	FOODEEG_Images\0902.jpg	YN	Left	Yes	0.722136399999727	0	683355	251
1335.712890625	2	health	foodImageDisplay	3	167	47	foodImage.94	FOODEEG_Images\0902.jpg	YN	Left	Yes	0.722136399999727	0	683886	252
1337.775390625	0.722136399999727	health	choicePhaseStart	3	167	47	foodImage.94	FOODEEG_Images\0902.jpg	YN	Left	Yes	0.722136399999727	0	684942	253
1338.48828125	0	health	response	3	167	47	foodImage.94	FOODEEG_Images\0902.jpg	YN	Left	Yes	0.722136399999727	0	685307	234
1339.529296875	1	health	trialStart	3	168	48	foodImage.44	FOODEEG_Images\0459.jpg	YN	Left	Yes	0.706254899996566	0	685840	251
1340.591796875	2	health	foodImageDisplay	3	168	48	foodImage.44	FOODEEG_Images\0459.jpg	YN	Left	Yes	0.706254899996566	0	686384	252
1342.654296875	0.706254899996566	health	choicePhaseStart	3	168	48	foodImage.44	FOODEEG_Images\0459.jpg	YN	Left	Yes	0.706254899996566	0	687440	253
1343.3515625	0	health	response	3	168	48	foodImage.44	FOODEEG_Images\0459.jpg	YN	Left	Yes	0.706254899996566	0	687797	234
1344.39453125	1	taste	trialStart	3	169	49	foodImage.26	FOODEEG_Images\0262.jpg	YN	Left	Yes	0.855279199997312	0	688331	251
1345.45703125	2	taste	foodImageDisplay	3	169	49	foodImage.26	FOODEEG_Images\0262.jpg	YN	Left	Yes	0.855279199997312	0	688875	252
1347.51953125	0.855279199997312	taste	choicePhaseStart	3	169	49	foodImage.26	FOODEEG_Images\0262.jpg	YN	Left	Yes	0.855279199997312	0	689931	253
1348.3671875	0	taste	response	3	169	49	foodImage.26	FOODEEG_Images\0262.jpg	YN	Left	Yes	0.855279199997312	0	690365	234
1349.4140625	1	decision	trialStart	3	170	50	foodImage.107	FOODEEG_Images\0915.jpg	NY	Left	No	0.878970100005972	0	690901	251
1350.451171875	2	decision	foodImageDisplay	3	170	50	foodImage.107	FOODEEG_Images\0915.jpg	NY	Left	No	0.878970100005972	0	691432	252
1352.513671875	0.878970100005972	decision	choicePhaseStart	3	170	50	foodImage.107	FOODEEG_Images\0915.jpg	NY	Left	No	0.878970100005972	0	692488	253
1353.3828125	0	decision	response	3	170	50	foodImage.107	FOODEEG_Images\0915.jpg	NY	Left	No	0.878970100005972	0	692933	234
1354.43359375	1	taste	trialStart	3	171	51	foodImage.61	FOODEEG_Images\0640.jpg	NY	Right	Yes	1.80105170000752	0	693471	251
1355.48828125	2	taste	foodImageDisplay	3	171	51	foodImage.61	FOODEEG_Images\0640.jpg	NY	Right	Yes	1.80105170000752	0	694011	252
1357.55078125	1.80105170000752	taste	choicePhaseStart	3	171	51	foodImage.61	FOODEEG_Images\0640.jpg	NY	Right	Yes	1.80105170000752	0	695067	253
1359.34375	0	taste	response	3	171	51	foodImage.61	FOODEEG_Images\0640.jpg	NY	Right	Yes	1.80105170000752	0	695985	235
1360.390625	1	health	trialStart	3	172	52	foodImage.1	FOODEEG_Images\0004.jpg	NY	Right	Yes	2.18227210000623	0	696521	251
1361.435546875	2	health	foodImageDisplay	3	172	52	foodImage.1	FOODEEG_Images\0004.jpg	NY	Right	Yes	2.18227210000623	0	697056	252
1363.498046875	2.18227210000623	health	choicePhaseStart	3	172	52	foodImage.1	FOODEEG_Images\0004.jpg	NY	Right	Yes	2.18227210000623	0	698112	253
1365.671875	0	health	response	3	172	52	foodImage.1	FOODEEG_Images\0004.jpg	NY	Right	Yes	2.18227210000623	0	699225	235
1366.71484375	1	health	trialStart	3	173	53	foodImage.82	FOODEEG_Images\0805.jpg	NY	Right	Yes	2.20782020001207	0	699759	251
1367.76953125	2	health	foodImageDisplay	3	173	53	foodImage.82	FOODEEG_Images\0805.jpg	NY	Right	Yes	2.20782020001207	0	700299	252
1369.83203125	2.20782020001207	health	choicePhaseStart	3	173	53	foodImage.82	FOODEEG_Images\0805.jpg	NY	Right	Yes	2.20782020001207	0	701355	253
1372.03125	0	health	response	3	173	53	foodImage.82	FOODEEG_Images\0805.jpg	NY	Right	Yes	2.20782020001207	0	702481	235
1373.07421875	1	decision	trialStart	3	174	54	foodImage.114	FOODEEG_Images\0922.jpg	YN	Left	Yes	1.19426740000199	0	703015	251
1374.119140625	2	decision	foodImageDisplay	3	174	54	foodImage.114	FOODEEG_Images\0922.jpg	YN	Left	Yes	1.19426740000199	0	703550	252
1376.181640625	1.19426740000199	decision	choicePhaseStart	3	174	54	foodImage.114	FOODEEG_Images\0922.jpg	YN	Left	Yes	1.19426740000199	0	704606	253
1377.3671875	0	decision	response	3	174	54	foodImage.114	FOODEEG_Images\0922.jpg	YN	Left	Yes	1.19426740000199	0	705213	234
1378.41015625	1	taste	trialStart	3	175	55	foodImage.74	FOODEEG_Images\0752.jpg	NY	Right	Yes	1.97437139999238	0	705747	251
1379.455078125	2	taste	foodImageDisplay	3	175	55	foodImage.74	FOODEEG_Images\0752.jpg	NY	Right	Yes	1.97437139999238	0	706282	252
1381.517578125	1.97437139999238	taste	choicePhaseStart	3	175	55	foodImage.74	FOODEEG_Images\0752.jpg	NY	Right	Yes	1.97437139999238	0	707338	253
1383.486328125	0	taste	response	3	175	55	foodImage.74	FOODEEG_Images\0752.jpg	NY	Right	Yes	1.97437139999238	0	708346	235
1384.525390625	1	decision	trialStart	3	176	56	foodImage.8	FOODEEG_Images\0136.jpg	YN	Left	Yes	1.58538039999257	0	708878	251
1385.56640625	2	decision	foodImageDisplay	3	176	56	foodImage.8	FOODEEG_Images\0136.jpg	YN	Left	Yes	1.58538039999257	0	709411	252
1387.630859375	1.58538039999257	decision	choicePhaseStart	3	176	56	foodImage.8	FOODEEG_Images\0136.jpg	YN	Left	Yes	1.58538039999257	0	710468	253
1389.20703125	0	decision	response	3	176	56	foodImage.8	FOODEEG_Images\0136.jpg	YN	Left	Yes	1.58538039999257	0	711275	234
1390.25	1	decision	trialStart	3	177	57	foodImage.89	FOODEEG_Images\0881.jpg	YN	Left	Yes	1.19315490000008	0	711809	251
1391.318359375	2	decision	foodImageDisplay	3	177	57	foodImage.89	FOODEEG_Images\0881.jpg	YN	Left	Yes	1.19315490000008	0	712356	252
1393.3828125	1.19315490000008	decision	choicePhaseStart	3	177	57	foodImage.89	FOODEEG_Images\0881.jpg	YN	Left	Yes	1.19315490000008	0	713413	253
1394.56640625	0	decision	response	3	177	57	foodImage.89	FOODEEG_Images\0881.jpg	YN	Left	Yes	1.19315490000008	0	714019	234
1395.611328125	1	decision	trialStart	3	178	58	foodImage.33	FOODEEG_Images\0329.jpg	YN	Left	Yes	1.35135060000175	0	714554	251
1396.65234375	2	decision	foodImageDisplay	3	178	58	foodImage.33	FOODEEG_Images\0329.jpg	YN	Left	Yes	1.35135060000175	0	715087	252
1398.720703125	1.35135060000175	decision	choicePhaseStart	3	178	58	foodImage.33	FOODEEG_Images\0329.jpg	YN	Left	Yes	1.35135060000175	0	716146	253
1400.0625	0	decision	response	3	178	58	foodImage.33	FOODEEG_Images\0329.jpg	YN	Left	Yes	1.35135060000175	0	716833	234
1401.10546875	1	health	trialStart	3	179	59	foodImage.43	FOODEEG_Images\0445.jpg	YN	Left	Yes	0.931583199999295	0	717367	251
1402.1875	2	health	foodImageDisplay	3	179	59	foodImage.43	FOODEEG_Images\0445.jpg	YN	Left	Yes	0.931583199999295	0	717921	252
1404.251953125	0.931583199999295	health	choicePhaseStart	3	179	59	foodImage.43	FOODEEG_Images\0445.jpg	YN	Left	Yes	0.931583199999295	0	718978	253
1405.173828125	0	health	response	3	179	59	foodImage.43	FOODEEG_Images\0445.jpg	YN	Left	Yes	0.931583199999295	0	719450	234
1406.21484375	1	decision	trialStart	3	180	60	foodImage.34	FOODEEG_Images\0339.jpg	NY	Right	Yes	1.37222160000238	0	719983	251
1407.298828125	2	decision	foodImageDisplay	3	180	60	foodImage.34	FOODEEG_Images\0339.jpg	NY	Right	Yes	1.37222160000238	0	720538	252
1409.36328125	1.37222160000238	decision	choicePhaseStart	3	180	60	foodImage.34	FOODEEG_Images\0339.jpg	NY	Right	Yes	1.37222160000238	0	721595	253
1410.724609375	0	decision	response	3	180	60	foodImage.34	FOODEEG_Images\0339.jpg	NY	Right	Yes	1.37222160000238	0	722292	235
1412.763671875	100.666015625	n/a	blockEnd	n/a	n/a	n/a	n/a	n/a	n/a	n/a	n/a	n/a	n/a	723336	254
1513.4296875	2	n/a	blockStart	4	n/a	n/a	n/a	n/a	n/a	n/a	n/a	n/a	n/a	774877	250
1515.462890625	1	decision	trialStart	4	181	1	foodImage.39	FOODEEG_Images\0367.jpg	NY	Right	Yes	1.95657140000549	0	775918	251
1516.501953125	2	decision	foodImageDisplay	4	181	1	foodImage.39	FOODEEG_Images\0367.jpg	NY	Right	Yes	1.95657140000549	0	776450	252
1518.56640625	1.95657140000549	decision	choicePhaseStart	4	181	1	foodImage.39	FOODEEG_Images\0367.jpg	NY	Right	Yes	1.95657140000549	0	777507	253
1520.513671875	0	decision	response	4	181	1	foodImage.39	FOODEEG_Images\0367.jpg	NY	Right	Yes	1.95657140000549	0	778504	235
1521.556640625	1	decision	trialStart	4	182	2	foodImage.120	FOODEEG_Images\0928.jpg	YN	Right	No	1.33552309998777	0	779038	251
1522.59375	2	decision	foodImageDisplay	4	182	2	foodImage.120	FOODEEG_Images\0928.jpg	YN	Right	No	1.33552309998777	0	779569	252
1524.658203125	1.33552309998777	decision	choicePhaseStart	4	182	2	foodImage.120	FOODEEG_Images\0928.jpg	YN	Right	No	1.33552309998777	0	780626	253
1525.984375	0	decision	response	4	182	2	foodImage.120	FOODEEG_Images\0928.jpg	YN	Right	No	1.33552309998777	0	781305	235
1527.02734375	1	taste	trialStart	4	183	3	foodImage.101	FOODEEG_Images\0909.jpg	YN	Right	No	0.978440499995486	0	781839	251
1528.06640625	2	taste	foodImageDisplay	4	183	3	foodImage.101	FOODEEG_Images\0909.jpg	YN	Right	No	0.978440499995486	0	782371	252
1530.134765625	0.978440499995486	taste	choicePhaseStart	4	183	3	foodImage.101	FOODEEG_Images\0909.jpg	YN	Right	No	0.978440499995486	0	783430	253
1531.103515625	0	taste	response	4	183	3	foodImage.101	FOODEEG_Images\0909.jpg	YN	Right	No	0.978440499995486	0	783926	235
1532.1484375	1	health	trialStart	4	184	4	foodImage.115	FOODEEG_Images\0923.jpg	NY	Right	Yes	1.34976260000258	0	784461	251
1533.189453125	2	health	foodImageDisplay	4	184	4	foodImage.115	FOODEEG_Images\0923.jpg	NY	Right	Yes	1.34976260000258	0	784994	252
1535.251953125	1.34976260000258	health	choicePhaseStart	4	184	4	foodImage.115	FOODEEG_Images\0923.jpg	NY	Right	Yes	1.34976260000258	0	786050	253
1536.591796875	0	health	response	4	184	4	foodImage.115	FOODEEG_Images\0923.jpg	NY	Right	Yes	1.34976260000258	0	786736	235
1537.63671875	1	taste	trialStart	4	185	5	foodImage.38	FOODEEG_Images\0365.jpg	YN	Left	Yes	1.54768549998698	0	787271	251
1538.69140625	2	taste	foodImageDisplay	4	185	5	foodImage.38	FOODEEG_Images\0365.jpg	YN	Left	Yes	1.54768549998698	0	787811	252
1540.755859375	1.54768549998698	taste	choicePhaseStart	4	185	5	foodImage.38	FOODEEG_Images\0365.jpg	YN	Left	Yes	1.54768549998698	0	788868	253
1542.296875	0	taste	response	4	185	5	foodImage.38	FOODEEG_Images\0365.jpg	YN	Left	Yes	1.54768549998698	0	789657	234
1543.33984375	1	taste	trialStart	4	186	6	foodImage.57	FOODEEG_Images\0587.jpg	NY	Right	Yes	1.44752779998817	0	790191	251
1544.3828125	2	taste	foodImageDisplay	4	186	6	foodImage.57	FOODEEG_Images\0587.jpg	NY	Right	Yes	1.44752779998817	0	790725	252
1546.447265625	1.44752779998817	taste	choicePhaseStart	4	186	6	foodImage.57	FOODEEG_Images\0587.jpg	NY	Right	Yes	1.44752779998817	0	791782	253
1547.888671875	0	taste	response	4	186	6	foodImage.57	FOODEEG_Images\0587.jpg	NY	Right	Yes	1.44752779998817	0	792520	235
1548.935546875	1	taste	trialStart	4	187	7	foodImage.3	FOODEEG_Images\0046.jpg	NY	Right	Yes	1.40389600000344	0	793056	251
1549.9765625	2	taste	foodImageDisplay	4	187	7	foodImage.3	FOODEEG_Images\0046.jpg	NY	Right	Yes	1.40389600000344	0	793589	252
1552.044921875	1.40389600000344	taste	choicePhaseStart	4	187	7	foodImage.3	FOODEEG_Images\0046.jpg	NY	Right	Yes	1.40389600000344	0	794648	253
1553.439453125	0	taste	response	4	187	7	foodImage.3	FOODEEG_Images\0046.jpg	NY	Right	Yes	1.40389600000344	0	795362	235
1554.482421875	1	decision	trialStart	4	188	8	foodImage.24	FOODEEG_Images\0250.jpg	NY	Right	Yes	1.85814599999867	0	795896	251
1555.5234375	2	decision	foodImageDisplay	4	188	8	foodImage.24	FOODEEG_Images\0250.jpg	NY	Right	Yes	1.85814599999867	0	796429	252
1557.587890625	1.85814599999867	decision	choicePhaseStart	4	188	8	foodImage.24	FOODEEG_Images\0250.jpg	NY	Right	Yes	1.85814599999867	0	797486	253
1559.439453125	0	decision	response	4	188	8	foodImage.24	FOODEEG_Images\0250.jpg	NY	Right	Yes	1.85814599999867	0	798434	235
1560.484375	1	decision	trialStart	4	189	9	foodImage.20	FOODEEG_Images\0226.jpg	NY	Right	Yes	1.50083489999815	0	798969	251
1561.53125	2	decision	foodImageDisplay	4	189	9	foodImage.20	FOODEEG_Images\0226.jpg	NY	Right	Yes	1.50083489999815	0	799505	252
1563.595703125	1.50083489999815	decision	choicePhaseStart	4	189	9	foodImage.20	FOODEEG_Images\0226.jpg	NY	Right	Yes	1.50083489999815	0	800562	253
1565.087890625	0	decision	response	4	189	9	foodImage.20	FOODEEG_Images\0226.jpg	NY	Right	Yes	1.50083489999815	0	801326	235
1566.130859375	1	decision	trialStart	4	190	10	foodImage.73	FOODEEG_Images\0717.jpg	NY	Right	Yes	0.882084199998644	0	801860	251
1567.189453125	2	decision	foodImageDisplay	4	190	10	foodImage.73	FOODEEG_Images\0717.jpg	NY	Right	Yes	0.882084199998644	0	802402	252
1569.25390625	0.882084199998644	decision	choicePhaseStart	4	190	10	foodImage.73	FOODEEG_Images\0717.jpg	NY	Right	Yes	0.882084199998644	0	803459	253
1570.126953125	0	decision	response	4	190	10	foodImage.73	FOODEEG_Images\0717.jpg	NY	Right	Yes	0.882084199998644	0	803906	235
1571.171875	1	taste	trialStart	4	191	11	foodImage.59	FOODEEG_Images\0607.jpg	YN	Left	Yes	1.11869789999037	0	804441	251
1572.21875	2	taste	foodImageDisplay	4	191	11	foodImage.59	FOODEEG_Images\0607.jpg	YN	Left	Yes	1.11869789999037	0	804977	252
1574.28125	1.11869789999037	taste	choicePhaseStart	4	191	11	foodImage.59	FOODEEG_Images\0607.jpg	YN	Left	Yes	1.11869789999037	0	806033	253
1575.390625	0	taste	response	4	191	11	foodImage.59	FOODEEG_Images\0607.jpg	YN	Left	Yes	1.11869789999037	0	806601	234
1576.439453125	1	health	trialStart	4	192	12	foodImage.2	FOODEEG_Images\0028.jpg	NY	Left	No	1.16076810000231	0	807138	251
1577.48828125	2	health	foodImageDisplay	4	192	12	foodImage.2	FOODEEG_Images\0028.jpg	NY	Left	No	1.16076810000231	0	807675	252
1579.55078125	1.16076810000231	health	choicePhaseStart	4	192	12	foodImage.2	FOODEEG_Images\0028.jpg	NY	Left	No	1.16076810000231	0	808731	253
1580.703125	0	health	response	4	192	12	foodImage.2	FOODEEG_Images\0028.jpg	NY	Left	No	1.16076810000231	0	809321	234
1581.74609375	1	taste	trialStart	4	193	13	foodImage.106	FOODEEG_Images\0914.jpg	NY	Right	Yes	0.669866700001876	0	809855	251
1582.787109375	2	taste	foodImageDisplay	4	193	13	foodImage.106	FOODEEG_Images\0914.jpg	NY	Right	Yes	0.669866700001876	0	810388	252
