onset	duration	trial_type	event_type	block	trial_total	trial_in_block	food_image_code	food_image_path	button_position	resp_position	resp_choice	choice_rt	resp_too_slow	sample	trigger
274.458984375	2	n/a	blockStart	1	n/a	n/a	n/a	n/a	n/a	n/a	n/a	n/a	n/a	140524	250
276.494140625	1	decision	trialStart	1	1	1	foodImage.57	FOODEEG_Images\0587.jpg	YN	Right	No	1.01227659988217	0	141566	251
277.537109375	2	decision	foodImageDisplay	1	1	1	foodImage.57	FOODEEG_Images\0587.jpg	YN	Right	No	1.01227659988217	0	142100	252
279.6015625	1.01227659988217	decision	choicePhaseStart	1	1	1	foodImage.57	FOODEEG_Images\0587.jpg	YN	Right	No	1.01227659988217	0	143157	253
280.60546875	0	decision	response	1	1	1	foodImage.57	FOODEEG_Images\0587.jpg	YN	Right	No	1.01227659988217	0	143671	235
281.69140625	1	taste	trialStart	1	2	2	foodImage.31	FOODEEG_Images\0294.jpg	NY	Right	Yes	0.799507800024003	0	144227	251
282.734375	2	taste	foodImageDisplay	1	2	2	foodImage.31	FOODEEG_Images\0294.jpg	NY	Right	Yes	0.799507800024003	0	144761	252
284.798828125	0.799507800024003	taste	choicePhaseStart	1	2	2	foodImage.31	FOODEEG_Images\0294.jpg	NY	Right	Yes	0.799507800024003	0	145818	253
285.587890625	0	taste	response	1	2	2	foodImage.31	FOODEEG_Images\0294.jpg	NY	Right	Yes	0.799507800024003	0	146222	235
286.640625	1	health	trialStart	1	3	3	foodImage.25	FOODEEG_Images\0261.jpg	YN	Left	Yes	0.825319499941543	0	146761	251
287.681640625	2	health	foodImageDisplay	1	3	3	foodImage.25	FOODEEG_Images\0261.jpg	YN	Left	Yes	0.825319499941543	0	147294	252
289.74609375	0.825319499941543	health	choicePhaseStart	1	3	3	foodImage.25	FOODEEG_Images\0261.jpg	YN	Left	Yes	0.825319499941543	0	148351	253
290.564453125	0	health	response	1	3	3	foodImage.25	FOODEEG_Images\0261.jpg	YN	Left	Yes	0.825319499941543	0	148770	234
291.60546875	1	taste	trialStart	1	4	4	foodImage.110	FOODEEG_Images\0918.jpg	NY	Left	No	0.840511900139973	0	149303	251
292.64453125	2	taste	foodImageDisplay	1	4	4	foodImage.110	FOODEEG_Images\0918.jpg	NY	Left	No	0.840511900139973	0	149835	252
294.70703125	0.840511900139973	taste	choicePhaseStart	1	4	4	foodImage.110	FOODEEG_Images\0918.jpg	NY	Left	No	0.840511900139973	0	150891	253
295.541015625	0	taste	response	1	4	4	foodImage.110	FOODEEG_Images\0918.jpg	NY	Left	No	0.840511900139973	0	151318	234
296.5859375	1	taste	trialStart	1	5	5	foodImage.46	FOODEEG_Images\0479.jpg	NY	Left	No	0.745599300134927	0	151853	251
297.64453125	2	taste	foodImageDisplay	1	5	5	foodImage.46	FOODEEG_Images\0479.jpg	NY	Left	No	0.745599300134927	0	152395	252
299.708984375	0.745599300134927	taste	choicePhaseStart	1	5	5	foodImage.46	FOODEEG_Images\0479.jpg	NY	Left	No	0.745599300134927	0	153452	253
300.4453125	0	taste	response	1	5	5	foodImage.46	FOODEEG_Images\0479.jpg	NY	Left	No	0.745599300134927	0	153829	234
301.498046875	1	health	trialStart	1	6	6	foodImage.73	FOODEEG_Images\0717.jpg	YN	Right	No	0.857125899987295	0	154368	251
302.556640625	2	health	foodImageDisplay	1	6	6	foodImage.73	FOODEEG_Images\0717.jpg	YN	Right	No	0.857125899987295	0	154910	252
304.62109375	0.857125899987295	health	choicePhaseStart	1	6	6	foodImage.73	FOODEEG_Images\0717.jpg	YN	Right	No	0.857125899987295	0	155967	253
305.46875	0	health	response	1	6	6	foodImage.73	FOODEEG_Images\0717.jpg	YN	Right	No	0.857125899987295	0	156401	235
306.51171875	1	health	trialStart	1	7	7	foodImage.106	FOODEEG_Images\0914.jpg	NY	Right	Yes	1.14165230002254	0	156935	251
307.568359375	2	health	foodImageDisplay	1	7	7	foodImage.106	FOODEEG_Images\0914.jpg	NY	Right	Yes	1.14165230002254	0	157476	252
309.630859375	1.14165230002254	health	choicePhaseStart	1	7	7	foodImage.106	FOODEEG_Images\0914.jpg	NY	Right	Yes	1.14165230002254	0	158532	253
310.763671875	0	health	response	1	7	7	foodImage.106	FOODEEG_Images\0914.jpg	NY	Right	Yes	1.14165230002254	0	159112	235
311.806640625	1	health	trialStart	1	8	8	foodImage.67	FOODEEG_Images\0679.jpg	NY	Right	Yes	0.641832400113344	0	159646	251
312.86328125	2	health	foodImageDisplay	1	8	8	foodImage.67	FOODEEG_Images\0679.jpg	NY	Right	Yes	0.641832400113344	0	160187	252
314.92578125	0.641832400113344	health	choicePhaseStart	1	8	8	foodImage.67	FOODEEG_Images\0679.jpg	NY	Right	Yes	0.641832400113344	0	161243	253
315.564453125	0	health	response	1	8	8	foodImage.67	FOODEEG_Images\0679.jpg	NY	Right	Yes	0.641832400113344	0	161570	235
316.607421875	1	decision	trialStart	1	9	9	foodImage.25	FOODEEG_Images\0261.jpg	YN	Left	Yes	0.862004599999636	0	162104	251
317.646484375	2	decision	foodImageDisplay	1	9	9	foodImage.25	FOODEEG_Images\0261.jpg	YN	Left	Yes	0.862004599999636	0	162636	252
319.708984375	0.862004599999636	decision	choicePhaseStart	1	9	9	foodImage.25	FOODEEG_Images\0261.jpg	YN	Left	Yes	0.862004599999636	0	163692	253
320.5625	0	decision	response	1	9	9	foodImage.25	FOODEEG_Images\0261.jpg	YN	Left	Yes	0.862004599999636	0	164129	234
321.607421875	1	decision	trialStart	1	10	10	foodImage.82	FOODEEG_Images\0805.jpg	NY	Left	No	0.967125599971041	0	164664	251
322.66015625	2	decision	foodImageDisplay	1	10	10	foodImage.82	FOODEEG_Images\0805.jpg	NY	Left	No	0.967125599971041	0	165203	252
324.724609375	0.967125599971041	decision	choicePhaseStart	1	10	10	foodImage.82	FOODEEG_Images\0805.jpg	NY	Left	No	0.967125599971041	0	166260	253
325.68359375	0	decision	response	1	10	10	foodImage.82	FOODEEG_Images\0805.jpg	NY	Left	No	0.967125599971041	0	166751	234
326.724609375	1	decision	trialStart	1	11	11	foodImage.27	FOODEEG_Images\0263.jpg	YN	Left	Yes	1.12610620004125	0	167284	251
327.765625	2	decision	foodImageDisplay	1	11	11	foodImage.27	FOODEEG_Images\0263.jpg	YN	Left	Yes	1.12610620004125	0	167817	252
329.828125	1.12610620004125	decision	choicePhaseStart	1	11	11	foodImage.27	FOODEEG_Images\0263.jpg	YN	Left	Yes	1.12610620004125	0	168873	253
330.947265625	0	decision	response	1	11	11	foodImage.27	FOODEEG_Images\0263.jpg	YN	Left	Yes	1.12610620004125	0	169446	234
331.98828125	1	health	trialStart	1	12	12	foodImage.63	FOODEEG_Images\0645.jpg	YN	Right	No	0.575567099964246	0	169979	251
333.02734375	2	health	foodImageDisplay	1	12	12	foodImage.63	FOODEEG_Images\0645.jpg	YN	Right	No	0.575567099964246	0	170511	252
335.091796875	0.575567099964246	health	choicePhaseStart	1	12	12	foodImage.63	FOODEEG_Images\0645.jpg	YN	Right	No	0.575567099964246	0	171568	253
335.658203125	0	health	response	1	12	12	foodImage.63	FOODEEG_Images\0645.jpg	YN	Right	No	0.575567099964246	0	171858	235
336.701171875	1	decision	trialStart	1	13	13	foodImage.111	FOODEEG_Images\0919.jpg	NY	Left	No	0.610731299966574	0	172392	251
337.73828125	2	decision	foodImageDisplay	1	13	13	foodImage.111	FOODEEG_Images\0919.jpg	NY	Left	No	0.610731299966574	0	172923	252
339.80078125	0.610731299966574	decision	choicePhaseStart	1	13	13	foodImage.111	FOODEEG_Images\0919.jpg	NY	Left	No	0.610731299966574	0	173979	253
340.40234375	0	decision	response	1	13	13	foodImage.111	FOODEEG_Images\0919.jpg	NY	Left	No	0.610731299966574	0	174287	234
341.451171875	1	health	trialStart	1	14	14	foodImage.91	FOODEEG_Images\0896.jpg	YN	Left	Yes	1.06284600007348	0	174824	251
342.509765625	2	health	foodImageDisplay	1	14	14	foodImage.91	FOODEEG_Images\0896.jpg	YN	Left	Yes	1.06284600007348	0	175366	252
344.572265625	1.06284600007348	health	choicePhaseStart	1	14	14	foodImage.91	FOODEEG_Images\0896.jpg	YN	Left	Yes	1.06284600007348	0	176422	253
345.626953125	0	health	response	1	14	14	foodImage.91	FOODEEG_Images\0896.jpg	YN	Left	Yes	1.06284600007348	0	176962	234
346.66796875	1	health	trialStart	1	15	15	foodImage.51	FOODEEG_Images\0536.jpg	YN	Right	No	0.955333200050518	0	177495	251
347.712890625	2	health	foodImageDisplay	1	15	15	foodImage.51	FOODEEG_Images\0536.jpg	YN	Right	No	0.955333200050518	0	178030	252
349.775390625	0.955333200050518	health	choicePhaseStart	1	15	15	foodImage.51	FOODEEG_Images\0536.jpg	YN	Right	No	0.955333200050518	0	179086	253
350.72265625	0	health	response	1	15	15	foodImage.51	FOODEEG_Images\0536.jpg	YN	Right	No	0.955333200050518	0	179571	235
351.763671875	1	health	trialStart	1	16	16	foodImage.75	FOODEEG_Images\0763.jpg	YN	Left	Yes	0.662706500152126	0	180104	251
352.806640625	2	health	foodImageDisplay	1	16	16	foodImage.75	FOODEEG_Images\0763.jpg	YN	Left	Yes	0.662706500152126	0	180638	252
354.869140625	0.662706500152126	health	choicePhaseStart	1	16	16	foodImage.75	FOODEEG_Images\0763.jpg	YN	Left	Yes	0.662706500152126	0	181694	253
355.521484375	0	health	response	1	16	16	foodImage.75	FOODEEG_Images\0763.jpg	YN	Left	Yes	0.662706500152126	0	182028	234
356.56640625	1	decision	trialStart	1	17	17	foodImage.116	FOODEEG_Images\0924.jpg	NY	Left	No	0.577639300143346	0	182563	251
357.603515625	2	decision	foodImageDisplay	1	17	17	foodImage.116	FOODEEG_Images\0924.jpg	NY	Left	No	0.577639300143346	0	183094	252
359.666015625	0.577639300143346	decision	choicePhaseStart	1	17	17	foodImage.116	FOODEEG_Images\0924.jpg	NY	Left	No	0.577639300143346	0	184150	253
360.234375	0	decision	response	1	17	17	foodImage.116	FOODEEG_Images\0924.jpg	NY	Left	No	0.577639300143346	0	184441	234
361.275390625	1	decision	trialStart	1	18	18	foodImage.88	FOODEEG_Images\0878.jpg	YN	Left	Yes	0.952048700070009	0	184974	251
362.330078125	2	decision	foodImageDisplay	1	18	18	foodImage.88	FOODEEG_Images\0878.jpg	YN	Left	Yes	0.952048700070009	0	185514	252
364.39453125	0.952048700070009	decision	choicePhaseStart	1	18	18	foodImage.88	FOODEEG_Images\0878.jpg	YN	Left	Yes	0.952048700070009	0	186571	253
365.337890625	0	decision	response	1	18	18	foodImage.88	FOODEEG_Images\0878.jpg	YN	Left	Yes	0.952048700070009	0	187054	234
366.380859375	1	taste	trialStart	1	19	19	foodImage.35	FOODEEG_Images\0350.jpg	YN	Left	Yes	0.696305500110611	0	187588	251
367.419921875	2	taste	foodImageDisplay	1	19	19	foodImage.35	FOODEEG_Images\0350.jpg	YN	Left	Yes	0.696305500110611	0	188120	252
369.482421875	0.696305500110611	taste	choicePhaseStart	1	19	19	foodImage.35	FOODEEG_Images\0350.jpg	YN	Left	Yes	0.696305500110611	0	189176	253
370.169921875	0	taste	response	1	19	19	foodImage.35	FOODEEG_Images\0350.jpg	YN	Left	Yes	0.696305500110611	0	189528	234
371.2109375	1	health	trialStart	1	20	20	foodImage.15	FOODEEG_Images\0189.jpg	YN	Right	No	2.08126530004665	0	190061	251
372.267578125	2	health	foodImageDisplay	1	20	20	foodImage.15	FOODEEG_Images\0189.jpg	YN	Right	No	2.08126530004665	0	190602	252
374.330078125	2.08126530004665	health	choicePhaseStart	1	20	20	foodImage.15	FOODEEG_Images\0189.jpg	YN	Right	No	2.08126530004665	0	191658	253
376.400390625	0	health	response	1	20	20	foodImage.15	FOODEEG_Images\0189.jpg	YN	Right	No	2.08126530004665	0	192718	235
377.44140625	1	decision	trialStart	1	21	21	foodImage.29	FOODEEG_Images\0278.jpg	YN	Right	No	0.691347799962386	0	193251	251
378.48046875	2	decision	foodImageDisplay	1	21	21	foodImage.29	FOODEEG_Images\0278.jpg	YN	Right	No	0.691347799962386	0	193783	252
380.54296875	0.691347799962386	decision	choicePhaseStart	1	21	21	foodImage.29	FOODEEG_Images\0278.jpg	YN	Right	No	0.691347799962386	0	194839	253
381.224609375	0	decision	response	1	21	21	foodImage.29	FOODEEG_Images\0278.jpg	YN	Right	No	0.691347799962386	0	195188	235
382.267578125	1	taste	trialStart	1	22	22	foodImage.88	FOODEEG_Images\0878.jpg	YN	Left	Yes	0.826284500071779	0	195722	251
383.3203125	2	taste	foodImageDisplay	1	22	22	foodImage.88	FOODEEG_Images\0878.jpg	YN	Left	Yes	0.826284500071779	0	196261	252
385.384765625	0.826284500071779	taste	choicePhaseStart	1	22	22	foodImage.88	FOODEEG_Images\0878.jpg	YN	Left	Yes	0.826284500071779	0	197318	253
386.201171875	0	taste	response	1	22	22	foodImage.88	FOODEEG_Images\0878.jpg	YN	Left	Yes	0.826284500071779	0	197736	234
387.244140625	1	health	trialStart	1	23	23	foodImage.84	FOODEEG_Images\0830.jpg	NY	Right	Yes	0.648811700055376	0	198270	251
388.298828125	2	health	foodImageDisplay	1	23	23	foodImage.84	FOODEEG_Images\0830.jpg	NY	Right	Yes	0.648811700055376	0	198810	252
390.361328125	0.648811700055376	health	choicePhaseStart	1	23	23	foodImage.84	FOODEEG_Images\0830.jpg	NY	Right	Yes	0.648811700055376	0	199866	253
391	0	health	response	1	23	23	foodImage.84	FOODEEG_Images\0830.jpg	NY	Right	Yes	0.648811700055376	0	200193	235
392.04296875	1	taste	trialStart	1	24	24	foodImage.13	FOODEEG_Images\0183.jpg	YN	Left	Yes	0.575743900146335	0	200727	251
393.0859375	2	taste	foodImageDisplay	1	24	24	foodImage.13	FOODEEG_Images\0183.jpg	YN	Left	Yes	0.575743900146335	0	201261	252
395.146484375	0.575743900146335	taste	choicePhaseStart	1	24	24	foodImage.13	FOODEEG_Images\0183.jpg	YN	Left	Yes	0.575743900146335	0	202316	253
395.712890625	0	taste	response	1	24	24	foodImage.13	FOODEEG_Images\0183.jpg	YN	Left	Yes	0.575743900146335	0	202606	234
396.751953125	1	taste	trialStart	1	25	25	foodImage.52	FOODEEG_Images\0539.jpg	NY	Right	Yes	0.622204100014642	0	203138	251
397.8046875	2	taste	foodImageDisplay	1	25	25	foodImage.52	FOODEEG_Images\0539.jpg	NY	Right	Yes	0.622204100014642	0	203677	252
399.8671875	0.622204100014642	taste	choicePhaseStart	1	25	25	foodImage.52	FOODEEG_Images\0539.jpg	NY	Right	Yes	0.622204100014642	0	204733	253
400.48046875	0	taste	response	1	25	25	foodImage.52	FOODEEG_Images\0539.jpg	NY	Right	Yes	0.622204100014642	0	205047	235
401.525390625	1	health	trialStart	1	26	26	foodImage.113	FOODEEG_Images\0921.jpg	NY	Right	Yes	0.917630199808627	0	205582	251
402.564453125	2	health	foodImageDisplay	1	26	26	foodImage.113	FOODEEG_Images\0921.jpg	NY	Right	Yes	0.917630199808627	0	206114	252
404.626953125	0.917630199808627	health	choicePhaseStart	1	26	26	foodImage.113	FOODEEG_Images\0921.jpg	NY	Right	Yes	0.917630199808627	0	207170	253
405.53515625	0	health	response	1	26	26	foodImage.113	FOODEEG_Images\0921.jpg	NY	Right	Yes	0.917630199808627	0	207635	235
406.580078125	1	taste	trialStart	1	27	27	foodImage.104	FOODEEG_Images\0912.jpg	YN	Right	No	1.77498159999959	0	208170	251
407.619140625	2	taste	foodImageDisplay	1	27	27	foodImage.104	FOODEEG_Images\0912.jpg	YN	Right	No	1.77498159999959	0	208702	252
409.681640625	1.77498159999959	taste	choicePhaseStart	1	27	27	foodImage.104	FOODEEG_Images\0912.jpg	YN	Right	No	1.77498159999959	0	209758	253
411.447265625	0	taste	response	1	27	27	foodImage.104	FOODEEG_Images\0912.jpg	YN	Right	No	1.77498159999959	0	210662	235
412.490234375	1	taste	trialStart	1	28	28	foodImage.69	FOODEEG_Images\0693.jpg	NY	Right	Yes	2.03962139994837	0	211196	251
413.53125	2	taste	foodImageDisplay	1	28	28	foodImage.69	FOODEEG_Images\0693.jpg	NY	Right	Yes	2.03962139994837	0	211729	252
415.59375	2.03962139994837	taste	choicePhaseStart	1	28	28	foodImage.69	FOODEEG_Images\0693.jpg	NY	Right	Yes	2.03962139994837	0	212785	253
417.623046875	0	taste	response	1	28	28	foodImage.69	FOODEEG_Images\0693.jpg	NY	Right	Yes	2.03962139994837	0	213824	235
418.6640625	1	taste	trialStart	1	29	29	foodImage.73	FOODEEG_Images\0717.jpg	YN	Left	Yes	0.897671600105241	0	214357	251
419.720703125	2	taste	foodImageDisplay	1	29	29	foodImage.73	FOODEEG_Images\0717.jpg	YN	Left	Yes	0.897671600105241	0	214898	252
421.783203125	0.897671600105241	taste	choicePhaseStart	1	29	29	foodImage.73	FOODEEG_Images\0717.jpg	YN	Left	Yes	0.897671600105241	0	215954	253
422.671875	0	taste	response	1	29	29	foodImage.73	FOODEEG_Images\0717.jpg	YN	Left	Yes	0.897671600105241	0	216409	234
423.712890625	1	health	trialStart	1	30	30	foodImage.14	FOODEEG_Images\0188.jpg	YN	Right	No	1.84144950006157	0	216942	251
424.76953125	2	health	foodImageDisplay	1	30	30	foodImage.14	FOODEEG_Images\0188.jpg	YN	Right	No	1.84144950006157	0	217483	252
426.83203125	1.84144950006157	health	choicePhaseStart	1	30	30	foodImage.14	FOODEEG_Images\0188.jpg	YN	Right	No	1.84144950006157	0	218539	253
428.662109375	0	health	response	1	30	30	foodImage.14	FOODEEG_Images\0188.jpg	YN	Right	No	1.84144950006157	0	219476	235
429.705078125	1	health	trialStart	1	31	31	foodImage.8	FOODEEG_Images\0136.jpg	NY	Left	No	0.95777350012213	0	220010	251
430.748046875	2	health	foodImageDisplay	1	31	31	foodImage.8	FOODEEG_Images\0136.jpg	NY	Left	No	0.95777350012213	0	220544	252
432.810546875	0.95777350012213	health	choicePhaseStart	1	31	31	foodImage.8	FOODEEG_Images\0136.jpg	NY	Left	No	0.95777350012213	0	221600	253
433.7578125	0	health	response	1	31	31	foodImage.8	FOODEEG_Images\0136.jpg	NY	Left	No	0.95777350012213	0	222085	234
434.8046875	1	taste	trialStart	1	32	32	foodImage.2	FOODEEG_Images\0028.jpg	YN	Left	Yes	0.908510900102556	0	222621	251
435.845703125	2	taste	foodImageDisplay	1	32	32	foodImage.2	FOODEEG_Images\0028.jpg	YN	Left	Yes	0.908510900102556	0	223154	252
437.908203125	0.908510900102556	taste	choicePhaseStart	1	32	32	foodImage.2	FOODEEG_Images\0028.jpg	YN	Left	Yes	0.908510900102556	0	224210	253
438.806640625	0	taste	response	1	32	32	foodImage.2	FOODEEG_Images\0028.jpg	YN	Left	Yes	0.908510900102556	0	224670	234
439.849609375	1	health	trialStart	1	33	33	foodImage.98	FOODEEG_Images\0906.jpg	YN	Right	No	0.826050699921325	0	225204	251
440.88671875	2	health	foodImageDisplay	1	33	33	foodImage.98	FOODEEG_Images\0906.jpg	YN	Right	No	0.826050699921325	0	225735	252
442.94921875	0.826050699921325	health	choicePhaseStart	1	33	33	foodImage.98	FOODEEG_Images\0906.jpg	YN	Right	No	0.826050699921325	0	226791	253
443.765625	0	health	response	1	33	33	foodImage.98	FOODEEG_Images\0906.jpg	YN	Right	No	0.826050699921325	0	227209	235
444.80859375	1	taste	trialStart	1	34	34	foodImage.105	FOODEEG_Images\0913.jpg	YN	Right	No	0.866771500092	0	227743	251
445.845703125	2	taste	foodImageDisplay	1	34	34	foodImage.105	FOODEEG_Images\0913.jpg	YN	Right	No	0.866771500092	0	228274	252
447.908203125	0.866771500092	taste	choicePhaseStart	1	34	34	foodImage.105	FOODEEG_Images\0913.jpg	YN	Right	No	0.866771500092	0	229330	253
448.765625	0	taste	response	1	34	34	foodImage.105	FOODEEG_Images\0913.jpg	YN	Right	No	0.866771500092	0	229769	235
449.80859375	1	health	trialStart	1	35	35	foodImage.26	FOODEEG_Images\0262.jpg	NY	Right	Yes	0.886283099884167	0	230303	251
450.8515625	2	health	foodImageDisplay	1	35	35	foodImage.26	FOODEEG_Images\0262.jpg	NY	Right	Yes	0.886283099884167	0	230837	252
452.912109375	0.886283099884167	health	choicePhaseStart	1	35	35	foodImage.26	FOODEEG_Images\0262.jpg	NY	Right	Yes	0.886283099884167	0	231892	253
453.791015625	0	health	response	1	35	35	foodImage.26	FOODEEG_Images\0262.jpg	NY	Right	Yes	0.886283099884167	0	232342	235
454.83203125	1	decision	trialStart	1	36	36	foodImage.35	FOODEEG_Images\0350.jpg	NY	Right	Yes	0.720956799807027	0	232875	251
455.87109375	2	decision	foodImageDisplay	1	36	36	foodImage.35	FOODEEG_Images\0350.jpg	NY	Right	Yes	0.720956799807027	0	233407	252
457.93359375	0.720956799807027	decision	choicePhaseStart	1	36	36	foodImage.35	FOODEEG_Images\0350.jpg	NY	Right	Yes	0.720956799807027	0	234463	253
458.646484375	0	decision	response	1	36	36	foodImage.35	FOODEEG_Images\0350.jpg	NY	Right	Yes	0.720956799807027	0	234828	235
459.689453125	1	taste	trialStart	1	37	37	foodImage.83	FOODEEG_Images\0827.jpg	NY	Right	Yes	1.16795250005089	0	235362	251
460.744140625	2	taste	foodImageDisplay	1	37	37	foodImage.83	FOODEEG_Images\0827.jpg	NY	Right	Yes	1.16795250005089	0	235902	252
462.806640625	1.16795250005089	taste	choicePhaseStart	1	37	37	foodImage.83	FOODEEG_Images\0827.jpg	NY	Right	Yes	1.16795250005089	0	236958	253
463.966796875	0	taste	response	1	37	37	foodImage.83	FOODEEG_Images\0827.jpg	NY	Right	Yes	1.16795250005089	0	237552	235
465.0078125	1	health	trialStart	1	38	38	foodImage.99	FOODEEG_Images\0907.jpg	YN	Right	No	0.842780200066045	0	238085	251
466.044921875	2	health	foodImageDisplay	1	38	38	foodImage.99	FOODEEG_Images\0907.jpg	YN	Right	No	0.842780200066045	0	238616	252
468.107421875	0.842780200066045	health	choicePhaseStart	1	38	38	foodImage.99	FOODEEG_Images\0907.jpg	YN	Right	No	0.842780200066045	0	239672	253
468.94140625	0	health	response	1	38	38	foodImage.99	FOODEEG_Images\0907.jpg	YN	Right	No	0.842780200066045	0	240099	235
469.984375	1	decision	trialStart	1	39	39	foodImage.112	FOODEEG_Images\0920.jpg	NY	Left	No	0.894905500113964	0	240633	251
471.025390625	2	decision	foodImageDisplay	1	39	39	foodImage.112	FOODEEG_Images\0920.jpg	NY	Left	No	0.894905500113964	0	241166	252
473.087890625	0.894905500113964	decision	choicePhaseStart	1	39	39	foodImage.112	FOODEEG_Images\0920.jpg	NY	Left	No	0.894905500113964	0	242222	253
473.97265625	0	decision	response	1	39	39	foodImage.112	FOODEEG_Images\0920.jpg	NY	Left	No	0.894905500113964	0	242675	234
475.015625	1	taste	trialStart	1	40	40	foodImage.58	FOODEEG_Images\0605.jpg	YN	Left	Yes	1.75209409999661	0	243209	251
476.072265625	2	taste	foodImageDisplay	1	40	40	foodImage.58	FOODEEG_Images\0605.jpg	YN	Left	Yes	1.75209409999661	0	243750	252
478.134765625	1.75209409999661	taste	choicePhaseStart	1	40	40	foodImage.58	FOODEEG_Images\0605.jpg	YN	Left	Yes	1.75209409999661	0	244806	253
479.876953125	0	taste	response	1	40	40	foodImage.58	FOODEEG_Images\0605.jpg	YN	Left	Yes	1.75209409999661	0	245698	234
480.91796875	1	taste	trialStart	1	41	41	foodImage.20	FOODEEG_Images\0226.jpg	NY	Right	Yes	1.14512420003302	0	246231	251
481.958984375	2	taste	foodImageDisplay	1	41	41	foodImage.20	FOODEEG_Images\0226.jpg	NY	Right	Yes	1.14512420003302	0	246764	252
484.021484375	1.14512420003302	taste	choicePhaseStart	1	41	41	foodImage.20	FOODEEG_Images\0226.jpg	NY	Right	Yes	1.14512420003302	0	247820	253
485.15625	0	taste	response	1	41	41	foodImage.20	FOODEEG_Images\0226.jpg	NY	Right	Yes	1.14512420003302	0	248401	235
486.220703125	1	decision	trialStart	1	42	42	foodImage.67	FOODEEG_Images\0679.jpg	YN	Left	Yes	1.8880710999947	0	248946	251
487.279296875	2	decision	foodImageDisplay	1	42	42	foodImage.67	FOODEEG_Images\0679.jpg	YN	Left	Yes	1.8880710999947	0	249488	252
489.341796875	1.8880710999947	decision	choicePhaseStart	1	42	42	foodImage.67	FOODEEG_Images\0679.jpg	YN	Left	Yes	1.8880710999947	0	250544	253
491.220703125	0	decision	response	1	42	42	foodImage.67	FOODEEG_Images\0679.jpg	YN	Left	Yes	1.8880710999947	0	251506	234
492.26171875	1	health	trialStart	1	43	43	foodImage.66	FOODEEG_Images\0676.jpg	YN	Right	No	0.767504399875179	0	252039	251
493.302734375	2	health	foodImageDisplay	1	43	43	foodImage.66	FOODEEG_Images\0676.jpg	YN	Right	No	0.767504399875179	0	252572	252
495.365234375	0.767504399875179	health	choicePhaseStart	1	43	43	foodImage.66	FOODEEG_Images\0676.jpg	YN	Right	No	0.767504399875179	0	253628	253
496.125	0	health	response	1	43	43	foodImage.66	FOODEEG_Images\0676.jpg	YN	Right	No	0.767504399875179	0	254017	235
497.16796875	1	taste	trialStart	1	44	44	foodImage.12	FOODEEG_Images\0181.jpg	YN	Right	No	1.006018999964	0	254551	251
498.208984375	2	taste	foodImageDisplay	1	44	44	foodImage.12	FOODEEG_Images\0181.jpg	YN	Right	No	1.006018999964	0	255084	252
500.271484375	1.006018999964	taste	choicePhaseStart	1	44	44	foodImage.12	FOODEEG_Images\0181.jpg	YN	Right	No	1.006018999964	0	256140	253
501.267578125	0	taste	response	1	44	44	foodImage.12	FOODEEG_Images\0181.jpg	YN	Right	No	1.006018999964	0	256650	235
502.3125	1	decision	trialStart	1	45	45	foodImage.63	FOODEEG_Images\0645.jpg	YN	Left	Yes	0.96929550007917	0	257185	251
503.37109375	2	decision	foodImageDisplay	1	45	45	foodImage.63	FOODEEG_Images\0645.jpg	YN	Left	Yes	0.96929550007917	0	257727	252
505.443359375	0.96929550007917	decision	choicePhaseStart	1	45	45	foodImage.63	FOODEEG_Images\0645.jpg	YN	Left	Yes	0.96929550007917	0	258788	253
506.404296875	0	decision	response	1	45	45	foodImage.63	FOODEEG_Images\0645.jpg	YN	Left	Yes	0.96929550007917	0	259280	234
507.447265625	1	health	trialStart	1	46	46	foodImage.5	FOODEEG_Images\0107.jpg	NY	Left	No	1.11832420015708	0	259814	251
508.50390625	2	health	foodImageDisplay	1	46	46	foodImage.5	FOODEEG_Images\0107.jpg	NY	Left	No	1.11832420015708	0	260355	252
510.56640625	1.11832420015708	health	choicePhaseStart	1	46	46	foodImage.5	FOODEEG_Images\0107.jpg	NY	Left	No	1.11832420015708	0	261411	253
511.67578125	0	health	response	1	46	46	foodImage.5	FOODEEG_Images\0107.jpg	NY	Left	No	1.11832420015708	0	261979	234
512.71875	1	taste	trialStart	1	47	47	foodImage.17	FOODEEG_Images\0199.jpg	YN	Left	Yes	0.87109940010123	0	262513	251
513.7578125	2	taste	foodImageDisplay	1	47	47	foodImage.17	FOODEEG_Images\0199.jpg	YN	Left	Yes	0.87109940010123	0	263045	252
515.8203125	0.87109940010123	taste	choicePhaseStart	1	47	47	foodImage.17	FOODEEG_Images\0199.jpg	YN	Left	Yes	0.87109940010123	0	264101	253
516.68359375	0	taste	response	1	47	47	foodImage.17	FOODEEG_Images\0199.jpg	YN	Left	Yes	0.87109940010123	0	264543	234
517.7265625	1	decision	trialStart	1	48	48	foodImage.106	FOODEEG_Images\0914.jpg	YN	Right	No	0.53701200010255	0	265077	251
518.763671875	2	decision	foodImageDisplay	1	48	48	foodImage.106	FOODEEG_Images\0914.jpg	YN	Right	No	0.53701200010255	0	265608	252
520.826171875	0.53701200010255	decision	choicePhaseStart	1	48	48	foodImage.106	FOODEEG_Images\0914.jpg	YN	Right	No	0.53701200010255	0	266664	253
521.35546875	0	decision	response	1	48	48	foodImage.106	FOODEEG_Images\0914.jpg	YN	Right	No	0.53701200010255	0	266935	235
522.396484375	1	taste	trialStart	1	49	49	foodImage.72	FOODEEG_Images\0714.jpg	YN	Left	Yes	1.35925289988518	0	267468	251
523.4375	2	taste	foodImageDisplay	1	49	49	foodImage.72	FOODEEG_Images\0714.jpg	YN	Left	Yes	1.35925289988518	0	268001	252
525.5	1.35925289988518	taste	choicePhaseStart	1	49	49	foodImage.72	FOODEEG_Images\0714.jpg	YN	Left	Yes	1.35925289988518	0	269057	253
526.8515625	0	taste	response	1	49	49	foodImage.72	FOODEEG_Images\0714.jpg	YN	Left	Yes	1.35925289988518	0	269749	234
527.892578125	1	health	trialStart	1	50	50	foodImage.97	FOODEEG_Images\0905.jpg	NY	Left	No	2.36828180006705	0	270282	251
528.943359375	2	health	foodImageDisplay	1	50	50	foodImage.97	FOODEEG_Images\0905.jpg	NY	Left	No	2.36828180006705	0	270820	252
531.00390625	2.36828180006705	health	choicePhaseStart	1	50	50	foodImage.97	FOODEEG_Images\0905.jpg	NY	Left	No	2.36828180006705	0	271875	253
533.36328125	0	health	response	1	50	50	foodImage.97	FOODEEG_Images\0905.jpg	NY	Left	No	2.36828180006705	0	273083	234
534.40625	1	health	trialStart	1	51	51	foodImage.104	FOODEEG_Images\0912.jpg	NY	Left	No	0.928292700089514	0	273617	251
535.458984375	2	health	foodImageDisplay	1	51	51	foodImage.104	FOODEEG_Images\0912.jpg	NY	Left	No	0.928292700089514	0	274156	252
537.521484375	0.928292700089514	health	choicePhaseStart	1	51	51	foodImage.104	FOODEEG_Images\0912.jpg	NY	Left	No	0.928292700089514	0	275212	253
538.443359375	0	health	response	1	51	51	foodImage.104	FOODEEG_Images\0912.jpg	NY	Left	No	0.928292700089514	0	275684	234
539.484375	1	taste	trialStart	1	52	52	foodImage.34	FOODEEG_Images\0339.jpg	NY	Left	No	0.568255600053817	0	276217	251
540.54296875	2	taste	foodImageDisplay	1	52	52	foodImage.34	FOODEEG_Images\0339.jpg	NY	Left	No	0.568255600053817	0	276759	252
542.603515625	0.568255600053817	taste	choicePhaseStart	1	52	52	foodImage.34	FOODEEG_Images\0339.jpg	NY	Left	No	0.568255600053817	0	277814	253
543.162109375	0	taste	response	1	52	52	foodImage.34	FOODEEG_Images\0339.jpg	NY	Left	No	0.568255600053817	0	278100	234
544.205078125	1	decision	trialStart	1	53	53	foodImage.77	FOODEEG_Images\0771.jpg	YN	Left	Yes	0.978826600126922	0	278634	251
545.25	2	decision	foodImageDisplay	1	53	53	foodImage.77	FOODEEG_Images\0771.jpg	YN	Left	Yes	0.978826600126922	0	279169	252
547.3125	0.978826600126922	decision	choicePhaseStart	1	53	53	foodImage.77	FOODEEG_Images\0771.jpg	YN	Left	Yes	0.978826600126922	0	280225	253
548.283203125	0	decision	response	1	53	53	foodImage.77	FOODEEG_Images\0771.jpg	YN	Left	Yes	0.978826600126922	0	280722	234
549.322265625	1	health	trialStart	1	54	54	foodImage.82	FOODEEG_Images\0805.jpg	NY	Left	No	1.00193340005353	0	281254	251
550.40234375	2	health	foodImageDisplay	1	54	54	foodImage.82	FOODEEG_Images\0805.jpg	NY	Left	No	1.00193340005353	0	281807	252
552.466796875	1.00193340005353	health	choicePhaseStart	1	54	54	foodImage.82	FOODEEG_Images\0805.jpg	NY	Left	No	1.00193340005353	0	282864	253
553.458984375	0	health	response	1	54	54	foodImage.82	FOODEEG_Images\0805.jpg	NY	Left	No	1.00193340005353	0	283372	234
554.5	1	decision	trialStart	1	55	55	foodImage.101	FOODEEG_Images\0909.jpg	YN	Right	No	0.776913400040939	0	283905	251
555.5390625	2	decision	foodImageDisplay	1	55	55	foodImage.101	FOODEEG_Images\0909.jpg	YN	Right	No	0.776913400040939	0	284437	252
557.6015625	0.776913400040939	decision	choicePhaseStart	1	55	55	foodImage.101	FOODEEG_Images\0909.jpg	YN	Right	No	0.776913400040939	0	285493	253
558.369140625	0	decision	response	1	55	55	foodImage.101	FOODEEG_Images\0909.jpg	YN	Right	No	0.776913400040939	0	285886	235
559.41796875	1	taste	trialStart	1	56	56	foodImage.48	FOODEEG_Images\0494.jpg	YN	Left	Yes	0.778501400025561	0	286423	251
560.458984375	2	taste	foodImageDisplay	1	56	56	foodImage.48	FOODEEG_Images\0494.jpg	YN	Left	Yes	0.778501400025561	0	286956	252
562.521484375	0.778501400025561	taste	choicePhaseStart	1	56	56	foodImage.48	FOODEEG_Images\0494.jpg	YN	Left	Yes	0.778501400025561	0	288012	253
563.2890625	0	taste	response	1	56	56	foodImage.48	FOODEEG_Images\0494.jpg	YN	Left	Yes	0.778501400025561	0	288405	234
564.33203125	1	taste	trialStart	1	57	57	foodImage.96	FOODEEG_Images\0904.jpg	YN	Right	No	1.60031939996406	0	288939	251
565.37109375	2	taste	foodImageDisplay	1	57	57	foodImage.96	FOODEEG_Images\0904.jpg	YN	Right	No	1.60031939996406	0	289471	252
567.43359375	1.60031939996406	taste	choicePhaseStart	1	57	57	foodImage.96	FOODEEG_Images\0904.jpg	YN	Right	No	1.60031939996406	0	290527	253
569.025390625	0	taste	response	1	57	57	foodImage.96	FOODEEG_Images\0904.jpg	YN	Right	No	1.60031939996406	0	291342	235
570.068359375	1	health	trialStart	1	58	58	foodImage.44	FOODEEG_Images\0459.jpg	YN	Left	Yes	1.2137419001665	0	291876	251
571.115234375	2	health	foodImageDisplay	1	58	58	foodImage.44	FOODEEG_Images\0459.jpg	YN	Left	Yes	1.2137419001665	0	292412	252
573.1796875	1.2137419001665	health	choicePhaseStart	1	58	58	foodImage.44	FOODEEG_Images\0459.jpg	YN	Left	Yes	1.2137419001665	0	293469	253
574.384765625	0	health	response	1	58	58	foodImage.44	FOODEEG_Images\0459.jpg	YN	Left	Yes	1.2137419001665	0	294086	234
575.427734375	1	taste	trialStart	1	59	59	foodImage.90	FOODEEG_Images\0890.jpg	NY	Right	Yes	2.02081950008869	0	294620	251
576.484375	2	taste	foodImageDisplay	1	59	59	foodImage.90	FOODEEG_Images\0890.jpg	NY	Right	Yes	2.02081950008869	0	295161	252
578.548828125	2.02081950008869	taste	choicePhaseStart	1	59	59	foodImage.90	FOODEEG_Images\0890.jpg	NY	Right	Yes	2.02081950008869	0	296218	253
580.560546875	0	taste	response	1	59	59	foodImage.90	FOODEEG_Images\0890.jpg	NY	Right	Yes	2.02081950008869	0	297248	235
581.603515625	1	taste	trialStart	1	60	60	foodImage.109	FOODEEG_Images\0917.jpg	NY	Left	No	0.520181600004435	0	297782	251
582.642578125	2	taste	foodImageDisplay	1	60	60	foodImage.109	FOODEEG_Images\0917.jpg	NY	Left	No	0.520181600004435	0	298314	252
584.705078125	0.520181600004435	taste	choicePhaseStart	1	60	60	foodImage.109	FOODEEG_Images\0917.jpg	NY	Left	No	0.520181600004435	0	299370	253
585.216796875	0	taste	response	1	60	60	foodImage.109	FOODEEG_Images\0917.jpg	NY	Left	No	0.520181600004435	0	299632	234
587.2578125	25.4609375	n/a	blockEnd	n/a	n/a	n/a	n/a	n/a	n/a	n/a	n/a	n/a	n/a	300677	254
612.71875	2	n/a	blockStart	2	n/a	n/a	n/a	n/a	n/a	n/a	n/a	n/a	n/a	313713	250
614.75390625	1	health	trialStart	2	61	1	foodImage.65	FOODEEG_Images\0658.jpg	NY	Left	No	0.789264000020921	0	314755	251
615.794921875	2	health	foodImageDisplay	2	61	1	foodImage.65	FOODEEG_Images\0658.jpg	NY	Left	No	0.789264000020921	0	315288	252
617.857421875	0.789264000020921	health	choicePhaseStart	2	61	1	foodImage.65	FOODEEG_Images\0658.jpg	NY	Left	No	0.789264000020921	0	316344	253
618.640625	0	health	response	2	61	1	foodImage.65	FOODEEG_Images\0658.jpg	NY	Left	No	0.789264000020921	0	316745	234
619.68359375	1	health	trialStart	2	62	2	foodImage.83	FOODEEG_Images\0827.jpg	YN	Left	Yes	0.631458700168878	0	317279	251
620.73828125	2	health	foodImageDisplay	2	62	2	foodImage.83	FOODEEG_Images\0827.jpg	YN	Left	Yes	0.631458700168878	0	317819	252
622.80078125	0.631458700168878	health	choicePhaseStart	2	62	2	foodImage.83	FOODEEG_Images\0827.jpg	YN	Left	Yes	0.631458700168878	0	318875	253
623.423828125	0	health	response	2	62	2	foodImage.83	FOODEEG_Images\0827.jpg	YN	Left	Yes	0.631458700168878	0	319194	234
624.47265625	1	decision	trialStart	2	63	3	foodImage.109	FOODEEG_Images\0917.jpg	YN	Right	No	0.541837499942631	0	319731	251
625.509765625	2	decision	foodImageDisplay	2	63	3	foodImage.109	FOODEEG_Images\0917.jpg	YN	Right	No	0.541837499942631	0	320262	252
627.572265625	0.541837499942631	decision	choicePhaseStart	2	63	3	foodImage.109	FOODEEG_Images\0917.jpg	YN	Right	No	0.541837499942631	0	321318	253
628.103515625	0	decision	response	2	63	3	foodImage.109	FOODEEG_Images\0917.jpg	YN	Right	No	0.541837499942631	0	321590	235
629.146484375	1	health	trialStart	2	64	4	foodImage.102	FOODEEG_Images\0910.jpg	NY	Left	No	0.776934999972582	0	322124	251
630.185546875	2	health	foodImageDisplay	2	64	4	foodImage.102	FOODEEG_Images\0910.jpg	NY	Left	No	0.776934999972582	0	322656	252
632.248046875	0.776934999972582	health	choicePhaseStart	2	64	4	foodImage.102	FOODEEG_Images\0910.jpg	NY	Left	No	0.776934999972582	0	323712	253
633.015625	0	health	response	2	64	4	foodImage.102	FOODEEG_Images\0910.jpg	NY	Left	No	0.776934999972582	0	324105	234
634.05859375	1	taste	trialStart	2	65	5	foodImage.44	FOODEEG_Images\0459.jpg	NY	Right	Yes	1.06665989989415	0	324639	251
635.107421875	2	taste	foodImageDisplay	2	65	5	foodImage.44	FOODEEG_Images\0459.jpg	NY	Right	Yes	1.06665989989415	0	325176	252
637.171875	1.06665989989415	taste	choicePhaseStart	2	65	5	foodImage.44	FOODEEG_Images\0459.jpg	NY	Right	Yes	1.06665989989415	0	326233	253
638.23046875	0	taste	response	2	65	5	foodImage.44	FOODEEG_Images\0459.jpg	NY	Right	Yes	1.06665989989415	0	326775	235
639.2734375	1	decision	trialStart	2	66	6	foodImage.9	FOODEEG_Images\0138.jpg	YN	Right	No	0.543499999912456	0	327309	251
640.33203125	2	decision	foodImageDisplay	2	66	6	foodImage.9	FOODEEG_Images\0138.jpg	YN	Right	No	0.543499999912456	0	327851	252
642.39453125	0.543499999912456	decision	choicePhaseStart	2	66	6	foodImage.9	FOODEEG_Images\0138.jpg	YN	Right	No	0.543499999912456	0	328907	253
642.927734375	0	decision	response	2	66	6	foodImage.9	FOODEEG_Images\0138.jpg	YN	Right	No	0.543499999912456	0	329180	235
643.96875	1	health	trialStart	2	67	7	foodImage.20	FOODEEG_Images\0226.jpg	NY	Right	Yes	0.670692499959841	0	329713	251
645.01171875	2	health	foodImageDisplay	2	67	7	foodImage.20	FOODEEG_Images\0226.jpg	NY	Right	Yes	0.670692499959841	0	330247	252
647.07421875	0.670692499959841	health	choicePhaseStart	2	67	7	foodImage.20	FOODEEG_Images\0226.jpg	NY	Right	Yes	0.670692499959841	0	331303	253
647.734375	0	health	response	2	67	7	foodImage.20	FOODEEG_Images\0226.jpg	NY	Right	Yes	0.670692499959841	0	331641	235
648.77734375	1	taste	trialStart	2	68	8	foodImage.93	FOODEEG_Images\0901.jpg	YN	Right	No	0.889675799990073	0	332175	251
649.81640625	2	taste	foodImageDisplay	2	68	8	foodImage.93	FOODEEG_Images\0901.jpg	YN	Right	No	0.889675799990073	0	332707	252
651.876953125	0.889675799990073	taste	choicePhaseStart	2	68	8	foodImage.93	FOODEEG_Images\0901.jpg	YN	Right	No	0.889675799990073	0	333762	253
652.7578125	0	taste	response	2	68	8	foodImage.93	FOODEEG_Images\0901.jpg	YN	Right	No	0.889675799990073	0	334213	235
653.802734375	1	taste	trialStart	2	69	9	foodImage.92	FOODEEG_Images\0900.jpg	NY	Left	No	0.641842600191012	0	334748	251
654.83984375	2	taste	foodImageDisplay	2	69	9	foodImage.92	FOODEEG_Images\0900.jpg	NY	Left	No	0.641842600191012	0	335279	252
656.90234375	0.641842600191012	taste	choicePhaseStart	2	69	9	foodImage.92	FOODEEG_Images\0900.jpg	NY	Left	No	0.641842600191012	0	336335	253
657.533203125	0	taste	response	2	69	9	foodImage.92	FOODEEG_Images\0900.jpg	NY	Left	No	0.641842600191012	0	336658	234
658.578125	1	taste	trialStart	2	70	10	foodImage.14	FOODEEG_Images\0188.jpg	YN	Left	Yes	0.739322200184688	0	337193	251
659.634765625	2	taste	foodImageDisplay	2	70	10	foodImage.14	FOODEEG_Images\0188.jpg	YN	Left	Yes	0.739322200184688	0	337734	252
661.69921875	0.739322200184688	taste	choicePhaseStart	2	70	10	foodImage.14	FOODEEG_Images\0188.jpg	YN	Left	Yes	0.739322200184688	0	338791	253
662.4296875	0	taste	response	2	70	10	foodImage.14	FOODEEG_Images\0188.jpg	YN	Left	Yes	0.739322200184688	0	339165	234
663.47265625	1	health	trialStart	2	71	11	foodImage.11	FOODEEG_Images\0180.jpg	YN	Left	Yes	0.640862600179389	0	339699	251
664.51171875	2	health	foodImageDisplay	2	71	11	foodImage.11	FOODEEG_Images\0180.jpg	YN	Left	Yes	0.640862600179389	0	340231	252
666.57421875	0.640862600179389	health	choicePhaseStart	2	71	11	foodImage.11	FOODEEG_Images\0180.jpg	YN	Left	Yes	0.640862600179389	0	341287	253
667.205078125	0	health	response	2	71	11	foodImage.11	FOODEEG_Images\0180.jpg	YN	Left	Yes	0.640862600179389	0	341610	234
668.248046875	1	taste	trialStart	2	72	12	foodImage.76	FOODEEG_Images\0766.jpg	NY	Right	Yes	0.437089800136164	0	342144	251
669.291015625	2	taste	foodImageDisplay	2	72	12	foodImage.76	FOODEEG_Images\0766.jpg	NY	Right	Yes	0.437089800136164	0	342678	252
671.353515625	0.437089800136164	taste	choicePhaseStart	2	72	12	foodImage.76	FOODEEG_Images\0766.jpg	NY	Right	Yes	0.437089800136164	0	343734	253
671.78125	0	taste	response	2	72	12	foodImage.76	FOODEEG_Images\0766.jpg	NY	Right	Yes	0.437089800136164	0	343953	235
672.82421875	1	decision	trialStart	2	73	13	foodImage.69	FOODEEG_Images\0693.jpg	NY	Right	Yes	0.767535000108182	0	344487	251
673.865234375	2	decision	foodImageDisplay	2	73	13	foodImage.69	FOODEEG_Images\0693.jpg	NY	Right	Yes	0.767535000108182	0	345020	252
675.92578125	0.767535000108182	decision	choicePhaseStart	2	73	13	foodImage.69	FOODEEG_Images\0693.jpg	NY	Right	Yes	0.767535000108182	0	346075	253
676.685546875	0	decision	response	2	73	13	foodImage.69	FOODEEG_Images\0693.jpg	NY	Right	Yes	0.767535000108182	0	346464	235
677.73046875	1	taste	trialStart	2	74	14	foodImage.40	FOODEEG_Images\0373.jpg	NY	Right	Yes	0.569762400118634	0	346999	251
678.771484375	2	taste	foodImageDisplay	2	74	14	foodImage.40	FOODEEG_Images\0373.jpg	NY	Right	Yes	0.569762400118634	0	347532	252
680.833984375	0.569762400118634	taste	choicePhaseStart	2	74	14	foodImage.40	FOODEEG_Images\0373.jpg	NY	Right	Yes	0.569762400118634	0	348588	253
681.396484375	0	taste	response	2	74	14	foodImage.40	FOODEEG_Images\0373.jpg	NY	Right	Yes	0.569762400118634	0	348876	235
682.439453125	1	health	trialStart	2	75	15	foodImage.77	FOODEEG_Images\0771.jpg	YN	Left	Yes	0.633396799908951	0	349410	251
683.482421875	2	health	foodImageDisplay	2	75	15	foodImage.77	FOODEEG_Images\0771.jpg	YN	Left	Yes	0.633396799908951	0	349944	252
685.548828125	0.633396799908951	health	choicePhaseStart	2	75	15	foodImage.77	FOODEEG_Images\0771.jpg	YN	Left	Yes	0.633396799908951	0	351002	253
686.173828125	0	health	response	2	75	15	foodImage.77	FOODEEG_Images\0771.jpg	YN	Left	Yes	0.633396799908951	0	351322	234
687.21484375	1	health	trialStart	2	76	16	foodImage.48	FOODEEG_Images\0494.jpg	YN	Right	No	0.919427700107917	0	351855	251
688.255859375	2	health	foodImageDisplay	2	76	16	foodImage.48	FOODEEG_Images\0494.jpg	YN	Right	No	0.919427700107917	0	352388	252
690.318359375	0.919427700107917	health	choicePhaseStart	2	76	16	foodImage.48	FOODEEG_Images\0494.jpg	YN	Right	No	0.919427700107917	0	353444	253
691.228515625	0	health	response	2	76	16	foodImage.48	FOODEEG_Images\0494.jpg	YN	Right	No	0.919427700107917	0	353910	235
692.271484375	1	health	trialStart	2	77	17	foodImage.54	FOODEEG_Images\0560.jpg	NY	Right	Yes	0.414811700116843	0	354444	251
693.328125	2	health	foodImageDisplay	2	77	17	foodImage.54	FOODEEG_Images\0560.jpg	NY	Right	Yes	0.414811700116843	0	354985	252
695.390625	0.414811700116843	health	choicePhaseStart	2	77	17	foodImage.54	FOODEEG_Images\0560.jpg	NY	Right	Yes	0.414811700116843	0	356041	253
695.796875	0	health	response	2	77	17	foodImage.54	FOODEEG_Images\0560.jpg	NY	Right	Yes	0.414811700116843	0	356249	235
696.83984375	1	taste	trialStart	2	78	18	foodImage.113	FOODEEG_Images\0921.jpg	NY	Right	Yes	0.513091399800032	0	356783	251
697.876953125	2	taste	foodImageDisplay	2	78	18	foodImage.113	FOODEEG_Images\0921.jpg	NY	Right	Yes	0.513091399800032	0	357314	252
699.939453125	0.513091399800032	taste	choicePhaseStart	2	78	18	foodImage.113	FOODEEG_Images\0921.jpg	NY	Right	Yes	0.513091399800032	0	358370	253
700.443359375	0	taste	response	2	78	18	foodImage.113	FOODEEG_Images\0921.jpg	NY	Right	Yes	0.513091399800032	0	358628	235
701.486328125	1	decision	trialStart	2	79	19	foodImage.58	FOODEEG_Images\0605.jpg	NY	Right	Yes	0.886523900087923	0	359162	251
702.544921875	2	decision	foodImageDisplay	2	79	19	foodImage.58	FOODEEG_Images\0605.jpg	NY	Right	Yes	0.886523900087923	0	359704	252
704.607421875	0.886523900087923	decision	choicePhaseStart	2	79	19	foodImage.58	FOODEEG_Images\0605.jpg	NY	Right	Yes	0.886523900087923	0	360760	253
705.484375	0	decision	response	2	79	19	foodImage.58	FOODEEG_Images\0605.jpg	NY	Right	Yes	0.886523900087923	0	361209	235
706.533203125	1	decision	trialStart	2	80	20	foodImage.83	FOODEEG_Images\0827.jpg	NY	Right	Yes	0.760820199968293	0	361746	251
707.591796875	2	decision	foodImageDisplay	2	80	20	foodImage.83	FOODEEG_Images\0827.jpg	NY	Right	Yes	0.760820199968293	0	362288	252
709.65234375	0.760820199968293	decision	choicePhaseStart	2	80	20	foodImage.83	FOODEEG_Images\0827.jpg	NY	Right	Yes	0.760820199968293	0	363343	253
710.404296875	0	decision	response	2	80	20	foodImage.83	FOODEEG_Images\0827.jpg	NY	Right	Yes	0.760820199968293	0	363728	235
711.44921875	1	taste	trialStart	2	81	21	foodImage.5	FOODEEG_Images\0107.jpg	NY	Left	No	0.468062999891117	0	364263	251
712.50390625	2	taste	foodImageDisplay	2	81	21	foodImage.5	FOODEEG_Images\0107.jpg	NY	Left	No	0.468062999891117	0	364803	252
714.56640625	0.468062999891117	taste	choicePhaseStart	2	81	21	foodImage.5	FOODEEG_Images\0107.jpg	NY	Left	No	0.468062999891117	0	365859	253
715.02734375	0	taste	response	2	81	21	foodImage.5	FOODEEG_Images\0107.jpg	NY	Left	No	0.468062999891117	0	366095	234
716.0703125	1	health	trialStart	2	82	22	foodImage.79	FOODEEG_Images\0794.jpg	NY	Right	Yes	0.617387100122869	0	366629	251
717.115234375	2	health	foodImageDisplay	2	82	22	foodImage.79	FOODEEG_Images\0794.jpg	NY	Right	Yes	0.617387100122869	0	367164	252
719.177734375	0.617387100122869	health	choicePhaseStart	2	82	22	foodImage.79	FOODEEG_Images\0794.jpg	NY	Right	Yes	0.617387100122869	0	368220	253
719.787109375	0	health	response	2	82	22	foodImage.79	FOODEEG_Images\0794.jpg	NY	Right	Yes	0.617387100122869	0	368532	235
720.830078125	1	health	trialStart	2	83	23	foodImage.33	FOODEEG_Images\0329.jpg	NY	Right	Yes	0.494469699915498	0	369066	251
721.87109375	2	health	foodImageDisplay	2	83	23	foodImage.33	FOODEEG_Images\0329.jpg	NY	Right	Yes	0.494469699915498	0	369599	252
723.93359375	0.494469699915498	health	choicePhaseStart	2	83	23	foodImage.33	FOODEEG_Images\0329.jpg	NY	Right	Yes	0.494469699915498	0	370655	253
724.419921875	0	health	response	2	83	23	foodImage.33	FOODEEG_Images\0329.jpg	NY	Right	Yes	0.494469699915498	0	370904	235
725.462890625	1	taste	trialStart	2	84	24	foodImage.18	FOODEEG_Images\0202.jpg	YN	Left	Yes	1.12720420002006	0	371438	251
726.51953125	2	taste	foodImageDisplay	2	84	24	foodImage.18	FOODEEG_Images\0202.jpg	YN	Left	Yes	1.12720420002006	0	371979	252
728.58203125	1.12720420002006	taste	choicePhaseStart	2	84	24	foodImage.18	FOODEEG_Images\0202.jpg	YN	Left	Yes	1.12720420002006	0	373035	253
729.69921875	0	taste	response	2	84	24	foodImage.18	FOODEEG_Images\0202.jpg	YN	Left	Yes	1.12720420002006	0	373607	234
730.7421875	1	decision	trialStart	2	85	25	foodImage.17	FOODEEG_Images\0199.jpg	YN	Left	Yes	1.28614570014179	0	374141	251
731.783203125	2	decision	foodImageDisplay	2	85	25	foodImage.17	FOODEEG_Images\0199.jpg	YN	Left	Yes	1.28614570014179	0	374674	252
733.845703125	1.28614570014179	decision	choicePhaseStart	2	85	25	foodImage.17	FOODEEG_Images\0199.jpg	YN	Left	Yes	1.28614570014179	0	375730	253
735.123046875	0	decision	response	2	85	25	foodImage.17	FOODEEG_Images\0199.jpg	YN	Left	Yes	1.28614570014179	0	376384	234
736.166015625	1	decision	trialStart	2	86	26	foodImage.97	FOODEEG_Images\0905.jpg	YN	Right	No	0.385127200046554	0	376918	251
737.205078125	2	decision	foodImageDisplay	2	86	26	foodImage.97	FOODEEG_Images\0905.jpg	YN	Right	No	0.385127200046554	0	377450	252
739.267578125	0.385127200046554	decision	choicePhaseStart	2	86	26	foodImage.97	FOODEEG_Images\0905.jpg	YN	Right	No	0.385127200046554	0	378506	253
739.642578125	0	decision	response	2	86	26	foodImage.97	FOODEEG_Images\0905.jpg	YN	Right	No	0.385127200046554	0	378698	235
740.685546875	1	decision	trialStart	2	87	27	foodImage.64	FOODEEG_Images\0647.jpg	YN	Left	Yes	0.487733999965712	0	379232	251
741.7421875	2	decision	foodImageDisplay	2	87	27	foodImage.64	FOODEEG_Images\0647.jpg	YN	Left	Yes	0.487733999965712	0	379773	252
743.8046875	0.487733999965712	decision	choicePhaseStart	2	87	27	foodImage.64	FOODEEG_Images\0647.jpg	YN	Left	Yes	0.487733999965712	0	380829	253
744.283203125	0	decision	response	2	87	27	foodImage.64	FOODEEG_Images\0647.jpg	YN	Left	Yes	0.487733999965712	0	381074	234
745.32421875	1	health	trialStart	2	88	28	foodImage.2	FOODEEG_Images\0028.jpg	YN	Right	No	1.18466900009662	0	381607	251
746.37890625	2	health	foodImageDisplay	2	88	28	foodImage.2	FOODEEG_Images\0028.jpg	YN	Right	No	1.18466900009662	0	382147	252
748.44140625	1.18466900009662	health	choicePhaseStart	2	88	28	foodImage.2	FOODEEG_Images\0028.jpg	YN	Right	No	1.18466900009662	0	383203	253
749.6171875	0	health	response	2	88	28	foodImage.2	FOODEEG_Images\0028.jpg	YN	Right	No	1.18466900009662	0	383805	235
750.66015625	1	health	trialStart	2	89	29	foodImage.57	FOODEEG_Images\0587.jpg	NY	Right	Yes	0.506382700055838	0	384339	251
751.703125	2	health	foodImageDisplay	2	89	29	foodImage.57	FOODEEG_Images\0587.jpg	NY	Right	Yes	0.506382700055838	0	384873	252
753.76953125	0.506382700055838	health	choicePhaseStart	2	89	29	foodImage.57	FOODEEG_Images\0587.jpg	NY	Right	Yes	0.506382700055838	0	385931	253
754.265625	0	health	response	2	89	29	foodImage.57	FOODEEG_Images\0587.jpg	NY	Right	Yes	0.506382700055838	0	386185	235
755.30859375	1	health	trialStart	2	90	30	foodImage.4	FOODEEG_Images\0065.jpg	NY	Right	Yes	0.527170799905434	0	386719	251
756.36328125	2	health	foodImageDisplay	2	90	30	foodImage.4	FOODEEG_Images\0065.jpg	NY	Right	Yes	0.527170799905434	0	387259	252
758.42578125	0.527170799905434	health	choicePhaseStart	2	90	30	foodImage.4	FOODEEG_Images\0065.jpg	NY	Right	Yes	0.527170799905434	0	388315	253
758.9453125	0	health	response	2	90	30	foodImage.4	FOODEEG_Images\0065.jpg	NY	Right	Yes	0.527170799905434	0	388581	235
759.98828125	1	decision	trialStart	2	91	31	foodImage.46	FOODEEG_Images\0479.jpg	NY	Left	No	0.888318799901754	0	389115	251
761.044921875	2	decision	foodImageDisplay	2	91	31	foodImage.46	FOODEEG_Images\0479.jpg	NY	Left	No	0.888318799901754	0	389656	252
763.107421875	0.888318799901754	decision	choicePhaseStart	2	91	31	foodImage.46	FOODEEG_Images\0479.jpg	NY	Left	No	0.888318799901754	0	390712	253
763.986328125	0	decision	response	2	91	31	foodImage.46	FOODEEG_Images\0479.jpg	NY	Left	No	0.888318799901754	0	391162	234
765.029296875	1	decision	trialStart	2	92	32	foodImage.52	FOODEEG_Images\0539.jpg	NY	Right	Yes	0.638761200010777	0	391696	251
766.0859375	2	decision	foodImageDisplay	2	92	32	foodImage.52	FOODEEG_Images\0539.jpg	NY	Right	Yes	0.638761200010777	0	392237	252
768.1484375	0.638761200010777	decision	choicePhaseStart	2	92	32	foodImage.52	FOODEEG_Images\0539.jpg	NY	Right	Yes	0.638761200010777	0	393293	253
768.77734375	0	decision	response	2	92	32	foodImage.52	FOODEEG_Images\0539.jpg	NY	Right	Yes	0.638761200010777	0	393615	235
769.82421875	1	taste	trialStart	2	93	33	foodImage.33	FOODEEG_Images\0329.jpg	NY	Right	Yes	0.657932700123638	0	394151	251
770.865234375	2	taste	foodImageDisplay	2	93	33	foodImage.33	FOODEEG_Images\0329.jpg	NY	Right	Yes	0.657932700123638	0	394684	252
772.927734375	0.657932700123638	taste	choicePhaseStart	2	93	33	foodImage.33	FOODEEG_Images\0329.jpg	NY	Right	Yes	0.657932700123638	0	395740	253
773.578125	0	taste	response	2	93	33	foodImage.33	FOODEEG_Images\0329.jpg	NY	Right	Yes	0.657932700123638	0	396073	235
774.62109375	1	taste	trialStart	2	94	34	foodImage.81	FOODEEG_Images\0797.jpg	YN	Right	No	0.629403500119224	0	396607	251
775.6796875	2	taste	foodImageDisplay	2	94	34	foodImage.81	FOODEEG_Images\0797.jpg	YN	Right	No	0.629403500119224	0	397149	252
777.7421875	0.629403500119224	taste	choicePhaseStart	2	94	34	foodImage.81	FOODEEG_Images\0797.jpg	YN	Right	No	0.629403500119224	0	398205	253
778.361328125	0	taste	response	2	94	34	foodImage.81	FOODEEG_Images\0797.jpg	YN	Right	No	0.629403500119224	0	398522	235
779.40234375	1	taste	trialStart	2	95	35	foodImage.57	FOODEEG_Images\0587.jpg	YN	Left	Yes	0.751849999884143	0	399055	251
780.443359375	2	taste	foodImageDisplay	2	95	35	foodImage.57	FOODEEG_Images\0587.jpg	YN	Left	Yes	0.751849999884143	0	399588	252
782.505859375	0.751849999884143	taste	choicePhaseStart	2	95	35	foodImage.57	FOODEEG_Images\0587.jpg	YN	Left	Yes	0.751849999884143	0	400644	253
783.248046875	0	taste	response	2	95	35	foodImage.57	FOODEEG_Images\0587.jpg	YN	Left	Yes	0.751849999884143	0	401024	234
784.291015625	1	taste	trialStart	2	96	36	foodImage.106	FOODEEG_Images\0914.jpg	YN	Right	No	0.396122199948877	0	401558	251
785.328125	2	taste	foodImageDisplay	2	96	36	foodImage.106	FOODEEG_Images\0914.jpg	YN	Right	No	0.396122199948877	0	402089	252
787.390625	0.396122199948877	taste	choicePhaseStart	2	96	36	foodImage.106	FOODEEG_Images\0914.jpg	YN	Right	No	0.396122199948877	0	403145	253
787.77734375	0	taste	response	2	96	36	foodImage.106	FOODEEG_Images\0914.jpg	YN	Right	No	0.396122199948877	0	403343	235
788.818359375	1	health	trialStart	2	97	37	foodImage.12	FOODEEG_Images\0181.jpg	YN	Right	No	1.13354640011676	0	403876	251
789.857421875	2	health	foodImageDisplay	2	97	37	foodImage.12	FOODEEG_Images\0181.jpg	YN	Right	No	1.13354640011676	0	404408	252
791.92578125	1.13354640011676	health	choicePhaseStart	2	97	37	foodImage.12	FOODEEG_Images\0181.jpg	YN	Right	No	1.13354640011676	0	405467	253
793.048828125	0	health	response	2	97	37	foodImage.12	FOODEEG_Images\0181.jpg	YN	Right	No	1.13354640011676	0	406042	235
794.091796875	1	taste	trialStart	2	98	38	foodImage.108	FOODEEG_Images\0916.jpg	NY	Left	No	0.465156999882311	0	406576	251
795.12890625	2	taste	foodImageDisplay	2	98	38	foodImage.108	FOODEEG_Images\0916.jpg	NY	Left	No	0.465156999882311	0	407107	252
797.193359375	0.465156999882311	taste	choicePhaseStart	2	98	38	foodImage.108	FOODEEG_Images\0916.jpg	NY	Left	No	0.465156999882311	0	408164	253
797.6484375	0	taste	response	2	98	38	foodImage.108	FOODEEG_Images\0916.jpg	NY	Left	No	0.465156999882311	0	408397	234
798.689453125	1	decision	trialStart	2	99	39	foodImage.102	FOODEEG_Images\0910.jpg	NY	Left	No	0.447840500157326	0	408930	251
799.728515625	2	decision	foodImageDisplay	2	99	39	foodImage.102	FOODEEG_Images\0910.jpg	NY	Left	No	0.447840500157326	0	409462	252
801.79296875	0.447840500157326	decision	choicePhaseStart	2	99	39	foodImage.102	FOODEEG_Images\0910.jpg	NY	Left	No	0.447840500157326	0	410519	253
802.232421875	0	decision	response	2	99	39	foodImage.102	FOODEEG_Images\0910.jpg	NY	Left	No	0.447840500157326	0	410744	234
803.275390625	1	taste	trialStart	2	100	40	foodImage.42	FOODEEG_Images\0438.jpg	YN	Left	Yes	0.632342699915171	0	411278	251
804.361328125	2	taste	foodImageDisplay	2	100	40	foodImage.42	FOODEEG_Images\0438.jpg	YN	Left	Yes	0.632342699915171	0	411834	252
806.423828125	0.632342699915171	taste	choicePhaseStart	2	100	40	foodImage.42	FOODEEG_Images\0438.jpg	YN	Left	Yes	0.632342699915171	0	412890	253
807.048828125	0	taste	response	2	100	40	foodImage.42	FOODEEG_Images\0438.jpg	YN	Left	Yes	0.632342699915171	0	413210	234
808.09375	1	decision	trialStart	2	101	41	foodImage.43	FOODEEG_Images\0445.jpg	NY	Right	Yes	0.55792469996959	0	413745	251
809.1484375	2	decision	foodImageDisplay	2	101	41	foodImage.43	FOODEEG_Images\0445.jpg	NY	Right	Yes	0.55792469996959	0	414285	252
811.2109375	0.55792469996959	decision	choicePhaseStart	2	101	41	foodImage.43	FOODEEG_Images\0445.jpg	NY	Right	Yes	0.55792469996959	0	415341	253
811.759765625	0	decision	response	2	101	41	foodImage.43	FOODEEG_Images\0445.jpg	NY	Right	Yes	0.55792469996959	0	415622	235
812.802734375	1	health	trialStart	2	102	42	foodImage.62	FOODEEG_Images\0644.jpg	NY	Right	Yes	0.793615699978545	0	416156	251
813.857421875	2	health	foodImageDisplay	2	102	42	foodImage.62	FOODEEG_Images\0644.jpg	NY	Right	Yes	0.793615699978545	0	416696	252
815.919921875	0.793615699978545	health	choicePhaseStart	2	102	42	foodImage.62	FOODEEG_Images\0644.jpg	NY	Right	Yes	0.793615699978545	0	417752	253
816.703125	0	health	response	2	102	42	foodImage.62	FOODEEG_Images\0644.jpg	NY	Right	Yes	0.793615699978545	0	418153	235
817.75	1	decision	trialStart	2	103	43	foodImage.20	FOODEEG_Images\0226.jpg	NY	Left	No	0.934397100005299	0	418689	251
818.7890625	2	decision	foodImageDisplay	2	103	43	foodImage.20	FOODEEG_Images\0226.jpg	NY	Left	No	0.934397100005299	0	419221	252
820.8515625	0.934397100005299	decision	choicePhaseStart	2	103	43	foodImage.20	FOODEEG_Images\0226.jpg	NY	Left	No	0.934397100005299	0	420277	253
821.775390625	0	decision	response	2	103	43	foodImage.20	FOODEEG_Images\0226.jpg	NY	Left	No	0.934397100005299	0	420750	234
822.8203125	1	health	trialStart	2	104	44	foodImage.23	FOODEEG_Images\0244.jpg	NY	Right	Yes	0.430643599946052	0	421285	251
823.859375	2	health	foodImageDisplay	2	104	44	foodImage.23	FOODEEG_Images\0244.jpg	NY	Right	Yes	0.430643599946052	0	421817	252
825.921875	0.430643599946052	health	choicePhaseStart	2	104	44	foodImage.23	FOODEEG_Images\0244.jpg	NY	Right	Yes	0.430643599946052	0	422873	253
826.34375	0	health	response	2	104	44	foodImage.23	FOODEEG_Images\0244.jpg	NY	Right	Yes	0.430643599946052	0	423089	235
827.38671875	1	decision	trialStart	2	105	45	foodImage.62	FOODEEG_Images\0644.jpg	NY	Right	Yes	0.440662499982864	0	423623	251
828.44140625	2	decision	foodImageDisplay	2	105	45	foodImage.62	FOODEEG_Images\0644.jpg	NY	Right	Yes	0.440662499982864	0	424163	252
830.50390625	0.440662499982864	decision	choicePhaseStart	2	105	45	foodImage.62	FOODEEG_Images\0644.jpg	NY	Right	Yes	0.440662499982864	0	425219	253
830.935546875	0	decision	response	2	105	45	foodImage.62	FOODEEG_Images\0644.jpg	NY	Right	Yes	0.440662499982864	0	425440	235
831.98046875	1	health	trialStart	2	106	46	foodImage.17	FOODEEG_Images\0199.jpg	NY	Right	Yes	0.531493100104854	0	425975	251
833.021484375	2	health	foodImageDisplay	2	106	46	foodImage.17	FOODEEG_Images\0199.jpg	NY	Right	Yes	0.531493100104854	0	426508	252
835.083984375	0.531493100104854	health	choicePhaseStart	2	106	46	foodImage.17	FOODEEG_Images\0199.jpg	NY	Right	Yes	0.531493100104854	0	427564	253
835.607421875	0	health	response	2	106	46	foodImage.17	FOODEEG_Images\0199.jpg	NY	Right	Yes	0.531493100104854	0	427832	235
836.6484375	1	decision	trialStart	2	107	47	foodImage.30	FOODEEG_Images\0282.jpg	YN	Left	Yes	0.985960100078955	0	428365	251
837.689453125	2	decision	foodImageDisplay	2	107	47	foodImage.30	FOODEEG_Images\0282.jpg	YN	Left	Yes	0.985960100078955	0	428898	252
839.751953125	0.985960100078955	decision	choicePhaseStart	2	107	47	foodImage.30	FOODEEG_Images\0282.jpg	YN	Left	Yes	0.985960100078955	0	429954	253
840.7265625	0	decision	response	2	107	47	foodImage.30	FOODEEG_Images\0282.jpg	YN	Left	Yes	0.985960100078955	0	430453	234
841.76953125	1	health	trialStart	2	108	48	foodImage.70	FOODEEG_Images\0705.jpg	YN	Right	No	1.59105139994062	0	430987	251
842.826171875	2	health	foodImageDisplay	2	108	48	foodImage.70	FOODEEG_Images\0705.jpg	YN	Right	No	1.59105139994062	0	431528	252
844.888671875	1.59105139994062	health	choicePhaseStart	2	108	48	foodImage.70	FOODEEG_Images\0705.jpg	YN	Right	No	1.59105139994062	0	432584	253
846.470703125	0	health	response	2	108	48	foodImage.70	FOODEEG_Images\0705.jpg	YN	Right	No	1.59105139994062	0	433394	235
847.513671875	1	taste	trialStart	2	109	49	foodImage.79	FOODEEG_Images\0794.jpg	YN	Right	No	0.556861100019887	0	433928	251
848.556640625	2	taste	foodImageDisplay	2	109	49	foodImage.79	FOODEEG_Images\0794.jpg	YN	Right	No	0.556861100019887	0	434462	252
850.619140625	0.556861100019887	taste	choicePhaseStart	2	109	49	foodImage.79	FOODEEG_Images\0794.jpg	YN	Right	No	0.556861100019887	0	435518	253
851.166015625	0	taste	response	2	109	49	foodImage.79	FOODEEG_Images\0794.jpg	YN	Right	No	0.556861100019887	0	435798	235
852.208984375	1	decision	trialStart	2	110	50	foodImage.107	FOODEEG_Images\0915.jpg	YN	Right	No	0.95288350014016	0	436332	251
853.248046875	2	decision	foodImageDisplay	2	110	50	foodImage.107	FOODEEG_Images\0915.jpg	YN	Right	No	0.95288350014016	0	436864	252
855.310546875	0.95288350014016	decision	choicePhaseStart	2	110	50	foodImage.107	FOODEEG_Images\0915.jpg	YN	Right	No	0.95288350014016	0	437920	253
856.25390625	0	decision	response	2	110	50	foodImage.107	FOODEEG_Images\0915.jpg	YN	Right	No	0.95288350014016	0	438403	235
857.296875	1	health	trialStart	2	111	51	foodImage.37	FOODEEG_Images\0359.jpg	NY	Right	Yes	0.725394100183621	0	438937	251
858.3359375	2	health	foodImageDisplay	2	111	51	foodImage.37	FOODEEG_Images\0359.jpg	NY	Right	Yes	0.725394100183621	0	439469	252
860.3984375	0.725394100183621	health	choicePhaseStart	2	111	51	foodImage.37	FOODEEG_Images\0359.jpg	NY	Right	Yes	0.725394100183621	0	440525	253
861.1171875	0	health	response	2	111	51	foodImage.37	FOODEEG_Images\0359.jpg	NY	Right	Yes	0.725394100183621	0	440893	235
862.1640625	1	health	trialStart	2	112	52	foodImage.61	FOODEEG_Images\0640.jpg	YN	Left	Yes	0.656772800022736	0	441429	251
863.208984375	2	health	foodImageDisplay	2	112	52	foodImage.61	FOODEEG_Images\0640.jpg	YN	Left	Yes	0.656772800022736	0	441964	252
865.271484375	0.656772800022736	health	choicePhaseStart	2	112	52	foodImage.61	FOODEEG_Images\0640.jpg	YN	Left	Yes	0.656772800022736	0	443020	253
865.91796875	0	health	response	2	112	52	foodImage.61	FOODEEG_Images\0640.jpg	YN	Left	Yes	0.656772800022736	0	443351	234
866.9609375	1	decision	trialStart	2	113	53	foodImage.19	FOODEEG_Images\0225.jpg	NY	Left	No	0.679819000186399	0	443885	251
868.001953125	2	decision	foodImageDisplay	2	113	53	foodImage.19	FOODEEG_Images\0225.jpg	NY	Left	No	0.679819000186399	0	444418	252
870.064453125	0.679819000186399	decision	choicePhaseStart	2	113	53	foodImage.19	FOODEEG_Images\0225.jpg	NY	Left	No	0.679819000186399	0	445474	253
870.732421875	0	decision	response	2	113	53	foodImage.19	FOODEEG_Images\0225.jpg	NY	Left	No	0.679819000186399	0	445816	234
871.77734375	1	decision	trialStart	2	114	54	foodImage.72	FOODEEG_Images\0714.jpg	YN	Right	No	1.35904270014726	0	446351	251
872.818359375	2	decision	foodImageDisplay	2	114	54	foodImage.72	FOODEEG_Images\0714.jpg	YN	Right	No	1.35904270014726	0	446884	252
874.880859375	1.35904270014726	decision	choicePhaseStart	2	114	54	foodImage.72	FOODEEG_Images\0714.jpg	YN	Right	No	1.35904270014726	0	447940	253
876.23046875	0	decision	response	2	114	54	foodImage.72	FOODEEG_Images\0714.jpg	YN	Right	No	1.35904270014726	0	448631	235
877.2734375	1	decision	trialStart	2	115	55	foodImage.68	FOODEEG_Images\0685.jpg	NY	Right	Yes	0.440241399919614	0	449165	251
878.349609375	2	decision	foodImageDisplay	2	115	55	foodImage.68	FOODEEG_Images\0685.jpg	NY	Right	Yes	0.440241399919614	0	449716	252
880.4140625	0.440241399919614	decision	choicePhaseStart	2	115	55	foodImage.68	FOODEEG_Images\0685.jpg	NY	Right	Yes	0.440241399919614	0	450773	253
880.845703125	0	decision	response	2	115	55	foodImage.68	FOODEEG_Images\0685.jpg	NY	Right	Yes	0.440241399919614	0	450994	235
881.888671875	1	decision	trialStart	2	116	56	foodImage.51	FOODEEG_Images\0536.jpg	NY	Left	No	0.602836999809369	0	451528	251
882.93359375	2	decision	foodImageDisplay	2	116	56	foodImage.51	FOODEEG_Images\0536.jpg	NY	Left	No	0.602836999809369	0	452063	252
884.99609375	0.602836999809369	decision	choicePhaseStart	2	116	56	foodImage.51	FOODEEG_Images\0536.jpg	NY	Left	No	0.602836999809369	0	453119	253
885.58984375	0	decision	response	2	116	56	foodImage.51	FOODEEG_Images\0536.jpg	NY	Left	No	0.602836999809369	0	453423	234
886.6328125	1	decision	trialStart	2	117	57	foodImage.38	FOODEEG_Images\0365.jpg	NY	Right	Yes	1.33832179987803	0	453957	251
887.669921875	2	decision	foodImageDisplay	2	117	57	foodImage.38	FOODEEG_Images\0365.jpg	NY	Right	Yes	1.33832179987803	0	454488	252
889.732421875	1.33832179987803	decision	choicePhaseStart	2	117	57	foodImage.38	FOODEEG_Images\0365.jpg	NY	Right	Yes	1.33832179987803	0	455544	253
891.060546875	0	decision	response	2	117	57	foodImage.38	FOODEEG_Images\0365.jpg	NY	Right	Yes	1.33832179987803	0	456224	235
892.1015625	1	decision	trialStart	2	118	58	foodImage.26	FOODEEG_Images\0262.jpg	NY	Left	No	0.642036200035363	0	456757	251
893.140625	2	decision	foodImageDisplay	2	118	58	foodImage.26	FOODEEG_Images\0262.jpg	NY	Left	No	0.642036200035363	0	457289	252
895.203125	0.642036200035363	decision	choicePhaseStart	2	118	58	foodImage.26	FOODEEG_Images\0262.jpg	NY	Left	No	0.642036200035363	0	458345	253
895.8359375	0	decision	response	2	118	58	foodImage.26	FOODEEG_Images\0262.jpg	NY	Left	No	0.642036200035363	0	458669	234
896.87890625	1	health	trialStart	2	119	59	foodImage.74	FOODEEG_Images\0752.jpg	YN	Left	Yes	0.574018999934196	0	459203	251
897.921875	2	health	foodImageDisplay	2	119	59	foodImage.74	FOODEEG_Images\0752.jpg	YN	Left	Yes	0.574018999934196	0	459737	252
899.984375	0.574018999934196	health	choicePhaseStart	2	119	59	foodImage.74	FOODEEG_Images\0752.jpg	YN	Left	Yes	0.574018999934196	0	460793	253
900.548828125	0	health	response	2	119	59	foodImage.74	FOODEEG_Images\0752.jpg	YN	Left	Yes	0.574018999934196	0	461082	234
901.591796875	1	health	trialStart	2	120	60	foodImage.76	FOODEEG_Images\0766.jpg	YN	Left	Yes	0.523992700036615	0	461616	251
902.634765625	2	health	foodImageDisplay	2	120	60	foodImage.76	FOODEEG_Images\0766.jpg	YN	Left	Yes	0.523992700036615	0	462150	252
904.697265625	0.523992700036615	health	choicePhaseStart	2	120	60	foodImage.76	FOODEEG_Images\0766.jpg	YN	Left	Yes	0.523992700036615	0	463206	253
905.212890625	0	health	response	2	120	60	foodImage.76	FOODEEG_Images\0766.jpg	YN	Left	Yes	0.523992700036615	0	463470	234
907.2578125	46.728515625	n/a	blockEnd	n/a	n/a	n/a	n/a	n/a	n/a	n/a	n/a	n/a	n/a	464517	254
953.986328125	2	n/a	blockStart	3	n/a	n/a	n/a	n/a	n/a	n/a	n/a	n/a	n/a	488442	250
956.01953125	1	health	trialStart	3	121	1	foodImage.107	FOODEEG_Images\0915.jpg	NY	Right	Yes	1.10788849997334	0	489483	251
957.05859375	2	health	foodImageDisplay	3	121	1	foodImage.107	FOODEEG_Images\0915.jpg	NY	Right	Yes	1.10788849997334	0	490015	252
959.119140625	1.10788849997334	health	choicePhaseStart	3	121	1	foodImage.107	FOODEEG_Images\0915.jpg	NY	Right	Yes	1.10788849997334	0	491070	253
960.21875	0	health	response	3	121	1	foodImage.107	FOODEEG_Images\0915.jpg	NY	Right	Yes	1.10788849997334	0	491633	235
961.26171875	1	decision	trialStart	3	122	2	foodImage.71	FOODEEG_Images\0713.jpg	YN	Left	Yes	0.553203500108793	0	492167	251
962.302734375	2	decision	foodImageDisplay	3	122	2	foodImage.71	FOODEEG_Images\0713.jpg	YN	Left	Yes	0.553203500108793	0	492700	252
964.369140625	0.553203500108793	decision	choicePhaseStart	3	122	2	foodImage.71	FOODEEG_Images\0713.jpg	YN	Left	Yes	0.553203500108793	0	493758	253
964.9140625	0	decision	response	3	122	2	foodImage.71	FOODEEG_Images\0713.jpg	YN	Left	Yes	0.553203500108793	0	494037	234
965.95703125	1	taste	trialStart	3	123	3	foodImage.119	FOODEEG_Images\0927.jpg	YN	Right	No	0.657507400028408	0	494571	251
966.99609375	2	taste	foodImageDisplay	3	123	3	foodImage.119	FOODEEG_Images\0927.jpg	YN	Right	No	0.657507400028408	0	495103	252
969.056640625	0.657507400028408	taste	choicePhaseStart	3	123	3	foodImage.119	FOODEEG_Images\0927.jpg	YN	Right	No	0.657507400028408	0	496158	253
969.705078125	0	taste	response	3	123	3	foodImage.119	FOODEEG_Images\0927.jpg	YN	Right	No	0.657507400028408	0	496490	235
970.748046875	1	decision	trialStart	3	124	4	foodImage.76	FOODEEG_Images\0766.jpg	NY	Right	Yes	1.24621720006689	0	497024	251
971.791015625	2	decision	foodImageDisplay	3	124	4	foodImage.76	FOODEEG_Images\0766.jpg	NY	Right	Yes	1.24621720006689	0	497558	252
973.853515625	1.24621720006689	decision	choicePhaseStart	3	124	4	foodImage.76	FOODEEG_Images\0766.jpg	NY	Right	Yes	1.24621720006689	0	498614	253
975.08984375	0	decision	response	3	124	4	foodImage.76	FOODEEG_Images\0766.jpg	NY	Right	Yes	1.24621720006689	0	499247	235
976.1328125	1	decision	trialStart	3	125	5	foodImage.45	FOODEEG_Images\0478.jpg	NY	Right	Yes	0.683063599979505	0	499781	251
977.177734375	2	decision	foodImageDisplay	3	125	5	foodImage.45	FOODEEG_Images\0478.jpg	NY	Right	Yes	0.683063599979505	0	500316	252
979.240234375	0.683063599979505	decision	choicePhaseStart	3	125	5	foodImage.45	FOODEEG_Images\0478.jpg	NY	Right	Yes	0.683063599979505	0	501372	253
979.9140625	0	decision	response	3	125	5	foodImage.45	FOODEEG_Images\0478.jpg	NY	Right	Yes	0.683063599979505	0	501717	235
980.95703125	1	taste	trialStart	3	126	6	foodImage.66	FOODEEG_Images\0676.jpg	NY	Right	Yes	0.516219400102273	0	502251	251
981.998046875	2	taste	foodImageDisplay	3	126	6	foodImage.66	FOODEEG_Images\0676.jpg	NY	Right	Yes	0.516219400102273	0	502784	252
984.060546875	0.516219400102273	taste	choicePhaseStart	3	126	6	foodImage.66	FOODEEG_Images\0676.jpg	NY	Right	Yes	0.516219400102273	0	503840	253
984.568359375	0	taste	response	3	126	6	foodImage.66	FOODEEG_Images\0676.jpg	NY	Right	Yes	0.516219400102273	0	504100	235
985.61328125	1	decision	trialStart	3	127	7	foodImage.91	FOODEEG_Images\0896.jpg	YN	Left	Yes	0.726555899949744	0	504635	251
986.66796875	2	decision	foodImageDisplay	3	127	7	foodImage.91	FOODEEG_Images\0896.jpg	YN	Left	Yes	0.726555899949744	0	505175	252
988.73046875	0.726555899949744	decision	choicePhaseStart	3	127	7	foodImage.91	FOODEEG_Images\0896.jpg	YN	Left	Yes	0.726555899949744	0	506231	253
989.44921875	0	decision	response	3	127	7	foodImage.91	FOODEEG_Images\0896.jpg	YN	Left	Yes	0.726555899949744	0	506599	234
990.494140625	1	decision	trialStart	3	128	8	foodImage.84	FOODEEG_Images\0830.jpg	YN	Left	Yes	0.555676900083199	0	507134	251
991.552734375	2	decision	foodImageDisplay	3	128	8	foodImage.84	FOODEEG_Images\0830.jpg	YN	Left	Yes	0.555676900083199	0	507676	252
993.615234375	0.555676900083199	decision	choicePhaseStart	3	128	8	foodImage.84	FOODEEG_Images\0830.jpg	YN	Left	Yes	0.555676900083199	0	508732	253
994.16015625	0	decision	response	3	128	8	foodImage.84	FOODEEG_Images\0830.jpg	YN	Left	Yes	0.555676900083199	0	509011	234
995.203125	1	decision	trialStart	3	129	9	foodImage.59	FOODEEG_Images\0607.jpg	NY	Right	Yes	0.444586700061336	0	509545	251
996.248046875	2	decision	foodImageDisplay	3	129	9	foodImage.59	FOODEEG_Images\0607.jpg	NY	Right	Yes	0.444586700061336	0	510080	252
998.310546875	0.444586700061336	decision	choicePhaseStart	3	129	9	foodImage.59	FOODEEG_Images\0607.jpg	NY	Right	Yes	0.444586700061336	0	511136	253
998.74609375	0	decision	response	3	129	9	foodImage.59	FOODEEG_Images\0607.jpg	NY	Right	Yes	0.444586700061336	0	511359	235
999.7890625	1	health	trialStart	3	130	10	foodImage.72	FOODEEG_Images\0714.jpg	NY	Right	Yes	0.580802800133824	0	511893	251
1000.83203125	2	health	foodImageDisplay	3	130	10	foodImage.72	FOODEEG_Images\0714.jpg	NY	Right	Yes	0.580802800133824	0	512427	252
1002.892578125	0.580802800133824	health	choicePhaseStart	3	130	10	foodImage.72	FOODEEG_Images\0714.jpg	NY	Right	Yes	0.580802800133824	0	513482	253
1003.46484375	0	health	response	3	130	10	foodImage.72	FOODEEG_Images\0714.jpg	NY	Right	Yes	0.580802800133824	0	513775	235
1004.5078125	1	health	trialStart	3	131	11	foodImage.36	FOODEEG_Images\0352.jpg	YN	Left	Yes	0.53022599988617	0	514309	251
1005.578125	2	health	foodImageDisplay	3	131	11	foodImage.36	FOODEEG_Images\0352.jpg	YN	Left	Yes	0.53022599988617	0	514857	252
1007.640625	0.53022599988617	health	choicePhaseStart	3	131	11	foodImage.36	FOODEEG_Images\0352.jpg	YN	Left	Yes	0.53022599988617	0	515913	253
1008.16015625	0	health	response	3	131	11	foodImage.36	FOODEEG_Images\0352.jpg	YN	Left	Yes	0.53022599988617	0	516179	234
1009.203125	1	taste	trialStart	3	132	12	foodImage.8	FOODEEG_Images\0136.jpg	NY	Right	Yes	0.61240590014495	0	516713	251
1010.24609375	2	taste	foodImageDisplay	3	132	12	foodImage.8	FOODEEG_Images\0136.jpg	NY	Right	Yes	0.61240590014495	0	517247	252
1012.30859375	0.61240590014495	taste	choicePhaseStart	3	132	12	foodImage.8	FOODEEG_Images\0136.jpg	NY	Right	Yes	0.61240590014495	0	518303	253
1012.912109375	0	taste	response	3	132	12	foodImage.8	FOODEEG_Images\0136.jpg	NY	Right	Yes	0.61240590014495	0	518612	235
1013.955078125	1	decision	trialStart	3	133	13	foodImage.90	FOODEEG_Images\0890.jpg	NY	Right	Yes	0.749558700015768	0	519146	251
1015.013671875	2	decision	foodImageDisplay	3	133	13	foodImage.90	FOODEEG_Images\0890.jpg	NY	Right	Yes	0.749558700015768	0	519688	252
1017.076171875	0.749558700015768	decision	choicePhaseStart	3	133	13	foodImage.90	FOODEEG_Images\0890.jpg	NY	Right	Yes	0.749558700015768	0	520744	253
1017.81640625	0	decision	response	3	133	13	foodImage.90	FOODEEG_Images\0890.jpg	NY	Right	Yes	0.749558700015768	0	521123	235
1018.859375	1	taste	trialStart	3	134	14	foodImage.7	FOODEEG_Images\0116.jpg	NY	Right	Yes	0.399021399905905	0	521657	251
1019.900390625	2	taste	foodImageDisplay	3	134	14	foodImage.7	FOODEEG_Images\0116.jpg	NY	Right	Yes	0.399021399905905	0	522190	252
1021.9609375	0.399021399905905	taste	choicePhaseStart	3	134	14	foodImage.7	FOODEEG_Images\0116.jpg	NY	Right	Yes	0.399021399905905	0	523245	253
1022.3515625	0	taste	response	3	134	14	foodImage.7	FOODEEG_Images\0116.jpg	NY	Right	Yes	0.399021399905905	0	523445	235
1023.39453125	1	decision	trialStart	3	135	15	foodImage.117	FOODEEG_Images\0925.jpg	YN	Right	No	0.50539549998939	0	523979	251
1024.43359375	2	decision	foodImageDisplay	3	135	15	foodImage.117	FOODEEG_Images\0925.jpg	YN	Right	No	0.50539549998939	0	524511	252
1026.494140625	0.50539549998939	decision	choicePhaseStart	3	135	15	foodImage.117	FOODEEG_Images\0925.jpg	YN	Right	No	0.50539549998939	0	525566	253
1026.9921875	0	decision	response	3	135	15	foodImage.117	FOODEEG_Images\0925.jpg	YN	Right	No	0.50539549998939	0	525821	235
1028.03515625	1	decision	trialStart	3	136	16	foodImage.8	FOODEEG_Images\0136.jpg	NY	Left	No	0.749612999847159	0	526355	251
1029.076171875	2	decision	foodImageDisplay	3	136	16	foodImage.8	FOODEEG_Images\0136.jpg	NY	Left	No	0.749612999847159	0	526888	252
1031.138671875	0.749612999847159	decision	choicePhaseStart	3	136	16	foodImage.8	FOODEEG_Images\0136.jpg	NY	Left	No	0.749612999847159	0	527944	253
1031.87890625	0	decision	response	3	136	16	foodImage.8	FOODEEG_Images\0136.jpg	NY	Left	No	0.749612999847159	0	528323	234
1032.923828125	1	taste	trialStart	3	137	17	foodImage.98	FOODEEG_Images\0906.jpg	YN	Right	No	0.569482800085098	0	528858	251
1033.9609375	2	taste	foodImageDisplay	3	137	17	foodImage.98	FOODEEG_Images\0906.jpg	YN	Right	No	0.569482800085098	0	529389	252
1036.0234375	0.569482800085098	taste	choicePhaseStart	3	137	17	foodImage.98	FOODEEG_Images\0906.jpg	YN	Right	No	0.569482800085098	0	530445	253
1036.583984375	0	taste	response	3	137	17	foodImage.98	FOODEEG_Images\0906.jpg	YN	Right	No	0.569482800085098	0	530732	235
1037.626953125	1	taste	trialStart	3	138	18	foodImage.28	FOODEEG_Images\0273.jpg	YN	Left	Yes	0.726195400115103	0	531266	251
1038.66796875	2	taste	foodImageDisplay	3	138	18	foodImage.28	FOODEEG_Images\0273.jpg	YN	Left	Yes	0.726195400115103	0	531799	252
1040.728515625	0.726195400115103	taste	choicePhaseStart	3	138	18	foodImage.28	FOODEEG_Images\0273.jpg	YN	Left	Yes	0.726195400115103	0	532854	253
1041.447265625	0	taste	response	3	138	18	foodImage.28	FOODEEG_Images\0273.jpg	YN	Left	Yes	0.726195400115103	0	533222	234
1042.490234375	1	taste	trialStart	3	139	19	foodImage.75	FOODEEG_Images\0763.jpg	NY	Right	Yes	0.849075100151822	0	533756	251
1043.533203125	2	taste	foodImageDisplay	3	139	19	foodImage.75	FOODEEG_Images\0763.jpg	NY	Right	Yes	0.849075100151822	0	534290	252
1045.595703125	0.849075100151822	taste	choicePhaseStart	3	139	19	foodImage.75	FOODEEG_Images\0763.jpg	NY	Right	Yes	0.849075100151822	0	535346	253
1046.439453125	0	taste	response	3	139	19	foodImage.75	FOODEEG_Images\0763.jpg	NY	Right	Yes	0.849075100151822	0	535778	235
1047.48046875	1	decision	trialStart	3	140	20	foodImage.49	FOODEEG_Images\0515.jpg	NY	Right	Yes	0.639048499986529	0	536311	251
1048.521484375	2	decision	foodImageDisplay	3	140	20	foodImage.49	FOODEEG_Images\0515.jpg	NY	Right	Yes	0.639048499986529	0	536844	252
1050.583984375	0.639048499986529	decision	choicePhaseStart	3	140	20	foodImage.49	FOODEEG_Images\0515.jpg	NY	Right	Yes	0.639048499986529	0	537900	253
1051.21484375	0	decision	response	3	140	20	foodImage.49	FOODEEG_Images\0515.jpg	NY	Right	Yes	0.639048499986529	0	538223	235
1052.2578125	1	taste	trialStart	3	141	21	foodImage.63	FOODEEG_Images\0645.jpg	NY	Right	Yes	1.13329149992205	0	538757	251
1053.298828125	2	taste	foodImageDisplay	3	141	21	foodImage.63	FOODEEG_Images\0645.jpg	NY	Right	Yes	1.13329149992205	0	539290	252
1055.361328125	1.13329149992205	taste	choicePhaseStart	3	141	21	foodImage.63	FOODEEG_Images\0645.jpg	NY	Right	Yes	1.13329149992205	0	540346	253
1056.486328125	0	taste	response	3	141	21	foodImage.63	FOODEEG_Images\0645.jpg	NY	Right	Yes	1.13329149992205	0	540922	235
1057.52734375	1	health	trialStart	3	142	22	foodImage.24	FOODEEG_Images\0250.jpg	YN	Left	Yes	0.574360700091347	0	541455	251
1058.5703125	2	health	foodImageDisplay	3	142	22	foodImage.24	FOODEEG_Images\0250.jpg	YN	Left	Yes	0.574360700091347	0	541989	252
1060.6328125	0.574360700091347	health	choicePhaseStart	3	142	22	foodImage.24	FOODEEG_Images\0250.jpg	YN	Left	Yes	0.574360700091347	0	543045	253
1061.197265625	0	health	response	3	142	22	foodImage.24	FOODEEG_Images\0250.jpg	YN	Left	Yes	0.574360700091347	0	543334	234
1062.240234375	1	health	trialStart	3	143	23	foodImage.110	FOODEEG_Images\0918.jpg	NY	Left	No	0.483660400146618	0	543868	251
1063.28515625	2	health	foodImageDisplay	3	143	23	foodImage.110	FOODEEG_Images\0918.jpg	NY	Left	No	0.483660400146618	0	544403	252
1065.34765625	0.483660400146618	health	choicePhaseStart	3	143	23	foodImage.110	FOODEEG_Images\0918.jpg	NY	Left	No	0.483660400146618	0	545459	253
1065.822265625	0	health	response	3	143	23	foodImage.110	FOODEEG_Images\0918.jpg	NY	Left	No	0.483660400146618	0	545702	234
1066.865234375	1	health	trialStart	3	144	24	foodImage.56	FOODEEG_Images\0586.jpg	YN	Left	Yes	0.830490699969232	0	546236	251
1067.90625	2	health	foodImageDisplay	3	144	24	foodImage.56	FOODEEG_Images\0586.jpg	YN	Left	Yes	0.830490699969232	0	546769	252
1069.96875	0.830490699969232	health	choicePhaseStart	3	144	24	foodImage.56	FOODEEG_Images\0586.jpg	YN	Left	Yes	0.830490699969232	0	547825	253
1070.7890625	0	health	response	3	144	24	foodImage.56	FOODEEG_Images\0586.jpg	YN	Left	Yes	0.830490699969232	0	548245	234
1071.8359375	1	health	trialStart	3	145	25	foodImage.103	FOODEEG_Images\0911.jpg	YN	Right	No	0.316438799956813	0	548781	251
1072.875	2	health	foodImageDisplay	3	145	25	foodImage.103	FOODEEG_Images\0911.jpg	YN	Right	No	0.316438799956813	0	549313	252
1074.9375	0.316438799956813	health	choicePhaseStart	3	145	25	foodImage.103	FOODEEG_Images\0911.jpg	YN	Right	No	0.316438799956813	0	550369	253
1075.24609375	0	health	response	3	145	25	foodImage.103	FOODEEG_Images\0911.jpg	YN	Right	No	0.316438799956813	0	550527	235
1076.29296875	1	health	trialStart	3	146	26	foodImage.22	FOODEEG_Images\0236.jpg	NY	Right	Yes	0.321661000140011	0	551063	251
1077.333984375	2	health	foodImageDisplay	3	146	26	foodImage.22	FOODEEG_Images\0236.jpg	NY	Right	Yes	0.321661000140011	0	551596	252
1079.396484375	0.321661000140011	health	choicePhaseStart	3	146	26	foodImage.22	FOODEEG_Images\0236.jpg	NY	Right	Yes	0.321661000140011	0	552652	253
1079.708984375	0	health	response	3	146	26	foodImage.22	FOODEEG_Images\0236.jpg	NY	Right	Yes	0.321661000140011	0	552812	235
1080.751953125	1	decision	trialStart	3	147	27	foodImage.120	FOODEEG_Images\0928.jpg	YN	Right	No	0.529886799864471	0	553346	251
1081.7890625	2	decision	foodImageDisplay	3	147	27	foodImage.120	FOODEEG_Images\0928.jpg	YN	Right	No	0.529886799864471	0	553877	252
1083.8515625	0.529886799864471	decision	choicePhaseStart	3	147	27	foodImage.120	FOODEEG_Images\0928.jpg	YN	Right	No	0.529886799864471	0	554933	253
1084.373046875	0	decision	response	3	147	27	foodImage.120	FOODEEG_Images\0928.jpg	YN	Right	No	0.529886799864471	0	555200	235
1085.416015625	1	taste	trialStart	3	148	28	foodImage.118	FOODEEG_Images\0926.jpg	YN	Right	No	0.385015400126576	0	555734	251
1086.455078125	2	taste	foodImageDisplay	3	148	28	foodImage.118	FOODEEG_Images\0926.jpg	YN	Right	No	0.385015400126576	0	556266	252
1088.517578125	0.385015400126576	taste	choicePhaseStart	3	148	28	foodImage.118	FOODEEG_Images\0926.jpg	YN	Right	No	0.385015400126576	0	557322	253
1088.892578125	0	taste	response	3	148	28	foodImage.118	FOODEEG_Images\0926.jpg	YN	Right	No	0.385015400126576	0	557514	235
1089.93359375	1	taste	trialStart	3	149	29	foodImage.60	FOODEEG_Images\0614.jpg	NY	Right	Yes	0.546196999959648	0	558047	251
1090.990234375	2	taste	foodImageDisplay	3	149	29	foodImage.60	FOODEEG_Images\0614.jpg	NY	Right	Yes	0.546196999959648	0	558588	252
1093.052734375	0.546196999959648	taste	choicePhaseStart	3	149	29	foodImage.60	FOODEEG_Images\0614.jpg	NY	Right	Yes	0.546196999959648	0	559644	253
1093.587890625	0	taste	response	3	149	29	foodImage.60	FOODEEG_Images\0614.jpg	NY	Right	Yes	0.546196999959648	0	559918	235
1094.630859375	1	health	trialStart	3	150	30	foodImage.69	FOODEEG_Images\0693.jpg	YN	Left	Yes	0.476436499971896	0	560452	251
1095.681640625	2	health	foodImageDisplay	3	150	30	foodImage.69	FOODEEG_Images\0693.jpg	YN	Left	Yes	0.476436499971896	0	560990	252
1097.74609375	0.476436499971896	health	choicePhaseStart	3	150	30	foodImage.69	FOODEEG_Images\0693.jpg	YN	Left	Yes	0.476436499971896	0	562047	253
1098.212890625	0	health	response	3	150	30	foodImage.69	FOODEEG_Images\0693.jpg	YN	Left	Yes	0.476436499971896	0	562286	234
1099.259765625	1	health	trialStart	3	151	31	foodImage.30	FOODEEG_Images\0282.jpg	NY	Right	Yes	0.65381809999235	0	562822	251
1100.302734375	2	health	foodImageDisplay	3	151	31	foodImage.30	FOODEEG_Images\0282.jpg	NY	Right	Yes	0.65381809999235	0	563356	252
1102.3671875	0.65381809999235	health	choicePhaseStart	3	151	31	foodImage.30	FOODEEG_Images\0282.jpg	NY	Right	Yes	0.65381809999235	0	564413	253
1103.01171875	0	health	response	3	151	31	foodImage.30	FOODEEG_Images\0282.jpg	NY	Right	Yes	0.65381809999235	0	564743	235
1104.06640625	1	health	trialStart	3	152	32	foodImage.108	FOODEEG_Images\0916.jpg	YN	Right	No	0.477402699878439	0	565283	251
1105.10546875	2	health	foodImageDisplay	3	152	32	foodImage.108	FOODEEG_Images\0916.jpg	YN	Right	No	0.477402699878439	0	565815	252
1107.16796875	0.477402699878439	health	choicePhaseStart	3	152	32	foodImage.108	FOODEEG_Images\0916.jpg	YN	Right	No	0.477402699878439	0	566871	253
1107.63671875	0	health	response	3	152	32	foodImage.108	FOODEEG_Images\0916.jpg	YN	Right	No	0.477402699878439	0	567111	235
1108.681640625	1	health	trialStart	3	153	33	foodImage.47	FOODEEG_Images\0488.jpg	YN	Right	No	0.825441699940711	0	567646	251
1109.724609375	2	health	foodImageDisplay	3	153	33	foodImage.47	FOODEEG_Images\0488.jpg	YN	Right	No	0.825441699940711	0	568180	252
1111.787109375	0.825441699940711	health	choicePhaseStart	3	153	33	foodImage.47	FOODEEG_Images\0488.jpg	YN	Right	No	0.825441699940711	0	569236	253
1112.603515625	0	health	response	3	153	33	foodImage.47	FOODEEG_Images\0488.jpg	YN	Right	No	0.825441699940711	0	569654	235
1113.6484375	1	health	trialStart	3	154	34	foodImage.31	FOODEEG_Images\0294.jpg	NY	Left	No	0.501786599867046	0	570189	251
1114.689453125	2	health	foodImageDisplay	3	154	34	foodImage.31	FOODEEG_Images\0294.jpg	NY	Left	No	0.501786599867046	0	570722	252
1116.751953125	0.501786599867046	health	choicePhaseStart	3	154	34	foodImage.31	FOODEEG_Images\0294.jpg	NY	Left	No	0.501786599867046	0	571778	253
1117.244140625	0	health	response	3	154	34	foodImage.31	FOODEEG_Images\0294.jpg	NY	Left	No	0.501786599867046	0	572030	234
1118.3125	1	decision	trialStart	3	155	35	foodImage.53	FOODEEG_Images\0547.jpg	YN	Right	No	1.16473679989576	0	572577	251
1119.37109375	2	decision	foodImageDisplay	3	155	35	foodImage.53	FOODEEG_Images\0547.jpg	YN	Right	No	1.16473679989576	0	573119	252
1121.43359375	1.16473679989576	decision	choicePhaseStart	3	155	35	foodImage.53	FOODEEG_Images\0547.jpg	YN	Right	No	1.16473679989576	0	574175	253
1122.587890625	0	decision	response	3	155	35	foodImage.53	FOODEEG_Images\0547.jpg	YN	Right	No	1.16473679989576	0	574766	235
1123.630859375	1	decision	trialStart	3	156	36	foodImage.96	FOODEEG_Images\0904.jpg	YN	Right	No	0.465237499913201	0	575300	251
1124.669921875	2	decision	foodImageDisplay	3	156	36	foodImage.96	FOODEEG_Images\0904.jpg	YN	Right	No	0.465237499913201	0	575832	252
1126.73046875	0.465237499913201	decision	choicePhaseStart	3	156	36	foodImage.96	FOODEEG_Images\0904.jpg	YN	Right	No	0.465237499913201	0	576887	253
1127.1875	0	decision	response	3	156	36	foodImage.96	FOODEEG_Images\0904.jpg	YN	Right	No	0.465237499913201	0	577121	235
1128.232421875	1	health	trialStart	3	157	37	foodImage.39	FOODEEG_Images\0367.jpg	NY	Left	No	0.720169600099325	0	577656	251
1129.26953125	2	health	foodImageDisplay	3	157	37	foodImage.39	FOODEEG_Images\0367.jpg	NY	Left	No	0.720169600099325	0	578187	252
1131.33203125	0.720169600099325	health	choicePhaseStart	3	157	37	foodImage.39	FOODEEG_Images\0367.jpg	NY	Left	No	0.720169600099325	0	579243	253
1132.04296875	0	health	response	3	157	37	foodImage.39	FOODEEG_Images\0367.jpg	NY	Left	No	0.720169600099325	0	579607	234
1133.0859375	1	taste	trialStart	3	158	38	foodImage.47	FOODEEG_Images\0488.jpg	YN	Left	Yes	1.303733299952	0	580141	251
1134.126953125	2	taste	foodImageDisplay	3	158	38	foodImage.47	FOODEEG_Images\0488.jpg	YN	Left	Yes	1.303733299952	0	580674	252
1136.1875	1.303733299952	taste	choicePhaseStart	3	158	38	foodImage.47	FOODEEG_Images\0488.jpg	YN	Left	Yes	1.303733299952	0	581729	253
1137.482421875	0	taste	response	3	158	38	foodImage.47	FOODEEG_Images\0488.jpg	YN	Left	Yes	1.303733299952	0	582392	234
1138.525390625	1	taste	trialStart	3	159	39	foodImage.89	FOODEEG_Images\0881.jpg	NY	Right	Yes	0.554784699808806	0	582926	251
1139.587890625	2	taste	foodImageDisplay	3	159	39	foodImage.89	FOODEEG_Images\0881.jpg	NY	Right	Yes	0.554784699808806	0	583470	252
1141.650390625	0.554784699808806	taste	choicePhaseStart	3	159	39	foodImage.89	FOODEEG_Images\0881.jpg	NY	Right	Yes	0.554784699808806	0	584526	253
1142.1953125	0	taste	response	3	159	39	foodImage.89	FOODEEG_Images\0881.jpg	NY	Right	Yes	0.554784699808806	0	584805	235
1143.236328125	1	taste	trialStart	3	160	40	foodImage.22	FOODEEG_Images\0236.jpg	NY	Right	Yes	0.73584540002048	0	585338	251
1144.279296875	2	taste	foodImageDisplay	3	160	40	foodImage.22	FOODEEG_Images\0236.jpg	NY	Right	Yes	0.73584540002048	0	585872	252
1146.341796875	0.73584540002048	taste	choicePhaseStart	3	160	40	foodImage.22	FOODEEG_Images\0236.jpg	NY	Right	Yes	0.73584540002048	0	586928	253
1147.06640625	0	taste	response	3	160	40	foodImage.22	FOODEEG_Images\0236.jpg	NY	Right	Yes	0.73584540002048	0	587299	235
1148.109375	1	taste	trialStart	3	161	41	foodImage.56	FOODEEG_Images\0586.jpg	YN	Right	No	0.525657600024715	0	587833	251
1149.15234375	2	taste	foodImageDisplay	3	161	41	foodImage.56	FOODEEG_Images\0586.jpg	YN	Right	No	0.525657600024715	0	588367	252
1151.21484375	0.525657600024715	taste	choicePhaseStart	3	161	41	foodImage.56	FOODEEG_Images\0586.jpg	YN	Right	No	0.525657600024715	0	589423	253
1151.73046875	0	taste	response	3	161	41	foodImage.56	FOODEEG_Images\0586.jpg	YN	Right	No	0.525657600024715	0	589687	235
1152.7734375	1	health	trialStart	3	162	42	foodImage.93	FOODEEG_Images\0901.jpg	NY	Left	No	0.448916800087318	0	590221	251
1153.810546875	2	health	foodImageDisplay	3	162	42	foodImage.93	FOODEEG_Images\0901.jpg	NY	Left	No	0.448916800087318	0	590752	252
1155.875	0.448916800087318	health	choicePhaseStart	3	162	42	foodImage.93	FOODEEG_Images\0901.jpg	NY	Left	No	0.448916800087318	0	591809	253
1156.314453125	0	health	response	3	162	42	foodImage.93	FOODEEG_Images\0901.jpg	NY	Left	No	0.448916800087318	0	592034	234
1157.357421875	1	health	trialStart	3	163	43	foodImage.95	FOODEEG_Images\0903.jpg	YN	Right	No	0.507711699930951	0	592568	251
1158.39453125	2	health	foodImageDisplay	3	163	43	foodImage.95	FOODEEG_Images\0903.jpg	YN	Right	No	0.507711699930951	0	593099	252
1160.45703125	0.507711699930951	health	choicePhaseStart	3	163	43	foodImage.95	FOODEEG_Images\0903.jpg	YN	Right	No	0.507711699930951	0	594155	253
1160.953125	0	health	response	3	163	43	foodImage.95	FOODEEG_Images\0903.jpg	YN	Right	No	0.507711699930951	0	594409	235
1161.99609375	1	decision	trialStart	3	164	44	foodImage.18	FOODEEG_Images\0202.jpg	YN	Left	Yes	0.528933999827132	0	594943	251
1163.068359375	2	decision	foodImageDisplay	3	164	44	foodImage.18	FOODEEG_Images\0202.jpg	YN	Left	Yes	0.528933999827132	0	595492	252
1165.130859375	0.528933999827132	decision	choicePhaseStart	3	164	44	foodImage.18	FOODEEG_Images\0202.jpg	YN	Left	Yes	0.528933999827132	0	596548	253
1165.650390625	0	decision	response	3	164	44	foodImage.18	FOODEEG_Images\0202.jpg	YN	Left	Yes	0.528933999827132	0	596814	234
1166.693359375	1	decision	trialStart	3	165	45	foodImage.66	FOODEEG_Images\0676.jpg	NY	Right	Yes	0.366721299942583	0	597348	251
1167.734375	2	decision	foodImageDisplay	3	165	45	foodImage.66	FOODEEG_Images\0676.jpg	NY	Right	Yes	0.366721299942583	0	597881	252
1169.796875	0.366721299942583	decision	choicePhaseStart	3	165	45	foodImage.66	FOODEEG_Images\0676.jpg	NY	Right	Yes	0.366721299942583	0	598937	253
1170.154296875	0	decision	response	3	165	45	foodImage.66	FOODEEG_Images\0676.jpg	NY	Right	Yes	0.366721299942583	0	599120	235
1171.197265625	1	health	trialStart	3	166	46	foodImage.6	FOODEEG_Images\0113.jpg	NY	Right	Yes	0.469220499973744	0	599654	251
1172.23828125	2	health	foodImageDisplay	3	166	46	foodImage.6	FOODEEG_Images\0113.jpg	NY	Right	Yes	0.469220499973744	0	600187	252
1174.30078125	0.469220499973744	health	choicePhaseStart	3	166	46	foodImage.6	FOODEEG_Images\0113.jpg	NY	Right	Yes	0.469220499973744	0	601243	253
1174.76171875	0	health	response	3	166	46	foodImage.6	FOODEEG_Images\0113.jpg	NY	Right	Yes	0.469220499973744	0	601479	235
1175.8046875	1	taste	trialStart	3	167	47	foodImage.117	FOODEEG_Images\0925.jpg	YN	Right	No	0.590708200121298	0	602013	251
1176.841796875	2	taste	foodImageDisplay	3	167	47	foodImage.117	FOODEEG_Images\0925.jpg	YN	Right	No	0.590708200121298	0	602544	252
1178.908203125	0.590708200121298	taste	choicePhaseStart	3	167	47	foodImage.117	FOODEEG_Images\0925.jpg	YN	Right	No	0.590708200121298	0	603602	253
1179.490234375	0	taste	response	3	167	47	foodImage.117	FOODEEG_Images\0925.jpg	YN	Right	No	0.590708200121298	0	603900	235
1180.533203125	1	taste	trialStart	3	168	48	foodImage.10	FOODEEG_Images\0145.jpg	NY	Right	Yes	0.667363099986687	0	604434	251
1181.591796875	2	taste	foodImageDisplay	3	168	48	foodImage.10	FOODEEG_Images\0145.jpg	NY	Right	Yes	0.667363099986687	0	604976	252
1183.654296875	0.667363099986687	taste	choicePhaseStart	3	168	48	foodImage.10	FOODEEG_Images\0145.jpg	NY	Right	Yes	0.667363099986687	0	606032	253
1184.3125	0	taste	response	3	168	48	foodImage.10	FOODEEG_Images\0145.jpg	NY	Right	Yes	0.667363099986687	0	606369	235
1185.35546875	1	taste	trialStart	3	169	49	foodImage.11	FOODEEG_Images\0180.jpg	YN	Right	No	0.768666199874133	0	606903	251
1186.396484375	2	taste	foodImageDisplay	3	169	49	foodImage.11	FOODEEG_Images\0180.jpg	YN	Right	No	0.768666199874133	0	607436	252
1188.458984375	0.768666199874133	taste	choicePhaseStart	3	169	49	foodImage.11	FOODEEG_Images\0180.jpg	YN	Right	No	0.768666199874133	0	608492	253
1189.216796875	0	taste	response	3	169	49	foodImage.11	FOODEEG_Images\0180.jpg	YN	Right	No	0.768666199874133	0	608880	235
1190.259765625	1	decision	trialStart	3	170	50	foodImage.3	FOODEEG_Images\0046.jpg	YN	Left	Yes	0.758004500064999	0	609414	251
1191.302734375	2	decision	foodImageDisplay	3	170	50	foodImage.3	FOODEEG_Images\0046.jpg	YN	Left	Yes	0.758004500064999	0	609948	252
1193.365234375	0.758004500064999	decision	choicePhaseStart	3	170	50	foodImage.3	FOODEEG_Images\0046.jpg	YN	Left	Yes	0.758004500064999	0	611004	253
1194.11328125	0	decision	response	3	170	50	foodImage.3	FOODEEG_Images\0046.jpg	YN	Left	Yes	0.758004500064999	0	611387	234
1195.154296875	1	decision	trialStart	3	171	51	foodImage.56	FOODEEG_Images\0586.jpg	YN	Right	No	0.633503300137818	0	611920	251
1196.21875	2	decision	foodImageDisplay	3	171	51	foodImage.56	FOODEEG_Images\0586.jpg	YN	Right	No	0.633503300137818	0	612465	252
1198.28125	0.633503300137818	decision	choicePhaseStart	3	171	51	foodImage.56	FOODEEG_Images\0586.jpg	YN	Right	No	0.633503300137818	0	613521	253
1198.904296875	0	decision	response	3	171	51	foodImage.56	FOODEEG_Images\0586.jpg	YN	Right	No	0.633503300137818	0	613840	235
1199.955078125	1	health	trialStart	3	172	52	foodImage.92	FOODEEG_Images\0900.jpg	NY	Left	No	0.498054599855095	0	614378	251
1200.9921875	2	health	foodImageDisplay	3	172	52	foodImage.92	FOODEEG_Images\0900.jpg	NY	Left	No	0.498054599855095	0	614909	252
1203.056640625	0.498054599855095	health	choicePhaseStart	3	172	52	foodImage.92	FOODEEG_Images\0900.jpg	NY	Left	No	0.498054599855095	0	615966	253
1203.544921875	0	health	response	3	172	52	foodImage.92	FOODEEG_Images\0900.jpg	NY	Left	No	0.498054599855095	0	616216	234
1204.5859375	1	health	trialStart	3	173	53	foodImage.45	FOODEEG_Images\0478.jpg	NY	Right	Yes	0.781782099977136	0	616749	251
1205.630859375	2	health	foodImageDisplay	3	173	53	foodImage.45	FOODEEG_Images\0478.jpg	NY	Right	Yes	0.781782099977136	0	617284	252
1207.693359375	0.781782099977136	health	choicePhaseStart	3	173	53	foodImage.45	FOODEEG_Images\0478.jpg	NY	Right	Yes	0.781782099977136	0	618340	253
1208.46484375	0	health	response	3	173	53	foodImage.45	FOODEEG_Images\0478.jpg	NY	Right	Yes	0.781782099977136	0	618735	235
1209.505859375	1	health	trialStart	3	174	54	foodImage.105	FOODEEG_Images\0913.jpg	YN	Right	No	0.498465599957854	0	619268	251
1210.544921875	2	health	foodImageDisplay	3	174	54	foodImage.105	FOODEEG_Images\0913.jpg	YN	Right	No	0.498465599957854	0	619800	252
1212.607421875	0.498465599957854	health	choicePhaseStart	3	174	54	foodImage.105	FOODEEG_Images\0913.jpg	YN	Right	No	0.498465599957854	0	620856	253
1213.095703125	0	health	response	3	174	54	foodImage.105	FOODEEG_Images\0913.jpg	YN	Right	No	0.498465599957854	0	621106	235
1214.1484375	1	taste	trialStart	3	175	55	foodImage.64	FOODEEG_Images\0647.jpg	NY	Right	Yes	0.460058000171557	0	621645	251
1215.20703125	2	taste	foodImageDisplay	3	175	55	foodImage.64	FOODEEG_Images\0647.jpg	NY	Right	Yes	0.460058000171557	0	622187	252
1217.26953125	0.460058000171557	taste	choicePhaseStart	3	175	55	foodImage.64	FOODEEG_Images\0647.jpg	NY	Right	Yes	0.460058000171557	0	623243	253
1217.720703125	0	taste	response	3	175	55	foodImage.64	FOODEEG_Images\0647.jpg	NY	Right	Yes	0.460058000171557	0	623474	235
1218.763671875	1	taste	trialStart	3	176	56	foodImage.51	FOODEEG_Images\0536.jpg	YN	Right	No	0.43493889993988	0	624008	251
1219.806640625	2	taste	foodImageDisplay	3	176	56	foodImage.51	FOODEEG_Images\0536.jpg	YN	Right	No	0.43493889993988	0	624542	252
1221.869140625	0.43493889993988	taste	choicePhaseStart	3	176	56	foodImage.51	FOODEEG_Images\0536.jpg	YN	Right	No	0.43493889993988	0	625598	253
1222.294921875	0	taste	response	3	176	56	foodImage.51	FOODEEG_Images\0536.jpg	YN	Right	No	0.43493889993988	0	625816	235
1223.33984375	1	health	trialStart	3	177	57	foodImage.111	FOODEEG_Images\0919.jpg	YN	Right	No	0.447767599951476	0	626351	251
1224.38671875	2	health	foodImageDisplay	3	177	57	foodImage.111	FOODEEG_Images\0919.jpg	YN	Right	No	0.447767599951476	0	626887	252
1226.44921875	0.447767599951476	health	choicePhaseStart	3	177	57	foodImage.111	FOODEEG_Images\0919.jpg	YN	Right	No	0.447767599951476	0	627943	253
1226.888671875	0	health	response	3	177	57	foodImage.111	FOODEEG_Images\0919.jpg	YN	Right	No	0.447767599951476	0	628168	235
1227.93359375	1	taste	trialStart	3	178	58	foodImage.74	FOODEEG_Images\0752.jpg	YN	Left	Yes	0.569174200063571	0	628703	251
1228.9765625	2	taste	foodImageDisplay	3	178	58	foodImage.74	FOODEEG_Images\0752.jpg	YN	Left	Yes	0.569174200063571	0	629237	252
1231.0390625	0.569174200063571	taste	choicePhaseStart	3	178	58	foodImage.74	FOODEEG_Images\0752.jpg	YN	Left	Yes	0.569174200063571	0	630293	253
1231.599609375	0	taste	response	3	178	58	foodImage.74	FOODEEG_Images\0752.jpg	YN	Left	Yes	0.569174200063571	0	630580	234
1232.642578125	1	health	trialStart	3	179	59	foodImage.59	FOODEEG_Images\0607.jpg	YN	Left	Yes	0.904637200059369	0	631114	251
1233.6875	2	health	foodImageDisplay	3	179	59	foodImage.59	FOODEEG_Images\0607.jpg	YN	Left	Yes	0.904637200059369	0	631649	252
1235.75	0.904637200059369	health	choicePhaseStart	3	179	59	foodImage.59	FOODEEG_Images\0607.jpg	YN	Left	Yes	0.904637200059369	0	632705	253
1236.646484375	0	health	response	3	179	59	foodImage.59	FOODEEG_Images\0607.jpg	YN	Left	Yes	0.904637200059369	0	633164	234
1237.693359375	1	decision	trialStart	3	180	60	foodImage.41	FOODEEG_Images\0409.jpg	YN	Left	Yes	0.557729199994355	0	633700	251
1238.740234375	2	decision	foodImageDisplay	3	180	60	foodImage.41	FOODEEG_Images\0409.jpg	YN	Left	Yes	0.557729199994355	0	634236	252
1240.802734375	0.557729199994355	decision	choicePhaseStart	3	180	60	foodImage.41	FOODEEG_Images\0409.jpg	YN	Left	Yes	0.557729199994355	0	635292	253
1241.3515625	0	decision	response	3	180	60	foodImage.41	FOODEEG_Images\0409.jpg	YN	Left	Yes	0.557729199994355	0	635573	234
1243.3984375	62.0390625	n/a	blockEnd	n/a	n/a	n/a	n/a	n/a	n/a	n/a	n/a	n/a	n/a	636621	254
1305.4375	2	n/a	blockStart	4	n/a	n/a	n/a	n/a	n/a	n/a	n/a	n/a	n/a	668385	250
1307.470703125	1	decision	trialStart	4	181	1	foodImage.5	FOODEEG_Images\0107.jpg	YN	Right	No	0.491910699987784	0	669426	251
1308.529296875	2	decision	foodImageDisplay	4	181	1	foodImage.5	FOODEEG_Images\0107.jpg	YN	Right	No	0.491910699987784	0	669968	252
1310.59375	0.491910699987784	decision	choicePhaseStart	4	181	1	foodImage.5	FOODEEG_Images\0107.jpg	YN	Right	No	0.491910699987784	0	671025	253
1311.076171875	0	decision	response	4	181	1	foodImage.5	FOODEEG_Images\0107.jpg	YN	Right	No	0.491910699987784	0	671272	235
1312.125	1	taste	trialStart	4	182	2	foodImage.101	FOODEEG_Images\0909.jpg	YN	Right	No	0.41907209996134	0	671809	251
1313.1640625	2	taste	foodImageDisplay	4	182	2	foodImage.101	FOODEEG_Images\0909.jpg	YN	Right	No	0.41907209996134	0	672341	252
1315.2265625	0.41907209996134	taste	choicePhaseStart	4	182	2	foodImage.101	FOODEEG_Images\0909.jpg	YN	Right	No	0.41907209996134	0	673397	253
1315.63671875	0	taste	response	4	182	2	foodImage.101	FOODEEG_Images\0909.jpg	YN	Right	No	0.41907209996134	0	673607	235
1316.6796875	1	decision	trialStart	4	183	3	foodImage.79	FOODEEG_Images\0794.jpg	NY	Left	No	1.77980399993248	0	674141	251
1317.72265625	2	decision	foodImageDisplay	4	183	3	foodImage.79	FOODEEG_Images\0794.jpg	NY	Left	No	1.77980399993248	0	674675	252
1319.78515625	1.77980399993248	decision	choicePhaseStart	4	183	3	foodImage.79	FOODEEG_Images\0794.jpg	NY	Left	No	1.77980399993248	0	675731	253
1321.556640625	0	decision	response	4	183	3	foodImage.79	FOODEEG_Images\0794.jpg	NY	Left	No	1.77980399993248	0	676638	234
1322.59765625	1	taste	trialStart	4	184	4	foodImage.95	FOODEEG_Images\0903.jpg	YN	Right	No	0.425105400150642	0	677171	251
1323.63671875	2	taste	foodImageDisplay	4	184	4	foodImage.95	FOODEEG_Images\0903.jpg	YN	Right	No	0.425105400150642	0	677703	252
1325.69921875	0.425105400150642	taste	choicePhaseStart	4	184	4	foodImage.95	FOODEEG_Images\0903.jpg	YN	Right	No	0.425105400150642	0	678759	253
1326.115234375	0	taste	response	4	184	4	foodImage.95	FOODEEG_Images\0903.jpg	YN	Right	No	0.425105400150642	0	678972	235
1327.158203125	1	decision	trialStart	4	185	5	foodImage.61	FOODEEG_Images\0640.jpg	NY	Right	Yes	1.33337370003574	0	679506	251
1328.201171875	2	decision	foodImageDisplay	4	185	5	foodImage.61	FOODEEG_Images\0640.jpg	NY	Right	Yes	1.33337370003574	0	680040	252
1330.263671875	1.33337370003574	decision	choicePhaseStart	4	185	5	foodImage.61	FOODEEG_Images\0640.jpg	NY	Right	Yes	1.33337370003574	0	681096	253
1331.587890625	0	decision	response	4	185	5	foodImage.61	FOODEEG_Images\0640.jpg	NY	Right	Yes	1.33337370003574	0	681774	235
1332.64453125	1	decision	trialStart	4	186	6	foodImage.98	FOODEEG_Images\0906.jpg	NY	Left	No	0.436019100015983	0	682315	251
1333.681640625	2	decision	foodImageDisplay	4	186	6	foodImage.98	FOODEEG_Images\0906.jpg	NY	Left	No	0.436019100015983	0	682846	252
1335.744140625	0.436019100015983	decision	choicePhaseStart	4	186	6	foodImage.98	FOODEEG_Images\0906.jpg	NY	Left	No	0.436019100015983	0	683902	253
1336.171875	0	decision	response	4	186	6	foodImage.98	FOODEEG_Images\0906.jpg	NY	Left	No	0.436019100015983	0	684121	234
1337.212890625	1	taste	trialStart	4	187	7	foodImage.120	FOODEEG_Images\0928.jpg	NY	Left	No	0.424978900002316	0	684654	251
1338.259765625	2	taste	foodImageDisplay	4	187	7	foodImage.120	FOODEEG_Images\0928.jpg	NY	Left	No	0.424978900002316	0	685190	252
1340.322265625	0.424978900002316	taste	choicePhaseStart	4	187	7	foodImage.120	FOODEEG_Images\0928.jpg	NY	Left	No	0.424978900002316	0	686246	253
1340.73828125	0	taste	response	4	187	7	foodImage.120	FOODEEG_Images\0928.jpg	NY	Left	No	0.424978900002316	0	686459	234
1341.78125	1	health	trialStart	4	188	8	foodImage.115	FOODEEG_Images\0923.jpg	YN	Right	No	0.400713900104165	0	686993	251
1342.8203125	2	health	foodImageDisplay	4	188	8	foodImage.115	FOODEEG_Images\0923.jpg	YN	Right	No	0.400713900104165	0	687525	252
1344.8828125	0.400713900104165	health	choicePhaseStart	4	188	8	foodImage.115	FOODEEG_Images\0923.jpg	YN	Right	No	0.400713900104165	0	688581	253
1345.275390625	0	health	response	4	188	8	foodImage.115	FOODEEG_Images\0923.jpg	YN	Right	No	0.400713900104165	0	688782	235
1346.318359375	1	decision	trialStart	4	189	9	foodImage.93	FOODEEG_Images\0901.jpg	NY	Left	No	0.387234900146723	0	689316	251
1347.35546875	2	decision	foodImageDisplay	4	189	9	foodImage.93	FOODEEG_Images\0901.jpg	NY	Left	No	0.387234900146723	0	689847	252
1349.416015625	0.387234900146723	decision	choicePhaseStart	4	189	9	foodImage.93	FOODEEG_Images\0901.jpg	NY	Left	No	0.387234900146723	0	690902	253
1349.794921875	0	decision	response	4	189	9	foodImage.93	FOODEEG_Images\0901.jpg	NY	Left	No	0.387234900146723	0	691096	234
1350.837890625	1	taste	trialStart	4	190	10	foodImage.27	FOODEEG_Images\0263.jpg	NY	Right	Yes	0.405724599957466	0	691630	251
1351.87890625	2	taste	foodImageDisplay	4	190	10	foodImage.27	FOODEEG_Images\0263.jpg	NY	Right	Yes	0.405724599957466	0	692163	252
1353.94140625	0.405724599957466	taste	choicePhaseStart	4	190	10	foodImage.27	FOODEEG_Images\0263.jpg	NY	Right	Yes	0.405724599957466	0	693219	253
1354.337890625	0	taste	response	4	190	10	foodImage.27	FOODEEG_Images\0263.jpg	NY	Right	Yes	0.405724599957466	0	693422	235
1355.3984375	1	taste	trialStart	4	191	11	foodImage.3	FOODEEG_Images\0046.jpg	NY	Right	Yes	0.381835700012743	0	693965	251
1356.439453125	2	taste	foodImageDisplay	4	191	11	foodImage.3	FOODEEG_Images\0046.jpg	NY	Right	Yes	0.381835700012743	0	694498	252
1358.501953125	0.381835700012743	taste	choicePhaseStart	4	191	11	foodImage.3	FOODEEG_Images\0046.jpg	NY	Right	Yes	0.381835700012743	0	695554	253
1358.875	0	taste	response	4	191	11	foodImage.3	FOODEEG_Images\0046.jpg	NY	Right	Yes	0.381835700012743	0	695745	235
1359.916015625	1	decision	trialStart	4	192	12	foodImage.1	FOODEEG_Images\0004.jpg	NY	Right	Yes	1.16804470005445	0	696278	251
1360.95703125	2	decision	foodImageDisplay	4	192	12	foodImage.1	FOODEEG_Images\0004.jpg	NY	Right	Yes	1.16804470005445	0	696811	252
1363.01953125	1.16804470005445	decision	choicePhaseStart	4	192	12	foodImage.1	FOODEEG_Images\0004.jpg	NY	Right	Yes	1.16804470005445	0	697867	253
