onset	duration	trial_type	event_type	block	trial_total	trial_in_block	food_image_code	food_image_path	button_position	resp_position	resp_choice	choice_rt	resp_too_slow	sample	trigger
320.828125	2	n/a	blockStart	1	n/a	n/a	n/a	n/a	n/a	n/a	n/a	n/a	n/a	164265	250
322.865234375	1	health	trialStart	1	1	1	foodImage.119	FOODEEG_Images\0927.jpg	NY	Left	No	0.991587900000013	0	165308	251
323.908203125	2	health	foodImageDisplay	1	1	1	foodImage.119	FOODEEG_Images\0927.jpg	NY	Left	No	0.991587900000013	0	165842	252
325.97265625	0.991587900000013	health	choicePhaseStart	1	1	1	foodImage.119	FOODEEG_Images\0927.jpg	NY	Left	No	0.991587900000013	0	166899	253
326.95703125	0	health	response	1	1	1	foodImage.119	FOODEEG_Images\0927.jpg	NY	Left	No	0.991587900000013	0	167403	234
328.0625	1	health	trialStart	1	2	2	foodImage.61	FOODEEG_Images\0640.jpg	YN	Left	Yes	0.772068400001444	0	167969	251
329.107421875	2	health	foodImageDisplay	1	2	2	foodImage.61	FOODEEG_Images\0640.jpg	YN	Left	Yes	0.772068400001444	0	168504	252
331.177734375	0.772068400001444	health	choicePhaseStart	1	2	2	foodImage.61	FOODEEG_Images\0640.jpg	YN	Left	Yes	0.772068400001444	0	169564	253
331.94140625	0	health	response	1	2	2	foodImage.61	FOODEEG_Images\0640.jpg	YN	Left	Yes	0.772068400001444	0	169955	234
332.99609375	1	health	trialStart	1	3	3	foodImage.23	FOODEEG_Images\0244.jpg	NY	Right	Yes	4.33711390000099	0	170495	251
334.037109375	2	health	foodImageDisplay	1	3	3	foodImage.23	FOODEEG_Images\0244.jpg	NY	Right	Yes	4.33711390000099	0	171028	252
336.1015625	4.33711390000099	health	choicePhaseStart	1	3	3	foodImage.23	FOODEEG_Images\0244.jpg	NY	Right	Yes	4.33711390000099	0	172085	253
340.4296875	0	health	response	1	3	3	foodImage.23	FOODEEG_Images\0244.jpg	NY	Right	Yes	4.33711390000099	0	174301	235
341.47265625	1	decision	trialStart	1	4	4	foodImage.119	FOODEEG_Images\0927.jpg	NY	Left	No	0.829155200000969	0	174835	251
342.51171875	2	decision	foodImageDisplay	1	4	4	foodImage.119	FOODEEG_Images\0927.jpg	NY	Left	No	0.829155200000969	0	175367	252
344.576171875	0.829155200000969	decision	choicePhaseStart	1	4	4	foodImage.119	FOODEEG_Images\0927.jpg	NY	Left	No	0.829155200000969	0	176424	253
345.396484375	0	decision	response	1	4	4	foodImage.119	FOODEEG_Images\0927.jpg	NY	Left	No	0.829155200000969	0	176844	234
346.44140625	1	taste	trialStart	1	5	5	foodImage.91	FOODEEG_Images\0896.jpg	YN	Left	Yes	0.723900500001037	0	177379	251
347.501953125	2	taste	foodImageDisplay	1	5	5	foodImage.91	FOODEEG_Images\0896.jpg	YN	Left	Yes	0.723900500001037	0	177922	252
349.568359375	0.723900500001037	taste	choicePhaseStart	1	5	5	foodImage.91	FOODEEG_Images\0896.jpg	YN	Left	Yes	0.723900500001037	0	178980	253
350.28515625	0	taste	response	1	5	5	foodImage.91	FOODEEG_Images\0896.jpg	YN	Left	Yes	0.723900500001037	0	179347	234
351.337890625	1	health	trialStart	1	6	6	foodImage.76	FOODEEG_Images\0766.jpg	YN	Left	Yes	0.545805100002326	0	179886	251
352.3828125	2	health	foodImageDisplay	1	6	6	foodImage.76	FOODEEG_Images\0766.jpg	YN	Left	Yes	0.545805100002326	0	180421	252
354.44921875	0.545805100002326	health	choicePhaseStart	1	6	6	foodImage.76	FOODEEG_Images\0766.jpg	YN	Left	Yes	0.545805100002326	0	181479	253
354.98828125	0	health	response	1	6	6	foodImage.76	FOODEEG_Images\0766.jpg	YN	Left	Yes	0.545805100002326	0	181755	234
356.03515625	1	decision	trialStart	1	7	7	foodImage.114	FOODEEG_Images\0922.jpg	YN	Right	No	0.852157400000578	0	182291	251
357.072265625	2	decision	foodImageDisplay	1	7	7	foodImage.114	FOODEEG_Images\0922.jpg	YN	Right	No	0.852157400000578	0	182822	252
359.13671875	0.852157400000578	decision	choicePhaseStart	1	7	7	foodImage.114	FOODEEG_Images\0922.jpg	YN	Right	No	0.852157400000578	0	183879	253
359.98046875	0	decision	response	1	7	7	foodImage.114	FOODEEG_Images\0922.jpg	YN	Right	No	0.852157400000578	0	184311	235
361.021484375	1	decision	trialStart	1	8	8	foodImage.97	FOODEEG_Images\0905.jpg	NY	Left	No	0.608006699996622	0	184844	251
362.060546875	2	decision	foodImageDisplay	1	8	8	foodImage.97	FOODEEG_Images\0905.jpg	NY	Left	No	0.608006699996622	0	185376	252
364.125	0.608006699996622	decision	choicePhaseStart	1	8	8	foodImage.97	FOODEEG_Images\0905.jpg	NY	Left	No	0.608006699996622	0	186433	253
364.724609375	0	decision	response	1	8	8	foodImage.97	FOODEEG_Images\0905.jpg	NY	Left	No	0.608006699996622	0	186740	234
365.765625	1	taste	trialStart	1	9	9	foodImage.51	FOODEEG_Images\0536.jpg	YN	Left	Yes	1.13606319999963	0	187273	251
366.810546875	2	taste	foodImageDisplay	1	9	9	foodImage.51	FOODEEG_Images\0536.jpg	YN	Left	Yes	1.13606319999963	0	187808	252
368.875	1.13606319999963	taste	choicePhaseStart	1	9	9	foodImage.51	FOODEEG_Images\0536.jpg	YN	Left	Yes	1.13606319999963	0	188865	253
370.00390625	0	taste	response	1	9	9	foodImage.51	FOODEEG_Images\0536.jpg	YN	Left	Yes	1.13606319999963	0	189443	234
371.05078125	1	health	trialStart	1	10	10	foodImage.109	FOODEEG_Images\0917.jpg	YN	Right	No	0.786352900002385	0	189979	251
372.087890625	2	health	foodImageDisplay	1	10	10	foodImage.109	FOODEEG_Images\0917.jpg	YN	Right	No	0.786352900002385	0	190510	252
374.15234375	0.786352900002385	health	choicePhaseStart	1	10	10	foodImage.109	FOODEEG_Images\0917.jpg	YN	Right	No	0.786352900002385	0	191567	253
374.931640625	0	health	response	1	10	10	foodImage.109	FOODEEG_Images\0917.jpg	YN	Right	No	0.786352900002385	0	191966	235
375.974609375	1	decision	trialStart	1	11	11	foodImage.80	FOODEEG_Images\0796.jpg	YN	Left	Yes	0.788225399999646	0	192500	251
377.029296875	2	decision	foodImageDisplay	1	11	11	foodImage.80	FOODEEG_Images\0796.jpg	YN	Left	Yes	0.788225399999646	0	193040	252
379.09375	0.788225399999646	decision	choicePhaseStart	1	11	11	foodImage.80	FOODEEG_Images\0796.jpg	YN	Left	Yes	0.788225399999646	0	194097	253
379.875	0	decision	response	1	11	11	foodImage.80	FOODEEG_Images\0796.jpg	YN	Left	Yes	0.788225399999646	0	194497	234
380.91796875	1	health	trialStart	1	12	12	foodImage.72	FOODEEG_Images\0714.jpg	NY	Left	No	1.44205109999893	0	195031	251
381.958984375	2	health	foodImageDisplay	1	12	12	foodImage.72	FOODEEG_Images\0714.jpg	NY	Left	No	1.44205109999893	0	195564	252
384.0234375	1.44205109999893	health	choicePhaseStart	1	12	12	foodImage.72	FOODEEG_Images\0714.jpg	NY	Left	No	1.44205109999893	0	196621	253
385.458984375	0	health	response	1	12	12	foodImage.72	FOODEEG_Images\0714.jpg	NY	Left	No	1.44205109999893	0	197356	234
386.501953125	1	health	trialStart	1	13	13	foodImage.71	FOODEEG_Images\0713.jpg	YN	Right	No	0.692518599997129	0	197890	251
387.54296875	2	health	foodImageDisplay	1	13	13	foodImage.71	FOODEEG_Images\0713.jpg	YN	Right	No	0.692518599997129	0	198423	252
389.607421875	0.692518599997129	health	choicePhaseStart	1	13	13	foodImage.71	FOODEEG_Images\0713.jpg	YN	Right	No	0.692518599997129	0	199480	253
390.291015625	0	health	response	1	13	13	foodImage.71	FOODEEG_Images\0713.jpg	YN	Right	No	0.692518599997129	0	199830	235
391.330078125	1	health	trialStart	1	14	14	foodImage.44	FOODEEG_Images\0459.jpg	NY	Right	Yes	1.81164600000193	0	200362	251
392.376953125	2	health	foodImageDisplay	1	14	14	foodImage.44	FOODEEG_Images\0459.jpg	NY	Right	Yes	1.81164600000193	0	200898	252
394.439453125	1.81164600000193	health	choicePhaseStart	1	14	14	foodImage.44	FOODEEG_Images\0459.jpg	NY	Right	Yes	1.81164600000193	0	201954	253
396.244140625	0	health	response	1	14	14	foodImage.44	FOODEEG_Images\0459.jpg	NY	Right	Yes	1.81164600000193	0	202878	235
397.287109375	1	taste	trialStart	1	15	15	foodImage.70	FOODEEG_Images\0705.jpg	NY	Right	Yes	1.21941860000152	0	203412	251
398.34375	2	taste	foodImageDisplay	1	15	15	foodImage.70	FOODEEG_Images\0705.jpg	NY	Right	Yes	1.21941860000152	0	203953	252
400.408203125	1.21941860000152	taste	choicePhaseStart	1	15	15	foodImage.70	FOODEEG_Images\0705.jpg	NY	Right	Yes	1.21941860000152	0	205010	253
401.619140625	0	taste	response	1	15	15	foodImage.70	FOODEEG_Images\0705.jpg	NY	Right	Yes	1.21941860000152	0	205630	235
402.66015625	1	decision	trialStart	1	16	16	foodImage.75	FOODEEG_Images\0763.jpg	YN	Left	Yes	0.939903100002994	0	206163	251
403.703125	2	decision	foodImageDisplay	1	16	16	foodImage.75	FOODEEG_Images\0763.jpg	YN	Left	Yes	0.939903100002994	0	206697	252
405.767578125	0.939903100002994	decision	choicePhaseStart	1	16	16	foodImage.75	FOODEEG_Images\0763.jpg	YN	Left	Yes	0.939903100002994	0	207754	253
406.697265625	0	decision	response	1	16	16	foodImage.75	FOODEEG_Images\0763.jpg	YN	Left	Yes	0.939903100002994	0	208230	234
407.740234375	1	health	trialStart	1	17	17	foodImage.3	FOODEEG_Images\0046.jpg	NY	Left	No	1.14798039999732	0	208764	251
408.783203125	2	health	foodImageDisplay	1	17	17	foodImage.3	FOODEEG_Images\0046.jpg	NY	Left	No	1.14798039999732	0	209298	252
410.84765625	1.14798039999732	health	choicePhaseStart	1	17	17	foodImage.3	FOODEEG_Images\0046.jpg	NY	Left	No	1.14798039999732	0	210355	253
411.986328125	0	health	response	1	17	17	foodImage.3	FOODEEG_Images\0046.jpg	NY	Left	No	1.14798039999732	0	210938	234
413.02734375	1	health	trialStart	1	18	18	foodImage.94	FOODEEG_Images\0902.jpg	NY	Left	No	1.00579990000188	0	211471	251
414.064453125	2	health	foodImageDisplay	1	18	18	foodImage.94	FOODEEG_Images\0902.jpg	NY	Left	No	1.00579990000188	0	212002	252
416.1328125	1.00579990000188	health	choicePhaseStart	1	18	18	foodImage.94	FOODEEG_Images\0902.jpg	NY	Left	No	1.00579990000188	0	213061	253
417.12890625	0	health	response	1	18	18	foodImage.94	FOODEEG_Images\0902.jpg	NY	Left	No	1.00579990000188	0	213571	234
418.171875	1	health	trialStart	1	19	19	foodImage.55	FOODEEG_Images\0567.jpg	YN	Left	Yes	0.615648100003455	0	214105	251
419.2265625	2	health	foodImageDisplay	1	19	19	foodImage.55	FOODEEG_Images\0567.jpg	YN	Left	Yes	0.615648100003455	0	214645	252
421.291015625	0.615648100003455	health	choicePhaseStart	1	19	19	foodImage.55	FOODEEG_Images\0567.jpg	YN	Left	Yes	0.615648100003455	0	215702	253
421.896484375	0	health	response	1	19	19	foodImage.55	FOODEEG_Images\0567.jpg	YN	Left	Yes	0.615648100003455	0	216012	234
422.9375	1	taste	trialStart	1	20	20	foodImage.90	FOODEEG_Images\0890.jpg	YN	Left	Yes	0.640122200002224	0	216545	251
423.994140625	2	taste	foodImageDisplay	1	20	20	foodImage.90	FOODEEG_Images\0890.jpg	YN	Left	Yes	0.640122200002224	0	217086	252
426.05859375	0.640122200002224	taste	choicePhaseStart	1	20	20	foodImage.90	FOODEEG_Images\0890.jpg	YN	Left	Yes	0.640122200002224	0	218143	253
426.689453125	0	taste	response	1	20	20	foodImage.90	FOODEEG_Images\0890.jpg	YN	Left	Yes	0.640122200002224	0	218466	234
427.734375	1	decision	trialStart	1	21	21	foodImage.24	FOODEEG_Images\0250.jpg	NY	Right	Yes	0.882416100001137	0	219001	251
428.775390625	2	decision	foodImageDisplay	1	21	21	foodImage.24	FOODEEG_Images\0250.jpg	NY	Right	Yes	0.882416100001137	0	219534	252
430.83984375	0.882416100001137	decision	choicePhaseStart	1	21	21	foodImage.24	FOODEEG_Images\0250.jpg	NY	Right	Yes	0.882416100001137	0	220591	253
431.712890625	0	decision	response	1	21	21	foodImage.24	FOODEEG_Images\0250.jpg	NY	Right	Yes	0.882416100001137	0	221038	235
432.755859375	1	decision	trialStart	1	22	22	foodImage.33	FOODEEG_Images\0329.jpg	YN	Left	Yes	0.957869499998196	0	221572	251
433.796875	2	decision	foodImageDisplay	1	22	22	foodImage.33	FOODEEG_Images\0329.jpg	YN	Left	Yes	0.957869499998196	0	222105	252
435.865234375	0.957869499998196	decision	choicePhaseStart	1	22	22	foodImage.33	FOODEEG_Images\0329.jpg	YN	Left	Yes	0.957869499998196	0	223164	253
436.81640625	0	decision	response	1	22	22	foodImage.33	FOODEEG_Images\0329.jpg	YN	Left	Yes	0.957869499998196	0	223651	234
437.859375	1	taste	trialStart	1	23	23	foodImage.81	FOODEEG_Images\0797.jpg	NY	Left	No	0.955417099998158	0	224185	251
438.91796875	2	taste	foodImageDisplay	1	23	23	foodImage.81	FOODEEG_Images\0797.jpg	NY	Left	No	0.955417099998158	0	224727	252
440.982421875	0.955417099998158	taste	choicePhaseStart	1	23	23	foodImage.81	FOODEEG_Images\0797.jpg	NY	Left	No	0.955417099998158	0	225784	253
441.927734375	0	taste	response	1	23	23	foodImage.81	FOODEEG_Images\0797.jpg	NY	Left	No	0.955417099998158	0	226268	234
442.970703125	1	health	trialStart	1	24	24	foodImage.39	FOODEEG_Images\0367.jpg	YN	Right	No	0.926721100000577	0	226802	251
444.025390625	2	health	foodImageDisplay	1	24	24	foodImage.39	FOODEEG_Images\0367.jpg	YN	Right	No	0.926721100000577	0	227342	252
446.08984375	0.926721100000577	health	choicePhaseStart	1	24	24	foodImage.39	FOODEEG_Images\0367.jpg	YN	Right	No	0.926721100000577	0	228399	253
447.0078125	0	health	response	1	24	24	foodImage.39	FOODEEG_Images\0367.jpg	YN	Right	No	0.926721100000577	0	228869	235
448.048828125	1	taste	trialStart	1	25	25	foodImage.26	FOODEEG_Images\0262.jpg	NY	Left	No	1.33455210000102	0	229402	251
449.091796875	2	taste	foodImageDisplay	1	25	25	foodImage.26	FOODEEG_Images\0262.jpg	NY	Left	No	1.33455210000102	0	229936	252
451.154296875	1.33455210000102	taste	choicePhaseStart	1	25	25	foodImage.26	FOODEEG_Images\0262.jpg	NY	Left	No	1.33455210000102	0	230992	253
452.48046875	0	taste	response	1	25	25	foodImage.26	FOODEEG_Images\0262.jpg	NY	Left	No	1.33455210000102	0	231671	234
453.5234375	1	taste	trialStart	1	26	26	foodImage.76	FOODEEG_Images\0766.jpg	NY	Right	Yes	1.22157349999907	0	232205	251
454.56640625	2	taste	foodImageDisplay	1	26	26	foodImage.76	FOODEEG_Images\0766.jpg	NY	Right	Yes	1.22157349999907	0	232739	252
456.634765625	1.22157349999907	taste	choicePhaseStart	1	26	26	foodImage.76	FOODEEG_Images\0766.jpg	NY	Right	Yes	1.22157349999907	0	233798	253
457.84765625	0	taste	response	1	26	26	foodImage.76	FOODEEG_Images\0766.jpg	NY	Right	Yes	1.22157349999907	0	234419	235
458.888671875	1	taste	trialStart	1	27	27	foodImage.83	FOODEEG_Images\0827.jpg	YN	Right	No	0.67351570000028	0	234952	251
459.9453125	2	taste	foodImageDisplay	1	27	27	foodImage.83	FOODEEG_Images\0827.jpg	YN	Right	No	0.67351570000028	0	235493	252
462.0078125	0.67351570000028	taste	choicePhaseStart	1	27	27	foodImage.83	FOODEEG_Images\0827.jpg	YN	Right	No	0.67351570000028	0	236549	253
462.671875	0	taste	response	1	27	27	foodImage.83	FOODEEG_Images\0827.jpg	YN	Right	No	0.67351570000028	0	236889	235
463.71484375	1	decision	trialStart	1	28	28	foodImage.100	FOODEEG_Images\0908.jpg	YN	Right	No	0.672478100001172	0	237423	251
464.751953125	2	decision	foodImageDisplay	1	28	28	foodImage.100	FOODEEG_Images\0908.jpg	YN	Right	No	0.672478100001172	0	237954	252
466.81640625	0.672478100001172	decision	choicePhaseStart	1	28	28	foodImage.100	FOODEEG_Images\0908.jpg	YN	Right	No	0.672478100001172	0	239011	253
467.48046875	0	decision	response	1	28	28	foodImage.100	FOODEEG_Images\0908.jpg	YN	Right	No	0.672478100001172	0	239351	235
468.521484375	1	health	trialStart	1	29	29	foodImage.19	FOODEEG_Images\0225.jpg	YN	Left	Yes	0.663571599998249	0	239884	251
469.564453125	2	health	foodImageDisplay	1	29	29	foodImage.19	FOODEEG_Images\0225.jpg	YN	Left	Yes	0.663571599998249	0	240418	252
471.62890625	0.663571599998249	health	choicePhaseStart	1	29	29	foodImage.19	FOODEEG_Images\0225.jpg	YN	Left	Yes	0.663571599998249	0	241475	253
472.287109375	0	health	response	1	29	29	foodImage.19	FOODEEG_Images\0225.jpg	YN	Left	Yes	0.663571599998249	0	241812	234
473.330078125	1	health	trialStart	1	30	30	foodImage.67	FOODEEG_Images\0679.jpg	NY	Left	No	1.00871379999808	0	242346	251
474.38671875	2	health	foodImageDisplay	1	30	30	foodImage.67	FOODEEG_Images\0679.jpg	NY	Left	No	1.00871379999808	0	242887	252
476.455078125	1.00871379999808	health	choicePhaseStart	1	30	30	foodImage.67	FOODEEG_Images\0679.jpg	NY	Left	No	1.00871379999808	0	243946	253
477.455078125	0	health	response	1	30	30	foodImage.67	FOODEEG_Images\0679.jpg	NY	Left	No	1.00871379999808	0	244458	234
478.5	1	health	trialStart	1	31	31	foodImage.110	FOODEEG_Images\0918.jpg	NY	Left	No	0.799221000001126	0	244993	251
479.537109375	2	health	foodImageDisplay	1	31	31	foodImage.110	FOODEEG_Images\0918.jpg	NY	Left	No	0.799221000001126	0	245524	252
481.6015625	0.799221000001126	health	choicePhaseStart	1	31	31	foodImage.110	FOODEEG_Images\0918.jpg	NY	Left	No	0.799221000001126	0	246581	253
482.390625	0	health	response	1	31	31	foodImage.110	FOODEEG_Images\0918.jpg	NY	Left	No	0.799221000001126	0	246985	234
483.43359375	1	taste	trialStart	1	32	32	foodImage.74	FOODEEG_Images\0752.jpg	YN	Right	No	0.906739800000651	0	247519	251
484.4765625	2	taste	foodImageDisplay	1	32	32	foodImage.74	FOODEEG_Images\0752.jpg	YN	Right	No	0.906739800000651	0	248053	252
486.541015625	0.906739800000651	taste	choicePhaseStart	1	32	32	foodImage.74	FOODEEG_Images\0752.jpg	YN	Right	No	0.906739800000651	0	249110	253
487.439453125	0	taste	response	1	32	32	foodImage.74	FOODEEG_Images\0752.jpg	YN	Right	No	0.906739800000651	0	249570	235
488.478515625	1	taste	trialStart	1	33	33	foodImage.22	FOODEEG_Images\0236.jpg	NY	Right	Yes	0.584483600003296	0	250102	251
489.51953125	2	taste	foodImageDisplay	1	33	33	foodImage.22	FOODEEG_Images\0236.jpg	NY	Right	Yes	0.584483600003296	0	250635	252
491.583984375	0.584483600003296	taste	choicePhaseStart	1	33	33	foodImage.22	FOODEEG_Images\0236.jpg	NY	Right	Yes	0.584483600003296	0	251692	253
492.158203125	0	taste	response	1	33	33	foodImage.22	FOODEEG_Images\0236.jpg	NY	Right	Yes	0.584483600003296	0	251986	235
493.201171875	1	health	trialStart	1	34	34	foodImage.118	FOODEEG_Images\0926.jpg	NY	Left	No	0.99275729999863	0	252520	251
494.240234375	2	health	foodImageDisplay	1	34	34	foodImage.118	FOODEEG_Images\0926.jpg	NY	Left	No	0.99275729999863	0	253052	252
496.302734375	0.99275729999863	health	choicePhaseStart	1	34	34	foodImage.118	FOODEEG_Images\0926.jpg	NY	Left	No	0.99275729999863	0	254108	253
497.287109375	0	health	response	1	34	34	foodImage.118	FOODEEG_Images\0926.jpg	NY	Left	No	0.99275729999863	0	254612	234
498.328125	1	decision	trialStart	1	35	35	foodImage.84	FOODEEG_Images\0830.jpg	YN	Left	Yes	1.52412280000135	0	255145	251
499.38671875	2	decision	foodImageDisplay	1	35	35	foodImage.84	FOODEEG_Images\0830.jpg	YN	Left	Yes	1.52412280000135	0	255687	252
501.451171875	1.52412280000135	decision	choicePhaseStart	1	35	35	foodImage.84	FOODEEG_Images\0830.jpg	YN	Left	Yes	1.52412280000135	0	256744	253
502.96484375	0	decision	response	1	35	35	foodImage.84	FOODEEG_Images\0830.jpg	YN	Left	Yes	1.52412280000135	0	257519	234
504.005859375	1	taste	trialStart	1	36	36	foodImage.17	FOODEEG_Images\0199.jpg	NY	Right	Yes	0.953638299997692	0	258052	251
505.046875	2	taste	foodImageDisplay	1	36	36	foodImage.17	FOODEEG_Images\0199.jpg	NY	Right	Yes	0.953638299997692	0	258585	252
507.109375	0.953638299997692	taste	choicePhaseStart	1	36	36	foodImage.17	FOODEEG_Images\0199.jpg	NY	Right	Yes	0.953638299997692	0	259641	253
508.0546875	0	taste	response	1	36	36	foodImage.17	FOODEEG_Images\0199.jpg	NY	Right	Yes	0.953638299997692	0	260125	235
509.09765625	1	taste	trialStart	1	37	37	foodImage.45	FOODEEG_Images\0478.jpg	NY	Right	Yes	1.85522429999764	0	260659	251
510.142578125	2	taste	foodImageDisplay	1	37	37	foodImage.45	FOODEEG_Images\0478.jpg	NY	Right	Yes	1.85522429999764	0	261194	252
512.208984375	1.85522429999764	taste	choicePhaseStart	1	37	37	foodImage.45	FOODEEG_Images\0478.jpg	NY	Right	Yes	1.85522429999764	0	262252	253
514.052734375	0	taste	response	1	37	37	foodImage.45	FOODEEG_Images\0478.jpg	NY	Right	Yes	1.85522429999764	0	263196	235
515.095703125	1	health	trialStart	1	38	38	foodImage.26	FOODEEG_Images\0262.jpg	NY	Right	Yes	0.862362699997902	0	263730	251
516.13671875	2	health	foodImageDisplay	1	38	38	foodImage.26	FOODEEG_Images\0262.jpg	NY	Right	Yes	0.862362699997902	0	264263	252
518.201171875	0.862362699997902	health	choicePhaseStart	1	38	38	foodImage.26	FOODEEG_Images\0262.jpg	NY	Right	Yes	0.862362699997902	0	265320	253
519.052734375	0	health	response	1	38	38	foodImage.26	FOODEEG_Images\0262.jpg	NY	Right	Yes	0.862362699997902	0	265756	235
520.095703125	1	decision	trialStart	1	39	39	foodImage.58	FOODEEG_Images\0605.jpg	NY	Right	Yes	1.23303369999849	0	266290	251
521.154296875	2	decision	foodImageDisplay	1	39	39	foodImage.58	FOODEEG_Images\0605.jpg	NY	Right	Yes	1.23303369999849	0	266832	252
523.220703125	1.23303369999849	decision	choicePhaseStart	1	39	39	foodImage.58	FOODEEG_Images\0605.jpg	NY	Right	Yes	1.23303369999849	0	267890	253
524.4453125	0	decision	response	1	39	39	foodImage.58	FOODEEG_Images\0605.jpg	NY	Right	Yes	1.23303369999849	0	268517	235
525.48828125	1	taste	trialStart	1	40	40	foodImage.104	FOODEEG_Images\0912.jpg	NY	Left	No	0.887095699999918	0	269051	251
526.52734375	2	taste	foodImageDisplay	1	40	40	foodImage.104	FOODEEG_Images\0912.jpg	NY	Left	No	0.887095699999918	0	269583	252
528.591796875	0.887095699999918	taste	choicePhaseStart	1	40	40	foodImage.104	FOODEEG_Images\0912.jpg	NY	Left	No	0.887095699999918	0	270640	253
529.46875	0	taste	response	1	40	40	foodImage.104	FOODEEG_Images\0912.jpg	NY	Left	No	0.887095699999918	0	271089	234
530.51171875	1	decision	trialStart	1	41	41	foodImage.11	FOODEEG_Images\0180.jpg	NY	Right	Yes	0.501005199999781	0	271623	251
531.552734375	2	decision	foodImageDisplay	1	41	41	foodImage.11	FOODEEG_Images\0180.jpg	NY	Right	Yes	0.501005199999781	0	272156	252
533.6171875	0.501005199999781	decision	choicePhaseStart	1	41	41	foodImage.11	FOODEEG_Images\0180.jpg	NY	Right	Yes	0.501005199999781	0	273213	253
534.109375	0	decision	response	1	41	41	foodImage.11	FOODEEG_Images\0180.jpg	NY	Right	Yes	0.501005199999781	0	273465	235
535.154296875	1	health	trialStart	1	42	42	foodImage.89	FOODEEG_Images\0881.jpg	YN	Left	Yes	0.71266530000139	0	274000	251
536.2109375	2	health	foodImageDisplay	1	42	42	foodImage.89	FOODEEG_Images\0881.jpg	YN	Left	Yes	0.71266530000139	0	274541	252
538.2734375	0.71266530000139	health	choicePhaseStart	1	42	42	foodImage.89	FOODEEG_Images\0881.jpg	YN	Left	Yes	0.71266530000139	0	275597	253
538.98046875	0	health	response	1	42	42	foodImage.89	FOODEEG_Images\0881.jpg	YN	Left	Yes	0.71266530000139	0	275959	234
540.0234375	1	health	trialStart	1	43	43	foodImage.87	FOODEEG_Images\0873.jpg	YN	Left	Yes	0.769150099997205	0	276493	251
541.080078125	2	health	foodImageDisplay	1	43	43	foodImage.87	FOODEEG_Images\0873.jpg	YN	Left	Yes	0.769150099997205	0	277034	252
543.1484375	0.769150099997205	health	choicePhaseStart	1	43	43	foodImage.87	FOODEEG_Images\0873.jpg	YN	Left	Yes	0.769150099997205	0	278093	253
543.908203125	0	health	response	1	43	43	foodImage.87	FOODEEG_Images\0873.jpg	YN	Left	Yes	0.769150099997205	0	278482	234
544.953125	1	decision	trialStart	1	44	44	foodImage.65	FOODEEG_Images\0658.jpg	YN	Left	Yes	1.26595500000258	0	279017	251
545.994140625	2	decision	foodImageDisplay	1	44	44	foodImage.65	FOODEEG_Images\0658.jpg	YN	Left	Yes	1.26595500000258	0	279550	252
548.05859375	1.26595500000258	decision	choicePhaseStart	1	44	44	foodImage.65	FOODEEG_Images\0658.jpg	YN	Left	Yes	1.26595500000258	0	280607	253
549.31640625	0	decision	response	1	44	44	foodImage.65	FOODEEG_Images\0658.jpg	YN	Left	Yes	1.26595500000258	0	281251	234
550.361328125	1	health	trialStart	1	45	45	foodImage.112	FOODEEG_Images\0920.jpg	NY	Right	Yes	0.851614999999583	0	281786	251
551.40234375	2	health	foodImageDisplay	1	45	45	foodImage.112	FOODEEG_Images\0920.jpg	NY	Right	Yes	0.851614999999583	0	282319	252
553.46484375	0.851614999999583	health	choicePhaseStart	1	45	45	foodImage.112	FOODEEG_Images\0920.jpg	NY	Right	Yes	0.851614999999583	0	283375	253
554.30859375	0	health	response	1	45	45	foodImage.112	FOODEEG_Images\0920.jpg	NY	Right	Yes	0.851614999999583	0	283807	235
555.3515625	1	decision	trialStart	1	46	46	foodImage.47	FOODEEG_Images\0488.jpg	NY	Right	Yes	0.722745099999884	0	284341	251
556.392578125	2	decision	foodImageDisplay	1	46	46	foodImage.47	FOODEEG_Images\0488.jpg	NY	Right	Yes	0.722745099999884	0	284874	252
558.455078125	0.722745099999884	decision	choicePhaseStart	1	46	46	foodImage.47	FOODEEG_Images\0488.jpg	NY	Right	Yes	0.722745099999884	0	285930	253
559.171875	0	decision	response	1	46	46	foodImage.47	FOODEEG_Images\0488.jpg	NY	Right	Yes	0.722745099999884	0	286297	235
560.212890625	1	health	trialStart	1	47	47	foodImage.14	FOODEEG_Images\0188.jpg	NY	Left	No	0.707914100003109	0	286830	251
561.2734375	2	health	foodImageDisplay	1	47	47	foodImage.14	FOODEEG_Images\0188.jpg	NY	Left	No	0.707914100003109	0	287373	252
563.3359375	0.707914100003109	health	choicePhaseStart	1	47	47	foodImage.14	FOODEEG_Images\0188.jpg	NY	Left	No	0.707914100003109	0	288429	253
564.03515625	0	health	response	1	47	47	foodImage.14	FOODEEG_Images\0188.jpg	NY	Left	No	0.707914100003109	0	288787	234
565.078125	1	taste	trialStart	1	48	48	foodImage.1	FOODEEG_Images\0004.jpg	YN	Left	Yes	0.699972100002924	0	289321	251
566.119140625	2	taste	foodImageDisplay	1	48	48	foodImage.1	FOODEEG_Images\0004.jpg	YN	Left	Yes	0.699972100002924	0	289854	252
568.181640625	0.699972100002924	taste	choicePhaseStart	1	48	48	foodImage.1	FOODEEG_Images\0004.jpg	YN	Left	Yes	0.699972100002924	0	290910	253
568.875	0	taste	response	1	48	48	foodImage.1	FOODEEG_Images\0004.jpg	YN	Left	Yes	0.699972100002924	0	291265	234
569.91796875	1	decision	trialStart	1	49	49	foodImage.79	FOODEEG_Images\0794.jpg	NY	Left	No	0.974825999997847	0	291799	251
570.962890625	2	decision	foodImageDisplay	1	49	49	foodImage.79	FOODEEG_Images\0794.jpg	NY	Left	No	0.974825999997847	0	292334	252
573.025390625	0.974825999997847	decision	choicePhaseStart	1	49	49	foodImage.79	FOODEEG_Images\0794.jpg	NY	Left	No	0.974825999997847	0	293390	253
573.994140625	0	decision	response	1	49	49	foodImage.79	FOODEEG_Images\0794.jpg	NY	Left	No	0.974825999997847	0	293886	234
575.037109375	1	decision	trialStart	1	50	50	foodImage.46	FOODEEG_Images\0479.jpg	YN	Right	No	0.891862200001924	0	294420	251
576.095703125	2	decision	foodImageDisplay	1	50	50	foodImage.46	FOODEEG_Images\0479.jpg	YN	Right	No	0.891862200001924	0	294962	252
578.16015625	0.891862200001924	decision	choicePhaseStart	1	50	50	foodImage.46	FOODEEG_Images\0479.jpg	YN	Right	No	0.891862200001924	0	296019	253
579.04296875	0	decision	response	1	50	50	foodImage.46	FOODEEG_Images\0479.jpg	YN	Right	No	0.891862200001924	0	296471	235
580.0859375	1	decision	trialStart	1	51	51	foodImage.49	FOODEEG_Images\0515.jpg	YN	Left	Yes	0.643221399997856	0	297005	251
581.12890625	2	decision	foodImageDisplay	1	51	51	foodImage.49	FOODEEG_Images\0515.jpg	YN	Left	Yes	0.643221399997856	0	297539	252
583.193359375	0.643221399997856	decision	choicePhaseStart	1	51	51	foodImage.49	FOODEEG_Images\0515.jpg	YN	Left	Yes	0.643221399997856	0	298596	253
583.826171875	0	decision	response	1	51	51	foodImage.49	FOODEEG_Images\0515.jpg	YN	Left	Yes	0.643221399997856	0	298920	234
584.87109375	1	decision	trialStart	1	52	52	foodImage.60	FOODEEG_Images\0614.jpg	NY	Right	Yes	0.608391499998106	0	299455	251
585.9296875	2	decision	foodImageDisplay	1	52	52	foodImage.60	FOODEEG_Images\0614.jpg	NY	Right	Yes	0.608391499998106	0	299997	252
587.994140625	0.608391499998106	decision	choicePhaseStart	1	52	52	foodImage.60	FOODEEG_Images\0614.jpg	NY	Right	Yes	0.608391499998106	0	301054	253
588.59375	0	decision	response	1	52	52	foodImage.60	FOODEEG_Images\0614.jpg	NY	Right	Yes	0.608391499998106	0	301361	235
589.63671875	1	health	trialStart	1	53	53	foodImage.34	FOODEEG_Images\0339.jpg	NY	Left	No	0.617110700000921	0	301895	251
590.6953125	2	health	foodImageDisplay	1	53	53	foodImage.34	FOODEEG_Images\0339.jpg	NY	Left	No	0.617110700000921	0	302437	252
592.759765625	0.617110700000921	health	choicePhaseStart	1	53	53	foodImage.34	FOODEEG_Images\0339.jpg	NY	Left	No	0.617110700000921	0	303494	253
593.37109375	0	health	response	1	53	53	foodImage.34	FOODEEG_Images\0339.jpg	NY	Left	No	0.617110700000921	0	303807	234
594.412109375	1	taste	trialStart	1	54	54	foodImage.53	FOODEEG_Images\0547.jpg	YN	Left	Yes	0.661272800000006	0	304340	251
595.470703125	2	taste	foodImageDisplay	1	54	54	foodImage.53	FOODEEG_Images\0547.jpg	YN	Left	Yes	0.661272800000006	0	304882	252
597.53515625	0.661272800000006	taste	choicePhaseStart	1	54	54	foodImage.53	FOODEEG_Images\0547.jpg	YN	Left	Yes	0.661272800000006	0	305939	253
598.185546875	0	taste	response	1	54	54	foodImage.53	FOODEEG_Images\0547.jpg	YN	Left	Yes	0.661272800000006	0	306272	234
599.2265625	1	decision	trialStart	1	55	55	foodImage.95	FOODEEG_Images\0903.jpg	YN	Right	No	0.871279499999218	0	306805	251
600.265625	2	decision	foodImageDisplay	1	55	55	foodImage.95	FOODEEG_Images\0903.jpg	YN	Right	No	0.871279499999218	0	307337	252
602.330078125	0.871279499999218	decision	choicePhaseStart	1	55	55	foodImage.95	FOODEEG_Images\0903.jpg	YN	Right	No	0.871279499999218	0	308394	253
603.193359375	0	decision	response	1	55	55	foodImage.95	FOODEEG_Images\0903.jpg	YN	Right	No	0.871279499999218	0	308836	235
604.236328125	1	decision	trialStart	1	56	56	foodImage.85	FOODEEG_Images\0841.jpg	YN	Left	Yes	0.688506100002996	0	309370	251
605.29296875	2	decision	foodImageDisplay	1	56	56	foodImage.85	FOODEEG_Images\0841.jpg	YN	Left	Yes	0.688506100002996	0	309911	252
607.361328125	0.688506100002996	decision	choicePhaseStart	1	56	56	foodImage.85	FOODEEG_Images\0841.jpg	YN	Left	Yes	0.688506100002996	0	310970	253
608.04296875	0	decision	response	1	56	56	foodImage.85	FOODEEG_Images\0841.jpg	YN	Left	Yes	0.688506100002996	0	311319	234
609.080078125	1	taste	trialStart	1	57	57	foodImage.24	FOODEEG_Images\0250.jpg	YN	Left	Yes	1.26188599999659	0	311850	251
610.123046875	2	taste	foodImageDisplay	1	57	57	foodImage.24	FOODEEG_Images\0250.jpg	YN	Left	Yes	1.26188599999659	0	312384	252
612.189453125	1.26188599999659	taste	choicePhaseStart	1	57	57	foodImage.24	FOODEEG_Images\0250.jpg	YN	Left	Yes	1.26188599999659	0	313442	253
613.44140625	0	taste	response	1	57	57	foodImage.24	FOODEEG_Images\0250.jpg	YN	Left	Yes	1.26188599999659	0	314083	234
614.484375	1	health	trialStart	1	58	58	foodImage.98	FOODEEG_Images\0906.jpg	YN	Left	Yes	0.841771799998241	0	314617	251
615.521484375	2	health	foodImageDisplay	1	58	58	foodImage.98	FOODEEG_Images\0906.jpg	YN	Left	Yes	0.841771799998241	0	315148	252
617.583984375	0.841771799998241	health	choicePhaseStart	1	58	58	foodImage.98	FOODEEG_Images\0906.jpg	YN	Left	Yes	0.841771799998241	0	316204	253
618.41796875	0	health	response	1	58	58	foodImage.98	FOODEEG_Images\0906.jpg	YN	Left	Yes	0.841771799998241	0	316631	234
619.458984375	1	decision	trialStart	1	59	59	foodImage.4	FOODEEG_Images\0065.jpg	YN	Left	Yes	0.63009890000103	0	317164	251
620.513671875	2	decision	foodImageDisplay	1	59	59	foodImage.4	FOODEEG_Images\0065.jpg	YN	Left	Yes	0.63009890000103	0	317704	252
622.578125	0.63009890000103	decision	choicePhaseStart	1	59	59	foodImage.4	FOODEEG_Images\0065.jpg	YN	Left	Yes	0.63009890000103	0	318761	253
623.201171875	0	decision	response	1	59	59	foodImage.4	FOODEEG_Images\0065.jpg	YN	Left	Yes	0.63009890000103	0	319080	234
624.244140625	1	taste	trialStart	1	60	60	foodImage.36	FOODEEG_Images\0352.jpg	YN	Left	Yes	0.684312100001989	0	319614	251
625.302734375	2	taste	foodImageDisplay	1	60	60	foodImage.36	FOODEEG_Images\0352.jpg	YN	Left	Yes	0.684312100001989	0	320156	252
627.3671875	0.684312100001989	taste	choicePhaseStart	1	60	60	foodImage.36	FOODEEG_Images\0352.jpg	YN	Left	Yes	0.684312100001989	0	321213	253
628.041015625	0	taste	response	1	60	60	foodImage.36	FOODEEG_Images\0352.jpg	YN	Left	Yes	0.684312100001989	0	321558	234
630.080078125	11.138671875	n/a	blockEnd	n/a	n/a	n/a	n/a	n/a	n/a	n/a	n/a	n/a	n/a	322602	254
641.21875	2	n/a	blockStart	2	n/a	n/a	n/a	n/a	n/a	n/a	n/a	n/a	n/a	328305	250
643.251953125	1	decision	trialStart	2	61	1	foodImage.90	FOODEEG_Images\0890.jpg	YN	Left	Yes	0.707646599999862	0	329346	251
644.310546875	2	decision	foodImageDisplay	2	61	1	foodImage.90	FOODEEG_Images\0890.jpg	YN	Left	Yes	0.707646599999862	0	329888	252
646.373046875	0.707646599999862	decision	choicePhaseStart	2	61	1	foodImage.90	FOODEEG_Images\0890.jpg	YN	Left	Yes	0.707646599999862	0	330944	253
647.072265625	0	decision	response	2	61	1	foodImage.90	FOODEEG_Images\0890.jpg	YN	Left	Yes	0.707646599999862	0	331302	234
648.115234375	1	health	trialStart	2	62	2	foodImage.108	FOODEEG_Images\0916.jpg	YN	Right	No	0.685995200001344	0	331836	251
649.15234375	2	health	foodImageDisplay	2	62	2	foodImage.108	FOODEEG_Images\0916.jpg	YN	Right	No	0.685995200001344	0	332367	252
651.21875	0.685995200001344	health	choicePhaseStart	2	62	2	foodImage.108	FOODEEG_Images\0916.jpg	YN	Right	No	0.685995200001344	0	333425	253
651.896484375	0	health	response	2	62	2	foodImage.108	FOODEEG_Images\0916.jpg	YN	Right	No	0.685995200001344	0	333772	235
652.947265625	1	decision	trialStart	2	63	3	foodImage.86	FOODEEG_Images\0844.jpg	NY	Left	No	1.13619710000057	0	334310	251
654.001953125	2	decision	foodImageDisplay	2	63	3	foodImage.86	FOODEEG_Images\0844.jpg	NY	Left	No	1.13619710000057	0	334850	252
656.064453125	1.13619710000057	decision	choicePhaseStart	2	63	3	foodImage.86	FOODEEG_Images\0844.jpg	NY	Left	No	1.13619710000057	0	335906	253
657.19140625	0	decision	response	2	63	3	foodImage.86	FOODEEG_Images\0844.jpg	NY	Left	No	1.13619710000057	0	336483	234
658.234375	1	health	trialStart	2	64	4	foodImage.60	FOODEEG_Images\0614.jpg	NY	Right	Yes	0.522861200002808	0	337017	251
659.2890625	2	health	foodImageDisplay	2	64	4	foodImage.60	FOODEEG_Images\0614.jpg	NY	Right	Yes	0.522861200002808	0	337557	252
661.357421875	0.522861200002808	health	choicePhaseStart	2	64	4	foodImage.60	FOODEEG_Images\0614.jpg	NY	Right	Yes	0.522861200002808	0	338616	253
661.873046875	0	health	response	2	64	4	foodImage.60	FOODEEG_Images\0614.jpg	NY	Right	Yes	0.522861200002808	0	338880	235
662.91796875	1	health	trialStart	2	65	5	foodImage.33	FOODEEG_Images\0329.jpg	YN	Left	Yes	0.834531600001355	0	339415	251
663.958984375	2	health	foodImageDisplay	2	65	5	foodImage.33	FOODEEG_Images\0329.jpg	YN	Left	Yes	0.834531600001355	0	339948	252
666.0234375	0.834531600001355	health	choicePhaseStart	2	65	5	foodImage.33	FOODEEG_Images\0329.jpg	YN	Left	Yes	0.834531600001355	0	341005	253
666.84765625	0	health	response	2	65	5	foodImage.33	FOODEEG_Images\0329.jpg	YN	Left	Yes	0.834531600001355	0	341427	234
667.888671875	1	taste	trialStart	2	66	6	foodImage.120	FOODEEG_Images\0928.jpg	NY	Left	No	0.742645100002846	0	341960	251
668.927734375	2	taste	foodImageDisplay	2	66	6	foodImage.120	FOODEEG_Images\0928.jpg	NY	Left	No	0.742645100002846	0	342492	252
670.9921875	0.742645100002846	taste	choicePhaseStart	2	66	6	foodImage.120	FOODEEG_Images\0928.jpg	NY	Left	No	0.742645100002846	0	343549	253
671.7265625	0	taste	response	2	66	6	foodImage.120	FOODEEG_Images\0928.jpg	NY	Left	No	0.742645100002846	0	343925	234
672.76953125	1	decision	trialStart	2	67	7	foodImage.99	FOODEEG_Images\0907.jpg	YN	Right	No	0.57639669999844	0	344459	251
673.80859375	2	decision	foodImageDisplay	2	67	7	foodImage.99	FOODEEG_Images\0907.jpg	YN	Right	No	0.57639669999844	0	344991	252
675.873046875	0.57639669999844	decision	choicePhaseStart	2	67	7	foodImage.99	FOODEEG_Images\0907.jpg	YN	Right	No	0.57639669999844	0	346048	253
676.439453125	0	decision	response	2	67	7	foodImage.99	FOODEEG_Images\0907.jpg	YN	Right	No	0.57639669999844	0	346338	235
677.4921875	1	decision	trialStart	2	68	8	foodImage.72	FOODEEG_Images\0714.jpg	NY	Left	No	0.795381399999314	0	346877	251
678.533203125	2	decision	foodImageDisplay	2	68	8	foodImage.72	FOODEEG_Images\0714.jpg	NY	Left	No	0.795381399999314	0	347410	252
680.59765625	0.795381399999314	decision	choicePhaseStart	2	68	8	foodImage.72	FOODEEG_Images\0714.jpg	NY	Left	No	0.795381399999314	0	348467	253
681.3828125	0	decision	response	2	68	8	foodImage.72	FOODEEG_Images\0714.jpg	NY	Left	No	0.795381399999314	0	348869	234
682.42578125	1	health	trialStart	2	69	9	foodImage.69	FOODEEG_Images\0693.jpg	YN	Left	Yes	0.735519599998952	0	349403	251
683.470703125	2	health	foodImageDisplay	2	69	9	foodImage.69	FOODEEG_Images\0693.jpg	YN	Left	Yes	0.735519599998952	0	349938	252
685.53515625	0.735519599998952	health	choicePhaseStart	2	69	9	foodImage.69	FOODEEG_Images\0693.jpg	YN	Left	Yes	0.735519599998952	0	350995	253
686.263671875	0	health	response	2	69	9	foodImage.69	FOODEEG_Images\0693.jpg	YN	Left	Yes	0.735519599998952	0	351368	234
687.306640625	1	health	trialStart	2	70	10	foodImage.81	FOODEEG_Images\0797.jpg	NY	Right	Yes	1.2993819000003	0	351902	251
688.365234375	2	health	foodImageDisplay	2	70	10	foodImage.81	FOODEEG_Images\0797.jpg	NY	Right	Yes	1.2993819000003	0	352444	252
690.427734375	1.2993819000003	health	choicePhaseStart	2	70	10	foodImage.81	FOODEEG_Images\0797.jpg	NY	Right	Yes	1.2993819000003	0	353500	253
691.71875	0	health	response	2	70	10	foodImage.81	FOODEEG_Images\0797.jpg	NY	Right	Yes	1.2993819000003	0	354161	235
692.759765625	1	taste	trialStart	2	71	11	foodImage.86	FOODEEG_Images\0844.jpg	YN	Left	Yes	1.62064520000058	0	354694	251
693.8203125	2	taste	foodImageDisplay	2	71	11	foodImage.86	FOODEEG_Images\0844.jpg	YN	Left	Yes	1.62064520000058	0	355237	252
695.8828125	1.62064520000058	taste	choicePhaseStart	2	71	11	foodImage.86	FOODEEG_Images\0844.jpg	YN	Left	Yes	1.62064520000058	0	356293	253
697.494140625	0	taste	response	2	71	11	foodImage.86	FOODEEG_Images\0844.jpg	YN	Left	Yes	1.62064520000058	0	357118	234
698.537109375	1	health	trialStart	2	72	12	foodImage.85	FOODEEG_Images\0841.jpg	YN	Left	Yes	0.61950010000146	0	357652	251
699.595703125	2	health	foodImageDisplay	2	72	12	foodImage.85	FOODEEG_Images\0841.jpg	YN	Left	Yes	0.61950010000146	0	358194	252
701.66015625	0.61950010000146	health	choicePhaseStart	2	72	12	foodImage.85	FOODEEG_Images\0841.jpg	YN	Left	Yes	0.61950010000146	0	359251	253
702.26953125	0	health	response	2	72	12	foodImage.85	FOODEEG_Images\0841.jpg	YN	Left	Yes	0.61950010000146	0	359563	234
703.3125	1	taste	trialStart	2	73	13	foodImage.88	FOODEEG_Images\0878.jpg	NY	Right	Yes	0.761106100002507	0	360097	251
704.3671875	2	taste	foodImageDisplay	2	73	13	foodImage.88	FOODEEG_Images\0878.jpg	NY	Right	Yes	0.761106100002507	0	360637	252
706.4296875	0.761106100002507	taste	choicePhaseStart	2	73	13	foodImage.88	FOODEEG_Images\0878.jpg	NY	Right	Yes	0.761106100002507	0	361693	253
707.181640625	0	taste	response	2	73	13	foodImage.88	FOODEEG_Images\0878.jpg	NY	Right	Yes	0.761106100002507	0	362078	235
708.224609375	1	taste	trialStart	2	74	14	foodImage.78	FOODEEG_Images\0787.jpg	NY	Left	No	0.8590535000003	0	362612	251
709.267578125	2	taste	foodImageDisplay	2	74	14	foodImage.78	FOODEEG_Images\0787.jpg	NY	Left	No	0.8590535000003	0	363146	252
711.33203125	0.8590535000003	taste	choicePhaseStart	2	74	14	foodImage.78	FOODEEG_Images\0787.jpg	NY	Left	No	0.8590535000003	0	364203	253
712.181640625	0	taste	response	2	74	14	foodImage.78	FOODEEG_Images\0787.jpg	NY	Left	No	0.8590535000003	0	364638	234
713.224609375	1	decision	trialStart	2	75	15	foodImage.112	FOODEEG_Images\0920.jpg	NY	Left	No	0.695780800000648	0	365172	251
714.26171875	2	decision	foodImageDisplay	2	75	15	foodImage.112	FOODEEG_Images\0920.jpg	NY	Left	No	0.695780800000648	0	365703	252
716.326171875	0.695780800000648	decision	choicePhaseStart	2	75	15	foodImage.112	FOODEEG_Images\0920.jpg	NY	Left	No	0.695780800000648	0	366760	253
717.013671875	0	decision	response	2	75	15	foodImage.112	FOODEEG_Images\0920.jpg	NY	Left	No	0.695780800000648	0	367112	234
718.05859375	1	decision	trialStart	2	76	16	foodImage.17	FOODEEG_Images\0199.jpg	YN	Left	Yes	0.975266100002045	0	367647	251
719.099609375	2	decision	foodImageDisplay	2	76	16	foodImage.17	FOODEEG_Images\0199.jpg	YN	Left	Yes	0.975266100002045	0	368180	252
721.166015625	0.975266100002045	decision	choicePhaseStart	2	76	16	foodImage.17	FOODEEG_Images\0199.jpg	YN	Left	Yes	0.975266100002045	0	369238	253
722.1328125	0	decision	response	2	76	16	foodImage.17	FOODEEG_Images\0199.jpg	YN	Left	Yes	0.975266100002045	0	369733	234
723.17578125	1	health	trialStart	2	77	17	foodImage.115	FOODEEG_Images\0923.jpg	NY	Right	Yes	1.48533359999783	0	370267	251
724.21484375	2	health	foodImageDisplay	2	77	17	foodImage.115	FOODEEG_Images\0923.jpg	NY	Right	Yes	1.48533359999783	0	370799	252
726.279296875	1.48533359999783	health	choicePhaseStart	2	77	17	foodImage.115	FOODEEG_Images\0923.jpg	NY	Right	Yes	1.48533359999783	0	371856	253
727.7578125	0	health	response	2	77	17	foodImage.115	FOODEEG_Images\0923.jpg	NY	Right	Yes	1.48533359999783	0	372613	235
728.80078125	1	decision	trialStart	2	78	18	foodImage.88	FOODEEG_Images\0878.jpg	NY	Right	Yes	0.556296099999599	0	373147	251
729.857421875	2	decision	foodImageDisplay	2	78	18	foodImage.88	FOODEEG_Images\0878.jpg	NY	Right	Yes	0.556296099999599	0	373688	252
731.921875	0.556296099999599	decision	choicePhaseStart	2	78	18	foodImage.88	FOODEEG_Images\0878.jpg	NY	Right	Yes	0.556296099999599	0	374745	253
732.46875	0	decision	response	2	78	18	foodImage.88	FOODEEG_Images\0878.jpg	NY	Right	Yes	0.556296099999599	0	375025	235
733.51171875	1	taste	trialStart	2	79	19	foodImage.38	FOODEEG_Images\0365.jpg	YN	Right	No	1.15990169999714	0	375559	251
734.55078125	2	taste	foodImageDisplay	2	79	19	foodImage.38	FOODEEG_Images\0365.jpg	YN	Right	No	1.15990169999714	0	376091	252
736.61328125	1.15990169999714	taste	choicePhaseStart	2	79	19	foodImage.38	FOODEEG_Images\0365.jpg	YN	Right	No	1.15990169999714	0	377147	253
737.763671875	0	taste	response	2	79	19	foodImage.38	FOODEEG_Images\0365.jpg	YN	Right	No	1.15990169999714	0	377736	235
738.806640625	1	taste	trialStart	2	80	20	foodImage.2	FOODEEG_Images\0028.jpg	NY	Right	Yes	0.924559999999474	0	378270	251
739.849609375	2	taste	foodImageDisplay	2	80	20	foodImage.2	FOODEEG_Images\0028.jpg	NY	Right	Yes	0.924559999999474	0	378804	252
741.9140625	0.924559999999474	taste	choicePhaseStart	2	80	20	foodImage.2	FOODEEG_Images\0028.jpg	NY	Right	Yes	0.924559999999474	0	379861	253
742.828125	0	taste	response	2	80	20	foodImage.2	FOODEEG_Images\0028.jpg	NY	Right	Yes	0.924559999999474	0	380329	235
743.873046875	1	taste	trialStart	2	81	21	foodImage.35	FOODEEG_Images\0350.jpg	NY	Right	Yes	0.599809399998776	0	380864	251
744.912109375	2	taste	foodImageDisplay	2	81	21	foodImage.35	FOODEEG_Images\0350.jpg	NY	Right	Yes	0.599809399998776	0	381396	252
746.982421875	0.599809399998776	taste	choicePhaseStart	2	81	21	foodImage.35	FOODEEG_Images\0350.jpg	NY	Right	Yes	0.599809399998776	0	382456	253
747.572265625	0	taste	response	2	81	21	foodImage.35	FOODEEG_Images\0350.jpg	NY	Right	Yes	0.599809399998776	0	382758	235
748.61328125	1	health	trialStart	2	82	22	foodImage.21	FOODEEG_Images\0234.jpg	NY	Right	Yes	0.605423399996653	0	383291	251
749.671875	2	health	foodImageDisplay	2	82	22	foodImage.21	FOODEEG_Images\0234.jpg	NY	Right	Yes	0.605423399996653	0	383833	252
751.736328125	0.605423399996653	health	choicePhaseStart	2	82	22	foodImage.21	FOODEEG_Images\0234.jpg	NY	Right	Yes	0.605423399996653	0	384890	253
752.33203125	0	health	response	2	82	22	foodImage.21	FOODEEG_Images\0234.jpg	NY	Right	Yes	0.605423399996653	0	385195	235
753.373046875	1	decision	trialStart	2	83	23	foodImage.1	FOODEEG_Images\0004.jpg	YN	Left	Yes	0.602607799999532	0	385728	251
754.4140625	2	decision	foodImageDisplay	2	83	23	foodImage.1	FOODEEG_Images\0004.jpg	YN	Left	Yes	0.602607799999532	0	386261	252
756.482421875	0.602607799999532	decision	choicePhaseStart	2	83	23	foodImage.1	FOODEEG_Images\0004.jpg	YN	Left	Yes	0.602607799999532	0	387320	253
757.076171875	0	decision	response	2	83	23	foodImage.1	FOODEEG_Images\0004.jpg	YN	Left	Yes	0.602607799999532	0	387624	234
758.1171875	1	decision	trialStart	2	84	24	foodImage.52	FOODEEG_Images\0539.jpg	NY	Right	Yes	0.670201199998701	0	388157	251
759.17578125	2	decision	foodImageDisplay	2	84	24	foodImage.52	FOODEEG_Images\0539.jpg	NY	Right	Yes	0.670201199998701	0	388699	252
761.23828125	0.670201199998701	decision	choicePhaseStart	2	84	24	foodImage.52	FOODEEG_Images\0539.jpg	NY	Right	Yes	0.670201199998701	0	389755	253
761.900390625	0	decision	response	2	84	24	foodImage.52	FOODEEG_Images\0539.jpg	NY	Right	Yes	0.670201199998701	0	390094	235
762.94140625	1	taste	trialStart	2	85	25	foodImage.82	FOODEEG_Images\0805.jpg	NY	Right	Yes	0.842339099999663	0	390627	251
763.99609375	2	taste	foodImageDisplay	2	85	25	foodImage.82	FOODEEG_Images\0805.jpg	NY	Right	Yes	0.842339099999663	0	391167	252
766.05859375	0.842339099999663	taste	choicePhaseStart	2	85	25	foodImage.82	FOODEEG_Images\0805.jpg	NY	Right	Yes	0.842339099999663	0	392223	253
766.892578125	0	taste	response	2	85	25	foodImage.82	FOODEEG_Images\0805.jpg	NY	Right	Yes	0.842339099999663	0	392650	235
767.93359375	1	taste	trialStart	2	86	26	foodImage.109	FOODEEG_Images\0917.jpg	YN	Left	Yes	0.924038200002542	0	393183	251
768.97265625	2	taste	foodImageDisplay	2	86	26	foodImage.109	FOODEEG_Images\0917.jpg	YN	Left	Yes	0.924038200002542	0	393715	252
771.0390625	0.924038200002542	taste	choicePhaseStart	2	86	26	foodImage.109	FOODEEG_Images\0917.jpg	YN	Left	Yes	0.924038200002542	0	394773	253
771.955078125	0	taste	response	2	86	26	foodImage.109	FOODEEG_Images\0917.jpg	YN	Left	Yes	0.924038200002542	0	395242	234
773	1	decision	trialStart	2	87	27	foodImage.71	FOODEEG_Images\0713.jpg	YN	Left	Yes	0.610334400000283	0	395777	251
774.041015625	2	decision	foodImageDisplay	2	87	27	foodImage.71	FOODEEG_Images\0713.jpg	YN	Left	Yes	0.610334400000283	0	396310	252
776.103515625	0.610334400000283	decision	choicePhaseStart	2	87	27	foodImage.71	FOODEEG_Images\0713.jpg	YN	Left	Yes	0.610334400000283	0	397366	253
776.70703125	0	decision	response	2	87	27	foodImage.71	FOODEEG_Images\0713.jpg	YN	Left	Yes	0.610334400000283	0	397675	234
777.75	1	decision	trialStart	2	88	28	foodImage.48	FOODEEG_Images\0494.jpg	NY	Right	Yes	0.610456299997168	0	398209	251
778.791015625	2	decision	foodImageDisplay	2	88	28	foodImage.48	FOODEEG_Images\0494.jpg	NY	Right	Yes	0.610456299997168	0	398742	252
780.85546875	0.610456299997168	decision	choicePhaseStart	2	88	28	foodImage.48	FOODEEG_Images\0494.jpg	NY	Right	Yes	0.610456299997168	0	399799	253
781.458984375	0	decision	response	2	88	28	foodImage.48	FOODEEG_Images\0494.jpg	NY	Right	Yes	0.610456299997168	0	400108	235
782.501953125	1	decision	trialStart	2	89	29	foodImage.105	FOODEEG_Images\0913.jpg	YN	Left	Yes	0.672234800000297	0	400642	251
783.541015625	2	decision	foodImageDisplay	2	89	29	foodImage.105	FOODEEG_Images\0913.jpg	YN	Left	Yes	0.672234800000297	0	401174	252
785.603515625	0.672234800000297	decision	choicePhaseStart	2	89	29	foodImage.105	FOODEEG_Images\0913.jpg	YN	Left	Yes	0.672234800000297	0	402230	253
786.267578125	0	decision	response	2	89	29	foodImage.105	FOODEEG_Images\0913.jpg	YN	Left	Yes	0.672234800000297	0	402570	234
787.30859375	1	decision	trialStart	2	90	30	foodImage.2	FOODEEG_Images\0028.jpg	YN	Left	Yes	0.582621799996559	0	403103	251
788.349609375	2	decision	foodImageDisplay	2	90	30	foodImage.2	FOODEEG_Images\0028.jpg	YN	Left	Yes	0.582621799996559	0	403636	252
790.4140625	0.582621799996559	decision	choicePhaseStart	2	90	30	foodImage.2	FOODEEG_Images\0028.jpg	YN	Left	Yes	0.582621799996559	0	404693	253
790.986328125	0	decision	response	2	90	30	foodImage.2	FOODEEG_Images\0028.jpg	YN	Left	Yes	0.582621799996559	0	404986	234
792.029296875	1	taste	trialStart	2	91	31	foodImage.87	FOODEEG_Images\0873.jpg	NY	Left	No	1.59671789999993	0	405520	251
793.087890625	2	taste	foodImageDisplay	2	91	31	foodImage.87	FOODEEG_Images\0873.jpg	NY	Left	No	1.59671789999993	0	406062	252
795.15234375	1.59671789999993	taste	choicePhaseStart	2	91	31	foodImage.87	FOODEEG_Images\0873.jpg	NY	Left	No	1.59671789999993	0	407119	253
796.73828125	0	taste	response	2	91	31	foodImage.87	FOODEEG_Images\0873.jpg	NY	Left	No	1.59671789999993	0	407931	234
797.78125	1	taste	trialStart	2	92	32	foodImage.71	FOODEEG_Images\0713.jpg	YN	Left	Yes	1.30086010000014	0	408465	251
798.822265625	2	taste	foodImageDisplay	2	92	32	foodImage.71	FOODEEG_Images\0713.jpg	YN	Left	Yes	1.30086010000014	0	408998	252
800.88671875	1.30086010000014	taste	choicePhaseStart	2	92	32	foodImage.71	FOODEEG_Images\0713.jpg	YN	Left	Yes	1.30086010000014	0	410055	253
802.177734375	0	taste	response	2	92	32	foodImage.71	FOODEEG_Images\0713.jpg	YN	Left	Yes	1.30086010000014	0	410716	234
803.220703125	1	health	trialStart	2	93	33	foodImage.5	FOODEEG_Images\0107.jpg	YN	Right	No	0.888029699999606	0	411250	251
804.275390625	2	health	foodImageDisplay	2	93	33	foodImage.5	FOODEEG_Images\0107.jpg	YN	Right	No	0.888029699999606	0	411790	252
806.33984375	0.888029699999606	health	choicePhaseStart	2	93	33	foodImage.5	FOODEEG_Images\0107.jpg	YN	Right	No	0.888029699999606	0	412847	253
807.21875	0	health	response	2	93	33	foodImage.5	FOODEEG_Images\0107.jpg	YN	Right	No	0.888029699999606	0	413297	235
808.259765625	1	health	trialStart	2	94	34	foodImage.40	FOODEEG_Images\0373.jpg	YN	Right	No	0.733214699997916	0	413830	251
809.302734375	2	health	foodImageDisplay	2	94	34	foodImage.40	FOODEEG_Images\0373.jpg	YN	Right	No	0.733214699997916	0	414364	252
811.365234375	0.733214699997916	health	choicePhaseStart	2	94	34	foodImage.40	FOODEEG_Images\0373.jpg	YN	Right	No	0.733214699997916	0	415420	253
812.08984375	0	health	response	2	94	34	foodImage.40	FOODEEG_Images\0373.jpg	YN	Right	No	0.733214699997916	0	415791	235
813.130859375	1	health	trialStart	2	95	35	foodImage.46	FOODEEG_Images\0479.jpg	NY	Right	Yes	0.752677699998458	0	416324	251
814.1875	2	health	foodImageDisplay	2	95	35	foodImage.46	FOODEEG_Images\0479.jpg	NY	Right	Yes	0.752677699998458	0	416865	252
816.25	0.752677699998458	health	choicePhaseStart	2	95	35	foodImage.46	FOODEEG_Images\0479.jpg	NY	Right	Yes	0.752677699998458	0	417921	253
816.994140625	0	health	response	2	95	35	foodImage.46	FOODEEG_Images\0479.jpg	NY	Right	Yes	0.752677699998458	0	418302	235
818.041015625	1	taste	trialStart	2	96	36	foodImage.21	FOODEEG_Images\0234.jpg	YN	Left	Yes	0.975015700001677	0	418838	251
819.09765625	2	taste	foodImageDisplay	2	96	36	foodImage.21	FOODEEG_Images\0234.jpg	YN	Left	Yes	0.975015700001677	0	419379	252
821.1640625	0.975015700001677	taste	choicePhaseStart	2	96	36	foodImage.21	FOODEEG_Images\0234.jpg	YN	Left	Yes	0.975015700001677	0	420437	253
822.12890625	0	taste	response	2	96	36	foodImage.21	FOODEEG_Images\0234.jpg	YN	Left	Yes	0.975015700001677	0	420931	234
823.171875	1	taste	trialStart	2	97	37	foodImage.92	FOODEEG_Images\0900.jpg	YN	Right	No	0.625915699998586	0	421465	251
824.208984375	2	taste	foodImageDisplay	2	97	37	foodImage.92	FOODEEG_Images\0900.jpg	YN	Right	No	0.625915699998586	0	421996	252
826.271484375	0.625915699998586	taste	choicePhaseStart	2	97	37	foodImage.92	FOODEEG_Images\0900.jpg	YN	Right	No	0.625915699998586	0	423052	253
826.888671875	0	taste	response	2	97	37	foodImage.92	FOODEEG_Images\0900.jpg	YN	Right	No	0.625915699998586	0	423368	235
827.939453125	1	taste	trialStart	2	98	38	foodImage.42	FOODEEG_Images\0438.jpg	YN	Right	No	1.4126535999967	0	423906	251
829.029296875	2	taste	foodImageDisplay	2	98	38	foodImage.42	FOODEEG_Images\0438.jpg	YN	Right	No	1.4126535999967	0	424464	252
831.09375	1.4126535999967	taste	choicePhaseStart	2	98	38	foodImage.42	FOODEEG_Images\0438.jpg	YN	Right	No	1.4126535999967	0	425521	253
832.49609375	0	taste	response	2	98	38	foodImage.42	FOODEEG_Images\0438.jpg	YN	Right	No	1.4126535999967	0	426239	235
833.5390625	1	decision	trialStart	2	99	39	foodImage.109	FOODEEG_Images\0917.jpg	NY	Right	Yes	1.10433980000016	0	426773	251
834.587890625	2	decision	foodImageDisplay	2	99	39	foodImage.109	FOODEEG_Images\0917.jpg	NY	Right	Yes	1.10433980000016	0	427310	252
836.650390625	1.10433980000016	decision	choicePhaseStart	2	99	39	foodImage.109	FOODEEG_Images\0917.jpg	NY	Right	Yes	1.10433980000016	0	428366	253
837.744140625	0	decision	response	2	99	39	foodImage.109	FOODEEG_Images\0917.jpg	NY	Right	Yes	1.10433980000016	0	428926	235
838.787109375	1	health	trialStart	2	100	40	foodImage.35	FOODEEG_Images\0350.jpg	NY	Right	Yes	0.968689799999993	0	429460	251
839.826171875	2	health	foodImageDisplay	2	100	40	foodImage.35	FOODEEG_Images\0350.jpg	NY	Right	Yes	0.968689799999993	0	429992	252
841.888671875	0.968689799999993	health	choicePhaseStart	2	100	40	foodImage.35	FOODEEG_Images\0350.jpg	NY	Right	Yes	0.968689799999993	0	431048	253
842.84765625	0	health	response	2	100	40	foodImage.35	FOODEEG_Images\0350.jpg	NY	Right	Yes	0.968689799999993	0	431539	235
843.890625	1	taste	trialStart	2	101	41	foodImage.9	FOODEEG_Images\0138.jpg	YN	Left	Yes	0.778330799999821	0	432073	251
844.94921875	2	taste	foodImageDisplay	2	101	41	foodImage.9	FOODEEG_Images\0138.jpg	YN	Left	Yes	0.778330799999821	0	432615	252
847.013671875	0.778330799999821	taste	choicePhaseStart	2	101	41	foodImage.9	FOODEEG_Images\0138.jpg	YN	Left	Yes	0.778330799999821	0	433672	253
847.78515625	0	taste	response	2	101	41	foodImage.9	FOODEEG_Images\0138.jpg	YN	Left	Yes	0.778330799999821	0	434067	234
848.826171875	1	decision	trialStart	2	102	42	foodImage.116	FOODEEG_Images\0924.jpg	YN	Left	Yes	0.686126699998567	0	434600	251
849.8828125	2	decision	foodImageDisplay	2	102	42	foodImage.116	FOODEEG_Images\0924.jpg	YN	Left	Yes	0.686126699998567	0	435141	252
851.947265625	0.686126699998567	decision	choicePhaseStart	2	102	42	foodImage.116	FOODEEG_Images\0924.jpg	YN	Left	Yes	0.686126699998567	0	436198	253
852.625	0	decision	response	2	102	42	foodImage.116	FOODEEG_Images\0924.jpg	YN	Left	Yes	0.686126699998567	0	436545	234
853.66796875	1	health	trialStart	2	103	43	foodImage.77	FOODEEG_Images\0771.jpg	YN	Left	Yes	0.762735799999064	0	437079	251
854.7109375	2	health	foodImageDisplay	2	103	43	foodImage.77	FOODEEG_Images\0771.jpg	YN	Left	Yes	0.762735799999064	0	437613	252
856.7734375	0.762735799999064	health	choicePhaseStart	2	103	43	foodImage.77	FOODEEG_Images\0771.jpg	YN	Left	Yes	0.762735799999064	0	438669	253
857.52734375	0	health	response	2	103	43	foodImage.77	FOODEEG_Images\0771.jpg	YN	Left	Yes	0.762735799999064	0	439055	234
858.5703125	1	health	trialStart	2	104	44	foodImage.38	FOODEEG_Images\0365.jpg	NY	Right	Yes	0.79890670000168	0	439589	251
859.611328125	2	health	foodImageDisplay	2	104	44	foodImage.38	FOODEEG_Images\0365.jpg	NY	Right	Yes	0.79890670000168	0	440122	252
861.681640625	0.79890670000168	health	choicePhaseStart	2	104	44	foodImage.38	FOODEEG_Images\0365.jpg	NY	Right	Yes	0.79890670000168	0	441182	253
862.47265625	0	health	response	2	104	44	foodImage.38	FOODEEG_Images\0365.jpg	NY	Right	Yes	0.79890670000168	0	441587	235
863.515625	1	taste	trialStart	2	105	45	foodImage.63	FOODEEG_Images\0645.jpg	NY	Right	Yes	0.723183000001882	0	442121	251
864.55859375	2	taste	foodImageDisplay	2	105	45	foodImage.63	FOODEEG_Images\0645.jpg	NY	Right	Yes	0.723183000001882	0	442655	252
866.62109375	0.723183000001882	taste	choicePhaseStart	2	105	45	foodImage.63	FOODEEG_Images\0645.jpg	NY	Right	Yes	0.723183000001882	0	443711	253
867.3359375	0	taste	response	2	105	45	foodImage.63	FOODEEG_Images\0645.jpg	NY	Right	Yes	0.723183000001882	0	444077	235
868.37890625	1	taste	trialStart	2	106	46	foodImage.89	FOODEEG_Images\0881.jpg	NY	Right	Yes	0.919752600002539	0	444611	251
869.431640625	2	taste	foodImageDisplay	2	106	46	foodImage.89	FOODEEG_Images\0881.jpg	NY	Right	Yes	0.919752600002539	0	445150	252
871.494140625	0.919752600002539	taste	choicePhaseStart	2	106	46	foodImage.89	FOODEEG_Images\0881.jpg	NY	Right	Yes	0.919752600002539	0	446206	253
872.408203125	0	taste	response	2	106	46	foodImage.89	FOODEEG_Images\0881.jpg	NY	Right	Yes	0.919752600002539	0	446674	235
873.44921875	1	taste	trialStart	2	107	47	foodImage.3	FOODEEG_Images\0046.jpg	YN	Left	Yes	0.645099099998333	0	447207	251
874.4921875	2	taste	foodImageDisplay	2	107	47	foodImage.3	FOODEEG_Images\0046.jpg	YN	Left	Yes	0.645099099998333	0	447741	252
876.5546875	0.645099099998333	taste	choicePhaseStart	2	107	47	foodImage.3	FOODEEG_Images\0046.jpg	YN	Left	Yes	0.645099099998333	0	448797	253
877.19140625	0	taste	response	2	107	47	foodImage.3	FOODEEG_Images\0046.jpg	YN	Left	Yes	0.645099099998333	0	449123	234
878.232421875	1	health	trialStart	2	108	48	foodImage.92	FOODEEG_Images\0900.jpg	NY	Left	No	0.904428000001644	0	449656	251
879.271484375	2	health	foodImageDisplay	2	108	48	foodImage.92	FOODEEG_Images\0900.jpg	NY	Left	No	0.904428000001644	0	450188	252
881.3359375	0.904428000001644	health	choicePhaseStart	2	108	48	foodImage.92	FOODEEG_Images\0900.jpg	NY	Left	No	0.904428000001644	0	451245	253
882.23046875	0	health	response	2	108	48	foodImage.92	FOODEEG_Images\0900.jpg	NY	Left	No	0.904428000001644	0	451703	234
883.27734375	1	health	trialStart	2	109	49	foodImage.47	FOODEEG_Images\0488.jpg	YN	Right	No	0.921922900000936	0	452239	251
884.318359375	2	health	foodImageDisplay	2	109	49	foodImage.47	FOODEEG_Images\0488.jpg	YN	Right	No	0.921922900000936	0	452772	252
886.3828125	0.921922900000936	health	choicePhaseStart	2	109	49	foodImage.47	FOODEEG_Images\0488.jpg	YN	Right	No	0.921922900000936	0	453829	253
887.294921875	0	health	response	2	109	49	foodImage.47	FOODEEG_Images\0488.jpg	YN	Right	No	0.921922900000936	0	454296	235
888.337890625	1	taste	trialStart	2	110	50	foodImage.29	FOODEEG_Images\0278.jpg	YN	Right	No	1.36904209999921	0	454830	251
889.3984375	2	taste	foodImageDisplay	2	110	50	foodImage.29	FOODEEG_Images\0278.jpg	YN	Right	No	1.36904209999921	0	455373	252
891.462890625	1.36904209999921	taste	choicePhaseStart	2	110	50	foodImage.29	FOODEEG_Images\0278.jpg	YN	Right	No	1.36904209999921	0	456430	253
892.822265625	0	taste	response	2	110	50	foodImage.29	FOODEEG_Images\0278.jpg	YN	Right	No	1.36904209999921	0	457126	235
893.8671875	1	taste	trialStart	2	111	51	foodImage.84	FOODEEG_Images\0830.jpg	NY	Left	No	1.10196839999844	0	457661	251
894.921875	2	taste	foodImageDisplay	2	111	51	foodImage.84	FOODEEG_Images\0830.jpg	NY	Left	No	1.10196839999844	0	458201	252
896.986328125	1.10196839999844	taste	choicePhaseStart	2	111	51	foodImage.84	FOODEEG_Images\0830.jpg	NY	Left	No	1.10196839999844	0	459258	253
898.078125	0	taste	response	2	111	51	foodImage.84	FOODEEG_Images\0830.jpg	NY	Left	No	1.10196839999844	0	459817	234
899.12109375	1	taste	trialStart	2	112	52	foodImage.25	FOODEEG_Images\0261.jpg	NY	Left	No	0.72690700000021	0	460351	251
900.162109375	2	taste	foodImageDisplay	2	112	52	foodImage.25	FOODEEG_Images\0261.jpg	NY	Left	No	0.72690700000021	0	460884	252
902.2265625	0.72690700000021	taste	choicePhaseStart	2	112	52	foodImage.25	FOODEEG_Images\0261.jpg	NY	Left	No	0.72690700000021	0	461941	253
902.94140625	0	taste	response	2	112	52	foodImage.25	FOODEEG_Images\0261.jpg	NY	Left	No	0.72690700000021	0	462307	234
903.984375	1	health	trialStart	2	113	53	foodImage.6	FOODEEG_Images\0113.jpg	YN	Right	No	0.915797400000883	0	462841	251
905.02734375	2	health	foodImageDisplay	2	113	53	foodImage.6	FOODEEG_Images\0113.jpg	YN	Right	No	0.915797400000883	0	463375	252
907.091796875	0.915797400000883	health	choicePhaseStart	2	113	53	foodImage.6	FOODEEG_Images\0113.jpg	YN	Right	No	0.915797400000883	0	464432	253
907.998046875	0	health	response	2	113	53	foodImage.6	FOODEEG_Images\0113.jpg	YN	Right	No	0.915797400000883	0	464896	235
909.041015625	1	taste	trialStart	2	114	54	foodImage.46	FOODEEG_Images\0479.jpg	NY	Left	No	1.07523339999898	0	465430	251
910.09765625	2	taste	foodImageDisplay	2	114	54	foodImage.46	FOODEEG_Images\0479.jpg	NY	Left	No	1.07523339999898	0	465971	252
912.16015625	1.07523339999898	taste	choicePhaseStart	2	114	54	foodImage.46	FOODEEG_Images\0479.jpg	NY	Left	No	1.07523339999898	0	467027	253
913.23046875	0	taste	response	2	114	54	foodImage.46	FOODEEG_Images\0479.jpg	NY	Left	No	1.07523339999898	0	467575	234
914.2734375	1	decision	trialStart	2	115	55	foodImage.45	FOODEEG_Images\0478.jpg	NY	Right	Yes	0.889309199999843	0	468109	251
915.318359375	2	decision	foodImageDisplay	2	115	55	foodImage.45	FOODEEG_Images\0478.jpg	NY	Right	Yes	0.889309199999843	0	468644	252
917.380859375	0.889309199999843	decision	choicePhaseStart	2	115	55	foodImage.45	FOODEEG_Images\0478.jpg	NY	Right	Yes	0.889309199999843	0	469700	253
918.26171875	0	decision	response	2	115	55	foodImage.45	FOODEEG_Images\0478.jpg	NY	Right	Yes	0.889309199999843	0	470151	235
919.302734375	1	decision	trialStart	2	116	56	foodImage.53	FOODEEG_Images\0547.jpg	YN	Left	Yes	1.37489669999923	0	470684	251
920.359375	2	decision	foodImageDisplay	2	116	56	foodImage.53	FOODEEG_Images\0547.jpg	YN	Left	Yes	1.37489669999923	0	471225	252
922.423828125	1.37489669999923	decision	choicePhaseStart	2	116	56	foodImage.53	FOODEEG_Images\0547.jpg	YN	Left	Yes	1.37489669999923	0	472282	253
923.7890625	0	decision	response	2	116	56	foodImage.53	FOODEEG_Images\0547.jpg	YN	Left	Yes	1.37489669999923	0	472981	234
924.83203125	1	health	trialStart	2	117	57	foodImage.41	FOODEEG_Images\0409.jpg	YN	Left	Yes	1.30518780000057	0	473515	251
925.87890625	2	health	foodImageDisplay	2	117	57	foodImage.41	FOODEEG_Images\0409.jpg	YN	Left	Yes	1.30518780000057	0	474051	252
927.94140625	1.30518780000057	health	choicePhaseStart	2	117	57	foodImage.41	FOODEEG_Images\0409.jpg	YN	Left	Yes	1.30518780000057	0	475107	253
929.236328125	0	health	response	2	117	57	foodImage.41	FOODEEG_Images\0409.jpg	YN	Left	Yes	1.30518780000057	0	475770	234
930.279296875	1	taste	trialStart	2	118	58	foodImage.57	FOODEEG_Images\0587.jpg	NY	Right	Yes	1.74249419999978	0	476304	251
931.3203125	2	taste	foodImageDisplay	2	118	58	foodImage.57	FOODEEG_Images\0587.jpg	NY	Right	Yes	1.74249419999978	0	476837	252
933.384765625	1.74249419999978	taste	choicePhaseStart	2	118	58	foodImage.57	FOODEEG_Images\0587.jpg	NY	Right	Yes	1.74249419999978	0	477894	253
935.1171875	0	taste	response	2	118	58	foodImage.57	FOODEEG_Images\0587.jpg	NY	Right	Yes	1.74249419999978	0	478781	235
936.16015625	1	decision	trialStart	2	119	59	foodImage.92	FOODEEG_Images\0900.jpg	NY	Left	No	0.943305699998746	0	479315	251
937.197265625	2	decision	foodImageDisplay	2	119	59	foodImage.92	FOODEEG_Images\0900.jpg	NY	Left	No	0.943305699998746	0	479846	252
939.263671875	0.943305699998746	decision	choicePhaseStart	2	119	59	foodImage.92	FOODEEG_Images\0900.jpg	NY	Left	No	0.943305699998746	0	480904	253
940.197265625	0	decision	response	2	119	59	foodImage.92	FOODEEG_Images\0900.jpg	NY	Left	No	0.943305699998746	0	481382	234
941.23828125	1	health	trialStart	2	120	60	foodImage.1	FOODEEG_Images\0004.jpg	NY	Left	No	1.02046329999939	0	481915	251
942.279296875	2	health	foodImageDisplay	2	120	60	foodImage.1	FOODEEG_Images\0004.jpg	NY	Left	No	1.02046329999939	0	482448	252
944.341796875	1.02046329999939	health	choicePhaseStart	2	120	60	foodImage.1	FOODEEG_Images\0004.jpg	NY	Left	No	1.02046329999939	0	483504	253
945.35546875	0	health	response	2	120	60	foodImage.1	FOODEEG_Images\0004.jpg	NY	Left	No	1.02046329999939	0	484023	234
947.40625	7.357421875	n/a	blockEnd	n/a	n/a	n/a	n/a	n/a	n/a	n/a	n/a	n/a	n/a	485073	254
954.763671875	2	n/a	blockStart	3	n/a	n/a	n/a	n/a	n/a	n/a	n/a	n/a	n/a	488840	250
956.796875	1	taste	trialStart	3	121	1	foodImage.33	FOODEEG_Images\0329.jpg	NY	Right	Yes	1.1223757000007	0	489881	251
957.83984375	2	taste	foodImageDisplay	3	121	1	foodImage.33	FOODEEG_Images\0329.jpg	NY	Right	Yes	1.1223757000007	0	490415	252
959.90625	1.1223757000007	taste	choicePhaseStart	3	121	1	foodImage.33	FOODEEG_Images\0329.jpg	NY	Right	Yes	1.1223757000007	0	491473	253
961.01953125	0	taste	response	3	121	1	foodImage.33	FOODEEG_Images\0329.jpg	NY	Right	Yes	1.1223757000007	0	492043	235
962.068359375	1	decision	trialStart	3	122	2	foodImage.101	FOODEEG_Images\0909.jpg	YN	Right	No	0.610973099999683	0	492580	251
963.10546875	2	decision	foodImageDisplay	3	122	2	foodImage.101	FOODEEG_Images\0909.jpg	YN	Right	No	0.610973099999683	0	493111	252
965.169921875	0.610973099999683	decision	choicePhaseStart	3	122	2	foodImage.101	FOODEEG_Images\0909.jpg	YN	Right	No	0.610973099999683	0	494168	253
965.771484375	0	decision	response	3	122	2	foodImage.101	FOODEEG_Images\0909.jpg	YN	Right	No	0.610973099999683	0	494476	235
966.822265625	1	taste	trialStart	3	123	3	foodImage.31	FOODEEG_Images\0294.jpg	NY	Right	Yes	0.595997599997645	0	495014	251
967.86328125	2	taste	foodImageDisplay	3	123	3	foodImage.31	FOODEEG_Images\0294.jpg	NY	Right	Yes	0.595997599997645	0	495547	252
969.92578125	0.595997599997645	taste	choicePhaseStart	3	123	3	foodImage.31	FOODEEG_Images\0294.jpg	NY	Right	Yes	0.595997599997645	0	496603	253
970.515625	0	taste	response	3	123	3	foodImage.31	FOODEEG_Images\0294.jpg	NY	Right	Yes	0.595997599997645	0	496905	235
971.55859375	1	health	trialStart	3	124	4	foodImage.57	FOODEEG_Images\0587.jpg	NY	Left	No	0.697323699998378	0	497439	251
972.6015625	2	health	foodImageDisplay	3	124	4	foodImage.57	FOODEEG_Images\0587.jpg	NY	Left	No	0.697323699998378	0	497973	252
974.6640625	0.697323699998378	health	choicePhaseStart	3	124	4	foodImage.57	FOODEEG_Images\0587.jpg	NY	Left	No	0.697323699998378	0	499029	253
975.35546875	0	health	response	3	124	4	foodImage.57	FOODEEG_Images\0587.jpg	NY	Left	No	0.697323699998378	0	499383	234
976.3984375	1	health	trialStart	3	125	5	foodImage.10	FOODEEG_Images\0145.jpg	NY	Left	No	1.21938450000016	0	499917	251
977.45703125	2	health	foodImageDisplay	3	125	5	foodImage.10	FOODEEG_Images\0145.jpg	NY	Left	No	1.21938450000016	0	500459	252
979.51953125	1.21938450000016	health	choicePhaseStart	3	125	5	foodImage.10	FOODEEG_Images\0145.jpg	NY	Left	No	1.21938450000016	0	501515	253
980.73046875	0	health	response	3	125	5	foodImage.10	FOODEEG_Images\0145.jpg	NY	Left	No	1.21938450000016	0	502135	234
981.78125	1	taste	trialStart	3	126	6	foodImage.100	FOODEEG_Images\0908.jpg	YN	Right	No	0.777999999998428	0	502673	251
982.818359375	2	taste	foodImageDisplay	3	126	6	foodImage.100	FOODEEG_Images\0908.jpg	YN	Right	No	0.777999999998428	0	503204	252
984.8828125	0.777999999998428	taste	choicePhaseStart	3	126	6	foodImage.100	FOODEEG_Images\0908.jpg	YN	Right	No	0.777999999998428	0	504261	253
985.650390625	0	taste	response	3	126	6	foodImage.100	FOODEEG_Images\0908.jpg	YN	Right	No	0.777999999998428	0	504654	235
986.6953125	1	health	trialStart	3	127	7	foodImage.29	FOODEEG_Images\0278.jpg	YN	Left	Yes	0.716812700000446	0	505189	251
987.736328125	2	health	foodImageDisplay	3	127	7	foodImage.29	FOODEEG_Images\0278.jpg	YN	Left	Yes	0.716812700000446	0	505722	252
989.798828125	0.716812700000446	health	choicePhaseStart	3	127	7	foodImage.29	FOODEEG_Images\0278.jpg	YN	Left	Yes	0.716812700000446	0	506778	253
990.505859375	0	health	response	3	127	7	foodImage.29	FOODEEG_Images\0278.jpg	YN	Left	Yes	0.716812700000446	0	507140	234
991.548828125	1	taste	trialStart	3	128	8	foodImage.118	FOODEEG_Images\0926.jpg	NY	Left	No	0.922617100000934	0	507674	251
992.5859375	2	taste	foodImageDisplay	3	128	8	foodImage.118	FOODEEG_Images\0926.jpg	NY	Left	No	0.922617100000934	0	508205	252
994.650390625	0.922617100000934	taste	choicePhaseStart	3	128	8	foodImage.118	FOODEEG_Images\0926.jpg	NY	Left	No	0.922617100000934	0	509262	253
995.5625	0	taste	response	3	128	8	foodImage.118	FOODEEG_Images\0926.jpg	NY	Left	No	0.922617100000934	0	509729	234
996.60546875	1	decision	trialStart	3	129	9	foodImage.113	FOODEEG_Images\0921.jpg	NY	Left	No	0.767163500000606	0	510263	251
997.64453125	2	decision	foodImageDisplay	3	129	9	foodImage.113	FOODEEG_Images\0921.jpg	NY	Left	No	0.767163500000606	0	510795	252
999.708984375	0.767163500000606	decision	choicePhaseStart	3	129	9	foodImage.113	FOODEEG_Images\0921.jpg	NY	Left	No	0.767163500000606	0	511852	253
1000.466796875	0	decision	response	3	129	9	foodImage.113	FOODEEG_Images\0921.jpg	NY	Left	No	0.767163500000606	0	512240	234
1001.509765625	1	decision	trialStart	3	130	10	foodImage.62	FOODEEG_Images\0644.jpg	YN	Right	No	1.61819560000004	0	512774	251
1002.568359375	2	decision	foodImageDisplay	3	130	10	foodImage.62	FOODEEG_Images\0644.jpg	YN	Right	No	1.61819560000004	0	513316	252
1004.6328125	1.61819560000004	decision	choicePhaseStart	3	130	10	foodImage.62	FOODEEG_Images\0644.jpg	YN	Right	No	1.61819560000004	0	514373	253
1006.2421875	0	decision	response	3	130	10	foodImage.62	FOODEEG_Images\0644.jpg	YN	Right	No	1.61819560000004	0	515197	235
1007.28515625	1	taste	trialStart	3	131	11	foodImage.117	FOODEEG_Images\0925.jpg	YN	Right	No	1.06319470000017	0	515731	251
1008.322265625	2	taste	foodImageDisplay	3	131	11	foodImage.117	FOODEEG_Images\0925.jpg	YN	Right	No	1.06319470000017	0	516262	252
1010.388671875	1.06319470000017	taste	choicePhaseStart	3	131	11	foodImage.117	FOODEEG_Images\0925.jpg	YN	Right	No	1.06319470000017	0	517320	253
1011.44140625	0	taste	response	3	131	11	foodImage.117	FOODEEG_Images\0925.jpg	YN	Right	No	1.06319470000017	0	517859	235
1012.484375	1	taste	trialStart	3	132	12	foodImage.44	FOODEEG_Images\0459.jpg	NY	Right	Yes	0.961768799999845	0	518393	251
1013.529296875	2	taste	foodImageDisplay	3	132	12	foodImage.44	FOODEEG_Images\0459.jpg	NY	Right	Yes	0.961768799999845	0	518928	252
1015.59375	0.961768799999845	taste	choicePhaseStart	3	132	12	foodImage.44	FOODEEG_Images\0459.jpg	NY	Right	Yes	0.961768799999845	0	519985	253
1016.544921875	0	taste	response	3	132	12	foodImage.44	FOODEEG_Images\0459.jpg	NY	Right	Yes	0.961768799999845	0	520472	235
1017.587890625	1	decision	trialStart	3	133	13	foodImage.35	FOODEEG_Images\0350.jpg	YN	Left	Yes	0.736383499999647	0	521006	251
1018.626953125	2	decision	foodImageDisplay	3	133	13	foodImage.35	FOODEEG_Images\0350.jpg	YN	Left	Yes	0.736383499999647	0	521538	252
1020.689453125	0.736383499999647	decision	choicePhaseStart	3	133	13	foodImage.35	FOODEEG_Images\0350.jpg	YN	Left	Yes	0.736383499999647	0	522594	253
1021.41796875	0	decision	response	3	133	13	foodImage.35	FOODEEG_Images\0350.jpg	YN	Left	Yes	0.736383499999647	0	522967	234
1022.4609375	1	health	trialStart	3	134	14	foodImage.78	FOODEEG_Images\0787.jpg	NY	Right	Yes	1.0771883999987	0	523501	251
1023.505859375	2	health	foodImageDisplay	3	134	14	foodImage.78	FOODEEG_Images\0787.jpg	NY	Right	Yes	1.0771883999987	0	524036	252
1025.57421875	1.0771883999987	health	choicePhaseStart	3	134	14	foodImage.78	FOODEEG_Images\0787.jpg	NY	Right	Yes	1.0771883999987	0	525095	253
1026.640625	0	health	response	3	134	14	foodImage.78	FOODEEG_Images\0787.jpg	NY	Right	Yes	1.0771883999987	0	525641	235
1027.685546875	1	health	trialStart	3	135	15	foodImage.74	FOODEEG_Images\0752.jpg	YN	Left	Yes	0.5371281000007	0	526176	251
1028.73046875	2	health	foodImageDisplay	3	135	15	foodImage.74	FOODEEG_Images\0752.jpg	YN	Left	Yes	0.5371281000007	0	526711	252
1030.79296875	0.5371281000007	health	choicePhaseStart	3	135	15	foodImage.74	FOODEEG_Images\0752.jpg	YN	Left	Yes	0.5371281000007	0	527767	253
1031.3203125	0	health	response	3	135	15	foodImage.74	FOODEEG_Images\0752.jpg	YN	Left	Yes	0.5371281000007	0	528037	234
1032.36328125	1	taste	trialStart	3	136	16	foodImage.113	FOODEEG_Images\0921.jpg	NY	Left	No	0.625097399999504	0	528571	251
1033.40234375	2	taste	foodImageDisplay	3	136	16	foodImage.113	FOODEEG_Images\0921.jpg	NY	Left	No	0.625097399999504	0	529103	252
1035.46484375	0.625097399999504	taste	choicePhaseStart	3	136	16	foodImage.113	FOODEEG_Images\0921.jpg	NY	Left	No	0.625097399999504	0	530159	253
1036.08203125	0	taste	response	3	136	16	foodImage.113	FOODEEG_Images\0921.jpg	NY	Left	No	0.625097399999504	0	530475	234
1037.12890625	1	taste	trialStart	3	137	17	foodImage.79	FOODEEG_Images\0794.jpg	YN	Left	Yes	1.06910509999943	0	531011	251
1038.173828125	2	taste	foodImageDisplay	3	137	17	foodImage.79	FOODEEG_Images\0794.jpg	YN	Left	Yes	1.06910509999943	0	531546	252
1040.236328125	1.06910509999943	taste	choicePhaseStart	3	137	17	foodImage.79	FOODEEG_Images\0794.jpg	YN	Left	Yes	1.06910509999943	0	532602	253
1041.296875	0	taste	response	3	137	17	foodImage.79	FOODEEG_Images\0794.jpg	YN	Left	Yes	1.06910509999943	0	533145	234
1042.3515625	1	decision	trialStart	3	138	18	foodImage.115	FOODEEG_Images\0923.jpg	NY	Left	No	0.707824600001913	0	533685	251
1043.390625	2	decision	foodImageDisplay	3	138	18	foodImage.115	FOODEEG_Images\0923.jpg	NY	Left	No	0.707824600001913	0	534217	252
1045.453125	0.707824600001913	decision	choicePhaseStart	3	138	18	foodImage.115	FOODEEG_Images\0923.jpg	NY	Left	No	0.707824600001913	0	535273	253
1046.15234375	0	decision	response	3	138	18	foodImage.115	FOODEEG_Images\0923.jpg	NY	Left	No	0.707824600001913	0	535631	234
1047.1953125	1	taste	trialStart	3	139	19	foodImage.69	FOODEEG_Images\0693.jpg	NY	Right	Yes	0.611044500001299	0	536165	251
1048.23828125	2	taste	foodImageDisplay	3	139	19	foodImage.69	FOODEEG_Images\0693.jpg	NY	Right	Yes	0.611044500001299	0	536699	252
1050.30078125	0.611044500001299	taste	choicePhaseStart	3	139	19	foodImage.69	FOODEEG_Images\0693.jpg	NY	Right	Yes	0.611044500001299	0	537755	253
1050.904296875	0	taste	response	3	139	19	foodImage.69	FOODEEG_Images\0693.jpg	NY	Right	Yes	0.611044500001299	0	538064	235
1051.947265625	1	taste	trialStart	3	140	20	foodImage.99	FOODEEG_Images\0907.jpg	NY	Left	No	0.576412100002926	0	538598	251
1052.984375	2	taste	foodImageDisplay	3	140	20	foodImage.99	FOODEEG_Images\0907.jpg	NY	Left	No	0.576412100002926	0	539129	252
1055.048828125	0.576412100002926	taste	choicePhaseStart	3	140	20	foodImage.99	FOODEEG_Images\0907.jpg	NY	Left	No	0.576412100002926	0	540186	253
1055.615234375	0	taste	response	3	140	20	foodImage.99	FOODEEG_Images\0907.jpg	NY	Left	No	0.576412100002926	0	540476	234
1056.658203125	1	decision	trialStart	3	141	21	foodImage.41	FOODEEG_Images\0409.jpg	NY	Right	Yes	0.607970300003217	0	541010	251
1057.705078125	2	decision	foodImageDisplay	3	141	21	foodImage.41	FOODEEG_Images\0409.jpg	NY	Right	Yes	0.607970300003217	0	541546	252
1059.76953125	0.607970300003217	decision	choicePhaseStart	3	141	21	foodImage.41	FOODEEG_Images\0409.jpg	NY	Right	Yes	0.607970300003217	0	542603	253
1060.3671875	0	decision	response	3	141	21	foodImage.41	FOODEEG_Images\0409.jpg	NY	Right	Yes	0.607970300003217	0	542909	235
1061.41015625	1	taste	trialStart	3	142	22	foodImage.47	FOODEEG_Images\0488.jpg	YN	Left	Yes	0.646515099997487	0	543443	251
1062.451171875	2	taste	foodImageDisplay	3	142	22	foodImage.47	FOODEEG_Images\0488.jpg	YN	Left	Yes	0.646515099997487	0	543976	252
1064.513671875	0.646515099997487	taste	choicePhaseStart	3	142	22	foodImage.47	FOODEEG_Images\0488.jpg	YN	Left	Yes	0.646515099997487	0	545032	253
1065.15234375	0	taste	response	3	142	22	foodImage.47	FOODEEG_Images\0488.jpg	YN	Left	Yes	0.646515099997487	0	545359	234
1066.193359375	1	decision	trialStart	3	143	23	foodImage.22	FOODEEG_Images\0236.jpg	NY	Right	Yes	0.631154799997603	0	545892	251
1067.234375	2	decision	foodImageDisplay	3	143	23	foodImage.22	FOODEEG_Images\0236.jpg	NY	Right	Yes	0.631154799997603	0	546425	252
1069.296875	0.631154799997603	decision	choicePhaseStart	3	143	23	foodImage.22	FOODEEG_Images\0236.jpg	NY	Right	Yes	0.631154799997603	0	547481	253
1069.919921875	0	decision	response	3	143	23	foodImage.22	FOODEEG_Images\0236.jpg	NY	Right	Yes	0.631154799997603	0	547800	235
1070.962890625	1	health	trialStart	3	144	24	foodImage.30	FOODEEG_Images\0282.jpg	YN	Left	Yes	0.817374899997958	0	548334	251
1072.005859375	2	health	foodImageDisplay	3	144	24	foodImage.30	FOODEEG_Images\0282.jpg	YN	Left	Yes	0.817374899997958	0	548868	252
1074.068359375	0.817374899997958	health	choicePhaseStart	3	144	24	foodImage.30	FOODEEG_Images\0282.jpg	YN	Left	Yes	0.817374899997958	0	549924	253
1074.87890625	0	health	response	3	144	24	foodImage.30	FOODEEG_Images\0282.jpg	YN	Left	Yes	0.817374899997958	0	550339	234
1075.921875	1	health	trialStart	3	145	25	foodImage.53	FOODEEG_Images\0547.jpg	NY	Left	No	0.950577299998258	0	550873	251
1076.978515625	2	health	foodImageDisplay	3	145	25	foodImage.53	FOODEEG_Images\0547.jpg	NY	Left	No	0.950577299998258	0	551414	252
1079.041015625	0.950577299998258	health	choicePhaseStart	3	145	25	foodImage.53	FOODEEG_Images\0547.jpg	NY	Left	No	0.950577299998258	0	552470	253
1079.982421875	0	health	response	3	145	25	foodImage.53	FOODEEG_Images\0547.jpg	NY	Left	No	0.950577299998258	0	552952	234
1081.025390625	1	decision	trialStart	3	146	26	foodImage.106	FOODEEG_Images\0914.jpg	NY	Left	No	0.615962600000785	0	553486	251
1082.064453125	2	decision	foodImageDisplay	3	146	26	foodImage.106	FOODEEG_Images\0914.jpg	NY	Left	No	0.615962600000785	0	554018	252
1084.12890625	0.615962600000785	decision	choicePhaseStart	3	146	26	foodImage.106	FOODEEG_Images\0914.jpg	NY	Left	No	0.615962600000785	0	555075	253
1084.734375	0	decision	response	3	146	26	foodImage.106	FOODEEG_Images\0914.jpg	NY	Left	No	0.615962600000785	0	555385	234
1085.779296875	1	health	trialStart	3	147	27	foodImage.28	FOODEEG_Images\0273.jpg	YN	Left	Yes	0.591269200001989	0	555920	251
1086.822265625	2	health	foodImageDisplay	3	147	27	foodImage.28	FOODEEG_Images\0273.jpg	YN	Left	Yes	0.591269200001989	0	556454	252
1088.888671875	0.591269200001989	health	choicePhaseStart	3	147	27	foodImage.28	FOODEEG_Images\0273.jpg	YN	Left	Yes	0.591269200001989	0	557512	253
1089.470703125	0	health	response	3	147	27	foodImage.28	FOODEEG_Images\0273.jpg	YN	Left	Yes	0.591269200001989	0	557810	234
1090.513671875	1	decision	trialStart	3	148	28	foodImage.13	FOODEEG_Images\0183.jpg	YN	Left	Yes	0.875640899997961	0	558344	251
1091.556640625	2	decision	foodImageDisplay	3	148	28	foodImage.13	FOODEEG_Images\0183.jpg	YN	Left	Yes	0.875640899997961	0	558878	252
1093.619140625	0.875640899997961	decision	choicePhaseStart	3	148	28	foodImage.13	FOODEEG_Images\0183.jpg	YN	Left	Yes	0.875640899997961	0	559934	253
1094.486328125	0	decision	response	3	148	28	foodImage.13	FOODEEG_Images\0183.jpg	YN	Left	Yes	0.875640899997961	0	560378	234
1095.529296875	1	health	trialStart	3	149	29	foodImage.116	FOODEEG_Images\0924.jpg	YN	Right	No	0.997691399999894	0	560912	251
1096.568359375	2	health	foodImageDisplay	3	149	29	foodImage.116	FOODEEG_Images\0924.jpg	YN	Right	No	0.997691399999894	0	561444	252
1098.6328125	0.997691399999894	health	choicePhaseStart	3	149	29	foodImage.116	FOODEEG_Images\0924.jpg	YN	Right	No	0.997691399999894	0	562501	253
1099.623046875	0	health	response	3	149	29	foodImage.116	FOODEEG_Images\0924.jpg	YN	Right	No	0.997691399999894	0	563008	235
1100.666015625	1	decision	trialStart	3	150	30	foodImage.28	FOODEEG_Images\0273.jpg	NY	Right	Yes	1.40469909999956	0	563542	251
1101.708984375	2	decision	foodImageDisplay	3	150	30	foodImage.28	FOODEEG_Images\0273.jpg	NY	Right	Yes	1.40469909999956	0	564076	252
1103.771484375	1.40469909999956	decision	choicePhaseStart	3	150	30	foodImage.28	FOODEEG_Images\0273.jpg	NY	Right	Yes	1.40469909999956	0	565132	253
1105.166015625	0	decision	response	3	150	30	foodImage.28	FOODEEG_Images\0273.jpg	NY	Right	Yes	1.40469909999956	0	565846	235
1106.208984375	1	decision	trialStart	3	151	31	foodImage.16	FOODEEG_Images\0196.jpg	YN	Left	Yes	1.23437570000169	0	566380	251
1107.26953125	2	decision	foodImageDisplay	3	151	31	foodImage.16	FOODEEG_Images\0196.jpg	YN	Left	Yes	1.23437570000169	0	566923	252
1109.33203125	1.23437570000169	decision	choicePhaseStart	3	151	31	foodImage.16	FOODEEG_Images\0196.jpg	YN	Left	Yes	1.23437570000169	0	567979	253
1110.55859375	0	decision	response	3	151	31	foodImage.16	FOODEEG_Images\0196.jpg	YN	Left	Yes	1.23437570000169	0	568607	234
1111.599609375	1	taste	trialStart	3	152	32	foodImage.114	FOODEEG_Images\0922.jpg	YN	Right	No	0.865404099997249	0	569140	251
1112.638671875	2	taste	foodImageDisplay	3	152	32	foodImage.114	FOODEEG_Images\0922.jpg	YN	Right	No	0.865404099997249	0	569672	252
1114.701171875	0.865404099997249	taste	choicePhaseStart	3	152	32	foodImage.114	FOODEEG_Images\0922.jpg	YN	Right	No	0.865404099997249	0	570728	253
1115.55859375	0	taste	response	3	152	32	foodImage.114	FOODEEG_Images\0922.jpg	YN	Right	No	0.865404099997249	0	571167	235
1116.6015625	1	taste	trialStart	3	153	33	foodImage.19	FOODEEG_Images\0225.jpg	YN	Left	Yes	0.771813100000145	0	571701	251
1117.64453125	2	taste	foodImageDisplay	3	153	33	foodImage.19	FOODEEG_Images\0225.jpg	YN	Left	Yes	0.771813100000145	0	572235	252
1119.70703125	0.771813100000145	taste	choicePhaseStart	3	153	33	foodImage.19	FOODEEG_Images\0225.jpg	YN	Left	Yes	0.771813100000145	0	573291	253
1120.46875	0	taste	response	3	153	33	foodImage.19	FOODEEG_Images\0225.jpg	YN	Left	Yes	0.771813100000145	0	573681	234
1121.513671875	1	decision	trialStart	3	154	34	foodImage.51	FOODEEG_Images\0536.jpg	NY	Right	Yes	0.750001199998223	0	574216	251
1122.55859375	2	decision	foodImageDisplay	3	154	34	foodImage.51	FOODEEG_Images\0536.jpg	NY	Right	Yes	0.750001199998223	0	574751	252
1124.623046875	0.750001199998223	decision	choicePhaseStart	3	154	34	foodImage.51	FOODEEG_Images\0536.jpg	NY	Right	Yes	0.750001199998223	0	575808	253
1125.365234375	0	decision	response	3	154	34	foodImage.51	FOODEEG_Images\0536.jpg	NY	Right	Yes	0.750001199998223	0	576188	235
1126.408203125	1	taste	trialStart	3	155	35	foodImage.6	FOODEEG_Images\0113.jpg	NY	Right	Yes	1.2976192999995	0	576722	251
1127.453125	2	taste	foodImageDisplay	3	155	35	foodImage.6	FOODEEG_Images\0113.jpg	NY	Right	Yes	1.2976192999995	0	577257	252
1129.515625	1.2976192999995	taste	choicePhaseStart	3	155	35	foodImage.6	FOODEEG_Images\0113.jpg	NY	Right	Yes	1.2976192999995	0	578313	253
1130.8046875	0	taste	response	3	155	35	foodImage.6	FOODEEG_Images\0113.jpg	NY	Right	Yes	1.2976192999995	0	578973	235
1131.845703125	1	health	trialStart	3	156	36	foodImage.54	FOODEEG_Images\0560.jpg	YN	Left	Yes	1.01160189999791	0	579506	251
1132.904296875	2	health	foodImageDisplay	3	156	36	foodImage.54	FOODEEG_Images\0560.jpg	YN	Left	Yes	1.01160189999791	0	580048	252
1134.96875	1.01160189999791	health	choicePhaseStart	3	156	36	foodImage.54	FOODEEG_Images\0560.jpg	YN	Left	Yes	1.01160189999791	0	581105	253
1135.97265625	0	health	response	3	156	36	foodImage.54	FOODEEG_Images\0560.jpg	YN	Left	Yes	1.01160189999791	0	581619	234
1137.015625	1	health	trialStart	3	157	37	foodImage.70	FOODEEG_Images\0705.jpg	YN	Left	Yes	1.07955609999772	0	582153	251
1138.072265625	2	health	foodImageDisplay	3	157	37	foodImage.70	FOODEEG_Images\0705.jpg	YN	Left	Yes	1.07955609999772	0	582694	252
1140.134765625	1.07955609999772	health	choicePhaseStart	3	157	37	foodImage.70	FOODEEG_Images\0705.jpg	YN	Left	Yes	1.07955609999772	0	583750	253
1141.205078125	0	health	response	3	157	37	foodImage.70	FOODEEG_Images\0705.jpg	YN	Left	Yes	1.07955609999772	0	584298	234
1142.244140625	1	health	trialStart	3	158	38	foodImage.13	FOODEEG_Images\0183.jpg	NY	Right	Yes	1.26409970000168	0	584830	251
1143.287109375	2	health	foodImageDisplay	3	158	38	foodImage.13	FOODEEG_Images\0183.jpg	NY	Right	Yes	1.26409970000168	0	585364	252
1145.349609375	1.26409970000168	health	choicePhaseStart	3	158	38	foodImage.13	FOODEEG_Images\0183.jpg	NY	Right	Yes	1.26409970000168	0	586420	253
1146.603515625	0	health	response	3	158	38	foodImage.13	FOODEEG_Images\0183.jpg	NY	Right	Yes	1.26409970000168	0	587062	235
1147.646484375	1	decision	trialStart	3	159	39	foodImage.50	FOODEEG_Images\0529.jpg	NY	Left	No	0.807943499999965	0	587596	251
1148.703125	2	decision	foodImageDisplay	3	159	39	foodImage.50	FOODEEG_Images\0529.jpg	NY	Left	No	0.807943499999965	0	588137	252
1150.771484375	0.807943499999965	decision	choicePhaseStart	3	159	39	foodImage.50	FOODEEG_Images\0529.jpg	NY	Left	No	0.807943499999965	0	589196	253
1151.572265625	0	decision	response	3	159	39	foodImage.50	FOODEEG_Images\0529.jpg	NY	Left	No	0.807943499999965	0	589606	234
1152.615234375	1	taste	trialStart	3	160	40	foodImage.112	FOODEEG_Images\0920.jpg	YN	Right	No	0.793491800002812	0	590140	251
1153.65234375	2	taste	foodImageDisplay	3	160	40	foodImage.112	FOODEEG_Images\0920.jpg	YN	Right	No	0.793491800002812	0	590671	252
1155.71484375	0.793491800002812	taste	choicePhaseStart	3	160	40	foodImage.112	FOODEEG_Images\0920.jpg	YN	Right	No	0.793491800002812	0	591727	253
1156.5	0	taste	response	3	160	40	foodImage.112	FOODEEG_Images\0920.jpg	YN	Right	No	0.793491800002812	0	592129	235
1157.54296875	1	decision	trialStart	3	161	41	foodImage.14	FOODEEG_Images\0188.jpg	NY	Right	Yes	0.622441599996819	0	592663	251
1158.599609375	2	decision	foodImageDisplay	3	161	41	foodImage.14	FOODEEG_Images\0188.jpg	NY	Right	Yes	0.622441599996819	0	593204	252
1160.662109375	0.622441599996819	decision	choicePhaseStart	3	161	41	foodImage.14	FOODEEG_Images\0188.jpg	NY	Right	Yes	0.622441599996819	0	594260	253
1161.275390625	0	decision	response	3	161	41	foodImage.14	FOODEEG_Images\0188.jpg	NY	Right	Yes	0.622441599996819	0	594574	235
1162.318359375	1	taste	trialStart	3	162	42	foodImage.23	FOODEEG_Images\0244.jpg	YN	Left	Yes	0.709542600001441	0	595108	251
1163.359375	2	taste	foodImageDisplay	3	162	42	foodImage.23	FOODEEG_Images\0244.jpg	YN	Left	Yes	0.709542600001441	0	595641	252
1165.423828125	0.709542600001441	taste	choicePhaseStart	3	162	42	foodImage.23	FOODEEG_Images\0244.jpg	YN	Left	Yes	0.709542600001441	0	596698	253
1166.123046875	0	taste	response	3	162	42	foodImage.23	FOODEEG_Images\0244.jpg	YN	Left	Yes	0.709542600001441	0	597056	234
1167.16796875	1	taste	trialStart	3	163	43	foodImage.115	FOODEEG_Images\0923.jpg	YN	Right	No	0.513377100000071	0	597591	251
1168.220703125	2	taste	foodImageDisplay	3	163	43	foodImage.115	FOODEEG_Images\0923.jpg	YN	Right	No	0.513377100000071	0	598130	252
1170.283203125	0.513377100000071	taste	choicePhaseStart	3	163	43	foodImage.115	FOODEEG_Images\0923.jpg	YN	Right	No	0.513377100000071	0	599186	253
1170.787109375	0	taste	response	3	163	43	foodImage.115	FOODEEG_Images\0923.jpg	YN	Right	No	0.513377100000071	0	599444	235
1171.830078125	1	health	trialStart	3	164	44	foodImage.36	FOODEEG_Images\0352.jpg	NY	Left	No	1.06731369999761	0	599978	251
1172.88671875	2	health	foodImageDisplay	3	164	44	foodImage.36	FOODEEG_Images\0352.jpg	NY	Left	No	1.06731369999761	0	600519	252
1174.951171875	1.06731369999761	health	choicePhaseStart	3	164	44	foodImage.36	FOODEEG_Images\0352.jpg	NY	Left	No	1.06731369999761	0	601576	253
1176.01171875	0	health	response	3	164	44	foodImage.36	FOODEEG_Images\0352.jpg	NY	Left	No	1.06731369999761	0	602119	234
1177.0546875	1	taste	trialStart	3	165	45	foodImage.58	FOODEEG_Images\0605.jpg	NY	Right	Yes	1.14132220000101	0	602653	251
1178.11328125	2	taste	foodImageDisplay	3	165	45	foodImage.58	FOODEEG_Images\0605.jpg	NY	Right	Yes	1.14132220000101	0	603195	252
1180.17578125	1.14132220000101	taste	choicePhaseStart	3	165	45	foodImage.58	FOODEEG_Images\0605.jpg	NY	Right	Yes	1.14132220000101	0	604251	253
1181.306640625	0	taste	response	3	165	45	foodImage.58	FOODEEG_Images\0605.jpg	NY	Right	Yes	1.14132220000101	0	604830	235
1182.35546875	1	taste	trialStart	3	166	46	foodImage.10	FOODEEG_Images\0145.jpg	NY	Right	Yes	0.987051200001588	0	605367	251
1183.423828125	2	taste	foodImageDisplay	3	166	46	foodImage.10	FOODEEG_Images\0145.jpg	NY	Right	Yes	0.987051200001588	0	605914	252
1185.486328125	0.987051200001588	taste	choicePhaseStart	3	166	46	foodImage.10	FOODEEG_Images\0145.jpg	NY	Right	Yes	0.987051200001588	0	606970	253
1186.466796875	0	taste	response	3	166	46	foodImage.10	FOODEEG_Images\0145.jpg	NY	Right	Yes	0.987051200001588	0	607472	235
1187.517578125	1	health	trialStart	3	167	47	foodImage.4	FOODEEG_Images\0065.jpg	NY	Left	No	1.02395310000065	0	608010	251
1188.57421875	2	health	foodImageDisplay	3	167	47	foodImage.4	FOODEEG_Images\0065.jpg	NY	Left	No	1.02395310000065	0	608551	252
1190.63671875	1.02395310000065	health	choicePhaseStart	3	167	47	foodImage.4	FOODEEG_Images\0065.jpg	NY	Left	No	1.02395310000065	0	609607	253
1191.650390625	0	health	response	3	167	47	foodImage.4	FOODEEG_Images\0065.jpg	NY	Left	No	1.02395310000065	0	610126	234
1192.693359375	1	taste	trialStart	3	168	48	foodImage.77	FOODEEG_Images\0771.jpg	NY	Left	No	1.34565270000166	0	610660	251
1193.73828125	2	taste	foodImageDisplay	3	168	48	foodImage.77	FOODEEG_Images\0771.jpg	NY	Left	No	1.34565270000166	0	611195	252
1195.802734375	1.34565270000166	taste	choicePhaseStart	3	168	48	foodImage.77	FOODEEG_Images\0771.jpg	NY	Left	No	1.34565270000166	0	612252	253
1197.138671875	0	taste	response	3	168	48	foodImage.77	FOODEEG_Images\0771.jpg	NY	Left	No	1.34565270000166	0	612936	234
1198.1796875	1	health	trialStart	3	169	49	foodImage.64	FOODEEG_Images\0647.jpg	YN	Left	Yes	1.00572100000136	0	613469	251
1199.23828125	2	health	foodImageDisplay	3	169	49	foodImage.64	FOODEEG_Images\0647.jpg	YN	Left	Yes	1.00572100000136	0	614011	252
1201.302734375	1.00572100000136	health	choicePhaseStart	3	169	49	foodImage.64	FOODEEG_Images\0647.jpg	YN	Left	Yes	1.00572100000136	0	615068	253
1202.298828125	0	health	response	3	169	49	foodImage.64	FOODEEG_Images\0647.jpg	YN	Left	Yes	1.00572100000136	0	615578	234
1203.341796875	1	health	trialStart	3	170	50	foodImage.58	FOODEEG_Images\0605.jpg	NY	Right	Yes	0.939929500000289	0	616112	251
1204.400390625	2	health	foodImageDisplay	3	170	50	foodImage.58	FOODEEG_Images\0605.jpg	NY	Right	Yes	0.939929500000289	0	616654	252
1206.462890625	0.939929500000289	health	choicePhaseStart	3	170	50	foodImage.58	FOODEEG_Images\0605.jpg	NY	Right	Yes	0.939929500000289	0	617710	253
1207.39453125	0	health	response	3	170	50	foodImage.58	FOODEEG_Images\0605.jpg	NY	Right	Yes	0.939929500000289	0	618187	235
1208.443359375	1	health	trialStart	3	171	51	foodImage.105	FOODEEG_Images\0913.jpg	NY	Left	No	0.844502299998567	0	618724	251
1209.48046875	2	health	foodImageDisplay	3	171	51	foodImage.105	FOODEEG_Images\0913.jpg	NY	Left	No	0.844502299998567	0	619255	252
1211.54296875	0.844502299998567	health	choicePhaseStart	3	171	51	foodImage.105	FOODEEG_Images\0913.jpg	NY	Left	No	0.844502299998567	0	620311	253
1212.376953125	0	health	response	3	171	51	foodImage.105	FOODEEG_Images\0913.jpg	NY	Left	No	0.844502299998567	0	620738	234
1213.419921875	1	decision	trialStart	3	172	52	foodImage.55	FOODEEG_Images\0567.jpg	NY	Right	Yes	0.690803199999209	0	621272	251
1214.4765625	2	decision	foodImageDisplay	3	172	52	foodImage.55	FOODEEG_Images\0567.jpg	NY	Right	Yes	0.690803199999209	0	621813	252
1216.544921875	0.690803199999209	decision	choicePhaseStart	3	172	52	foodImage.55	FOODEEG_Images\0567.jpg	NY	Right	Yes	0.690803199999209	0	622872	253
1217.2265625	0	decision	response	3	172	52	foodImage.55	FOODEEG_Images\0567.jpg	NY	Right	Yes	0.690803199999209	0	623221	235
1218.26953125	1	health	trialStart	3	173	53	foodImage.17	FOODEEG_Images\0199.jpg	NY	Right	Yes	1.6056779999999	0	623755	251
1219.310546875	2	health	foodImageDisplay	3	173	53	foodImage.17	FOODEEG_Images\0199.jpg	NY	Right	Yes	1.6056779999999	0	624288	252
1221.373046875	1.6056779999999	health	choicePhaseStart	3	173	53	foodImage.17	FOODEEG_Images\0199.jpg	NY	Right	Yes	1.6056779999999	0	625344	253
1222.96875	0	health	response	3	173	53	foodImage.17	FOODEEG_Images\0199.jpg	NY	Right	Yes	1.6056779999999	0	626161	235
1224.009765625	1	taste	trialStart	3	174	54	foodImage.95	FOODEEG_Images\0903.jpg	YN	Right	No	0.946304500001133	0	626694	251
1225.048828125	2	taste	foodImageDisplay	3	174	54	foodImage.95	FOODEEG_Images\0903.jpg	YN	Right	No	0.946304500001133	0	627226	252
1227.111328125	0.946304500001133	taste	choicePhaseStart	3	174	54	foodImage.95	FOODEEG_Images\0903.jpg	YN	Right	No	0.946304500001133	0	628282	253
1228.048828125	0	taste	response	3	174	54	foodImage.95	FOODEEG_Images\0903.jpg	YN	Right	No	0.946304500001133	0	628762	235
1229.091796875	1	decision	trialStart	3	175	55	foodImage.73	FOODEEG_Images\0717.jpg	NY	Right	Yes	0.82213160000174	0	629296	251
1230.1484375	2	decision	foodImageDisplay	3	175	55	foodImage.73	FOODEEG_Images\0717.jpg	NY	Right	Yes	0.82213160000174	0	629837	252
1232.212890625	0.82213160000174	decision	choicePhaseStart	3	175	55	foodImage.73	FOODEEG_Images\0717.jpg	NY	Right	Yes	0.82213160000174	0	630894	253
1233.025390625	0	decision	response	3	175	55	foodImage.73	FOODEEG_Images\0717.jpg	NY	Right	Yes	0.82213160000174	0	631310	235
1234.068359375	1	health	trialStart	3	176	56	foodImage.20	FOODEEG_Images\0226.jpg	YN	Left	Yes	1.03703189999942	0	631844	251
1235.109375	2	health	foodImageDisplay	3	176	56	foodImage.20	FOODEEG_Images\0226.jpg	YN	Left	Yes	1.03703189999942	0	632377	252
1237.171875	1.03703189999942	health	choicePhaseStart	3	176	56	foodImage.20	FOODEEG_Images\0226.jpg	YN	Left	Yes	1.03703189999942	0	633433	253
1238.201171875	0	health	response	3	176	56	foodImage.20	FOODEEG_Images\0226.jpg	YN	Left	Yes	1.03703189999942	0	633960	234
1239.2421875	1	decision	trialStart	3	177	57	foodImage.19	FOODEEG_Images\0225.jpg	YN	Left	Yes	0.764019000002008	0	634493	251
1240.28515625	2	decision	foodImageDisplay	3	177	57	foodImage.19	FOODEEG_Images\0225.jpg	YN	Left	Yes	0.764019000002008	0	635027	252
1242.349609375	0.764019000002008	decision	choicePhaseStart	3	177	57	foodImage.19	FOODEEG_Images\0225.jpg	YN	Left	Yes	0.764019000002008	0	636084	253
1243.103515625	0	decision	response	3	177	57	foodImage.19	FOODEEG_Images\0225.jpg	YN	Left	Yes	0.764019000002008	0	636470	234
1244.146484375	1	decision	trialStart	3	178	58	foodImage.25	FOODEEG_Images\0261.jpg	NY	Right	Yes	1.07143480000013	0	637004	251
1245.1875	2	decision	foodImageDisplay	3	178	58	foodImage.25	FOODEEG_Images\0261.jpg	NY	Right	Yes	1.07143480000013	0	637537	252
1247.25	1.07143480000013	decision	choicePhaseStart	3	178	58	foodImage.25	FOODEEG_Images\0261.jpg	NY	Right	Yes	1.07143480000013	0	638593	253
1248.3125	0	decision	response	3	178	58	foodImage.25	FOODEEG_Images\0261.jpg	NY	Right	Yes	1.07143480000013	0	639137	235
1249.35546875	1	decision	trialStart	3	179	59	foodImage.98	FOODEEG_Images\0906.jpg	NY	Right	Yes	1.35065319999921	0	639671	251
1250.392578125	2	decision	foodImageDisplay	3	179	59	foodImage.98	FOODEEG_Images\0906.jpg	NY	Right	Yes	1.35065319999921	0	640202	252
1252.458984375	1.35065319999921	decision	choicePhaseStart	3	179	59	foodImage.98	FOODEEG_Images\0906.jpg	NY	Right	Yes	1.35065319999921	0	641260	253
1253.80078125	0	decision	response	3	179	59	foodImage.98	FOODEEG_Images\0906.jpg	NY	Right	Yes	1.35065319999921	0	641947	235
1254.841796875	1	taste	trialStart	3	180	60	foodImage.96	FOODEEG_Images\0904.jpg	NY	Right	Yes	0.634777799998119	0	642480	251
1255.880859375	2	taste	foodImageDisplay	3	180	60	foodImage.96	FOODEEG_Images\0904.jpg	NY	Right	Yes	0.634777799998119	0	643012	252
1257.943359375	0.634777799998119	taste	choicePhaseStart	3	180	60	foodImage.96	FOODEEG_Images\0904.jpg	NY	Right	Yes	0.634777799998119	0	644068	253
1258.568359375	0	taste	response	3	180	60	foodImage.96	FOODEEG_Images\0904.jpg	NY	Right	Yes	0.634777799998119	0	644388	235
1260.611328125	10.705078125	n/a	blockEnd	n/a	n/a	n/a	n/a	n/a	n/a	n/a	n/a	n/a	n/a	645434	254
1271.31640625	2	n/a	blockStart	4	n/a	n/a	n/a	n/a	n/a	n/a	n/a	n/a	n/a	650915	250
1273.34765625	1	taste	trialStart	4	181	1	foodImage.52	FOODEEG_Images\0539.jpg	NY	Right	Yes	0.665222299998277	0	651955	251
1274.408203125	2	taste	foodImageDisplay	4	181	1	foodImage.52	FOODEEG_Images\0539.jpg	NY	Right	Yes	0.665222299998277	0	652498	252
1276.470703125	0.665222299998277	taste	choicePhaseStart	4	181	1	foodImage.52	FOODEEG_Images\0539.jpg	NY	Right	Yes	0.665222299998277	0	653554	253
1277.126953125	0	taste	response	4	181	1	foodImage.52	FOODEEG_Images\0539.jpg	NY	Right	Yes	0.665222299998277	0	653890	235
1278.173828125	1	decision	trialStart	4	182	2	foodImage.117	FOODEEG_Images\0925.jpg	YN	Right	No	0.699845999999525	0	654426	251
1279.212890625	2	decision	foodImageDisplay	4	182	2	foodImage.117	FOODEEG_Images\0925.jpg	YN	Right	No	0.699845999999525	0	654958	252
1281.275390625	0.699845999999525	decision	choicePhaseStart	4	182	2	foodImage.117	FOODEEG_Images\0925.jpg	YN	Right	No	0.699845999999525	0	656014	253
1281.966796875	0	decision	response	4	182	2	foodImage.117	FOODEEG_Images\0925.jpg	YN	Right	No	0.699845999999525	0	656368	235
1283.009765625	1	decision	trialStart	4	183	3	foodImage.42	FOODEEG_Images\0438.jpg	YN	Right	No	0.472332999997889	0	656902	251
1284.095703125	2	decision	foodImageDisplay	4	183	3	foodImage.42	FOODEEG_Images\0438.jpg	YN	Right	No	0.472332999997889	0	657458	252
1286.16015625	0.472332999997889	decision	choicePhaseStart	4	183	3	foodImage.42	FOODEEG_Images\0438.jpg	YN	Right	No	0.472332999997889	0	658515	253
1286.623046875	0	decision	response	4	183	3	foodImage.42	FOODEEG_Images\0438.jpg	YN	Right	No	0.472332999997889	0	658752	235
1287.666015625	1	decision	trialStart	4	184	4	foodImage.18	FOODEEG_Images\0202.jpg	NY	Right	Yes	1.56606759999704	0	659286	251
1288.72265625	2	decision	foodImageDisplay	4	184	4	foodImage.18	FOODEEG_Images\0202.jpg	NY	Right	Yes	1.56606759999704	0	659827	252
1290.78515625	1.56606759999704	decision	choicePhaseStart	4	184	4	foodImage.18	FOODEEG_Images\0202.jpg	NY	Right	Yes	1.56606759999704	0	660883	253
1292.341796875	0	decision	response	4	184	4	foodImage.18	FOODEEG_Images\0202.jpg	NY	Right	Yes	1.56606759999704	0	661680	235
1293.38671875	1	health	trialStart	4	185	5	foodImage.49	FOODEEG_Images\0515.jpg	YN	Left	Yes	1.16234150000309	0	662215	251
1294.42578125	2	health	foodImageDisplay	4	185	5	foodImage.49	FOODEEG_Images\0515.jpg	YN	Left	Yes	1.16234150000309	0	662747	252
1296.490234375	1.16234150000309	health	choicePhaseStart	4	185	5	foodImage.49	FOODEEG_Images\0515.jpg	YN	Left	Yes	1.16234150000309	0	663804	253
1297.646484375	0	health	response	4	185	5	foodImage.49	FOODEEG_Images\0515.jpg	YN	Left	Yes	1.16234150000309	0	664396	234
1298.6875	1	decision	trialStart	4	186	6	foodImage.12	FOODEEG_Images\0181.jpg	YN	Right	No	1.07895730000018	0	664929	251
1299.73046875	2	decision	foodImageDisplay	4	186	6	foodImage.12	FOODEEG_Images\0181.jpg	YN	Right	No	1.07895730000018	0	665463	252
1301.79296875	1.07895730000018	decision	choicePhaseStart	4	186	6	foodImage.12	FOODEEG_Images\0181.jpg	YN	Right	No	1.07895730000018	0	666519	253
1302.86328125	0	decision	response	4	186	6	foodImage.12	FOODEEG_Images\0181.jpg	YN	Right	No	1.07895730000018	0	667067	235
1303.90625	1	health	trialStart	4	187	7	foodImage.111	FOODEEG_Images\0919.jpg	NY	Right	Yes	1.15159990000029	0	667601	251
1304.9453125	2	health	foodImageDisplay	4	187	7	foodImage.111	FOODEEG_Images\0919.jpg	NY	Right	Yes	1.15159990000029	0	668133	252
1307.0078125	1.15159990000029	health	choicePhaseStart	4	187	7	foodImage.111	FOODEEG_Images\0919.jpg	NY	Right	Yes	1.15159990000029	0	669189	253
1308.150390625	0	health	response	4	187	7	foodImage.111	FOODEEG_Images\0919.jpg	NY	Right	Yes	1.15159990000029	0	669774	235
1309.19921875	1	taste	trialStart	4	188	8	foodImage.62	FOODEEG_Images\0644.jpg	YN	Left	Yes	1.07018840000092	0	670311	251
1310.255859375	2	taste	foodImageDisplay	4	188	8	foodImage.62	FOODEEG_Images\0644.jpg	YN	Left	Yes	1.07018840000092	0	670852	252
1312.318359375	1.07018840000092	taste	choicePhaseStart	4	188	8	foodImage.62	FOODEEG_Images\0644.jpg	YN	Left	Yes	1.07018840000092	0	671908	253
1313.3828125	0	taste	response	4	188	8	foodImage.62	FOODEEG_Images\0644.jpg	YN	Left	Yes	1.07018840000092	0	672453	234
1314.42578125	1	decision	trialStart	4	189	9	foodImage.94	FOODEEG_Images\0902.jpg	NY	Left	No	0.737026399998285	0	672987	251
1315.462890625	2	decision	foodImageDisplay	4	189	9	foodImage.94	FOODEEG_Images\0902.jpg	NY	Left	No	0.737026399998285	0	673518	252
1317.525390625	0.737026399998285	decision	choicePhaseStart	4	189	9	foodImage.94	FOODEEG_Images\0902.jpg	NY	Left	No	0.737026399998285	0	674574	253
1318.25390625	0	decision	response	4	189	9	foodImage.94	FOODEEG_Images\0902.jpg	NY	Left	No	0.737026399998285	0	674947	234
1319.294921875	1	decision	trialStart	4	190	10	foodImage.67	FOODEEG_Images\0679.jpg	NY	Right	Yes	0.710471600003075	0	675480	251
1320.36328125	2	decision	foodImageDisplay	4	190	10	foodImage.67	FOODEEG_Images\0679.jpg	NY	Right	Yes	0.710471600003075	0	676027	252
1322.42578125	0.710471600003075	decision	choicePhaseStart	4	190	10	foodImage.67	FOODEEG_Images\0679.jpg	NY	Right	Yes	0.710471600003075	0	677083	253
1323.125	0	decision	response	4	190	10	foodImage.67	FOODEEG_Images\0679.jpg	NY	Right	Yes	0.710471600003075	0	677441	235
1324.16796875	1	decision	trialStart	4	191	11	foodImage.6	FOODEEG_Images\0113.jpg	NY	Right	Yes	0.579841099999612	0	677975	251
1325.2109375	2	decision	foodImageDisplay	4	191	11	foodImage.6	FOODEEG_Images\0113.jpg	NY	Right	Yes	0.579841099999612	0	678509	252
1327.275390625	0.579841099999612	decision	choicePhaseStart	4	191	11	foodImage.6	FOODEEG_Images\0113.jpg	NY	Right	Yes	0.579841099999612	0	679566	253
1327.845703125	0	decision	response	4	191	11	foodImage.6	FOODEEG_Images\0113.jpg	NY	Right	Yes	0.579841099999612	0	679858	235
1328.888671875	1	taste	trialStart	4	192	12	foodImage.75	FOODEEG_Images\0763.jpg	YN	Right	No	1.233988400003	0	680392	251
1329.931640625	2	taste	foodImageDisplay	4	192	12	foodImage.75	FOODEEG_Images\0763.jpg	YN	Right	No	1.233988400003	0	680926	252
1331.99609375	1.233988400003	taste	choicePhaseStart	4	192	12	foodImage.75	FOODEEG_Images\0763.jpg	YN	Right	No	1.233988400003	0	681983	253
1333.220703125	0	taste	response	4	192	12	foodImage.75	FOODEEG_Images\0763.jpg	YN	Right	No	1.233988400003	0	682610	235
