onset	duration	trial_type	event_type	block	trial_total	trial_in_block	food_image_code	food_image_path	button_position	resp_position	resp_choice	choice_rt	resp_too_slow	sample	trigger
304.927734375	2	n/a	blockStart	1	n/a	n/a	n/a	n/a	n/a	n/a	n/a	n/a	n/a	156124	250
306.96484375	1	health	trialStart	1	1	1	foodImage.98	FOODEEG_Images\0906.jpg	YN	Right	No	1.00227940001059	0	157167	251
308.0078125	2	health	foodImageDisplay	1	1	1	foodImage.98	FOODEEG_Images\0906.jpg	YN	Right	No	1.00227940001059	0	157701	252
310.072265625	1.00227940001059	health	choicePhaseStart	1	1	1	foodImage.98	FOODEEG_Images\0906.jpg	YN	Right	No	1.00227940001059	0	158758	253
311.06640625	0	health	response	1	1	1	foodImage.98	FOODEEG_Images\0906.jpg	YN	Right	No	1.00227940001059	0	159267	235
312.15625	1	taste	trialStart	1	2	2	foodImage.87	FOODEEG_Images\0873.jpg	NY	Left	No	0.81900129999849	0	159825	251
313.21484375	2	taste	foodImageDisplay	1	2	2	foodImage.87	FOODEEG_Images\0873.jpg	NY	Left	No	0.81900129999849	0	160367	252
315.279296875	0.81900129999849	taste	choicePhaseStart	1	2	2	foodImage.87	FOODEEG_Images\0873.jpg	NY	Left	No	0.81900129999849	0	161424	253
316.08984375	0	taste	response	1	2	2	foodImage.87	FOODEEG_Images\0873.jpg	NY	Left	No	0.81900129999849	0	161839	234
317.146484375	1	decision	trialStart	1	3	3	foodImage.24	FOODEEG_Images\0250.jpg	NY	Right	Yes	0.626708600000711	0	162380	251
318.189453125	2	decision	foodImageDisplay	1	3	3	foodImage.24	FOODEEG_Images\0250.jpg	NY	Right	Yes	0.626708600000711	0	162914	252
320.25390625	0.626708600000711	decision	choicePhaseStart	1	3	3	foodImage.24	FOODEEG_Images\0250.jpg	NY	Right	Yes	0.626708600000711	0	163971	253
320.875	0	decision	response	1	3	3	foodImage.24	FOODEEG_Images\0250.jpg	NY	Right	Yes	0.626708600000711	0	164289	235
321.91796875	1	taste	trialStart	1	4	4	foodImage.19	FOODEEG_Images\0225.jpg	NY	Left	No	0.792357199999969	0	164823	251
322.962890625	2	taste	foodImageDisplay	1	4	4	foodImage.19	FOODEEG_Images\0225.jpg	NY	Left	No	0.792357199999969	0	165358	252
325.02734375	0.792357199999969	taste	choicePhaseStart	1	4	4	foodImage.19	FOODEEG_Images\0225.jpg	NY	Left	No	0.792357199999969	0	166415	253
325.810546875	0	taste	response	1	4	4	foodImage.19	FOODEEG_Images\0225.jpg	NY	Left	No	0.792357199999969	0	166816	234
326.857421875	1	taste	trialStart	1	5	5	foodImage.25	FOODEEG_Images\0261.jpg	NY	Left	No	0.954141599999275	0	167352	251
327.904296875	2	taste	foodImageDisplay	1	5	5	foodImage.25	FOODEEG_Images\0261.jpg	NY	Left	No	0.954141599999275	0	167888	252
329.96875	0.954141599999275	taste	choicePhaseStart	1	5	5	foodImage.25	FOODEEG_Images\0261.jpg	NY	Left	No	0.954141599999275	0	168945	253
330.9140625	0	taste	response	1	5	5	foodImage.25	FOODEEG_Images\0261.jpg	NY	Left	No	0.954141599999275	0	169429	234
331.96484375	1	decision	trialStart	1	6	6	foodImage.4	FOODEEG_Images\0065.jpg	YN	Right	No	2.08221630001208	0	169967	251
333.0234375	2	decision	foodImageDisplay	1	6	6	foodImage.4	FOODEEG_Images\0065.jpg	YN	Right	No	2.08221630001208	0	170509	252
335.087890625	2.08221630001208	decision	choicePhaseStart	1	6	6	foodImage.4	FOODEEG_Images\0065.jpg	YN	Right	No	2.08221630001208	0	171566	253
337.162109375	0	decision	response	1	6	6	foodImage.4	FOODEEG_Images\0065.jpg	YN	Right	No	2.08221630001208	0	172628	235
338.205078125	1	taste	trialStart	1	7	7	foodImage.73	FOODEEG_Images\0717.jpg	NY	Right	Yes	0.778678200003924	0	173162	251
339.267578125	2	taste	foodImageDisplay	1	7	7	foodImage.73	FOODEEG_Images\0717.jpg	NY	Right	Yes	0.778678200003924	0	173706	252
341.333984375	0.778678200003924	taste	choicePhaseStart	1	7	7	foodImage.73	FOODEEG_Images\0717.jpg	NY	Right	Yes	0.778678200003924	0	174764	253
342.10546875	0	taste	response	1	7	7	foodImage.73	FOODEEG_Images\0717.jpg	NY	Right	Yes	0.778678200003924	0	175159	235
343.1484375	1	decision	trialStart	1	8	8	foodImage.104	FOODEEG_Images\0912.jpg	NY	Left	No	0.938944800000172	0	175693	251
344.1875	2	decision	foodImageDisplay	1	8	8	foodImage.104	FOODEEG_Images\0912.jpg	NY	Left	No	0.938944800000172	0	176225	252
346.251953125	0.938944800000172	decision	choicePhaseStart	1	8	8	foodImage.104	FOODEEG_Images\0912.jpg	NY	Left	No	0.938944800000172	0	177282	253
347.185546875	0	decision	response	1	8	8	foodImage.104	FOODEEG_Images\0912.jpg	NY	Left	No	0.938944800000172	0	177760	234
348.2265625	1	health	trialStart	1	9	9	foodImage.78	FOODEEG_Images\0787.jpg	NY	Right	Yes	0.722264599986374	0	178293	251
349.271484375	2	health	foodImageDisplay	1	9	9	foodImage.78	FOODEEG_Images\0787.jpg	NY	Right	Yes	0.722264599986374	0	178828	252
351.3359375	0.722264599986374	health	choicePhaseStart	1	9	9	foodImage.78	FOODEEG_Images\0787.jpg	NY	Right	Yes	0.722264599986374	0	179885	253
352.048828125	0	health	response	1	9	9	foodImage.78	FOODEEG_Images\0787.jpg	NY	Right	Yes	0.722264599986374	0	180250	235
353.091796875	1	decision	trialStart	1	10	10	foodImage.30	FOODEEG_Images\0282.jpg	NY	Right	Yes	0.763833500008332	0	180784	251
354.134765625	2	decision	foodImageDisplay	1	10	10	foodImage.30	FOODEEG_Images\0282.jpg	NY	Right	Yes	0.763833500008332	0	181318	252
356.197265625	0.763833500008332	decision	choicePhaseStart	1	10	10	foodImage.30	FOODEEG_Images\0282.jpg	NY	Right	Yes	0.763833500008332	0	182374	253
356.953125	0	decision	response	1	10	10	foodImage.30	FOODEEG_Images\0282.jpg	NY	Right	Yes	0.763833500008332	0	182761	235
357.99609375	1	health	trialStart	1	11	11	foodImage.85	FOODEEG_Images\0841.jpg	NY	Left	No	0.980045299977064	0	183295	251
359.0546875	2	health	foodImageDisplay	1	11	11	foodImage.85	FOODEEG_Images\0841.jpg	NY	Left	No	0.980045299977064	0	183837	252
361.1171875	0.980045299977064	health	choicePhaseStart	1	11	11	foodImage.85	FOODEEG_Images\0841.jpg	NY	Left	No	0.980045299977064	0	184893	253
362.08984375	0	health	response	1	11	11	foodImage.85	FOODEEG_Images\0841.jpg	NY	Left	No	0.980045299977064	0	185391	234
363.130859375	1	decision	trialStart	1	12	12	foodImage.21	FOODEEG_Images\0234.jpg	NY	Right	Yes	0.627209199999925	0	185924	251
364.185546875	2	decision	foodImageDisplay	1	12	12	foodImage.21	FOODEEG_Images\0234.jpg	NY	Right	Yes	0.627209199999925	0	186464	252
366.25390625	0.627209199999925	decision	choicePhaseStart	1	12	12	foodImage.21	FOODEEG_Images\0234.jpg	NY	Right	Yes	0.627209199999925	0	187523	253
366.873046875	0	decision	response	1	12	12	foodImage.21	FOODEEG_Images\0234.jpg	NY	Right	Yes	0.627209199999925	0	187840	235
367.916015625	1	decision	trialStart	1	13	13	foodImage.36	FOODEEG_Images\0352.jpg	NY	Right	Yes	0.689245299989125	0	188374	251
368.974609375	2	decision	foodImageDisplay	1	13	13	foodImage.36	FOODEEG_Images\0352.jpg	NY	Right	Yes	0.689245299989125	0	188916	252
371.0390625	0.689245299989125	decision	choicePhaseStart	1	13	13	foodImage.36	FOODEEG_Images\0352.jpg	NY	Right	Yes	0.689245299989125	0	189973	253
371.720703125	0	decision	response	1	13	13	foodImage.36	FOODEEG_Images\0352.jpg	NY	Right	Yes	0.689245299989125	0	190322	235
372.763671875	1	decision	trialStart	1	14	14	foodImage.28	FOODEEG_Images\0273.jpg	YN	Right	No	1.56064939999487	0	190856	251
373.806640625	2	decision	foodImageDisplay	1	14	14	foodImage.28	FOODEEG_Images\0273.jpg	YN	Right	No	1.56064939999487	0	191390	252
375.87109375	1.56064939999487	decision	choicePhaseStart	1	14	14	foodImage.28	FOODEEG_Images\0273.jpg	YN	Right	No	1.56064939999487	0	192447	253
377.423828125	0	decision	response	1	14	14	foodImage.28	FOODEEG_Images\0273.jpg	YN	Right	No	1.56064939999487	0	193242	235
378.46484375	1	taste	trialStart	1	15	15	foodImage.61	FOODEEG_Images\0640.jpg	YN	Right	No	0.778162600006908	0	193775	251
379.5078125	2	taste	foodImageDisplay	1	15	15	foodImage.61	FOODEEG_Images\0640.jpg	YN	Right	No	0.778162600006908	0	194309	252
381.57421875	0.778162600006908	taste	choicePhaseStart	1	15	15	foodImage.61	FOODEEG_Images\0640.jpg	YN	Right	No	0.778162600006908	0	195367	253
382.34375	0	taste	response	1	15	15	foodImage.61	FOODEEG_Images\0640.jpg	YN	Right	No	0.778162600006908	0	195761	235
383.38671875	1	decision	trialStart	1	16	16	foodImage.67	FOODEEG_Images\0679.jpg	NY	Left	No	0.554842600016855	0	196295	251
384.4453125	2	decision	foodImageDisplay	1	16	16	foodImage.67	FOODEEG_Images\0679.jpg	NY	Left	No	0.554842600016855	0	196837	252
386.509765625	0.554842600016855	decision	choicePhaseStart	1	16	16	foodImage.67	FOODEEG_Images\0679.jpg	NY	Left	No	0.554842600016855	0	197894	253
387.0546875	0	decision	response	1	16	16	foodImage.67	FOODEEG_Images\0679.jpg	NY	Left	No	0.554842600016855	0	198173	234
388.09765625	1	decision	trialStart	1	17	17	foodImage.26	FOODEEG_Images\0262.jpg	YN	Right	No	0.785558300005505	0	198707	251
389.140625	2	decision	foodImageDisplay	1	17	17	foodImage.26	FOODEEG_Images\0262.jpg	YN	Right	No	0.785558300005505	0	199241	252
391.205078125	0.785558300005505	decision	choicePhaseStart	1	17	17	foodImage.26	FOODEEG_Images\0262.jpg	YN	Right	No	0.785558300005505	0	200298	253
391.982421875	0	decision	response	1	17	17	foodImage.26	FOODEEG_Images\0262.jpg	YN	Right	No	0.785558300005505	0	200696	235
393.02734375	1	health	trialStart	1	18	18	foodImage.75	FOODEEG_Images\0763.jpg	NY	Right	Yes	0.704879800003255	0	201231	251
394.072265625	2	health	foodImageDisplay	1	18	18	foodImage.75	FOODEEG_Images\0763.jpg	NY	Right	Yes	0.704879800003255	0	201766	252
396.134765625	0.704879800003255	health	choicePhaseStart	1	18	18	foodImage.75	FOODEEG_Images\0763.jpg	NY	Right	Yes	0.704879800003255	0	202822	253
396.83203125	0	health	response	1	18	18	foodImage.75	FOODEEG_Images\0763.jpg	NY	Right	Yes	0.704879800003255	0	203179	235
397.873046875	1	decision	trialStart	1	19	19	foodImage.27	FOODEEG_Images\0263.jpg	NY	Right	Yes	0.722812099993462	0	203712	251
398.91796875	2	decision	foodImageDisplay	1	19	19	foodImage.27	FOODEEG_Images\0263.jpg	NY	Right	Yes	0.722812099993462	0	204247	252
400.98046875	0.722812099993462	decision	choicePhaseStart	1	19	19	foodImage.27	FOODEEG_Images\0263.jpg	NY	Right	Yes	0.722812099993462	0	205303	253
401.6953125	0	decision	response	1	19	19	foodImage.27	FOODEEG_Images\0263.jpg	NY	Right	Yes	0.722812099993462	0	205669	235
402.73828125	1	health	trialStart	1	20	20	foodImage.117	FOODEEG_Images\0925.jpg	NY	Left	No	1.73405990001629	0	206203	251
403.77734375	2	health	foodImageDisplay	1	20	20	foodImage.117	FOODEEG_Images\0925.jpg	NY	Left	No	1.73405990001629	0	206735	252
405.841796875	1.73405990001629	health	choicePhaseStart	1	20	20	foodImage.117	FOODEEG_Images\0925.jpg	NY	Left	No	1.73405990001629	0	207792	253
407.56640625	0	health	response	1	20	20	foodImage.117	FOODEEG_Images\0925.jpg	NY	Left	No	1.73405990001629	0	208675	234
408.609375	1	decision	trialStart	1	21	21	foodImage.84	FOODEEG_Images\0830.jpg	NY	Right	Yes	0.626678300002823	0	209209	251
409.66796875	2	decision	foodImageDisplay	1	21	21	foodImage.84	FOODEEG_Images\0830.jpg	NY	Right	Yes	0.626678300002823	0	209751	252
411.732421875	0.626678300002823	decision	choicePhaseStart	1	21	21	foodImage.84	FOODEEG_Images\0830.jpg	NY	Right	Yes	0.626678300002823	0	210808	253
412.3515625	0	decision	response	1	21	21	foodImage.84	FOODEEG_Images\0830.jpg	NY	Right	Yes	0.626678300002823	0	211125	235
413.392578125	1	taste	trialStart	1	22	22	foodImage.55	FOODEEG_Images\0567.jpg	NY	Left	No	1.11892829998396	0	211658	251
414.451171875	2	taste	foodImageDisplay	1	22	22	foodImage.55	FOODEEG_Images\0567.jpg	NY	Left	No	1.11892829998396	0	212200	252
416.513671875	1.11892829998396	taste	choicePhaseStart	1	22	22	foodImage.55	FOODEEG_Images\0567.jpg	NY	Left	No	1.11892829998396	0	213256	253
417.623046875	0	taste	response	1	22	22	foodImage.55	FOODEEG_Images\0567.jpg	NY	Left	No	1.11892829998396	0	213824	234
418.66796875	1	decision	trialStart	1	23	23	foodImage.5	FOODEEG_Images\0107.jpg	YN	Left	Yes	0.96349840000039	0	214359	251
419.724609375	2	decision	foodImageDisplay	1	23	23	foodImage.5	FOODEEG_Images\0107.jpg	YN	Left	Yes	0.96349840000039	0	214900	252
421.787109375	0.96349840000039	decision	choicePhaseStart	1	23	23	foodImage.5	FOODEEG_Images\0107.jpg	YN	Left	Yes	0.96349840000039	0	215956	253
422.7421875	0	decision	response	1	23	23	foodImage.5	FOODEEG_Images\0107.jpg	YN	Left	Yes	0.96349840000039	0	216445	234
423.78515625	1	taste	trialStart	1	24	24	foodImage.67	FOODEEG_Images\0679.jpg	YN	Right	No	1.64237039998989	0	216979	251
424.84375	2	taste	foodImageDisplay	1	24	24	foodImage.67	FOODEEG_Images\0679.jpg	YN	Right	No	1.64237039998989	0	217521	252
426.908203125	1.64237039998989	taste	choicePhaseStart	1	24	24	foodImage.67	FOODEEG_Images\0679.jpg	YN	Right	No	1.64237039998989	0	218578	253
428.541015625	0	taste	response	1	24	24	foodImage.67	FOODEEG_Images\0679.jpg	YN	Right	No	1.64237039998989	0	219414	235
429.583984375	1	health	trialStart	1	25	25	foodImage.32	FOODEEG_Images\0319.jpg	NY	Right	Yes	0.739442299993243	0	219948	251
430.626953125	2	health	foodImageDisplay	1	25	25	foodImage.32	FOODEEG_Images\0319.jpg	NY	Right	Yes	0.739442299993243	0	220482	252
432.69140625	0.739442299993243	health	choicePhaseStart	1	25	25	foodImage.32	FOODEEG_Images\0319.jpg	NY	Right	Yes	0.739442299993243	0	221539	253
433.421875	0	health	response	1	25	25	foodImage.32	FOODEEG_Images\0319.jpg	NY	Right	Yes	0.739442299993243	0	221913	235
434.462890625	1	health	trialStart	1	26	26	foodImage.6	FOODEEG_Images\0113.jpg	NY	Left	No	0.573069899983238	0	222446	251
435.505859375	2	health	foodImageDisplay	1	26	26	foodImage.6	FOODEEG_Images\0113.jpg	NY	Left	No	0.573069899983238	0	222980	252
437.5703125	0.573069899983238	health	choicePhaseStart	1	26	26	foodImage.6	FOODEEG_Images\0113.jpg	NY	Left	No	0.573069899983238	0	224037	253
438.1328125	0	health	response	1	26	26	foodImage.6	FOODEEG_Images\0113.jpg	NY	Left	No	0.573069899983238	0	224325	234
439.17578125	1	decision	trialStart	1	27	27	foodImage.31	FOODEEG_Images\0294.jpg	YN	Left	Yes	1.16476430001785	0	224859	251
440.21875	2	decision	foodImageDisplay	1	27	27	foodImage.31	FOODEEG_Images\0294.jpg	YN	Left	Yes	1.16476430001785	0	225393	252
442.28125	1.16476430001785	decision	choicePhaseStart	1	27	27	foodImage.31	FOODEEG_Images\0294.jpg	YN	Left	Yes	1.16476430001785	0	226449	253
443.4375	0	decision	response	1	27	27	foodImage.31	FOODEEG_Images\0294.jpg	YN	Left	Yes	1.16476430001785	0	227041	234
444.48046875	1	decision	trialStart	1	28	28	foodImage.18	FOODEEG_Images\0202.jpg	NY	Left	No	1.26743050001096	0	227575	251
445.5390625	2	decision	foodImageDisplay	1	28	28	foodImage.18	FOODEEG_Images\0202.jpg	NY	Left	No	1.26743050001096	0	228117	252
447.603515625	1.26743050001096	decision	choicePhaseStart	1	28	28	foodImage.18	FOODEEG_Images\0202.jpg	NY	Left	No	1.26743050001096	0	229174	253
448.861328125	0	decision	response	1	28	28	foodImage.18	FOODEEG_Images\0202.jpg	NY	Left	No	1.26743050001096	0	229818	234
449.90234375	1	decision	trialStart	1	29	29	foodImage.97	FOODEEG_Images\0905.jpg	NY	Left	No	0.783102999994298	0	230351	251
450.943359375	2	decision	foodImageDisplay	1	29	29	foodImage.97	FOODEEG_Images\0905.jpg	NY	Left	No	0.783102999994298	0	230884	252
453.0078125	0.783102999994298	decision	choicePhaseStart	1	29	29	foodImage.97	FOODEEG_Images\0905.jpg	NY	Left	No	0.783102999994298	0	231941	253
453.78125	0	decision	response	1	29	29	foodImage.97	FOODEEG_Images\0905.jpg	NY	Left	No	0.783102999994298	0	232337	234
454.822265625	1	decision	trialStart	1	30	30	foodImage.33	FOODEEG_Images\0329.jpg	NY	Right	Yes	0.479211900004884	0	232870	251
455.86328125	2	decision	foodImageDisplay	1	30	30	foodImage.33	FOODEEG_Images\0329.jpg	NY	Right	Yes	0.479211900004884	0	233403	252
457.927734375	0.479211900004884	decision	choicePhaseStart	1	30	30	foodImage.33	FOODEEG_Images\0329.jpg	NY	Right	Yes	0.479211900004884	0	234460	253
458.396484375	0	decision	response	1	30	30	foodImage.33	FOODEEG_Images\0329.jpg	NY	Right	Yes	0.479211900004884	0	234700	235
459.439453125	1	health	trialStart	1	31	31	foodImage.77	FOODEEG_Images\0771.jpg	YN	Left	Yes	1.05525869998382	0	235234	251
460.484375	2	health	foodImageDisplay	1	31	31	foodImage.77	FOODEEG_Images\0771.jpg	YN	Left	Yes	1.05525869998382	0	235769	252
462.55078125	1.05525869998382	health	choicePhaseStart	1	31	31	foodImage.77	FOODEEG_Images\0771.jpg	YN	Left	Yes	1.05525869998382	0	236827	253
463.595703125	0	health	response	1	31	31	foodImage.77	FOODEEG_Images\0771.jpg	YN	Left	Yes	1.05525869998382	0	237362	234
464.638671875	1	taste	trialStart	1	32	32	foodImage.26	FOODEEG_Images\0262.jpg	YN	Right	No	0.742919799988158	0	237896	251
465.6796875	2	taste	foodImageDisplay	1	32	32	foodImage.26	FOODEEG_Images\0262.jpg	YN	Right	No	0.742919799988158	0	238429	252
467.744140625	0.742919799988158	taste	choicePhaseStart	1	32	32	foodImage.26	FOODEEG_Images\0262.jpg	YN	Right	No	0.742919799988158	0	239486	253
468.4765625	0	taste	response	1	32	32	foodImage.26	FOODEEG_Images\0262.jpg	YN	Right	No	0.742919799988158	0	239861	235
469.51953125	1	taste	trialStart	1	33	33	foodImage.83	FOODEEG_Images\0827.jpg	YN	Right	No	0.734400399989681	0	240395	251
470.57421875	2	taste	foodImageDisplay	1	33	33	foodImage.83	FOODEEG_Images\0827.jpg	YN	Right	No	0.734400399989681	0	240935	252
472.63671875	0.734400399989681	taste	choicePhaseStart	1	33	33	foodImage.83	FOODEEG_Images\0827.jpg	YN	Right	No	0.734400399989681	0	241991	253
473.36328125	0	taste	response	1	33	33	foodImage.83	FOODEEG_Images\0827.jpg	YN	Right	No	0.734400399989681	0	242363	235
474.40625	1	taste	trialStart	1	34	34	foodImage.3	FOODEEG_Images\0046.jpg	YN	Left	Yes	0.689069599990034	0	242897	251
475.451171875	2	taste	foodImageDisplay	1	34	34	foodImage.3	FOODEEG_Images\0046.jpg	YN	Left	Yes	0.689069599990034	0	243432	252
477.515625	0.689069599990034	taste	choicePhaseStart	1	34	34	foodImage.3	FOODEEG_Images\0046.jpg	YN	Left	Yes	0.689069599990034	0	244489	253
478.1953125	0	taste	response	1	34	34	foodImage.3	FOODEEG_Images\0046.jpg	YN	Left	Yes	0.689069599990034	0	244837	234
479.23828125	1	taste	trialStart	1	35	35	foodImage.113	FOODEEG_Images\0921.jpg	NY	Left	No	0.742846299981466	0	245371	251
480.27734375	2	taste	foodImageDisplay	1	35	35	foodImage.113	FOODEEG_Images\0921.jpg	NY	Left	No	0.742846299981466	0	245903	252
482.341796875	0.742846299981466	taste	choicePhaseStart	1	35	35	foodImage.113	FOODEEG_Images\0921.jpg	NY	Left	No	0.742846299981466	0	246960	253
483.076171875	0	taste	response	1	35	35	foodImage.113	FOODEEG_Images\0921.jpg	NY	Left	No	0.742846299981466	0	247336	234
484.119140625	1	health	trialStart	1	36	36	foodImage.74	FOODEEG_Images\0752.jpg	YN	Left	Yes	0.713428499992006	0	247870	251
485.1640625	2	health	foodImageDisplay	1	36	36	foodImage.74	FOODEEG_Images\0752.jpg	YN	Left	Yes	0.713428499992006	0	248405	252
487.2265625	0.713428499992006	health	choicePhaseStart	1	36	36	foodImage.74	FOODEEG_Images\0752.jpg	YN	Left	Yes	0.713428499992006	0	249461	253
487.931640625	0	health	response	1	36	36	foodImage.74	FOODEEG_Images\0752.jpg	YN	Left	Yes	0.713428499992006	0	249822	234
488.97265625	1	health	trialStart	1	37	37	foodImage.60	FOODEEG_Images\0614.jpg	NY	Right	Yes	0.941041100013535	0	250355	251
490.033203125	2	health	foodImageDisplay	1	37	37	foodImage.60	FOODEEG_Images\0614.jpg	NY	Right	Yes	0.941041100013535	0	250898	252
492.095703125	0.941041100013535	health	choicePhaseStart	1	37	37	foodImage.60	FOODEEG_Images\0614.jpg	NY	Right	Yes	0.941041100013535	0	251954	253
493.02734375	0	health	response	1	37	37	foodImage.60	FOODEEG_Images\0614.jpg	NY	Right	Yes	0.941041100013535	0	252431	235
494.0703125	1	taste	trialStart	1	38	38	foodImage.82	FOODEEG_Images\0805.jpg	NY	Left	No	0.857227400003467	0	252965	251
495.123046875	2	taste	foodImageDisplay	1	38	38	foodImage.82	FOODEEG_Images\0805.jpg	NY	Left	No	0.857227400003467	0	253504	252
497.1875	0.857227400003467	taste	choicePhaseStart	1	38	38	foodImage.82	FOODEEG_Images\0805.jpg	NY	Left	No	0.857227400003467	0	254561	253
498.03515625	0	taste	response	1	38	38	foodImage.82	FOODEEG_Images\0805.jpg	NY	Left	No	0.857227400003467	0	254995	234
499.078125	1	health	trialStart	1	39	39	foodImage.59	FOODEEG_Images\0607.jpg	NY	Right	Yes	1.81239669999923	0	255529	251
500.125	2	health	foodImageDisplay	1	39	39	foodImage.59	FOODEEG_Images\0607.jpg	NY	Right	Yes	1.81239669999923	0	256065	252
502.19140625	1.81239669999923	health	choicePhaseStart	1	39	39	foodImage.59	FOODEEG_Images\0607.jpg	NY	Right	Yes	1.81239669999923	0	257123	253
503.994140625	0	health	response	1	39	39	foodImage.59	FOODEEG_Images\0607.jpg	NY	Right	Yes	1.81239669999923	0	258046	235
505.037109375	1	taste	trialStart	1	40	40	foodImage.77	FOODEEG_Images\0771.jpg	NY	Left	No	0.964682400022866	0	258580	251
506.080078125	2	taste	foodImageDisplay	1	40	40	foodImage.77	FOODEEG_Images\0771.jpg	NY	Left	No	0.964682400022866	0	259114	252
508.142578125	0.964682400022866	taste	choicePhaseStart	1	40	40	foodImage.77	FOODEEG_Images\0771.jpg	NY	Left	No	0.964682400022866	0	260170	253
509.099609375	0	taste	response	1	40	40	foodImage.77	FOODEEG_Images\0771.jpg	NY	Left	No	0.964682400022866	0	260660	234
510.140625	1	taste	trialStart	1	41	41	foodImage.20	FOODEEG_Images\0226.jpg	NY	Left	No	0.913601800013566	0	261193	251
511.18359375	2	taste	foodImageDisplay	1	41	41	foodImage.20	FOODEEG_Images\0226.jpg	NY	Left	No	0.913601800013566	0	261727	252
513.248046875	0.913601800013566	taste	choicePhaseStart	1	41	41	foodImage.20	FOODEEG_Images\0226.jpg	NY	Left	No	0.913601800013566	0	262784	253
514.154296875	0	taste	response	1	41	41	foodImage.20	FOODEEG_Images\0226.jpg	NY	Left	No	0.913601800013566	0	263248	234
515.197265625	1	health	trialStart	1	42	42	foodImage.105	FOODEEG_Images\0913.jpg	NY	Left	No	0.807837400003336	0	263782	251
516.234375	2	health	foodImageDisplay	1	42	42	foodImage.105	FOODEEG_Images\0913.jpg	NY	Left	No	0.807837400003336	0	264313	252
518.298828125	0.807837400003336	health	choicePhaseStart	1	42	42	foodImage.105	FOODEEG_Images\0913.jpg	NY	Left	No	0.807837400003336	0	265370	253
519.09765625	0	health	response	1	42	42	foodImage.105	FOODEEG_Images\0913.jpg	NY	Left	No	0.807837400003336	0	265779	234
520.15234375	1	decision	trialStart	1	43	43	foodImage.69	FOODEEG_Images\0693.jpg	YN	Left	Yes	0.954377100017155	0	266319	251
521.193359375	2	decision	foodImageDisplay	1	43	43	foodImage.69	FOODEEG_Images\0693.jpg	YN	Left	Yes	0.954377100017155	0	266852	252
523.2578125	0.954377100017155	decision	choicePhaseStart	1	43	43	foodImage.69	FOODEEG_Images\0693.jpg	YN	Left	Yes	0.954377100017155	0	267909	253
524.201171875	0	decision	response	1	43	43	foodImage.69	FOODEEG_Images\0693.jpg	YN	Left	Yes	0.954377100017155	0	268392	234
525.2421875	1	health	trialStart	1	44	44	foodImage.45	FOODEEG_Images\0478.jpg	NY	Right	Yes	1.09056479998981	0	268925	251
526.2890625	2	health	foodImageDisplay	1	44	44	foodImage.45	FOODEEG_Images\0478.jpg	NY	Right	Yes	1.09056479998981	0	269461	252
528.3515625	1.09056479998981	health	choicePhaseStart	1	44	44	foodImage.45	FOODEEG_Images\0478.jpg	NY	Right	Yes	1.09056479998981	0	270517	253
529.43359375	0	health	response	1	44	44	foodImage.45	FOODEEG_Images\0478.jpg	NY	Right	Yes	1.09056479998981	0	271071	235
530.4765625	1	health	trialStart	1	45	45	foodImage.54	FOODEEG_Images\0560.jpg	NY	Right	Yes	1.45832909998717	0	271605	251
531.537109375	2	health	foodImageDisplay	1	45	45	foodImage.54	FOODEEG_Images\0560.jpg	NY	Right	Yes	1.45832909998717	0	272148	252
533.6015625	1.45832909998717	health	choicePhaseStart	1	45	45	foodImage.54	FOODEEG_Images\0560.jpg	NY	Right	Yes	1.45832909998717	0	273205	253
535.048828125	0	health	response	1	45	45	foodImage.54	FOODEEG_Images\0560.jpg	NY	Right	Yes	1.45832909998717	0	273946	235
536.09765625	1	taste	trialStart	1	46	46	foodImage.32	FOODEEG_Images\0319.jpg	NY	Right	Yes	0.716237500018906	0	274483	251
537.138671875	2	taste	foodImageDisplay	1	46	46	foodImage.32	FOODEEG_Images\0319.jpg	NY	Right	Yes	0.716237500018906	0	275016	252
539.20703125	0.716237500018906	taste	choicePhaseStart	1	46	46	foodImage.32	FOODEEG_Images\0319.jpg	NY	Right	Yes	0.716237500018906	0	276075	253
539.9140625	0	taste	response	1	46	46	foodImage.32	FOODEEG_Images\0319.jpg	NY	Right	Yes	0.716237500018906	0	276437	235
540.955078125	1	taste	trialStart	1	47	47	foodImage.9	FOODEEG_Images\0138.jpg	NY	Left	No	1.50784529998782	0	276970	251
542.015625	2	taste	foodImageDisplay	1	47	47	foodImage.9	FOODEEG_Images\0138.jpg	NY	Left	No	1.50784529998782	0	277513	252
544.080078125	1.50784529998782	taste	choicePhaseStart	1	47	47	foodImage.9	FOODEEG_Images\0138.jpg	NY	Left	No	1.50784529998782	0	278570	253
545.578125	0	taste	response	1	47	47	foodImage.9	FOODEEG_Images\0138.jpg	NY	Left	No	1.50784529998782	0	279337	234
546.619140625	1	decision	trialStart	1	48	48	foodImage.19	FOODEEG_Images\0225.jpg	YN	Right	No	0.861745600006543	0	279870	251
547.662109375	2	decision	foodImageDisplay	1	48	48	foodImage.19	FOODEEG_Images\0225.jpg	YN	Right	No	0.861745600006543	0	280404	252
549.724609375	0.861745600006543	decision	choicePhaseStart	1	48	48	foodImage.19	FOODEEG_Images\0225.jpg	YN	Right	No	0.861745600006543	0	281460	253
550.576171875	0	decision	response	1	48	48	foodImage.19	FOODEEG_Images\0225.jpg	YN	Right	No	0.861745600006543	0	281896	235
551.619140625	1	health	trialStart	1	49	49	foodImage.18	FOODEEG_Images\0202.jpg	YN	Left	Yes	0.936775599984685	0	282430	251
552.673828125	2	health	foodImageDisplay	1	49	49	foodImage.18	FOODEEG_Images\0202.jpg	YN	Left	Yes	0.936775599984685	0	282970	252
554.73828125	0.936775599984685	health	choicePhaseStart	1	49	49	foodImage.18	FOODEEG_Images\0202.jpg	YN	Left	Yes	0.936775599984685	0	284027	253
555.6640625	0	health	response	1	49	49	foodImage.18	FOODEEG_Images\0202.jpg	YN	Left	Yes	0.936775599984685	0	284501	234
556.70703125	1	decision	trialStart	1	50	50	foodImage.7	FOODEEG_Images\0116.jpg	NY	Right	Yes	0.624224500003038	0	285035	251
557.75	2	decision	foodImageDisplay	1	50	50	foodImage.7	FOODEEG_Images\0116.jpg	NY	Right	Yes	0.624224500003038	0	285569	252
559.814453125	0.624224500003038	decision	choicePhaseStart	1	50	50	foodImage.7	FOODEEG_Images\0116.jpg	NY	Right	Yes	0.624224500003038	0	286626	253
560.431640625	0	decision	response	1	50	50	foodImage.7	FOODEEG_Images\0116.jpg	NY	Right	Yes	0.624224500003038	0	286942	235
561.474609375	1	health	trialStart	1	51	51	foodImage.33	FOODEEG_Images\0329.jpg	YN	Left	Yes	0.749630399979651	0	287476	251
562.515625	2	health	foodImageDisplay	1	51	51	foodImage.33	FOODEEG_Images\0329.jpg	YN	Left	Yes	0.749630399979651	0	288009	252
564.580078125	0.749630399979651	health	choicePhaseStart	1	51	51	foodImage.33	FOODEEG_Images\0329.jpg	YN	Left	Yes	0.749630399979651	0	289066	253
565.3203125	0	health	response	1	51	51	foodImage.33	FOODEEG_Images\0329.jpg	YN	Left	Yes	0.749630399979651	0	289445	234
566.36328125	1	decision	trialStart	1	52	52	foodImage.32	FOODEEG_Images\0319.jpg	YN	Left	Yes	0.786199299996952	0	289979	251
567.40625	2	decision	foodImageDisplay	1	52	52	foodImage.32	FOODEEG_Images\0319.jpg	YN	Left	Yes	0.786199299996952	0	290513	252
569.470703125	0.786199299996952	decision	choicePhaseStart	1	52	52	foodImage.32	FOODEEG_Images\0319.jpg	YN	Left	Yes	0.786199299996952	0	291570	253
570.248046875	0	decision	response	1	52	52	foodImage.32	FOODEEG_Images\0319.jpg	YN	Left	Yes	0.786199299996952	0	291968	234
571.294921875	1	decision	trialStart	1	53	53	foodImage.113	FOODEEG_Images\0921.jpg	YN	Right	No	0.6877207000216	0	292504	251
572.333984375	2	decision	foodImageDisplay	1	53	53	foodImage.113	FOODEEG_Images\0921.jpg	YN	Right	No	0.6877207000216	0	293036	252
574.40234375	0.6877207000216	decision	choicePhaseStart	1	53	53	foodImage.113	FOODEEG_Images\0921.jpg	YN	Right	No	0.6877207000216	0	294095	253
575.080078125	0	decision	response	1	53	53	foodImage.113	FOODEEG_Images\0921.jpg	YN	Right	No	0.6877207000216	0	294442	235
576.123046875	1	taste	trialStart	1	54	54	foodImage.14	FOODEEG_Images\0188.jpg	YN	Left	Yes	0.607836300012423	0	294976	251
577.181640625	2	taste	foodImageDisplay	1	54	54	foodImage.14	FOODEEG_Images\0188.jpg	YN	Left	Yes	0.607836300012423	0	295518	252
579.24609375	0.607836300012423	taste	choicePhaseStart	1	54	54	foodImage.14	FOODEEG_Images\0188.jpg	YN	Left	Yes	0.607836300012423	0	296575	253
579.84765625	0	taste	response	1	54	54	foodImage.14	FOODEEG_Images\0188.jpg	YN	Left	Yes	0.607836300012423	0	296883	234
580.890625	1	taste	trialStart	1	55	55	foodImage.13	FOODEEG_Images\0183.jpg	YN	Left	Yes	0.636213899997529	0	297417	251
581.93359375	2	taste	foodImageDisplay	1	55	55	foodImage.13	FOODEEG_Images\0183.jpg	YN	Left	Yes	0.636213899997529	0	297951	252
584.001953125	0.636213899997529	taste	choicePhaseStart	1	55	55	foodImage.13	FOODEEG_Images\0183.jpg	YN	Left	Yes	0.636213899997529	0	299010	253
584.630859375	0	taste	response	1	55	55	foodImage.13	FOODEEG_Images\0183.jpg	YN	Left	Yes	0.636213899997529	0	299332	234
585.673828125	1	health	trialStart	1	56	56	foodImage.68	FOODEEG_Images\0685.jpg	NY	Right	Yes	1.26756460001343	0	299866	251
586.771484375	2	health	foodImageDisplay	1	56	56	foodImage.68	FOODEEG_Images\0685.jpg	NY	Right	Yes	1.26756460001343	0	300428	252
588.833984375	1.26756460001343	health	choicePhaseStart	1	56	56	foodImage.68	FOODEEG_Images\0685.jpg	NY	Right	Yes	1.26756460001343	0	301484	253
590.095703125	0	health	response	1	56	56	foodImage.68	FOODEEG_Images\0685.jpg	NY	Right	Yes	1.26756460001343	0	302130	235
591.13671875	1	decision	trialStart	1	57	57	foodImage.108	FOODEEG_Images\0916.jpg	YN	Right	No	0.825574399990728	0	302663	251
592.17578125	2	decision	foodImageDisplay	1	57	57	foodImage.108	FOODEEG_Images\0916.jpg	YN	Right	No	0.825574399990728	0	303195	252
594.240234375	0.825574399990728	decision	choicePhaseStart	1	57	57	foodImage.108	FOODEEG_Images\0916.jpg	YN	Right	No	0.825574399990728	0	304252	253
595.0546875	0	decision	response	1	57	57	foodImage.108	FOODEEG_Images\0916.jpg	YN	Right	No	0.825574399990728	0	304669	235
596.09765625	1	taste	trialStart	1	58	58	foodImage.97	FOODEEG_Images\0905.jpg	NY	Left	No	0.568261599983089	0	305203	251
597.13671875	2	taste	foodImageDisplay	1	58	58	foodImage.97	FOODEEG_Images\0905.jpg	NY	Left	No	0.568261599983089	0	305735	252
599.19921875	0.568261599983089	taste	choicePhaseStart	1	58	58	foodImage.97	FOODEEG_Images\0905.jpg	NY	Left	No	0.568261599983089	0	306791	253
599.759765625	0	taste	response	1	58	58	foodImage.97	FOODEEG_Images\0905.jpg	NY	Left	No	0.568261599983089	0	307078	234
600.80078125	1	decision	trialStart	1	59	59	foodImage.12	FOODEEG_Images\0181.jpg	NY	Left	No	0.900824500015005	0	307611	251
601.84375	2	decision	foodImageDisplay	1	59	59	foodImage.12	FOODEEG_Images\0181.jpg	NY	Left	No	0.900824500015005	0	308145	252
603.90625	0.900824500015005	decision	choicePhaseStart	1	59	59	foodImage.12	FOODEEG_Images\0181.jpg	NY	Left	No	0.900824500015005	0	309201	253
604.798828125	0	decision	response	1	59	59	foodImage.12	FOODEEG_Images\0181.jpg	NY	Left	No	0.900824500015005	0	309658	234
605.845703125	1	taste	trialStart	1	60	60	foodImage.47	FOODEEG_Images\0488.jpg	NY	Right	Yes	0.660227699991083	0	310194	251
606.888671875	2	taste	foodImageDisplay	1	60	60	foodImage.47	FOODEEG_Images\0488.jpg	NY	Right	Yes	0.660227699991083	0	310728	252
608.955078125	0.660227699991083	taste	choicePhaseStart	1	60	60	foodImage.47	FOODEEG_Images\0488.jpg	NY	Right	Yes	0.660227699991083	0	311786	253
609.607421875	0	taste	response	1	60	60	foodImage.47	FOODEEG_Images\0488.jpg	NY	Right	Yes	0.660227699991083	0	312120	235
611.654296875	11.279296875	n/a	blockEnd	n/a	n/a	n/a	n/a	n/a	n/a	n/a	n/a	n/a	n/a	313168	254
622.93359375	2	n/a	blockStart	2	n/a	n/a	n/a	n/a	n/a	n/a	n/a	n/a	n/a	318943	250
624.96875	1	decision	trialStart	2	61	1	foodImage.29	FOODEEG_Images\0278.jpg	YN	Right	No	1.72284510001191	0	319985	251
626.01171875	2	decision	foodImageDisplay	2	61	1	foodImage.29	FOODEEG_Images\0278.jpg	YN	Right	No	1.72284510001191	0	320519	252
628.076171875	1.72284510001191	decision	choicePhaseStart	2	61	1	foodImage.29	FOODEEG_Images\0278.jpg	YN	Right	No	1.72284510001191	0	321576	253
629.7890625	0	decision	response	2	61	1	foodImage.29	FOODEEG_Images\0278.jpg	YN	Right	No	1.72284510001191	0	322453	235
630.833984375	1	health	trialStart	2	62	2	foodImage.39	FOODEEG_Images\0367.jpg	YN	Left	Yes	0.589666000014404	0	322988	251
631.873046875	2	health	foodImageDisplay	2	62	2	foodImage.39	FOODEEG_Images\0367.jpg	YN	Left	Yes	0.589666000014404	0	323520	252
633.9375	0.589666000014404	health	choicePhaseStart	2	62	2	foodImage.39	FOODEEG_Images\0367.jpg	YN	Left	Yes	0.589666000014404	0	324577	253
634.517578125	0	health	response	2	62	2	foodImage.39	FOODEEG_Images\0367.jpg	YN	Left	Yes	0.589666000014404	0	324874	234
635.560546875	1	decision	trialStart	2	63	3	foodImage.107	FOODEEG_Images\0915.jpg	NY	Left	No	0.909094400005415	0	325408	251
636.615234375	2	decision	foodImageDisplay	2	63	3	foodImage.107	FOODEEG_Images\0915.jpg	NY	Left	No	0.909094400005415	0	325948	252
638.677734375	0.909094400005415	decision	choicePhaseStart	2	63	3	foodImage.107	FOODEEG_Images\0915.jpg	NY	Left	No	0.909094400005415	0	327004	253
639.58203125	0	decision	response	2	63	3	foodImage.107	FOODEEG_Images\0915.jpg	NY	Left	No	0.909094400005415	0	327467	234
640.623046875	1	health	trialStart	2	64	4	foodImage.108	FOODEEG_Images\0916.jpg	YN	Right	No	1.11423229999491	0	328000	251
641.662109375	2	health	foodImageDisplay	2	64	4	foodImage.108	FOODEEG_Images\0916.jpg	YN	Right	No	1.11423229999491	0	328532	252
643.724609375	1.11423229999491	health	choicePhaseStart	2	64	4	foodImage.108	FOODEEG_Images\0916.jpg	YN	Right	No	1.11423229999491	0	329588	253
644.830078125	0	health	response	2	64	4	foodImage.108	FOODEEG_Images\0916.jpg	YN	Right	No	1.11423229999491	0	330154	235
645.87890625	1	taste	trialStart	2	65	5	foodImage.78	FOODEEG_Images\0787.jpg	NY	Left	No	0.899549800000386	0	330691	251
646.919921875	2	taste	foodImageDisplay	2	65	5	foodImage.78	FOODEEG_Images\0787.jpg	NY	Left	No	0.899549800000386	0	331224	252
648.984375	0.899549800000386	taste	choicePhaseStart	2	65	5	foodImage.78	FOODEEG_Images\0787.jpg	NY	Left	No	0.899549800000386	0	332281	253
649.876953125	0	taste	response	2	65	5	foodImage.78	FOODEEG_Images\0787.jpg	NY	Left	No	0.899549800000386	0	332738	234
650.919921875	1	decision	trialStart	2	66	6	foodImage.62	FOODEEG_Images\0644.jpg	YN	Right	No	1.30079589999514	0	333272	251
651.978515625	2	decision	foodImageDisplay	2	66	6	foodImage.62	FOODEEG_Images\0644.jpg	YN	Right	No	1.30079589999514	0	333814	252
654.041015625	1.30079589999514	decision	choicePhaseStart	2	66	6	foodImage.62	FOODEEG_Images\0644.jpg	YN	Right	No	1.30079589999514	0	334870	253
655.33203125	0	decision	response	2	66	6	foodImage.62	FOODEEG_Images\0644.jpg	YN	Right	No	1.30079589999514	0	335531	235
656.375	1	taste	trialStart	2	67	7	foodImage.116	FOODEEG_Images\0924.jpg	NY	Left	No	0.687858599994797	0	336065	251
657.416015625	2	taste	foodImageDisplay	2	67	7	foodImage.116	FOODEEG_Images\0924.jpg	NY	Left	No	0.687858599994797	0	336598	252
659.478515625	0.687858599994797	taste	choicePhaseStart	2	67	7	foodImage.116	FOODEEG_Images\0924.jpg	NY	Left	No	0.687858599994797	0	337654	253
660.15625	0	taste	response	2	67	7	foodImage.116	FOODEEG_Images\0924.jpg	NY	Left	No	0.687858599994797	0	338001	234
661.20703125	1	taste	trialStart	2	68	8	foodImage.1	FOODEEG_Images\0004.jpg	YN	Left	Yes	0.774081200012006	0	338539	251
662.248046875	2	taste	foodImageDisplay	2	68	8	foodImage.1	FOODEEG_Images\0004.jpg	YN	Left	Yes	0.774081200012006	0	339072	252
664.310546875	0.774081200012006	taste	choicePhaseStart	2	68	8	foodImage.1	FOODEEG_Images\0004.jpg	YN	Left	Yes	0.774081200012006	0	340128	253
665.076171875	0	taste	response	2	68	8	foodImage.1	FOODEEG_Images\0004.jpg	YN	Left	Yes	0.774081200012006	0	340520	234
666.119140625	1	health	trialStart	2	69	9	foodImage.22	FOODEEG_Images\0236.jpg	NY	Right	Yes	1.41913570000906	0	341054	251
667.162109375	2	health	foodImageDisplay	2	69	9	foodImage.22	FOODEEG_Images\0236.jpg	NY	Right	Yes	1.41913570000906	0	341588	252
669.2265625	1.41913570000906	health	choicePhaseStart	2	69	9	foodImage.22	FOODEEG_Images\0236.jpg	NY	Right	Yes	1.41913570000906	0	342645	253
670.63671875	0	health	response	2	69	9	foodImage.22	FOODEEG_Images\0236.jpg	NY	Right	Yes	1.41913570000906	0	343367	235
671.677734375	1	decision	trialStart	2	70	10	foodImage.100	FOODEEG_Images\0908.jpg	NY	Left	No	0.679913100000704	0	343900	251
672.716796875	2	decision	foodImageDisplay	2	70	10	foodImage.100	FOODEEG_Images\0908.jpg	NY	Left	No	0.679913100000704	0	344432	252
674.78125	0.679913100000704	decision	choicePhaseStart	2	70	10	foodImage.100	FOODEEG_Images\0908.jpg	NY	Left	No	0.679913100000704	0	345489	253
675.451171875	0	decision	response	2	70	10	foodImage.100	FOODEEG_Images\0908.jpg	NY	Left	No	0.679913100000704	0	345832	234
676.49609375	1	decision	trialStart	2	71	11	foodImage.23	FOODEEG_Images\0244.jpg	YN	Left	Yes	0.798940500011668	0	346367	251
677.54296875	2	decision	foodImageDisplay	2	71	11	foodImage.23	FOODEEG_Images\0244.jpg	YN	Left	Yes	0.798940500011668	0	346903	252
679.60546875	0.798940500011668	decision	choicePhaseStart	2	71	11	foodImage.23	FOODEEG_Images\0244.jpg	YN	Left	Yes	0.798940500011668	0	347959	253
680.396484375	0	decision	response	2	71	11	foodImage.23	FOODEEG_Images\0244.jpg	YN	Left	Yes	0.798940500011668	0	348364	234
681.439453125	1	taste	trialStart	2	72	12	foodImage.8	FOODEEG_Images\0136.jpg	YN	Right	No	0.787912500003586	0	348898	251
682.482421875	2	taste	foodImageDisplay	2	72	12	foodImage.8	FOODEEG_Images\0136.jpg	YN	Right	No	0.787912500003586	0	349432	252
684.544921875	0.787912500003586	taste	choicePhaseStart	2	72	12	foodImage.8	FOODEEG_Images\0136.jpg	YN	Right	No	0.787912500003586	0	350488	253
685.32421875	0	taste	response	2	72	12	foodImage.8	FOODEEG_Images\0136.jpg	YN	Right	No	0.787912500003586	0	350887	235
686.3671875	1	health	trialStart	2	73	13	foodImage.93	FOODEEG_Images\0901.jpg	NY	Left	No	0.935238800011575	0	351421	251
687.40625	2	health	foodImageDisplay	2	73	13	foodImage.93	FOODEEG_Images\0901.jpg	NY	Left	No	0.935238800011575	0	351953	252
689.46875	0.935238800011575	health	choicePhaseStart	2	73	13	foodImage.93	FOODEEG_Images\0901.jpg	NY	Left	No	0.935238800011575	0	353009	253
690.39453125	0	health	response	2	73	13	foodImage.93	FOODEEG_Images\0901.jpg	NY	Left	No	0.935238800011575	0	353483	234
691.4375	1	health	trialStart	2	74	14	foodImage.2	FOODEEG_Images\0028.jpg	NY	Left	No	0.740121300012106	0	354017	251
692.48046875	2	health	foodImageDisplay	2	74	14	foodImage.2	FOODEEG_Images\0028.jpg	NY	Left	No	0.740121300012106	0	354551	252
694.544921875	0.740121300012106	health	choicePhaseStart	2	74	14	foodImage.2	FOODEEG_Images\0028.jpg	NY	Left	No	0.740121300012106	0	355608	253
695.275390625	0	health	response	2	74	14	foodImage.2	FOODEEG_Images\0028.jpg	NY	Left	No	0.740121300012106	0	355982	234
696.318359375	1	taste	trialStart	2	75	15	foodImage.51	FOODEEG_Images\0536.jpg	YN	Left	Yes	0.560258300014539	0	356516	251
697.36328125	2	taste	foodImageDisplay	2	75	15	foodImage.51	FOODEEG_Images\0536.jpg	YN	Left	Yes	0.560258300014539	0	357051	252
699.427734375	0.560258300014539	taste	choicePhaseStart	2	75	15	foodImage.51	FOODEEG_Images\0536.jpg	YN	Left	Yes	0.560258300014539	0	358108	253
699.978515625	0	taste	response	2	75	15	foodImage.51	FOODEEG_Images\0536.jpg	YN	Left	Yes	0.560258300014539	0	358390	234
701.01953125	1	taste	trialStart	2	76	16	foodImage.40	FOODEEG_Images\0373.jpg	NY	Right	Yes	0.950014200003352	0	358923	251
702.0625	2	taste	foodImageDisplay	2	76	16	foodImage.40	FOODEEG_Images\0373.jpg	NY	Right	Yes	0.950014200003352	0	359457	252
704.125	0.950014200003352	taste	choicePhaseStart	2	76	16	foodImage.40	FOODEEG_Images\0373.jpg	NY	Right	Yes	0.950014200003352	0	360513	253
705.06640625	0	taste	response	2	76	16	foodImage.40	FOODEEG_Images\0373.jpg	NY	Right	Yes	0.950014200003352	0	360995	235
706.109375	1	decision	trialStart	2	77	17	foodImage.112	FOODEEG_Images\0920.jpg	NY	Left	No	0.71230350001133	0	361529	251
707.1484375	2	decision	foodImageDisplay	2	77	17	foodImage.112	FOODEEG_Images\0920.jpg	NY	Left	No	0.71230350001133	0	362061	252
709.212890625	0.71230350001133	decision	choicePhaseStart	2	77	17	foodImage.112	FOODEEG_Images\0920.jpg	NY	Left	No	0.71230350001133	0	363118	253
709.916015625	0	decision	response	2	77	17	foodImage.112	FOODEEG_Images\0920.jpg	NY	Left	No	0.71230350001133	0	363478	234
710.95703125	1	decision	trialStart	2	78	18	foodImage.77	FOODEEG_Images\0771.jpg	NY	Left	No	0.995441000006394	0	364011	251
712.001953125	2	decision	foodImageDisplay	2	78	18	foodImage.77	FOODEEG_Images\0771.jpg	NY	Left	No	0.995441000006394	0	364546	252
714.064453125	0.995441000006394	decision	choicePhaseStart	2	78	18	foodImage.77	FOODEEG_Images\0771.jpg	NY	Left	No	0.995441000006394	0	365602	253
715.05078125	0	decision	response	2	78	18	foodImage.77	FOODEEG_Images\0771.jpg	NY	Left	No	0.995441000006394	0	366107	234
716.099609375	1	decision	trialStart	2	79	19	foodImage.99	FOODEEG_Images\0907.jpg	NY	Left	No	0.587269200012088	0	366644	251
717.138671875	2	decision	foodImageDisplay	2	79	19	foodImage.99	FOODEEG_Images\0907.jpg	NY	Left	No	0.587269200012088	0	367176	252
719.201171875	0.587269200012088	decision	choicePhaseStart	2	79	19	foodImage.99	FOODEEG_Images\0907.jpg	NY	Left	No	0.587269200012088	0	368232	253
719.77734375	0	decision	response	2	79	19	foodImage.99	FOODEEG_Images\0907.jpg	NY	Left	No	0.587269200012088	0	368527	234
720.8203125	1	decision	trialStart	2	80	20	foodImage.35	FOODEEG_Images\0350.jpg	NY	Right	Yes	0.575488800008316	0	369061	251
721.859375	2	decision	foodImageDisplay	2	80	20	foodImage.35	FOODEEG_Images\0350.jpg	NY	Right	Yes	0.575488800008316	0	369593	252
723.923828125	0.575488800008316	decision	choicePhaseStart	2	80	20	foodImage.35	FOODEEG_Images\0350.jpg	NY	Right	Yes	0.575488800008316	0	370650	253
724.490234375	0	decision	response	2	80	20	foodImage.35	FOODEEG_Images\0350.jpg	NY	Right	Yes	0.575488800008316	0	370940	235
725.533203125	1	decision	trialStart	2	81	21	foodImage.71	FOODEEG_Images\0713.jpg	YN	Right	No	0.91621940000914	0	371474	251
726.576171875	2	decision	foodImageDisplay	2	81	21	foodImage.71	FOODEEG_Images\0713.jpg	YN	Right	No	0.91621940000914	0	372008	252
728.638671875	0.91621940000914	decision	choicePhaseStart	2	81	21	foodImage.71	FOODEEG_Images\0713.jpg	YN	Right	No	0.91621940000914	0	373064	253
729.546875	0	decision	response	2	81	21	foodImage.71	FOODEEG_Images\0713.jpg	YN	Right	No	0.91621940000914	0	373529	235
730.587890625	1	health	trialStart	2	82	22	foodImage.53	FOODEEG_Images\0547.jpg	NY	Left	No	0.882065599987982	0	374062	251
731.6484375	2	health	foodImageDisplay	2	82	22	foodImage.53	FOODEEG_Images\0547.jpg	NY	Left	No	0.882065599987982	0	374605	252
733.7109375	0.882065599987982	health	choicePhaseStart	2	82	22	foodImage.53	FOODEEG_Images\0547.jpg	NY	Left	No	0.882065599987982	0	375661	253
734.5859375	0	health	response	2	82	22	foodImage.53	FOODEEG_Images\0547.jpg	NY	Left	No	0.882065599987982	0	376109	234
735.62890625	1	health	trialStart	2	83	23	foodImage.112	FOODEEG_Images\0920.jpg	YN	Right	No	1.86329349997686	0	376643	251
736.66796875	2	health	foodImageDisplay	2	83	23	foodImage.112	FOODEEG_Images\0920.jpg	YN	Right	No	1.86329349997686	0	377175	252
738.732421875	1.86329349997686	health	choicePhaseStart	2	83	23	foodImage.112	FOODEEG_Images\0920.jpg	YN	Right	No	1.86329349997686	0	378232	253
740.5859375	0	health	response	2	83	23	foodImage.112	FOODEEG_Images\0920.jpg	YN	Right	No	1.86329349997686	0	379181	235
741.62890625	1	health	trialStart	2	84	24	foodImage.21	FOODEEG_Images\0234.jpg	NY	Right	Yes	0.826788600010332	0	379715	251
742.6875	2	health	foodImageDisplay	2	84	24	foodImage.21	FOODEEG_Images\0234.jpg	NY	Right	Yes	0.826788600010332	0	380257	252
744.751953125	0.826788600010332	health	choicePhaseStart	2	84	24	foodImage.21	FOODEEG_Images\0234.jpg	NY	Right	Yes	0.826788600010332	0	381314	253
745.568359375	0	health	response	2	84	24	foodImage.21	FOODEEG_Images\0234.jpg	NY	Right	Yes	0.826788600010332	0	381732	235
746.6171875	1	taste	trialStart	2	85	25	foodImage.111	FOODEEG_Images\0919.jpg	NY	Left	No	0.669228700018721	0	382269	251
747.654296875	2	taste	foodImageDisplay	2	85	25	foodImage.111	FOODEEG_Images\0919.jpg	NY	Left	No	0.669228700018721	0	382800	252
749.716796875	0.669228700018721	taste	choicePhaseStart	2	85	25	foodImage.111	FOODEEG_Images\0919.jpg	NY	Left	No	0.669228700018721	0	383856	253
750.376953125	0	taste	response	2	85	25	foodImage.111	FOODEEG_Images\0919.jpg	NY	Left	No	0.669228700018721	0	384194	234
751.419921875	1	decision	trialStart	2	86	26	foodImage.63	FOODEEG_Images\0645.jpg	NY	Right	Yes	0.556657400011318	0	384728	251
752.4609375	2	decision	foodImageDisplay	2	86	26	foodImage.63	FOODEEG_Images\0645.jpg	NY	Right	Yes	0.556657400011318	0	385261	252
754.525390625	0.556657400011318	decision	choicePhaseStart	2	86	26	foodImage.63	FOODEEG_Images\0645.jpg	NY	Right	Yes	0.556657400011318	0	386318	253
755.072265625	0	decision	response	2	86	26	foodImage.63	FOODEEG_Images\0645.jpg	NY	Right	Yes	0.556657400011318	0	386598	235
756.115234375	1	taste	trialStart	2	87	27	foodImage.96	FOODEEG_Images\0904.jpg	NY	Left	No	1.27430389999063	0	387132	251
757.15234375	2	taste	foodImageDisplay	2	87	27	foodImage.96	FOODEEG_Images\0904.jpg	NY	Left	No	1.27430389999063	0	387663	252
759.216796875	1.27430389999063	taste	choicePhaseStart	2	87	27	foodImage.96	FOODEEG_Images\0904.jpg	NY	Left	No	1.27430389999063	0	388720	253
760.48046875	0	taste	response	2	87	27	foodImage.96	FOODEEG_Images\0904.jpg	NY	Left	No	1.27430389999063	0	389367	234
761.5234375	1	taste	trialStart	2	88	28	foodImage.29	FOODEEG_Images\0278.jpg	NY	Left	No	0.885775200003991	0	389901	251
762.564453125	2	taste	foodImageDisplay	2	88	28	foodImage.29	FOODEEG_Images\0278.jpg	NY	Left	No	0.885775200003991	0	390434	252
764.62890625	0.885775200003991	taste	choicePhaseStart	2	88	28	foodImage.29	FOODEEG_Images\0278.jpg	NY	Left	No	0.885775200003991	0	391491	253
765.50390625	0	taste	response	2	88	28	foodImage.29	FOODEEG_Images\0278.jpg	NY	Left	No	0.885775200003991	0	391939	234
766.546875	1	decision	trialStart	2	89	29	foodImage.55	FOODEEG_Images\0567.jpg	NY	Left	No	0.86282960002427	0	392473	251
767.603515625	2	decision	foodImageDisplay	2	89	29	foodImage.55	FOODEEG_Images\0567.jpg	NY	Left	No	0.86282960002427	0	393014	252
769.666015625	0.86282960002427	decision	choicePhaseStart	2	89	29	foodImage.55	FOODEEG_Images\0567.jpg	NY	Left	No	0.86282960002427	0	394070	253
770.51953125	0	decision	response	2	89	29	foodImage.55	FOODEEG_Images\0567.jpg	NY	Left	No	0.86282960002427	0	394507	234
771.564453125	1	taste	trialStart	2	90	30	foodImage.65	FOODEEG_Images\0658.jpg	NY	Right	Yes	1.24264229999972	0	395042	251
772.607421875	2	taste	foodImageDisplay	2	90	30	foodImage.65	FOODEEG_Images\0658.jpg	NY	Right	Yes	1.24264229999972	0	395576	252
774.669921875	1.24264229999972	taste	choicePhaseStart	2	90	30	foodImage.65	FOODEEG_Images\0658.jpg	NY	Right	Yes	1.24264229999972	0	396632	253
775.904296875	0	taste	response	2	90	30	foodImage.65	FOODEEG_Images\0658.jpg	NY	Right	Yes	1.24264229999972	0	397264	235
776.947265625	1	taste	trialStart	2	91	31	foodImage.53	FOODEEG_Images\0547.jpg	YN	Left	Yes	0.725190299999667	0	397798	251
778.00390625	2	taste	foodImageDisplay	2	91	31	foodImage.53	FOODEEG_Images\0547.jpg	YN	Left	Yes	0.725190299999667	0	398339	252
780.068359375	0.725190299999667	taste	choicePhaseStart	2	91	31	foodImage.53	FOODEEG_Images\0547.jpg	YN	Left	Yes	0.725190299999667	0	399396	253
780.783203125	0	taste	response	2	91	31	foodImage.53	FOODEEG_Images\0547.jpg	YN	Left	Yes	0.725190299999667	0	399762	234
781.826171875	1	taste	trialStart	2	92	32	foodImage.86	FOODEEG_Images\0844.jpg	NY	Right	Yes	1.09004619999905	0	400296	251
782.88671875	2	taste	foodImageDisplay	2	92	32	foodImage.86	FOODEEG_Images\0844.jpg	NY	Right	Yes	1.09004619999905	0	400839	252
784.951171875	1.09004619999905	taste	choicePhaseStart	2	92	32	foodImage.86	FOODEEG_Images\0844.jpg	NY	Right	Yes	1.09004619999905	0	401896	253
786.03125	0	taste	response	2	92	32	foodImage.86	FOODEEG_Images\0844.jpg	NY	Right	Yes	1.09004619999905	0	402449	235
787.07421875	1	health	trialStart	2	93	33	foodImage.30	FOODEEG_Images\0282.jpg	NY	Right	Yes	1.8202261000115	0	402983	251
788.1171875	2	health	foodImageDisplay	2	93	33	foodImage.30	FOODEEG_Images\0282.jpg	NY	Right	Yes	1.8202261000115	0	403517	252
790.1796875	1.8202261000115	health	choicePhaseStart	2	93	33	foodImage.30	FOODEEG_Images\0282.jpg	NY	Right	Yes	1.8202261000115	0	404573	253
791.9921875	0	health	response	2	93	33	foodImage.30	FOODEEG_Images\0282.jpg	NY	Right	Yes	1.8202261000115	0	405501	235
793.041015625	1	decision	trialStart	2	94	34	foodImage.75	FOODEEG_Images\0763.jpg	YN	Right	No	1.80075809999835	0	406038	251
794.083984375	2	decision	foodImageDisplay	2	94	34	foodImage.75	FOODEEG_Images\0763.jpg	YN	Right	No	1.80075809999835	0	406572	252
796.15234375	1.80075809999835	decision	choicePhaseStart	2	94	34	foodImage.75	FOODEEG_Images\0763.jpg	YN	Right	No	1.80075809999835	0	407631	253
797.943359375	0	decision	response	2	94	34	foodImage.75	FOODEEG_Images\0763.jpg	YN	Right	No	1.80075809999835	0	408548	235
798.984375	1	taste	trialStart	2	95	35	foodImage.80	FOODEEG_Images\0796.jpg	YN	Right	No	1.03835170000093	0	409081	251
800.04296875	2	taste	foodImageDisplay	2	95	35	foodImage.80	FOODEEG_Images\0796.jpg	YN	Right	No	1.03835170000093	0	409623	252
802.10546875	1.03835170000093	taste	choicePhaseStart	2	95	35	foodImage.80	FOODEEG_Images\0796.jpg	YN	Right	No	1.03835170000093	0	410679	253
803.134765625	0	taste	response	2	95	35	foodImage.80	FOODEEG_Images\0796.jpg	YN	Right	No	1.03835170000093	0	411206	235
804.177734375	1	decision	trialStart	2	96	36	foodImage.59	FOODEEG_Images\0607.jpg	NY	Right	Yes	1.08382439997513	0	411740	251
805.228515625	2	decision	foodImageDisplay	2	96	36	foodImage.59	FOODEEG_Images\0607.jpg	NY	Right	Yes	1.08382439997513	0	412278	252
807.29296875	1.08382439997513	decision	choicePhaseStart	2	96	36	foodImage.59	FOODEEG_Images\0607.jpg	NY	Right	Yes	1.08382439997513	0	413335	253
808.3671875	0	decision	response	2	96	36	foodImage.59	FOODEEG_Images\0607.jpg	NY	Right	Yes	1.08382439997513	0	413885	235
809.41015625	1	taste	trialStart	2	97	37	foodImage.24	FOODEEG_Images\0250.jpg	NY	Left	No	0.81343080001534	0	414419	251
810.451171875	2	taste	foodImageDisplay	2	97	37	foodImage.24	FOODEEG_Images\0250.jpg	NY	Left	No	0.81343080001534	0	414952	252
812.515625	0.81343080001534	taste	choicePhaseStart	2	97	37	foodImage.24	FOODEEG_Images\0250.jpg	NY	Left	No	0.81343080001534	0	416009	253
813.318359375	0	taste	response	2	97	37	foodImage.24	FOODEEG_Images\0250.jpg	NY	Left	No	0.81343080001534	0	416420	234
814.365234375	1	health	trialStart	2	98	38	foodImage.66	FOODEEG_Images\0676.jpg	YN	Right	No	0.911978899996029	0	416956	251
815.408203125	2	health	foodImageDisplay	2	98	38	foodImage.66	FOODEEG_Images\0676.jpg	YN	Right	No	0.911978899996029	0	417490	252
817.470703125	0.911978899996029	health	choicePhaseStart	2	98	38	foodImage.66	FOODEEG_Images\0676.jpg	YN	Right	No	0.911978899996029	0	418546	253
818.375	0	health	response	2	98	38	foodImage.66	FOODEEG_Images\0676.jpg	YN	Right	No	0.911978899996029	0	419009	235
819.41796875	1	health	trialStart	2	99	39	foodImage.91	FOODEEG_Images\0896.jpg	NY	Left	No	0.931888899998739	0	419543	251
820.4765625	2	health	foodImageDisplay	2	99	39	foodImage.91	FOODEEG_Images\0896.jpg	NY	Left	No	0.931888899998739	0	420085	252
822.5390625	0.931888899998739	health	choicePhaseStart	2	99	39	foodImage.91	FOODEEG_Images\0896.jpg	NY	Left	No	0.931888899998739	0	421141	253
823.462890625	0	health	response	2	99	39	foodImage.91	FOODEEG_Images\0896.jpg	NY	Left	No	0.931888899998739	0	421614	234
824.505859375	1	taste	trialStart	2	100	40	foodImage.4	FOODEEG_Images\0065.jpg	YN	Left	Yes	0.70217999999295	0	422148	251
825.5625	2	taste	foodImageDisplay	2	100	40	foodImage.4	FOODEEG_Images\0065.jpg	YN	Left	Yes	0.70217999999295	0	422689	252
827.630859375	0.70217999999295	taste	choicePhaseStart	2	100	40	foodImage.4	FOODEEG_Images\0065.jpg	YN	Left	Yes	0.70217999999295	0	423748	253
828.326171875	0	taste	response	2	100	40	foodImage.4	FOODEEG_Images\0065.jpg	YN	Left	Yes	0.70217999999295	0	424104	234
829.373046875	1	decision	trialStart	2	101	41	foodImage.40	FOODEEG_Images\0373.jpg	YN	Left	Yes	0.951579500018852	0	424640	251
830.4140625	2	decision	foodImageDisplay	2	101	41	foodImage.40	FOODEEG_Images\0373.jpg	YN	Left	Yes	0.951579500018852	0	425173	252
832.4765625	0.951579500018852	decision	choicePhaseStart	2	101	41	foodImage.40	FOODEEG_Images\0373.jpg	YN	Left	Yes	0.951579500018852	0	426229	253
833.421875	0	decision	response	2	101	41	foodImage.40	FOODEEG_Images\0373.jpg	YN	Left	Yes	0.951579500018852	0	426713	234
834.470703125	1	health	trialStart	2	102	42	foodImage.100	FOODEEG_Images\0908.jpg	NY	Left	No	0.929372899990994	0	427250	251
835.509765625	2	health	foodImageDisplay	2	102	42	foodImage.100	FOODEEG_Images\0908.jpg	NY	Left	No	0.929372899990994	0	427782	252
837.57421875	0.929372899990994	health	choicePhaseStart	2	102	42	foodImage.100	FOODEEG_Images\0908.jpg	NY	Left	No	0.929372899990994	0	428839	253
838.494140625	0	health	response	2	102	42	foodImage.100	FOODEEG_Images\0908.jpg	NY	Left	No	0.929372899990994	0	429310	234
839.546875	1	health	trialStart	2	103	43	foodImage.31	FOODEEG_Images\0294.jpg	NY	Right	Yes	0.723111700004665	0	429849	251
840.587890625	2	health	foodImageDisplay	2	103	43	foodImage.31	FOODEEG_Images\0294.jpg	NY	Right	Yes	0.723111700004665	0	430382	252
842.65234375	0.723111700004665	health	choicePhaseStart	2	103	43	foodImage.31	FOODEEG_Images\0294.jpg	NY	Right	Yes	0.723111700004665	0	431439	253
843.365234375	0	health	response	2	103	43	foodImage.31	FOODEEG_Images\0294.jpg	NY	Right	Yes	0.723111700004665	0	431804	235
844.41015625	1	taste	trialStart	2	104	44	foodImage.110	FOODEEG_Images\0918.jpg	YN	Left	Yes	0.812065899983281	0	432339	251
845.447265625	2	taste	foodImageDisplay	2	104	44	foodImage.110	FOODEEG_Images\0918.jpg	YN	Left	Yes	0.812065899983281	0	432870	252
847.515625	0.812065899983281	taste	choicePhaseStart	2	104	44	foodImage.110	FOODEEG_Images\0918.jpg	YN	Left	Yes	0.812065899983281	0	433929	253
848.31640625	0	taste	response	2	104	44	foodImage.110	FOODEEG_Images\0918.jpg	YN	Left	Yes	0.812065899983281	0	434339	234
849.361328125	1	health	trialStart	2	105	45	foodImage.9	FOODEEG_Images\0138.jpg	YN	Right	No	0.811806599987904	0	434874	251
850.419921875	2	health	foodImageDisplay	2	105	45	foodImage.9	FOODEEG_Images\0138.jpg	YN	Right	No	0.811806599987904	0	435416	252
852.482421875	0.811806599987904	health	choicePhaseStart	2	105	45	foodImage.9	FOODEEG_Images\0138.jpg	YN	Right	No	0.811806599987904	0	436472	253
853.28515625	0	health	response	2	105	45	foodImage.9	FOODEEG_Images\0138.jpg	YN	Right	No	0.811806599987904	0	436883	235
854.328125	1	health	trialStart	2	106	46	foodImage.3	FOODEEG_Images\0046.jpg	NY	Left	No	0.889517300005537	0	437417	251
855.37109375	2	health	foodImageDisplay	2	106	46	foodImage.3	FOODEEG_Images\0046.jpg	NY	Left	No	0.889517300005537	0	437951	252
857.435546875	0.889517300005537	health	choicePhaseStart	2	106	46	foodImage.3	FOODEEG_Images\0046.jpg	NY	Left	No	0.889517300005537	0	439008	253
858.31640625	0	health	response	2	106	46	foodImage.3	FOODEEG_Images\0046.jpg	NY	Left	No	0.889517300005537	0	439459	234
859.357421875	1	taste	trialStart	2	107	47	foodImage.52	FOODEEG_Images\0539.jpg	YN	Left	Yes	0.948418199986918	0	439992	251
860.416015625	2	taste	foodImageDisplay	2	107	47	foodImage.52	FOODEEG_Images\0539.jpg	YN	Left	Yes	0.948418199986918	0	440534	252
862.482421875	0.948418199986918	taste	choicePhaseStart	2	107	47	foodImage.52	FOODEEG_Images\0539.jpg	YN	Left	Yes	0.948418199986918	0	441592	253
863.419921875	0	taste	response	2	107	47	foodImage.52	FOODEEG_Images\0539.jpg	YN	Left	Yes	0.948418199986918	0	442072	234
864.462890625	1	taste	trialStart	2	108	48	foodImage.58	FOODEEG_Images\0605.jpg	YN	Left	Yes	0.802885799988871	0	442606	251
865.5234375	2	taste	foodImageDisplay	2	108	48	foodImage.58	FOODEEG_Images\0605.jpg	YN	Left	Yes	0.802885799988871	0	443149	252
867.5859375	0.802885799988871	taste	choicePhaseStart	2	108	48	foodImage.58	FOODEEG_Images\0605.jpg	YN	Left	Yes	0.802885799988871	0	444205	253
868.380859375	0	taste	response	2	108	48	foodImage.58	FOODEEG_Images\0605.jpg	YN	Left	Yes	0.802885799988871	0	444612	234
869.423828125	1	decision	trialStart	2	109	49	foodImage.86	FOODEEG_Images\0844.jpg	YN	Left	Yes	0.73187489999691	0	445146	251
870.48046875	2	decision	foodImageDisplay	2	109	49	foodImage.86	FOODEEG_Images\0844.jpg	YN	Left	Yes	0.73187489999691	0	445687	252
872.548828125	0.73187489999691	decision	choicePhaseStart	2	109	49	foodImage.86	FOODEEG_Images\0844.jpg	YN	Left	Yes	0.73187489999691	0	446746	253
873.275390625	0	decision	response	2	109	49	foodImage.86	FOODEEG_Images\0844.jpg	YN	Left	Yes	0.73187489999691	0	447118	234
874.318359375	1	health	trialStart	2	110	50	foodImage.107	FOODEEG_Images\0915.jpg	NY	Right	Yes	1.23989679999067	0	447652	251
875.357421875	2	health	foodImageDisplay	2	110	50	foodImage.107	FOODEEG_Images\0915.jpg	NY	Right	Yes	1.23989679999067	0	448184	252
877.421875	1.23989679999067	health	choicePhaseStart	2	110	50	foodImage.107	FOODEEG_Images\0915.jpg	NY	Right	Yes	1.23989679999067	0	449241	253
878.65234375	0	health	response	2	110	50	foodImage.107	FOODEEG_Images\0915.jpg	NY	Right	Yes	1.23989679999067	0	449871	235
879.693359375	1	health	trialStart	2	111	51	foodImage.16	FOODEEG_Images\0196.jpg	YN	Left	Yes	0.614619200001471	0	450404	251
880.751953125	2	health	foodImageDisplay	2	111	51	foodImage.16	FOODEEG_Images\0196.jpg	YN	Left	Yes	0.614619200001471	0	450946	252
882.814453125	0.614619200001471	health	choicePhaseStart	2	111	51	foodImage.16	FOODEEG_Images\0196.jpg	YN	Left	Yes	0.614619200001471	0	452002	253
883.419921875	0	health	response	2	111	51	foodImage.16	FOODEEG_Images\0196.jpg	YN	Left	Yes	0.614619200001471	0	452312	234
884.462890625	1	taste	trialStart	2	112	52	foodImage.59	FOODEEG_Images\0607.jpg	NY	Right	Yes	1.34224830000312	0	452846	251
885.5078125	2	taste	foodImageDisplay	2	112	52	foodImage.59	FOODEEG_Images\0607.jpg	NY	Right	Yes	1.34224830000312	0	453381	252
887.572265625	1.34224830000312	taste	choicePhaseStart	2	112	52	foodImage.59	FOODEEG_Images\0607.jpg	NY	Right	Yes	1.34224830000312	0	454438	253
888.908203125	0	taste	response	2	112	52	foodImage.59	FOODEEG_Images\0607.jpg	NY	Right	Yes	1.34224830000312	0	455122	235
889.951171875	1	health	trialStart	2	113	53	foodImage.71	FOODEEG_Images\0713.jpg	NY	Left	No	0.705116199998884	0	455656	251
890.9921875	2	health	foodImageDisplay	2	113	53	foodImage.71	FOODEEG_Images\0713.jpg	NY	Left	No	0.705116199998884	0	456189	252
893.05859375	0.705116199998884	health	choicePhaseStart	2	113	53	foodImage.71	FOODEEG_Images\0713.jpg	NY	Left	No	0.705116199998884	0	457247	253
893.755859375	0	health	response	2	113	53	foodImage.71	FOODEEG_Images\0713.jpg	NY	Left	No	0.705116199998884	0	457604	234
894.798828125	1	decision	trialStart	2	114	54	foodImage.119	FOODEEG_Images\0927.jpg	NY	Left	No	0.757566000014776	0	458138	251
895.837890625	2	decision	foodImageDisplay	2	114	54	foodImage.119	FOODEEG_Images\0927.jpg	NY	Left	No	0.757566000014776	0	458670	252
897.90234375	0.757566000014776	decision	choicePhaseStart	2	114	54	foodImage.119	FOODEEG_Images\0927.jpg	NY	Left	No	0.757566000014776	0	459727	253
898.650390625	0	decision	response	2	114	54	foodImage.119	FOODEEG_Images\0927.jpg	NY	Left	No	0.757566000014776	0	460110	234
899.6953125	1	decision	trialStart	2	115	55	foodImage.45	FOODEEG_Images\0478.jpg	NY	Left	No	1.35575970000355	0	460645	251
900.74609375	2	decision	foodImageDisplay	2	115	55	foodImage.45	FOODEEG_Images\0478.jpg	NY	Left	No	1.35575970000355	0	461183	252
902.80859375	1.35575970000355	decision	choicePhaseStart	2	115	55	foodImage.45	FOODEEG_Images\0478.jpg	NY	Left	No	1.35575970000355	0	462239	253
904.154296875	0	decision	response	2	115	55	foodImage.45	FOODEEG_Images\0478.jpg	NY	Left	No	1.35575970000355	0	462928	234
905.197265625	1	health	trialStart	2	116	56	foodImage.55	FOODEEG_Images\0567.jpg	NY	Left	No	1.41112720000092	0	463462	251
906.2578125	2	health	foodImageDisplay	2	116	56	foodImage.55	FOODEEG_Images\0567.jpg	NY	Left	No	1.41112720000092	0	464005	252
908.3203125	1.41112720000092	health	choicePhaseStart	2	116	56	foodImage.55	FOODEEG_Images\0567.jpg	NY	Left	No	1.41112720000092	0	465061	253
909.72265625	0	health	response	2	116	56	foodImage.55	FOODEEG_Images\0567.jpg	NY	Left	No	1.41112720000092	0	465779	234
910.76953125	1	decision	trialStart	2	117	57	foodImage.90	FOODEEG_Images\0890.jpg	NY	Right	Yes	0.57693909999216	0	466315	251
911.826171875	2	decision	foodImageDisplay	2	117	57	foodImage.90	FOODEEG_Images\0890.jpg	NY	Right	Yes	0.57693909999216	0	466856	252
913.890625	0.57693909999216	decision	choicePhaseStart	2	117	57	foodImage.90	FOODEEG_Images\0890.jpg	NY	Right	Yes	0.57693909999216	0	467913	253
914.458984375	0	decision	response	2	117	57	foodImage.90	FOODEEG_Images\0890.jpg	NY	Right	Yes	0.57693909999216	0	468204	235
915.50390625	1	taste	trialStart	2	118	58	foodImage.16	FOODEEG_Images\0196.jpg	YN	Right	No	1.10563389997697	0	468739	251
916.5625	2	taste	foodImageDisplay	2	118	58	foodImage.16	FOODEEG_Images\0196.jpg	YN	Right	No	1.10563389997697	0	469281	252
918.625	1.10563389997697	taste	choicePhaseStart	2	118	58	foodImage.16	FOODEEG_Images\0196.jpg	YN	Right	No	1.10563389997697	0	470337	253
919.72265625	0	taste	response	2	118	58	foodImage.16	FOODEEG_Images\0196.jpg	YN	Right	No	1.10563389997697	0	470899	235
920.765625	1	decision	trialStart	2	119	59	foodImage.13	FOODEEG_Images\0183.jpg	YN	Left	Yes	1.01121430000057	0	471433	251
921.80859375	2	decision	foodImageDisplay	2	119	59	foodImage.13	FOODEEG_Images\0183.jpg	YN	Left	Yes	1.01121430000057	0	471967	252
923.873046875	1.01121430000057	decision	choicePhaseStart	2	119	59	foodImage.13	FOODEEG_Images\0183.jpg	YN	Left	Yes	1.01121430000057	0	473024	253
924.875	0	decision	response	2	119	59	foodImage.13	FOODEEG_Images\0183.jpg	YN	Left	Yes	1.01121430000057	0	473537	234
925.91796875	1	taste	trialStart	2	120	60	foodImage.101	FOODEEG_Images\0909.jpg	YN	Right	No	0.641117599996505	0	474071	251
926.955078125	2	taste	foodImageDisplay	2	120	60	foodImage.101	FOODEEG_Images\0909.jpg	YN	Right	No	0.641117599996505	0	474602	252
929.01953125	0.641117599996505	taste	choicePhaseStart	2	120	60	foodImage.101	FOODEEG_Images\0909.jpg	YN	Right	No	0.641117599996505	0	475659	253
929.650390625	0	taste	response	2	120	60	foodImage.101	FOODEEG_Images\0909.jpg	YN	Right	No	0.641117599996505	0	475982	235
931.69140625	6.845703125	n/a	blockEnd	n/a	n/a	n/a	n/a	n/a	n/a	n/a	n/a	n/a	n/a	477027	254
938.537109375	2	n/a	blockStart	3	n/a	n/a	n/a	n/a	n/a	n/a	n/a	n/a	n/a	480532	250
940.5703125	1	taste	trialStart	3	121	1	foodImage.43	FOODEEG_Images\0445.jpg	NY	Left	No	0.853548799990676	0	481573	251
941.62890625	2	taste	foodImageDisplay	3	121	1	foodImage.43	FOODEEG_Images\0445.jpg	NY	Left	No	0.853548799990676	0	482115	252
943.697265625	0.853548799990676	taste	choicePhaseStart	3	121	1	foodImage.43	FOODEEG_Images\0445.jpg	NY	Left	No	0.853548799990676	0	483174	253
944.544921875	0	taste	response	3	121	1	foodImage.43	FOODEEG_Images\0445.jpg	NY	Left	No	0.853548799990676	0	483608	234
945.587890625	1	health	trialStart	3	122	2	foodImage.27	FOODEEG_Images\0263.jpg	YN	Left	Yes	0.765431500010891	0	484142	251
946.62890625	2	health	foodImageDisplay	3	122	2	foodImage.27	FOODEEG_Images\0263.jpg	YN	Left	Yes	0.765431500010891	0	484675	252
948.69140625	0.765431500010891	health	choicePhaseStart	3	122	2	foodImage.27	FOODEEG_Images\0263.jpg	YN	Left	Yes	0.765431500010891	0	485731	253
949.44921875	0	health	response	3	122	2	foodImage.27	FOODEEG_Images\0263.jpg	YN	Left	Yes	0.765431500010891	0	486119	234
950.4921875	1	taste	trialStart	3	123	3	foodImage.109	FOODEEG_Images\0917.jpg	NY	Left	No	0.749936300009722	0	486653	251
951.53125	2	taste	foodImageDisplay	3	123	3	foodImage.109	FOODEEG_Images\0917.jpg	NY	Left	No	0.749936300009722	0	487185	252
953.595703125	0.749936300009722	taste	choicePhaseStart	3	123	3	foodImage.109	FOODEEG_Images\0917.jpg	NY	Left	No	0.749936300009722	0	488242	253
954.337890625	0	taste	response	3	123	3	foodImage.109	FOODEEG_Images\0917.jpg	NY	Left	No	0.749936300009722	0	488622	234
955.396484375	1	health	trialStart	3	124	4	foodImage.90	FOODEEG_Images\0890.jpg	NY	Right	Yes	1.49865220001084	0	489164	251
956.45703125	2	health	foodImageDisplay	3	124	4	foodImage.90	FOODEEG_Images\0890.jpg	NY	Right	Yes	1.49865220001084	0	489707	252
958.51953125	1.49865220001084	health	choicePhaseStart	3	124	4	foodImage.90	FOODEEG_Images\0890.jpg	NY	Right	Yes	1.49865220001084	0	490763	253
960.009765625	0	health	response	3	124	4	foodImage.90	FOODEEG_Images\0890.jpg	NY	Right	Yes	1.49865220001084	0	491526	235
961.052734375	1	decision	trialStart	3	125	5	foodImage.39	FOODEEG_Images\0367.jpg	NY	Right	Yes	0.929728299990529	0	492060	251
962.08984375	2	decision	foodImageDisplay	3	125	5	foodImage.39	FOODEEG_Images\0367.jpg	NY	Right	Yes	0.929728299990529	0	492591	252
964.15234375	0.929728299990529	decision	choicePhaseStart	3	125	5	foodImage.39	FOODEEG_Images\0367.jpg	NY	Right	Yes	0.929728299990529	0	493647	253
965.072265625	0	decision	response	3	125	5	foodImage.39	FOODEEG_Images\0367.jpg	NY	Right	Yes	0.929728299990529	0	494118	235
966.1171875	1	health	trialStart	3	126	6	foodImage.63	FOODEEG_Images\0645.jpg	NY	Left	No	1.41214699999546	0	494653	251
967.158203125	2	health	foodImageDisplay	3	126	6	foodImage.63	FOODEEG_Images\0645.jpg	NY	Left	No	1.41214699999546	0	495186	252
969.220703125	1.41214699999546	health	choicePhaseStart	3	126	6	foodImage.63	FOODEEG_Images\0645.jpg	NY	Left	No	1.41214699999546	0	496242	253
970.625	0	health	response	3	126	6	foodImage.63	FOODEEG_Images\0645.jpg	NY	Left	No	1.41214699999546	0	496961	234
971.66796875	1	decision	trialStart	3	127	7	foodImage.81	FOODEEG_Images\0797.jpg	NY	Left	No	0.949241800000891	0	497495	251
972.7265625	2	decision	foodImageDisplay	3	127	7	foodImage.81	FOODEEG_Images\0797.jpg	NY	Left	No	0.949241800000891	0	498037	252
974.7890625	0.949241800000891	decision	choicePhaseStart	3	127	7	foodImage.81	FOODEEG_Images\0797.jpg	NY	Left	No	0.949241800000891	0	499093	253
975.728515625	0	decision	response	3	127	7	foodImage.81	FOODEEG_Images\0797.jpg	NY	Left	No	0.949241800000891	0	499574	234
976.76953125	1	decision	trialStart	3	128	8	foodImage.110	FOODEEG_Images\0918.jpg	NY	Left	No	0.867537700018147	0	500107	251
977.80859375	2	decision	foodImageDisplay	3	128	8	foodImage.110	FOODEEG_Images\0918.jpg	NY	Left	No	0.867537700018147	0	500639	252
979.87109375	0.867537700018147	decision	choicePhaseStart	3	128	8	foodImage.110	FOODEEG_Images\0918.jpg	NY	Left	No	0.867537700018147	0	501695	253
980.728515625	0	decision	response	3	128	8	foodImage.110	FOODEEG_Images\0918.jpg	NY	Left	No	0.867537700018147	0	502134	234
981.76953125	1	taste	trialStart	3	129	9	foodImage.117	FOODEEG_Images\0925.jpg	YN	Right	No	0.834648899995955	0	502667	251
982.80859375	2	taste	foodImageDisplay	3	129	9	foodImage.117	FOODEEG_Images\0925.jpg	YN	Right	No	0.834648899995955	0	503199	252
984.87109375	0.834648899995955	taste	choicePhaseStart	3	129	9	foodImage.117	FOODEEG_Images\0925.jpg	YN	Right	No	0.834648899995955	0	504255	253
985.6953125	0	taste	response	3	129	9	foodImage.117	FOODEEG_Images\0925.jpg	YN	Right	No	0.834648899995955	0	504677	235
986.73828125	1	decision	trialStart	3	130	10	foodImage.48	FOODEEG_Images\0494.jpg	NY	Right	Yes	0.684862599999178	0	505211	251
987.78125	2	decision	foodImageDisplay	3	130	10	foodImage.48	FOODEEG_Images\0494.jpg	NY	Right	Yes	0.684862599999178	0	505745	252
989.84375	0.684862599999178	decision	choicePhaseStart	3	130	10	foodImage.48	FOODEEG_Images\0494.jpg	NY	Right	Yes	0.684862599999178	0	506801	253
990.51953125	0	decision	response	3	130	10	foodImage.48	FOODEEG_Images\0494.jpg	NY	Right	Yes	0.684862599999178	0	507147	235
991.5625	1	taste	trialStart	3	131	11	foodImage.108	FOODEEG_Images\0916.jpg	NY	Left	No	0.504649100010283	0	507681	251
992.599609375	2	taste	foodImageDisplay	3	131	11	foodImage.108	FOODEEG_Images\0916.jpg	NY	Left	No	0.504649100010283	0	508212	252
994.6640625	0.504649100010283	taste	choicePhaseStart	3	131	11	foodImage.108	FOODEEG_Images\0916.jpg	NY	Left	No	0.504649100010283	0	509269	253
995.16015625	0	taste	response	3	131	11	foodImage.108	FOODEEG_Images\0916.jpg	NY	Left	No	0.504649100010283	0	509523	234
996.203125	1	health	trialStart	3	132	12	foodImage.83	FOODEEG_Images\0827.jpg	NY	Right	Yes	0.691874600015581	0	510057	251
997.26171875	2	health	foodImageDisplay	3	132	12	foodImage.83	FOODEEG_Images\0827.jpg	NY	Right	Yes	0.691874600015581	0	510599	252
999.326171875	0.691874600015581	health	choicePhaseStart	3	132	12	foodImage.83	FOODEEG_Images\0827.jpg	NY	Right	Yes	0.691874600015581	0	511656	253
1000.0078125	0	health	response	3	132	12	foodImage.83	FOODEEG_Images\0827.jpg	NY	Right	Yes	0.691874600015581	0	512005	235
1001.05078125	1	decision	trialStart	3	133	13	foodImage.51	FOODEEG_Images\0536.jpg	YN	Right	No	1.61757390000275	0	512539	251
1002.095703125	2	decision	foodImageDisplay	3	133	13	foodImage.51	FOODEEG_Images\0536.jpg	YN	Right	No	1.61757390000275	0	513074	252
1004.158203125	1.61757390000275	decision	choicePhaseStart	3	133	13	foodImage.51	FOODEEG_Images\0536.jpg	YN	Right	No	1.61757390000275	0	514130	253
1005.767578125	0	decision	response	3	133	13	foodImage.51	FOODEEG_Images\0536.jpg	YN	Right	No	1.61757390000275	0	514954	235
1006.810546875	1	decision	trialStart	3	134	14	foodImage.93	FOODEEG_Images\0901.jpg	NY	Left	No	0.763023299979977	0	515488	251
1007.853515625	2	decision	foodImageDisplay	3	134	14	foodImage.93	FOODEEG_Images\0901.jpg	NY	Left	No	0.763023299979977	0	516022	252
1009.916015625	0.763023299979977	decision	choicePhaseStart	3	134	14	foodImage.93	FOODEEG_Images\0901.jpg	NY	Left	No	0.763023299979977	0	517078	253
1010.671875	0	decision	response	3	134	14	foodImage.93	FOODEEG_Images\0901.jpg	NY	Left	No	0.763023299979977	0	517465	234
1011.71484375	1	health	trialStart	3	135	15	foodImage.76	FOODEEG_Images\0766.jpg	NY	Right	Yes	1.40292000002228	0	517999	251
1012.7578125	2	health	foodImageDisplay	3	135	15	foodImage.76	FOODEEG_Images\0766.jpg	NY	Right	Yes	1.40292000002228	0	518533	252
1014.828125	1.40292000002228	health	choicePhaseStart	3	135	15	foodImage.76	FOODEEG_Images\0766.jpg	NY	Right	Yes	1.40292000002228	0	519593	253
1016.22265625	0	health	response	3	135	15	foodImage.76	FOODEEG_Images\0766.jpg	NY	Right	Yes	1.40292000002228	0	520307	235
1017.265625	1	taste	trialStart	3	136	16	foodImage.84	FOODEEG_Images\0830.jpg	YN	Left	Yes	0.650811100000283	0	520841	251
1018.32421875	2	taste	foodImageDisplay	3	136	16	foodImage.84	FOODEEG_Images\0830.jpg	YN	Left	Yes	0.650811100000283	0	521383	252
1020.388671875	0.650811100000283	taste	choicePhaseStart	3	136	16	foodImage.84	FOODEEG_Images\0830.jpg	YN	Left	Yes	0.650811100000283	0	522440	253
1021.03125	0	taste	response	3	136	16	foodImage.84	FOODEEG_Images\0830.jpg	YN	Left	Yes	0.650811100000283	0	522769	234
1022.078125	1	health	trialStart	3	137	17	foodImage.1	FOODEEG_Images\0004.jpg	YN	Right	No	0.919935599988094	0	523305	251
1023.119140625	2	health	foodImageDisplay	3	137	17	foodImage.1	FOODEEG_Images\0004.jpg	YN	Right	No	0.919935599988094	0	523838	252
1025.18359375	0.919935599988094	health	choicePhaseStart	3	137	17	foodImage.1	FOODEEG_Images\0004.jpg	YN	Right	No	0.919935599988094	0	524895	253
1026.09375	0	health	response	3	137	17	foodImage.1	FOODEEG_Images\0004.jpg	YN	Right	No	0.919935599988094	0	525361	235
1027.13671875	1	taste	trialStart	3	138	18	foodImage.10	FOODEEG_Images\0145.jpg	NY	Right	Yes	1.09176900002058	0	525895	251
1028.1953125	2	taste	foodImageDisplay	3	138	18	foodImage.10	FOODEEG_Images\0145.jpg	NY	Right	Yes	1.09176900002058	0	526437	252
1030.259765625	1.09176900002058	taste	choicePhaseStart	3	138	18	foodImage.10	FOODEEG_Images\0145.jpg	NY	Right	Yes	1.09176900002058	0	527494	253
1031.341796875	0	taste	response	3	138	18	foodImage.10	FOODEEG_Images\0145.jpg	NY	Right	Yes	1.09176900002058	0	528048	235
1032.384765625	1	decision	trialStart	3	139	19	foodImage.6	FOODEEG_Images\0113.jpg	NY	Right	Yes	0.773200499999803	0	528582	251
1033.427734375	2	decision	foodImageDisplay	3	139	19	foodImage.6	FOODEEG_Images\0113.jpg	NY	Right	Yes	0.773200499999803	0	529116	252
1035.490234375	0.773200499999803	decision	choicePhaseStart	3	139	19	foodImage.6	FOODEEG_Images\0113.jpg	NY	Right	Yes	0.773200499999803	0	530172	253
1036.25390625	0	decision	response	3	139	19	foodImage.6	FOODEEG_Images\0113.jpg	NY	Right	Yes	0.773200499999803	0	530563	235
1037.30078125	1	health	trialStart	3	140	20	foodImage.11	FOODEEG_Images\0180.jpg	YN	Left	Yes	1.13546449999558	0	531099	251
1038.34375	2	health	foodImageDisplay	3	140	20	foodImage.11	FOODEEG_Images\0180.jpg	YN	Left	Yes	1.13546449999558	0	531633	252
1040.40625	1.13546449999558	health	choicePhaseStart	3	140	20	foodImage.11	FOODEEG_Images\0180.jpg	YN	Left	Yes	1.13546449999558	0	532689	253
1041.533203125	0	health	response	3	140	20	foodImage.11	FOODEEG_Images\0180.jpg	YN	Left	Yes	1.13546449999558	0	533266	234
1042.576171875	1	decision	trialStart	3	141	21	foodImage.47	FOODEEG_Images\0488.jpg	NY	Right	Yes	0.731557999999495	0	533800	251
1043.619140625	2	decision	foodImageDisplay	3	141	21	foodImage.47	FOODEEG_Images\0488.jpg	NY	Right	Yes	0.731557999999495	0	534334	252
1045.68359375	0.731557999999495	decision	choicePhaseStart	3	141	21	foodImage.47	FOODEEG_Images\0488.jpg	NY	Right	Yes	0.731557999999495	0	535391	253
1046.40625	0	decision	response	3	141	21	foodImage.47	FOODEEG_Images\0488.jpg	NY	Right	Yes	0.731557999999495	0	535761	235
1047.44921875	1	taste	trialStart	3	142	22	foodImage.100	FOODEEG_Images\0908.jpg	NY	Left	No	0.653510500007542	0	536295	251
1048.48828125	2	taste	foodImageDisplay	3	142	22	foodImage.100	FOODEEG_Images\0908.jpg	NY	Left	No	0.653510500007542	0	536827	252
1050.55078125	0.653510500007542	taste	choicePhaseStart	3	142	22	foodImage.100	FOODEEG_Images\0908.jpg	NY	Left	No	0.653510500007542	0	537883	253
1051.19921875	0	taste	response	3	142	22	foodImage.100	FOODEEG_Images\0908.jpg	NY	Left	No	0.653510500007542	0	538215	234
1052.2421875	1	taste	trialStart	3	143	23	foodImage.56	FOODEEG_Images\0586.jpg	YN	Right	No	0.66770789999282	0	538749	251
1053.283203125	2	taste	foodImageDisplay	3	143	23	foodImage.56	FOODEEG_Images\0586.jpg	YN	Right	No	0.66770789999282	0	539282	252
1055.34765625	0.66770789999282	taste	choicePhaseStart	3	143	23	foodImage.56	FOODEEG_Images\0586.jpg	YN	Right	No	0.66770789999282	0	540339	253
1056.005859375	0	taste	response	3	143	23	foodImage.56	FOODEEG_Images\0586.jpg	YN	Right	No	0.66770789999282	0	540676	235
1057.046875	1	health	trialStart	3	144	24	foodImage.40	FOODEEG_Images\0373.jpg	YN	Left	Yes	0.735054099990521	0	541209	251
1058.087890625	2	health	foodImageDisplay	3	144	24	foodImage.40	FOODEEG_Images\0373.jpg	YN	Left	Yes	0.735054099990521	0	541742	252
1060.150390625	0.735054099990521	health	choicePhaseStart	3	144	24	foodImage.40	FOODEEG_Images\0373.jpg	YN	Left	Yes	0.735054099990521	0	542798	253
1060.876953125	0	health	response	3	144	24	foodImage.40	FOODEEG_Images\0373.jpg	YN	Left	Yes	0.735054099990521	0	543170	234
1061.91796875	1	health	trialStart	3	145	25	foodImage.61	FOODEEG_Images\0640.jpg	NY	Right	Yes	0.738769399991725	0	543703	251
1062.9609375	2	health	foodImageDisplay	3	145	25	foodImage.61	FOODEEG_Images\0640.jpg	NY	Right	Yes	0.738769399991725	0	544237	252
1065.02734375	0.738769399991725	health	choicePhaseStart	3	145	25	foodImage.61	FOODEEG_Images\0640.jpg	NY	Right	Yes	0.738769399991725	0	545295	253
1065.755859375	0	health	response	3	145	25	foodImage.61	FOODEEG_Images\0640.jpg	NY	Right	Yes	0.738769399991725	0	545668	235
1066.798828125	1	health	trialStart	3	146	26	foodImage.67	FOODEEG_Images\0679.jpg	NY	Left	No	1.14657489999081	0	546202	251
1067.857421875	2	health	foodImageDisplay	3	146	26	foodImage.67	FOODEEG_Images\0679.jpg	NY	Left	No	1.14657489999081	0	546744	252
1069.921875	1.14657489999081	health	choicePhaseStart	3	146	26	foodImage.67	FOODEEG_Images\0679.jpg	NY	Left	No	1.14657489999081	0	547801	253
1071.060546875	0	health	response	3	146	26	foodImage.67	FOODEEG_Images\0679.jpg	NY	Left	No	1.14657489999081	0	548384	234
1072.103515625	1	decision	trialStart	3	147	27	foodImage.49	FOODEEG_Images\0515.jpg	YN	Left	Yes	1.07645019999472	0	548918	251
1073.14453125	2	decision	foodImageDisplay	3	147	27	foodImage.49	FOODEEG_Images\0515.jpg	YN	Left	Yes	1.07645019999472	0	549451	252
1075.208984375	1.07645019999472	decision	choicePhaseStart	3	147	27	foodImage.49	FOODEEG_Images\0515.jpg	YN	Left	Yes	1.07645019999472	0	550508	253
1076.27734375	0	decision	response	3	147	27	foodImage.49	FOODEEG_Images\0515.jpg	YN	Left	Yes	1.07645019999472	0	551055	234
1077.318359375	1	decision	trialStart	3	148	28	foodImage.66	FOODEEG_Images\0676.jpg	YN	Left	Yes	0.987403900013305	0	551588	251
1078.361328125	2	decision	foodImageDisplay	3	148	28	foodImage.66	FOODEEG_Images\0676.jpg	YN	Left	Yes	0.987403900013305	0	552122	252
1080.423828125	0.987403900013305	decision	choicePhaseStart	3	148	28	foodImage.66	FOODEEG_Images\0676.jpg	YN	Left	Yes	0.987403900013305	0	553178	253
1081.404296875	0	decision	response	3	148	28	foodImage.66	FOODEEG_Images\0676.jpg	YN	Left	Yes	0.987403900013305	0	553680	234
1082.447265625	1	decision	trialStart	3	149	29	foodImage.116	FOODEEG_Images\0924.jpg	NY	Left	No	0.847719600016717	0	554214	251
1083.486328125	2	decision	foodImageDisplay	3	149	29	foodImage.116	FOODEEG_Images\0924.jpg	NY	Left	No	0.847719600016717	0	554746	252
1085.55078125	0.847719600016717	decision	choicePhaseStart	3	149	29	foodImage.116	FOODEEG_Images\0924.jpg	NY	Left	No	0.847719600016717	0	555803	253
1086.388671875	0	decision	response	3	149	29	foodImage.116	FOODEEG_Images\0924.jpg	NY	Left	No	0.847719600016717	0	556232	234
1087.431640625	1	taste	trialStart	3	150	30	foodImage.62	FOODEEG_Images\0644.jpg	YN	Right	No	1.16008450000663	0	556766	251
1088.490234375	2	taste	foodImageDisplay	3	150	30	foodImage.62	FOODEEG_Images\0644.jpg	YN	Right	No	1.16008450000663	0	557308	252
1090.556640625	1.16008450000663	taste	choicePhaseStart	3	150	30	foodImage.62	FOODEEG_Images\0644.jpg	YN	Right	No	1.16008450000663	0	558366	253
1091.70703125	0	taste	response	3	150	30	foodImage.62	FOODEEG_Images\0644.jpg	YN	Right	No	1.16008450000663	0	558955	235
1092.75	1	health	trialStart	3	151	31	foodImage.37	FOODEEG_Images\0359.jpg	YN	Left	Yes	0.888414199987892	0	559489	251
1093.79296875	2	health	foodImageDisplay	3	151	31	foodImage.37	FOODEEG_Images\0359.jpg	YN	Left	Yes	0.888414199987892	0	560023	252
1095.857421875	0.888414199987892	health	choicePhaseStart	3	151	31	foodImage.37	FOODEEG_Images\0359.jpg	YN	Left	Yes	0.888414199987892	0	561080	253
1096.740234375	0	health	response	3	151	31	foodImage.37	FOODEEG_Images\0359.jpg	YN	Left	Yes	0.888414199987892	0	561532	234
1097.78125	1	taste	trialStart	3	152	32	foodImage.34	FOODEEG_Images\0339.jpg	NY	Right	Yes	1.78884550000657	0	562065	251
1098.83984375	2	taste	foodImageDisplay	3	152	32	foodImage.34	FOODEEG_Images\0339.jpg	NY	Right	Yes	1.78884550000657	0	562607	252
1100.904296875	1.78884550000657	taste	choicePhaseStart	3	152	32	foodImage.34	FOODEEG_Images\0339.jpg	NY	Right	Yes	1.78884550000657	0	563664	253
1102.68359375	0	taste	response	3	152	32	foodImage.34	FOODEEG_Images\0339.jpg	NY	Right	Yes	1.78884550000657	0	564575	235
1103.7265625	1	health	trialStart	3	153	33	foodImage.89	FOODEEG_Images\0881.jpg	YN	Left	Yes	0.822786400007317	0	565109	251
1104.78125	2	health	foodImageDisplay	3	153	33	foodImage.89	FOODEEG_Images\0881.jpg	YN	Left	Yes	0.822786400007317	0	565649	252
1106.845703125	0.822786400007317	health	choicePhaseStart	3	153	33	foodImage.89	FOODEEG_Images\0881.jpg	YN	Left	Yes	0.822786400007317	0	566706	253
1107.658203125	0	health	response	3	153	33	foodImage.89	FOODEEG_Images\0881.jpg	YN	Left	Yes	0.822786400007317	0	567122	234
1108.705078125	1	taste	trialStart	3	154	34	foodImage.7	FOODEEG_Images\0116.jpg	NY	Right	Yes	0.800749199988786	0	567658	251
1109.748046875	2	taste	foodImageDisplay	3	154	34	foodImage.7	FOODEEG_Images\0116.jpg	NY	Right	Yes	0.800749199988786	0	568192	252
1111.8125	0.800749199988786	taste	choicePhaseStart	3	154	34	foodImage.7	FOODEEG_Images\0116.jpg	NY	Right	Yes	0.800749199988786	0	569249	253
1112.603515625	0	taste	response	3	154	34	foodImage.7	FOODEEG_Images\0116.jpg	NY	Right	Yes	0.800749199988786	0	569654	235
1113.646484375	1	taste	trialStart	3	155	35	foodImage.103	FOODEEG_Images\0911.jpg	YN	Right	No	0.695707699982449	0	570188	251
1114.68359375	2	taste	foodImageDisplay	3	155	35	foodImage.103	FOODEEG_Images\0911.jpg	YN	Right	No	0.695707699982449	0	570719	252
1116.748046875	0.695707699982449	taste	choicePhaseStart	3	155	35	foodImage.103	FOODEEG_Images\0911.jpg	YN	Right	No	0.695707699982449	0	571776	253
1117.435546875	0	taste	response	3	155	35	foodImage.103	FOODEEG_Images\0911.jpg	YN	Right	No	0.695707699982449	0	572128	235
1118.478515625	1	taste	trialStart	3	156	36	foodImage.74	FOODEEG_Images\0752.jpg	NY	Left	No	0.902574099978665	0	572662	251
1119.533203125	2	taste	foodImageDisplay	3	156	36	foodImage.74	FOODEEG_Images\0752.jpg	NY	Left	No	0.902574099978665	0	573202	252
1121.59765625	0.902574099978665	taste	choicePhaseStart	3	156	36	foodImage.74	FOODEEG_Images\0752.jpg	NY	Left	No	0.902574099978665	0	574259	253
1122.490234375	0	taste	response	3	156	36	foodImage.74	FOODEEG_Images\0752.jpg	NY	Left	No	0.902574099978665	0	574716	234
1123.533203125	1	health	trialStart	3	157	37	foodImage.29	FOODEEG_Images\0278.jpg	NY	Left	No	1.31713239999954	0	575250	251
1124.57421875	2	health	foodImageDisplay	3	157	37	foodImage.29	FOODEEG_Images\0278.jpg	NY	Left	No	1.31713239999954	0	575783	252
1126.638671875	1.31713239999954	health	choicePhaseStart	3	157	37	foodImage.29	FOODEEG_Images\0278.jpg	NY	Left	No	1.31713239999954	0	576840	253
1127.947265625	0	health	response	3	157	37	foodImage.29	FOODEEG_Images\0278.jpg	NY	Left	No	1.31713239999954	0	577510	234
1128.990234375	1	decision	trialStart	3	158	38	foodImage.68	FOODEEG_Images\0685.jpg	YN	Left	Yes	0.947515899984865	0	578044	251
1130.072265625	2	decision	foodImageDisplay	3	158	38	foodImage.68	FOODEEG_Images\0685.jpg	YN	Left	Yes	0.947515899984865	0	578598	252
1132.13671875	0.947515899984865	decision	choicePhaseStart	3	158	38	foodImage.68	FOODEEG_Images\0685.jpg	YN	Left	Yes	0.947515899984865	0	579655	253
1133.07421875	0	decision	response	3	158	38	foodImage.68	FOODEEG_Images\0685.jpg	YN	Left	Yes	0.947515899984865	0	580135	234
1134.1171875	1	decision	trialStart	3	159	39	foodImage.3	FOODEEG_Images\0046.jpg	YN	Left	Yes	0.821380299981683	0	580669	251
1135.16015625	2	decision	foodImageDisplay	3	159	39	foodImage.3	FOODEEG_Images\0046.jpg	YN	Left	Yes	0.821380299981683	0	581203	252
1137.228515625	0.821380299981683	decision	choicePhaseStart	3	159	39	foodImage.3	FOODEEG_Images\0046.jpg	YN	Left	Yes	0.821380299981683	0	582262	253
1138.041015625	0	decision	response	3	159	39	foodImage.3	FOODEEG_Images\0046.jpg	YN	Left	Yes	0.821380299981683	0	582678	234
1139.0859375	1	taste	trialStart	3	160	40	foodImage.106	FOODEEG_Images\0914.jpg	NY	Right	Yes	0.735930900002131	0	583213	251
1140.123046875	2	taste	foodImageDisplay	3	160	40	foodImage.106	FOODEEG_Images\0914.jpg	NY	Right	Yes	0.735930900002131	0	583744	252
1142.1875	0.735930900002131	taste	choicePhaseStart	3	160	40	foodImage.106	FOODEEG_Images\0914.jpg	NY	Right	Yes	0.735930900002131	0	584801	253
1142.9140625	0	taste	response	3	160	40	foodImage.106	FOODEEG_Images\0914.jpg	NY	Right	Yes	0.735930900002131	0	585173	235
1143.95703125	1	taste	trialStart	3	161	41	foodImage.37	FOODEEG_Images\0359.jpg	NY	Left	No	0.636994700005744	0	585707	251
1144.998046875	2	taste	foodImageDisplay	3	161	41	foodImage.37	FOODEEG_Images\0359.jpg	NY	Left	No	0.636994700005744	0	586240	252
1147.068359375	0.636994700005744	taste	choicePhaseStart	3	161	41	foodImage.37	FOODEEG_Images\0359.jpg	NY	Left	No	0.636994700005744	0	587300	253
1147.697265625	0	taste	response	3	161	41	foodImage.37	FOODEEG_Images\0359.jpg	NY	Left	No	0.636994700005744	0	587622	234
1148.740234375	1	decision	trialStart	3	162	42	foodImage.8	FOODEEG_Images\0136.jpg	YN	Right	No	0.956262199993944	0	588156	251
1149.783203125	2	decision	foodImageDisplay	3	162	42	foodImage.8	FOODEEG_Images\0136.jpg	YN	Right	No	0.956262199993944	0	588690	252
1151.845703125	0.956262199993944	decision	choicePhaseStart	3	162	42	foodImage.8	FOODEEG_Images\0136.jpg	YN	Right	No	0.956262199993944	0	589746	253
1152.79296875	0	decision	response	3	162	42	foodImage.8	FOODEEG_Images\0136.jpg	YN	Right	No	0.956262199993944	0	590231	235
1153.8359375	1	taste	trialStart	3	163	43	foodImage.120	FOODEEG_Images\0928.jpg	YN	Right	No	0.58334080001805	0	590765	251
1154.875	2	taste	foodImageDisplay	3	163	43	foodImage.120	FOODEEG_Images\0928.jpg	YN	Right	No	0.58334080001805	0	591297	252
1156.939453125	0.58334080001805	taste	choicePhaseStart	3	163	43	foodImage.120	FOODEEG_Images\0928.jpg	YN	Right	No	0.58334080001805	0	592354	253
1157.513671875	0	taste	response	3	163	43	foodImage.120	FOODEEG_Images\0928.jpg	YN	Right	No	0.58334080001805	0	592648	235
1158.5546875	1	taste	trialStart	3	164	44	foodImage.72	FOODEEG_Images\0714.jpg	NY	Left	No	0.771072800009279	0	593181	251
1159.61328125	2	taste	foodImageDisplay	3	164	44	foodImage.72	FOODEEG_Images\0714.jpg	NY	Left	No	0.771072800009279	0	593723	252
1161.6796875	0.771072800009279	taste	choicePhaseStart	3	164	44	foodImage.72	FOODEEG_Images\0714.jpg	NY	Left	No	0.771072800009279	0	594781	253
1162.44140625	0	taste	response	3	164	44	foodImage.72	FOODEEG_Images\0714.jpg	NY	Left	No	0.771072800009279	0	595171	234
1163.486328125	1	health	trialStart	3	165	45	foodImage.73	FOODEEG_Images\0717.jpg	NY	Left	No	0.824431500019273	0	595706	251
1164.544921875	2	health	foodImageDisplay	3	165	45	foodImage.73	FOODEEG_Images\0717.jpg	NY	Left	No	0.824431500019273	0	596248	252
1166.609375	0.824431500019273	health	choicePhaseStart	3	165	45	foodImage.73	FOODEEG_Images\0717.jpg	NY	Left	No	0.824431500019273	0	597305	253
1167.42578125	0	health	response	3	165	45	foodImage.73	FOODEEG_Images\0717.jpg	NY	Left	No	0.824431500019273	0	597723	234
1168.466796875	1	health	trialStart	3	166	46	foodImage.62	FOODEEG_Images\0644.jpg	NY	Right	Yes	1.00628910001251	0	598256	251
1169.525390625	2	health	foodImageDisplay	3	166	46	foodImage.62	FOODEEG_Images\0644.jpg	NY	Right	Yes	1.00628910001251	0	598798	252
1171.587890625	1.00628910001251	health	choicePhaseStart	3	166	46	foodImage.62	FOODEEG_Images\0644.jpg	NY	Right	Yes	1.00628910001251	0	599854	253
1172.583984375	0	health	response	3	166	46	foodImage.62	FOODEEG_Images\0644.jpg	NY	Right	Yes	1.00628910001251	0	600364	235
1173.626953125	1	taste	trialStart	3	167	47	foodImage.99	FOODEEG_Images\0907.jpg	YN	Right	No	1.65570890001254	0	600898	251
1174.666015625	2	taste	foodImageDisplay	3	167	47	foodImage.99	FOODEEG_Images\0907.jpg	YN	Right	No	1.65570890001254	0	601430	252
1176.73046875	1.65570890001254	taste	choicePhaseStart	3	167	47	foodImage.99	FOODEEG_Images\0907.jpg	YN	Right	No	1.65570890001254	0	602487	253
1178.376953125	0	taste	response	3	167	47	foodImage.99	FOODEEG_Images\0907.jpg	YN	Right	No	1.65570890001254	0	603330	235
1179.419921875	1	taste	trialStart	3	168	48	foodImage.118	FOODEEG_Images\0926.jpg	YN	Right	No	0.64713440000196	0	603864	251
1180.458984375	2	taste	foodImageDisplay	3	168	48	foodImage.118	FOODEEG_Images\0926.jpg	YN	Right	No	0.64713440000196	0	604396	252
1182.521484375	0.64713440000196	taste	choicePhaseStart	3	168	48	foodImage.118	FOODEEG_Images\0926.jpg	YN	Right	No	0.64713440000196	0	605452	253
1183.16015625	0	taste	response	3	168	48	foodImage.118	FOODEEG_Images\0926.jpg	YN	Right	No	0.64713440000196	0	605779	235
1184.205078125	1	decision	trialStart	3	169	49	foodImage.58	FOODEEG_Images\0605.jpg	YN	Left	Yes	0.968980999983614	0	606314	251
1185.263671875	2	decision	foodImageDisplay	3	169	49	foodImage.58	FOODEEG_Images\0605.jpg	YN	Left	Yes	0.968980999983614	0	606856	252
1187.328125	0.968980999983614	decision	choicePhaseStart	3	169	49	foodImage.58	FOODEEG_Images\0605.jpg	YN	Left	Yes	0.968980999983614	0	607913	253
1188.287109375	0	decision	response	3	169	49	foodImage.58	FOODEEG_Images\0605.jpg	YN	Left	Yes	0.968980999983614	0	608404	234
1189.33203125	1	health	trialStart	3	170	50	foodImage.109	FOODEEG_Images\0917.jpg	NY	Left	No	1.32077449999633	0	608939	251
1190.369140625	2	health	foodImageDisplay	3	170	50	foodImage.109	FOODEEG_Images\0917.jpg	NY	Left	No	1.32077449999633	0	609470	252
1192.431640625	1.32077449999633	health	choicePhaseStart	3	170	50	foodImage.109	FOODEEG_Images\0917.jpg	NY	Left	No	1.32077449999633	0	610526	253
1193.744140625	0	health	response	3	170	50	foodImage.109	FOODEEG_Images\0917.jpg	NY	Left	No	1.32077449999633	0	611198	234
1194.78515625	1	decision	trialStart	3	171	51	foodImage.87	FOODEEG_Images\0873.jpg	YN	Right	No	1.10956100001931	0	611731	251
1195.84375	2	decision	foodImageDisplay	3	171	51	foodImage.87	FOODEEG_Images\0873.jpg	YN	Right	No	1.10956100001931	0	612273	252
1197.90625	1.10956100001931	decision	choicePhaseStart	3	171	51	foodImage.87	FOODEEG_Images\0873.jpg	YN	Right	No	1.10956100001931	0	613329	253
1199.0078125	0	decision	response	3	171	51	foodImage.87	FOODEEG_Images\0873.jpg	YN	Right	No	1.10956100001931	0	613893	235
1200.05078125	1	health	trialStart	3	172	52	foodImage.28	FOODEEG_Images\0273.jpg	YN	Left	Yes	0.785935799998697	0	614427	251
1201.09375	2	health	foodImageDisplay	3	172	52	foodImage.28	FOODEEG_Images\0273.jpg	YN	Left	Yes	0.785935799998697	0	614961	252
1203.158203125	0.785935799998697	health	choicePhaseStart	3	172	52	foodImage.28	FOODEEG_Images\0273.jpg	YN	Left	Yes	0.785935799998697	0	616018	253
1203.935546875	0	health	response	3	172	52	foodImage.28	FOODEEG_Images\0273.jpg	YN	Left	Yes	0.785935799998697	0	616416	234
1204.978515625	1	health	trialStart	3	173	53	foodImage.106	FOODEEG_Images\0914.jpg	NY	Left	No	0.71398760000011	0	616950	251
1206.015625	2	health	foodImageDisplay	3	173	53	foodImage.106	FOODEEG_Images\0914.jpg	NY	Left	No	0.71398760000011	0	617481	252
1208.083984375	0.71398760000011	health	choicePhaseStart	3	173	53	foodImage.106	FOODEEG_Images\0914.jpg	NY	Left	No	0.71398760000011	0	618540	253
1208.791015625	0	health	response	3	173	53	foodImage.106	FOODEEG_Images\0914.jpg	NY	Left	No	0.71398760000011	0	618902	234
1209.833984375	1	health	trialStart	3	174	54	foodImage.111	FOODEEG_Images\0919.jpg	YN	Right	No	0.566409599996405	0	619436	251
1210.873046875	2	health	foodImageDisplay	3	174	54	foodImage.111	FOODEEG_Images\0919.jpg	YN	Right	No	0.566409599996405	0	619968	252
1212.9375	0.566409599996405	health	choicePhaseStart	3	174	54	foodImage.111	FOODEEG_Images\0919.jpg	YN	Right	No	0.566409599996405	0	621025	253
1213.494140625	0	health	response	3	174	54	foodImage.111	FOODEEG_Images\0919.jpg	YN	Right	No	0.566409599996405	0	621310	235
1214.5390625	1	taste	trialStart	3	175	55	foodImage.44	FOODEEG_Images\0459.jpg	NY	Right	Yes	0.978261099982774	0	621845	251
1215.583984375	2	taste	foodImageDisplay	3	175	55	foodImage.44	FOODEEG_Images\0459.jpg	NY	Right	Yes	0.978261099982774	0	622380	252
1217.646484375	0.978261099982774	taste	choicePhaseStart	3	175	55	foodImage.44	FOODEEG_Images\0459.jpg	NY	Right	Yes	0.978261099982774	0	623436	253
1218.615234375	0	taste	response	3	175	55	foodImage.44	FOODEEG_Images\0459.jpg	NY	Right	Yes	0.978261099982774	0	623932	235
1219.658203125	1	taste	trialStart	3	176	56	foodImage.98	FOODEEG_Images\0906.jpg	NY	Left	No	0.745629199984251	0	624466	251
1220.6953125	2	taste	foodImageDisplay	3	176	56	foodImage.98	FOODEEG_Images\0906.jpg	NY	Left	No	0.745629199984251	0	624997	252
1222.7578125	0.745629199984251	taste	choicePhaseStart	3	176	56	foodImage.98	FOODEEG_Images\0906.jpg	NY	Left	No	0.745629199984251	0	626053	253
1223.494140625	0	taste	response	3	176	56	foodImage.98	FOODEEG_Images\0906.jpg	NY	Left	No	0.745629199984251	0	626430	234
1224.54296875	1	decision	trialStart	3	177	57	foodImage.25	FOODEEG_Images\0261.jpg	NY	Right	Yes	0.987837900000159	0	626967	251
1225.603515625	2	decision	foodImageDisplay	3	177	57	foodImage.25	FOODEEG_Images\0261.jpg	NY	Right	Yes	0.987837900000159	0	627510	252
1227.66796875	0.987837900000159	decision	choicePhaseStart	3	177	57	foodImage.25	FOODEEG_Images\0261.jpg	NY	Right	Yes	0.987837900000159	0	628567	253
1228.646484375	0	decision	response	3	177	57	foodImage.25	FOODEEG_Images\0261.jpg	NY	Right	Yes	0.987837900000159	0	629068	235
1229.69140625	1	decision	trialStart	3	178	58	foodImage.103	FOODEEG_Images\0911.jpg	NY	Left	No	0.646548400021857	0	629603	251
1230.728515625	2	decision	foodImageDisplay	3	178	58	foodImage.103	FOODEEG_Images\0911.jpg	NY	Left	No	0.646548400021857	0	630134	252
1232.79296875	0.646548400021857	decision	choicePhaseStart	3	178	58	foodImage.103	FOODEEG_Images\0911.jpg	NY	Left	No	0.646548400021857	0	631191	253
1233.4296875	0	decision	response	3	178	58	foodImage.103	FOODEEG_Images\0911.jpg	NY	Left	No	0.646548400021857	0	631517	234
1234.47265625	1	health	trialStart	3	179	59	foodImage.113	FOODEEG_Images\0921.jpg	YN	Right	No	1.75318279999192	0	632051	251
1235.51171875	2	health	foodImageDisplay	3	179	59	foodImage.113	FOODEEG_Images\0921.jpg	YN	Right	No	1.75318279999192	0	632583	252
1237.57421875	1.75318279999192	health	choicePhaseStart	3	179	59	foodImage.113	FOODEEG_Images\0921.jpg	YN	Right	No	1.75318279999192	0	633639	253
1239.318359375	0	health	response	3	179	59	foodImage.113	FOODEEG_Images\0921.jpg	YN	Right	No	1.75318279999192	0	634532	235
1240.361328125	1	health	trialStart	3	180	60	foodImage.51	FOODEEG_Images\0536.jpg	YN	Right	No	0.968512599996757	0	635066	251
1241.40625	2	health	foodImageDisplay	3	180	60	foodImage.51	FOODEEG_Images\0536.jpg	YN	Right	No	0.968512599996757	0	635601	252
1243.470703125	0.968512599996757	health	choicePhaseStart	3	180	60	foodImage.51	FOODEEG_Images\0536.jpg	YN	Right	No	0.968512599996757	0	636658	253
1244.4296875	0	health	response	3	180	60	foodImage.51	FOODEEG_Images\0536.jpg	YN	Right	No	0.968512599996757	0	637149	235
1246.46875	13.67578125	n/a	blockEnd	n/a	n/a	n/a	n/a	n/a	n/a	n/a	n/a	n/a	n/a	638193	254
1260.14453125	2	n/a	blockStart	4	n/a	n/a	n/a	n/a	n/a	n/a	n/a	n/a	n/a	645195	250
1262.177734375	1	decision	trialStart	4	181	1	foodImage.20	FOODEEG_Images\0226.jpg	YN	Left	Yes	0.590090900019277	0	646236	251
1263.232421875	2	decision	foodImageDisplay	4	181	1	foodImage.20	FOODEEG_Images\0226.jpg	YN	Left	Yes	0.590090900019277	0	646776	252
1265.294921875	0.590090900019277	decision	choicePhaseStart	4	181	1	foodImage.20	FOODEEG_Images\0226.jpg	YN	Left	Yes	0.590090900019277	0	647832	253
1265.876953125	0	decision	response	4	181	1	foodImage.20	FOODEEG_Images\0226.jpg	YN	Left	Yes	0.590090900019277	0	648130	234
1266.92578125	1	health	trialStart	4	182	2	foodImage.25	FOODEEG_Images\0261.jpg	YN	Left	Yes	0.708518300001742	0	648667	251
1267.970703125	2	health	foodImageDisplay	4	182	2	foodImage.25	FOODEEG_Images\0261.jpg	YN	Left	Yes	0.708518300001742	0	649202	252
1270.033203125	0.708518300001742	health	choicePhaseStart	4	182	2	foodImage.25	FOODEEG_Images\0261.jpg	YN	Left	Yes	0.708518300001742	0	650258	253
1270.732421875	0	health	response	4	182	2	foodImage.25	FOODEEG_Images\0261.jpg	YN	Left	Yes	0.708518300001742	0	650616	234
1271.775390625	1	decision	trialStart	4	183	3	foodImage.2	FOODEEG_Images\0028.jpg	NY	Right	Yes	1.4667084000248	0	651150	251
1272.8203125	2	decision	foodImageDisplay	4	183	3	foodImage.2	FOODEEG_Images\0028.jpg	NY	Right	Yes	1.4667084000248	0	651685	252
1274.8828125	1.4667084000248	decision	choicePhaseStart	4	183	3	foodImage.2	FOODEEG_Images\0028.jpg	NY	Right	Yes	1.4667084000248	0	652741	253
1276.33984375	0	decision	response	4	183	3	foodImage.2	FOODEEG_Images\0028.jpg	NY	Right	Yes	1.4667084000248	0	653487	235
1277.3828125	1	decision	trialStart	4	184	4	foodImage.102	FOODEEG_Images\0910.jpg	YN	Right	No	0.830851000006078	0	654021	251
1278.423828125	2	decision	foodImageDisplay	4	184	4	foodImage.102	FOODEEG_Images\0910.jpg	YN	Right	No	0.830851000006078	0	654554	252
1280.4921875	0.830851000006078	decision	choicePhaseStart	4	184	4	foodImage.102	FOODEEG_Images\0910.jpg	YN	Right	No	0.830851000006078	0	655613	253
1281.31640625	0	decision	response	4	184	4	foodImage.102	FOODEEG_Images\0910.jpg	YN	Right	No	0.830851000006078	0	656035	235
1282.359375	1	health	trialStart	4	185	5	foodImage.114	FOODEEG_Images\0922.jpg	NY	Left	No	1.21589679998579	0	656569	251
1283.3984375	2	health	foodImageDisplay	4	185	5	foodImage.114	FOODEEG_Images\0922.jpg	NY	Left	No	1.21589679998579	0	657101	252
1285.4609375	1.21589679998579	health	choicePhaseStart	4	185	5	foodImage.114	FOODEEG_Images\0922.jpg	NY	Left	No	1.21589679998579	0	658157	253
1286.66796875	0	health	response	4	185	5	foodImage.114	FOODEEG_Images\0922.jpg	NY	Left	No	1.21589679998579	0	658775	234
1287.7109375	1	decision	trialStart	4	186	6	foodImage.80	FOODEEG_Images\0796.jpg	NY	Right	Yes	0.750091099995188	0	659309	251
1288.767578125	2	decision	foodImageDisplay	4	186	6	foodImage.80	FOODEEG_Images\0796.jpg	NY	Right	Yes	0.750091099995188	0	659850	252
1290.830078125	0.750091099995188	decision	choicePhaseStart	4	186	6	foodImage.80	FOODEEG_Images\0796.jpg	NY	Right	Yes	0.750091099995188	0	660906	253
1291.572265625	0	decision	response	4	186	6	foodImage.80	FOODEEG_Images\0796.jpg	NY	Right	Yes	0.750091099995188	0	661286	235
1292.615234375	1	taste	trialStart	4	187	7	foodImage.89	FOODEEG_Images\0881.jpg	NY	Left	No	0.775649499992142	0	661820	251
1293.685546875	2	taste	foodImageDisplay	4	187	7	foodImage.89	FOODEEG_Images\0881.jpg	NY	Left	No	0.775649499992142	0	662368	252
1295.75	0.775649499992142	taste	choicePhaseStart	4	187	7	foodImage.89	FOODEEG_Images\0881.jpg	NY	Left	No	0.775649499992142	0	663425	253
1296.515625	0	taste	response	4	187	7	foodImage.89	FOODEEG_Images\0881.jpg	NY	Left	No	0.775649499992142	0	663817	234
1297.556640625	1	health	trialStart	4	188	8	foodImage.4	FOODEEG_Images\0065.jpg	YN	Right	No	0.757696499989834	0	664350	251
1298.615234375	2	health	foodImageDisplay	4	188	8	foodImage.4	FOODEEG_Images\0065.jpg	YN	Right	No	0.757696499989834	0	664892	252
1300.6796875	0.757696499989834	health	choicePhaseStart	4	188	8	foodImage.4	FOODEEG_Images\0065.jpg	YN	Right	No	0.757696499989834	0	665949	253
1301.427734375	0	health	response	4	188	8	foodImage.4	FOODEEG_Images\0065.jpg	YN	Right	No	0.757696499989834	0	666332	235
1302.4765625	1	taste	trialStart	4	189	9	foodImage.48	FOODEEG_Images\0494.jpg	YN	Left	Yes	0.72761330002686	0	666869	251
1303.517578125	2	taste	foodImageDisplay	4	189	9	foodImage.48	FOODEEG_Images\0494.jpg	YN	Left	Yes	0.72761330002686	0	667402	252
1305.58203125	0.72761330002686	taste	choicePhaseStart	4	189	9	foodImage.48	FOODEEG_Images\0494.jpg	YN	Left	Yes	0.72761330002686	0	668459	253
1306.298828125	0	taste	response	4	189	9	foodImage.48	FOODEEG_Images\0494.jpg	YN	Left	Yes	0.72761330002686	0	668826	234
1307.345703125	1	health	trialStart	4	190	10	foodImage.95	FOODEEG_Images\0903.jpg	YN	Right	No	0.686083499982487	0	669362	251
1308.3828125	2	health	foodImageDisplay	4	190	10	foodImage.95	FOODEEG_Images\0903.jpg	YN	Right	No	0.686083499982487	0	669893	252
1310.447265625	0.686083499982487	health	choicePhaseStart	4	190	10	foodImage.95	FOODEEG_Images\0903.jpg	YN	Right	No	0.686083499982487	0	670950	253
1311.123046875	0	health	response	4	190	10	foodImage.95	FOODEEG_Images\0903.jpg	YN	Right	No	0.686083499982487	0	671296	235
1312.166015625	1	health	trialStart	4	191	11	foodImage.69	FOODEEG_Images\0693.jpg	NY	Right	Yes	1.11939200002234	0	671830	251
1313.20703125	2	health	foodImageDisplay	4	191	11	foodImage.69	FOODEEG_Images\0693.jpg	NY	Right	Yes	1.11939200002234	0	672363	252
1315.26953125	1.11939200002234	health	choicePhaseStart	4	191	11	foodImage.69	FOODEEG_Images\0693.jpg	NY	Right	Yes	1.11939200002234	0	673419	253
1316.37890625	0	health	response	4	191	11	foodImage.69	FOODEEG_Images\0693.jpg	NY	Right	Yes	1.11939200002234	0	673987	235
1317.419921875	1	decision	trialStart	4	192	12	foodImage.70	FOODEEG_Images\0705.jpg	NY	Right	Yes	0.772388999990653	0	674520	251
1318.48046875	2	decision	foodImageDisplay	4	192	12	foodImage.70	FOODEEG_Images\0705.jpg	NY	Right	Yes	0.772388999990653	0	675063	252
1320.544921875	0.772388999990653	decision	choicePhaseStart	4	192	12	foodImage.70	FOODEEG_Images\0705.jpg	NY	Right	Yes	0.772388999990653	0	676120	253
1321.306640625	0	decision	response	4	192	12	foodImage.70	FOODEEG_Images\0705.jpg	NY	Right	Yes	0.772388999990653	0	676510	235
1322.349609375	1	decision	trialStart	4	193	13	foodImage.61	FOODEEG_Images\0640.jpg	NY	Left	No	0.777792600012617	0	677044	251
1323.39453125	2	decision	foodImageDisplay	4	193	13	foodImage.61	FOODEEG_Images\0640.jpg	NY	Left	No	0.777792600012617	0	677579	252
1325.45703125	0.777792600012617	decision	choicePhaseStart	4	193	13	foodImage.61	FOODEEG_Images\0640.jpg	NY	Left	No	0.777792600012617	0	678635	253
1326.2265625	0	decision	response	4	193	13	foodImage.61	FOODEEG_Images\0640.jpg	NY	Left	No	0.777792600012617	0	679029	234
1327.26953125	1	health	trialStart	4	194	14	foodImage.96	FOODEEG_Images\0904.jpg	YN	Right	No	1.27177449999726	0	679563	251
1328.306640625	2	health	foodImageDisplay	4	194	14	foodImage.96	FOODEEG_Images\0904.jpg	YN	Right	No	1.27177449999726	0	680094	252
1330.37109375	1.27177449999726	health	choicePhaseStart	4	194	14	foodImage.96	FOODEEG_Images\0904.jpg	YN	Right	No	1.27177449999726	0	681151	253
