onset	duration	trial_type	event_type	block	trial_total	trial_in_block	food_image_code	food_image_path	button_position	resp_position	resp_choice	choice_rt	resp_too_slow	sample	trigger
222.359375	2	n/a	blockStart	1	n/a	n/a	foodImage.1	FOODEEG_Images\0004.jpg	n/a	n/a	n/a	n/a	n/a	113849	250
224.396484375	1	decision	trialStart	1	1	1	foodImage.114	FOODEEG_Images\0922.jpg	YN	Left	Yes	0.778897700000016	0	114892	251
225.44140625	2	decision	foodImageDisplay	1	1	1	foodImage.114	FOODEEG_Images\0922.jpg	YN	Left	Yes	0.778897700000016	0	115427	252
227.5078125	0.778897700000016	decision	choicePhaseStart	1	1	1	foodImage.114	FOODEEG_Images\0922.jpg	YN	Left	Yes	0.778897700000016	0	116485	253
228.279296875	0	decision	response	1	1	1	foodImage.114	FOODEEG_Images\0922.jpg	YN	Left	Yes	0.778897700000016	0	116880	234
229.369140625	1	taste	trialStart	1	2	2	foodImage.59	FOODEEG_Images\0607.jpg	NY	Right	Yes	0.8785527	0	117438	251
230.421875	2	taste	foodImageDisplay	1	2	2	foodImage.59	FOODEEG_Images\0607.jpg	NY	Right	Yes	0.8785527	0	117977	252
232.4921875	0.8785527	taste	choicePhaseStart	1	2	2	foodImage.59	FOODEEG_Images\0607.jpg	NY	Right	Yes	0.8785527	0	119037	253
233.365234375	0	taste	response	1	2	2	foodImage.59	FOODEEG_Images\0607.jpg	NY	Right	Yes	0.8785527	0	119484	235
234.421875	1	health	trialStart	1	3	3	foodImage.110	FOODEEG_Images\0918.jpg	NY	Left	No	0.955131900000197	0	120025	251
235.4609375	2	health	foodImageDisplay	1	3	3	foodImage.110	FOODEEG_Images\0918.jpg	NY	Left	No	0.955131900000197	0	120557	252
237.5234375	0.955131900000197	health	choicePhaseStart	1	3	3	foodImage.110	FOODEEG_Images\0918.jpg	NY	Left	No	0.955131900000197	0	121613	253
238.46875	0	health	response	1	3	3	foodImage.110	FOODEEG_Images\0918.jpg	NY	Left	No	0.955131900000197	0	122097	234
239.509765625	1	decision	trialStart	1	4	4	foodImage.94	FOODEEG_Images\0902.jpg	YN	Right	No	0.742398500000036	0	122630	251
240.548828125	2	decision	foodImageDisplay	1	4	4	foodImage.94	FOODEEG_Images\0902.jpg	YN	Right	No	0.742398500000036	0	123162	252
242.61328125	0.742398500000036	decision	choicePhaseStart	1	4	4	foodImage.94	FOODEEG_Images\0902.jpg	YN	Right	No	0.742398500000036	0	124219	253
243.349609375	0	decision	response	1	4	4	foodImage.94	FOODEEG_Images\0902.jpg	YN	Right	No	0.742398500000036	0	124596	235
244.39453125	1	health	trialStart	1	5	5	foodImage.64	FOODEEG_Images\0647.jpg	NY	Right	Yes	0.786301999999978	0	125131	251
245.45703125	2	health	foodImageDisplay	1	5	5	foodImage.64	FOODEEG_Images\0647.jpg	NY	Right	Yes	0.786301999999978	0	125675	252
247.521484375	0.786301999999978	health	choicePhaseStart	1	5	5	foodImage.64	FOODEEG_Images\0647.jpg	NY	Right	Yes	0.786301999999978	0	126732	253
248.30078125	0	health	response	1	5	5	foodImage.64	FOODEEG_Images\0647.jpg	NY	Right	Yes	0.786301999999978	0	127131	235
249.353515625	1	decision	trialStart	1	6	6	foodImage.45	FOODEEG_Images\0478.jpg	YN	Left	Yes	0.810760299999856	0	127670	251
250.40234375	2	decision	foodImageDisplay	1	6	6	foodImage.45	FOODEEG_Images\0478.jpg	YN	Left	Yes	0.810760299999856	0	128207	252
252.466796875	0.810760299999856	decision	choicePhaseStart	1	6	6	foodImage.45	FOODEEG_Images\0478.jpg	YN	Left	Yes	0.810760299999856	0	129264	253
253.26953125	0	decision	response	1	6	6	foodImage.45	FOODEEG_Images\0478.jpg	YN	Left	Yes	0.810760299999856	0	129675	234
254.314453125	1	health	trialStart	1	7	7	foodImage.55	FOODEEG_Images\0567.jpg	NY	Right	Yes	0.956005499999719	0	130210	251
255.376953125	2	health	foodImageDisplay	1	7	7	foodImage.55	FOODEEG_Images\0567.jpg	NY	Right	Yes	0.956005499999719	0	130754	252
257.44140625	0.956005499999719	health	choicePhaseStart	1	7	7	foodImage.55	FOODEEG_Images\0567.jpg	NY	Right	Yes	0.956005499999719	0	131811	253
258.388671875	0	health	response	1	7	7	foodImage.55	FOODEEG_Images\0567.jpg	NY	Right	Yes	0.956005499999719	0	132296	235
259.439453125	1	decision	trialStart	1	8	8	foodImage.119	FOODEEG_Images\0927.jpg	NY	Left	No	0.837578499999836	0	132834	251
260.478515625	2	decision	foodImageDisplay	1	8	8	foodImage.119	FOODEEG_Images\0927.jpg	NY	Left	No	0.837578499999836	0	133366	252
262.54296875	0.837578499999836	decision	choicePhaseStart	1	8	8	foodImage.119	FOODEEG_Images\0927.jpg	NY	Left	No	0.837578499999836	0	134423	253
263.373046875	0	decision	response	1	8	8	foodImage.119	FOODEEG_Images\0927.jpg	NY	Left	No	0.837578499999836	0	134848	234
264.416015625	1	taste	trialStart	1	9	9	foodImage.20	FOODEEG_Images\0226.jpg	NY	Left	No	0.971609400000034	0	135382	251
265.458984375	2	taste	foodImageDisplay	1	9	9	foodImage.20	FOODEEG_Images\0226.jpg	NY	Left	No	0.971609400000034	0	135916	252
267.521484375	0.971609400000034	taste	choicePhaseStart	1	9	9	foodImage.20	FOODEEG_Images\0226.jpg	NY	Left	No	0.971609400000034	0	136972	253
268.486328125	0	taste	response	1	9	9	foodImage.20	FOODEEG_Images\0226.jpg	NY	Left	No	0.971609400000034	0	137466	234
269.53515625	1	health	trialStart	1	10	10	foodImage.101	FOODEEG_Images\0909.jpg	YN	Right	No	0.973019900000054	0	138003	251
270.57421875	2	health	foodImageDisplay	1	10	10	foodImage.101	FOODEEG_Images\0909.jpg	YN	Right	No	0.973019900000054	0	138535	252
272.640625	0.973019900000054	health	choicePhaseStart	1	10	10	foodImage.101	FOODEEG_Images\0909.jpg	YN	Right	No	0.973019900000054	0	139593	253
273.60546875	0	health	response	1	10	10	foodImage.101	FOODEEG_Images\0909.jpg	YN	Right	No	0.973019900000054	0	140087	235
274.6484375	1	health	trialStart	1	11	11	foodImage.42	FOODEEG_Images\0438.jpg	YN	Left	Yes	0.847795700000006	0	140621	251
275.73828125	2	health	foodImageDisplay	1	11	11	foodImage.42	FOODEEG_Images\0438.jpg	YN	Left	Yes	0.847795700000006	0	141179	252
277.802734375	0.847795700000006	health	choicePhaseStart	1	11	11	foodImage.42	FOODEEG_Images\0438.jpg	YN	Left	Yes	0.847795700000006	0	142236	253
278.64453125	0	health	response	1	11	11	foodImage.42	FOODEEG_Images\0438.jpg	YN	Left	Yes	0.847795700000006	0	142667	234
279.6875	1	decision	trialStart	1	12	12	foodImage.28	FOODEEG_Images\0273.jpg	NY	Right	Yes	1.1966754	0	143201	251
280.732421875	2	decision	foodImageDisplay	1	12	12	foodImage.28	FOODEEG_Images\0273.jpg	NY	Right	Yes	1.1966754	0	143736	252
282.796875	1.1966754	decision	choicePhaseStart	1	12	12	foodImage.28	FOODEEG_Images\0273.jpg	NY	Right	Yes	1.1966754	0	144793	253
283.98828125	0	decision	response	1	12	12	foodImage.28	FOODEEG_Images\0273.jpg	NY	Right	Yes	1.1966754	0	145403	235
285.03125	1	decision	trialStart	1	13	13	foodImage.76	FOODEEG_Images\0766.jpg	YN	Right	No	1.24037210000006	0	145937	251
286.07421875	2	decision	foodImageDisplay	1	13	13	foodImage.76	FOODEEG_Images\0766.jpg	YN	Right	No	1.24037210000006	0	146471	252
288.138671875	1.24037210000006	decision	choicePhaseStart	1	13	13	foodImage.76	FOODEEG_Images\0766.jpg	YN	Right	No	1.24037210000006	0	147528	253
289.373046875	0	decision	response	1	13	13	foodImage.76	FOODEEG_Images\0766.jpg	YN	Right	No	1.24037210000006	0	148160	235
290.416015625	1	decision	trialStart	1	14	14	foodImage.64	FOODEEG_Images\0647.jpg	NY	Left	No	1.00616439999976	0	148694	251
291.470703125	2	decision	foodImageDisplay	1	14	14	foodImage.64	FOODEEG_Images\0647.jpg	NY	Left	No	1.00616439999976	0	149234	252
293.53515625	1.00616439999976	decision	choicePhaseStart	1	14	14	foodImage.64	FOODEEG_Images\0647.jpg	NY	Left	No	1.00616439999976	0	150291	253
294.53125	0	decision	response	1	14	14	foodImage.64	FOODEEG_Images\0647.jpg	NY	Left	No	1.00616439999976	0	150801	234
295.57421875	1	health	trialStart	1	15	15	foodImage.63	FOODEEG_Images\0645.jpg	NY	Right	Yes	1.03009910000037	0	151335	251
296.623046875	2	health	foodImageDisplay	1	15	15	foodImage.63	FOODEEG_Images\0645.jpg	NY	Right	Yes	1.03009910000037	0	151872	252
298.685546875	1.03009910000037	health	choicePhaseStart	1	15	15	foodImage.63	FOODEEG_Images\0645.jpg	NY	Right	Yes	1.03009910000037	0	152928	253
299.70703125	0	health	response	1	15	15	foodImage.63	FOODEEG_Images\0645.jpg	NY	Right	Yes	1.03009910000037	0	153451	235
300.75	1	health	trialStart	1	16	16	foodImage.51	FOODEEG_Images\0536.jpg	NY	Right	Yes	0.839653800000178	0	153985	251
301.796875	2	health	foodImageDisplay	1	16	16	foodImage.51	FOODEEG_Images\0536.jpg	NY	Right	Yes	0.839653800000178	0	154521	252
303.861328125	0.839653800000178	health	choicePhaseStart	1	16	16	foodImage.51	FOODEEG_Images\0536.jpg	NY	Right	Yes	0.839653800000178	0	155578	253
304.69140625	0	health	response	1	16	16	foodImage.51	FOODEEG_Images\0536.jpg	NY	Right	Yes	0.839653800000178	0	156003	235
305.734375	1	health	trialStart	1	17	17	foodImage.36	FOODEEG_Images\0352.jpg	YN	Left	Yes	0.915648400000009	0	156537	251
306.796875	2	health	foodImageDisplay	1	17	17	foodImage.36	FOODEEG_Images\0352.jpg	YN	Left	Yes	0.915648400000009	0	157081	252
308.865234375	0.915648400000009	health	choicePhaseStart	1	17	17	foodImage.36	FOODEEG_Images\0352.jpg	YN	Left	Yes	0.915648400000009	0	158140	253
309.771484375	0	health	response	1	17	17	foodImage.36	FOODEEG_Images\0352.jpg	YN	Left	Yes	0.915648400000009	0	158604	234
310.814453125	1	decision	trialStart	1	18	18	foodImage.67	FOODEEG_Images\0679.jpg	NY	Left	No	0.967361800000162	0	159138	251
311.87890625	2	decision	foodImageDisplay	1	18	18	foodImage.67	FOODEEG_Images\0679.jpg	NY	Left	No	0.967361800000162	0	159683	252
313.94140625	0.967361800000162	decision	choicePhaseStart	1	18	18	foodImage.67	FOODEEG_Images\0679.jpg	NY	Left	No	0.967361800000162	0	160739	253
314.8984375	0	decision	response	1	18	18	foodImage.67	FOODEEG_Images\0679.jpg	NY	Left	No	0.967361800000162	0	161229	234
315.943359375	1	taste	trialStart	1	19	19	foodImage.43	FOODEEG_Images\0445.jpg	YN	Left	Yes	1.13546680000036	0	161764	251
317.001953125	2	taste	foodImageDisplay	1	19	19	foodImage.43	FOODEEG_Images\0445.jpg	YN	Left	Yes	1.13546680000036	0	162306	252
319.06640625	1.13546680000036	taste	choicePhaseStart	1	19	19	foodImage.43	FOODEEG_Images\0445.jpg	YN	Left	Yes	1.13546680000036	0	163363	253
320.1953125	0	taste	response	1	19	19	foodImage.43	FOODEEG_Images\0445.jpg	YN	Left	Yes	1.13546680000036	0	163941	234
321.236328125	1	taste	trialStart	1	20	20	foodImage.71	FOODEEG_Images\0713.jpg	NY	Right	Yes	0.694621099999949	0	164474	251
322.279296875	2	taste	foodImageDisplay	1	20	20	foodImage.71	FOODEEG_Images\0713.jpg	NY	Right	Yes	0.694621099999949	0	165008	252
324.341796875	0.694621099999949	taste	choicePhaseStart	1	20	20	foodImage.71	FOODEEG_Images\0713.jpg	NY	Right	Yes	0.694621099999949	0	166064	253
325.02734375	0	taste	response	1	20	20	foodImage.71	FOODEEG_Images\0713.jpg	NY	Right	Yes	0.694621099999949	0	166415	235
326.0703125	1	health	trialStart	1	21	21	foodImage.18	FOODEEG_Images\0202.jpg	NY	Right	Yes	0.603025600000365	0	166949	251
327.13671875	2	health	foodImageDisplay	1	21	21	foodImage.18	FOODEEG_Images\0202.jpg	NY	Right	Yes	0.603025600000365	0	167495	252
329.201171875	0.603025600000365	health	choicePhaseStart	1	21	21	foodImage.18	FOODEEG_Images\0202.jpg	NY	Right	Yes	0.603025600000365	0	168552	253
329.794921875	0	health	response	1	21	21	foodImage.18	FOODEEG_Images\0202.jpg	NY	Right	Yes	0.603025600000365	0	168856	235
330.837890625	1	taste	trialStart	1	22	22	foodImage.44	FOODEEG_Images\0459.jpg	NY	Right	Yes	0.741769000000204	0	169390	251
331.884765625	2	taste	foodImageDisplay	1	22	22	foodImage.44	FOODEEG_Images\0459.jpg	NY	Right	Yes	0.741769000000204	0	169926	252
333.94921875	0.741769000000204	taste	choicePhaseStart	1	22	22	foodImage.44	FOODEEG_Images\0459.jpg	NY	Right	Yes	0.741769000000204	0	170983	253
334.681640625	0	taste	response	1	22	22	foodImage.44	FOODEEG_Images\0459.jpg	NY	Right	Yes	0.741769000000204	0	171358	235
335.724609375	1	taste	trialStart	1	23	23	foodImage.52	FOODEEG_Images\0539.jpg	NY	Right	Yes	0.680567500000052	0	171892	251
336.7890625	2	taste	foodImageDisplay	1	23	23	foodImage.52	FOODEEG_Images\0539.jpg	NY	Right	Yes	0.680567500000052	0	172437	252
338.8515625	0.680567500000052	taste	choicePhaseStart	1	23	23	foodImage.52	FOODEEG_Images\0539.jpg	NY	Right	Yes	0.680567500000052	0	173493	253
339.5234375	0	taste	response	1	23	23	foodImage.52	FOODEEG_Images\0539.jpg	NY	Right	Yes	0.680567500000052	0	173837	235
340.5703125	1	taste	trialStart	1	24	24	foodImage.49	FOODEEG_Images\0515.jpg	NY	Right	Yes	0.615791799999897	0	174373	251
341.61328125	2	taste	foodImageDisplay	1	24	24	foodImage.49	FOODEEG_Images\0515.jpg	NY	Right	Yes	0.615791799999897	0	174907	252
343.677734375	0.615791799999897	taste	choicePhaseStart	1	24	24	foodImage.49	FOODEEG_Images\0515.jpg	NY	Right	Yes	0.615791799999897	0	175964	253
344.283203125	0	taste	response	1	24	24	foodImage.49	FOODEEG_Images\0515.jpg	NY	Right	Yes	0.615791799999897	0	176274	235
345.326171875	1	decision	trialStart	1	25	25	foodImage.33	FOODEEG_Images\0329.jpg	NY	Right	Yes	0.50721700000031	0	176808	251
346.3671875	2	decision	foodImageDisplay	1	25	25	foodImage.33	FOODEEG_Images\0329.jpg	NY	Right	Yes	0.50721700000031	0	177341	252
348.431640625	0.50721700000031	decision	choicePhaseStart	1	25	25	foodImage.33	FOODEEG_Images\0329.jpg	NY	Right	Yes	0.50721700000031	0	178398	253
348.9296875	0	decision	response	1	25	25	foodImage.33	FOODEEG_Images\0329.jpg	NY	Right	Yes	0.50721700000031	0	178653	235
349.97265625	1	taste	trialStart	1	26	26	foodImage.36	FOODEEG_Images\0352.jpg	NY	Right	Yes	0.659829599999739	0	179187	251
351.041015625	2	taste	foodImageDisplay	1	26	26	foodImage.36	FOODEEG_Images\0352.jpg	NY	Right	Yes	0.659829599999739	0	179734	252
353.103515625	0.659829599999739	taste	choicePhaseStart	1	26	26	foodImage.36	FOODEEG_Images\0352.jpg	NY	Right	Yes	0.659829599999739	0	180790	253
353.75390625	0	taste	response	1	26	26	foodImage.36	FOODEEG_Images\0352.jpg	NY	Right	Yes	0.659829599999739	0	181123	235
354.796875	1	health	trialStart	1	27	27	foodImage.35	FOODEEG_Images\0350.jpg	YN	Left	Yes	0.994881200000236	0	181657	251
355.8359375	2	health	foodImageDisplay	1	27	27	foodImage.35	FOODEEG_Images\0350.jpg	YN	Left	Yes	0.994881200000236	0	182189	252
357.904296875	0.994881200000236	health	choicePhaseStart	1	27	27	foodImage.35	FOODEEG_Images\0350.jpg	YN	Left	Yes	0.994881200000236	0	183248	253
358.890625	0	health	response	1	27	27	foodImage.35	FOODEEG_Images\0350.jpg	YN	Left	Yes	0.994881200000236	0	183753	234
359.931640625	1	health	trialStart	1	28	28	foodImage.39	FOODEEG_Images\0367.jpg	NY	Left	No	0.806023099999948	0	184286	251
360.97265625	2	health	foodImageDisplay	1	28	28	foodImage.39	FOODEEG_Images\0367.jpg	NY	Left	No	0.806023099999948	0	184819	252
363.037109375	0.806023099999948	health	choicePhaseStart	1	28	28	foodImage.39	FOODEEG_Images\0367.jpg	NY	Left	No	0.806023099999948	0	185876	253
363.833984375	0	health	response	1	28	28	foodImage.39	FOODEEG_Images\0367.jpg	NY	Left	No	0.806023099999948	0	186284	234
364.87890625	1	taste	trialStart	1	29	29	foodImage.109	FOODEEG_Images\0917.jpg	YN	Left	Yes	0.830465999999888	0	186819	251
365.91796875	2	taste	foodImageDisplay	1	29	29	foodImage.109	FOODEEG_Images\0917.jpg	YN	Left	Yes	0.830465999999888	0	187351	252
367.98046875	0.830465999999888	taste	choicePhaseStart	1	29	29	foodImage.109	FOODEEG_Images\0917.jpg	YN	Left	Yes	0.830465999999888	0	188407	253
368.80078125	0	taste	response	1	29	29	foodImage.109	FOODEEG_Images\0917.jpg	YN	Left	Yes	0.830465999999888	0	188827	234
369.841796875	1	health	trialStart	1	30	30	foodImage.1	FOODEEG_Images\0004.jpg	YN	Right	No	0.797695300000214	0	189360	251
370.884765625	2	health	foodImageDisplay	1	30	30	foodImage.1	FOODEEG_Images\0004.jpg	YN	Right	No	0.797695300000214	0	189894	252
372.94921875	0.797695300000214	health	choicePhaseStart	1	30	30	foodImage.1	FOODEEG_Images\0004.jpg	YN	Right	No	0.797695300000214	0	190951	253
373.73828125	0	health	response	1	30	30	foodImage.1	FOODEEG_Images\0004.jpg	YN	Right	No	0.797695300000214	0	191355	235
374.77734375	1	taste	trialStart	1	31	31	foodImage.55	FOODEEG_Images\0567.jpg	YN	Left	Yes	0.877184500000112	0	191887	251
375.837890625	2	taste	foodImageDisplay	1	31	31	foodImage.55	FOODEEG_Images\0567.jpg	YN	Left	Yes	0.877184500000112	0	192430	252
377.900390625	0.877184500000112	taste	choicePhaseStart	1	31	31	foodImage.55	FOODEEG_Images\0567.jpg	YN	Left	Yes	0.877184500000112	0	193486	253
378.76953125	0	taste	response	1	31	31	foodImage.55	FOODEEG_Images\0567.jpg	YN	Left	Yes	0.877184500000112	0	193931	234
379.8125	1	taste	trialStart	1	32	32	foodImage.1	FOODEEG_Images\0004.jpg	NY	Right	Yes	0.710194400000091	0	194465	251
380.853515625	2	taste	foodImageDisplay	1	32	32	foodImage.1	FOODEEG_Images\0004.jpg	NY	Right	Yes	0.710194400000091	0	194998	252
382.916015625	0.710194400000091	taste	choicePhaseStart	1	32	32	foodImage.1	FOODEEG_Images\0004.jpg	NY	Right	Yes	0.710194400000091	0	196054	253
383.6171875	0	taste	response	1	32	32	foodImage.1	FOODEEG_Images\0004.jpg	NY	Right	Yes	0.710194400000091	0	196413	235
384.66015625	1	decision	trialStart	1	33	33	foodImage.99	FOODEEG_Images\0907.jpg	YN	Left	Yes	0.66308459999982	0	196947	251
385.69921875	2	decision	foodImageDisplay	1	33	33	foodImage.99	FOODEEG_Images\0907.jpg	YN	Left	Yes	0.66308459999982	0	197479	252
387.763671875	0.66308459999982	decision	choicePhaseStart	1	33	33	foodImage.99	FOODEEG_Images\0907.jpg	YN	Left	Yes	0.66308459999982	0	198536	253
388.416015625	0	decision	response	1	33	33	foodImage.99	FOODEEG_Images\0907.jpg	YN	Left	Yes	0.66308459999982	0	198870	234
389.462890625	1	decision	trialStart	1	34	34	foodImage.74	FOODEEG_Images\0752.jpg	NY	Right	Yes	0.677800200000092	0	199406	251
390.5078125	2	decision	foodImageDisplay	1	34	34	foodImage.74	FOODEEG_Images\0752.jpg	NY	Right	Yes	0.677800200000092	0	199941	252
392.572265625	0.677800200000092	decision	choicePhaseStart	1	34	34	foodImage.74	FOODEEG_Images\0752.jpg	NY	Right	Yes	0.677800200000092	0	200998	253
393.240234375	0	decision	response	1	34	34	foodImage.74	FOODEEG_Images\0752.jpg	NY	Right	Yes	0.677800200000092	0	201340	235
394.283203125	1	health	trialStart	1	35	35	foodImage.118	FOODEEG_Images\0926.jpg	YN	Right	No	1.03142310000021	0	201874	251
395.322265625	2	health	foodImageDisplay	1	35	35	foodImage.118	FOODEEG_Images\0926.jpg	YN	Right	No	1.03142310000021	0	202406	252
397.38671875	1.03142310000021	health	choicePhaseStart	1	35	35	foodImage.118	FOODEEG_Images\0926.jpg	YN	Right	No	1.03142310000021	0	203463	253
398.408203125	0	health	response	1	35	35	foodImage.118	FOODEEG_Images\0926.jpg	YN	Right	No	1.03142310000021	0	203986	235
399.451171875	1	decision	trialStart	1	36	36	foodImage.111	FOODEEG_Images\0919.jpg	YN	Right	No	0.697562700000162	0	204520	251
400.490234375	2	decision	foodImageDisplay	1	36	36	foodImage.111	FOODEEG_Images\0919.jpg	YN	Right	No	0.697562700000162	0	205052	252
402.560546875	0.697562700000162	decision	choicePhaseStart	1	36	36	foodImage.111	FOODEEG_Images\0919.jpg	YN	Right	No	0.697562700000162	0	206112	253
403.248046875	0	decision	response	1	36	36	foodImage.111	FOODEEG_Images\0919.jpg	YN	Right	No	0.697562700000162	0	206464	235
404.291015625	1	decision	trialStart	1	37	37	foodImage.21	FOODEEG_Images\0234.jpg	NY	Right	Yes	0.79187950000005	0	206998	251
405.3515625	2	decision	foodImageDisplay	1	37	37	foodImage.21	FOODEEG_Images\0234.jpg	NY	Right	Yes	0.79187950000005	0	207541	252
407.416015625	0.79187950000005	decision	choicePhaseStart	1	37	37	foodImage.21	FOODEEG_Images\0234.jpg	NY	Right	Yes	0.79187950000005	0	208598	253
408.19921875	0	decision	response	1	37	37	foodImage.21	FOODEEG_Images\0234.jpg	NY	Right	Yes	0.79187950000005	0	208999	235
409.244140625	1	decision	trialStart	1	38	38	foodImage.26	FOODEEG_Images\0262.jpg	NY	Left	No	0.97305230000029	0	209534	251
410.28515625	2	decision	foodImageDisplay	1	38	38	foodImage.26	FOODEEG_Images\0262.jpg	NY	Left	No	0.97305230000029	0	210067	252
412.349609375	0.97305230000029	decision	choicePhaseStart	1	38	38	foodImage.26	FOODEEG_Images\0262.jpg	NY	Left	No	0.97305230000029	0	211124	253
413.3125	0	decision	response	1	38	38	foodImage.26	FOODEEG_Images\0262.jpg	NY	Left	No	0.97305230000029	0	211617	234
414.353515625	1	taste	trialStart	1	39	39	foodImage.65	FOODEEG_Images\0658.jpg	YN	Right	No	0.782278000000133	0	212150	251
415.39453125	2	taste	foodImageDisplay	1	39	39	foodImage.65	FOODEEG_Images\0658.jpg	YN	Right	No	0.782278000000133	0	212683	252
417.458984375	0.782278000000133	taste	choicePhaseStart	1	39	39	foodImage.65	FOODEEG_Images\0658.jpg	YN	Right	No	0.782278000000133	0	213740	253
418.232421875	0	taste	response	1	39	39	foodImage.65	FOODEEG_Images\0658.jpg	YN	Right	No	0.782278000000133	0	214136	235
419.2734375	1	decision	trialStart	1	40	40	foodImage.5	FOODEEG_Images\0107.jpg	NY	Right	Yes	0.639989299999797	0	214669	251
420.330078125	2	decision	foodImageDisplay	1	40	40	foodImage.5	FOODEEG_Images\0107.jpg	NY	Right	Yes	0.639989299999797	0	215210	252
422.39453125	0.639989299999797	decision	choicePhaseStart	1	40	40	foodImage.5	FOODEEG_Images\0107.jpg	NY	Right	Yes	0.639989299999797	0	216267	253
423.0234375	0	decision	response	1	40	40	foodImage.5	FOODEEG_Images\0107.jpg	NY	Right	Yes	0.639989299999797	0	216589	235
424.06640625	1	health	trialStart	1	41	41	foodImage.67	FOODEEG_Images\0679.jpg	NY	Left	No	0.922845500000221	0	217123	251
425.125	2	health	foodImageDisplay	1	41	41	foodImage.67	FOODEEG_Images\0679.jpg	NY	Left	No	0.922845500000221	0	217665	252
427.189453125	0.922845500000221	health	choicePhaseStart	1	41	41	foodImage.67	FOODEEG_Images\0679.jpg	NY	Left	No	0.922845500000221	0	218722	253
428.103515625	0	health	response	1	41	41	foodImage.67	FOODEEG_Images\0679.jpg	NY	Left	No	0.922845500000221	0	219190	234
429.14453125	1	decision	trialStart	1	42	42	foodImage.6	FOODEEG_Images\0113.jpg	YN	Left	Yes	0.794951899999887	0	219723	251
430.189453125	2	decision	foodImageDisplay	1	42	42	foodImage.6	FOODEEG_Images\0113.jpg	YN	Left	Yes	0.794951899999887	0	220258	252
432.25390625	0.794951899999887	decision	choicePhaseStart	1	42	42	foodImage.6	FOODEEG_Images\0113.jpg	YN	Left	Yes	0.794951899999887	0	221315	253
433.0390625	0	decision	response	1	42	42	foodImage.6	FOODEEG_Images\0113.jpg	YN	Left	Yes	0.794951899999887	0	221717	234
434.08203125	1	taste	trialStart	1	43	43	foodImage.95	FOODEEG_Images\0903.jpg	YN	Right	No	0.792466200000035	0	222251	251
435.119140625	2	taste	foodImageDisplay	1	43	43	foodImage.95	FOODEEG_Images\0903.jpg	YN	Right	No	0.792466200000035	0	222782	252
437.18359375	0.792466200000035	taste	choicePhaseStart	1	43	43	foodImage.95	FOODEEG_Images\0903.jpg	YN	Right	No	0.792466200000035	0	223839	253
437.966796875	0	taste	response	1	43	43	foodImage.95	FOODEEG_Images\0903.jpg	YN	Right	No	0.792466200000035	0	224240	235
439.01171875	1	health	trialStart	1	44	44	foodImage.79	FOODEEG_Images\0794.jpg	YN	Left	Yes	0.828039999999874	0	224775	251
440.0703125	2	health	foodImageDisplay	1	44	44	foodImage.79	FOODEEG_Images\0794.jpg	YN	Left	Yes	0.828039999999874	0	225317	252
442.1328125	0.828039999999874	health	choicePhaseStart	1	44	44	foodImage.79	FOODEEG_Images\0794.jpg	YN	Left	Yes	0.828039999999874	0	226373	253
442.951171875	0	health	response	1	44	44	foodImage.79	FOODEEG_Images\0794.jpg	YN	Left	Yes	0.828039999999874	0	226792	234
443.994140625	1	decision	trialStart	1	45	45	foodImage.107	FOODEEG_Images\0915.jpg	NY	Left	No	1.02202850000003	0	227326	251
445.03515625	2	decision	foodImageDisplay	1	45	45	foodImage.107	FOODEEG_Images\0915.jpg	NY	Left	No	1.02202850000003	0	227859	252
447.09765625	1.02202850000003	decision	choicePhaseStart	1	45	45	foodImage.107	FOODEEG_Images\0915.jpg	NY	Left	No	1.02202850000003	0	228915	253
448.111328125	0	decision	response	1	45	45	foodImage.107	FOODEEG_Images\0915.jpg	NY	Left	No	1.02202850000003	0	229434	234
449.15234375	1	taste	trialStart	1	46	46	foodImage.21	FOODEEG_Images\0234.jpg	YN	Left	Yes	0.748450699999921	0	229967	251
450.2109375	2	taste	foodImageDisplay	1	46	46	foodImage.21	FOODEEG_Images\0234.jpg	YN	Left	Yes	0.748450699999921	0	230509	252
452.2734375	0.748450699999921	taste	choicePhaseStart	1	46	46	foodImage.21	FOODEEG_Images\0234.jpg	YN	Left	Yes	0.748450699999921	0	231565	253
453.015625	0	taste	response	1	46	46	foodImage.21	FOODEEG_Images\0234.jpg	YN	Left	Yes	0.748450699999921	0	231945	234
454.05859375	1	decision	trialStart	1	47	47	foodImage.34	FOODEEG_Images\0339.jpg	NY	Left	No	0.835032399999818	0	232479	251
455.115234375	2	decision	foodImageDisplay	1	47	47	foodImage.34	FOODEEG_Images\0339.jpg	NY	Left	No	0.835032399999818	0	233020	252
457.177734375	0.835032399999818	decision	choicePhaseStart	1	47	47	foodImage.34	FOODEEG_Images\0339.jpg	NY	Left	No	0.835032399999818	0	234076	253
458.005859375	0	decision	response	1	47	47	foodImage.34	FOODEEG_Images\0339.jpg	NY	Left	No	0.835032399999818	0	234500	234
459.048828125	1	decision	trialStart	1	48	48	foodImage.96	FOODEEG_Images\0904.jpg	NY	Left	No	0.645664199999828	0	235034	251
460.08984375	2	decision	foodImageDisplay	1	48	48	foodImage.96	FOODEEG_Images\0904.jpg	NY	Left	No	0.645664199999828	0	235567	252
462.154296875	0.645664199999828	decision	choicePhaseStart	1	48	48	foodImage.96	FOODEEG_Images\0904.jpg	NY	Left	No	0.645664199999828	0	236624	253
462.791015625	0	decision	response	1	48	48	foodImage.96	FOODEEG_Images\0904.jpg	NY	Left	No	0.645664199999828	0	236950	234
463.83203125	1	health	trialStart	1	49	49	foodImage.103	FOODEEG_Images\0911.jpg	YN	Right	No	0.960056500000064	0	237483	251
464.87109375	2	health	foodImageDisplay	1	49	49	foodImage.103	FOODEEG_Images\0911.jpg	YN	Right	No	0.960056500000064	0	238015	252
466.935546875	0.960056500000064	health	choicePhaseStart	1	49	49	foodImage.103	FOODEEG_Images\0911.jpg	YN	Right	No	0.960056500000064	0	239072	253
467.88671875	0	health	response	1	49	49	foodImage.103	FOODEEG_Images\0911.jpg	YN	Right	No	0.960056500000064	0	239559	235
468.9296875	1	decision	trialStart	1	50	50	foodImage.29	FOODEEG_Images\0278.jpg	NY	Left	No	0.964980500000365	0	240093	251
469.970703125	2	decision	foodImageDisplay	1	50	50	foodImage.29	FOODEEG_Images\0278.jpg	NY	Left	No	0.964980500000365	0	240626	252
472.033203125	0.964980500000365	decision	choicePhaseStart	1	50	50	foodImage.29	FOODEEG_Images\0278.jpg	NY	Left	No	0.964980500000365	0	241682	253
472.990234375	0	decision	response	1	50	50	foodImage.29	FOODEEG_Images\0278.jpg	NY	Left	No	0.964980500000365	0	242172	234
474.03125	1	health	trialStart	1	51	51	foodImage.71	FOODEEG_Images\0713.jpg	YN	Right	No	0.850842400000147	0	242705	251
475.07421875	2	health	foodImageDisplay	1	51	51	foodImage.71	FOODEEG_Images\0713.jpg	YN	Right	No	0.850842400000147	0	243239	252
477.140625	0.850842400000147	health	choicePhaseStart	1	51	51	foodImage.71	FOODEEG_Images\0713.jpg	YN	Right	No	0.850842400000147	0	244297	253
477.982421875	0	health	response	1	51	51	foodImage.71	FOODEEG_Images\0713.jpg	YN	Right	No	0.850842400000147	0	244728	235
479.0234375	1	taste	trialStart	1	52	52	foodImage.93	FOODEEG_Images\0901.jpg	YN	Right	No	1.28931980000016	0	245261	251
480.0625	2	taste	foodImageDisplay	1	52	52	foodImage.93	FOODEEG_Images\0901.jpg	YN	Right	No	1.28931980000016	0	245793	252
482.125	1.28931980000016	taste	choicePhaseStart	1	52	52	foodImage.93	FOODEEG_Images\0901.jpg	YN	Right	No	1.28931980000016	0	246849	253
483.40625	0	taste	response	1	52	52	foodImage.93	FOODEEG_Images\0901.jpg	YN	Right	No	1.28931980000016	0	247505	235
484.44921875	1	taste	trialStart	1	53	53	foodImage.113	FOODEEG_Images\0921.jpg	NY	Left	No	0.78926440000032	0	248039	251
485.49609375	2	taste	foodImageDisplay	1	53	53	foodImage.113	FOODEEG_Images\0921.jpg	NY	Left	No	0.78926440000032	0	248575	252
487.5625	0.78926440000032	taste	choicePhaseStart	1	53	53	foodImage.113	FOODEEG_Images\0921.jpg	NY	Left	No	0.78926440000032	0	249633	253
488.341796875	0	taste	response	1	53	53	foodImage.113	FOODEEG_Images\0921.jpg	NY	Left	No	0.78926440000032	0	250032	234
489.38671875	1	decision	trialStart	1	54	54	foodImage.48	FOODEEG_Images\0494.jpg	NY	Right	Yes	0.659447999999884	0	250567	251
490.4296875	2	decision	foodImageDisplay	1	54	54	foodImage.48	FOODEEG_Images\0494.jpg	NY	Right	Yes	0.659447999999884	0	251101	252
492.5	0.659447999999884	decision	choicePhaseStart	1	54	54	foodImage.48	FOODEEG_Images\0494.jpg	NY	Right	Yes	0.659447999999884	0	252161	253
493.1484375	0	decision	response	1	54	54	foodImage.48	FOODEEG_Images\0494.jpg	NY	Right	Yes	0.659447999999884	0	252493	235
494.193359375	1	health	trialStart	1	55	55	foodImage.21	FOODEEG_Images\0234.jpg	YN	Left	Yes	1.57789959999991	0	253028	251
495.267578125	2	health	foodImageDisplay	1	55	55	foodImage.21	FOODEEG_Images\0234.jpg	YN	Left	Yes	1.57789959999991	0	253578	252
497.33203125	1.57789959999991	health	choicePhaseStart	1	55	55	foodImage.21	FOODEEG_Images\0234.jpg	YN	Left	Yes	1.57789959999991	0	254635	253
498.900390625	0	health	response	1	55	55	foodImage.21	FOODEEG_Images\0234.jpg	YN	Left	Yes	1.57789959999991	0	255438	234
499.943359375	1	decision	trialStart	1	56	56	foodImage.40	FOODEEG_Images\0373.jpg	NY	Right	Yes	0.708466800000224	0	255972	251
500.986328125	2	decision	foodImageDisplay	1	56	56	foodImage.40	FOODEEG_Images\0373.jpg	NY	Right	Yes	0.708466800000224	0	256506	252
503.048828125	0.708466800000224	decision	choicePhaseStart	1	56	56	foodImage.40	FOODEEG_Images\0373.jpg	NY	Right	Yes	0.708466800000224	0	257562	253
503.748046875	0	decision	response	1	56	56	foodImage.40	FOODEEG_Images\0373.jpg	NY	Right	Yes	0.708466800000224	0	257920	235
504.79296875	1	taste	trialStart	1	57	57	foodImage.5	FOODEEG_Images\0107.jpg	NY	Right	Yes	0.622670599999765	0	258455	251
505.849609375	2	taste	foodImageDisplay	1	57	57	foodImage.5	FOODEEG_Images\0107.jpg	NY	Right	Yes	0.622670599999765	0	258996	252
507.912109375	0.622670599999765	taste	choicePhaseStart	1	57	57	foodImage.5	FOODEEG_Images\0107.jpg	NY	Right	Yes	0.622670599999765	0	260052	253
508.525390625	0	taste	response	1	57	57	foodImage.5	FOODEEG_Images\0107.jpg	NY	Right	Yes	0.622670599999765	0	260366	235
509.568359375	1	taste	trialStart	1	58	58	foodImage.96	FOODEEG_Images\0904.jpg	YN	Left	Yes	0.872351400000298	0	260900	251
510.607421875	2	taste	foodImageDisplay	1	58	58	foodImage.96	FOODEEG_Images\0904.jpg	YN	Left	Yes	0.872351400000298	0	261432	252
512.669921875	0.872351400000298	taste	choicePhaseStart	1	58	58	foodImage.96	FOODEEG_Images\0904.jpg	YN	Left	Yes	0.872351400000298	0	262488	253
513.533203125	0	taste	response	1	58	58	foodImage.96	FOODEEG_Images\0904.jpg	YN	Left	Yes	0.872351400000298	0	262930	234
514.576171875	1	decision	trialStart	1	59	59	foodImage.58	FOODEEG_Images\0605.jpg	NY	Right	Yes	0.780495800000153	0	263464	251
515.634765625	2	decision	foodImageDisplay	1	59	59	foodImage.58	FOODEEG_Images\0605.jpg	NY	Right	Yes	0.780495800000153	0	264006	252
517.697265625	0.780495800000153	decision	choicePhaseStart	1	59	59	foodImage.58	FOODEEG_Images\0605.jpg	NY	Right	Yes	0.780495800000153	0	265062	253
518.46875	0	decision	response	1	59	59	foodImage.58	FOODEEG_Images\0605.jpg	NY	Right	Yes	0.780495800000153	0	265457	235
519.51171875	1	decision	trialStart	1	60	60	foodImage.12	FOODEEG_Images\0181.jpg	YN	Right	No	0.573799300000246	0	265991	251
520.552734375	2	decision	foodImageDisplay	1	60	60	foodImage.12	FOODEEG_Images\0181.jpg	YN	Right	No	0.573799300000246	0	266524	252
522.6171875	0.573799300000246	decision	choicePhaseStart	1	60	60	foodImage.12	FOODEEG_Images\0181.jpg	YN	Right	No	0.573799300000246	0	267581	253
523.1796875	0	decision	response	1	60	60	foodImage.12	FOODEEG_Images\0181.jpg	YN	Right	No	0.573799300000246	0	267869	235
525.22265625	21.447265625	n/a	blockEnd	n/a	n/a	n/a	n/a	n/a	n/a	n/a	n/a	n/a	n/a	268915	254
546.669921875	2	n/a	blockStart	2	n/a	n/a	n/a	n/a	n/a	n/a	n/a	n/a	n/a	279896	250
548.701171875	1	taste	trialStart	2	61	1	foodImage.115	FOODEEG_Images\0923.jpg	YN	Left	Yes	0.587125900000046	0	280936	251
549.740234375	2	taste	foodImageDisplay	2	61	1	foodImage.115	FOODEEG_Images\0923.jpg	YN	Left	Yes	0.587125900000046	0	281468	252
551.80859375	0.587125900000046	taste	choicePhaseStart	2	61	1	foodImage.115	FOODEEG_Images\0923.jpg	YN	Left	Yes	0.587125900000046	0	282527	253
552.388671875	0	taste	response	2	61	1	foodImage.115	FOODEEG_Images\0923.jpg	YN	Left	Yes	0.587125900000046	0	282824	234
553.4296875	1	decision	trialStart	2	62	2	foodImage.24	FOODEEG_Images\0250.jpg	NY	Left	No	0.903438700000152	0	283357	251
554.474609375	2	decision	foodImageDisplay	2	62	2	foodImage.24	FOODEEG_Images\0250.jpg	NY	Left	No	0.903438700000152	0	283892	252
556.541015625	0.903438700000152	decision	choicePhaseStart	2	62	2	foodImage.24	FOODEEG_Images\0250.jpg	NY	Left	No	0.903438700000152	0	284950	253
557.435546875	0	decision	response	2	62	2	foodImage.24	FOODEEG_Images\0250.jpg	NY	Left	No	0.903438700000152	0	285408	234
558.478515625	1	taste	trialStart	2	63	3	foodImage.14	FOODEEG_Images\0188.jpg	YN	Left	Yes	0.737544099999923	0	285942	251
559.5390625	2	taste	foodImageDisplay	2	63	3	foodImage.14	FOODEEG_Images\0188.jpg	YN	Left	Yes	0.737544099999923	0	286485	252
561.6015625	0.737544099999923	taste	choicePhaseStart	2	63	3	foodImage.14	FOODEEG_Images\0188.jpg	YN	Left	Yes	0.737544099999923	0	287541	253
562.33203125	0	taste	response	2	63	3	foodImage.14	FOODEEG_Images\0188.jpg	YN	Left	Yes	0.737544099999923	0	287915	234
563.375	1	decision	trialStart	2	64	4	foodImage.77	FOODEEG_Images\0771.jpg	YN	Left	Yes	0.785579200000029	0	288449	251
564.419921875	2	decision	foodImageDisplay	2	64	4	foodImage.77	FOODEEG_Images\0771.jpg	YN	Left	Yes	0.785579200000029	0	288984	252
566.482421875	0.785579200000029	decision	choicePhaseStart	2	64	4	foodImage.77	FOODEEG_Images\0771.jpg	YN	Left	Yes	0.785579200000029	0	290040	253
567.259765625	0	decision	response	2	64	4	foodImage.77	FOODEEG_Images\0771.jpg	YN	Left	Yes	0.785579200000029	0	290438	234
568.302734375	1	taste	trialStart	2	65	5	foodImage.3	FOODEEG_Images\0046.jpg	YN	Left	Yes	0.828270400000292	0	290972	251
569.34375	2	taste	foodImageDisplay	2	65	5	foodImage.3	FOODEEG_Images\0046.jpg	YN	Left	Yes	0.828270400000292	0	291505	252
571.408203125	0.828270400000292	taste	choicePhaseStart	2	65	5	foodImage.3	FOODEEG_Images\0046.jpg	YN	Left	Yes	0.828270400000292	0	292562	253
572.2265625	0	taste	response	2	65	5	foodImage.3	FOODEEG_Images\0046.jpg	YN	Left	Yes	0.828270400000292	0	292981	234
573.26953125	1	decision	trialStart	2	66	6	foodImage.108	FOODEEG_Images\0916.jpg	YN	Right	No	0.608281499999975	0	293515	251
574.310546875	2	decision	foodImageDisplay	2	66	6	foodImage.108	FOODEEG_Images\0916.jpg	YN	Right	No	0.608281499999975	0	294048	252
576.373046875	0.608281499999975	decision	choicePhaseStart	2	66	6	foodImage.108	FOODEEG_Images\0916.jpg	YN	Right	No	0.608281499999975	0	295104	253
576.970703125	0	decision	response	2	66	6	foodImage.108	FOODEEG_Images\0916.jpg	YN	Right	No	0.608281499999975	0	295410	235
578.01171875	1	health	trialStart	2	67	7	foodImage.112	FOODEEG_Images\0920.jpg	YN	Right	No	1.45580969999992	0	295943	251
579.052734375	2	health	foodImageDisplay	2	67	7	foodImage.112	FOODEEG_Images\0920.jpg	YN	Right	No	1.45580969999992	0	296476	252
581.115234375	1.45580969999992	health	choicePhaseStart	2	67	7	foodImage.112	FOODEEG_Images\0920.jpg	YN	Right	No	1.45580969999992	0	297532	253
582.5625	0	health	response	2	67	7	foodImage.112	FOODEEG_Images\0920.jpg	YN	Right	No	1.45580969999992	0	298273	235
583.61328125	1	taste	trialStart	2	68	8	foodImage.4	FOODEEG_Images\0065.jpg	NY	Right	Yes	0.82060249999995	0	298811	251
584.671875	2	taste	foodImageDisplay	2	68	8	foodImage.4	FOODEEG_Images\0065.jpg	NY	Right	Yes	0.82060249999995	0	299353	252
586.736328125	0.82060249999995	taste	choicePhaseStart	2	68	8	foodImage.4	FOODEEG_Images\0065.jpg	NY	Right	Yes	0.82060249999995	0	300410	253
587.546875	0	taste	response	2	68	8	foodImage.4	FOODEEG_Images\0065.jpg	NY	Right	Yes	0.82060249999995	0	300825	235
588.58984375	1	decision	trialStart	2	69	9	foodImage.75	FOODEEG_Images\0763.jpg	NY	Right	Yes	1.14480400000002	0	301359	251
589.634765625	2	decision	foodImageDisplay	2	69	9	foodImage.75	FOODEEG_Images\0763.jpg	NY	Right	Yes	1.14480400000002	0	301894	252
591.69921875	1.14480400000002	decision	choicePhaseStart	2	69	9	foodImage.75	FOODEEG_Images\0763.jpg	NY	Right	Yes	1.14480400000002	0	302951	253
592.833984375	0	decision	response	2	69	9	foodImage.75	FOODEEG_Images\0763.jpg	NY	Right	Yes	1.14480400000002	0	303532	235
593.876953125	1	decision	trialStart	2	70	10	foodImage.66	FOODEEG_Images\0676.jpg	NY	Right	Yes	0.911769400000139	0	304066	251
594.9296875	2	decision	foodImageDisplay	2	70	10	foodImage.66	FOODEEG_Images\0676.jpg	NY	Right	Yes	0.911769400000139	0	304605	252
596.9921875	0.911769400000139	decision	choicePhaseStart	2	70	10	foodImage.66	FOODEEG_Images\0676.jpg	NY	Right	Yes	0.911769400000139	0	305661	253
597.8984375	0	decision	response	2	70	10	foodImage.66	FOODEEG_Images\0676.jpg	NY	Right	Yes	0.911769400000139	0	306125	235
598.94921875	1	health	trialStart	2	71	11	foodImage.26	FOODEEG_Images\0262.jpg	YN	Left	Yes	0.785191700000269	0	306663	251
599.9921875	2	health	foodImageDisplay	2	71	11	foodImage.26	FOODEEG_Images\0262.jpg	YN	Left	Yes	0.785191700000269	0	307197	252
602.0546875	0.785191700000269	health	choicePhaseStart	2	71	11	foodImage.26	FOODEEG_Images\0262.jpg	YN	Left	Yes	0.785191700000269	0	308253	253
602.833984375	0	health	response	2	71	11	foodImage.26	FOODEEG_Images\0262.jpg	YN	Left	Yes	0.785191700000269	0	308652	234
603.876953125	1	health	trialStart	2	72	12	foodImage.5	FOODEEG_Images\0107.jpg	YN	Right	No	0.906945700000051	0	309186	251
604.93359375	2	health	foodImageDisplay	2	72	12	foodImage.5	FOODEEG_Images\0107.jpg	YN	Right	No	0.906945700000051	0	309727	252
607	0.906945700000051	health	choicePhaseStart	2	72	12	foodImage.5	FOODEEG_Images\0107.jpg	YN	Right	No	0.906945700000051	0	310785	253
607.8984375	0	health	response	2	72	12	foodImage.5	FOODEEG_Images\0107.jpg	YN	Right	No	0.906945700000051	0	311245	235
608.94140625	1	taste	trialStart	2	73	13	foodImage.90	FOODEEG_Images\0890.jpg	YN	Left	Yes	0.716275300000234	0	311779	251
610	2	taste	foodImageDisplay	2	73	13	foodImage.90	FOODEEG_Images\0890.jpg	YN	Left	Yes	0.716275300000234	0	312321	252
612.0625	0.716275300000234	taste	choicePhaseStart	2	73	13	foodImage.90	FOODEEG_Images\0890.jpg	YN	Left	Yes	0.716275300000234	0	313377	253
612.76953125	0	taste	response	2	73	13	foodImage.90	FOODEEG_Images\0890.jpg	YN	Left	Yes	0.716275300000234	0	313739	234
613.8125	1	decision	trialStart	2	74	14	foodImage.84	FOODEEG_Images\0830.jpg	YN	Left	Yes	0.601041500000065	0	314273	251
614.873046875	2	decision	foodImageDisplay	2	74	14	foodImage.84	FOODEEG_Images\0830.jpg	YN	Left	Yes	0.601041500000065	0	314816	252
616.9375	0.601041500000065	decision	choicePhaseStart	2	74	14	foodImage.84	FOODEEG_Images\0830.jpg	YN	Left	Yes	0.601041500000065	0	315873	253
617.529296875	0	decision	response	2	74	14	foodImage.84	FOODEEG_Images\0830.jpg	YN	Left	Yes	0.601041500000065	0	316176	234
618.572265625	1	decision	trialStart	2	75	15	foodImage.71	FOODEEG_Images\0713.jpg	NY	Right	Yes	0.774709399999665	0	316710	251
619.62109375	2	decision	foodImageDisplay	2	75	15	foodImage.71	FOODEEG_Images\0713.jpg	NY	Right	Yes	0.774709399999665	0	317247	252
621.68359375	0.774709399999665	decision	choicePhaseStart	2	75	15	foodImage.71	FOODEEG_Images\0713.jpg	NY	Right	Yes	0.774709399999665	0	318303	253
622.44921875	0	decision	response	2	75	15	foodImage.71	FOODEEG_Images\0713.jpg	NY	Right	Yes	0.774709399999665	0	318695	235
623.4921875	1	taste	trialStart	2	76	16	foodImage.85	FOODEEG_Images\0841.jpg	YN	Left	Yes	0.751815599999645	0	319229	251
624.55078125	2	taste	foodImageDisplay	2	76	16	foodImage.85	FOODEEG_Images\0841.jpg	YN	Left	Yes	0.751815599999645	0	319771	252
626.619140625	0.751815599999645	taste	choicePhaseStart	2	76	16	foodImage.85	FOODEEG_Images\0841.jpg	YN	Left	Yes	0.751815599999645	0	320830	253
627.361328125	0	taste	response	2	76	16	foodImage.85	FOODEEG_Images\0841.jpg	YN	Left	Yes	0.751815599999645	0	321210	234
628.404296875	1	taste	trialStart	2	77	17	foodImage.64	FOODEEG_Images\0647.jpg	NY	Right	Yes	0.734243500000048	0	321744	251
629.4609375	2	taste	foodImageDisplay	2	77	17	foodImage.64	FOODEEG_Images\0647.jpg	NY	Right	Yes	0.734243500000048	0	322285	252
631.5234375	0.734243500000048	taste	choicePhaseStart	2	77	17	foodImage.64	FOODEEG_Images\0647.jpg	NY	Right	Yes	0.734243500000048	0	323341	253
632.248046875	0	taste	response	2	77	17	foodImage.64	FOODEEG_Images\0647.jpg	NY	Right	Yes	0.734243500000048	0	323712	235
633.298828125	1	taste	trialStart	2	78	18	foodImage.35	FOODEEG_Images\0350.jpg	NY	Right	Yes	0.624693000000207	0	324250	251
634.337890625	2	taste	foodImageDisplay	2	78	18	foodImage.35	FOODEEG_Images\0350.jpg	NY	Right	Yes	0.624693000000207	0	324782	252
636.40234375	0.624693000000207	taste	choicePhaseStart	2	78	18	foodImage.35	FOODEEG_Images\0350.jpg	NY	Right	Yes	0.624693000000207	0	325839	253
637.017578125	0	taste	response	2	78	18	foodImage.35	FOODEEG_Images\0350.jpg	NY	Right	Yes	0.624693000000207	0	326154	235
638.08203125	1	health	trialStart	2	79	19	foodImage.93	FOODEEG_Images\0901.jpg	NY	Left	No	1.20087799999965	0	326699	251
639.119140625	2	health	foodImageDisplay	2	79	19	foodImage.93	FOODEEG_Images\0901.jpg	NY	Left	No	1.20087799999965	0	327230	252
641.18359375	1.20087799999965	health	choicePhaseStart	2	79	19	foodImage.93	FOODEEG_Images\0901.jpg	NY	Left	No	1.20087799999965	0	328287	253
642.376953125	0	health	response	2	79	19	foodImage.93	FOODEEG_Images\0901.jpg	NY	Left	No	1.20087799999965	0	328898	234
643.419921875	1	health	trialStart	2	80	20	foodImage.44	FOODEEG_Images\0459.jpg	YN	Left	Yes	1.13093839999965	0	329432	251
644.46484375	2	health	foodImageDisplay	2	80	20	foodImage.44	FOODEEG_Images\0459.jpg	YN	Left	Yes	1.13093839999965	0	329967	252
646.52734375	1.13093839999965	health	choicePhaseStart	2	80	20	foodImage.44	FOODEEG_Images\0459.jpg	YN	Left	Yes	1.13093839999965	0	331023	253
647.6484375	0	health	response	2	80	20	foodImage.44	FOODEEG_Images\0459.jpg	YN	Left	Yes	1.13093839999965	0	331597	234
648.69140625	1	taste	trialStart	2	81	21	foodImage.8	FOODEEG_Images\0136.jpg	YN	Left	Yes	0.875587399999858	0	332131	251
649.734375	2	taste	foodImageDisplay	2	81	21	foodImage.8	FOODEEG_Images\0136.jpg	YN	Left	Yes	0.875587399999858	0	332665	252
651.798828125	0.875587399999858	taste	choicePhaseStart	2	81	21	foodImage.8	FOODEEG_Images\0136.jpg	YN	Left	Yes	0.875587399999858	0	333722	253
652.6640625	0	taste	response	2	81	21	foodImage.8	FOODEEG_Images\0136.jpg	YN	Left	Yes	0.875587399999858	0	334165	234
653.70703125	1	health	trialStart	2	82	22	foodImage.6	FOODEEG_Images\0113.jpg	NY	Left	No	1.04527749999988	0	334699	251
654.75	2	health	foodImageDisplay	2	82	22	foodImage.6	FOODEEG_Images\0113.jpg	NY	Left	No	1.04527749999988	0	335233	252
656.8125	1.04527749999988	health	choicePhaseStart	2	82	22	foodImage.6	FOODEEG_Images\0113.jpg	NY	Left	No	1.04527749999988	0	336289	253
657.84765625	0	health	response	2	82	22	foodImage.6	FOODEEG_Images\0113.jpg	NY	Left	No	1.04527749999988	0	336819	234
658.890625	1	health	trialStart	2	83	23	foodImage.14	FOODEEG_Images\0188.jpg	NY	Left	No	1.17333989999997	0	337353	251
659.953125	2	health	foodImageDisplay	2	83	23	foodImage.14	FOODEEG_Images\0188.jpg	NY	Left	No	1.17333989999997	0	337897	252
662.017578125	1.17333989999997	health	choicePhaseStart	2	83	23	foodImage.14	FOODEEG_Images\0188.jpg	NY	Left	No	1.17333989999997	0	338954	253
663.18359375	0	health	response	2	83	23	foodImage.14	FOODEEG_Images\0188.jpg	NY	Left	No	1.17333989999997	0	339551	234
664.2265625	1	health	trialStart	2	84	24	foodImage.17	FOODEEG_Images\0199.jpg	YN	Left	Yes	0.776509899999837	0	340085	251
665.26953125	2	health	foodImageDisplay	2	84	24	foodImage.17	FOODEEG_Images\0199.jpg	YN	Left	Yes	0.776509899999837	0	340619	252
667.3359375	0.776509899999837	health	choicePhaseStart	2	84	24	foodImage.17	FOODEEG_Images\0199.jpg	YN	Left	Yes	0.776509899999837	0	341677	253
668.103515625	0	health	response	2	84	24	foodImage.17	FOODEEG_Images\0199.jpg	YN	Left	Yes	0.776509899999837	0	342070	234
669.146484375	1	taste	trialStart	2	85	25	foodImage.88	FOODEEG_Images\0878.jpg	NY	Right	Yes	0.835361499999635	0	342604	251
670.20703125	2	taste	foodImageDisplay	2	85	25	foodImage.88	FOODEEG_Images\0878.jpg	NY	Right	Yes	0.835361499999635	0	343147	252
672.271484375	0.835361499999635	taste	choicePhaseStart	2	85	25	foodImage.88	FOODEEG_Images\0878.jpg	NY	Right	Yes	0.835361499999635	0	344204	253
673.095703125	0	taste	response	2	85	25	foodImage.88	FOODEEG_Images\0878.jpg	NY	Right	Yes	0.835361499999635	0	344626	235
674.138671875	1	taste	trialStart	2	86	26	foodImage.81	FOODEEG_Images\0797.jpg	YN	Right	No	1.08313799999996	0	345160	251
675.19921875	2	taste	foodImageDisplay	2	86	26	foodImage.81	FOODEEG_Images\0797.jpg	YN	Right	No	1.08313799999996	0	345703	252
677.26171875	1.08313799999996	taste	choicePhaseStart	2	86	26	foodImage.81	FOODEEG_Images\0797.jpg	YN	Right	No	1.08313799999996	0	346759	253
678.3359375	0	taste	response	2	86	26	foodImage.81	FOODEEG_Images\0797.jpg	YN	Right	No	1.08313799999996	0	347309	235
679.376953125	1	health	trialStart	2	87	27	foodImage.92	FOODEEG_Images\0900.jpg	YN	Right	No	0.821821	0	347842	251
680.416015625	2	health	foodImageDisplay	2	87	27	foodImage.92	FOODEEG_Images\0900.jpg	YN	Right	No	0.821821	0	348374	252
682.48046875	0.821821	health	choicePhaseStart	2	87	27	foodImage.92	FOODEEG_Images\0900.jpg	YN	Right	No	0.821821	0	349431	253
683.294921875	0	health	response	2	87	27	foodImage.92	FOODEEG_Images\0900.jpg	YN	Right	No	0.821821	0	349848	235
684.3359375	1	taste	trialStart	2	88	28	foodImage.31	FOODEEG_Images\0294.jpg	YN	Left	Yes	0.702367800000047	0	350381	251
685.37890625	2	taste	foodImageDisplay	2	88	28	foodImage.31	FOODEEG_Images\0294.jpg	YN	Left	Yes	0.702367800000047	0	350915	252
687.44140625	0.702367800000047	taste	choicePhaseStart	2	88	28	foodImage.31	FOODEEG_Images\0294.jpg	YN	Left	Yes	0.702367800000047	0	351971	253
688.134765625	0	taste	response	2	88	28	foodImage.31	FOODEEG_Images\0294.jpg	YN	Left	Yes	0.702367800000047	0	352326	234
689.17578125	1	health	trialStart	2	89	29	foodImage.89	FOODEEG_Images\0881.jpg	YN	Left	Yes	0.777565500000037	0	352859	251
690.23046875	2	health	foodImageDisplay	2	89	29	foodImage.89	FOODEEG_Images\0881.jpg	YN	Left	Yes	0.777565500000037	0	353399	252
692.294921875	0.777565500000037	health	choicePhaseStart	2	89	29	foodImage.89	FOODEEG_Images\0881.jpg	YN	Left	Yes	0.777565500000037	0	354456	253
693.0625	0	health	response	2	89	29	foodImage.89	FOODEEG_Images\0881.jpg	YN	Left	Yes	0.777565500000037	0	354849	234
694.107421875	1	decision	trialStart	2	90	30	foodImage.2	FOODEEG_Images\0028.jpg	NY	Right	Yes	0.714617899999666	0	355384	251
695.150390625	2	decision	foodImageDisplay	2	90	30	foodImage.2	FOODEEG_Images\0028.jpg	NY	Right	Yes	0.714617899999666	0	355918	252
697.21484375	0.714617899999666	decision	choicePhaseStart	2	90	30	foodImage.2	FOODEEG_Images\0028.jpg	NY	Right	Yes	0.714617899999666	0	356975	253
697.919921875	0	decision	response	2	90	30	foodImage.2	FOODEEG_Images\0028.jpg	NY	Right	Yes	0.714617899999666	0	357336	235
698.96875	1	decision	trialStart	2	91	31	foodImage.113	FOODEEG_Images\0921.jpg	NY	Left	No	0.78454099999999	0	357873	251
700.005859375	2	decision	foodImageDisplay	2	91	31	foodImage.113	FOODEEG_Images\0921.jpg	NY	Left	No	0.78454099999999	0	358404	252
702.068359375	0.78454099999999	decision	choicePhaseStart	2	91	31	foodImage.113	FOODEEG_Images\0921.jpg	NY	Left	No	0.78454099999999	0	359460	253
702.84765625	0	decision	response	2	91	31	foodImage.113	FOODEEG_Images\0921.jpg	NY	Left	No	0.78454099999999	0	359859	234
703.888671875	1	health	trialStart	2	92	32	foodImage.117	FOODEEG_Images\0925.jpg	YN	Right	No	1.31026470000006	0	360392	251
704.927734375	2	health	foodImageDisplay	2	92	32	foodImage.117	FOODEEG_Images\0925.jpg	YN	Right	No	1.31026470000006	0	360924	252
706.9921875	1.31026470000006	health	choicePhaseStart	2	92	32	foodImage.117	FOODEEG_Images\0925.jpg	YN	Right	No	1.31026470000006	0	361981	253
708.294921875	0	health	response	2	92	32	foodImage.117	FOODEEG_Images\0925.jpg	YN	Right	No	1.31026470000006	0	362648	235
709.341796875	1	decision	trialStart	2	93	33	foodImage.9	FOODEEG_Images\0138.jpg	YN	Left	Yes	0.718412599999738	0	363184	251
710.400390625	2	decision	foodImageDisplay	2	93	33	foodImage.9	FOODEEG_Images\0138.jpg	YN	Left	Yes	0.718412599999738	0	363726	252
712.46484375	0.718412599999738	decision	choicePhaseStart	2	93	33	foodImage.9	FOODEEG_Images\0138.jpg	YN	Left	Yes	0.718412599999738	0	364783	253
713.173828125	0	decision	response	2	93	33	foodImage.9	FOODEEG_Images\0138.jpg	YN	Left	Yes	0.718412599999738	0	365146	234
714.216796875	1	decision	trialStart	2	94	34	foodImage.39	FOODEEG_Images\0367.jpg	NY	Right	Yes	0.95923780000021	0	365680	251
715.255859375	2	decision	foodImageDisplay	2	94	34	foodImage.39	FOODEEG_Images\0367.jpg	NY	Right	Yes	0.95923780000021	0	366212	252
717.3203125	0.95923780000021	decision	choicePhaseStart	2	94	34	foodImage.39	FOODEEG_Images\0367.jpg	NY	Right	Yes	0.95923780000021	0	367269	253
718.271484375	0	decision	response	2	94	34	foodImage.39	FOODEEG_Images\0367.jpg	NY	Right	Yes	0.95923780000021	0	367756	235
719.3125	1	decision	trialStart	2	95	35	foodImage.37	FOODEEG_Images\0359.jpg	YN	Left	Yes	0.932246299999861	0	368289	251
720.35546875	2	decision	foodImageDisplay	2	95	35	foodImage.37	FOODEEG_Images\0359.jpg	YN	Left	Yes	0.932246299999861	0	368823	252
722.419921875	0.932246299999861	decision	choicePhaseStart	2	95	35	foodImage.37	FOODEEG_Images\0359.jpg	YN	Left	Yes	0.932246299999861	0	369880	253
723.341796875	0	decision	response	2	95	35	foodImage.37	FOODEEG_Images\0359.jpg	YN	Left	Yes	0.932246299999861	0	370352	234
724.38671875	1	taste	trialStart	2	96	36	foodImage.73	FOODEEG_Images\0717.jpg	YN	Left	Yes	0.674666900000375	0	370887	251
725.4453125	2	taste	foodImageDisplay	2	96	36	foodImage.73	FOODEEG_Images\0717.jpg	YN	Left	Yes	0.674666900000375	0	371429	252
727.509765625	0.674666900000375	taste	choicePhaseStart	2	96	36	foodImage.73	FOODEEG_Images\0717.jpg	YN	Left	Yes	0.674666900000375	0	372486	253
728.173828125	0	taste	response	2	96	36	foodImage.73	FOODEEG_Images\0717.jpg	YN	Left	Yes	0.674666900000375	0	372826	234
729.216796875	1	taste	trialStart	2	97	37	foodImage.100	FOODEEG_Images\0908.jpg	YN	Right	No	0.829390299999886	0	373360	251
730.255859375	2	taste	foodImageDisplay	2	97	37	foodImage.100	FOODEEG_Images\0908.jpg	YN	Right	No	0.829390299999886	0	373892	252
732.3203125	0.829390299999886	taste	choicePhaseStart	2	97	37	foodImage.100	FOODEEG_Images\0908.jpg	YN	Right	No	0.829390299999886	0	374949	253
733.142578125	0	taste	response	2	97	37	foodImage.100	FOODEEG_Images\0908.jpg	YN	Right	No	0.829390299999886	0	375370	235
734.185546875	1	taste	trialStart	2	98	38	foodImage.117	FOODEEG_Images\0925.jpg	YN	Right	No	0.753964700000324	0	375904	251
735.22265625	2	taste	foodImageDisplay	2	98	38	foodImage.117	FOODEEG_Images\0925.jpg	YN	Right	No	0.753964700000324	0	376435	252
737.28515625	0.753964700000324	taste	choicePhaseStart	2	98	38	foodImage.117	FOODEEG_Images\0925.jpg	YN	Right	No	0.753964700000324	0	377491	253
738.029296875	0	taste	response	2	98	38	foodImage.117	FOODEEG_Images\0925.jpg	YN	Right	No	0.753964700000324	0	377872	235
739.0703125	1	decision	trialStart	2	99	39	foodImage.22	FOODEEG_Images\0236.jpg	NY	Right	Yes	0.823251599999821	0	378405	251
740.111328125	2	decision	foodImageDisplay	2	99	39	foodImage.22	FOODEEG_Images\0236.jpg	NY	Right	Yes	0.823251599999821	0	378938	252
742.17578125	0.823251599999821	decision	choicePhaseStart	2	99	39	foodImage.22	FOODEEG_Images\0236.jpg	NY	Right	Yes	0.823251599999821	0	379995	253
742.990234375	0	decision	response	2	99	39	foodImage.22	FOODEEG_Images\0236.jpg	NY	Right	Yes	0.823251599999821	0	380412	235
744.03125	1	health	trialStart	2	100	40	foodImage.74	FOODEEG_Images\0752.jpg	YN	Left	Yes	0.70845079999981	0	380945	251
745.076171875	2	health	foodImageDisplay	2	100	40	foodImage.74	FOODEEG_Images\0752.jpg	YN	Left	Yes	0.70845079999981	0	381480	252
747.138671875	0.70845079999981	health	choicePhaseStart	2	100	40	foodImage.74	FOODEEG_Images\0752.jpg	YN	Left	Yes	0.70845079999981	0	382536	253
747.837890625	0	health	response	2	100	40	foodImage.74	FOODEEG_Images\0752.jpg	YN	Left	Yes	0.70845079999981	0	382894	234
748.880859375	1	decision	trialStart	2	101	41	foodImage.8	FOODEEG_Images\0136.jpg	YN	Left	Yes	0.748215499999787	0	383428	251
749.923828125	2	decision	foodImageDisplay	2	101	41	foodImage.8	FOODEEG_Images\0136.jpg	YN	Left	Yes	0.748215499999787	0	383962	252
751.98828125	0.748215499999787	decision	choicePhaseStart	2	101	41	foodImage.8	FOODEEG_Images\0136.jpg	YN	Left	Yes	0.748215499999787	0	385019	253
752.724609375	0	decision	response	2	101	41	foodImage.8	FOODEEG_Images\0136.jpg	YN	Left	Yes	0.748215499999787	0	385396	234
753.775390625	1	taste	trialStart	2	102	42	foodImage.111	FOODEEG_Images\0919.jpg	YN	Right	No	1.12113980000004	0	385934	251
754.814453125	2	taste	foodImageDisplay	2	102	42	foodImage.111	FOODEEG_Images\0919.jpg	YN	Right	No	1.12113980000004	0	386466	252
756.876953125	1.12113980000004	taste	choicePhaseStart	2	102	42	foodImage.111	FOODEEG_Images\0919.jpg	YN	Right	No	1.12113980000004	0	387522	253
757.990234375	0	taste	response	2	102	42	foodImage.111	FOODEEG_Images\0919.jpg	YN	Right	No	1.12113980000004	0	388092	235
759.037109375	1	decision	trialStart	2	103	43	foodImage.46	FOODEEG_Images\0479.jpg	NY	Right	Yes	0.871153800000229	0	388628	251
760.09765625	2	decision	foodImageDisplay	2	103	43	foodImage.46	FOODEEG_Images\0479.jpg	NY	Right	Yes	0.871153800000229	0	389171	252
762.16015625	0.871153800000229	decision	choicePhaseStart	2	103	43	foodImage.46	FOODEEG_Images\0479.jpg	NY	Right	Yes	0.871153800000229	0	390227	253
763.021484375	0	decision	response	2	103	43	foodImage.46	FOODEEG_Images\0479.jpg	NY	Right	Yes	0.871153800000229	0	390668	235
764.0625	1	taste	trialStart	2	104	44	foodImage.119	FOODEEG_Images\0927.jpg	NY	Right	Yes	0.987474900000052	0	391201	251
765.1015625	2	taste	foodImageDisplay	2	104	44	foodImage.119	FOODEEG_Images\0927.jpg	NY	Right	Yes	0.987474900000052	0	391733	252
767.169921875	0.987474900000052	taste	choicePhaseStart	2	104	44	foodImage.119	FOODEEG_Images\0927.jpg	NY	Right	Yes	0.987474900000052	0	392792	253
768.1484375	0	taste	response	2	104	44	foodImage.119	FOODEEG_Images\0927.jpg	NY	Right	Yes	0.987474900000052	0	393293	235
769.19140625	1	decision	trialStart	2	105	45	foodImage.91	FOODEEG_Images\0896.jpg	NY	Right	Yes	0.78012149999995	0	393827	251
770.25	2	decision	foodImageDisplay	2	105	45	foodImage.91	FOODEEG_Images\0896.jpg	NY	Right	Yes	0.78012149999995	0	394369	252
772.314453125	0.78012149999995	decision	choicePhaseStart	2	105	45	foodImage.91	FOODEEG_Images\0896.jpg	NY	Right	Yes	0.78012149999995	0	395426	253
773.083984375	0	decision	response	2	105	45	foodImage.91	FOODEEG_Images\0896.jpg	NY	Right	Yes	0.78012149999995	0	395820	235
774.126953125	1	decision	trialStart	2	106	46	foodImage.30	FOODEEG_Images\0282.jpg	NY	Right	Yes	0.555802500000027	0	396354	251
775.169921875	2	decision	foodImageDisplay	2	106	46	foodImage.30	FOODEEG_Images\0282.jpg	NY	Right	Yes	0.555802500000027	0	396888	252
777.234375	0.555802500000027	decision	choicePhaseStart	2	106	46	foodImage.30	FOODEEG_Images\0282.jpg	NY	Right	Yes	0.555802500000027	0	397945	253
777.78125	0	decision	response	2	106	46	foodImage.30	FOODEEG_Images\0282.jpg	NY	Right	Yes	0.555802500000027	0	398225	235
778.822265625	1	decision	trialStart	2	107	47	foodImage.41	FOODEEG_Images\0409.jpg	YN	Right	No	0.716546200000266	0	398758	251
779.873046875	2	decision	foodImageDisplay	2	107	47	foodImage.41	FOODEEG_Images\0409.jpg	YN	Right	No	0.716546200000266	0	399296	252
781.935546875	0.716546200000266	decision	choicePhaseStart	2	107	47	foodImage.41	FOODEEG_Images\0409.jpg	YN	Right	No	0.716546200000266	0	400352	253
782.64453125	0	decision	response	2	107	47	foodImage.41	FOODEEG_Images\0409.jpg	YN	Right	No	0.716546200000266	0	400715	235
783.6875	1	decision	trialStart	2	108	48	foodImage.11	FOODEEG_Images\0180.jpg	YN	Left	Yes	0.628361099999893	0	401249	251
784.73046875	2	decision	foodImageDisplay	2	108	48	foodImage.11	FOODEEG_Images\0180.jpg	YN	Left	Yes	0.628361099999893	0	401783	252
786.79296875	0.628361099999893	decision	choicePhaseStart	2	108	48	foodImage.11	FOODEEG_Images\0180.jpg	YN	Left	Yes	0.628361099999893	0	402839	253
787.412109375	0	decision	response	2	108	48	foodImage.11	FOODEEG_Images\0180.jpg	YN	Left	Yes	0.628361099999893	0	403156	234
788.455078125	1	health	trialStart	2	109	49	foodImage.9	FOODEEG_Images\0138.jpg	NY	Left	No	1.28384349999988	0	403690	251
789.513671875	2	health	foodImageDisplay	2	109	49	foodImage.9	FOODEEG_Images\0138.jpg	NY	Left	No	1.28384349999988	0	404232	252
791.578125	1.28384349999988	health	choicePhaseStart	2	109	49	foodImage.9	FOODEEG_Images\0138.jpg	NY	Left	No	1.28384349999988	0	405289	253
792.8515625	0	health	response	2	109	49	foodImage.9	FOODEEG_Images\0138.jpg	NY	Left	No	1.28384349999988	0	405941	234
793.896484375	1	decision	trialStart	2	110	50	foodImage.19	FOODEEG_Images\0225.jpg	YN	Left	Yes	1.67390590000014	0	406476	251
794.939453125	2	decision	foodImageDisplay	2	110	50	foodImage.19	FOODEEG_Images\0225.jpg	YN	Left	Yes	1.67390590000014	0	407010	252
797.00390625	1.67390590000014	decision	choicePhaseStart	2	110	50	foodImage.19	FOODEEG_Images\0225.jpg	YN	Left	Yes	1.67390590000014	0	408067	253
798.66796875	0	decision	response	2	110	50	foodImage.19	FOODEEG_Images\0225.jpg	YN	Left	Yes	1.67390590000014	0	408919	234
799.7109375	1	health	trialStart	2	111	51	foodImage.25	FOODEEG_Images\0261.jpg	YN	Right	No	0.844983299999967	0	409453	251
800.751953125	2	health	foodImageDisplay	2	111	51	foodImage.25	FOODEEG_Images\0261.jpg	YN	Right	No	0.844983299999967	0	409986	252
802.81640625	0.844983299999967	health	choicePhaseStart	2	111	51	foodImage.25	FOODEEG_Images\0261.jpg	YN	Right	No	0.844983299999967	0	411043	253
803.65234375	0	health	response	2	111	51	foodImage.25	FOODEEG_Images\0261.jpg	YN	Right	No	0.844983299999967	0	411471	235
804.6953125	1	taste	trialStart	2	112	52	foodImage.56	FOODEEG_Images\0586.jpg	NY	Right	Yes	1.04246450000028	0	412005	251
805.73828125	2	taste	foodImageDisplay	2	112	52	foodImage.56	FOODEEG_Images\0586.jpg	NY	Right	Yes	1.04246450000028	0	412539	252
807.802734375	1.04246450000028	taste	choicePhaseStart	2	112	52	foodImage.56	FOODEEG_Images\0586.jpg	NY	Right	Yes	1.04246450000028	0	413596	253
808.8359375	0	taste	response	2	112	52	foodImage.56	FOODEEG_Images\0586.jpg	NY	Right	Yes	1.04246450000028	0	414125	235
809.87890625	1	taste	trialStart	2	113	53	foodImage.6	FOODEEG_Images\0113.jpg	NY	Right	Yes	0.765266699999756	0	414659	251
810.919921875	2	taste	foodImageDisplay	2	113	53	foodImage.6	FOODEEG_Images\0113.jpg	NY	Right	Yes	0.765266699999756	0	415192	252
812.982421875	0.765266699999756	taste	choicePhaseStart	2	113	53	foodImage.6	FOODEEG_Images\0113.jpg	NY	Right	Yes	0.765266699999756	0	416248	253
813.740234375	0	taste	response	2	113	53	foodImage.6	FOODEEG_Images\0113.jpg	NY	Right	Yes	0.765266699999756	0	416636	235
814.783203125	1	decision	trialStart	2	114	54	foodImage.53	FOODEEG_Images\0547.jpg	YN	Left	Yes	1.08869269999968	0	417170	251
815.841796875	2	decision	foodImageDisplay	2	114	54	foodImage.53	FOODEEG_Images\0547.jpg	YN	Left	Yes	1.08869269999968	0	417712	252
817.90625	1.08869269999968	decision	choicePhaseStart	2	114	54	foodImage.53	FOODEEG_Images\0547.jpg	YN	Left	Yes	1.08869269999968	0	418769	253
818.98828125	0	decision	response	2	114	54	foodImage.53	FOODEEG_Images\0547.jpg	YN	Left	Yes	1.08869269999968	0	419323	234
820.03125	1	decision	trialStart	2	115	55	foodImage.51	FOODEEG_Images\0536.jpg	YN	Left	Yes	0.649462500000027	0	419857	251
821.076171875	2	decision	foodImageDisplay	2	115	55	foodImage.51	FOODEEG_Images\0536.jpg	YN	Left	Yes	0.649462500000027	0	420392	252
823.138671875	0.649462500000027	decision	choicePhaseStart	2	115	55	foodImage.51	FOODEEG_Images\0536.jpg	YN	Left	Yes	0.649462500000027	0	421448	253
823.779296875	0	decision	response	2	115	55	foodImage.51	FOODEEG_Images\0536.jpg	YN	Left	Yes	0.649462500000027	0	421776	234
824.822265625	1	decision	trialStart	2	116	56	foodImage.38	FOODEEG_Images\0365.jpg	YN	Left	Yes	0.744087600000057	0	422310	251
825.861328125	2	decision	foodImageDisplay	2	116	56	foodImage.38	FOODEEG_Images\0365.jpg	YN	Left	Yes	0.744087600000057	0	422842	252
827.923828125	0.744087600000057	decision	choicePhaseStart	2	116	56	foodImage.38	FOODEEG_Images\0365.jpg	YN	Left	Yes	0.744087600000057	0	423898	253
828.658203125	0	decision	response	2	116	56	foodImage.38	FOODEEG_Images\0365.jpg	YN	Left	Yes	0.744087600000057	0	424274	234
829.703125	1	health	trialStart	2	117	57	foodImage.77	FOODEEG_Images\0771.jpg	NY	Right	Yes	0.827571400000124	0	424809	251
830.74609375	2	health	foodImageDisplay	2	117	57	foodImage.77	FOODEEG_Images\0771.jpg	NY	Right	Yes	0.827571400000124	0	425343	252
832.80859375	0.827571400000124	health	choicePhaseStart	2	117	57	foodImage.77	FOODEEG_Images\0771.jpg	NY	Right	Yes	0.827571400000124	0	426399	253
833.626953125	0	health	response	2	117	57	foodImage.77	FOODEEG_Images\0771.jpg	NY	Right	Yes	0.827571400000124	0	426818	235
834.669921875	1	decision	trialStart	2	118	58	foodImage.97	FOODEEG_Images\0905.jpg	YN	Left	Yes	1.00958720000017	0	427352	251
835.7109375	2	decision	foodImageDisplay	2	118	58	foodImage.97	FOODEEG_Images\0905.jpg	YN	Left	Yes	1.00958720000017	0	427885	252
837.77734375	1.00958720000017	decision	choicePhaseStart	2	118	58	foodImage.97	FOODEEG_Images\0905.jpg	YN	Left	Yes	1.00958720000017	0	428943	253
838.779296875	0	decision	response	2	118	58	foodImage.97	FOODEEG_Images\0905.jpg	YN	Left	Yes	1.00958720000017	0	429456	234
839.822265625	1	health	trialStart	2	119	59	foodImage.68	FOODEEG_Images\0685.jpg	NY	Right	Yes	0.884627500000079	0	429990	251
840.90234375	2	health	foodImageDisplay	2	119	59	foodImage.68	FOODEEG_Images\0685.jpg	NY	Right	Yes	0.884627500000079	0	430543	252
842.966796875	0.884627500000079	health	choicePhaseStart	2	119	59	foodImage.68	FOODEEG_Images\0685.jpg	NY	Right	Yes	0.884627500000079	0	431600	253
843.841796875	0	health	response	2	119	59	foodImage.68	FOODEEG_Images\0685.jpg	NY	Right	Yes	0.884627500000079	0	432048	235
844.884765625	1	health	trialStart	2	120	60	foodImage.105	FOODEEG_Images\0913.jpg	YN	Right	No	1.04073010000002	0	432582	251
845.923828125	2	health	foodImageDisplay	2	120	60	foodImage.105	FOODEEG_Images\0913.jpg	YN	Right	No	1.04073010000002	0	433114	252
847.98828125	1.04073010000002	health	choicePhaseStart	2	120	60	foodImage.105	FOODEEG_Images\0913.jpg	YN	Right	No	1.04073010000002	0	434171	253
849.017578125	0	health	response	2	120	60	foodImage.105	FOODEEG_Images\0913.jpg	YN	Right	No	1.04073010000002	0	434698	235
851.060546875	12.076171875	n/a	blockEnd	n/a	n/a	n/a	n/a	n/a	n/a	n/a	n/a	n/a	n/a	435744	254
863.13671875	2	n/a	blockStart	3	n/a	n/a	n/a	n/a	n/a	n/a	n/a	n/a	n/a	441927	250
865.169921875	1	decision	trialStart	3	121	1	foodImage.27	FOODEEG_Images\0263.jpg	YN	Left	Yes	0.7972864999997	0	442968	251
866.21484375	2	decision	foodImageDisplay	3	121	1	foodImage.27	FOODEEG_Images\0263.jpg	YN	Left	Yes	0.7972864999997	0	443503	252
868.28515625	0.7972864999997	decision	choicePhaseStart	3	121	1	foodImage.27	FOODEEG_Images\0263.jpg	YN	Left	Yes	0.7972864999997	0	444563	253
869.07421875	0	decision	response	3	121	1	foodImage.27	FOODEEG_Images\0263.jpg	YN	Left	Yes	0.7972864999997	0	444967	234
870.119140625	1	decision	trialStart	3	122	2	foodImage.56	FOODEEG_Images\0586.jpg	YN	Left	Yes	0.601878999999826	0	445502	251
871.162109375	2	decision	foodImageDisplay	3	122	2	foodImage.56	FOODEEG_Images\0586.jpg	YN	Left	Yes	0.601878999999826	0	446036	252
873.224609375	0.601878999999826	decision	choicePhaseStart	3	122	2	foodImage.56	FOODEEG_Images\0586.jpg	YN	Left	Yes	0.601878999999826	0	447092	253
873.818359375	0	decision	response	3	122	2	foodImage.56	FOODEEG_Images\0586.jpg	YN	Left	Yes	0.601878999999826	0	447396	234
874.861328125	1	health	trialStart	3	123	3	foodImage.4	FOODEEG_Images\0065.jpg	NY	Left	No	0.873856799999885	0	447930	251
875.927734375	2	health	foodImageDisplay	3	123	3	foodImage.4	FOODEEG_Images\0065.jpg	NY	Left	No	0.873856799999885	0	448476	252
877.9921875	0.873856799999885	health	choicePhaseStart	3	123	3	foodImage.4	FOODEEG_Images\0065.jpg	NY	Left	No	0.873856799999885	0	449533	253
878.857421875	0	health	response	3	123	3	foodImage.4	FOODEEG_Images\0065.jpg	NY	Left	No	0.873856799999885	0	449976	234
879.900390625	1	taste	trialStart	3	124	4	foodImage.79	FOODEEG_Images\0794.jpg	YN	Right	No	0.810219899999993	0	450510	251
880.9453125	2	taste	foodImageDisplay	3	124	4	foodImage.79	FOODEEG_Images\0794.jpg	YN	Right	No	0.810219899999993	0	451045	252
883.0078125	0.810219899999993	taste	choicePhaseStart	3	124	4	foodImage.79	FOODEEG_Images\0794.jpg	YN	Right	No	0.810219899999993	0	452101	253
883.80859375	0	taste	response	3	124	4	foodImage.79	FOODEEG_Images\0794.jpg	YN	Right	No	0.810219899999993	0	452511	235
884.853515625	1	decision	trialStart	3	125	5	foodImage.81	FOODEEG_Images\0797.jpg	NY	Left	No	0.730602399999952	0	453046	251
885.912109375	2	decision	foodImageDisplay	3	125	5	foodImage.81	FOODEEG_Images\0797.jpg	NY	Left	No	0.730602399999952	0	453588	252
887.9765625	0.730602399999952	decision	choicePhaseStart	3	125	5	foodImage.81	FOODEEG_Images\0797.jpg	NY	Left	No	0.730602399999952	0	454645	253
888.697265625	0	decision	response	3	125	5	foodImage.81	FOODEEG_Images\0797.jpg	NY	Left	No	0.730602399999952	0	455014	234
889.740234375	1	taste	trialStart	3	126	6	foodImage.80	FOODEEG_Images\0796.jpg	NY	Right	Yes	0.681351000000177	0	455548	251
890.798828125	2	taste	foodImageDisplay	3	126	6	foodImage.80	FOODEEG_Images\0796.jpg	NY	Right	Yes	0.681351000000177	0	456090	252
892.865234375	0.681351000000177	taste	choicePhaseStart	3	126	6	foodImage.80	FOODEEG_Images\0796.jpg	NY	Right	Yes	0.681351000000177	0	457148	253
893.537109375	0	taste	response	3	126	6	foodImage.80	FOODEEG_Images\0796.jpg	NY	Right	Yes	0.681351000000177	0	457492	235
894.580078125	1	taste	trialStart	3	127	7	foodImage.32	FOODEEG_Images\0319.jpg	YN	Left	Yes	0.74976979999974	0	458026	251
895.64453125	2	taste	foodImageDisplay	3	127	7	foodImage.32	FOODEEG_Images\0319.jpg	YN	Left	Yes	0.74976979999974	0	458571	252
897.708984375	0.74976979999974	taste	choicePhaseStart	3	127	7	foodImage.32	FOODEEG_Images\0319.jpg	YN	Left	Yes	0.74976979999974	0	459628	253
898.44921875	0	taste	response	3	127	7	foodImage.32	FOODEEG_Images\0319.jpg	YN	Left	Yes	0.74976979999974	0	460007	234
899.4921875	1	taste	trialStart	3	128	8	foodImage.9	FOODEEG_Images\0138.jpg	YN	Left	Yes	0.847509199999877	0	460541	251
900.546875	2	taste	foodImageDisplay	3	128	8	foodImage.9	FOODEEG_Images\0138.jpg	YN	Left	Yes	0.847509199999877	0	461081	252
902.609375	0.847509199999877	taste	choicePhaseStart	3	128	8	foodImage.9	FOODEEG_Images\0138.jpg	YN	Left	Yes	0.847509199999877	0	462137	253
903.44921875	0	taste	response	3	128	8	foodImage.9	FOODEEG_Images\0138.jpg	YN	Left	Yes	0.847509199999877	0	462567	234
904.513671875	1	decision	trialStart	3	129	9	foodImage.17	FOODEEG_Images\0199.jpg	NY	Right	Yes	0.743205499999931	0	463112	251
905.5546875	2	decision	foodImageDisplay	3	129	9	foodImage.17	FOODEEG_Images\0199.jpg	NY	Right	Yes	0.743205499999931	0	463645	252
907.619140625	0.743205499999931	decision	choicePhaseStart	3	129	9	foodImage.17	FOODEEG_Images\0199.jpg	NY	Right	Yes	0.743205499999931	0	464702	253
908.3515625	0	decision	response	3	129	9	foodImage.17	FOODEEG_Images\0199.jpg	NY	Right	Yes	0.743205499999931	0	465077	235
909.39453125	1	health	trialStart	3	130	10	foodImage.85	FOODEEG_Images\0841.jpg	YN	Left	Yes	0.703749100000095	0	465611	251
910.455078125	2	health	foodImageDisplay	3	130	10	foodImage.85	FOODEEG_Images\0841.jpg	YN	Left	Yes	0.703749100000095	0	466154	252
912.51953125	0.703749100000095	health	choicePhaseStart	3	130	10	foodImage.85	FOODEEG_Images\0841.jpg	YN	Left	Yes	0.703749100000095	0	467211	253
913.216796875	0	health	response	3	130	10	foodImage.85	FOODEEG_Images\0841.jpg	YN	Left	Yes	0.703749100000095	0	467568	234
914.26171875	1	taste	trialStart	3	131	11	foodImage.58	FOODEEG_Images\0605.jpg	NY	Right	Yes	0.901895700000296	0	468103	251
915.318359375	2	taste	foodImageDisplay	3	131	11	foodImage.58	FOODEEG_Images\0605.jpg	NY	Right	Yes	0.901895700000296	0	468644	252
917.384765625	0.901895700000296	taste	choicePhaseStart	3	131	11	foodImage.58	FOODEEG_Images\0605.jpg	NY	Right	Yes	0.901895700000296	0	469702	253
918.28125	0	taste	response	3	131	11	foodImage.58	FOODEEG_Images\0605.jpg	NY	Right	Yes	0.901895700000296	0	470161	235
919.32421875	1	health	trialStart	3	132	12	foodImage.94	FOODEEG_Images\0902.jpg	NY	Left	No	0.769667900000059	0	470695	251
920.361328125	2	health	foodImageDisplay	3	132	12	foodImage.94	FOODEEG_Images\0902.jpg	NY	Left	No	0.769667900000059	0	471226	252
922.423828125	0.769667900000059	health	choicePhaseStart	3	132	12	foodImage.94	FOODEEG_Images\0902.jpg	NY	Left	No	0.769667900000059	0	472282	253
923.18359375	0	health	response	3	132	12	foodImage.94	FOODEEG_Images\0902.jpg	NY	Left	No	0.769667900000059	0	472671	234
924.232421875	1	decision	trialStart	3	133	13	foodImage.115	FOODEEG_Images\0923.jpg	YN	Left	Yes	1.1095935000003	0	473208	251
925.2734375	2	decision	foodImageDisplay	3	133	13	foodImage.115	FOODEEG_Images\0923.jpg	YN	Left	Yes	1.1095935000003	0	473741	252
927.337890625	1.1095935000003	decision	choicePhaseStart	3	133	13	foodImage.115	FOODEEG_Images\0923.jpg	YN	Left	Yes	1.1095935000003	0	474798	253
928.439453125	0	decision	response	3	133	13	foodImage.115	FOODEEG_Images\0923.jpg	YN	Left	Yes	1.1095935000003	0	475362	234
929.484375	1	decision	trialStart	3	134	14	foodImage.116	FOODEEG_Images\0924.jpg	YN	Right	No	0.668911700000081	0	475897	251
930.525390625	2	decision	foodImageDisplay	3	134	14	foodImage.116	FOODEEG_Images\0924.jpg	YN	Right	No	0.668911700000081	0	476430	252
932.587890625	0.668911700000081	decision	choicePhaseStart	3	134	14	foodImage.116	FOODEEG_Images\0924.jpg	YN	Right	No	0.668911700000081	0	477486	253
933.248046875	0	decision	response	3	134	14	foodImage.116	FOODEEG_Images\0924.jpg	YN	Right	No	0.668911700000081	0	477824	235
934.291015625	1	taste	trialStart	3	135	15	foodImage.94	FOODEEG_Images\0902.jpg	YN	Right	No	0.780933499999719	0	478358	251
935.330078125	2	taste	foodImageDisplay	3	135	15	foodImage.94	FOODEEG_Images\0902.jpg	YN	Right	No	0.780933499999719	0	478890	252
937.39453125	0.780933499999719	taste	choicePhaseStart	3	135	15	foodImage.94	FOODEEG_Images\0902.jpg	YN	Right	No	0.780933499999719	0	479947	253
938.16796875	0	taste	response	3	135	15	foodImage.94	FOODEEG_Images\0902.jpg	YN	Right	No	0.780933499999719	0	480343	235
939.208984375	1	health	trialStart	3	136	16	foodImage.56	FOODEEG_Images\0586.jpg	YN	Right	No	0.860605599999872	0	480876	251
940.251953125	2	health	foodImageDisplay	3	136	16	foodImage.56	FOODEEG_Images\0586.jpg	YN	Right	No	0.860605599999872	0	481410	252
942.314453125	0.860605599999872	health	choicePhaseStart	3	136	16	foodImage.56	FOODEEG_Images\0586.jpg	YN	Right	No	0.860605599999872	0	482466	253
943.16796875	0	health	response	3	136	16	foodImage.56	FOODEEG_Images\0586.jpg	YN	Right	No	0.860605599999872	0	482903	235
944.2109375	1	health	trialStart	3	137	17	foodImage.43	FOODEEG_Images\0445.jpg	YN	Left	Yes	0.674593799999911	0	483437	251
945.271484375	2	health	foodImageDisplay	3	137	17	foodImage.43	FOODEEG_Images\0445.jpg	YN	Left	Yes	0.674593799999911	0	483980	252
947.333984375	0.674593799999911	health	choicePhaseStart	3	137	17	foodImage.43	FOODEEG_Images\0445.jpg	YN	Left	Yes	0.674593799999911	0	485036	253
948	0	health	response	3	137	17	foodImage.43	FOODEEG_Images\0445.jpg	YN	Left	Yes	0.674593799999911	0	485377	234
949.041015625	1	taste	trialStart	3	138	18	foodImage.98	FOODEEG_Images\0906.jpg	NY	Right	Yes	0.62195709999969	0	485910	251
950.08203125	2	taste	foodImageDisplay	3	138	18	foodImage.98	FOODEEG_Images\0906.jpg	NY	Right	Yes	0.62195709999969	0	486443	252
952.146484375	0.62195709999969	taste	choicePhaseStart	3	138	18	foodImage.98	FOODEEG_Images\0906.jpg	NY	Right	Yes	0.62195709999969	0	487500	253
952.759765625	0	taste	response	3	138	18	foodImage.98	FOODEEG_Images\0906.jpg	NY	Right	Yes	0.62195709999969	0	487814	235
953.802734375	1	health	trialStart	3	139	19	foodImage.95	FOODEEG_Images\0903.jpg	NY	Left	No	0.696163399999932	0	488348	251
954.83984375	2	health	foodImageDisplay	3	139	19	foodImage.95	FOODEEG_Images\0903.jpg	NY	Left	No	0.696163399999932	0	488879	252
956.904296875	0.696163399999932	health	choicePhaseStart	3	139	19	foodImage.95	FOODEEG_Images\0903.jpg	NY	Left	No	0.696163399999932	0	489936	253
957.591796875	0	health	response	3	139	19	foodImage.95	FOODEEG_Images\0903.jpg	NY	Left	No	0.696163399999932	0	490288	234
958.634765625	1	decision	trialStart	3	140	20	foodImage.82	FOODEEG_Images\0805.jpg	YN	Left	Yes	1.06756379999979	0	490822	251
959.69140625	2	decision	foodImageDisplay	3	140	20	foodImage.82	FOODEEG_Images\0805.jpg	YN	Left	Yes	1.06756379999979	0	491363	252
961.755859375	1.06756379999979	decision	choicePhaseStart	3	140	20	foodImage.82	FOODEEG_Images\0805.jpg	YN	Left	Yes	1.06756379999979	0	492420	253
962.814453125	0	decision	response	3	140	20	foodImage.82	FOODEEG_Images\0805.jpg	YN	Left	Yes	1.06756379999979	0	492962	234
963.857421875	1	taste	trialStart	3	141	21	foodImage.50	FOODEEG_Images\0529.jpg	NY	Right	Yes	0.966012700000192	0	493496	251
964.91796875	2	taste	foodImageDisplay	3	141	21	foodImage.50	FOODEEG_Images\0529.jpg	NY	Right	Yes	0.966012700000192	0	494039	252
966.984375	0.966012700000192	taste	choicePhaseStart	3	141	21	foodImage.50	FOODEEG_Images\0529.jpg	NY	Right	Yes	0.966012700000192	0	495097	253
967.943359375	0	taste	response	3	141	21	foodImage.50	FOODEEG_Images\0529.jpg	NY	Right	Yes	0.966012700000192	0	495588	235
968.986328125	1	decision	trialStart	3	142	22	foodImage.98	FOODEEG_Images\0906.jpg	NY	Left	No	0.896979399999964	0	496122	251
970.0234375	2	decision	foodImageDisplay	3	142	22	foodImage.98	FOODEEG_Images\0906.jpg	NY	Left	No	0.896979399999964	0	496653	252
972.0859375	0.896979399999964	decision	choicePhaseStart	3	142	22	foodImage.98	FOODEEG_Images\0906.jpg	NY	Left	No	0.896979399999964	0	497709	253
972.974609375	0	decision	response	3	142	22	foodImage.98	FOODEEG_Images\0906.jpg	NY	Left	No	0.896979399999964	0	498164	234
974.017578125	1	health	trialStart	3	143	23	foodImage.78	FOODEEG_Images\0787.jpg	NY	Right	Yes	0.947036300000036	0	498698	251
975.0625	2	health	foodImageDisplay	3	143	23	foodImage.78	FOODEEG_Images\0787.jpg	NY	Right	Yes	0.947036300000036	0	499233	252
977.1328125	0.947036300000036	health	choicePhaseStart	3	143	23	foodImage.78	FOODEEG_Images\0787.jpg	NY	Right	Yes	0.947036300000036	0	500293	253
978.0703125	0	health	response	3	143	23	foodImage.78	FOODEEG_Images\0787.jpg	NY	Right	Yes	0.947036300000036	0	500773	235
979.11328125	1	decision	trialStart	3	144	24	foodImage.95	FOODEEG_Images\0903.jpg	YN	Right	No	0.754890699999578	0	501307	251
980.154296875	2	decision	foodImageDisplay	3	144	24	foodImage.95	FOODEEG_Images\0903.jpg	YN	Right	No	0.754890699999578	0	501840	252
982.21875	0.754890699999578	decision	choicePhaseStart	3	144	24	foodImage.95	FOODEEG_Images\0903.jpg	YN	Right	No	0.754890699999578	0	502897	253
982.966796875	0	decision	response	3	144	24	foodImage.95	FOODEEG_Images\0903.jpg	YN	Right	No	0.754890699999578	0	503280	235
984.009765625	1	health	trialStart	3	145	25	foodImage.62	FOODEEG_Images\0644.jpg	YN	Left	Yes	0.771097300000292	0	503814	251
985.0703125	2	health	foodImageDisplay	3	145	25	foodImage.62	FOODEEG_Images\0644.jpg	YN	Left	Yes	0.771097300000292	0	504357	252
987.1328125	0.771097300000292	health	choicePhaseStart	3	145	25	foodImage.62	FOODEEG_Images\0644.jpg	YN	Left	Yes	0.771097300000292	0	505413	253
987.89453125	0	health	response	3	145	25	foodImage.62	FOODEEG_Images\0644.jpg	YN	Left	Yes	0.771097300000292	0	505803	234
988.94140625	1	health	trialStart	3	146	26	foodImage.11	FOODEEG_Images\0180.jpg	NY	Right	Yes	0.889618700000028	0	506339	251
989.982421875	2	health	foodImageDisplay	3	146	26	foodImage.11	FOODEEG_Images\0180.jpg	NY	Right	Yes	0.889618700000028	0	506872	252
992.044921875	0.889618700000028	health	choicePhaseStart	3	146	26	foodImage.11	FOODEEG_Images\0180.jpg	NY	Right	Yes	0.889618700000028	0	507928	253
992.92578125	0	health	response	3	146	26	foodImage.11	FOODEEG_Images\0180.jpg	NY	Right	Yes	0.889618700000028	0	508379	235
993.9921875	1	health	trialStart	3	147	27	foodImage.28	FOODEEG_Images\0273.jpg	YN	Left	Yes	0.660341899999821	0	508925	251
995.03515625	2	health	foodImageDisplay	3	147	27	foodImage.28	FOODEEG_Images\0273.jpg	YN	Left	Yes	0.660341899999821	0	509459	252
997.09765625	0.660341899999821	health	choicePhaseStart	3	147	27	foodImage.28	FOODEEG_Images\0273.jpg	YN	Left	Yes	0.660341899999821	0	510515	253
997.75	0	health	response	3	147	27	foodImage.28	FOODEEG_Images\0273.jpg	YN	Left	Yes	0.660341899999821	0	510849	234
998.79296875	1	decision	trialStart	3	148	28	foodImage.86	FOODEEG_Images\0844.jpg	NY	Right	Yes	0.953301999999894	0	511383	251
999.85546875	2	decision	foodImageDisplay	3	148	28	foodImage.86	FOODEEG_Images\0844.jpg	NY	Right	Yes	0.953301999999894	0	511927	252
1001.91796875	0.953301999999894	decision	choicePhaseStart	3	148	28	foodImage.86	FOODEEG_Images\0844.jpg	NY	Right	Yes	0.953301999999894	0	512983	253
1002.861328125	0	decision	response	3	148	28	foodImage.86	FOODEEG_Images\0844.jpg	NY	Right	Yes	0.953301999999894	0	513466	235
1003.904296875	1	health	trialStart	3	149	29	foodImage.27	FOODEEG_Images\0263.jpg	NY	Right	Yes	0.869006200000058	0	514000	251
1004.9453125	2	health	foodImageDisplay	3	149	29	foodImage.27	FOODEEG_Images\0263.jpg	NY	Right	Yes	0.869006200000058	0	514533	252
1007.009765625	0.869006200000058	health	choicePhaseStart	3	149	29	foodImage.27	FOODEEG_Images\0263.jpg	NY	Right	Yes	0.869006200000058	0	515590	253
1007.869140625	0	health	response	3	149	29	foodImage.27	FOODEEG_Images\0263.jpg	NY	Right	Yes	0.869006200000058	0	516030	235
1008.912109375	1	decision	trialStart	3	150	30	foodImage.112	FOODEEG_Images\0920.jpg	YN	Right	No	0.83760170000005	0	516564	251
1009.951171875	2	decision	foodImageDisplay	3	150	30	foodImage.112	FOODEEG_Images\0920.jpg	YN	Right	No	0.83760170000005	0	517096	252
1012.013671875	0.83760170000005	decision	choicePhaseStart	3	150	30	foodImage.112	FOODEEG_Images\0920.jpg	YN	Right	No	0.83760170000005	0	518152	253
1012.845703125	0	decision	response	3	150	30	foodImage.112	FOODEEG_Images\0920.jpg	YN	Right	No	0.83760170000005	0	518578	235
1013.89453125	1	health	trialStart	3	151	31	foodImage.47	FOODEEG_Images\0488.jpg	NY	Left	No	1.47119619999967	0	519115	251
1014.9375	2	health	foodImageDisplay	3	151	31	foodImage.47	FOODEEG_Images\0488.jpg	NY	Left	No	1.47119619999967	0	519649	252
1017	1.47119619999967	health	choicePhaseStart	3	151	31	foodImage.47	FOODEEG_Images\0488.jpg	NY	Left	No	1.47119619999967	0	520705	253
1018.4609375	0	health	response	3	151	31	foodImage.47	FOODEEG_Images\0488.jpg	NY	Left	No	1.47119619999967	0	521453	234
1019.50390625	1	health	trialStart	3	152	32	foodImage.38	FOODEEG_Images\0365.jpg	YN	Left	Yes	0.864089499999864	0	521987	251
1020.54296875	2	health	foodImageDisplay	3	152	32	foodImage.38	FOODEEG_Images\0365.jpg	YN	Left	Yes	0.864089499999864	0	522519	252
1022.60546875	0.864089499999864	health	choicePhaseStart	3	152	32	foodImage.38	FOODEEG_Images\0365.jpg	YN	Left	Yes	0.864089499999864	0	523575	253
1023.4609375	0	health	response	3	152	32	foodImage.38	FOODEEG_Images\0365.jpg	YN	Left	Yes	0.864089499999864	0	524013	234
1024.50390625	1	decision	trialStart	3	153	33	foodImage.54	FOODEEG_Images\0560.jpg	YN	Left	Yes	0.602481800000078	0	524547	251
1025.564453125	2	decision	foodImageDisplay	3	153	33	foodImage.54	FOODEEG_Images\0560.jpg	YN	Left	Yes	0.602481800000078	0	525090	252
1027.626953125	0.602481800000078	decision	choicePhaseStart	3	153	33	foodImage.54	FOODEEG_Images\0560.jpg	YN	Left	Yes	0.602481800000078	0	526146	253
1028.220703125	0	decision	response	3	153	33	foodImage.54	FOODEEG_Images\0560.jpg	YN	Left	Yes	0.602481800000078	0	526450	234
1029.263671875	1	health	trialStart	3	154	34	foodImage.45	FOODEEG_Images\0478.jpg	NY	Right	Yes	0.761613600000146	0	526984	251
1030.30859375	2	health	foodImageDisplay	3	154	34	foodImage.45	FOODEEG_Images\0478.jpg	NY	Right	Yes	0.761613600000146	0	527519	252
1032.37109375	0.761613600000146	health	choicePhaseStart	3	154	34	foodImage.45	FOODEEG_Images\0478.jpg	NY	Right	Yes	0.761613600000146	0	528575	253
1033.125	0	health	response	3	154	34	foodImage.45	FOODEEG_Images\0478.jpg	NY	Right	Yes	0.761613600000146	0	528961	235
1034.169921875	1	health	trialStart	3	155	35	foodImage.119	FOODEEG_Images\0927.jpg	YN	Right	No	0.645256200000404	0	529496	251
1035.208984375	2	health	foodImageDisplay	3	155	35	foodImage.119	FOODEEG_Images\0927.jpg	YN	Right	No	0.645256200000404	0	530028	252
1037.271484375	0.645256200000404	health	choicePhaseStart	3	155	35	foodImage.119	FOODEEG_Images\0927.jpg	YN	Right	No	0.645256200000404	0	531084	253
1037.908203125	0	health	response	3	155	35	foodImage.119	FOODEEG_Images\0927.jpg	YN	Right	No	0.645256200000404	0	531410	235
1038.951171875	1	health	trialStart	3	156	36	foodImage.49	FOODEEG_Images\0515.jpg	YN	Left	Yes	0.709345700000085	0	531944	251
1039.9921875	2	health	foodImageDisplay	3	156	36	foodImage.49	FOODEEG_Images\0515.jpg	YN	Left	Yes	0.709345700000085	0	532477	252
1042.056640625	0.709345700000085	health	choicePhaseStart	3	156	36	foodImage.49	FOODEEG_Images\0515.jpg	YN	Left	Yes	0.709345700000085	0	533534	253
1042.755859375	0	health	response	3	156	36	foodImage.49	FOODEEG_Images\0515.jpg	YN	Left	Yes	0.709345700000085	0	533892	234
1043.798828125	1	decision	trialStart	3	157	37	foodImage.14	FOODEEG_Images\0188.jpg	YN	Left	Yes	0.7065948999998	0	534426	251
1044.859375	2	decision	foodImageDisplay	3	157	37	foodImage.14	FOODEEG_Images\0188.jpg	YN	Left	Yes	0.7065948999998	0	534969	252
1046.923828125	0.7065948999998	decision	choicePhaseStart	3	157	37	foodImage.14	FOODEEG_Images\0188.jpg	YN	Left	Yes	0.7065948999998	0	536026	253
1047.62109375	0	decision	response	3	157	37	foodImage.14	FOODEEG_Images\0188.jpg	YN	Left	Yes	0.7065948999998	0	536383	234
1048.662109375	1	decision	trialStart	3	158	38	foodImage.63	FOODEEG_Images\0645.jpg	YN	Left	Yes	0.668588	0	536916	251
1049.705078125	2	decision	foodImageDisplay	3	158	38	foodImage.63	FOODEEG_Images\0645.jpg	YN	Left	Yes	0.668588	0	537450	252
1051.76953125	0.668588	decision	choicePhaseStart	3	158	38	foodImage.63	FOODEEG_Images\0645.jpg	YN	Left	Yes	0.668588	0	538507	253
1052.427734375	0	decision	response	3	158	38	foodImage.63	FOODEEG_Images\0645.jpg	YN	Left	Yes	0.668588	0	538844	234
1053.47265625	1	decision	trialStart	3	159	39	foodImage.70	FOODEEG_Images\0705.jpg	NY	Right	Yes	0.8976889999999	0	539379	251
1054.53125	2	decision	foodImageDisplay	3	159	39	foodImage.70	FOODEEG_Images\0705.jpg	NY	Right	Yes	0.8976889999999	0	539921	252
1056.59375	0.8976889999999	decision	choicePhaseStart	3	159	39	foodImage.70	FOODEEG_Images\0705.jpg	NY	Right	Yes	0.8976889999999	0	540977	253
1057.484375	0	decision	response	3	159	39	foodImage.70	FOODEEG_Images\0705.jpg	NY	Right	Yes	0.8976889999999	0	541433	235
1058.529296875	1	decision	trialStart	3	160	40	foodImage.35	FOODEEG_Images\0350.jpg	NY	Right	Yes	0.626576900000146	0	541968	251
1059.568359375	2	decision	foodImageDisplay	3	160	40	foodImage.35	FOODEEG_Images\0350.jpg	NY	Right	Yes	0.626576900000146	0	542500	252
1061.6328125	0.626576900000146	decision	choicePhaseStart	3	160	40	foodImage.35	FOODEEG_Images\0350.jpg	NY	Right	Yes	0.626576900000146	0	543557	253
1062.251953125	0	decision	response	3	160	40	foodImage.35	FOODEEG_Images\0350.jpg	NY	Right	Yes	0.626576900000146	0	543874	235
1063.294921875	1	decision	trialStart	3	161	41	foodImage.13	FOODEEG_Images\0183.jpg	YN	Left	Yes	0.609903099999883	0	544408	251
1064.33984375	2	decision	foodImageDisplay	3	161	41	foodImage.13	FOODEEG_Images\0183.jpg	YN	Left	Yes	0.609903099999883	0	544943	252
1066.40234375	0.609903099999883	decision	choicePhaseStart	3	161	41	foodImage.13	FOODEEG_Images\0183.jpg	YN	Left	Yes	0.609903099999883	0	545999	253
1067.00390625	0	decision	response	3	161	41	foodImage.13	FOODEEG_Images\0183.jpg	YN	Left	Yes	0.609903099999883	0	546307	234
1068.046875	1	decision	trialStart	3	162	42	foodImage.117	FOODEEG_Images\0925.jpg	NY	Right	Yes	0.583993900000223	0	546841	251
1069.1015625	2	decision	foodImageDisplay	3	162	42	foodImage.117	FOODEEG_Images\0925.jpg	NY	Right	Yes	0.583993900000223	0	547381	252
1071.1640625	0.583993900000223	decision	choicePhaseStart	3	162	42	foodImage.117	FOODEEG_Images\0925.jpg	NY	Right	Yes	0.583993900000223	0	548437	253
1071.740234375	0	decision	response	3	162	42	foodImage.117	FOODEEG_Images\0925.jpg	NY	Right	Yes	0.583993900000223	0	548732	235
1072.78125	1	health	trialStart	3	163	43	foodImage.102	FOODEEG_Images\0910.jpg	NY	Right	Yes	0.58380840000018	0	549265	251
1073.822265625	2	health	foodImageDisplay	3	163	43	foodImage.102	FOODEEG_Images\0910.jpg	NY	Right	Yes	0.58380840000018	0	549798	252
1075.88671875	0.58380840000018	health	choicePhaseStart	3	163	43	foodImage.102	FOODEEG_Images\0910.jpg	NY	Right	Yes	0.58380840000018	0	550855	253
1076.458984375	0	health	response	3	163	43	foodImage.102	FOODEEG_Images\0910.jpg	NY	Right	Yes	0.58380840000018	0	551148	235
1077.501953125	1	taste	trialStart	3	164	44	foodImage.34	FOODEEG_Images\0339.jpg	YN	Left	Yes	1.13862769999969	0	551682	251
1078.5625	2	taste	foodImageDisplay	3	164	44	foodImage.34	FOODEEG_Images\0339.jpg	YN	Left	Yes	1.13862769999969	0	552225	252
1080.630859375	1.13862769999969	taste	choicePhaseStart	3	164	44	foodImage.34	FOODEEG_Images\0339.jpg	YN	Left	Yes	1.13862769999969	0	553284	253
1081.763671875	0	taste	response	3	164	44	foodImage.34	FOODEEG_Images\0339.jpg	YN	Left	Yes	1.13862769999969	0	553864	234
1082.806640625	1	health	trialStart	3	165	45	foodImage.99	FOODEEG_Images\0907.jpg	YN	Left	Yes	0.671995700000025	0	554398	251
1083.84375	2	health	foodImageDisplay	3	165	45	foodImage.99	FOODEEG_Images\0907.jpg	YN	Left	Yes	0.671995700000025	0	554929	252
1085.908203125	0.671995700000025	health	choicePhaseStart	3	165	45	foodImage.99	FOODEEG_Images\0907.jpg	YN	Left	Yes	0.671995700000025	0	555986	253
1086.5703125	0	health	response	3	165	45	foodImage.99	FOODEEG_Images\0907.jpg	YN	Left	Yes	0.671995700000025	0	556325	234
1087.61328125	1	decision	trialStart	3	166	46	foodImage.83	FOODEEG_Images\0827.jpg	YN	Left	Yes	0.862060499999643	0	556859	251
1088.669921875	2	decision	foodImageDisplay	3	166	46	foodImage.83	FOODEEG_Images\0827.jpg	YN	Left	Yes	0.862060499999643	0	557400	252
1090.734375	0.862060499999643	decision	choicePhaseStart	3	166	46	foodImage.83	FOODEEG_Images\0827.jpg	YN	Left	Yes	0.862060499999643	0	558457	253
1091.5859375	0	decision	response	3	166	46	foodImage.83	FOODEEG_Images\0827.jpg	YN	Left	Yes	0.862060499999643	0	558893	234
1092.62890625	1	health	trialStart	3	167	47	foodImage.15	FOODEEG_Images\0189.jpg	NY	Left	No	1.04447190000019	0	559427	251
1093.6875	2	health	foodImageDisplay	3	167	47	foodImage.15	FOODEEG_Images\0189.jpg	NY	Left	No	1.04447190000019	0	559969	252
1095.751953125	1.04447190000019	health	choicePhaseStart	3	167	47	foodImage.15	FOODEEG_Images\0189.jpg	NY	Left	No	1.04447190000019	0	561026	253
1096.787109375	0	health	response	3	167	47	foodImage.15	FOODEEG_Images\0189.jpg	NY	Left	No	1.04447190000019	0	561556	234
1097.828125	1	decision	trialStart	3	168	48	foodImage.57	FOODEEG_Images\0587.jpg	NY	Right	Yes	0.667757199999869	0	562089	251
1098.873046875	2	decision	foodImageDisplay	3	168	48	foodImage.57	FOODEEG_Images\0587.jpg	NY	Right	Yes	0.667757199999869	0	562624	252
1100.935546875	0.667757199999869	decision	choicePhaseStart	3	168	48	foodImage.57	FOODEEG_Images\0587.jpg	NY	Right	Yes	0.667757199999869	0	563680	253
1101.59375	0	decision	response	3	168	48	foodImage.57	FOODEEG_Images\0587.jpg	NY	Right	Yes	0.667757199999869	0	564017	235
1102.63671875	1	health	trialStart	3	169	49	foodImage.75	FOODEEG_Images\0763.jpg	NY	Right	Yes	0.769181899999694	0	564551	251
1103.6875	2	health	foodImageDisplay	3	169	49	foodImage.75	FOODEEG_Images\0763.jpg	NY	Right	Yes	0.769181899999694	0	565089	252
1105.751953125	0.769181899999694	health	choicePhaseStart	3	169	49	foodImage.75	FOODEEG_Images\0763.jpg	NY	Right	Yes	0.769181899999694	0	566146	253
1106.513671875	0	health	response	3	169	49	foodImage.75	FOODEEG_Images\0763.jpg	NY	Right	Yes	0.769181899999694	0	566536	235
1107.5546875	1	taste	trialStart	3	170	50	foodImage.101	FOODEEG_Images\0909.jpg	NY	Right	Yes	0.619640199999594	0	567069	251
1108.59375	2	taste	foodImageDisplay	3	170	50	foodImage.101	FOODEEG_Images\0909.jpg	NY	Right	Yes	0.619640199999594	0	567601	252
1110.65625	0.619640199999594	taste	choicePhaseStart	3	170	50	foodImage.101	FOODEEG_Images\0909.jpg	NY	Right	Yes	0.619640199999594	0	568657	253
1111.265625	0	taste	response	3	170	50	foodImage.101	FOODEEG_Images\0909.jpg	NY	Right	Yes	0.619640199999594	0	568969	235
1112.310546875	1	health	trialStart	3	171	51	foodImage.52	FOODEEG_Images\0539.jpg	NY	Right	Yes	0.598294899999928	0	569504	251
1113.365234375	2	health	foodImageDisplay	3	171	51	foodImage.52	FOODEEG_Images\0539.jpg	NY	Right	Yes	0.598294899999928	0	570044	252
1115.4296875	0.598294899999928	health	choicePhaseStart	3	171	51	foodImage.52	FOODEEG_Images\0539.jpg	NY	Right	Yes	0.598294899999928	0	571101	253
1116.017578125	0	health	response	3	171	51	foodImage.52	FOODEEG_Images\0539.jpg	NY	Right	Yes	0.598294899999928	0	571402	235
1117.0625	1	decision	trialStart	3	172	52	foodImage.87	FOODEEG_Images\0873.jpg	YN	Right	No	1.0092966000002	0	571937	251
1118.12109375	2	decision	foodImageDisplay	3	172	52	foodImage.87	FOODEEG_Images\0873.jpg	YN	Right	No	1.0092966000002	0	572479	252
1120.185546875	1.0092966000002	decision	choicePhaseStart	3	172	52	foodImage.87	FOODEEG_Images\0873.jpg	YN	Right	No	1.0092966000002	0	573536	253
1121.185546875	0	decision	response	3	172	52	foodImage.87	FOODEEG_Images\0873.jpg	YN	Right	No	1.0092966000002	0	574048	235
1122.23046875	1	health	trialStart	3	173	53	foodImage.90	FOODEEG_Images\0890.jpg	YN	Left	Yes	0.770042800000283	0	574583	251
1123.2890625	2	health	foodImageDisplay	3	173	53	foodImage.90	FOODEEG_Images\0890.jpg	YN	Left	Yes	0.770042800000283	0	575125	252
1125.353515625	0.770042800000283	health	choicePhaseStart	3	173	53	foodImage.90	FOODEEG_Images\0890.jpg	YN	Left	Yes	0.770042800000283	0	576182	253
1126.11328125	0	health	response	3	173	53	foodImage.90	FOODEEG_Images\0890.jpg	YN	Left	Yes	0.770042800000283	0	576571	234
1127.15625	1	health	trialStart	3	174	54	foodImage.48	FOODEEG_Images\0494.jpg	YN	Right	No	0.870373799999925	0	577105	251
1128.197265625	2	health	foodImageDisplay	3	174	54	foodImage.48	FOODEEG_Images\0494.jpg	YN	Right	No	0.870373799999925	0	577638	252
1130.26171875	0.870373799999925	health	choicePhaseStart	3	174	54	foodImage.48	FOODEEG_Images\0494.jpg	YN	Right	No	0.870373799999925	0	578695	253
1131.12109375	0	health	response	3	174	54	foodImage.48	FOODEEG_Images\0494.jpg	YN	Right	No	0.870373799999925	0	579135	235
1132.173828125	1	taste	trialStart	3	175	55	foodImage.78	FOODEEG_Images\0787.jpg	YN	Right	No	1.06226250000009	0	579674	251
1133.21484375	2	taste	foodImageDisplay	3	175	55	foodImage.78	FOODEEG_Images\0787.jpg	YN	Right	No	1.06226250000009	0	580207	252
1135.283203125	1.06226250000009	taste	choicePhaseStart	3	175	55	foodImage.78	FOODEEG_Images\0787.jpg	YN	Right	No	1.06226250000009	0	581266	253
1136.337890625	0	taste	response	3	175	55	foodImage.78	FOODEEG_Images\0787.jpg	YN	Right	No	1.06226250000009	0	581806	235
1137.380859375	1	taste	trialStart	3	176	56	foodImage.10	FOODEEG_Images\0145.jpg	YN	Left	Yes	0.603672700000061	0	582340	251
1138.447265625	2	taste	foodImageDisplay	3	176	56	foodImage.10	FOODEEG_Images\0145.jpg	YN	Left	Yes	0.603672700000061	0	582886	252
1140.509765625	0.603672700000061	taste	choicePhaseStart	3	176	56	foodImage.10	FOODEEG_Images\0145.jpg	YN	Left	Yes	0.603672700000061	0	583942	253
1141.10546875	0	taste	response	3	176	56	foodImage.10	FOODEEG_Images\0145.jpg	YN	Left	Yes	0.603672700000061	0	584247	234
1142.1484375	1	taste	trialStart	3	177	57	foodImage.89	FOODEEG_Images\0881.jpg	YN	Left	Yes	0.758879999999863	0	584781	251
1143.203125	2	taste	foodImageDisplay	3	177	57	foodImage.89	FOODEEG_Images\0881.jpg	YN	Left	Yes	0.758879999999863	0	585321	252
1145.267578125	0.758879999999863	taste	choicePhaseStart	3	177	57	foodImage.89	FOODEEG_Images\0881.jpg	YN	Left	Yes	0.758879999999863	0	586378	253
1146.017578125	0	taste	response	3	177	57	foodImage.89	FOODEEG_Images\0881.jpg	YN	Left	Yes	0.758879999999863	0	586762	234
1147.060546875	1	decision	trialStart	3	178	58	foodImage.42	FOODEEG_Images\0438.jpg	YN	Right	No	0.790373199999976	0	587296	251
1148.146484375	2	decision	foodImageDisplay	3	178	58	foodImage.42	FOODEEG_Images\0438.jpg	YN	Right	No	0.790373199999976	0	587852	252
1150.2109375	0.790373199999976	decision	choicePhaseStart	3	178	58	foodImage.42	FOODEEG_Images\0438.jpg	YN	Right	No	0.790373199999976	0	588909	253
1150.9921875	0	decision	response	3	178	58	foodImage.42	FOODEEG_Images\0438.jpg	YN	Right	No	0.790373199999976	0	589309	235
1152.0390625	1	taste	trialStart	3	179	59	foodImage.25	FOODEEG_Images\0261.jpg	YN	Right	No	0.745837800000118	0	589845	251
1153.080078125	2	taste	foodImageDisplay	3	179	59	foodImage.25	FOODEEG_Images\0261.jpg	YN	Right	No	0.745837800000118	0	590378	252
1155.14453125	0.745837800000118	taste	choicePhaseStart	3	179	59	foodImage.25	FOODEEG_Images\0261.jpg	YN	Right	No	0.745837800000118	0	591435	253
1155.880859375	0	taste	response	3	179	59	foodImage.25	FOODEEG_Images\0261.jpg	YN	Right	No	0.745837800000118	0	591812	235
1156.92578125	1	taste	trialStart	3	180	60	foodImage.74	FOODEEG_Images\0752.jpg	NY	Right	Yes	0.969170000000304	0	592347	251
1157.96875	2	taste	foodImageDisplay	3	180	60	foodImage.74	FOODEEG_Images\0752.jpg	NY	Right	Yes	0.969170000000304	0	592881	252
1160.033203125	0.969170000000304	taste	choicePhaseStart	3	180	60	foodImage.74	FOODEEG_Images\0752.jpg	NY	Right	Yes	0.969170000000304	0	593938	253
1160.9921875	0	taste	response	3	180	60	foodImage.74	FOODEEG_Images\0752.jpg	NY	Right	Yes	0.969170000000304	0	594429	235
1163.03515625	13.294921875	n/a	blockEnd	n/a	n/a	n/a	n/a	n/a	n/a	n/a	n/a	n/a	n/a	595475	254
1176.330078125	2	n/a	blockStart	4	n/a	n/a	n/a	n/a	n/a	n/a	n/a	n/a	n/a	602282	250
1178.36328125	1	taste	trialStart	4	181	1	foodImage.77	FOODEEG_Images\0771.jpg	YN	Left	Yes	0.793736700000409	0	603323	251
1179.408203125	2	taste	foodImageDisplay	4	181	1	foodImage.77	FOODEEG_Images\0771.jpg	YN	Left	Yes	0.793736700000409	0	603858	252
1181.470703125	0.793736700000409	taste	choicePhaseStart	4	181	1	foodImage.77	FOODEEG_Images\0771.jpg	YN	Left	Yes	0.793736700000409	0	604914	253
1182.255859375	0	taste	response	4	181	1	foodImage.77	FOODEEG_Images\0771.jpg	YN	Left	Yes	0.793736700000409	0	605316	234
1183.298828125	1	taste	trialStart	4	182	2	foodImage.11	FOODEEG_Images\0180.jpg	YN	Left	Yes	0.540751699999419	0	605850	251
1184.33984375	2	taste	foodImageDisplay	4	182	2	foodImage.11	FOODEEG_Images\0180.jpg	YN	Left	Yes	0.540751699999419	0	606383	252
1186.404296875	0.540751699999419	taste	choicePhaseStart	4	182	2	foodImage.11	FOODEEG_Images\0180.jpg	YN	Left	Yes	0.540751699999419	0	607440	253
1186.935546875	0	taste	response	4	182	2	foodImage.11	FOODEEG_Images\0180.jpg	YN	Left	Yes	0.540751699999419	0	607712	234
1187.98046875	1	taste	trialStart	4	183	3	foodImage.86	FOODEEG_Images\0844.jpg	NY	Left	No	1.18144540000048	0	608247	251
1189.041015625	2	taste	foodImageDisplay	4	183	3	foodImage.86	FOODEEG_Images\0844.jpg	NY	Left	No	1.18144540000048	0	608790	252
1191.10546875	1.18144540000048	taste	choicePhaseStart	4	183	3	foodImage.86	FOODEEG_Images\0844.jpg	NY	Left	No	1.18144540000048	0	609847	253
1192.279296875	0	taste	response	4	183	3	foodImage.86	FOODEEG_Images\0844.jpg	NY	Left	No	1.18144540000048	0	610448	234
1193.322265625	1	taste	trialStart	4	184	4	foodImage.48	FOODEEG_Images\0494.jpg	NY	Right	Yes	1.08410309999999	0	610982	251
1194.36328125	2	taste	foodImageDisplay	4	184	4	foodImage.48	FOODEEG_Images\0494.jpg	NY	Right	Yes	1.08410309999999	0	611515	252
1196.427734375	1.08410309999999	taste	choicePhaseStart	4	184	4	foodImage.48	FOODEEG_Images\0494.jpg	NY	Right	Yes	1.08410309999999	0	612572	253
1197.50390625	0	taste	response	4	184	4	foodImage.48	FOODEEG_Images\0494.jpg	NY	Right	Yes	1.08410309999999	0	613123	235
1198.546875	1	health	trialStart	4	185	5	foodImage.59	FOODEEG_Images\0607.jpg	YN	Left	Yes	0.957920200000444	0	613657	251
1199.59375	2	health	foodImageDisplay	4	185	5	foodImage.59	FOODEEG_Images\0607.jpg	YN	Left	Yes	0.957920200000444	0	614193	252
1201.658203125	0.957920200000444	health	choicePhaseStart	4	185	5	foodImage.59	FOODEEG_Images\0607.jpg	YN	Left	Yes	0.957920200000444	0	615250	253
1202.607421875	0	health	response	4	185	5	foodImage.59	FOODEEG_Images\0607.jpg	YN	Left	Yes	0.957920200000444	0	615736	234
1203.650390625	1	taste	trialStart	4	186	6	foodImage.75	FOODEEG_Images\0763.jpg	NY	Right	Yes	0.585594799999853	0	616270	251
1204.6953125	2	taste	foodImageDisplay	4	186	6	foodImage.75	FOODEEG_Images\0763.jpg	NY	Right	Yes	0.585594799999853	0	616805	252
1206.7578125	0.585594799999853	taste	choicePhaseStart	4	186	6	foodImage.75	FOODEEG_Images\0763.jpg	NY	Right	Yes	0.585594799999853	0	617861	253
1207.3359375	0	taste	response	4	186	6	foodImage.75	FOODEEG_Images\0763.jpg	NY	Right	Yes	0.585594799999853	0	618157	235
1208.37890625	1	taste	trialStart	4	187	7	foodImage.24	FOODEEG_Images\0250.jpg	NY	Right	Yes	0.604071799999474	0	618691	251
1209.419921875	2	taste	foodImageDisplay	4	187	7	foodImage.24	FOODEEG_Images\0250.jpg	NY	Right	Yes	0.604071799999474	0	619224	252
1211.484375	0.604071799999474	taste	choicePhaseStart	4	187	7	foodImage.24	FOODEEG_Images\0250.jpg	NY	Right	Yes	0.604071799999474	0	620281	253
1212.078125	0	taste	response	4	187	7	foodImage.24	FOODEEG_Images\0250.jpg	NY	Right	Yes	0.604071799999474	0	620585	235
1213.126953125	1	health	trialStart	4	188	8	foodImage.115	FOODEEG_Images\0923.jpg	NY	Right	Yes	0.711267000000589	0	621122	251
1214.18359375	2	health	foodImageDisplay	4	188	8	foodImage.115	FOODEEG_Images\0923.jpg	NY	Right	Yes	0.711267000000589	0	621663	252
1216.248046875	0.711267000000589	health	choicePhaseStart	4	188	8	foodImage.115	FOODEEG_Images\0923.jpg	NY	Right	Yes	0.711267000000589	0	622720	253
1216.951171875	0	health	response	4	188	8	foodImage.115	FOODEEG_Images\0923.jpg	NY	Right	Yes	0.711267000000589	0	623080	235
1217.994140625	1	health	trialStart	4	189	9	foodImage.70	FOODEEG_Images\0705.jpg	NY	Right	Yes	0.914177099999506	0	623614	251
1219.072265625	2	health	foodImageDisplay	4	189	9	foodImage.70	FOODEEG_Images\0705.jpg	NY	Right	Yes	0.914177099999506	0	624166	252
1221.140625	0.914177099999506	health	choicePhaseStart	4	189	9	foodImage.70	FOODEEG_Images\0705.jpg	NY	Right	Yes	0.914177099999506	0	625225	253
1222.046875	0	health	response	4	189	9	foodImage.70	FOODEEG_Images\0705.jpg	NY	Right	Yes	0.914177099999506	0	625689	235
1223.08984375	1	taste	trialStart	4	190	10	foodImage.104	FOODEEG_Images\0912.jpg	NY	Left	No	1.18577969999933	0	626223	251
1224.126953125	2	taste	foodImageDisplay	4	190	10	foodImage.104	FOODEEG_Images\0912.jpg	NY	Left	No	1.18577969999933	0	626754	252
1226.189453125	1.18577969999933	taste	choicePhaseStart	4	190	10	foodImage.104	FOODEEG_Images\0912.jpg	NY	Left	No	1.18577969999933	0	627810	253
1227.3671875	0	taste	response	4	190	10	foodImage.104	FOODEEG_Images\0912.jpg	NY	Left	No	1.18577969999933	0	628413	234
1228.41015625	1	health	trialStart	4	191	11	foodImage.109	FOODEEG_Images\0917.jpg	NY	Right	Yes	0.669290900000306	0	628947	251
1229.447265625	2	health	foodImageDisplay	4	191	11	foodImage.109	FOODEEG_Images\0917.jpg	NY	Right	Yes	0.669290900000306	0	629478	252
1231.51171875	0.669290900000306	health	choicePhaseStart	4	191	11	foodImage.109	FOODEEG_Images\0917.jpg	NY	Right	Yes	0.669290900000306	0	630535	253
1232.173828125	0	health	response	4	191	11	foodImage.109	FOODEEG_Images\0917.jpg	NY	Right	Yes	0.669290900000306	0	630874	235
1233.21875	1	decision	trialStart	4	192	12	foodImage.88	FOODEEG_Images\0878.jpg	NY	Right	Yes	0.981503599999996	0	631409	251
1234.275390625	2	decision	foodImageDisplay	4	192	12	foodImage.88	FOODEEG_Images\0878.jpg	NY	Right	Yes	0.981503599999996	0	631950	252
1236.337890625	0.981503599999996	decision	choicePhaseStart	4	192	12	foodImage.88	FOODEEG_Images\0878.jpg	NY	Right	Yes	0.981503599999996	0	633006	253
1237.310546875	0	decision	response	4	192	12	foodImage.88	FOODEEG_Images\0878.jpg	NY	Right	Yes	0.981503599999996	0	633504	235
