onset	duration	trial_type	event_type	block	trial_total	trial_in_block	food_image_code	food_image_path	button_position	resp_position	resp_choice	choice_rt	resp_too_slow	sample	trigger
376.509765625	2	n/a	blockStart	1	n/a	n/a	n/a	n/a	n/a	n/a	n/a	n/a	n/a	192774	250
378.546875	1	taste	trialStart	1	1	1	foodImage.118	FOODEEG_Images\0926.jpg	YN	Right	No	0.838822400000936	0	193817	251
379.58984375	2	taste	foodImageDisplay	1	1	1	foodImage.118	FOODEEG_Images\0926.jpg	YN	Right	No	0.838822400000936	0	194351	252
381.654296875	0.838822400000936	taste	choicePhaseStart	1	1	1	foodImage.118	FOODEEG_Images\0926.jpg	YN	Right	No	0.838822400000936	0	195408	253
382.484375	0	taste	response	1	1	1	foodImage.118	FOODEEG_Images\0926.jpg	YN	Right	No	0.838822400000936	0	195833	235
383.576171875	1	health	trialStart	1	2	2	foodImage.75	FOODEEG_Images\0763.jpg	NY	Left	No	0.483936000004178	0	196392	251
384.62109375	2	health	foodImageDisplay	1	2	2	foodImage.75	FOODEEG_Images\0763.jpg	NY	Left	No	0.483936000004178	0	196927	252
386.685546875	0.483936000004178	health	choicePhaseStart	1	2	2	foodImage.75	FOODEEG_Images\0763.jpg	NY	Left	No	0.483936000004178	0	197984	253
387.1640625	0	health	response	1	2	2	foodImage.75	FOODEEG_Images\0763.jpg	NY	Left	No	0.483936000004178	0	198229	234
388.216796875	1	taste	trialStart	1	3	3	foodImage.4	FOODEEG_Images\0065.jpg	YN	Right	No	1.41259810000338	0	198768	251
389.294921875	2	taste	foodImageDisplay	1	3	3	foodImage.4	FOODEEG_Images\0065.jpg	YN	Right	No	1.41259810000338	0	199320	252
391.359375	1.41259810000338	taste	choicePhaseStart	1	3	3	foodImage.4	FOODEEG_Images\0065.jpg	YN	Right	No	1.41259810000338	0	200377	253
392.763671875	0	taste	response	1	3	3	foodImage.4	FOODEEG_Images\0065.jpg	YN	Right	No	1.41259810000338	0	201096	235
393.80859375	1	decision	trialStart	1	4	4	foodImage.72	FOODEEG_Images\0714.jpg	YN	Right	No	0.857257200004824	0	201631	251
394.8515625	2	decision	foodImageDisplay	1	4	4	foodImage.72	FOODEEG_Images\0714.jpg	YN	Right	No	0.857257200004824	0	202165	252
396.916015625	0.857257200004824	decision	choicePhaseStart	1	4	4	foodImage.72	FOODEEG_Images\0714.jpg	YN	Right	No	0.857257200004824	0	203222	253
397.763671875	0	decision	response	1	4	4	foodImage.72	FOODEEG_Images\0714.jpg	YN	Right	No	0.857257200004824	0	203656	235
398.806640625	1	decision	trialStart	1	5	5	foodImage.57	FOODEEG_Images\0587.jpg	YN	Right	No	0.749650399993698	0	204190	251
399.8515625	2	decision	foodImageDisplay	1	5	5	foodImage.57	FOODEEG_Images\0587.jpg	YN	Right	No	0.749650399993698	0	204725	252
401.916015625	0.749650399993698	decision	choicePhaseStart	1	5	5	foodImage.57	FOODEEG_Images\0587.jpg	YN	Right	No	0.749650399993698	0	205782	253
402.66015625	0	decision	response	1	5	5	foodImage.57	FOODEEG_Images\0587.jpg	YN	Right	No	0.749650399993698	0	206163	235
403.7109375	1	health	trialStart	1	6	6	foodImage.42	FOODEEG_Images\0438.jpg	NY	Right	Yes	0.94263040000078	0	206701	251
404.796875	2	health	foodImageDisplay	1	6	6	foodImage.42	FOODEEG_Images\0438.jpg	NY	Right	Yes	0.94263040000078	0	207257	252
406.86328125	0.94263040000078	health	choicePhaseStart	1	6	6	foodImage.42	FOODEEG_Images\0438.jpg	NY	Right	Yes	0.94263040000078	0	208315	253
407.796875	0	health	response	1	6	6	foodImage.42	FOODEEG_Images\0438.jpg	NY	Right	Yes	0.94263040000078	0	208793	235
408.837890625	1	health	trialStart	1	7	7	foodImage.90	FOODEEG_Images\0890.jpg	YN	Right	No	0.977333699993324	0	209326	251
409.921875	2	health	foodImageDisplay	1	7	7	foodImage.90	FOODEEG_Images\0890.jpg	YN	Right	No	0.977333699993324	0	209881	252
411.986328125	0.977333699993324	health	choicePhaseStart	1	7	7	foodImage.90	FOODEEG_Images\0890.jpg	YN	Right	No	0.977333699993324	0	210938	253
412.955078125	0	health	response	1	7	7	foodImage.90	FOODEEG_Images\0890.jpg	YN	Right	No	0.977333699993324	0	211434	235
413.998046875	1	health	trialStart	1	8	8	foodImage.76	FOODEEG_Images\0766.jpg	YN	Left	Yes	0.688858099994832	0	211968	251
415.05859375	2	health	foodImageDisplay	1	8	8	foodImage.76	FOODEEG_Images\0766.jpg	YN	Left	Yes	0.688858099994832	0	212511	252
417.123046875	0.688858099994832	health	choicePhaseStart	1	8	8	foodImage.76	FOODEEG_Images\0766.jpg	YN	Left	Yes	0.688858099994832	0	213568	253
417.802734375	0	health	response	1	8	8	foodImage.76	FOODEEG_Images\0766.jpg	YN	Left	Yes	0.688858099994832	0	213916	234
418.84765625	1	taste	trialStart	1	9	9	foodImage.56	FOODEEG_Images\0586.jpg	YN	Right	No	0.777643400004308	0	214451	251
419.890625	2	taste	foodImageDisplay	1	9	9	foodImage.56	FOODEEG_Images\0586.jpg	YN	Right	No	0.777643400004308	0	214985	252
421.955078125	0.777643400004308	taste	choicePhaseStart	1	9	9	foodImage.56	FOODEEG_Images\0586.jpg	YN	Right	No	0.777643400004308	0	216042	253
422.72265625	0	taste	response	1	9	9	foodImage.56	FOODEEG_Images\0586.jpg	YN	Right	No	0.777643400004308	0	216435	235
423.765625	1	health	trialStart	1	10	10	foodImage.116	FOODEEG_Images\0924.jpg	YN	Right	No	0.646577599996817	0	216969	251
424.8046875	2	health	foodImageDisplay	1	10	10	foodImage.116	FOODEEG_Images\0924.jpg	YN	Right	No	0.646577599996817	0	217501	252
426.869140625	0.646577599996817	health	choicePhaseStart	1	10	10	foodImage.116	FOODEEG_Images\0924.jpg	YN	Right	No	0.646577599996817	0	218558	253
427.505859375	0	health	response	1	10	10	foodImage.116	FOODEEG_Images\0924.jpg	YN	Right	No	0.646577599996817	0	218884	235
428.546875	1	taste	trialStart	1	11	11	foodImage.84	FOODEEG_Images\0830.jpg	YN	Left	Yes	0.825526100001298	0	219417	251
429.609375	2	taste	foodImageDisplay	1	11	11	foodImage.84	FOODEEG_Images\0830.jpg	YN	Left	Yes	0.825526100001298	0	219961	252
431.673828125	0.825526100001298	taste	choicePhaseStart	1	11	11	foodImage.84	FOODEEG_Images\0830.jpg	YN	Left	Yes	0.825526100001298	0	221018	253
432.490234375	0	taste	response	1	11	11	foodImage.84	FOODEEG_Images\0830.jpg	YN	Left	Yes	0.825526100001298	0	221436	234
433.53125	1	decision	trialStart	1	12	12	foodImage.113	FOODEEG_Images\0921.jpg	YN	Right	No	0.598359499999788	0	221969	251
434.572265625	2	decision	foodImageDisplay	1	12	12	foodImage.113	FOODEEG_Images\0921.jpg	YN	Right	No	0.598359499999788	0	222502	252
436.634765625	0.598359499999788	decision	choicePhaseStart	1	12	12	foodImage.113	FOODEEG_Images\0921.jpg	YN	Right	No	0.598359499999788	0	223558	253
437.2265625	0	decision	response	1	12	12	foodImage.113	FOODEEG_Images\0921.jpg	YN	Right	No	0.598359499999788	0	223861	235
438.265625	1	taste	trialStart	1	13	13	foodImage.58	FOODEEG_Images\0605.jpg	NY	Right	Yes	0.71632580000005	0	224393	251
439.32421875	2	taste	foodImageDisplay	1	13	13	foodImage.58	FOODEEG_Images\0605.jpg	NY	Right	Yes	0.71632580000005	0	224935	252
441.390625	0.71632580000005	taste	choicePhaseStart	1	13	13	foodImage.58	FOODEEG_Images\0605.jpg	NY	Right	Yes	0.71632580000005	0	225993	253
442.09765625	0	taste	response	1	13	13	foodImage.58	FOODEEG_Images\0605.jpg	NY	Right	Yes	0.71632580000005	0	226355	235
443.140625	1	health	trialStart	1	14	14	foodImage.22	FOODEEG_Images\0236.jpg	YN	Left	Yes	0.653984999997192	0	226889	251
444.181640625	2	health	foodImageDisplay	1	14	14	foodImage.22	FOODEEG_Images\0236.jpg	YN	Left	Yes	0.653984999997192	0	227422	252
446.24609375	0.653984999997192	health	choicePhaseStart	1	14	14	foodImage.22	FOODEEG_Images\0236.jpg	YN	Left	Yes	0.653984999997192	0	228479	253
446.890625	0	health	response	1	14	14	foodImage.22	FOODEEG_Images\0236.jpg	YN	Left	Yes	0.653984999997192	0	228809	234
447.931640625	1	taste	trialStart	1	15	15	foodImage.86	FOODEEG_Images\0844.jpg	NY	Left	No	1.10449560000416	0	229342	251
448.98828125	2	taste	foodImageDisplay	1	15	15	foodImage.86	FOODEEG_Images\0844.jpg	NY	Left	No	1.10449560000416	0	229883	252
451.05078125	1.10449560000416	taste	choicePhaseStart	1	15	15	foodImage.86	FOODEEG_Images\0844.jpg	NY	Left	No	1.10449560000416	0	230939	253
452.146484375	0	taste	response	1	15	15	foodImage.86	FOODEEG_Images\0844.jpg	NY	Left	No	1.10449560000416	0	231500	234
453.1875	1	decision	trialStart	1	16	16	foodImage.54	FOODEEG_Images\0560.jpg	YN	Left	Yes	1.21873639999831	0	232033	251
454.244140625	2	decision	foodImageDisplay	1	16	16	foodImage.54	FOODEEG_Images\0560.jpg	YN	Left	Yes	1.21873639999831	0	232574	252
456.30859375	1.21873639999831	decision	choicePhaseStart	1	16	16	foodImage.54	FOODEEG_Images\0560.jpg	YN	Left	Yes	1.21873639999831	0	233631	253
457.521484375	0	decision	response	1	16	16	foodImage.54	FOODEEG_Images\0560.jpg	YN	Left	Yes	1.21873639999831	0	234252	234
458.560546875	1	decision	trialStart	1	17	17	foodImage.10	FOODEEG_Images\0145.jpg	YN	Right	No	0.913071000002674	0	234784	251
459.6171875	2	decision	foodImageDisplay	1	17	17	foodImage.10	FOODEEG_Images\0145.jpg	YN	Right	No	0.913071000002674	0	235325	252
461.681640625	0.913071000002674	decision	choicePhaseStart	1	17	17	foodImage.10	FOODEEG_Images\0145.jpg	YN	Right	No	0.913071000002674	0	236382	253
462.5859375	0	decision	response	1	17	17	foodImage.10	FOODEEG_Images\0145.jpg	YN	Right	No	0.913071000002674	0	236845	235
463.6328125	1	health	trialStart	1	18	18	foodImage.19	FOODEEG_Images\0225.jpg	NY	Left	No	0.890273099998012	0	237381	251
464.673828125	2	health	foodImageDisplay	1	18	18	foodImage.19	FOODEEG_Images\0225.jpg	NY	Left	No	0.890273099998012	0	237914	252
466.73828125	0.890273099998012	health	choicePhaseStart	1	18	18	foodImage.19	FOODEEG_Images\0225.jpg	NY	Left	No	0.890273099998012	0	238971	253
467.625	0	health	response	1	18	18	foodImage.19	FOODEEG_Images\0225.jpg	NY	Left	No	0.890273099998012	0	239425	234
468.6640625	1	health	trialStart	1	19	19	foodImage.12	FOODEEG_Images\0181.jpg	NY	Right	Yes	0.601336400002765	0	239957	251
469.70703125	2	health	foodImageDisplay	1	19	19	foodImage.12	FOODEEG_Images\0181.jpg	NY	Right	Yes	0.601336400002765	0	240491	252
471.76953125	0.601336400002765	health	choicePhaseStart	1	19	19	foodImage.12	FOODEEG_Images\0181.jpg	NY	Right	Yes	0.601336400002765	0	241547	253
472.361328125	0	health	response	1	19	19	foodImage.12	FOODEEG_Images\0181.jpg	NY	Right	Yes	0.601336400002765	0	241850	235
473.40234375	1	health	trialStart	1	20	20	foodImage.82	FOODEEG_Images\0805.jpg	NY	Right	Yes	0.674354800001311	0	242383	251
474.455078125	2	health	foodImageDisplay	1	20	20	foodImage.82	FOODEEG_Images\0805.jpg	NY	Right	Yes	0.674354800001311	0	242922	252
476.51953125	0.674354800001311	health	choicePhaseStart	1	20	20	foodImage.82	FOODEEG_Images\0805.jpg	NY	Right	Yes	0.674354800001311	0	243979	253
477.185546875	0	health	response	1	20	20	foodImage.82	FOODEEG_Images\0805.jpg	NY	Right	Yes	0.674354800001311	0	244320	235
478.224609375	1	decision	trialStart	1	21	21	foodImage.39	FOODEEG_Images\0367.jpg	YN	Left	Yes	0.651048400002765	0	244852	251
479.263671875	2	decision	foodImageDisplay	1	21	21	foodImage.39	FOODEEG_Images\0367.jpg	YN	Left	Yes	0.651048400002765	0	245384	252
481.328125	0.651048400002765	decision	choicePhaseStart	1	21	21	foodImage.39	FOODEEG_Images\0367.jpg	YN	Left	Yes	0.651048400002765	0	246441	253
481.96875	0	decision	response	1	21	21	foodImage.39	FOODEEG_Images\0367.jpg	YN	Left	Yes	0.651048400002765	0	246769	234
483.009765625	1	decision	trialStart	1	22	22	foodImage.67	FOODEEG_Images\0679.jpg	NY	Left	No	0.875909700000193	0	247302	251
484.09375	2	decision	foodImageDisplay	1	22	22	foodImage.67	FOODEEG_Images\0679.jpg	NY	Left	No	0.875909700000193	0	247857	252
486.15625	0.875909700000193	decision	choicePhaseStart	1	22	22	foodImage.67	FOODEEG_Images\0679.jpg	NY	Left	No	0.875909700000193	0	248913	253
487.0234375	0	decision	response	1	22	22	foodImage.67	FOODEEG_Images\0679.jpg	NY	Left	No	0.875909700000193	0	249357	234
488.06640625	1	health	trialStart	1	23	23	foodImage.111	FOODEEG_Images\0919.jpg	NY	Left	No	0.617083700002695	0	249891	251
489.10546875	2	health	foodImageDisplay	1	23	23	foodImage.111	FOODEEG_Images\0919.jpg	NY	Left	No	0.617083700002695	0	250423	252
491.16796875	0.617083700002695	health	choicePhaseStart	1	23	23	foodImage.111	FOODEEG_Images\0919.jpg	NY	Left	No	0.617083700002695	0	251479	253
491.775390625	0	health	response	1	23	23	foodImage.111	FOODEEG_Images\0919.jpg	NY	Left	No	0.617083700002695	0	251790	234
492.81640625	1	decision	trialStart	1	24	24	foodImage.110	FOODEEG_Images\0918.jpg	YN	Right	No	0.546814699999231	0	252323	251
493.85546875	2	decision	foodImageDisplay	1	24	24	foodImage.110	FOODEEG_Images\0918.jpg	YN	Right	No	0.546814699999231	0	252855	252
495.91796875	0.546814699999231	decision	choicePhaseStart	1	24	24	foodImage.110	FOODEEG_Images\0918.jpg	YN	Right	No	0.546814699999231	0	253911	253
496.455078125	0	decision	response	1	24	24	foodImage.110	FOODEEG_Images\0918.jpg	YN	Right	No	0.546814699999231	0	254186	235
497.49609375	1	decision	trialStart	1	25	25	foodImage.37	FOODEEG_Images\0359.jpg	NY	Right	Yes	0.918363900003897	0	254719	251
498.537109375	2	decision	foodImageDisplay	1	25	25	foodImage.37	FOODEEG_Images\0359.jpg	NY	Right	Yes	0.918363900003897	0	255252	252
500.599609375	0.918363900003897	decision	choicePhaseStart	1	25	25	foodImage.37	FOODEEG_Images\0359.jpg	NY	Right	Yes	0.918363900003897	0	256308	253
501.51171875	0	decision	response	1	25	25	foodImage.37	FOODEEG_Images\0359.jpg	NY	Right	Yes	0.918363900003897	0	256775	235
502.55078125	1	taste	trialStart	1	26	26	foodImage.30	FOODEEG_Images\0282.jpg	YN	Left	Yes	0.800957499996002	0	257307	251
503.59375	2	taste	foodImageDisplay	1	26	26	foodImage.30	FOODEEG_Images\0282.jpg	YN	Left	Yes	0.800957499996002	0	257841	252
505.65625	0.800957499996002	taste	choicePhaseStart	1	26	26	foodImage.30	FOODEEG_Images\0282.jpg	YN	Left	Yes	0.800957499996002	0	258897	253
506.447265625	0	taste	response	1	26	26	foodImage.30	FOODEEG_Images\0282.jpg	YN	Left	Yes	0.800957499996002	0	259302	234
507.48828125	1	decision	trialStart	1	27	27	foodImage.87	FOODEEG_Images\0873.jpg	NY	Right	Yes	0.711510699999053	0	259835	251
508.544921875	2	decision	foodImageDisplay	1	27	27	foodImage.87	FOODEEG_Images\0873.jpg	NY	Right	Yes	0.711510699999053	0	260376	252
510.607421875	0.711510699999053	decision	choicePhaseStart	1	27	27	foodImage.87	FOODEEG_Images\0873.jpg	NY	Right	Yes	0.711510699999053	0	261432	253
511.310546875	0	decision	response	1	27	27	foodImage.87	FOODEEG_Images\0873.jpg	NY	Right	Yes	0.711510699999053	0	261792	235
512.3515625	1	health	trialStart	1	28	28	foodImage.46	FOODEEG_Images\0479.jpg	NY	Right	Yes	0.729246899994905	0	262325	251
513.431640625	2	health	foodImageDisplay	1	28	28	foodImage.46	FOODEEG_Images\0479.jpg	NY	Right	Yes	0.729246899994905	0	262878	252
515.49609375	0.729246899994905	health	choicePhaseStart	1	28	28	foodImage.46	FOODEEG_Images\0479.jpg	NY	Right	Yes	0.729246899994905	0	263935	253
516.21484375	0	health	response	1	28	28	foodImage.46	FOODEEG_Images\0479.jpg	NY	Right	Yes	0.729246899994905	0	264303	235
517.255859375	1	decision	trialStart	1	29	29	foodImage.97	FOODEEG_Images\0905.jpg	NY	Left	No	0.954864200000884	0	264836	251
518.29296875	2	decision	foodImageDisplay	1	29	29	foodImage.97	FOODEEG_Images\0905.jpg	NY	Left	No	0.954864200000884	0	265367	252
520.357421875	0.954864200000884	decision	choicePhaseStart	1	29	29	foodImage.97	FOODEEG_Images\0905.jpg	NY	Left	No	0.954864200000884	0	266424	253
521.302734375	0	decision	response	1	29	29	foodImage.97	FOODEEG_Images\0905.jpg	NY	Left	No	0.954864200000884	0	266908	234
522.34375	1	taste	trialStart	1	30	30	foodImage.60	FOODEEG_Images\0614.jpg	YN	Left	Yes	0.713474700001825	0	267441	251
523.400390625	2	taste	foodImageDisplay	1	30	30	foodImage.60	FOODEEG_Images\0614.jpg	YN	Left	Yes	0.713474700001825	0	267982	252
525.462890625	0.713474700001825	taste	choicePhaseStart	1	30	30	foodImage.60	FOODEEG_Images\0614.jpg	YN	Left	Yes	0.713474700001825	0	269038	253
526.166015625	0	taste	response	1	30	30	foodImage.60	FOODEEG_Images\0614.jpg	YN	Left	Yes	0.713474700001825	0	269398	234
527.20703125	1	taste	trialStart	1	31	31	foodImage.101	FOODEEG_Images\0909.jpg	YN	Right	No	0.741079300001729	0	269931	251
528.244140625	2	taste	foodImageDisplay	1	31	31	foodImage.101	FOODEEG_Images\0909.jpg	YN	Right	No	0.741079300001729	0	270462	252
530.306640625	0.741079300001729	taste	choicePhaseStart	1	31	31	foodImage.101	FOODEEG_Images\0909.jpg	YN	Right	No	0.741079300001729	0	271518	253
531.0390625	0	taste	response	1	31	31	foodImage.101	FOODEEG_Images\0909.jpg	YN	Right	No	0.741079300001729	0	271893	235
532.083984375	1	taste	trialStart	1	32	32	foodImage.71	FOODEEG_Images\0713.jpg	NY	Right	Yes	0.679264099999273	0	272428	251
533.126953125	2	taste	foodImageDisplay	1	32	32	foodImage.71	FOODEEG_Images\0713.jpg	NY	Right	Yes	0.679264099999273	0	272962	252
535.189453125	0.679264099999273	taste	choicePhaseStart	1	32	32	foodImage.71	FOODEEG_Images\0713.jpg	NY	Right	Yes	0.679264099999273	0	274018	253
535.861328125	0	taste	response	1	32	32	foodImage.71	FOODEEG_Images\0713.jpg	NY	Right	Yes	0.679264099999273	0	274362	235
536.900390625	1	health	trialStart	1	33	33	foodImage.74	FOODEEG_Images\0752.jpg	NY	Right	Yes	0.628766800000449	0	274894	251
537.9453125	2	health	foodImageDisplay	1	33	33	foodImage.74	FOODEEG_Images\0752.jpg	NY	Right	Yes	0.628766800000449	0	275429	252
540.0078125	0.628766800000449	health	choicePhaseStart	1	33	33	foodImage.74	FOODEEG_Images\0752.jpg	NY	Right	Yes	0.628766800000449	0	276485	253
540.630859375	0	health	response	1	33	33	foodImage.74	FOODEEG_Images\0752.jpg	NY	Right	Yes	0.628766800000449	0	276804	235
541.669921875	1	taste	trialStart	1	34	34	foodImage.25	FOODEEG_Images\0261.jpg	NY	Left	No	0.656154699994659	0	277336	251
542.7109375	2	taste	foodImageDisplay	1	34	34	foodImage.25	FOODEEG_Images\0261.jpg	NY	Left	No	0.656154699994659	0	277869	252
544.775390625	0.656154699994659	taste	choicePhaseStart	1	34	34	foodImage.25	FOODEEG_Images\0261.jpg	NY	Left	No	0.656154699994659	0	278926	253
545.421875	0	taste	response	1	34	34	foodImage.25	FOODEEG_Images\0261.jpg	NY	Left	No	0.656154699994659	0	279257	234
546.462890625	1	taste	trialStart	1	35	35	foodImage.107	FOODEEG_Images\0915.jpg	NY	Left	No	0.651042600002256	0	279790	251
547.5	2	taste	foodImageDisplay	1	35	35	foodImage.107	FOODEEG_Images\0915.jpg	NY	Left	No	0.651042600002256	0	280321	252
549.5625	0.651042600002256	taste	choicePhaseStart	1	35	35	foodImage.107	FOODEEG_Images\0915.jpg	NY	Left	No	0.651042600002256	0	281377	253
550.205078125	0	taste	response	1	35	35	foodImage.107	FOODEEG_Images\0915.jpg	NY	Left	No	0.651042600002256	0	281706	234
551.248046875	1	health	trialStart	1	36	36	foodImage.29	FOODEEG_Images\0278.jpg	NY	Right	Yes	0.909766199998558	0	282240	251
552.2890625	2	health	foodImageDisplay	1	36	36	foodImage.29	FOODEEG_Images\0278.jpg	NY	Right	Yes	0.909766199998558	0	282773	252
554.353515625	0.909766199998558	health	choicePhaseStart	1	36	36	foodImage.29	FOODEEG_Images\0278.jpg	NY	Right	Yes	0.909766199998558	0	283830	253
555.25390625	0	health	response	1	36	36	foodImage.29	FOODEEG_Images\0278.jpg	NY	Right	Yes	0.909766199998558	0	284291	235
556.294921875	1	taste	trialStart	1	37	37	foodImage.32	FOODEEG_Images\0319.jpg	YN	Left	Yes	0.649559099998442	0	284824	251
557.357421875	2	taste	foodImageDisplay	1	37	37	foodImage.32	FOODEEG_Images\0319.jpg	YN	Left	Yes	0.649559099998442	0	285368	252
559.421875	0.649559099998442	taste	choicePhaseStart	1	37	37	foodImage.32	FOODEEG_Images\0319.jpg	YN	Left	Yes	0.649559099998442	0	286425	253
560.060546875	0	taste	response	1	37	37	foodImage.32	FOODEEG_Images\0319.jpg	YN	Left	Yes	0.649559099998442	0	286752	234
561.103515625	1	decision	trialStart	1	38	38	foodImage.1	FOODEEG_Images\0004.jpg	NY	Right	Yes	0.717067199999292	0	287286	251
562.162109375	2	decision	foodImageDisplay	1	38	38	foodImage.1	FOODEEG_Images\0004.jpg	NY	Right	Yes	0.717067199999292	0	287828	252
564.224609375	0.717067199999292	decision	choicePhaseStart	1	38	38	foodImage.1	FOODEEG_Images\0004.jpg	NY	Right	Yes	0.717067199999292	0	288884	253
564.93359375	0	decision	response	1	38	38	foodImage.1	FOODEEG_Images\0004.jpg	NY	Right	Yes	0.717067199999292	0	289247	235
565.9765625	1	taste	trialStart	1	39	39	foodImage.68	FOODEEG_Images\0685.jpg	YN	Left	Yes	0.625434499997937	0	289781	251
567.05078125	2	taste	foodImageDisplay	1	39	39	foodImage.68	FOODEEG_Images\0685.jpg	YN	Left	Yes	0.625434499997937	0	290331	252
569.11328125	0.625434499997937	taste	choicePhaseStart	1	39	39	foodImage.68	FOODEEG_Images\0685.jpg	YN	Left	Yes	0.625434499997937	0	291387	253
569.732421875	0	taste	response	1	39	39	foodImage.68	FOODEEG_Images\0685.jpg	YN	Left	Yes	0.625434499997937	0	291704	234
570.7734375	1	decision	trialStart	1	40	40	foodImage.95	FOODEEG_Images\0903.jpg	NY	Left	No	0.684030899996287	0	292237	251
571.826171875	2	decision	foodImageDisplay	1	40	40	foodImage.95	FOODEEG_Images\0903.jpg	NY	Left	No	0.684030899996287	0	292776	252
573.890625	0.684030899996287	decision	choicePhaseStart	1	40	40	foodImage.95	FOODEEG_Images\0903.jpg	NY	Left	No	0.684030899996287	0	293833	253
574.564453125	0	decision	response	1	40	40	foodImage.95	FOODEEG_Images\0903.jpg	NY	Left	No	0.684030899996287	0	294178	234
575.60546875	1	decision	trialStart	1	41	41	foodImage.20	FOODEEG_Images\0226.jpg	NY	Left	No	0.691705199998978	0	294711	251
576.646484375	2	decision	foodImageDisplay	1	41	41	foodImage.20	FOODEEG_Images\0226.jpg	NY	Left	No	0.691705199998978	0	295244	252
578.712890625	0.691705199998978	decision	choicePhaseStart	1	41	41	foodImage.20	FOODEEG_Images\0226.jpg	NY	Left	No	0.691705199998978	0	296302	253
579.396484375	0	decision	response	1	41	41	foodImage.20	FOODEEG_Images\0226.jpg	NY	Left	No	0.691705199998978	0	296652	234
580.4375	1	taste	trialStart	1	42	42	foodImage.29	FOODEEG_Images\0278.jpg	NY	Left	No	0.93668869999965	0	297185	251
581.4765625	2	taste	foodImageDisplay	1	42	42	foodImage.29	FOODEEG_Images\0278.jpg	NY	Left	No	0.93668869999965	0	297717	252
583.541015625	0.93668869999965	taste	choicePhaseStart	1	42	42	foodImage.29	FOODEEG_Images\0278.jpg	NY	Left	No	0.93668869999965	0	298774	253
584.46875	0	taste	response	1	42	42	foodImage.29	FOODEEG_Images\0278.jpg	NY	Left	No	0.93668869999965	0	299249	234
585.509765625	1	taste	trialStart	1	43	43	foodImage.82	FOODEEG_Images\0805.jpg	YN	Left	Yes	0.753813100003754	0	299782	251
586.5625	2	taste	foodImageDisplay	1	43	43	foodImage.82	FOODEEG_Images\0805.jpg	YN	Left	Yes	0.753813100003754	0	300321	252
588.625	0.753813100003754	taste	choicePhaseStart	1	43	43	foodImage.82	FOODEEG_Images\0805.jpg	YN	Left	Yes	0.753813100003754	0	301377	253
589.37109375	0	taste	response	1	43	43	foodImage.82	FOODEEG_Images\0805.jpg	YN	Left	Yes	0.753813100003754	0	301759	234
590.412109375	1	taste	trialStart	1	44	44	foodImage.112	FOODEEG_Images\0920.jpg	YN	Right	No	0.724866600001405	0	302292	251
591.451171875	2	taste	foodImageDisplay	1	44	44	foodImage.112	FOODEEG_Images\0920.jpg	YN	Right	No	0.724866600001405	0	302824	252
593.521484375	0.724866600001405	taste	choicePhaseStart	1	44	44	foodImage.112	FOODEEG_Images\0920.jpg	YN	Right	No	0.724866600001405	0	303884	253
594.236328125	0	taste	response	1	44	44	foodImage.112	FOODEEG_Images\0920.jpg	YN	Right	No	0.724866600001405	0	304250	235
595.27734375	1	decision	trialStart	1	45	45	foodImage.115	FOODEEG_Images\0923.jpg	YN	Right	No	0.710146199999144	0	304783	251
596.333984375	2	decision	foodImageDisplay	1	45	45	foodImage.115	FOODEEG_Images\0923.jpg	YN	Right	No	0.710146199999144	0	305324	252
598.3984375	0.710146199999144	decision	choicePhaseStart	1	45	45	foodImage.115	FOODEEG_Images\0923.jpg	YN	Right	No	0.710146199999144	0	306381	253
599.099609375	0	decision	response	1	45	45	foodImage.115	FOODEEG_Images\0923.jpg	YN	Right	No	0.710146199999144	0	306740	235
600.138671875	1	taste	trialStart	1	46	46	foodImage.117	FOODEEG_Images\0925.jpg	NY	Right	Yes	0.619716699999117	0	307272	251
601.193359375	2	taste	foodImageDisplay	1	46	46	foodImage.117	FOODEEG_Images\0925.jpg	NY	Right	Yes	0.619716699999117	0	307812	252
603.2578125	0.619716699999117	taste	choicePhaseStart	1	46	46	foodImage.117	FOODEEG_Images\0925.jpg	NY	Right	Yes	0.619716699999117	0	308869	253
603.8671875	0	taste	response	1	46	46	foodImage.117	FOODEEG_Images\0925.jpg	NY	Right	Yes	0.619716699999117	0	309181	235
604.91015625	1	decision	trialStart	1	47	47	foodImage.2	FOODEEG_Images\0028.jpg	NY	Right	Yes	0.670967199999723	0	309715	251
605.951171875	2	decision	foodImageDisplay	1	47	47	foodImage.2	FOODEEG_Images\0028.jpg	NY	Right	Yes	0.670967199999723	0	310248	252
608.013671875	0.670967199999723	decision	choicePhaseStart	1	47	47	foodImage.2	FOODEEG_Images\0028.jpg	NY	Right	Yes	0.670967199999723	0	311304	253
608.67578125	0	decision	response	1	47	47	foodImage.2	FOODEEG_Images\0028.jpg	NY	Right	Yes	0.670967199999723	0	311643	235
609.716796875	1	health	trialStart	1	48	48	foodImage.77	FOODEEG_Images\0771.jpg	NY	Right	Yes	0.589746700003161	0	312176	251
610.759765625	2	health	foodImageDisplay	1	48	48	foodImage.77	FOODEEG_Images\0771.jpg	NY	Right	Yes	0.589746700003161	0	312710	252
612.822265625	0.589746700003161	health	choicePhaseStart	1	48	48	foodImage.77	FOODEEG_Images\0771.jpg	NY	Right	Yes	0.589746700003161	0	313766	253
613.40234375	0	health	response	1	48	48	foodImage.77	FOODEEG_Images\0771.jpg	NY	Right	Yes	0.589746700003161	0	314063	235
614.443359375	1	health	trialStart	1	49	49	foodImage.9	FOODEEG_Images\0138.jpg	NY	Left	No	0.616633600002388	0	314596	251
615.5	2	health	foodImageDisplay	1	49	49	foodImage.9	FOODEEG_Images\0138.jpg	NY	Left	No	0.616633600002388	0	315137	252
617.564453125	0.616633600002388	health	choicePhaseStart	1	49	49	foodImage.9	FOODEEG_Images\0138.jpg	NY	Left	No	0.616633600002388	0	316194	253
618.171875	0	health	response	1	49	49	foodImage.9	FOODEEG_Images\0138.jpg	NY	Left	No	0.616633600002388	0	316505	234
619.2109375	1	taste	trialStart	1	50	50	foodImage.65	FOODEEG_Images\0658.jpg	YN	Right	No	0.785824799997499	0	317037	251
620.251953125	2	taste	foodImageDisplay	1	50	50	foodImage.65	FOODEEG_Images\0658.jpg	YN	Right	No	0.785824799997499	0	317570	252
622.314453125	0.785824799997499	taste	choicePhaseStart	1	50	50	foodImage.65	FOODEEG_Images\0658.jpg	YN	Right	No	0.785824799997499	0	318626	253
623.08984375	0	taste	response	1	50	50	foodImage.65	FOODEEG_Images\0658.jpg	YN	Right	No	0.785824799997499	0	319023	235
624.130859375	1	taste	trialStart	1	51	51	foodImage.7	FOODEEG_Images\0116.jpg	YN	Left	Yes	0.568618799996329	0	319556	251
625.171875	2	taste	foodImageDisplay	1	51	51	foodImage.7	FOODEEG_Images\0116.jpg	YN	Left	Yes	0.568618799996329	0	320089	252
627.236328125	0.568618799996329	taste	choicePhaseStart	1	51	51	foodImage.7	FOODEEG_Images\0116.jpg	YN	Left	Yes	0.568618799996329	0	321146	253
627.794921875	0	taste	response	1	51	51	foodImage.7	FOODEEG_Images\0116.jpg	YN	Left	Yes	0.568618799996329	0	321432	234
628.833984375	1	taste	trialStart	1	52	52	foodImage.22	FOODEEG_Images\0236.jpg	YN	Left	Yes	0.391134499994223	0	321964	251
629.880859375	2	taste	foodImageDisplay	1	52	52	foodImage.22	FOODEEG_Images\0236.jpg	YN	Left	Yes	0.391134499994223	0	322500	252
631.94921875	0.391134499994223	taste	choicePhaseStart	1	52	52	foodImage.22	FOODEEG_Images\0236.jpg	YN	Left	Yes	0.391134499994223	0	323559	253
632.330078125	0	taste	response	1	52	52	foodImage.22	FOODEEG_Images\0236.jpg	YN	Left	Yes	0.391134499994223	0	323754	234
633.37109375	1	taste	trialStart	1	53	53	foodImage.89	FOODEEG_Images\0881.jpg	YN	Left	Yes	0.382282200000191	0	324287	251
634.451171875	2	taste	foodImageDisplay	1	53	53	foodImage.89	FOODEEG_Images\0881.jpg	YN	Left	Yes	0.382282200000191	0	324840	252
636.513671875	0.382282200000191	taste	choicePhaseStart	1	53	53	foodImage.89	FOODEEG_Images\0881.jpg	YN	Left	Yes	0.382282200000191	0	325896	253
636.890625	0	taste	response	1	53	53	foodImage.89	FOODEEG_Images\0881.jpg	YN	Left	Yes	0.382282200000191	0	326089	234
637.931640625	1	health	trialStart	1	54	54	foodImage.65	FOODEEG_Images\0658.jpg	YN	Right	No	0.481370199995581	0	326622	251
638.9921875	2	health	foodImageDisplay	1	54	54	foodImage.65	FOODEEG_Images\0658.jpg	YN	Right	No	0.481370199995581	0	327165	252
641.056640625	0.481370199995581	health	choicePhaseStart	1	54	54	foodImage.65	FOODEEG_Images\0658.jpg	YN	Right	No	0.481370199995581	0	328222	253
641.529296875	0	health	response	1	54	54	foodImage.65	FOODEEG_Images\0658.jpg	YN	Right	No	0.481370199995581	0	328464	235
642.5703125	1	decision	trialStart	1	55	55	foodImage.70	FOODEEG_Images\0705.jpg	YN	Left	Yes	0.537500999998883	0	328997	251
643.626953125	2	decision	foodImageDisplay	1	55	55	foodImage.70	FOODEEG_Images\0705.jpg	YN	Left	Yes	0.537500999998883	0	329538	252
645.69140625	0.537500999998883	decision	choicePhaseStart	1	55	55	foodImage.70	FOODEEG_Images\0705.jpg	YN	Left	Yes	0.537500999998883	0	330595	253
646.21875	0	decision	response	1	55	55	foodImage.70	FOODEEG_Images\0705.jpg	YN	Left	Yes	0.537500999998883	0	330865	234
647.2578125	1	decision	trialStart	1	56	56	foodImage.42	FOODEEG_Images\0438.jpg	NY	Left	No	0.533724099994288	0	331397	251
648.341796875	2	decision	foodImageDisplay	1	56	56	foodImage.42	FOODEEG_Images\0438.jpg	NY	Left	No	0.533724099994288	0	331952	252
650.40625	0.533724099994288	decision	choicePhaseStart	1	56	56	foodImage.42	FOODEEG_Images\0438.jpg	NY	Left	No	0.533724099994288	0	333009	253
650.9296875	0	decision	response	1	56	56	foodImage.42	FOODEEG_Images\0438.jpg	NY	Left	No	0.533724099994288	0	333277	234
651.974609375	1	taste	trialStart	1	57	57	foodImage.110	FOODEEG_Images\0918.jpg	NY	Left	No	0.614315400001942	0	333812	251
653.013671875	2	taste	foodImageDisplay	1	57	57	foodImage.110	FOODEEG_Images\0918.jpg	NY	Left	No	0.614315400001942	0	334344	252
655.076171875	0.614315400001942	taste	choicePhaseStart	1	57	57	foodImage.110	FOODEEG_Images\0918.jpg	NY	Left	No	0.614315400001942	0	335400	253
655.681640625	0	taste	response	1	57	57	foodImage.110	FOODEEG_Images\0918.jpg	NY	Left	No	0.614315400001942	0	335710	234
656.74609375	1	taste	trialStart	1	58	58	foodImage.39	FOODEEG_Images\0367.jpg	NY	Right	Yes	0.644495699998515	0	336255	251
657.783203125	2	taste	foodImageDisplay	1	58	58	foodImage.39	FOODEEG_Images\0367.jpg	NY	Right	Yes	0.644495699998515	0	336786	252
659.845703125	0.644495699998515	taste	choicePhaseStart	1	58	58	foodImage.39	FOODEEG_Images\0367.jpg	NY	Right	Yes	0.644495699998515	0	337842	253
660.48046875	0	taste	response	1	58	58	foodImage.39	FOODEEG_Images\0367.jpg	NY	Right	Yes	0.644495699998515	0	338167	235
661.52734375	1	decision	trialStart	1	59	59	foodImage.8	FOODEEG_Images\0136.jpg	NY	Right	Yes	0.72330040000088	0	338703	251
662.56640625	2	decision	foodImageDisplay	1	59	59	foodImage.8	FOODEEG_Images\0136.jpg	NY	Right	Yes	0.72330040000088	0	339235	252
664.630859375	0.72330040000088	decision	choicePhaseStart	1	59	59	foodImage.8	FOODEEG_Images\0136.jpg	NY	Right	Yes	0.72330040000088	0	340292	253
665.345703125	0	decision	response	1	59	59	foodImage.8	FOODEEG_Images\0136.jpg	NY	Right	Yes	0.72330040000088	0	340658	235
666.390625	1	taste	trialStart	1	60	60	foodImage.104	FOODEEG_Images\0912.jpg	YN	Right	No	0.775553100000252	0	341193	251
667.427734375	2	taste	foodImageDisplay	1	60	60	foodImage.104	FOODEEG_Images\0912.jpg	YN	Right	No	0.775553100000252	0	341724	252
669.490234375	0.775553100000252	taste	choicePhaseStart	1	60	60	foodImage.104	FOODEEG_Images\0912.jpg	YN	Right	No	0.775553100000252	0	342780	253
670.2578125	0	taste	response	1	60	60	foodImage.104	FOODEEG_Images\0912.jpg	YN	Right	No	0.775553100000252	0	343173	235
672.296875	37.19140625	n/a	blockEnd	n/a	n/a	n/a	n/a	n/a	n/a	n/a	n/a	n/a	n/a	344217	254
709.48828125	2	n/a	blockStart	2	n/a	n/a	n/a	n/a	n/a	n/a	n/a	n/a	n/a	363259	250
711.51953125	1	taste	trialStart	2	61	1	foodImage.6	FOODEEG_Images\0113.jpg	NY	Right	Yes	0.710035700001754	0	364299	251
712.5625	2	taste	foodImageDisplay	2	61	1	foodImage.6	FOODEEG_Images\0113.jpg	NY	Right	Yes	0.710035700001754	0	364833	252
714.625	0.710035700001754	taste	choicePhaseStart	2	61	1	foodImage.6	FOODEEG_Images\0113.jpg	NY	Right	Yes	0.710035700001754	0	365889	253
715.326171875	0	taste	response	2	61	1	foodImage.6	FOODEEG_Images\0113.jpg	NY	Right	Yes	0.710035700001754	0	366248	235
716.37109375	1	taste	trialStart	2	62	2	foodImage.43	FOODEEG_Images\0445.jpg	NY	Left	No	0.597037200001068	0	366783	251
717.427734375	2	taste	foodImageDisplay	2	62	2	foodImage.43	FOODEEG_Images\0445.jpg	NY	Left	No	0.597037200001068	0	367324	252
719.4921875	0.597037200001068	taste	choicePhaseStart	2	62	2	foodImage.43	FOODEEG_Images\0445.jpg	NY	Left	No	0.597037200001068	0	368381	253
720.078125	0	taste	response	2	62	2	foodImage.43	FOODEEG_Images\0445.jpg	NY	Left	No	0.597037200001068	0	368681	234
721.119140625	1	health	trialStart	2	63	3	foodImage.28	FOODEEG_Images\0273.jpg	YN	Left	Yes	0.822375600000669	0	369214	251
722.162109375	2	health	foodImageDisplay	2	63	3	foodImage.28	FOODEEG_Images\0273.jpg	YN	Left	Yes	0.822375600000669	0	369748	252
724.224609375	0.822375600000669	health	choicePhaseStart	2	63	3	foodImage.28	FOODEEG_Images\0273.jpg	YN	Left	Yes	0.822375600000669	0	370804	253
725.0390625	0	health	response	2	63	3	foodImage.28	FOODEEG_Images\0273.jpg	YN	Left	Yes	0.822375600000669	0	371221	234
726.078125	1	taste	trialStart	2	64	4	foodImage.57	FOODEEG_Images\0587.jpg	NY	Left	No	0.839074000003166	0	371753	251
727.12109375	2	taste	foodImageDisplay	2	64	4	foodImage.57	FOODEEG_Images\0587.jpg	NY	Left	No	0.839074000003166	0	372287	252
729.185546875	0.839074000003166	taste	choicePhaseStart	2	64	4	foodImage.57	FOODEEG_Images\0587.jpg	NY	Left	No	0.839074000003166	0	373344	253
730.013671875	0	taste	response	2	64	4	foodImage.57	FOODEEG_Images\0587.jpg	NY	Left	No	0.839074000003166	0	373768	234
731.0546875	1	health	trialStart	2	65	5	foodImage.16	FOODEEG_Images\0196.jpg	NY	Right	Yes	0.556395899999188	0	374301	251
732.11328125	2	health	foodImageDisplay	2	65	5	foodImage.16	FOODEEG_Images\0196.jpg	NY	Right	Yes	0.556395899999188	0	374843	252
734.177734375	0.556395899999188	health	choicePhaseStart	2	65	5	foodImage.16	FOODEEG_Images\0196.jpg	NY	Right	Yes	0.556395899999188	0	375900	253
734.7265625	0	health	response	2	65	5	foodImage.16	FOODEEG_Images\0196.jpg	NY	Right	Yes	0.556395899999188	0	376181	235
735.76953125	1	health	trialStart	2	66	6	foodImage.3	FOODEEG_Images\0046.jpg	NY	Left	No	0.992578499994124	0	376715	251
736.814453125	2	health	foodImageDisplay	2	66	6	foodImage.3	FOODEEG_Images\0046.jpg	NY	Left	No	0.992578499994124	0	377250	252
738.87890625	0.992578499994124	health	choicePhaseStart	2	66	6	foodImage.3	FOODEEG_Images\0046.jpg	NY	Left	No	0.992578499994124	0	378307	253
739.861328125	0	health	response	2	66	6	foodImage.3	FOODEEG_Images\0046.jpg	NY	Left	No	0.992578499994124	0	378810	234
740.90234375	1	health	trialStart	2	67	7	foodImage.79	FOODEEG_Images\0794.jpg	NY	Right	Yes	0.540262000002258	0	379343	251
741.9453125	2	health	foodImageDisplay	2	67	7	foodImage.79	FOODEEG_Images\0794.jpg	NY	Right	Yes	0.540262000002258	0	379877	252
744.009765625	0.540262000002258	health	choicePhaseStart	2	67	7	foodImage.79	FOODEEG_Images\0794.jpg	NY	Right	Yes	0.540262000002258	0	380934	253
744.541015625	0	health	response	2	67	7	foodImage.79	FOODEEG_Images\0794.jpg	NY	Right	Yes	0.540262000002258	0	381206	235
745.58203125	1	taste	trialStart	2	68	8	foodImage.62	FOODEEG_Images\0644.jpg	YN	Right	No	0.64935329999571	0	381739	251
746.662109375	2	taste	foodImageDisplay	2	68	8	foodImage.62	FOODEEG_Images\0644.jpg	YN	Right	No	0.64935329999571	0	382292	252
748.724609375	0.64935329999571	taste	choicePhaseStart	2	68	8	foodImage.62	FOODEEG_Images\0644.jpg	YN	Right	No	0.64935329999571	0	383348	253
749.365234375	0	taste	response	2	68	8	foodImage.62	FOODEEG_Images\0644.jpg	YN	Right	No	0.64935329999571	0	383676	235
750.40625	1	health	trialStart	2	69	9	foodImage.41	FOODEEG_Images\0409.jpg	YN	Left	Yes	0.513427799996862	0	384209	251
751.453125	2	health	foodImageDisplay	2	69	9	foodImage.41	FOODEEG_Images\0409.jpg	YN	Left	Yes	0.513427799996862	0	384745	252
753.517578125	0.513427799996862	health	choicePhaseStart	2	69	9	foodImage.41	FOODEEG_Images\0409.jpg	YN	Left	Yes	0.513427799996862	0	385802	253
754.021484375	0	health	response	2	69	9	foodImage.41	FOODEEG_Images\0409.jpg	YN	Left	Yes	0.513427799996862	0	386060	234
755.060546875	1	health	trialStart	2	70	10	foodImage.104	FOODEEG_Images\0912.jpg	YN	Right	No	0.530632900001365	0	386592	251
756.099609375	2	health	foodImageDisplay	2	70	10	foodImage.104	FOODEEG_Images\0912.jpg	YN	Right	No	0.530632900001365	0	387124	252
758.1640625	0.530632900001365	health	choicePhaseStart	2	70	10	foodImage.104	FOODEEG_Images\0912.jpg	YN	Right	No	0.530632900001365	0	388181	253
758.685546875	0	health	response	2	70	10	foodImage.104	FOODEEG_Images\0912.jpg	YN	Right	No	0.530632900001365	0	388448	235
759.724609375	1	health	trialStart	2	71	11	foodImage.68	FOODEEG_Images\0685.jpg	NY	Left	No	0.561188899999252	0	388980	251
760.796875	2	health	foodImageDisplay	2	71	11	foodImage.68	FOODEEG_Images\0685.jpg	NY	Left	No	0.561188899999252	0	389529	252
762.861328125	0.561188899999252	health	choicePhaseStart	2	71	11	foodImage.68	FOODEEG_Images\0685.jpg	NY	Left	No	0.561188899999252	0	390586	253
763.4140625	0	health	response	2	71	11	foodImage.68	FOODEEG_Images\0685.jpg	NY	Left	No	0.561188899999252	0	390869	234
764.453125	1	taste	trialStart	2	72	12	foodImage.66	FOODEEG_Images\0676.jpg	YN	Left	Yes	0.664986900002987	0	391401	251
765.494140625	2	taste	foodImageDisplay	2	72	12	foodImage.66	FOODEEG_Images\0676.jpg	YN	Left	Yes	0.664986900002987	0	391934	252
767.556640625	0.664986900002987	taste	choicePhaseStart	2	72	12	foodImage.66	FOODEEG_Images\0676.jpg	YN	Left	Yes	0.664986900002987	0	392990	253
768.212890625	0	taste	response	2	72	12	foodImage.66	FOODEEG_Images\0676.jpg	YN	Left	Yes	0.664986900002987	0	393326	234
769.251953125	1	decision	trialStart	2	73	13	foodImage.47	FOODEEG_Images\0488.jpg	NY	Right	Yes	1.00655779999943	0	393858	251
770.294921875	2	decision	foodImageDisplay	2	73	13	foodImage.47	FOODEEG_Images\0488.jpg	NY	Right	Yes	1.00655779999943	0	394392	252
772.357421875	1.00655779999943	decision	choicePhaseStart	2	73	13	foodImage.47	FOODEEG_Images\0488.jpg	NY	Right	Yes	1.00655779999943	0	395448	253
773.357421875	0	decision	response	2	73	13	foodImage.47	FOODEEG_Images\0488.jpg	NY	Right	Yes	1.00655779999943	0	395960	235
774.396484375	1	taste	trialStart	2	74	14	foodImage.97	FOODEEG_Images\0905.jpg	YN	Right	No	0.702376900000672	0	396492	251
775.4453125	2	taste	foodImageDisplay	2	74	14	foodImage.97	FOODEEG_Images\0905.jpg	YN	Right	No	0.702376900000672	0	397029	252
777.509765625	0.702376900000672	taste	choicePhaseStart	2	74	14	foodImage.97	FOODEEG_Images\0905.jpg	YN	Right	No	0.702376900000672	0	398086	253
778.205078125	0	taste	response	2	74	14	foodImage.97	FOODEEG_Images\0905.jpg	YN	Right	No	0.702376900000672	0	398442	235
779.244140625	1	taste	trialStart	2	75	15	foodImage.53	FOODEEG_Images\0547.jpg	YN	Left	Yes	0.60322879999876	0	398974	251
780.306640625	2	taste	foodImageDisplay	2	75	15	foodImage.53	FOODEEG_Images\0547.jpg	YN	Left	Yes	0.60322879999876	0	399518	252
782.37109375	0.60322879999876	taste	choicePhaseStart	2	75	15	foodImage.53	FOODEEG_Images\0547.jpg	YN	Left	Yes	0.60322879999876	0	400575	253
782.96484375	0	taste	response	2	75	15	foodImage.53	FOODEEG_Images\0547.jpg	YN	Left	Yes	0.60322879999876	0	400879	234
784.005859375	1	decision	trialStart	2	76	16	foodImage.29	FOODEEG_Images\0278.jpg	NY	Left	No	0.494780799999717	0	401412	251
785.046875	2	decision	foodImageDisplay	2	76	16	foodImage.29	FOODEEG_Images\0278.jpg	NY	Left	No	0.494780799999717	0	401945	252
787.111328125	0.494780799999717	decision	choicePhaseStart	2	76	16	foodImage.29	FOODEEG_Images\0278.jpg	NY	Left	No	0.494780799999717	0	403002	253
787.595703125	0	decision	response	2	76	16	foodImage.29	FOODEEG_Images\0278.jpg	NY	Left	No	0.494780799999717	0	403250	234
788.638671875	1	decision	trialStart	2	77	17	foodImage.17	FOODEEG_Images\0199.jpg	YN	Right	No	0.67679969999881	0	403784	251
789.681640625	2	decision	foodImageDisplay	2	77	17	foodImage.17	FOODEEG_Images\0199.jpg	YN	Right	No	0.67679969999881	0	404318	252
791.744140625	0.67679969999881	decision	choicePhaseStart	2	77	17	foodImage.17	FOODEEG_Images\0199.jpg	YN	Right	No	0.67679969999881	0	405374	253
792.412109375	0	decision	response	2	77	17	foodImage.17	FOODEEG_Images\0199.jpg	YN	Right	No	0.67679969999881	0	405716	235
793.453125	1	health	trialStart	2	78	18	foodImage.34	FOODEEG_Images\0339.jpg	YN	Right	No	1.02035900000192	0	406249	251
794.513671875	2	health	foodImageDisplay	2	78	18	foodImage.34	FOODEEG_Images\0339.jpg	YN	Right	No	1.02035900000192	0	406792	252
796.576171875	1.02035900000192	health	choicePhaseStart	2	78	18	foodImage.34	FOODEEG_Images\0339.jpg	YN	Right	No	1.02035900000192	0	407848	253
797.587890625	0	health	response	2	78	18	foodImage.34	FOODEEG_Images\0339.jpg	YN	Right	No	1.02035900000192	0	408366	235
798.630859375	1	taste	trialStart	2	79	19	foodImage.63	FOODEEG_Images\0645.jpg	NY	Left	No	1.65988549999747	0	408900	251
799.681640625	2	taste	foodImageDisplay	2	79	19	foodImage.63	FOODEEG_Images\0645.jpg	NY	Left	No	1.65988549999747	0	409438	252
801.74609375	1.65988549999747	taste	choicePhaseStart	2	79	19	foodImage.63	FOODEEG_Images\0645.jpg	NY	Left	No	1.65988549999747	0	410495	253
803.396484375	0	taste	response	2	79	19	foodImage.63	FOODEEG_Images\0645.jpg	NY	Left	No	1.65988549999747	0	411340	234
804.435546875	1	taste	trialStart	2	80	20	foodImage.76	FOODEEG_Images\0766.jpg	NY	Right	Yes	0.617231600001105	0	411872	251
805.5	2	taste	foodImageDisplay	2	80	20	foodImage.76	FOODEEG_Images\0766.jpg	NY	Right	Yes	0.617231600001105	0	412417	252
807.5625	0.617231600001105	taste	choicePhaseStart	2	80	20	foodImage.76	FOODEEG_Images\0766.jpg	NY	Right	Yes	0.617231600001105	0	413473	253
808.171875	0	taste	response	2	80	20	foodImage.76	FOODEEG_Images\0766.jpg	NY	Right	Yes	0.617231600001105	0	413785	235
809.2109375	1	taste	trialStart	2	81	21	foodImage.106	FOODEEG_Images\0914.jpg	NY	Left	No	0.54031880000548	0	414317	251
810.25	2	taste	foodImageDisplay	2	81	21	foodImage.106	FOODEEG_Images\0914.jpg	NY	Left	No	0.54031880000548	0	414849	252
812.3125	0.54031880000548	taste	choicePhaseStart	2	81	21	foodImage.106	FOODEEG_Images\0914.jpg	NY	Left	No	0.54031880000548	0	415905	253
812.84375	0	taste	response	2	81	21	foodImage.106	FOODEEG_Images\0914.jpg	NY	Left	No	0.54031880000548	0	416177	234
813.88671875	1	taste	trialStart	2	82	22	foodImage.1	FOODEEG_Images\0004.jpg	NY	Right	Yes	0.580012699996587	0	416711	251
814.9296875	2	taste	foodImageDisplay	2	82	22	foodImage.1	FOODEEG_Images\0004.jpg	NY	Right	Yes	0.580012699996587	0	417245	252
816.9921875	0.580012699996587	taste	choicePhaseStart	2	82	22	foodImage.1	FOODEEG_Images\0004.jpg	NY	Right	Yes	0.580012699996587	0	418301	253
817.5625	0	taste	response	2	82	22	foodImage.1	FOODEEG_Images\0004.jpg	NY	Right	Yes	0.580012699996587	0	418593	235
818.60546875	1	decision	trialStart	2	83	23	foodImage.81	FOODEEG_Images\0797.jpg	NY	Left	No	0.946013499997207	0	419127	251
819.666015625	2	decision	foodImageDisplay	2	83	23	foodImage.81	FOODEEG_Images\0797.jpg	NY	Left	No	0.946013499997207	0	419670	252
821.73046875	0.946013499997207	decision	choicePhaseStart	2	83	23	foodImage.81	FOODEEG_Images\0797.jpg	NY	Left	No	0.946013499997207	0	420727	253
822.666015625	0	decision	response	2	83	23	foodImage.81	FOODEEG_Images\0797.jpg	NY	Left	No	0.946013499997207	0	421206	234
823.70703125	1	decision	trialStart	2	84	24	foodImage.34	FOODEEG_Images\0339.jpg	YN	Left	Yes	0.526140900001337	0	421739	251
824.791015625	2	decision	foodImageDisplay	2	84	24	foodImage.34	FOODEEG_Images\0339.jpg	YN	Left	Yes	0.526140900001337	0	422294	252
826.853515625	0.526140900001337	decision	choicePhaseStart	2	84	24	foodImage.34	FOODEEG_Images\0339.jpg	YN	Left	Yes	0.526140900001337	0	423350	253
827.37109375	0	decision	response	2	84	24	foodImage.34	FOODEEG_Images\0339.jpg	YN	Left	Yes	0.526140900001337	0	423615	234
828.41015625	1	health	trialStart	2	85	25	foodImage.114	FOODEEG_Images\0922.jpg	YN	Right	No	0.604655499999353	0	424147	251
829.44921875	2	health	foodImageDisplay	2	85	25	foodImage.114	FOODEEG_Images\0922.jpg	YN	Right	No	0.604655499999353	0	424679	252
831.51171875	0.604655499999353	health	choicePhaseStart	2	85	25	foodImage.114	FOODEEG_Images\0922.jpg	YN	Right	No	0.604655499999353	0	425735	253
832.107421875	0	health	response	2	85	25	foodImage.114	FOODEEG_Images\0922.jpg	YN	Right	No	0.604655499999353	0	426040	235
833.15234375	1	health	trialStart	2	86	26	foodImage.32	FOODEEG_Images\0319.jpg	NY	Left	No	0.665264800001751	0	426575	251
834.1953125	2	health	foodImageDisplay	2	86	26	foodImage.32	FOODEEG_Images\0319.jpg	NY	Left	No	0.665264800001751	0	427109	252
836.2578125	0.665264800001751	health	choicePhaseStart	2	86	26	foodImage.32	FOODEEG_Images\0319.jpg	NY	Left	No	0.665264800001751	0	428165	253
836.9140625	0	health	response	2	86	26	foodImage.32	FOODEEG_Images\0319.jpg	NY	Left	No	0.665264800001751	0	428501	234
837.955078125	1	health	trialStart	2	87	27	foodImage.119	FOODEEG_Images\0927.jpg	YN	Right	No	0.707038500004273	0	429034	251
838.9921875	2	health	foodImageDisplay	2	87	27	foodImage.119	FOODEEG_Images\0927.jpg	YN	Right	No	0.707038500004273	0	429565	252
841.056640625	0.707038500004273	health	choicePhaseStart	2	87	27	foodImage.119	FOODEEG_Images\0927.jpg	YN	Right	No	0.707038500004273	0	430622	253
841.75390625	0	health	response	2	87	27	foodImage.119	FOODEEG_Images\0927.jpg	YN	Right	No	0.707038500004273	0	430979	235
842.794921875	1	health	trialStart	2	88	28	foodImage.14	FOODEEG_Images\0188.jpg	YN	Right	No	0.454658899994683	0	431512	251
843.8515625	2	health	foodImageDisplay	2	88	28	foodImage.14	FOODEEG_Images\0188.jpg	YN	Right	No	0.454658899994683	0	432053	252
845.916015625	0.454658899994683	health	choicePhaseStart	2	88	28	foodImage.14	FOODEEG_Images\0188.jpg	YN	Right	No	0.454658899994683	0	433110	253
846.361328125	0	health	response	2	88	28	foodImage.14	FOODEEG_Images\0188.jpg	YN	Right	No	0.454658899994683	0	433338	235
847.404296875	1	taste	trialStart	2	89	29	foodImage.5	FOODEEG_Images\0107.jpg	YN	Left	Yes	0.773970100002771	0	433872	251
848.486328125	2	taste	foodImageDisplay	2	89	29	foodImage.5	FOODEEG_Images\0107.jpg	YN	Left	Yes	0.773970100002771	0	434426	252
850.548828125	0.773970100002771	taste	choicePhaseStart	2	89	29	foodImage.5	FOODEEG_Images\0107.jpg	YN	Left	Yes	0.773970100002771	0	435482	253
851.314453125	0	taste	response	2	89	29	foodImage.5	FOODEEG_Images\0107.jpg	YN	Left	Yes	0.773970100002771	0	435874	234
852.35546875	1	taste	trialStart	2	90	30	foodImage.2	FOODEEG_Images\0028.jpg	YN	Left	Yes	0.585254400000849	0	436407	251
853.416015625	2	taste	foodImageDisplay	2	90	30	foodImage.2	FOODEEG_Images\0028.jpg	YN	Left	Yes	0.585254400000849	0	436950	252
855.478515625	0.585254400000849	taste	choicePhaseStart	2	90	30	foodImage.2	FOODEEG_Images\0028.jpg	YN	Left	Yes	0.585254400000849	0	438006	253
856.056640625	0	taste	response	2	90	30	foodImage.2	FOODEEG_Images\0028.jpg	YN	Left	Yes	0.585254400000849	0	438302	234
857.09765625	1	taste	trialStart	2	91	31	foodImage.40	FOODEEG_Images\0373.jpg	NY	Right	Yes	0.759645700003603	0	438835	251
858.138671875	2	taste	foodImageDisplay	2	91	31	foodImage.40	FOODEEG_Images\0373.jpg	NY	Right	Yes	0.759645700003603	0	439368	252
860.201171875	0.759645700003603	taste	choicePhaseStart	2	91	31	foodImage.40	FOODEEG_Images\0373.jpg	NY	Right	Yes	0.759645700003603	0	440424	253
860.953125	0	taste	response	2	91	31	foodImage.40	FOODEEG_Images\0373.jpg	NY	Right	Yes	0.759645700003603	0	440809	235
862	1	health	trialStart	2	92	32	foodImage.50	FOODEEG_Images\0529.jpg	NY	Right	Yes	0.809914000004937	0	441345	251
863.05859375	2	health	foodImageDisplay	2	92	32	foodImage.50	FOODEEG_Images\0529.jpg	NY	Right	Yes	0.809914000004937	0	441887	252
865.12109375	0.809914000004937	health	choicePhaseStart	2	92	32	foodImage.50	FOODEEG_Images\0529.jpg	NY	Right	Yes	0.809914000004937	0	442943	253
865.921875	0	health	response	2	92	32	foodImage.50	FOODEEG_Images\0529.jpg	NY	Right	Yes	0.809914000004937	0	443353	235
866.96484375	1	health	trialStart	2	93	33	foodImage.63	FOODEEG_Images\0645.jpg	YN	Right	No	0.8125663000028	0	443887	251
868.005859375	2	health	foodImageDisplay	2	93	33	foodImage.63	FOODEEG_Images\0645.jpg	YN	Right	No	0.8125663000028	0	444420	252
870.0703125	0.8125663000028	health	choicePhaseStart	2	93	33	foodImage.63	FOODEEG_Images\0645.jpg	YN	Right	No	0.8125663000028	0	445477	253
870.873046875	0	health	response	2	93	33	foodImage.63	FOODEEG_Images\0645.jpg	YN	Right	No	0.8125663000028	0	445888	235
871.912109375	1	decision	trialStart	2	94	34	foodImage.91	FOODEEG_Images\0896.jpg	YN	Left	Yes	0.559155700000701	0	446420	251
872.970703125	2	decision	foodImageDisplay	2	94	34	foodImage.91	FOODEEG_Images\0896.jpg	YN	Left	Yes	0.559155700000701	0	446962	252
875.03515625	0.559155700000701	decision	choicePhaseStart	2	94	34	foodImage.91	FOODEEG_Images\0896.jpg	YN	Left	Yes	0.559155700000701	0	448019	253
875.583984375	0	decision	response	2	94	34	foodImage.91	FOODEEG_Images\0896.jpg	YN	Left	Yes	0.559155700000701	0	448300	234
876.630859375	1	health	trialStart	2	95	35	foodImage.26	FOODEEG_Images\0262.jpg	NY	Right	Yes	0.841980400000466	0	448836	251
877.673828125	2	health	foodImageDisplay	2	95	35	foodImage.26	FOODEEG_Images\0262.jpg	NY	Right	Yes	0.841980400000466	0	449370	252
879.736328125	0.841980400000466	health	choicePhaseStart	2	95	35	foodImage.26	FOODEEG_Images\0262.jpg	NY	Right	Yes	0.841980400000466	0	450426	253
880.568359375	0	health	response	2	95	35	foodImage.26	FOODEEG_Images\0262.jpg	NY	Right	Yes	0.841980400000466	0	450852	235
881.609375	1	decision	trialStart	2	96	36	foodImage.98	FOODEEG_Images\0906.jpg	YN	Right	No	0.53167140000005	0	451385	251
882.6484375	2	decision	foodImageDisplay	2	96	36	foodImage.98	FOODEEG_Images\0906.jpg	YN	Right	No	0.53167140000005	0	451917	252
884.7109375	0.53167140000005	decision	choicePhaseStart	2	96	36	foodImage.98	FOODEEG_Images\0906.jpg	YN	Right	No	0.53167140000005	0	452973	253
885.232421875	0	decision	response	2	96	36	foodImage.98	FOODEEG_Images\0906.jpg	YN	Right	No	0.53167140000005	0	453240	235
886.271484375	1	taste	trialStart	2	97	37	foodImage.91	FOODEEG_Images\0896.jpg	YN	Left	Yes	0.409462300005544	0	453772	251
887.328125	2	taste	foodImageDisplay	2	97	37	foodImage.91	FOODEEG_Images\0896.jpg	YN	Left	Yes	0.409462300005544	0	454313	252
889.392578125	0.409462300005544	taste	choicePhaseStart	2	97	37	foodImage.91	FOODEEG_Images\0896.jpg	YN	Left	Yes	0.409462300005544	0	455370	253
889.79296875	0	taste	response	2	97	37	foodImage.91	FOODEEG_Images\0896.jpg	YN	Left	Yes	0.409462300005544	0	455575	234
890.833984375	1	decision	trialStart	2	98	38	foodImage.43	FOODEEG_Images\0445.jpg	YN	Right	No	0.366963599997689	0	456108	251
891.896484375	2	decision	foodImageDisplay	2	98	38	foodImage.43	FOODEEG_Images\0445.jpg	YN	Right	No	0.366963599997689	0	456652	252
893.9609375	0.366963599997689	decision	choicePhaseStart	2	98	38	foodImage.43	FOODEEG_Images\0445.jpg	YN	Right	No	0.366963599997689	0	457709	253
894.3203125	0	decision	response	2	98	38	foodImage.43	FOODEEG_Images\0445.jpg	YN	Right	No	0.366963599997689	0	457893	235
895.359375	1	health	trialStart	2	99	39	foodImage.113	FOODEEG_Images\0921.jpg	NY	Left	No	0.672862300001725	0	458425	251
896.3984375	2	health	foodImageDisplay	2	99	39	foodImage.113	FOODEEG_Images\0921.jpg	NY	Left	No	0.672862300001725	0	458957	252
898.4609375	0.672862300001725	health	choicePhaseStart	2	99	39	foodImage.113	FOODEEG_Images\0921.jpg	NY	Left	No	0.672862300001725	0	460013	253
899.126953125	0	health	response	2	99	39	foodImage.113	FOODEEG_Images\0921.jpg	NY	Left	No	0.672862300001725	0	460354	234
900.16796875	1	decision	trialStart	2	100	40	foodImage.77	FOODEEG_Images\0771.jpg	YN	Right	No	0.591121000004932	0	460887	251
901.2109375	2	decision	foodImageDisplay	2	100	40	foodImage.77	FOODEEG_Images\0771.jpg	YN	Right	No	0.591121000004932	0	461421	252
903.275390625	0.591121000004932	decision	choicePhaseStart	2	100	40	foodImage.77	FOODEEG_Images\0771.jpg	YN	Right	No	0.591121000004932	0	462478	253
903.85546875	0	decision	response	2	100	40	foodImage.77	FOODEEG_Images\0771.jpg	YN	Right	No	0.591121000004932	0	462775	235
904.896484375	1	taste	trialStart	2	101	41	foodImage.23	FOODEEG_Images\0244.jpg	YN	Left	Yes	0.856217499997001	0	463308	251
905.9375	2	taste	foodImageDisplay	2	101	41	foodImage.23	FOODEEG_Images\0244.jpg	YN	Left	Yes	0.856217499997001	0	463841	252
908	0.856217499997001	taste	choicePhaseStart	2	101	41	foodImage.23	FOODEEG_Images\0244.jpg	YN	Left	Yes	0.856217499997001	0	464897	253
908.84765625	0	taste	response	2	101	41	foodImage.23	FOODEEG_Images\0244.jpg	YN	Left	Yes	0.856217499997001	0	465331	234
909.890625	1	decision	trialStart	2	102	42	foodImage.6	FOODEEG_Images\0113.jpg	NY	Right	Yes	0.700980900001014	0	465865	251
910.931640625	2	decision	foodImageDisplay	2	102	42	foodImage.6	FOODEEG_Images\0113.jpg	NY	Right	Yes	0.700980900001014	0	466398	252
912.99609375	0.700980900001014	decision	choicePhaseStart	2	102	42	foodImage.6	FOODEEG_Images\0113.jpg	NY	Right	Yes	0.700980900001014	0	467455	253
913.6875	0	decision	response	2	102	42	foodImage.6	FOODEEG_Images\0113.jpg	NY	Right	Yes	0.700980900001014	0	467809	235
914.73046875	1	decision	trialStart	2	103	43	foodImage.105	FOODEEG_Images\0913.jpg	YN	Right	No	0.657507700001588	0	468343	251
915.767578125	2	decision	foodImageDisplay	2	103	43	foodImage.105	FOODEEG_Images\0913.jpg	YN	Right	No	0.657507700001588	0	468874	252
917.83203125	0.657507700001588	decision	choicePhaseStart	2	103	43	foodImage.105	FOODEEG_Images\0913.jpg	YN	Right	No	0.657507700001588	0	469931	253
918.478515625	0	decision	response	2	103	43	foodImage.105	FOODEEG_Images\0913.jpg	YN	Right	No	0.657507700001588	0	470262	235
919.51953125	1	decision	trialStart	2	104	44	foodImage.36	FOODEEG_Images\0352.jpg	YN	Right	No	0.563123799998721	0	470795	251
920.57421875	2	decision	foodImageDisplay	2	104	44	foodImage.36	FOODEEG_Images\0352.jpg	YN	Right	No	0.563123799998721	0	471335	252
922.63671875	0.563123799998721	decision	choicePhaseStart	2	104	44	foodImage.36	FOODEEG_Images\0352.jpg	YN	Right	No	0.563123799998721	0	472391	253
923.19140625	0	decision	response	2	104	44	foodImage.36	FOODEEG_Images\0352.jpg	YN	Right	No	0.563123799998721	0	472675	235
924.232421875	1	health	trialStart	2	105	45	foodImage.47	FOODEEG_Images\0488.jpg	NY	Left	No	0.812136300002749	0	473208	251
925.2734375	2	health	foodImageDisplay	2	105	45	foodImage.47	FOODEEG_Images\0488.jpg	NY	Left	No	0.812136300002749	0	473741	252
927.33984375	0.812136300002749	health	choicePhaseStart	2	105	45	foodImage.47	FOODEEG_Images\0488.jpg	NY	Left	No	0.812136300002749	0	474799	253
928.142578125	0	health	response	2	105	45	foodImage.47	FOODEEG_Images\0488.jpg	NY	Left	No	0.812136300002749	0	475210	234
929.18359375	1	decision	trialStart	2	106	46	foodImage.69	FOODEEG_Images\0693.jpg	YN	Left	Yes	0.667921799999021	0	475743	251
930.24609375	2	decision	foodImageDisplay	2	106	46	foodImage.69	FOODEEG_Images\0693.jpg	YN	Left	Yes	0.667921799999021	0	476287	252
932.30859375	0.667921799999021	decision	choicePhaseStart	2	106	46	foodImage.69	FOODEEG_Images\0693.jpg	YN	Left	Yes	0.667921799999021	0	477343	253
932.966796875	0	decision	response	2	106	46	foodImage.69	FOODEEG_Images\0693.jpg	YN	Left	Yes	0.667921799999021	0	477680	234
934.005859375	1	decision	trialStart	2	107	47	foodImage.74	FOODEEG_Images\0752.jpg	YN	Right	No	0.413360799997463	0	478212	251
935.072265625	2	decision	foodImageDisplay	2	107	47	foodImage.74	FOODEEG_Images\0752.jpg	YN	Right	No	0.413360799997463	0	478758	252
937.134765625	0.413360799997463	decision	choicePhaseStart	2	107	47	foodImage.74	FOODEEG_Images\0752.jpg	YN	Right	No	0.413360799997463	0	479814	253
937.54296875	0	decision	response	2	107	47	foodImage.74	FOODEEG_Images\0752.jpg	YN	Right	No	0.413360799997463	0	480023	235
938.583984375	1	taste	trialStart	2	108	48	foodImage.48	FOODEEG_Images\0494.jpg	NY	Right	Yes	0.881721199999447	0	480556	251
939.646484375	2	taste	foodImageDisplay	2	108	48	foodImage.48	FOODEEG_Images\0494.jpg	NY	Right	Yes	0.881721199999447	0	481100	252
941.708984375	0.881721199999447	taste	choicePhaseStart	2	108	48	foodImage.48	FOODEEG_Images\0494.jpg	NY	Right	Yes	0.881721199999447	0	482156	253
942.58203125	0	taste	response	2	108	48	foodImage.48	FOODEEG_Images\0494.jpg	NY	Right	Yes	0.881721199999447	0	482603	235
943.626953125	1	taste	trialStart	2	109	49	foodImage.75	FOODEEG_Images\0763.jpg	NY	Right	Yes	1.15185420000489	0	483138	251
944.681640625	2	taste	foodImageDisplay	2	109	49	foodImage.75	FOODEEG_Images\0763.jpg	NY	Right	Yes	1.15185420000489	0	483678	252
946.744140625	1.15185420000489	taste	choicePhaseStart	2	109	49	foodImage.75	FOODEEG_Images\0763.jpg	NY	Right	Yes	1.15185420000489	0	484734	253
947.88671875	0	taste	response	2	109	49	foodImage.75	FOODEEG_Images\0763.jpg	NY	Right	Yes	1.15185420000489	0	485319	235
948.927734375	1	decision	trialStart	2	110	50	foodImage.19	FOODEEG_Images\0225.jpg	YN	Right	No	0.545688900005189	0	485852	251
949.990234375	2	decision	foodImageDisplay	2	110	50	foodImage.19	FOODEEG_Images\0225.jpg	YN	Right	No	0.545688900005189	0	486396	252
952.052734375	0.545688900005189	decision	choicePhaseStart	2	110	50	foodImage.19	FOODEEG_Images\0225.jpg	YN	Right	No	0.545688900005189	0	487452	253
952.58984375	0	decision	response	2	110	50	foodImage.19	FOODEEG_Images\0225.jpg	YN	Right	No	0.545688900005189	0	487727	235
953.62890625	1	health	trialStart	2	111	51	foodImage.45	FOODEEG_Images\0478.jpg	YN	Left	Yes	0.497205300001951	0	488259	251
954.6796875	2	health	foodImageDisplay	2	111	51	foodImage.45	FOODEEG_Images\0478.jpg	YN	Left	Yes	0.497205300001951	0	488797	252
956.7421875	0.497205300001951	health	choicePhaseStart	2	111	51	foodImage.45	FOODEEG_Images\0478.jpg	YN	Left	Yes	0.497205300001951	0	489853	253
957.23046875	0	health	response	2	111	51	foodImage.45	FOODEEG_Images\0478.jpg	YN	Left	Yes	0.497205300001951	0	490103	234
958.26953125	1	taste	trialStart	2	112	52	foodImage.9	FOODEEG_Images\0138.jpg	NY	Left	No	1.05244069999753	0	490635	251
959.345703125	2	taste	foodImageDisplay	2	112	52	foodImage.9	FOODEEG_Images\0138.jpg	NY	Left	No	1.05244069999753	0	491186	252
961.41015625	1.05244069999753	taste	choicePhaseStart	2	112	52	foodImage.9	FOODEEG_Images\0138.jpg	NY	Left	No	1.05244069999753	0	492243	253
962.453125	0	taste	response	2	112	52	foodImage.9	FOODEEG_Images\0138.jpg	NY	Left	No	1.05244069999753	0	492777	234
963.494140625	1	decision	trialStart	2	113	53	foodImage.11	FOODEEG_Images\0180.jpg	YN	Left	Yes	0.480292200001713	0	493310	251
964.53515625	2	decision	foodImageDisplay	2	113	53	foodImage.11	FOODEEG_Images\0180.jpg	YN	Left	Yes	0.480292200001713	0	493843	252
966.59765625	0.480292200001713	decision	choicePhaseStart	2	113	53	foodImage.11	FOODEEG_Images\0180.jpg	YN	Left	Yes	0.480292200001713	0	494899	253
967.068359375	0	decision	response	2	113	53	foodImage.11	FOODEEG_Images\0180.jpg	YN	Left	Yes	0.480292200001713	0	495140	234
968.111328125	1	health	trialStart	2	114	54	foodImage.91	FOODEEG_Images\0896.jpg	NY	Left	No	0.764998099999502	0	495674	251
969.166015625	2	health	foodImageDisplay	2	114	54	foodImage.91	FOODEEG_Images\0896.jpg	NY	Left	No	0.764998099999502	0	496214	252
971.234375	0.764998099999502	health	choicePhaseStart	2	114	54	foodImage.91	FOODEEG_Images\0896.jpg	NY	Left	No	0.764998099999502	0	497273	253
971.98828125	0	health	response	2	114	54	foodImage.91	FOODEEG_Images\0896.jpg	NY	Left	No	0.764998099999502	0	497659	234
973.029296875	1	taste	trialStart	2	115	55	foodImage.35	FOODEEG_Images\0350.jpg	NY	Left	No	0.625616500001343	0	498192	251
974.083984375	2	taste	foodImageDisplay	2	115	55	foodImage.35	FOODEEG_Images\0350.jpg	NY	Left	No	0.625616500001343	0	498732	252
976.1484375	0.625616500001343	taste	choicePhaseStart	2	115	55	foodImage.35	FOODEEG_Images\0350.jpg	NY	Left	No	0.625616500001343	0	499789	253
976.765625	0	taste	response	2	115	55	foodImage.35	FOODEEG_Images\0350.jpg	NY	Left	No	0.625616500001343	0	500105	234
977.8046875	1	taste	trialStart	2	116	56	foodImage.85	FOODEEG_Images\0841.jpg	YN	Right	No	0.619166899996344	0	500637	251
978.859375	2	taste	foodImageDisplay	2	116	56	foodImage.85	FOODEEG_Images\0841.jpg	YN	Right	No	0.619166899996344	0	501177	252
980.921875	0.619166899996344	taste	choicePhaseStart	2	116	56	foodImage.85	FOODEEG_Images\0841.jpg	YN	Right	No	0.619166899996344	0	502233	253
981.533203125	0	taste	response	2	116	56	foodImage.85	FOODEEG_Images\0841.jpg	YN	Right	No	0.619166899996344	0	502546	235
982.578125	1	taste	trialStart	2	117	57	foodImage.64	FOODEEG_Images\0647.jpg	NY	Left	No	0.52241199999844	0	503081	251
983.634765625	2	taste	foodImageDisplay	2	117	57	foodImage.64	FOODEEG_Images\0647.jpg	NY	Left	No	0.52241199999844	0	503622	252
985.69921875	0.52241199999844	taste	choicePhaseStart	2	117	57	foodImage.64	FOODEEG_Images\0647.jpg	NY	Left	No	0.52241199999844	0	504679	253
986.212890625	0	taste	response	2	117	57	foodImage.64	FOODEEG_Images\0647.jpg	NY	Left	No	0.52241199999844	0	504942	234
987.251953125	1	decision	trialStart	2	118	58	foodImage.26	FOODEEG_Images\0262.jpg	NY	Left	No	0.767024599997967	0	505474	251
988.294921875	2	decision	foodImageDisplay	2	118	58	foodImage.26	FOODEEG_Images\0262.jpg	NY	Left	No	0.767024599997967	0	506008	252
990.359375	0.767024599997967	decision	choicePhaseStart	2	118	58	foodImage.26	FOODEEG_Images\0262.jpg	NY	Left	No	0.767024599997967	0	507065	253
991.1171875	0	decision	response	2	118	58	foodImage.26	FOODEEG_Images\0262.jpg	NY	Left	No	0.767024599997967	0	507453	234
992.158203125	1	decision	trialStart	2	119	59	foodImage.63	FOODEEG_Images\0645.jpg	NY	Left	No	0.554700300002878	0	507986	251
993.19921875	2	decision	foodImageDisplay	2	119	59	foodImage.63	FOODEEG_Images\0645.jpg	NY	Left	No	0.554700300002878	0	508519	252
995.267578125	0.554700300002878	decision	choicePhaseStart	2	119	59	foodImage.63	FOODEEG_Images\0645.jpg	NY	Left	No	0.554700300002878	0	509578	253
995.8125	0	decision	response	2	119	59	foodImage.63	FOODEEG_Images\0645.jpg	NY	Left	No	0.554700300002878	0	509857	234
996.8515625	1	taste	trialStart	2	120	60	foodImage.96	FOODEEG_Images\0904.jpg	NY	Left	No	0.688113800002611	0	510389	251
997.892578125	2	taste	foodImageDisplay	2	120	60	foodImage.96	FOODEEG_Images\0904.jpg	NY	Left	No	0.688113800002611	0	510922	252
999.95703125	0.688113800002611	taste	choicePhaseStart	2	120	60	foodImage.96	FOODEEG_Images\0904.jpg	NY	Left	No	0.688113800002611	0	511979	253
1000.63671875	0	taste	response	2	120	60	foodImage.96	FOODEEG_Images\0904.jpg	NY	Left	No	0.688113800002611	0	512327	234
1002.67578125	55.861328125	n/a	blockEnd	n/a	n/a	n/a	n/a	n/a	n/a	n/a	n/a	n/a	n/a	513371	254
1058.537109375	2	n/a	blockStart	3	n/a	n/a	n/a	n/a	n/a	n/a	n/a	n/a	n/a	541972	250
1060.5703125	1	health	trialStart	3	121	1	foodImage.66	FOODEEG_Images\0676.jpg	NY	Left	No	0.806241600002977	0	543013	251
1061.611328125	2	health	foodImageDisplay	3	121	1	foodImage.66	FOODEEG_Images\0676.jpg	NY	Left	No	0.806241600002977	0	543546	252
1063.677734375	0.806241600002977	health	choicePhaseStart	3	121	1	foodImage.66	FOODEEG_Images\0676.jpg	NY	Left	No	0.806241600002977	0	544604	253
1064.47265625	0	health	response	3	121	1	foodImage.66	FOODEEG_Images\0676.jpg	NY	Left	No	0.806241600002977	0	545011	234
1065.513671875	1	health	trialStart	3	122	2	foodImage.55	FOODEEG_Images\0567.jpg	NY	Right	Yes	0.472644599998603	0	545544	251
1066.5703125	2	health	foodImageDisplay	3	122	2	foodImage.55	FOODEEG_Images\0567.jpg	NY	Right	Yes	0.472644599998603	0	546085	252
1068.6328125	0.472644599998603	health	choicePhaseStart	3	122	2	foodImage.55	FOODEEG_Images\0567.jpg	NY	Right	Yes	0.472644599998603	0	547141	253
1069.09765625	0	health	response	3	122	2	foodImage.55	FOODEEG_Images\0567.jpg	NY	Right	Yes	0.472644599998603	0	547379	235
1070.138671875	1	decision	trialStart	3	123	3	foodImage.38	FOODEEG_Images\0365.jpg	NY	Right	Yes	0.818437399997492	0	547912	251
1071.17578125	2	decision	foodImageDisplay	3	123	3	foodImage.38	FOODEEG_Images\0365.jpg	NY	Right	Yes	0.818437399997492	0	548443	252
1073.23828125	0.818437399997492	decision	choicePhaseStart	3	123	3	foodImage.38	FOODEEG_Images\0365.jpg	NY	Right	Yes	0.818437399997492	0	549499	253
1074.048828125	0	decision	response	3	123	3	foodImage.38	FOODEEG_Images\0365.jpg	NY	Right	Yes	0.818437399997492	0	549914	235
1075.091796875	1	taste	trialStart	3	124	4	foodImage.31	FOODEEG_Images\0294.jpg	NY	Left	No	0.614014000006136	0	550448	251
1076.1328125	2	taste	foodImageDisplay	3	124	4	foodImage.31	FOODEEG_Images\0294.jpg	NY	Left	No	0.614014000006136	0	550981	252
1078.197265625	0.614014000006136	taste	choicePhaseStart	3	124	4	foodImage.31	FOODEEG_Images\0294.jpg	NY	Left	No	0.614014000006136	0	552038	253
1078.80078125	0	taste	response	3	124	4	foodImage.31	FOODEEG_Images\0294.jpg	NY	Left	No	0.614014000006136	0	552347	234
1079.84375	1	taste	trialStart	3	125	5	foodImage.36	FOODEEG_Images\0352.jpg	NY	Left	No	0.614081600004283	0	552881	251
1080.923828125	2	taste	foodImageDisplay	3	125	5	foodImage.36	FOODEEG_Images\0352.jpg	NY	Left	No	0.614081600004283	0	553434	252
1082.9921875	0.614081600004283	taste	choicePhaseStart	3	125	5	foodImage.36	FOODEEG_Images\0352.jpg	NY	Left	No	0.614081600004283	0	554493	253
1083.599609375	0	taste	response	3	125	5	foodImage.36	FOODEEG_Images\0352.jpg	NY	Left	No	0.614081600004283	0	554804	234
1084.640625	1	decision	trialStart	3	126	6	foodImage.66	FOODEEG_Images\0676.jpg	YN	Left	Yes	0.543770099997346	0	555337	251
1085.681640625	2	decision	foodImageDisplay	3	126	6	foodImage.66	FOODEEG_Images\0676.jpg	YN	Left	Yes	0.543770099997346	0	555870	252
1087.74609375	0.543770099997346	decision	choicePhaseStart	3	126	6	foodImage.66	FOODEEG_Images\0676.jpg	YN	Left	Yes	0.543770099997346	0	556927	253
1088.28125	0	decision	response	3	126	6	foodImage.66	FOODEEG_Images\0676.jpg	YN	Left	Yes	0.543770099997346	0	557201	234
1089.322265625	1	decision	trialStart	3	127	7	foodImage.40	FOODEEG_Images\0373.jpg	NY	Right	Yes	0.751456300000427	0	557734	251
1090.36328125	2	decision	foodImageDisplay	3	127	7	foodImage.40	FOODEEG_Images\0373.jpg	NY	Right	Yes	0.751456300000427	0	558267	252
1092.431640625	0.751456300000427	decision	choicePhaseStart	3	127	7	foodImage.40	FOODEEG_Images\0373.jpg	NY	Right	Yes	0.751456300000427	0	559326	253
1093.17578125	0	decision	response	3	127	7	foodImage.40	FOODEEG_Images\0373.jpg	NY	Right	Yes	0.751456300000427	0	559707	235
1094.220703125	1	decision	trialStart	3	128	8	foodImage.55	FOODEEG_Images\0567.jpg	YN	Right	No	0.611812800001644	0	560242	251
1095.27734375	2	decision	foodImageDisplay	3	128	8	foodImage.55	FOODEEG_Images\0567.jpg	YN	Right	No	0.611812800001644	0	560783	252
1097.341796875	0.611812800001644	decision	choicePhaseStart	3	128	8	foodImage.55	FOODEEG_Images\0567.jpg	YN	Right	No	0.611812800001644	0	561840	253
1097.943359375	0	decision	response	3	128	8	foodImage.55	FOODEEG_Images\0567.jpg	YN	Right	No	0.611812800001644	0	562148	235
1098.984375	1	health	trialStart	3	129	9	foodImage.85	FOODEEG_Images\0841.jpg	YN	Right	No	0.738909900006547	0	562681	251
1100.064453125	2	health	foodImageDisplay	3	129	9	foodImage.85	FOODEEG_Images\0841.jpg	YN	Right	No	0.738909900006547	0	563234	252
1102.126953125	0.738909900006547	health	choicePhaseStart	3	129	9	foodImage.85	FOODEEG_Images\0841.jpg	YN	Right	No	0.738909900006547	0	564290	253
1102.85546875	0	health	response	3	129	9	foodImage.85	FOODEEG_Images\0841.jpg	YN	Right	No	0.738909900006547	0	564663	235
1103.896484375	1	health	trialStart	3	130	10	foodImage.60	FOODEEG_Images\0614.jpg	NY	Right	Yes	1.56223199999658	0	565196	251
1104.951171875	2	health	foodImageDisplay	3	130	10	foodImage.60	FOODEEG_Images\0614.jpg	NY	Right	Yes	1.56223199999658	0	565736	252
1107.015625	1.56223199999658	health	choicePhaseStart	3	130	10	foodImage.60	FOODEEG_Images\0614.jpg	NY	Right	Yes	1.56223199999658	0	566793	253
1108.568359375	0	health	response	3	130	10	foodImage.60	FOODEEG_Images\0614.jpg	NY	Right	Yes	1.56223199999658	0	567588	235
1109.611328125	1	health	trialStart	3	131	11	foodImage.110	FOODEEG_Images\0918.jpg	NY	Left	No	0.624165599998378	0	568122	251
1110.6484375	2	health	foodImageDisplay	3	131	11	foodImage.110	FOODEEG_Images\0918.jpg	NY	Left	No	0.624165599998378	0	568653	252
1112.712890625	0.624165599998378	health	choicePhaseStart	3	131	11	foodImage.110	FOODEEG_Images\0918.jpg	NY	Left	No	0.624165599998378	0	569710	253
1113.328125	0	health	response	3	131	11	foodImage.110	FOODEEG_Images\0918.jpg	NY	Left	No	0.624165599998378	0	570025	234
1114.3671875	1	health	trialStart	3	132	12	foodImage.100	FOODEEG_Images\0908.jpg	YN	Right	No	0.555659699995886	0	570557	251
1115.404296875	2	health	foodImageDisplay	3	132	12	foodImage.100	FOODEEG_Images\0908.jpg	YN	Right	No	0.555659699995886	0	571088	252
1117.46875	0.555659699995886	health	choicePhaseStart	3	132	12	foodImage.100	FOODEEG_Images\0908.jpg	YN	Right	No	0.555659699995886	0	572145	253
1118.015625	0	health	response	3	132	12	foodImage.100	FOODEEG_Images\0908.jpg	YN	Right	No	0.555659699995886	0	572425	235
1119.0546875	1	taste	trialStart	3	133	13	foodImage.102	FOODEEG_Images\0910.jpg	YN	Right	No	0.920322700003453	0	572957	251
1120.09375	2	taste	foodImageDisplay	3	133	13	foodImage.102	FOODEEG_Images\0910.jpg	YN	Right	No	0.920322700003453	0	573489	252
1122.15625	0.920322700003453	taste	choicePhaseStart	3	133	13	foodImage.102	FOODEEG_Images\0910.jpg	YN	Right	No	0.920322700003453	0	574545	253
1123.0703125	0	taste	response	3	133	13	foodImage.102	FOODEEG_Images\0910.jpg	YN	Right	No	0.920322700003453	0	575013	235
1124.111328125	1	decision	trialStart	3	134	14	foodImage.89	FOODEEG_Images\0881.jpg	YN	Left	Yes	0.63553879999381	0	575546	251
1125.166015625	2	decision	foodImageDisplay	3	134	14	foodImage.89	FOODEEG_Images\0881.jpg	YN	Left	Yes	0.63553879999381	0	576086	252
1127.228515625	0.63553879999381	decision	choicePhaseStart	3	134	14	foodImage.89	FOODEEG_Images\0881.jpg	YN	Left	Yes	0.63553879999381	0	577142	253
1127.85546875	0	decision	response	3	134	14	foodImage.89	FOODEEG_Images\0881.jpg	YN	Left	Yes	0.63553879999381	0	577463	234
1128.89453125	1	taste	trialStart	3	135	15	foodImage.67	FOODEEG_Images\0679.jpg	NY	Left	No	0.595605199996498	0	577995	251
1129.951171875	2	taste	foodImageDisplay	3	135	15	foodImage.67	FOODEEG_Images\0679.jpg	NY	Left	No	0.595605199996498	0	578536	252
1132.013671875	0.595605199996498	taste	choicePhaseStart	3	135	15	foodImage.67	FOODEEG_Images\0679.jpg	NY	Left	No	0.595605199996498	0	579592	253
1132.59765625	0	taste	response	3	135	15	foodImage.67	FOODEEG_Images\0679.jpg	NY	Left	No	0.595605199996498	0	579891	234
1133.638671875	1	health	trialStart	3	136	16	foodImage.1	FOODEEG_Images\0004.jpg	NY	Right	Yes	0.61234730000433	0	580424	251
1134.681640625	2	health	foodImageDisplay	3	136	16	foodImage.1	FOODEEG_Images\0004.jpg	NY	Right	Yes	0.61234730000433	0	580958	252
1136.744140625	0.61234730000433	health	choicePhaseStart	3	136	16	foodImage.1	FOODEEG_Images\0004.jpg	NY	Right	Yes	0.61234730000433	0	582014	253
1137.349609375	0	health	response	3	136	16	foodImage.1	FOODEEG_Images\0004.jpg	NY	Right	Yes	0.61234730000433	0	582324	235
1138.390625	1	health	trialStart	3	137	17	foodImage.89	FOODEEG_Images\0881.jpg	NY	Right	Yes	0.473894700000528	0	582857	251
1139.4453125	2	health	foodImageDisplay	3	137	17	foodImage.89	FOODEEG_Images\0881.jpg	NY	Right	Yes	0.473894700000528	0	583397	252
1141.5078125	0.473894700000528	health	choicePhaseStart	3	137	17	foodImage.89	FOODEEG_Images\0881.jpg	NY	Right	Yes	0.473894700000528	0	584453	253
1141.974609375	0	health	response	3	137	17	foodImage.89	FOODEEG_Images\0881.jpg	NY	Right	Yes	0.473894700000528	0	584692	235
1143.015625	1	health	trialStart	3	138	18	foodImage.97	FOODEEG_Images\0905.jpg	NY	Left	No	0.507951700004924	0	585225	251
1144.052734375	2	health	foodImageDisplay	3	138	18	foodImage.97	FOODEEG_Images\0905.jpg	NY	Left	No	0.507951700004924	0	585756	252
1146.115234375	0.507951700004924	health	choicePhaseStart	3	138	18	foodImage.97	FOODEEG_Images\0905.jpg	NY	Left	No	0.507951700004924	0	586812	253
1146.61328125	0	health	response	3	138	18	foodImage.97	FOODEEG_Images\0905.jpg	NY	Left	No	0.507951700004924	0	587067	234
1147.654296875	1	health	trialStart	3	139	19	foodImage.99	FOODEEG_Images\0907.jpg	NY	Left	No	0.518332999999984	0	587600	251
1148.693359375	2	health	foodImageDisplay	3	139	19	foodImage.99	FOODEEG_Images\0907.jpg	NY	Left	No	0.518332999999984	0	588132	252
1150.7578125	0.518332999999984	health	choicePhaseStart	3	139	19	foodImage.99	FOODEEG_Images\0907.jpg	NY	Left	No	0.518332999999984	0	589189	253
1151.26953125	0	health	response	3	139	19	foodImage.99	FOODEEG_Images\0907.jpg	NY	Left	No	0.518332999999984	0	589451	234
1152.3125	1	decision	trialStart	3	140	20	foodImage.86	FOODEEG_Images\0844.jpg	NY	Left	No	0.792819999995118	0	589985	251
1153.373046875	2	decision	foodImageDisplay	3	140	20	foodImage.86	FOODEEG_Images\0844.jpg	NY	Left	No	0.792819999995118	0	590528	252
1155.435546875	0.792819999995118	decision	choicePhaseStart	3	140	20	foodImage.86	FOODEEG_Images\0844.jpg	NY	Left	No	0.792819999995118	0	591584	253
1156.220703125	0	decision	response	3	140	20	foodImage.86	FOODEEG_Images\0844.jpg	NY	Left	No	0.792819999995118	0	591986	234
1157.265625	1	taste	trialStart	3	141	21	foodImage.114	FOODEEG_Images\0922.jpg	YN	Right	No	0.720030699994822	0	592521	251
1158.3046875	2	taste	foodImageDisplay	3	141	21	foodImage.114	FOODEEG_Images\0922.jpg	YN	Right	No	0.720030699994822	0	593053	252
1160.3671875	0.720030699994822	taste	choicePhaseStart	3	141	21	foodImage.114	FOODEEG_Images\0922.jpg	YN	Right	No	0.720030699994822	0	594109	253
1161.078125	0	taste	response	3	141	21	foodImage.114	FOODEEG_Images\0922.jpg	YN	Right	No	0.720030699994822	0	594473	235
1162.125	1	taste	trialStart	3	142	22	foodImage.83	FOODEEG_Images\0827.jpg	YN	Right	No	0.770585599995684	0	595009	251
1163.181640625	2	taste	foodImageDisplay	3	142	22	foodImage.83	FOODEEG_Images\0827.jpg	YN	Right	No	0.770585599995684	0	595550	252
1165.244140625	0.770585599995684	taste	choicePhaseStart	3	142	22	foodImage.83	FOODEEG_Images\0827.jpg	YN	Right	No	0.770585599995684	0	596606	253
1166.005859375	0	taste	response	3	142	22	foodImage.83	FOODEEG_Images\0827.jpg	YN	Right	No	0.770585599995684	0	596996	235
1167.046875	1	health	trialStart	3	143	23	foodImage.58	FOODEEG_Images\0605.jpg	YN	Right	No	0.691615600000659	0	597529	251
1168.103515625	2	health	foodImageDisplay	3	143	23	foodImage.58	FOODEEG_Images\0605.jpg	YN	Right	No	0.691615600000659	0	598070	252
1170.169921875	0.691615600000659	health	choicePhaseStart	3	143	23	foodImage.58	FOODEEG_Images\0605.jpg	YN	Right	No	0.691615600000659	0	599128	253
1170.853515625	0	health	response	3	143	23	foodImage.58	FOODEEG_Images\0605.jpg	YN	Right	No	0.691615600000659	0	599478	235
1171.89453125	1	decision	trialStart	3	144	24	foodImage.14	FOODEEG_Images\0188.jpg	NY	Left	No	0.592259599994577	0	600011	251
1172.951171875	2	decision	foodImageDisplay	3	144	24	foodImage.14	FOODEEG_Images\0188.jpg	NY	Left	No	0.592259599994577	0	600552	252
1175.013671875	0.592259599994577	decision	choicePhaseStart	3	144	24	foodImage.14	FOODEEG_Images\0188.jpg	NY	Left	No	0.592259599994577	0	601608	253
1175.59765625	0	decision	response	3	144	24	foodImage.14	FOODEEG_Images\0188.jpg	NY	Left	No	0.592259599994577	0	601907	234
1176.638671875	1	taste	trialStart	3	145	25	foodImage.78	FOODEEG_Images\0787.jpg	YN	Left	Yes	0.744489600001543	0	602440	251
1177.68359375	2	taste	foodImageDisplay	3	145	25	foodImage.78	FOODEEG_Images\0787.jpg	YN	Left	Yes	0.744489600001543	0	602975	252
1179.74609375	0.744489600001543	taste	choicePhaseStart	3	145	25	foodImage.78	FOODEEG_Images\0787.jpg	YN	Left	Yes	0.744489600001543	0	604031	253
1180.484375	0	taste	response	3	145	25	foodImage.78	FOODEEG_Images\0787.jpg	YN	Left	Yes	0.744489600001543	0	604409	234
1181.525390625	1	taste	trialStart	3	146	26	foodImage.15	FOODEEG_Images\0189.jpg	YN	Left	Yes	0.578121599995939	0	604942	251
1182.58203125	2	taste	foodImageDisplay	3	146	26	foodImage.15	FOODEEG_Images\0189.jpg	YN	Left	Yes	0.578121599995939	0	605483	252
1184.64453125	0.578121599995939	taste	choicePhaseStart	3	146	26	foodImage.15	FOODEEG_Images\0189.jpg	YN	Left	Yes	0.578121599995939	0	606539	253
1185.212890625	0	taste	response	3	146	26	foodImage.15	FOODEEG_Images\0189.jpg	YN	Left	Yes	0.578121599995939	0	606830	234
1186.251953125	1	decision	trialStart	3	147	27	foodImage.111	FOODEEG_Images\0919.jpg	YN	Right	No	0.611134799997672	0	607362	251
1187.291015625	2	decision	foodImageDisplay	3	147	27	foodImage.111	FOODEEG_Images\0919.jpg	YN	Right	No	0.611134799997672	0	607894	252
1189.353515625	0.611134799997672	decision	choicePhaseStart	3	147	27	foodImage.111	FOODEEG_Images\0919.jpg	YN	Right	No	0.611134799997672	0	608950	253
1189.95703125	0	decision	response	3	147	27	foodImage.111	FOODEEG_Images\0919.jpg	YN	Right	No	0.611134799997672	0	609259	235
1190.998046875	1	health	trialStart	3	148	28	foodImage.108	FOODEEG_Images\0916.jpg	YN	Right	No	0.530610100002377	0	609792	251
1192.03515625	2	health	foodImageDisplay	3	148	28	foodImage.108	FOODEEG_Images\0916.jpg	YN	Right	No	0.530610100002377	0	610323	252
1194.099609375	0.530610100002377	health	choicePhaseStart	3	148	28	foodImage.108	FOODEEG_Images\0916.jpg	YN	Right	No	0.530610100002377	0	611380	253
1194.619140625	0	health	response	3	148	28	foodImage.108	FOODEEG_Images\0916.jpg	YN	Right	No	0.530610100002377	0	611646	235
1195.66015625	1	taste	trialStart	3	149	29	foodImage.33	FOODEEG_Images\0329.jpg	NY	Right	Yes	0.6073058999973	0	612179	251
1196.701171875	2	taste	foodImageDisplay	3	149	29	foodImage.33	FOODEEG_Images\0329.jpg	NY	Right	Yes	0.6073058999973	0	612712	252
1198.763671875	0.6073058999973	taste	choicePhaseStart	3	149	29	foodImage.33	FOODEEG_Images\0329.jpg	NY	Right	Yes	0.6073058999973	0	613768	253
1199.365234375	0	taste	response	3	149	29	foodImage.33	FOODEEG_Images\0329.jpg	NY	Right	Yes	0.6073058999973	0	614076	235
1200.40625	1	taste	trialStart	3	150	30	foodImage.81	FOODEEG_Images\0797.jpg	NY	Left	No	0.652795300004072	0	614609	251
1201.4609375	2	taste	foodImageDisplay	3	150	30	foodImage.81	FOODEEG_Images\0797.jpg	NY	Left	No	0.652795300004072	0	615149	252
1203.525390625	0.652795300004072	taste	choicePhaseStart	3	150	30	foodImage.81	FOODEEG_Images\0797.jpg	NY	Left	No	0.652795300004072	0	616206	253
1204.171875	0	taste	response	3	150	30	foodImage.81	FOODEEG_Images\0797.jpg	NY	Left	No	0.652795300004072	0	616537	234
1205.21484375	1	health	trialStart	3	151	31	foodImage.84	FOODEEG_Images\0830.jpg	YN	Right	No	0.541509500006214	0	617071	251
1206.271484375	2	health	foodImageDisplay	3	151	31	foodImage.84	FOODEEG_Images\0830.jpg	YN	Right	No	0.541509500006214	0	617612	252
1208.3359375	0.541509500006214	health	choicePhaseStart	3	151	31	foodImage.84	FOODEEG_Images\0830.jpg	YN	Right	No	0.541509500006214	0	618669	253
1208.8671875	0	health	response	3	151	31	foodImage.84	FOODEEG_Images\0830.jpg	YN	Right	No	0.541509500006214	0	618941	235
1209.908203125	1	health	trialStart	3	152	32	foodImage.115	FOODEEG_Images\0923.jpg	YN	Right	No	0.435318299998471	0	619474	251
1210.947265625	2	health	foodImageDisplay	3	152	32	foodImage.115	FOODEEG_Images\0923.jpg	YN	Right	No	0.435318299998471	0	620006	252
1213.009765625	0.435318299998471	health	choicePhaseStart	3	152	32	foodImage.115	FOODEEG_Images\0923.jpg	YN	Right	No	0.435318299998471	0	621062	253
1213.435546875	0	health	response	3	152	32	foodImage.115	FOODEEG_Images\0923.jpg	YN	Right	No	0.435318299998471	0	621280	235
1214.4765625	1	decision	trialStart	3	153	33	foodImage.76	FOODEEG_Images\0766.jpg	NY	Right	Yes	0.783988399998634	0	621813	251
1215.517578125	2	decision	foodImageDisplay	3	153	33	foodImage.76	FOODEEG_Images\0766.jpg	NY	Right	Yes	0.783988399998634	0	622346	252
1217.58203125	0.783988399998634	decision	choicePhaseStart	3	153	33	foodImage.76	FOODEEG_Images\0766.jpg	NY	Right	Yes	0.783988399998634	0	623403	253
1218.35546875	0	decision	response	3	153	33	foodImage.76	FOODEEG_Images\0766.jpg	NY	Right	Yes	0.783988399998634	0	623799	235
1219.3984375	1	health	trialStart	3	154	34	foodImage.64	FOODEEG_Images\0647.jpg	NY	Left	No	0.49209449999762	0	624333	251
1220.45703125	2	health	foodImageDisplay	3	154	34	foodImage.64	FOODEEG_Images\0647.jpg	NY	Left	No	0.49209449999762	0	624875	252
1222.521484375	0.49209449999762	health	choicePhaseStart	3	154	34	foodImage.64	FOODEEG_Images\0647.jpg	NY	Left	No	0.49209449999762	0	625932	253
1223.001953125	0	health	response	3	154	34	foodImage.64	FOODEEG_Images\0647.jpg	NY	Left	No	0.49209449999762	0	626178	234
1224.04296875	1	health	trialStart	3	155	35	foodImage.73	FOODEEG_Images\0717.jpg	NY	Left	No	0.682301100001496	0	626711	251
1225.1171875	2	health	foodImageDisplay	3	155	35	foodImage.73	FOODEEG_Images\0717.jpg	NY	Left	No	0.682301100001496	0	627261	252
1227.185546875	0.682301100001496	health	choicePhaseStart	3	155	35	foodImage.73	FOODEEG_Images\0717.jpg	NY	Left	No	0.682301100001496	0	628320	253
1227.859375	0	health	response	3	155	35	foodImage.73	FOODEEG_Images\0717.jpg	NY	Left	No	0.682301100001496	0	628665	234
1228.90234375	1	taste	trialStart	3	156	36	foodImage.93	FOODEEG_Images\0901.jpg	NY	Left	No	0.613554999996268	0	629199	251
1229.943359375	2	taste	foodImageDisplay	3	156	36	foodImage.93	FOODEEG_Images\0901.jpg	NY	Left	No	0.613554999996268	0	629732	252
1232.005859375	0.613554999996268	taste	choicePhaseStart	3	156	36	foodImage.93	FOODEEG_Images\0901.jpg	NY	Left	No	0.613554999996268	0	630788	253
1232.611328125	0	taste	response	3	156	36	foodImage.93	FOODEEG_Images\0901.jpg	NY	Left	No	0.613554999996268	0	631098	234
1233.65234375	1	health	trialStart	3	157	37	foodImage.10	FOODEEG_Images\0145.jpg	NY	Left	No	0.722424300001876	0	631631	251
1234.736328125	2	health	foodImageDisplay	3	157	37	foodImage.10	FOODEEG_Images\0145.jpg	NY	Left	No	0.722424300001876	0	632186	252
1236.798828125	0.722424300001876	health	choicePhaseStart	3	157	37	foodImage.10	FOODEEG_Images\0145.jpg	NY	Left	No	0.722424300001876	0	633242	253
1237.513671875	0	health	response	3	157	37	foodImage.10	FOODEEG_Images\0145.jpg	NY	Left	No	0.722424300001876	0	633608	234
1238.556640625	1	taste	trialStart	3	158	38	foodImage.54	FOODEEG_Images\0560.jpg	NY	Right	Yes	0.823214600000938	0	634142	251
1239.61328125	2	taste	foodImageDisplay	3	158	38	foodImage.54	FOODEEG_Images\0560.jpg	NY	Right	Yes	0.823214600000938	0	634683	252
1241.677734375	0.823214600000938	taste	choicePhaseStart	3	158	38	foodImage.54	FOODEEG_Images\0560.jpg	NY	Right	Yes	0.823214600000938	0	635740	253
1242.490234375	0	taste	response	3	158	38	foodImage.54	FOODEEG_Images\0560.jpg	NY	Right	Yes	0.823214600000938	0	636156	235
1243.53125	1	decision	trialStart	3	159	39	foodImage.93	FOODEEG_Images\0901.jpg	YN	Right	No	0.549950200002058	0	636689	251
1244.58203125	2	decision	foodImageDisplay	3	159	39	foodImage.93	FOODEEG_Images\0901.jpg	YN	Right	No	0.549950200002058	0	637227	252
1246.646484375	0.549950200002058	decision	choicePhaseStart	3	159	39	foodImage.93	FOODEEG_Images\0901.jpg	YN	Right	No	0.549950200002058	0	638284	253
1247.185546875	0	decision	response	3	159	39	foodImage.93	FOODEEG_Images\0901.jpg	YN	Right	No	0.549950200002058	0	638560	235
1248.2265625	1	decision	trialStart	3	160	40	foodImage.7	FOODEEG_Images\0116.jpg	NY	Right	Yes	0.682684700004756	0	639093	251
1249.2734375	2	decision	foodImageDisplay	3	160	40	foodImage.7	FOODEEG_Images\0116.jpg	NY	Right	Yes	0.682684700004756	0	639629	252
1251.3359375	0.682684700004756	decision	choicePhaseStart	3	160	40	foodImage.7	FOODEEG_Images\0116.jpg	NY	Right	Yes	0.682684700004756	0	640685	253
1252.009765625	0	decision	response	3	160	40	foodImage.7	FOODEEG_Images\0116.jpg	NY	Right	Yes	0.682684700004756	0	641030	235
1253.05078125	1	health	trialStart	3	161	41	foodImage.102	FOODEEG_Images\0910.jpg	YN	Right	No	0.666694300001836	0	641563	251
1254.087890625	2	health	foodImageDisplay	3	161	41	foodImage.102	FOODEEG_Images\0910.jpg	YN	Right	No	0.666694300001836	0	642094	252
1256.15234375	0.666694300001836	health	choicePhaseStart	3	161	41	foodImage.102	FOODEEG_Images\0910.jpg	YN	Right	No	0.666694300001836	0	643151	253
1256.810546875	0	health	response	3	161	41	foodImage.102	FOODEEG_Images\0910.jpg	YN	Right	No	0.666694300001836	0	643488	235
1257.849609375	1	decision	trialStart	3	162	42	foodImage.65	FOODEEG_Images\0658.jpg	YN	Right	No	0.489088499998616	0	644020	251
1258.890625	2	decision	foodImageDisplay	3	162	42	foodImage.65	FOODEEG_Images\0658.jpg	YN	Right	No	0.489088499998616	0	644553	252
1260.953125	0.489088499998616	decision	choicePhaseStart	3	162	42	foodImage.65	FOODEEG_Images\0658.jpg	YN	Right	No	0.489088499998616	0	645609	253
1261.43359375	0	decision	response	3	162	42	foodImage.65	FOODEEG_Images\0658.jpg	YN	Right	No	0.489088499998616	0	645855	235
1262.474609375	1	taste	trialStart	3	163	43	foodImage.113	FOODEEG_Images\0921.jpg	YN	Right	No	0.537932300001557	0	646388	251
1263.51171875	2	taste	foodImageDisplay	3	163	43	foodImage.113	FOODEEG_Images\0921.jpg	YN	Right	No	0.537932300001557	0	646919	252
1265.576171875	0.537932300001557	taste	choicePhaseStart	3	163	43	foodImage.113	FOODEEG_Images\0921.jpg	YN	Right	No	0.537932300001557	0	647976	253
1266.10546875	0	taste	response	3	163	43	foodImage.113	FOODEEG_Images\0921.jpg	YN	Right	No	0.537932300001557	0	648247	235
1267.150390625	1	decision	trialStart	3	164	44	foodImage.107	FOODEEG_Images\0915.jpg	NY	Left	No	0.661409000000276	0	648782	251
1268.205078125	2	decision	foodImageDisplay	3	164	44	foodImage.107	FOODEEG_Images\0915.jpg	NY	Left	No	0.661409000000276	0	649322	252
1270.26953125	0.661409000000276	decision	choicePhaseStart	3	164	44	foodImage.107	FOODEEG_Images\0915.jpg	NY	Left	No	0.661409000000276	0	650379	253
1270.921875	0	decision	response	3	164	44	foodImage.107	FOODEEG_Images\0915.jpg	NY	Left	No	0.661409000000276	0	650713	234
1271.966796875	1	taste	trialStart	3	165	45	foodImage.46	FOODEEG_Images\0479.jpg	NY	Right	Yes	0.676831999997376	0	651248	251
1273.021484375	2	taste	foodImageDisplay	3	165	45	foodImage.46	FOODEEG_Images\0479.jpg	NY	Right	Yes	0.676831999997376	0	651788	252
1275.0859375	0.676831999997376	taste	choicePhaseStart	3	165	45	foodImage.46	FOODEEG_Images\0479.jpg	NY	Right	Yes	0.676831999997376	0	652845	253
1275.75390625	0	taste	response	3	165	45	foodImage.46	FOODEEG_Images\0479.jpg	NY	Right	Yes	0.676831999997376	0	653187	235
1276.79296875	1	decision	trialStart	3	166	46	foodImage.31	FOODEEG_Images\0294.jpg	NY	Left	No	0.624466300003405	0	653719	251
1277.8359375	2	decision	foodImageDisplay	3	166	46	foodImage.31	FOODEEG_Images\0294.jpg	NY	Left	No	0.624466300003405	0	654253	252
1279.8984375	0.624466300003405	decision	choicePhaseStart	3	166	46	foodImage.31	FOODEEG_Images\0294.jpg	NY	Left	No	0.624466300003405	0	655309	253
1280.51171875	0	decision	response	3	166	46	foodImage.31	FOODEEG_Images\0294.jpg	NY	Left	No	0.624466300003405	0	655623	234
1281.5546875	1	health	trialStart	3	167	47	foodImage.8	FOODEEG_Images\0136.jpg	YN	Right	No	0.94846939999843	0	656157	251
1282.595703125	2	health	foodImageDisplay	3	167	47	foodImage.8	FOODEEG_Images\0136.jpg	YN	Right	No	0.94846939999843	0	656690	252
1284.658203125	0.94846939999843	health	choicePhaseStart	3	167	47	foodImage.8	FOODEEG_Images\0136.jpg	YN	Right	No	0.94846939999843	0	657746	253
1285.6015625	0	health	response	3	167	47	foodImage.8	FOODEEG_Images\0136.jpg	YN	Right	No	0.94846939999843	0	658229	235
1286.640625	1	decision	trialStart	3	168	48	foodImage.50	FOODEEG_Images\0529.jpg	YN	Right	No	0.745220899996639	0	658761	251
1287.697265625	2	decision	foodImageDisplay	3	168	48	foodImage.50	FOODEEG_Images\0529.jpg	YN	Right	No	0.745220899996639	0	659302	252
1289.759765625	0.745220899996639	decision	choicePhaseStart	3	168	48	foodImage.50	FOODEEG_Images\0529.jpg	YN	Right	No	0.745220899996639	0	660358	253
1290.49609375	0	decision	response	3	168	48	foodImage.50	FOODEEG_Images\0529.jpg	YN	Right	No	0.745220899996639	0	660735	235
1291.5390625	1	health	trialStart	3	169	49	foodImage.117	FOODEEG_Images\0925.jpg	NY	Right	Yes	0.782812500001455	0	661269	251
1292.578125	2	health	foodImageDisplay	3	169	49	foodImage.117	FOODEEG_Images\0925.jpg	NY	Right	Yes	0.782812500001455	0	661801	252
1294.642578125	0.782812500001455	health	choicePhaseStart	3	169	49	foodImage.117	FOODEEG_Images\0925.jpg	NY	Right	Yes	0.782812500001455	0	662858	253
1295.416015625	0	health	response	3	169	49	foodImage.117	FOODEEG_Images\0925.jpg	NY	Right	Yes	0.782812500001455	0	663254	235
1296.45703125	1	decision	trialStart	3	170	50	foodImage.56	FOODEEG_Images\0586.jpg	YN	Right	No	0.587469899997814	0	663787	251
1297.498046875	2	decision	foodImageDisplay	3	170	50	foodImage.56	FOODEEG_Images\0586.jpg	YN	Right	No	0.587469899997814	0	664320	252
1299.56640625	0.587469899997814	decision	choicePhaseStart	3	170	50	foodImage.56	FOODEEG_Images\0586.jpg	YN	Right	No	0.587469899997814	0	665379	253
1300.14453125	0	decision	response	3	170	50	foodImage.56	FOODEEG_Images\0586.jpg	YN	Right	No	0.587469899997814	0	665675	235
1301.197265625	1	decision	trialStart	3	171	51	foodImage.32	FOODEEG_Images\0319.jpg	YN	Left	Yes	0.523843800001487	0	666214	251
1302.23828125	2	decision	foodImageDisplay	3	171	51	foodImage.32	FOODEEG_Images\0319.jpg	YN	Left	Yes	0.523843800001487	0	666747	252
1304.30078125	0.523843800001487	decision	choicePhaseStart	3	171	51	foodImage.32	FOODEEG_Images\0319.jpg	YN	Left	Yes	0.523843800001487	0	667803	253
1304.81640625	0	decision	response	3	171	51	foodImage.32	FOODEEG_Images\0319.jpg	YN	Left	Yes	0.523843800001487	0	668067	234
1305.857421875	1	taste	trialStart	3	172	52	foodImage.120	FOODEEG_Images\0928.jpg	YN	Right	No	0.554114200000186	0	668600	251
1306.908203125	2	taste	foodImageDisplay	3	172	52	foodImage.120	FOODEEG_Images\0928.jpg	YN	Right	No	0.554114200000186	0	669138	252
1308.97265625	0.554114200000186	taste	choicePhaseStart	3	172	52	foodImage.120	FOODEEG_Images\0928.jpg	YN	Right	No	0.554114200000186	0	670195	253
1309.51953125	0	taste	response	3	172	52	foodImage.120	FOODEEG_Images\0928.jpg	YN	Right	No	0.554114200000186	0	670475	235
1310.560546875	1	decision	trialStart	3	173	53	foodImage.5	FOODEEG_Images\0107.jpg	NY	Left	No	0.573162100001355	0	671008	251
1311.64453125	2	decision	foodImageDisplay	3	173	53	foodImage.5	FOODEEG_Images\0107.jpg	NY	Left	No	0.573162100001355	0	671563	252
1313.708984375	0.573162100001355	decision	choicePhaseStart	3	173	53	foodImage.5	FOODEEG_Images\0107.jpg	NY	Left	No	0.573162100001355	0	672620	253
1314.271484375	0	decision	response	3	173	53	foodImage.5	FOODEEG_Images\0107.jpg	NY	Left	No	0.573162100001355	0	672908	234
1315.3125	1	taste	trialStart	3	174	54	foodImage.109	FOODEEG_Images\0917.jpg	NY	Left	No	0.576018599997042	0	673441	251
1316.353515625	2	taste	foodImageDisplay	3	174	54	foodImage.109	FOODEEG_Images\0917.jpg	NY	Left	No	0.576018599997042	0	673974	252
1318.416015625	0.576018599997042	taste	choicePhaseStart	3	174	54	foodImage.109	FOODEEG_Images\0917.jpg	NY	Left	No	0.576018599997042	0	675030	253
1318.982421875	0	taste	response	3	174	54	foodImage.109	FOODEEG_Images\0917.jpg	NY	Left	No	0.576018599997042	0	675320	234
1320.0234375	1	health	trialStart	3	175	55	foodImage.40	FOODEEG_Images\0373.jpg	YN	Right	No	0.912571200002276	0	675853	251
1321.064453125	2	health	foodImageDisplay	3	175	55	foodImage.40	FOODEEG_Images\0373.jpg	YN	Right	No	0.912571200002276	0	676386	252
1323.126953125	0.912571200002276	health	choicePhaseStart	3	175	55	foodImage.40	FOODEEG_Images\0373.jpg	YN	Right	No	0.912571200002276	0	677442	253
1324.03125	0	health	response	3	175	55	foodImage.40	FOODEEG_Images\0373.jpg	YN	Right	No	0.912571200002276	0	677905	235
1325.07421875	1	taste	trialStart	3	176	56	foodImage.111	FOODEEG_Images\0919.jpg	YN	Right	No	0.576747999999498	0	678439	251
1326.126953125	2	taste	foodImageDisplay	3	176	56	foodImage.111	FOODEEG_Images\0919.jpg	YN	Right	No	0.576747999999498	0	678978	252
1328.19140625	0.576747999999498	taste	choicePhaseStart	3	176	56	foodImage.111	FOODEEG_Images\0919.jpg	YN	Right	No	0.576747999999498	0	680035	253
1328.759765625	0	taste	response	3	176	56	foodImage.111	FOODEEG_Images\0919.jpg	YN	Right	No	0.576747999999498	0	680326	235
1329.798828125	1	taste	trialStart	3	177	57	foodImage.8	FOODEEG_Images\0136.jpg	NY	Right	Yes	0.553609499998856	0	680858	251
1330.85546875	2	taste	foodImageDisplay	3	177	57	foodImage.8	FOODEEG_Images\0136.jpg	NY	Right	Yes	0.553609499998856	0	681399	252
1332.91796875	0.553609499998856	taste	choicePhaseStart	3	177	57	foodImage.8	FOODEEG_Images\0136.jpg	NY	Right	Yes	0.553609499998856	0	682455	253
1333.462890625	0	taste	response	3	177	57	foodImage.8	FOODEEG_Images\0136.jpg	NY	Right	Yes	0.553609499998856	0	682734	235
1334.501953125	1	decision	trialStart	3	178	58	foodImage.71	FOODEEG_Images\0713.jpg	YN	Left	Yes	0.528961400006665	0	683266	251
1335.546875	2	decision	foodImageDisplay	3	178	58	foodImage.71	FOODEEG_Images\0713.jpg	YN	Left	Yes	0.528961400006665	0	683801	252
1337.615234375	0.528961400006665	decision	choicePhaseStart	3	178	58	foodImage.71	FOODEEG_Images\0713.jpg	YN	Left	Yes	0.528961400006665	0	684860	253
1338.134765625	0	decision	response	3	178	58	foodImage.71	FOODEEG_Images\0713.jpg	YN	Left	Yes	0.528961400006665	0	685126	234
1339.173828125	1	taste	trialStart	3	179	59	foodImage.88	FOODEEG_Images\0878.jpg	YN	Left	Yes	0.531419500002812	0	685658	251
1340.228515625	2	taste	foodImageDisplay	3	179	59	foodImage.88	FOODEEG_Images\0878.jpg	YN	Left	Yes	0.531419500002812	0	686198	252
1342.291015625	0.531419500002812	taste	choicePhaseStart	3	179	59	foodImage.88	FOODEEG_Images\0878.jpg	YN	Left	Yes	0.531419500002812	0	687254	253
1342.814453125	0	taste	response	3	179	59	foodImage.88	FOODEEG_Images\0878.jpg	YN	Left	Yes	0.531419500002812	0	687522	234
1343.853515625	1	health	trialStart	3	180	60	foodImage.87	FOODEEG_Images\0873.jpg	NY	Left	No	0.49854900000355	0	688054	251
1344.91015625	2	health	foodImageDisplay	3	180	60	foodImage.87	FOODEEG_Images\0873.jpg	NY	Left	No	0.49854900000355	0	688595	252
1346.97265625	0.49854900000355	health	choicePhaseStart	3	180	60	foodImage.87	FOODEEG_Images\0873.jpg	NY	Left	No	0.49854900000355	0	689651	253
1347.4609375	0	health	response	3	180	60	foodImage.87	FOODEEG_Images\0873.jpg	NY	Left	No	0.49854900000355	0	689901	234
1349.501953125	16.19921875	n/a	blockEnd	n/a	n/a	n/a	n/a	n/a	n/a	n/a	n/a	n/a	n/a	690946	254
1365.701171875	2	n/a	blockStart	4	n/a	n/a	n/a	n/a	n/a	n/a	n/a	n/a	n/a	699240	250
1367.732421875	1	health	trialStart	4	181	1	foodImage.49	FOODEEG_Images\0515.jpg	NY	Right	Yes	0.660586500001955	0	700280	251
1368.79296875	2	health	foodImageDisplay	4	181	1	foodImage.49	FOODEEG_Images\0515.jpg	NY	Right	Yes	0.660586500001955	0	700823	252
1370.859375	0.660586500001955	health	choicePhaseStart	4	181	1	foodImage.49	FOODEEG_Images\0515.jpg	NY	Right	Yes	0.660586500001955	0	701881	253
1371.509765625	0	health	response	4	181	1	foodImage.49	FOODEEG_Images\0515.jpg	NY	Right	Yes	0.660586500001955	0	702214	235
1372.55078125	1	decision	trialStart	4	182	2	foodImage.13	FOODEEG_Images\0183.jpg	NY	Right	Yes	1.04622270000255	0	702747	251
1373.591796875	2	decision	foodImageDisplay	4	182	2	foodImage.13	FOODEEG_Images\0183.jpg	NY	Right	Yes	1.04622270000255	0	703280	252
1375.654296875	1.04622270000255	decision	choicePhaseStart	4	182	2	foodImage.13	FOODEEG_Images\0183.jpg	NY	Right	Yes	1.04622270000255	0	704336	253
1376.693359375	0	decision	response	4	182	2	foodImage.13	FOODEEG_Images\0183.jpg	NY	Right	Yes	1.04622270000255	0	704868	235
1377.734375	1	health	trialStart	4	183	3	foodImage.54	FOODEEG_Images\0560.jpg	YN	Left	Yes	0.558764000001247	0	705401	251
1378.798828125	2	health	foodImageDisplay	4	183	3	foodImage.54	FOODEEG_Images\0560.jpg	YN	Left	Yes	0.558764000001247	0	705946	252
1380.86328125	0.558764000001247	health	choicePhaseStart	4	183	3	foodImage.54	FOODEEG_Images\0560.jpg	YN	Left	Yes	0.558764000001247	0	707003	253
1381.412109375	0	health	response	4	183	3	foodImage.54	FOODEEG_Images\0560.jpg	YN	Left	Yes	0.558764000001247	0	707284	234
1382.458984375	1	decision	trialStart	4	184	4	foodImage.23	FOODEEG_Images\0244.jpg	YN	Left	Yes	0.543695799999114	0	707820	251
1383.51171875	2	decision	foodImageDisplay	4	184	4	foodImage.23	FOODEEG_Images\0244.jpg	YN	Left	Yes	0.543695799999114	0	708359	252
1385.580078125	0.543695799999114	decision	choicePhaseStart	4	184	4	foodImage.23	FOODEEG_Images\0244.jpg	YN	Left	Yes	0.543695799999114	0	709418	253
1386.1171875	0	decision	response	4	184	4	foodImage.23	FOODEEG_Images\0244.jpg	YN	Left	Yes	0.543695799999114	0	709693	234
1387.15625	1	decision	trialStart	4	185	5	foodImage.45	FOODEEG_Images\0478.jpg	NY	Right	Yes	1.08536969999841	0	710225	251
1388.201171875	2	decision	foodImageDisplay	4	185	5	foodImage.45	FOODEEG_Images\0478.jpg	NY	Right	Yes	1.08536969999841	0	710760	252
1390.265625	1.08536969999841	decision	choicePhaseStart	4	185	5	foodImage.45	FOODEEG_Images\0478.jpg	NY	Right	Yes	1.08536969999841	0	711817	253
1391.33984375	0	decision	response	4	185	5	foodImage.45	FOODEEG_Images\0478.jpg	NY	Right	Yes	1.08536969999841	0	712367	235
1392.39453125	1	decision	trialStart	4	186	6	foodImage.44	FOODEEG_Images\0459.jpg	NY	Right	Yes	0.70898920000036	0	712907	251
1393.44140625	2	decision	foodImageDisplay	4	186	6	foodImage.44	FOODEEG_Images\0459.jpg	NY	Right	Yes	0.70898920000036	0	713443	252
1395.50390625	0.70898920000036	decision	choicePhaseStart	4	186	6	foodImage.44	FOODEEG_Images\0459.jpg	NY	Right	Yes	0.70898920000036	0	714499	253
1396.205078125	0	decision	response	4	186	6	foodImage.44	FOODEEG_Images\0459.jpg	NY	Right	Yes	0.70898920000036	0	714858	235
1397.24609375	1	taste	trialStart	4	187	7	foodImage.108	FOODEEG_Images\0916.jpg	NY	Left	No	0.598039500000596	0	715391	251
1398.2890625	2	taste	foodImageDisplay	4	187	7	foodImage.108	FOODEEG_Images\0916.jpg	NY	Left	No	0.598039500000596	0	715925	252
1400.3515625	0.598039500000596	taste	choicePhaseStart	4	187	7	foodImage.108	FOODEEG_Images\0916.jpg	NY	Left	No	0.598039500000596	0	716981	253
1400.939453125	0	taste	response	4	187	7	foodImage.108	FOODEEG_Images\0916.jpg	NY	Left	No	0.598039500000596	0	717282	234
1401.98046875	1	decision	trialStart	4	188	8	foodImage.49	FOODEEG_Images\0515.jpg	NY	Right	Yes	0.73605790000147	0	717815	251
1403.021484375	2	decision	foodImageDisplay	4	188	8	foodImage.49	FOODEEG_Images\0515.jpg	NY	Right	Yes	0.73605790000147	0	718348	252
1405.0859375	0.73605790000147	decision	choicePhaseStart	4	188	8	foodImage.49	FOODEEG_Images\0515.jpg	NY	Right	Yes	0.73605790000147	0	719405	253
1405.8125	0	decision	response	4	188	8	foodImage.49	FOODEEG_Images\0515.jpg	NY	Right	Yes	0.73605790000147	0	719777	235
1406.8515625	1	taste	trialStart	4	189	9	foodImage.50	FOODEEG_Images\0529.jpg	YN	Right	No	0.649182399996789	0	720309	251
1407.908203125	2	taste	foodImageDisplay	4	189	9	foodImage.50	FOODEEG_Images\0529.jpg	YN	Right	No	0.649182399996789	0	720850	252
1409.97265625	0.649182399996789	taste	choicePhaseStart	4	189	9	foodImage.50	FOODEEG_Images\0529.jpg	YN	Right	No	0.649182399996789	0	721907	253
1410.611328125	0	taste	response	4	189	9	foodImage.50	FOODEEG_Images\0529.jpg	YN	Right	No	0.649182399996789	0	722234	235
1411.65234375	1	health	trialStart	4	190	10	foodImage.86	FOODEEG_Images\0844.jpg	YN	Right	No	0.601031199999852	0	722767	251
1412.708984375	2	health	foodImageDisplay	4	190	10	foodImage.86	FOODEEG_Images\0844.jpg	YN	Right	No	0.601031199999852	0	723308	252
1414.771484375	0.601031199999852	health	choicePhaseStart	4	190	10	foodImage.86	FOODEEG_Images\0844.jpg	YN	Right	No	0.601031199999852	0	724364	253
1415.36328125	0	health	response	4	190	10	foodImage.86	FOODEEG_Images\0844.jpg	YN	Right	No	0.601031199999852	0	724667	235
1416.41015625	1	health	trialStart	4	191	11	foodImage.95	FOODEEG_Images\0903.jpg	NY	Left	No	0.625407500003348	0	725203	251
1417.455078125	2	health	foodImageDisplay	4	191	11	foodImage.95	FOODEEG_Images\0903.jpg	NY	Left	No	0.625407500003348	0	725738	252
1419.5234375	0.625407500003348	health	choicePhaseStart	4	191	11	foodImage.95	FOODEEG_Images\0903.jpg	NY	Left	No	0.625407500003348	0	726797	253
1420.138671875	0	health	response	4	191	11	foodImage.95	FOODEEG_Images\0903.jpg	NY	Left	No	0.625407500003348	0	727112	234
1421.181640625	1	health	trialStart	4	192	12	foodImage.39	FOODEEG_Images\0367.jpg	YN	Right	No	0.552516799994919	0	727646	251
1422.220703125	2	health	foodImageDisplay	4	192	12	foodImage.39	FOODEEG_Images\0367.jpg	YN	Right	No	0.552516799994919	0	728178	252
1424.283203125	0.552516799994919	health	choicePhaseStart	4	192	12	foodImage.39	FOODEEG_Images\0367.jpg	YN	Right	No	0.552516799994919	0	729234	253
1424.826171875	0	health	response	4	192	12	foodImage.39	FOODEEG_Images\0367.jpg	YN	Right	No	0.552516799994919	0	729512	235
1425.87109375	1	decision	trialStart	4	193	13	foodImage.28	FOODEEG_Images\0273.jpg	YN	Right	No	0.772701099995174	0	730047	251
1426.912109375	2	decision	foodImageDisplay	4	193	13	foodImage.28	FOODEEG_Images\0273.jpg	YN	Right	No	0.772701099995174	0	730580	252
1428.974609375	0.772701099995174	decision	choicePhaseStart	4	193	13	foodImage.28	FOODEEG_Images\0273.jpg	YN	Right	No	0.772701099995174	0	731636	253
1429.73828125	0	decision	response	4	193	13	foodImage.28	FOODEEG_Images\0273.jpg	YN	Right	No	0.772701099995174	0	732027	235
1430.78125	1	taste	trialStart	4	194	14	foodImage.95	FOODEEG_Images\0903.jpg	YN	Right	No	0.611459799998556	0	732561	251
