onset	duration	trial_type	event_type	block	trial_total	trial_in_block	food_image_code	food_image_path	button_position	resp_position	resp_choice	choice_rt	resp_too_slow	sample	trigger
277.498046875	2	n/a	blockStart	1	n/a	n/a	n/a	n/a	n/a	n/a	n/a	n/a	n/a	142080	250
279.53515625	1	health	trialStart	1	1	1	foodImage.50	FOODEEG_Images\0529.jpg	NY	Right	Yes	1.00534530000004	0	143123	251
280.62109375	2	health	foodImageDisplay	1	1	1	foodImage.50	FOODEEG_Images\0529.jpg	NY	Right	Yes	1.00534530000004	0	143679	252
282.685546875	1.00534530000004	health	choicePhaseStart	1	1	1	foodImage.50	FOODEEG_Images\0529.jpg	NY	Right	Yes	1.00534530000004	0	144736	253
283.68359375	0	health	response	1	1	1	foodImage.50	FOODEEG_Images\0529.jpg	NY	Right	Yes	1.00534530000004	0	145247	235
284.78125	1	taste	trialStart	1	2	2	foodImage.9	FOODEEG_Images\0138.jpg	YN	Left	Yes	1.19684390000111	0	145809	251
285.837890625	2	taste	foodImageDisplay	1	2	2	foodImage.9	FOODEEG_Images\0138.jpg	YN	Left	Yes	1.19684390000111	0	146350	252
287.90234375	1.19684390000111	taste	choicePhaseStart	1	2	2	foodImage.9	FOODEEG_Images\0138.jpg	YN	Left	Yes	1.19684390000111	0	147407	253
289.091796875	0	taste	response	1	2	2	foodImage.9	FOODEEG_Images\0138.jpg	YN	Left	Yes	1.19684390000111	0	148016	234
290.1484375	1	health	trialStart	1	3	3	foodImage.119	FOODEEG_Images\0927.jpg	YN	Right	No	1.29325690000042	0	148557	251
291.189453125	2	health	foodImageDisplay	1	3	3	foodImage.119	FOODEEG_Images\0927.jpg	YN	Right	No	1.29325690000042	0	149090	252
293.25390625	1.29325690000042	health	choicePhaseStart	1	3	3	foodImage.119	FOODEEG_Images\0927.jpg	YN	Right	No	1.29325690000042	0	150147	253
294.5390625	0	health	response	1	3	3	foodImage.119	FOODEEG_Images\0927.jpg	YN	Right	No	1.29325690000042	0	150805	235
295.583984375	1	decision	trialStart	1	4	4	foodImage.44	FOODEEG_Images\0459.jpg	NY	Right	Yes	0.918104599997605	0	151340	251
296.630859375	2	decision	foodImageDisplay	1	4	4	foodImage.44	FOODEEG_Images\0459.jpg	NY	Right	Yes	0.918104599997605	0	151876	252
298.69921875	0.918104599997605	decision	choicePhaseStart	1	4	4	foodImage.44	FOODEEG_Images\0459.jpg	NY	Right	Yes	0.918104599997605	0	152935	253
299.611328125	0	decision	response	1	4	4	foodImage.44	FOODEEG_Images\0459.jpg	NY	Right	Yes	0.918104599997605	0	153402	235
300.65625	1	decision	trialStart	1	5	5	foodImage.73	FOODEEG_Images\0717.jpg	YN	Left	Yes	1.0361914999994	0	153937	251
301.71484375	2	decision	foodImageDisplay	1	5	5	foodImage.73	FOODEEG_Images\0717.jpg	YN	Left	Yes	1.0361914999994	0	154479	252
303.78125	1.0361914999994	decision	choicePhaseStart	1	5	5	foodImage.73	FOODEEG_Images\0717.jpg	YN	Left	Yes	1.0361914999994	0	155537	253
304.810546875	0	decision	response	1	5	5	foodImage.73	FOODEEG_Images\0717.jpg	YN	Left	Yes	1.0361914999994	0	156064	234
305.861328125	1	health	trialStart	1	6	6	foodImage.11	FOODEEG_Images\0180.jpg	NY	Right	Yes	1.28856029999952	0	156602	251
306.904296875	2	health	foodImageDisplay	1	6	6	foodImage.11	FOODEEG_Images\0180.jpg	NY	Right	Yes	1.28856029999952	0	157136	252
308.970703125	1.28856029999952	health	choicePhaseStart	1	6	6	foodImage.11	FOODEEG_Images\0180.jpg	NY	Right	Yes	1.28856029999952	0	158194	253
310.25	0	health	response	1	6	6	foodImage.11	FOODEEG_Images\0180.jpg	NY	Right	Yes	1.28856029999952	0	158849	235
311.298828125	1	taste	trialStart	1	7	7	foodImage.76	FOODEEG_Images\0766.jpg	NY	Right	Yes	0.906559399998514	0	159386	251
312.34375	2	taste	foodImageDisplay	1	7	7	foodImage.76	FOODEEG_Images\0766.jpg	NY	Right	Yes	0.906559399998514	0	159921	252
314.408203125	0.906559399998514	taste	choicePhaseStart	1	7	7	foodImage.76	FOODEEG_Images\0766.jpg	NY	Right	Yes	0.906559399998514	0	160978	253
315.306640625	0	taste	response	1	7	7	foodImage.76	FOODEEG_Images\0766.jpg	NY	Right	Yes	0.906559399998514	0	161438	235
316.36328125	1	decision	trialStart	1	8	8	foodImage.15	FOODEEG_Images\0189.jpg	YN	Left	Yes	1.1523565000025	0	161979	251
317.4375	2	decision	foodImageDisplay	1	8	8	foodImage.15	FOODEEG_Images\0189.jpg	YN	Left	Yes	1.1523565000025	0	162529	252
319.50390625	1.1523565000025	decision	choicePhaseStart	1	8	8	foodImage.15	FOODEEG_Images\0189.jpg	YN	Left	Yes	1.1523565000025	0	163587	253
320.650390625	0	decision	response	1	8	8	foodImage.15	FOODEEG_Images\0189.jpg	YN	Left	Yes	1.1523565000025	0	164174	234
321.693359375	1	decision	trialStart	1	9	9	foodImage.29	FOODEEG_Images\0278.jpg	YN	Left	Yes	1.03395169999931	0	164708	251
322.736328125	2	decision	foodImageDisplay	1	9	9	foodImage.29	FOODEEG_Images\0278.jpg	YN	Left	Yes	1.03395169999931	0	165242	252
324.798828125	1.03395169999931	decision	choicePhaseStart	1	9	9	foodImage.29	FOODEEG_Images\0278.jpg	YN	Left	Yes	1.03395169999931	0	166298	253
325.826171875	0	decision	response	1	9	9	foodImage.29	FOODEEG_Images\0278.jpg	YN	Left	Yes	1.03395169999931	0	166824	234
326.869140625	1	taste	trialStart	1	10	10	foodImage.96	FOODEEG_Images\0904.jpg	NY	Right	Yes	1.31994550000309	0	167358	251
327.908203125	2	taste	foodImageDisplay	1	10	10	foodImage.96	FOODEEG_Images\0904.jpg	NY	Right	Yes	1.31994550000309	0	167890	252
329.9765625	1.31994550000309	taste	choicePhaseStart	1	10	10	foodImage.96	FOODEEG_Images\0904.jpg	NY	Right	Yes	1.31994550000309	0	168949	253
331.2890625	0	taste	response	1	10	10	foodImage.96	FOODEEG_Images\0904.jpg	NY	Right	Yes	1.31994550000309	0	169621	235
332.337890625	1	decision	trialStart	1	11	11	foodImage.38	FOODEEG_Images\0365.jpg	NY	Right	Yes	0.730350800000451	0	170158	251
333.390625	2	decision	foodImageDisplay	1	11	11	foodImage.38	FOODEEG_Images\0365.jpg	NY	Right	Yes	0.730350800000451	0	170697	252
335.455078125	0.730350800000451	decision	choicePhaseStart	1	11	11	foodImage.38	FOODEEG_Images\0365.jpg	NY	Right	Yes	0.730350800000451	0	171754	253
336.177734375	0	decision	response	1	11	11	foodImage.38	FOODEEG_Images\0365.jpg	NY	Right	Yes	0.730350800000451	0	172124	235
337.220703125	1	taste	trialStart	1	12	12	foodImage.97	FOODEEG_Images\0905.jpg	NY	Left	No	1.07847240000046	0	172658	251
338.259765625	2	taste	foodImageDisplay	1	12	12	foodImage.97	FOODEEG_Images\0905.jpg	NY	Left	No	1.07847240000046	0	173190	252
340.32421875	1.07847240000046	taste	choicePhaseStart	1	12	12	foodImage.97	FOODEEG_Images\0905.jpg	NY	Left	No	1.07847240000046	0	174247	253
341.39453125	0	taste	response	1	12	12	foodImage.97	FOODEEG_Images\0905.jpg	NY	Left	No	1.07847240000046	0	174795	234
342.447265625	1	decision	trialStart	1	13	13	foodImage.83	FOODEEG_Images\0827.jpg	YN	Left	Yes	1.6193631999995	0	175334	251
343.50390625	2	decision	foodImageDisplay	1	13	13	foodImage.83	FOODEEG_Images\0827.jpg	YN	Left	Yes	1.6193631999995	0	175875	252
345.56640625	1.6193631999995	decision	choicePhaseStart	1	13	13	foodImage.83	FOODEEG_Images\0827.jpg	YN	Left	Yes	1.6193631999995	0	176931	253
347.177734375	0	decision	response	1	13	13	foodImage.83	FOODEEG_Images\0827.jpg	YN	Left	Yes	1.6193631999995	0	177756	234
348.220703125	1	decision	trialStart	1	14	14	foodImage.71	FOODEEG_Images\0713.jpg	YN	Left	Yes	0.89144160000069	0	178290	251
349.263671875	2	decision	foodImageDisplay	1	14	14	foodImage.71	FOODEEG_Images\0713.jpg	YN	Left	Yes	0.89144160000069	0	178824	252
351.326171875	0.89144160000069	decision	choicePhaseStart	1	14	14	foodImage.71	FOODEEG_Images\0713.jpg	YN	Left	Yes	0.89144160000069	0	179880	253
352.208984375	0	decision	response	1	14	14	foodImage.71	FOODEEG_Images\0713.jpg	YN	Left	Yes	0.89144160000069	0	180332	234
353.251953125	1	health	trialStart	1	15	15	foodImage.57	FOODEEG_Images\0587.jpg	NY	Left	No	1.06768759999977	0	180866	251
354.294921875	2	health	foodImageDisplay	1	15	15	foodImage.57	FOODEEG_Images\0587.jpg	NY	Left	No	1.06768759999977	0	181400	252
356.357421875	1.06768759999977	health	choicePhaseStart	1	15	15	foodImage.57	FOODEEG_Images\0587.jpg	NY	Left	No	1.06768759999977	0	182456	253
357.416015625	0	health	response	1	15	15	foodImage.57	FOODEEG_Images\0587.jpg	NY	Left	No	1.06768759999977	0	182998	234
358.4609375	1	decision	trialStart	1	16	16	foodImage.65	FOODEEG_Images\0658.jpg	YN	Right	No	2.21292990000074	0	183533	251
359.501953125	2	decision	foodImageDisplay	1	16	16	foodImage.65	FOODEEG_Images\0658.jpg	YN	Right	No	2.21292990000074	0	184066	252
361.568359375	2.21292990000074	decision	choicePhaseStart	1	16	16	foodImage.65	FOODEEG_Images\0658.jpg	YN	Right	No	2.21292990000074	0	185124	253
363.775390625	0	decision	response	1	16	16	foodImage.65	FOODEEG_Images\0658.jpg	YN	Right	No	2.21292990000074	0	186254	235
364.818359375	1	taste	trialStart	1	17	17	foodImage.110	FOODEEG_Images\0918.jpg	NY	Left	No	1.41384179999659	0	186788	251
365.859375	2	taste	foodImageDisplay	1	17	17	foodImage.110	FOODEEG_Images\0918.jpg	NY	Left	No	1.41384179999659	0	187321	252
367.921875	1.41384179999659	taste	choicePhaseStart	1	17	17	foodImage.110	FOODEEG_Images\0918.jpg	NY	Left	No	1.41384179999659	0	188377	253
369.328125	0	taste	response	1	17	17	foodImage.110	FOODEEG_Images\0918.jpg	NY	Left	No	1.41384179999659	0	189097	234
370.373046875	1	health	trialStart	1	18	18	foodImage.22	FOODEEG_Images\0236.jpg	YN	Left	Yes	0.924392400000215	0	189632	251
371.431640625	2	health	foodImageDisplay	1	18	18	foodImage.22	FOODEEG_Images\0236.jpg	YN	Left	Yes	0.924392400000215	0	190174	252
373.498046875	0.924392400000215	health	choicePhaseStart	1	18	18	foodImage.22	FOODEEG_Images\0236.jpg	YN	Left	Yes	0.924392400000215	0	191232	253
374.416015625	0	health	response	1	18	18	foodImage.22	FOODEEG_Images\0236.jpg	YN	Left	Yes	0.924392400000215	0	191702	234
375.458984375	1	decision	trialStart	1	19	19	foodImage.94	FOODEEG_Images\0902.jpg	YN	Right	No	1.17374740000014	0	192236	251
376.498046875	2	decision	foodImageDisplay	1	19	19	foodImage.94	FOODEEG_Images\0902.jpg	YN	Right	No	1.17374740000014	0	192768	252
378.560546875	1.17374740000014	decision	choicePhaseStart	1	19	19	foodImage.94	FOODEEG_Images\0902.jpg	YN	Right	No	1.17374740000014	0	193824	253
379.728515625	0	decision	response	1	19	19	foodImage.94	FOODEEG_Images\0902.jpg	YN	Right	No	1.17374740000014	0	194422	235
380.76953125	1	decision	trialStart	1	20	20	foodImage.52	FOODEEG_Images\0539.jpg	NY	Left	No	1.20588190000126	0	194955	251
381.828125	2	decision	foodImageDisplay	1	20	20	foodImage.52	FOODEEG_Images\0539.jpg	NY	Left	No	1.20588190000126	0	195497	252
383.890625	1.20588190000126	decision	choicePhaseStart	1	20	20	foodImage.52	FOODEEG_Images\0539.jpg	NY	Left	No	1.20588190000126	0	196553	253
385.087890625	0	decision	response	1	20	20	foodImage.52	FOODEEG_Images\0539.jpg	NY	Left	No	1.20588190000126	0	197166	234
386.130859375	1	taste	trialStart	1	21	21	foodImage.44	FOODEEG_Images\0459.jpg	NY	Right	Yes	1.23729230000026	0	197700	251
387.177734375	2	taste	foodImageDisplay	1	21	21	foodImage.44	FOODEEG_Images\0459.jpg	NY	Right	Yes	1.23729230000026	0	198236	252
389.240234375	1.23729230000026	taste	choicePhaseStart	1	21	21	foodImage.44	FOODEEG_Images\0459.jpg	NY	Right	Yes	1.23729230000026	0	199292	253
390.470703125	0	taste	response	1	21	21	foodImage.44	FOODEEG_Images\0459.jpg	NY	Right	Yes	1.23729230000026	0	199922	235
391.515625	1	decision	trialStart	1	22	22	foodImage.48	FOODEEG_Images\0494.jpg	YN	Right	No	0.983382099999289	0	200457	251
392.576171875	2	decision	foodImageDisplay	1	22	22	foodImage.48	FOODEEG_Images\0494.jpg	YN	Right	No	0.983382099999289	0	201000	252
394.64453125	0.983382099999289	decision	choicePhaseStart	1	22	22	foodImage.48	FOODEEG_Images\0494.jpg	YN	Right	No	0.983382099999289	0	202059	253
395.623046875	0	decision	response	1	22	22	foodImage.48	FOODEEG_Images\0494.jpg	YN	Right	No	0.983382099999289	0	202560	235
396.666015625	1	taste	trialStart	1	23	23	foodImage.118	FOODEEG_Images\0926.jpg	NY	Left	No	1.89571499999875	0	203094	251
397.705078125	2	taste	foodImageDisplay	1	23	23	foodImage.118	FOODEEG_Images\0926.jpg	NY	Left	No	1.89571499999875	0	203626	252
399.76953125	1.89571499999875	taste	choicePhaseStart	1	23	23	foodImage.118	FOODEEG_Images\0926.jpg	NY	Left	No	1.89571499999875	0	204683	253
401.654296875	0	taste	response	1	23	23	foodImage.118	FOODEEG_Images\0926.jpg	NY	Left	No	1.89571499999875	0	205648	234
402.697265625	1	health	trialStart	1	24	24	foodImage.116	FOODEEG_Images\0924.jpg	YN	Right	No	1.18233830000099	0	206182	251
403.73828125	2	health	foodImageDisplay	1	24	24	foodImage.116	FOODEEG_Images\0924.jpg	YN	Right	No	1.18233830000099	0	206715	252
405.802734375	1.18233830000099	health	choicePhaseStart	1	24	24	foodImage.116	FOODEEG_Images\0924.jpg	YN	Right	No	1.18233830000099	0	207772	253
406.974609375	0	health	response	1	24	24	foodImage.116	FOODEEG_Images\0924.jpg	YN	Right	No	1.18233830000099	0	208372	235
408.017578125	1	health	trialStart	1	25	25	foodImage.66	FOODEEG_Images\0676.jpg	YN	Right	No	0.968579199998203	0	208906	251
409.060546875	2	health	foodImageDisplay	1	25	25	foodImage.66	FOODEEG_Images\0676.jpg	YN	Right	No	0.968579199998203	0	209440	252
411.126953125	0.968579199998203	health	choicePhaseStart	1	25	25	foodImage.66	FOODEEG_Images\0676.jpg	YN	Right	No	0.968579199998203	0	210498	253
412.0859375	0	health	response	1	25	25	foodImage.66	FOODEEG_Images\0676.jpg	YN	Right	No	0.968579199998203	0	210989	235
413.130859375	1	taste	trialStart	1	26	26	foodImage.21	FOODEEG_Images\0234.jpg	NY	Left	No	1.4899912999972	0	211524	251
414.189453125	2	taste	foodImageDisplay	1	26	26	foodImage.21	FOODEEG_Images\0234.jpg	NY	Left	No	1.4899912999972	0	212066	252
416.25390625	1.4899912999972	taste	choicePhaseStart	1	26	26	foodImage.21	FOODEEG_Images\0234.jpg	NY	Left	No	1.4899912999972	0	213123	253
417.734375	0	taste	response	1	26	26	foodImage.21	FOODEEG_Images\0234.jpg	NY	Left	No	1.4899912999972	0	213881	234
418.78125	1	decision	trialStart	1	27	27	foodImage.9	FOODEEG_Images\0138.jpg	YN	Right	No	1.03122040000017	0	214417	251
419.837890625	2	decision	foodImageDisplay	1	27	27	foodImage.9	FOODEEG_Images\0138.jpg	YN	Right	No	1.03122040000017	0	214958	252
421.90234375	1.03122040000017	decision	choicePhaseStart	1	27	27	foodImage.9	FOODEEG_Images\0138.jpg	YN	Right	No	1.03122040000017	0	216015	253
422.92578125	0	decision	response	1	27	27	foodImage.9	FOODEEG_Images\0138.jpg	YN	Right	No	1.03122040000017	0	216539	235
423.96875	1	decision	trialStart	1	28	28	foodImage.58	FOODEEG_Images\0605.jpg	NY	Right	Yes	0.926893300002121	0	217073	251
425.033203125	2	decision	foodImageDisplay	1	28	28	foodImage.58	FOODEEG_Images\0605.jpg	NY	Right	Yes	0.926893300002121	0	217618	252
427.095703125	0.926893300002121	decision	choicePhaseStart	1	28	28	foodImage.58	FOODEEG_Images\0605.jpg	NY	Right	Yes	0.926893300002121	0	218674	253
428.013671875	0	decision	response	1	28	28	foodImage.58	FOODEEG_Images\0605.jpg	NY	Right	Yes	0.926893300002121	0	219144	235
429.0546875	1	taste	trialStart	1	29	29	foodImage.91	FOODEEG_Images\0896.jpg	YN	Left	Yes	0.940208299998631	0	219677	251
430.115234375	2	taste	foodImageDisplay	1	29	29	foodImage.91	FOODEEG_Images\0896.jpg	YN	Left	Yes	0.940208299998631	0	220220	252
432.177734375	0.940208299998631	taste	choicePhaseStart	1	29	29	foodImage.91	FOODEEG_Images\0896.jpg	YN	Left	Yes	0.940208299998631	0	221276	253
433.109375	0	taste	response	1	29	29	foodImage.91	FOODEEG_Images\0896.jpg	YN	Left	Yes	0.940208299998631	0	221753	234
434.15234375	1	taste	trialStart	1	30	30	foodImage.59	FOODEEG_Images\0607.jpg	NY	Left	No	1.17755300000135	0	222287	251
435.19921875	2	taste	foodImageDisplay	1	30	30	foodImage.59	FOODEEG_Images\0607.jpg	NY	Left	No	1.17755300000135	0	222823	252
437.26171875	1.17755300000135	taste	choicePhaseStart	1	30	30	foodImage.59	FOODEEG_Images\0607.jpg	NY	Left	No	1.17755300000135	0	223879	253
438.4296875	0	taste	response	1	30	30	foodImage.59	FOODEEG_Images\0607.jpg	NY	Left	No	1.17755300000135	0	224477	234
439.47265625	1	taste	trialStart	1	31	31	foodImage.98	FOODEEG_Images\0906.jpg	YN	Right	No	0.912858399999095	0	225011	251
440.509765625	2	taste	foodImageDisplay	1	31	31	foodImage.98	FOODEEG_Images\0906.jpg	YN	Right	No	0.912858399999095	0	225542	252
442.57421875	0.912858399999095	taste	choicePhaseStart	1	31	31	foodImage.98	FOODEEG_Images\0906.jpg	YN	Right	No	0.912858399999095	0	226599	253
443.4765625	0	taste	response	1	31	31	foodImage.98	FOODEEG_Images\0906.jpg	YN	Right	No	0.912858399999095	0	227061	235
444.51953125	1	health	trialStart	1	32	32	foodImage.26	FOODEEG_Images\0262.jpg	YN	Left	Yes	0.761049400000047	0	227595	251
445.560546875	2	health	foodImageDisplay	1	32	32	foodImage.26	FOODEEG_Images\0262.jpg	YN	Left	Yes	0.761049400000047	0	228128	252
447.62890625	0.761049400000047	health	choicePhaseStart	1	32	32	foodImage.26	FOODEEG_Images\0262.jpg	YN	Left	Yes	0.761049400000047	0	229187	253
448.380859375	0	health	response	1	32	32	foodImage.26	FOODEEG_Images\0262.jpg	YN	Left	Yes	0.761049400000047	0	229572	234
449.42578125	1	taste	trialStart	1	33	33	foodImage.93	FOODEEG_Images\0901.jpg	YN	Left	Yes	0.98339329999726	0	230107	251
450.46484375	2	taste	foodImageDisplay	1	33	33	foodImage.93	FOODEEG_Images\0901.jpg	YN	Left	Yes	0.98339329999726	0	230639	252
452.52734375	0.98339329999726	taste	choicePhaseStart	1	33	33	foodImage.93	FOODEEG_Images\0901.jpg	YN	Left	Yes	0.98339329999726	0	231695	253
453.5	0	taste	response	1	33	33	foodImage.93	FOODEEG_Images\0901.jpg	YN	Left	Yes	0.98339329999726	0	232193	234
454.54296875	1	taste	trialStart	1	34	34	foodImage.116	FOODEEG_Images\0924.jpg	YN	Right	No	0.718494299999293	0	232727	251
455.58203125	2	taste	foodImageDisplay	1	34	34	foodImage.116	FOODEEG_Images\0924.jpg	YN	Right	No	0.718494299999293	0	233259	252
457.646484375	0.718494299999293	taste	choicePhaseStart	1	34	34	foodImage.116	FOODEEG_Images\0924.jpg	YN	Right	No	0.718494299999293	0	234316	253
458.35546875	0	taste	response	1	34	34	foodImage.116	FOODEEG_Images\0924.jpg	YN	Right	No	0.718494299999293	0	234679	235
459.40625	1	health	trialStart	1	35	35	foodImage.51	FOODEEG_Images\0536.jpg	NY	Left	No	0.857789000001503	0	235217	251
460.453125	2	health	foodImageDisplay	1	35	35	foodImage.51	FOODEEG_Images\0536.jpg	NY	Left	No	0.857789000001503	0	235753	252
462.515625	0.857789000001503	health	choicePhaseStart	1	35	35	foodImage.51	FOODEEG_Images\0536.jpg	NY	Left	No	0.857789000001503	0	236809	253
463.36328125	0	health	response	1	35	35	foodImage.51	FOODEEG_Images\0536.jpg	NY	Left	No	0.857789000001503	0	237243	234
464.408203125	1	health	trialStart	1	36	36	foodImage.105	FOODEEG_Images\0913.jpg	YN	Left	Yes	1.93739850000202	0	237778	251
465.4453125	2	health	foodImageDisplay	1	36	36	foodImage.105	FOODEEG_Images\0913.jpg	YN	Left	Yes	1.93739850000202	0	238309	252
467.5078125	1.93739850000202	health	choicePhaseStart	1	36	36	foodImage.105	FOODEEG_Images\0913.jpg	YN	Left	Yes	1.93739850000202	0	239365	253
469.435546875	0	health	response	1	36	36	foodImage.105	FOODEEG_Images\0913.jpg	YN	Left	Yes	1.93739850000202	0	240352	234
470.484375	1	health	trialStart	1	37	37	foodImage.63	FOODEEG_Images\0645.jpg	YN	Right	No	1.16160529999979	0	240889	251
471.525390625	2	health	foodImageDisplay	1	37	37	foodImage.63	FOODEEG_Images\0645.jpg	YN	Right	No	1.16160529999979	0	241422	252
473.587890625	1.16160529999979	health	choicePhaseStart	1	37	37	foodImage.63	FOODEEG_Images\0645.jpg	YN	Right	No	1.16160529999979	0	242478	253
474.740234375	0	health	response	1	37	37	foodImage.63	FOODEEG_Images\0645.jpg	YN	Right	No	1.16160529999979	0	243068	235
475.7890625	1	taste	trialStart	1	38	38	foodImage.62	FOODEEG_Images\0644.jpg	NY	Right	Yes	0.916552899998351	0	243605	251
476.84765625	2	taste	foodImageDisplay	1	38	38	foodImage.62	FOODEEG_Images\0644.jpg	NY	Right	Yes	0.916552899998351	0	244147	252
478.912109375	0.916552899998351	taste	choicePhaseStart	1	38	38	foodImage.62	FOODEEG_Images\0644.jpg	NY	Right	Yes	0.916552899998351	0	245204	253
479.8203125	0	taste	response	1	38	38	foodImage.62	FOODEEG_Images\0644.jpg	NY	Right	Yes	0.916552899998351	0	245669	235
480.86328125	1	decision	trialStart	1	39	39	foodImage.8	FOODEEG_Images\0136.jpg	YN	Right	No	1.33398709999892	0	246203	251
481.91015625	2	decision	foodImageDisplay	1	39	39	foodImage.8	FOODEEG_Images\0136.jpg	YN	Right	No	1.33398709999892	0	246739	252
483.974609375	1.33398709999892	decision	choicePhaseStart	1	39	39	foodImage.8	FOODEEG_Images\0136.jpg	YN	Right	No	1.33398709999892	0	247796	253
485.298828125	0	decision	response	1	39	39	foodImage.8	FOODEEG_Images\0136.jpg	YN	Right	No	1.33398709999892	0	248474	235
486.34375	1	decision	trialStart	1	40	40	foodImage.23	FOODEEG_Images\0244.jpg	YN	Right	No	0.717113800001243	0	249009	251
487.3828125	2	decision	foodImageDisplay	1	40	40	foodImage.23	FOODEEG_Images\0244.jpg	YN	Right	No	0.717113800001243	0	249541	252
489.447265625	0.717113800001243	decision	choicePhaseStart	1	40	40	foodImage.23	FOODEEG_Images\0244.jpg	YN	Right	No	0.717113800001243	0	250598	253
490.15625	0	decision	response	1	40	40	foodImage.23	FOODEEG_Images\0244.jpg	YN	Right	No	0.717113800001243	0	250961	235
491.19921875	1	taste	trialStart	1	41	41	foodImage.73	FOODEEG_Images\0717.jpg	NY	Right	Yes	1.0041936000016	0	251495	251
492.263671875	2	taste	foodImageDisplay	1	41	41	foodImage.73	FOODEEG_Images\0717.jpg	NY	Right	Yes	1.0041936000016	0	252040	252
494.328125	1.0041936000016	taste	choicePhaseStart	1	41	41	foodImage.73	FOODEEG_Images\0717.jpg	NY	Right	Yes	1.0041936000016	0	253097	253
495.322265625	0	taste	response	1	41	41	foodImage.73	FOODEEG_Images\0717.jpg	NY	Right	Yes	1.0041936000016	0	253606	235
496.3671875	1	health	trialStart	1	42	42	foodImage.36	FOODEEG_Images\0352.jpg	NY	Left	No	0.992587100001401	0	254141	251
497.44921875	2	health	foodImageDisplay	1	42	42	foodImage.36	FOODEEG_Images\0352.jpg	NY	Left	No	0.992587100001401	0	254695	252
499.513671875	0.992587100001401	health	choicePhaseStart	1	42	42	foodImage.36	FOODEEG_Images\0352.jpg	NY	Left	No	0.992587100001401	0	255752	253
500.498046875	0	health	response	1	42	42	foodImage.36	FOODEEG_Images\0352.jpg	NY	Left	No	0.992587100001401	0	256256	234
501.541015625	1	taste	trialStart	1	43	43	foodImage.6	FOODEEG_Images\0113.jpg	YN	Left	Yes	1.15355629999976	0	256790	251
502.583984375	2	taste	foodImageDisplay	1	43	43	foodImage.6	FOODEEG_Images\0113.jpg	YN	Left	Yes	1.15355629999976	0	257324	252
504.6484375	1.15355629999976	taste	choicePhaseStart	1	43	43	foodImage.6	FOODEEG_Images\0113.jpg	YN	Left	Yes	1.15355629999976	0	258381	253
505.794921875	0	taste	response	1	43	43	foodImage.6	FOODEEG_Images\0113.jpg	YN	Left	Yes	1.15355629999976	0	258968	234
506.841796875	1	health	trialStart	1	44	44	foodImage.31	FOODEEG_Images\0294.jpg	NY	Right	Yes	1.99639640000169	0	259504	251
507.8828125	2	health	foodImageDisplay	1	44	44	foodImage.31	FOODEEG_Images\0294.jpg	NY	Right	Yes	1.99639640000169	0	260037	252
509.94921875	1.99639640000169	health	choicePhaseStart	1	44	44	foodImage.31	FOODEEG_Images\0294.jpg	NY	Right	Yes	1.99639640000169	0	261095	253
511.9375	0	health	response	1	44	44	foodImage.31	FOODEEG_Images\0294.jpg	NY	Right	Yes	1.99639640000169	0	262113	235
512.982421875	1	taste	trialStart	1	45	45	foodImage.12	FOODEEG_Images\0181.jpg	NY	Right	Yes	0.866515199999412	0	262648	251
514.02734375	2	taste	foodImageDisplay	1	45	45	foodImage.12	FOODEEG_Images\0181.jpg	NY	Right	Yes	0.866515199999412	0	263183	252
516.095703125	0.866515199999412	taste	choicePhaseStart	1	45	45	foodImage.12	FOODEEG_Images\0181.jpg	NY	Right	Yes	0.866515199999412	0	264242	253
516.955078125	0	taste	response	1	45	45	foodImage.12	FOODEEG_Images\0181.jpg	NY	Right	Yes	0.866515199999412	0	264682	235
517.998046875	1	health	trialStart	1	46	46	foodImage.72	FOODEEG_Images\0714.jpg	YN	Left	Yes	1.57980010000028	0	265216	251
519.041015625	2	health	foodImageDisplay	1	46	46	foodImage.72	FOODEEG_Images\0714.jpg	YN	Left	Yes	1.57980010000028	0	265750	252
521.103515625	1.57980010000028	health	choicePhaseStart	1	46	46	foodImage.72	FOODEEG_Images\0714.jpg	YN	Left	Yes	1.57980010000028	0	266806	253
522.673828125	0	health	response	1	46	46	foodImage.72	FOODEEG_Images\0714.jpg	YN	Left	Yes	1.57980010000028	0	267610	234
523.724609375	1	health	trialStart	1	47	47	foodImage.83	FOODEEG_Images\0827.jpg	YN	Left	Yes	0.781114400000661	0	268148	251
524.78125	2	health	foodImageDisplay	1	47	47	foodImage.83	FOODEEG_Images\0827.jpg	YN	Left	Yes	0.781114400000661	0	268689	252
526.845703125	0.781114400000661	health	choicePhaseStart	1	47	47	foodImage.83	FOODEEG_Images\0827.jpg	YN	Left	Yes	0.781114400000661	0	269746	253
527.6171875	0	health	response	1	47	47	foodImage.83	FOODEEG_Images\0827.jpg	YN	Left	Yes	0.781114400000661	0	270141	234
528.66796875	1	decision	trialStart	1	48	48	foodImage.24	FOODEEG_Images\0250.jpg	YN	Left	Yes	0.959307699999044	0	270679	251
529.712890625	2	decision	foodImageDisplay	1	48	48	foodImage.24	FOODEEG_Images\0250.jpg	YN	Left	Yes	0.959307699999044	0	271214	252
531.779296875	0.959307699999044	decision	choicePhaseStart	1	48	48	foodImage.24	FOODEEG_Images\0250.jpg	YN	Left	Yes	0.959307699999044	0	272272	253
532.73046875	0	decision	response	1	48	48	foodImage.24	FOODEEG_Images\0250.jpg	YN	Left	Yes	0.959307699999044	0	272759	234
533.771484375	1	taste	trialStart	1	49	49	foodImage.103	FOODEEG_Images\0911.jpg	NY	Right	Yes	0.853207899999688	0	273292	251
534.8203125	2	taste	foodImageDisplay	1	49	49	foodImage.103	FOODEEG_Images\0911.jpg	NY	Right	Yes	0.853207899999688	0	273829	252
536.8828125	0.853207899999688	taste	choicePhaseStart	1	49	49	foodImage.103	FOODEEG_Images\0911.jpg	NY	Right	Yes	0.853207899999688	0	274885	253
537.728515625	0	taste	response	1	49	49	foodImage.103	FOODEEG_Images\0911.jpg	NY	Right	Yes	0.853207899999688	0	275318	235
538.77734375	1	taste	trialStart	1	50	50	foodImage.104	FOODEEG_Images\0912.jpg	YN	Right	No	1.04396819999965	0	275855	251
539.814453125	2	taste	foodImageDisplay	1	50	50	foodImage.104	FOODEEG_Images\0912.jpg	YN	Right	No	1.04396819999965	0	276386	252
541.87890625	1.04396819999965	taste	choicePhaseStart	1	50	50	foodImage.104	FOODEEG_Images\0912.jpg	YN	Right	No	1.04396819999965	0	277443	253
542.9140625	0	taste	response	1	50	50	foodImage.104	FOODEEG_Images\0912.jpg	YN	Right	No	1.04396819999965	0	277973	235
543.955078125	1	taste	trialStart	1	51	51	foodImage.109	FOODEEG_Images\0917.jpg	NY	Left	No	0.887904599996546	0	278506	251
544.994140625	2	taste	foodImageDisplay	1	51	51	foodImage.109	FOODEEG_Images\0917.jpg	NY	Left	No	0.887904599996546	0	279038	252
547.05859375	0.887904599996546	taste	choicePhaseStart	1	51	51	foodImage.109	FOODEEG_Images\0917.jpg	NY	Left	No	0.887904599996546	0	280095	253
547.9375	0	taste	response	1	51	51	foodImage.109	FOODEEG_Images\0917.jpg	NY	Left	No	0.887904599996546	0	280545	234
548.978515625	1	decision	trialStart	1	52	52	foodImage.14	FOODEEG_Images\0188.jpg	NY	Right	Yes	0.953576599997177	0	281078	251
550.064453125	2	decision	foodImageDisplay	1	52	52	foodImage.14	FOODEEG_Images\0188.jpg	NY	Right	Yes	0.953576599997177	0	281634	252
552.12890625	0.953576599997177	decision	choicePhaseStart	1	52	52	foodImage.14	FOODEEG_Images\0188.jpg	NY	Right	Yes	0.953576599997177	0	282691	253
553.072265625	0	decision	response	1	52	52	foodImage.14	FOODEEG_Images\0188.jpg	NY	Right	Yes	0.953576599997177	0	283174	235
554.1171875	1	taste	trialStart	1	53	53	foodImage.84	FOODEEG_Images\0830.jpg	YN	Left	Yes	2.18031060000067	0	283709	251
555.1796875	2	taste	foodImageDisplay	1	53	53	foodImage.84	FOODEEG_Images\0830.jpg	YN	Left	Yes	2.18031060000067	0	284253	252
557.24609375	2.18031060000067	taste	choicePhaseStart	1	53	53	foodImage.84	FOODEEG_Images\0830.jpg	YN	Left	Yes	2.18031060000067	0	285311	253
559.416015625	0	taste	response	1	53	53	foodImage.84	FOODEEG_Images\0830.jpg	YN	Left	Yes	2.18031060000067	0	286422	234
560.458984375	1	decision	trialStart	1	54	54	foodImage.119	FOODEEG_Images\0927.jpg	YN	Right	No	1.00136960000236	0	286956	251
561.498046875	2	decision	foodImageDisplay	1	54	54	foodImage.119	FOODEEG_Images\0927.jpg	YN	Right	No	1.00136960000236	0	287488	252
563.560546875	1.00136960000236	decision	choicePhaseStart	1	54	54	foodImage.119	FOODEEG_Images\0927.jpg	YN	Right	No	1.00136960000236	0	288544	253
564.552734375	0	decision	response	1	54	54	foodImage.119	FOODEEG_Images\0927.jpg	YN	Right	No	1.00136960000236	0	289052	235
565.595703125	1	health	trialStart	1	55	55	foodImage.45	FOODEEG_Images\0478.jpg	NY	Right	Yes	0.90399669999897	0	289586	251
566.642578125	2	health	foodImageDisplay	1	55	55	foodImage.45	FOODEEG_Images\0478.jpg	NY	Right	Yes	0.90399669999897	0	290122	252
568.705078125	0.90399669999897	health	choicePhaseStart	1	55	55	foodImage.45	FOODEEG_Images\0478.jpg	NY	Right	Yes	0.90399669999897	0	291178	253
569.599609375	0	health	response	1	55	55	foodImage.45	FOODEEG_Images\0478.jpg	NY	Right	Yes	0.90399669999897	0	291636	235
570.642578125	1	health	trialStart	1	56	56	foodImage.97	FOODEEG_Images\0905.jpg	YN	Right	No	0.973722099999577	0	292170	251
571.681640625	2	health	foodImageDisplay	1	56	56	foodImage.97	FOODEEG_Images\0905.jpg	YN	Right	No	0.973722099999577	0	292702	252
573.74609375	0.973722099999577	health	choicePhaseStart	1	56	56	foodImage.97	FOODEEG_Images\0905.jpg	YN	Right	No	0.973722099999577	0	293759	253
574.7109375	0	health	response	1	56	56	foodImage.97	FOODEEG_Images\0905.jpg	YN	Right	No	0.973722099999577	0	294253	235
575.755859375	1	decision	trialStart	1	57	57	foodImage.21	FOODEEG_Images\0234.jpg	YN	Right	No	1.3150440999998	0	294788	251
576.814453125	2	decision	foodImageDisplay	1	57	57	foodImage.21	FOODEEG_Images\0234.jpg	YN	Right	No	1.3150440999998	0	295330	252
578.87890625	1.3150440999998	decision	choicePhaseStart	1	57	57	foodImage.21	FOODEEG_Images\0234.jpg	YN	Right	No	1.3150440999998	0	296387	253
580.18359375	0	decision	response	1	57	57	foodImage.21	FOODEEG_Images\0234.jpg	YN	Right	No	1.3150440999998	0	297055	235
581.232421875	1	decision	trialStart	1	58	58	foodImage.26	FOODEEG_Images\0262.jpg	NY	Right	Yes	1.10127089999878	0	297592	251
582.275390625	2	decision	foodImageDisplay	1	58	58	foodImage.26	FOODEEG_Images\0262.jpg	NY	Right	Yes	1.10127089999878	0	298126	252
584.33984375	1.10127089999878	decision	choicePhaseStart	1	58	58	foodImage.26	FOODEEG_Images\0262.jpg	NY	Right	Yes	1.10127089999878	0	299183	253
585.431640625	0	decision	response	1	58	58	foodImage.26	FOODEEG_Images\0262.jpg	NY	Right	Yes	1.10127089999878	0	299742	235
586.48046875	1	taste	trialStart	1	59	59	foodImage.14	FOODEEG_Images\0188.jpg	NY	Right	Yes	1.13514940000096	0	300279	251
587.5390625	2	taste	foodImageDisplay	1	59	59	foodImage.14	FOODEEG_Images\0188.jpg	NY	Right	Yes	1.13514940000096	0	300821	252
589.6015625	1.13514940000096	taste	choicePhaseStart	1	59	59	foodImage.14	FOODEEG_Images\0188.jpg	NY	Right	Yes	1.13514940000096	0	301877	253
590.7265625	0	taste	response	1	59	59	foodImage.14	FOODEEG_Images\0188.jpg	NY	Right	Yes	1.13514940000096	0	302453	235
591.76953125	1	decision	trialStart	1	60	60	foodImage.106	FOODEEG_Images\0914.jpg	YN	Right	No	1.13375689999884	0	302987	251
592.826171875	2	decision	foodImageDisplay	1	60	60	foodImage.106	FOODEEG_Images\0914.jpg	YN	Right	No	1.13375689999884	0	303528	252
594.890625	1.13375689999884	decision	choicePhaseStart	1	60	60	foodImage.106	FOODEEG_Images\0914.jpg	YN	Right	No	1.13375689999884	0	304585	253
596.015625	0	decision	response	1	60	60	foodImage.106	FOODEEG_Images\0914.jpg	YN	Right	No	1.13375689999884	0	305161	235
598.05859375	7.4296875	n/a	blockEnd	n/a	n/a	n/a	n/a	n/a	n/a	n/a	n/a	n/a	n/a	306207	254
605.48828125	2	n/a	blockStart	2	n/a	n/a	n/a	n/a	n/a	n/a	n/a	n/a	n/a	310011	250
607.529296875	1	health	trialStart	2	61	1	foodImage.92	FOODEEG_Images\0900.jpg	NY	Left	No	1.15887899999871	0	311056	251
608.591796875	2	health	foodImageDisplay	2	61	1	foodImage.92	FOODEEG_Images\0900.jpg	NY	Left	No	1.15887899999871	0	311600	252
610.65625	1.15887899999871	health	choicePhaseStart	2	61	1	foodImage.92	FOODEEG_Images\0900.jpg	NY	Left	No	1.15887899999871	0	312657	253
611.806640625	0	health	response	2	61	1	foodImage.92	FOODEEG_Images\0900.jpg	NY	Left	No	1.15887899999871	0	313246	234
612.849609375	1	taste	trialStart	2	62	2	foodImage.42	FOODEEG_Images\0438.jpg	YN	Right	No	1.35985309999887	0	313780	251
613.951171875	2	taste	foodImageDisplay	2	62	2	foodImage.42	FOODEEG_Images\0438.jpg	YN	Right	No	1.35985309999887	0	314344	252
616.015625	1.35985309999887	taste	choicePhaseStart	2	62	2	foodImage.42	FOODEEG_Images\0438.jpg	YN	Right	No	1.35985309999887	0	315401	253
617.3671875	0	taste	response	2	62	2	foodImage.42	FOODEEG_Images\0438.jpg	YN	Right	No	1.35985309999887	0	316093	235
618.408203125	1	health	trialStart	2	63	3	foodImage.9	FOODEEG_Images\0138.jpg	NY	Left	No	1.12456849999944	0	316626	251
619.4921875	2	health	foodImageDisplay	2	63	3	foodImage.9	FOODEEG_Images\0138.jpg	NY	Left	No	1.12456849999944	0	317181	252
621.5546875	1.12456849999944	health	choicePhaseStart	2	63	3	foodImage.9	FOODEEG_Images\0138.jpg	NY	Left	No	1.12456849999944	0	318237	253
622.669921875	0	health	response	2	63	3	foodImage.9	FOODEEG_Images\0138.jpg	NY	Left	No	1.12456849999944	0	318808	234
623.712890625	1	taste	trialStart	2	64	4	foodImage.106	FOODEEG_Images\0914.jpg	YN	Right	No	0.989847700002429	0	319342	251
624.75390625	2	taste	foodImageDisplay	2	64	4	foodImage.106	FOODEEG_Images\0914.jpg	YN	Right	No	0.989847700002429	0	319875	252
626.818359375	0.989847700002429	taste	choicePhaseStart	2	64	4	foodImage.106	FOODEEG_Images\0914.jpg	YN	Right	No	0.989847700002429	0	320932	253
627.798828125	0	taste	response	2	64	4	foodImage.106	FOODEEG_Images\0914.jpg	YN	Right	No	0.989847700002429	0	321434	235
628.841796875	1	taste	trialStart	2	65	5	foodImage.33	FOODEEG_Images\0329.jpg	YN	Left	Yes	0.66773099999773	0	321968	251
629.8828125	2	taste	foodImageDisplay	2	65	5	foodImage.33	FOODEEG_Images\0329.jpg	YN	Left	Yes	0.66773099999773	0	322501	252
631.947265625	0.66773099999773	taste	choicePhaseStart	2	65	5	foodImage.33	FOODEEG_Images\0329.jpg	YN	Left	Yes	0.66773099999773	0	323558	253
632.60546875	0	taste	response	2	65	5	foodImage.33	FOODEEG_Images\0329.jpg	YN	Left	Yes	0.66773099999773	0	323895	234
633.6484375	1	taste	trialStart	2	66	6	foodImage.87	FOODEEG_Images\0873.jpg	YN	Left	Yes	0.818261799999163	0	324429	251
634.708984375	2	taste	foodImageDisplay	2	66	6	foodImage.87	FOODEEG_Images\0873.jpg	YN	Left	Yes	0.818261799999163	0	324972	252
636.771484375	0.818261799999163	taste	choicePhaseStart	2	66	6	foodImage.87	FOODEEG_Images\0873.jpg	YN	Left	Yes	0.818261799999163	0	326028	253
637.58203125	0	taste	response	2	66	6	foodImage.87	FOODEEG_Images\0873.jpg	YN	Left	Yes	0.818261799999163	0	326443	234
638.625	1	health	trialStart	2	67	7	foodImage.10	FOODEEG_Images\0145.jpg	NY	Left	No	1.0153014000025	0	326977	251
639.693359375	2	health	foodImageDisplay	2	67	7	foodImage.10	FOODEEG_Images\0145.jpg	NY	Left	No	1.0153014000025	0	327524	252
641.759765625	1.0153014000025	health	choicePhaseStart	2	67	7	foodImage.10	FOODEEG_Images\0145.jpg	NY	Left	No	1.0153014000025	0	328582	253
642.765625	0	health	response	2	67	7	foodImage.10	FOODEEG_Images\0145.jpg	NY	Left	No	1.0153014000025	0	329097	234
643.814453125	1	taste	trialStart	2	68	8	foodImage.101	FOODEEG_Images\0909.jpg	NY	Left	No	1.27427670000179	0	329634	251
644.853515625	2	taste	foodImageDisplay	2	68	8	foodImage.101	FOODEEG_Images\0909.jpg	NY	Left	No	1.27427670000179	0	330166	252
646.916015625	1.27427670000179	taste	choicePhaseStart	2	68	8	foodImage.101	FOODEEG_Images\0909.jpg	NY	Left	No	1.27427670000179	0	331222	253
648.181640625	0	taste	response	2	68	8	foodImage.101	FOODEEG_Images\0909.jpg	NY	Left	No	1.27427670000179	0	331870	234
649.228515625	1	health	trialStart	2	69	9	foodImage.91	FOODEEG_Images\0896.jpg	NY	Left	No	1.62740010000198	0	332406	251
650.283203125	2	health	foodImageDisplay	2	69	9	foodImage.91	FOODEEG_Images\0896.jpg	NY	Left	No	1.62740010000198	0	332946	252
652.34765625	1.62740010000198	health	choicePhaseStart	2	69	9	foodImage.91	FOODEEG_Images\0896.jpg	NY	Left	No	1.62740010000198	0	334003	253
653.96484375	0	health	response	2	69	9	foodImage.91	FOODEEG_Images\0896.jpg	NY	Left	No	1.62740010000198	0	334831	234
655.0078125	1	health	trialStart	2	70	10	foodImage.38	FOODEEG_Images\0365.jpg	YN	Left	Yes	1.7982357999972	0	335365	251
656.046875	2	health	foodImageDisplay	2	70	10	foodImage.38	FOODEEG_Images\0365.jpg	YN	Left	Yes	1.7982357999972	0	335897	252
658.109375	1.7982357999972	health	choicePhaseStart	2	70	10	foodImage.38	FOODEEG_Images\0365.jpg	YN	Left	Yes	1.7982357999972	0	336953	253
659.900390625	0	health	response	2	70	10	foodImage.38	FOODEEG_Images\0365.jpg	YN	Left	Yes	1.7982357999972	0	337870	234
660.9453125	1	decision	trialStart	2	71	11	foodImage.55	FOODEEG_Images\0567.jpg	NY	Right	Yes	1.11448779999773	0	338405	251
662.001953125	2	decision	foodImageDisplay	2	71	11	foodImage.55	FOODEEG_Images\0567.jpg	NY	Right	Yes	1.11448779999773	0	338946	252
664.068359375	1.11448779999773	decision	choicePhaseStart	2	71	11	foodImage.55	FOODEEG_Images\0567.jpg	NY	Right	Yes	1.11448779999773	0	340004	253
665.171875	0	decision	response	2	71	11	foodImage.55	FOODEEG_Images\0567.jpg	NY	Right	Yes	1.11448779999773	0	340569	235
666.216796875	1	taste	trialStart	2	72	12	foodImage.25	FOODEEG_Images\0261.jpg	NY	Left	No	1.27737210000123	0	341104	251
667.2578125	2	taste	foodImageDisplay	2	72	12	foodImage.25	FOODEEG_Images\0261.jpg	NY	Left	No	1.27737210000123	0	341637	252
669.3203125	1.27737210000123	taste	choicePhaseStart	2	72	12	foodImage.25	FOODEEG_Images\0261.jpg	NY	Left	No	1.27737210000123	0	342693	253
670.587890625	0	taste	response	2	72	12	foodImage.25	FOODEEG_Images\0261.jpg	NY	Left	No	1.27737210000123	0	343342	234
671.630859375	1	health	trialStart	2	73	13	foodImage.65	FOODEEG_Images\0658.jpg	YN	Right	No	1.55679430000237	0	343876	251
672.673828125	2	health	foodImageDisplay	2	73	13	foodImage.65	FOODEEG_Images\0658.jpg	YN	Right	No	1.55679430000237	0	344410	252
674.7421875	1.55679430000237	health	choicePhaseStart	2	73	13	foodImage.65	FOODEEG_Images\0658.jpg	YN	Right	No	1.55679430000237	0	345469	253
676.29296875	0	health	response	2	73	13	foodImage.65	FOODEEG_Images\0658.jpg	YN	Right	No	1.55679430000237	0	346263	235
677.33203125	1	decision	trialStart	2	74	14	foodImage.87	FOODEEG_Images\0873.jpg	YN	Left	Yes	0.854741800001648	0	346795	251
678.390625	2	decision	foodImageDisplay	2	74	14	foodImage.87	FOODEEG_Images\0873.jpg	YN	Left	Yes	0.854741800001648	0	347337	252
680.453125	0.854741800001648	decision	choicePhaseStart	2	74	14	foodImage.87	FOODEEG_Images\0873.jpg	YN	Left	Yes	0.854741800001648	0	348393	253
681.30078125	0	decision	response	2	74	14	foodImage.87	FOODEEG_Images\0873.jpg	YN	Left	Yes	0.854741800001648	0	348827	234
682.34375	1	taste	trialStart	2	75	15	foodImage.82	FOODEEG_Images\0805.jpg	YN	Right	No	1.11254460000055	0	349361	251
683.396484375	2	taste	foodImageDisplay	2	75	15	foodImage.82	FOODEEG_Images\0805.jpg	YN	Right	No	1.11254460000055	0	349900	252
685.4609375	1.11254460000055	taste	choicePhaseStart	2	75	15	foodImage.82	FOODEEG_Images\0805.jpg	YN	Right	No	1.11254460000055	0	350957	253
686.564453125	0	taste	response	2	75	15	foodImage.82	FOODEEG_Images\0805.jpg	YN	Right	No	1.11254460000055	0	351522	235
687.607421875	1	health	trialStart	2	76	16	foodImage.35	FOODEEG_Images\0350.jpg	NY	Left	No	0.862419200002478	0	352056	251
688.646484375	2	health	foodImageDisplay	2	76	16	foodImage.35	FOODEEG_Images\0350.jpg	NY	Left	No	0.862419200002478	0	352588	252
690.7109375	0.862419200002478	health	choicePhaseStart	2	76	16	foodImage.35	FOODEEG_Images\0350.jpg	NY	Left	No	0.862419200002478	0	353645	253
691.5625	0	health	response	2	76	16	foodImage.35	FOODEEG_Images\0350.jpg	NY	Left	No	0.862419200002478	0	354081	234
692.611328125	1	decision	trialStart	2	77	17	foodImage.12	FOODEEG_Images\0181.jpg	YN	Left	Yes	0.794605999999476	0	354618	251
693.658203125	2	decision	foodImageDisplay	2	77	17	foodImage.12	FOODEEG_Images\0181.jpg	YN	Left	Yes	0.794605999999476	0	355154	252
695.72265625	0.794605999999476	decision	choicePhaseStart	2	77	17	foodImage.12	FOODEEG_Images\0181.jpg	YN	Left	Yes	0.794605999999476	0	356211	253
696.5078125	0	decision	response	2	77	17	foodImage.12	FOODEEG_Images\0181.jpg	YN	Left	Yes	0.794605999999476	0	356613	234
697.55078125	1	taste	trialStart	2	78	18	foodImage.77	FOODEEG_Images\0771.jpg	YN	Left	Yes	0.745246899998165	0	357147	251
698.59375	2	taste	foodImageDisplay	2	78	18	foodImage.77	FOODEEG_Images\0771.jpg	YN	Left	Yes	0.745246899998165	0	357681	252
700.658203125	0.745246899998165	taste	choicePhaseStart	2	78	18	foodImage.77	FOODEEG_Images\0771.jpg	YN	Left	Yes	0.745246899998165	0	358738	253
701.39453125	0	taste	response	2	78	18	foodImage.77	FOODEEG_Images\0771.jpg	YN	Left	Yes	0.745246899998165	0	359115	234
702.4375	1	health	trialStart	2	79	19	foodImage.70	FOODEEG_Images\0705.jpg	YN	Right	No	1.01996650000001	0	359649	251
703.49609375	2	health	foodImageDisplay	2	79	19	foodImage.70	FOODEEG_Images\0705.jpg	YN	Right	No	1.01996650000001	0	360191	252
705.560546875	1.01996650000001	health	choicePhaseStart	2	79	19	foodImage.70	FOODEEG_Images\0705.jpg	YN	Right	No	1.01996650000001	0	361248	253
706.5703125	0	health	response	2	79	19	foodImage.70	FOODEEG_Images\0705.jpg	YN	Right	No	1.01996650000001	0	361765	235
707.615234375	1	decision	trialStart	2	80	20	foodImage.22	FOODEEG_Images\0236.jpg	YN	Left	Yes	1.02999329999875	0	362300	251
708.654296875	2	decision	foodImageDisplay	2	80	20	foodImage.22	FOODEEG_Images\0236.jpg	YN	Left	Yes	1.02999329999875	0	362832	252
710.724609375	1.02999329999875	decision	choicePhaseStart	2	80	20	foodImage.22	FOODEEG_Images\0236.jpg	YN	Left	Yes	1.02999329999875	0	363892	253
711.74609375	0	decision	response	2	80	20	foodImage.22	FOODEEG_Images\0236.jpg	YN	Left	Yes	1.02999329999875	0	364415	234
712.79296875	1	decision	trialStart	2	81	21	foodImage.113	FOODEEG_Images\0921.jpg	NY	Left	No	1.04630299999917	0	364951	251
713.830078125	2	decision	foodImageDisplay	2	81	21	foodImage.113	FOODEEG_Images\0921.jpg	NY	Left	No	1.04630299999917	0	365482	252
715.900390625	1.04630299999917	decision	choicePhaseStart	2	81	21	foodImage.113	FOODEEG_Images\0921.jpg	NY	Left	No	1.04630299999917	0	366542	253
716.939453125	0	decision	response	2	81	21	foodImage.113	FOODEEG_Images\0921.jpg	NY	Left	No	1.04630299999917	0	367074	234
717.986328125	1	decision	trialStart	2	82	22	foodImage.16	FOODEEG_Images\0196.jpg	YN	Left	Yes	0.974648799998249	0	367610	251
719.046875	2	decision	foodImageDisplay	2	82	22	foodImage.16	FOODEEG_Images\0196.jpg	YN	Left	Yes	0.974648799998249	0	368153	252
721.109375	0.974648799998249	decision	choicePhaseStart	2	82	22	foodImage.16	FOODEEG_Images\0196.jpg	YN	Left	Yes	0.974648799998249	0	369209	253
722.07421875	0	decision	response	2	82	22	foodImage.16	FOODEEG_Images\0196.jpg	YN	Left	Yes	0.974648799998249	0	369703	234
723.1171875	1	health	trialStart	2	83	23	foodImage.81	FOODEEG_Images\0797.jpg	YN	Left	Yes	0.832526399997732	0	370237	251
724.177734375	2	health	foodImageDisplay	2	83	23	foodImage.81	FOODEEG_Images\0797.jpg	YN	Left	Yes	0.832526399997732	0	370780	252
726.240234375	0.832526399997732	health	choicePhaseStart	2	83	23	foodImage.81	FOODEEG_Images\0797.jpg	YN	Left	Yes	0.832526399997732	0	371836	253
727.06640625	0	health	response	2	83	23	foodImage.81	FOODEEG_Images\0797.jpg	YN	Left	Yes	0.832526399997732	0	372259	234
728.111328125	1	health	trialStart	2	84	24	foodImage.3	FOODEEG_Images\0046.jpg	YN	Right	No	0.912749499999336	0	372794	251
729.154296875	2	health	foodImageDisplay	2	84	24	foodImage.3	FOODEEG_Images\0046.jpg	YN	Right	No	0.912749499999336	0	373328	252
731.21875	0.912749499999336	health	choicePhaseStart	2	84	24	foodImage.3	FOODEEG_Images\0046.jpg	YN	Right	No	0.912749499999336	0	374385	253
732.12109375	0	health	response	2	84	24	foodImage.3	FOODEEG_Images\0046.jpg	YN	Right	No	0.912749499999336	0	374847	235
733.1640625	1	health	trialStart	2	85	25	foodImage.60	FOODEEG_Images\0614.jpg	YN	Right	No	1.39501609999934	0	375381	251
734.220703125	2	health	foodImageDisplay	2	85	25	foodImage.60	FOODEEG_Images\0614.jpg	YN	Right	No	1.39501609999934	0	375922	252
736.28515625	1.39501609999934	health	choicePhaseStart	2	85	25	foodImage.60	FOODEEG_Images\0614.jpg	YN	Right	No	1.39501609999934	0	376979	253
737.673828125	0	health	response	2	85	25	foodImage.60	FOODEEG_Images\0614.jpg	YN	Right	No	1.39501609999934	0	377690	235
738.716796875	1	health	trialStart	2	86	26	foodImage.101	FOODEEG_Images\0909.jpg	YN	Right	No	0.944798299999093	0	378224	251
739.755859375	2	health	foodImageDisplay	2	86	26	foodImage.101	FOODEEG_Images\0909.jpg	YN	Right	No	0.944798299999093	0	378756	252
741.818359375	0.944798299999093	health	choicePhaseStart	2	86	26	foodImage.101	FOODEEG_Images\0909.jpg	YN	Right	No	0.944798299999093	0	379812	253
742.75390625	0	health	response	2	86	26	foodImage.101	FOODEEG_Images\0909.jpg	YN	Right	No	0.944798299999093	0	380291	235
743.796875	1	health	trialStart	2	87	27	foodImage.24	FOODEEG_Images\0250.jpg	NY	Right	Yes	1.55874050000057	0	380825	251
744.837890625	2	health	foodImageDisplay	2	87	27	foodImage.24	FOODEEG_Images\0250.jpg	NY	Right	Yes	1.55874050000057	0	381358	252
746.900390625	1.55874050000057	health	choicePhaseStart	2	87	27	foodImage.24	FOODEEG_Images\0250.jpg	NY	Right	Yes	1.55874050000057	0	382414	253
748.44921875	0	health	response	2	87	27	foodImage.24	FOODEEG_Images\0250.jpg	NY	Right	Yes	1.55874050000057	0	383207	235
749.4921875	1	decision	trialStart	2	88	28	foodImage.27	FOODEEG_Images\0263.jpg	NY	Right	Yes	0.908725400000549	0	383741	251
750.533203125	2	decision	foodImageDisplay	2	88	28	foodImage.27	FOODEEG_Images\0263.jpg	NY	Right	Yes	0.908725400000549	0	384274	252
752.59765625	0.908725400000549	decision	choicePhaseStart	2	88	28	foodImage.27	FOODEEG_Images\0263.jpg	NY	Right	Yes	0.908725400000549	0	385331	253
753.498046875	0	decision	response	2	88	28	foodImage.27	FOODEEG_Images\0263.jpg	NY	Right	Yes	0.908725400000549	0	385792	235
754.541015625	1	taste	trialStart	2	89	29	foodImage.4	FOODEEG_Images\0065.jpg	YN	Left	Yes	1.50696500000049	0	386326	251
755.595703125	2	taste	foodImageDisplay	2	89	29	foodImage.4	FOODEEG_Images\0065.jpg	YN	Left	Yes	1.50696500000049	0	386866	252
757.662109375	1.50696500000049	taste	choicePhaseStart	2	89	29	foodImage.4	FOODEEG_Images\0065.jpg	YN	Left	Yes	1.50696500000049	0	387924	253
759.16015625	0	taste	response	2	89	29	foodImage.4	FOODEEG_Images\0065.jpg	YN	Left	Yes	1.50696500000049	0	388691	234
760.203125	1	taste	trialStart	2	90	30	foodImage.27	FOODEEG_Images\0263.jpg	NY	Right	Yes	0.996471000002202	0	389225	251
761.24609375	2	taste	foodImageDisplay	2	90	30	foodImage.27	FOODEEG_Images\0263.jpg	NY	Right	Yes	0.996471000002202	0	389759	252
763.30859375	0.996471000002202	taste	choicePhaseStart	2	90	30	foodImage.27	FOODEEG_Images\0263.jpg	NY	Right	Yes	0.996471000002202	0	390815	253
764.296875	0	taste	response	2	90	30	foodImage.27	FOODEEG_Images\0263.jpg	NY	Right	Yes	0.996471000002202	0	391321	235
765.341796875	1	taste	trialStart	2	91	31	foodImage.79	FOODEEG_Images\0794.jpg	NY	Right	Yes	0.719623200002388	0	391856	251
766.38671875	2	taste	foodImageDisplay	2	91	31	foodImage.79	FOODEEG_Images\0794.jpg	NY	Right	Yes	0.719623200002388	0	392391	252
768.44921875	0.719623200002388	taste	choicePhaseStart	2	91	31	foodImage.79	FOODEEG_Images\0794.jpg	NY	Right	Yes	0.719623200002388	0	393447	253
769.16015625	0	taste	response	2	91	31	foodImage.79	FOODEEG_Images\0794.jpg	NY	Right	Yes	0.719623200002388	0	393811	235
770.205078125	1	decision	trialStart	2	92	32	foodImage.41	FOODEEG_Images\0409.jpg	YN	Left	Yes	0.864746100000048	0	394346	251
771.25	2	decision	foodImageDisplay	2	92	32	foodImage.41	FOODEEG_Images\0409.jpg	YN	Left	Yes	0.864746100000048	0	394881	252
773.314453125	0.864746100000048	decision	choicePhaseStart	2	92	32	foodImage.41	FOODEEG_Images\0409.jpg	YN	Left	Yes	0.864746100000048	0	395938	253
774.16796875	0	decision	response	2	92	32	foodImage.41	FOODEEG_Images\0409.jpg	YN	Left	Yes	0.864746100000048	0	396375	234
775.216796875	1	taste	trialStart	2	93	33	foodImage.81	FOODEEG_Images\0797.jpg	YN	Left	Yes	0.849099999999453	0	396912	251
776.2734375	2	taste	foodImageDisplay	2	93	33	foodImage.81	FOODEEG_Images\0797.jpg	YN	Left	Yes	0.849099999999453	0	397453	252
778.3359375	0.849099999999453	taste	choicePhaseStart	2	93	33	foodImage.81	FOODEEG_Images\0797.jpg	YN	Left	Yes	0.849099999999453	0	398509	253
779.17578125	0	taste	response	2	93	33	foodImage.81	FOODEEG_Images\0797.jpg	YN	Left	Yes	0.849099999999453	0	398939	234
780.220703125	1	taste	trialStart	2	94	34	foodImage.41	FOODEEG_Images\0409.jpg	YN	Left	Yes	0.782824300000357	0	399474	251
781.2890625	2	taste	foodImageDisplay	2	94	34	foodImage.41	FOODEEG_Images\0409.jpg	YN	Left	Yes	0.782824300000357	0	400021	252
783.353515625	0.782824300000357	taste	choicePhaseStart	2	94	34	foodImage.41	FOODEEG_Images\0409.jpg	YN	Left	Yes	0.782824300000357	0	401078	253
784.126953125	0	taste	response	2	94	34	foodImage.41	FOODEEG_Images\0409.jpg	YN	Left	Yes	0.782824300000357	0	401474	234
785.1796875	1	decision	trialStart	2	95	35	foodImage.35	FOODEEG_Images\0350.jpg	NY	Left	No	1.40477879999889	0	402013	251
786.21875	2	decision	foodImageDisplay	2	95	35	foodImage.35	FOODEEG_Images\0350.jpg	NY	Left	No	1.40477879999889	0	402545	252
788.283203125	1.40477879999889	decision	choicePhaseStart	2	95	35	foodImage.35	FOODEEG_Images\0350.jpg	NY	Left	No	1.40477879999889	0	403602	253
789.6796875	0	decision	response	2	95	35	foodImage.35	FOODEEG_Images\0350.jpg	NY	Left	No	1.40477879999889	0	404317	234
790.728515625	1	taste	trialStart	2	96	36	foodImage.1	FOODEEG_Images\0004.jpg	YN	Left	Yes	1.14446879999741	0	404854	251
791.791015625	2	taste	foodImageDisplay	2	96	36	foodImage.1	FOODEEG_Images\0004.jpg	YN	Left	Yes	1.14446879999741	0	405398	252
793.859375	1.14446879999741	taste	choicePhaseStart	2	96	36	foodImage.1	FOODEEG_Images\0004.jpg	YN	Left	Yes	1.14446879999741	0	406457	253
795	0	taste	response	2	96	36	foodImage.1	FOODEEG_Images\0004.jpg	YN	Left	Yes	1.14446879999741	0	407041	234
796.04296875	1	taste	trialStart	2	97	37	foodImage.34	FOODEEG_Images\0339.jpg	YN	Right	No	0.86082019999958	0	407575	251
797.1015625	2	taste	foodImageDisplay	2	97	37	foodImage.34	FOODEEG_Images\0339.jpg	YN	Right	No	0.86082019999958	0	408117	252
799.1640625	0.86082019999958	taste	choicePhaseStart	2	97	37	foodImage.34	FOODEEG_Images\0339.jpg	YN	Right	No	0.86082019999958	0	409173	253
800.015625	0	taste	response	2	97	37	foodImage.34	FOODEEG_Images\0339.jpg	YN	Right	No	0.86082019999958	0	409609	235
801.05859375	1	decision	trialStart	2	98	38	foodImage.77	FOODEEG_Images\0771.jpg	NY	Right	Yes	0.985321199997998	0	410143	251
802.103515625	2	decision	foodImageDisplay	2	98	38	foodImage.77	FOODEEG_Images\0771.jpg	NY	Right	Yes	0.985321199997998	0	410678	252
804.166015625	0.985321199997998	decision	choicePhaseStart	2	98	38	foodImage.77	FOODEEG_Images\0771.jpg	NY	Right	Yes	0.985321199997998	0	411734	253
805.142578125	0	decision	response	2	98	38	foodImage.77	FOODEEG_Images\0771.jpg	NY	Right	Yes	0.985321199997998	0	412234	235
806.185546875	1	health	trialStart	2	99	39	foodImage.46	FOODEEG_Images\0479.jpg	YN	Left	Yes	0.99171700000079	0	412768	251
807.2578125	2	health	foodImageDisplay	2	99	39	foodImage.46	FOODEEG_Images\0479.jpg	YN	Left	Yes	0.99171700000079	0	413317	252
809.3203125	0.99171700000079	health	choicePhaseStart	2	99	39	foodImage.46	FOODEEG_Images\0479.jpg	YN	Left	Yes	0.99171700000079	0	414373	253
810.302734375	0	health	response	2	99	39	foodImage.46	FOODEEG_Images\0479.jpg	YN	Left	Yes	0.99171700000079	0	414876	234
811.3515625	1	decision	trialStart	2	100	40	foodImage.33	FOODEEG_Images\0329.jpg	YN	Left	Yes	0.845717300002434	0	415413	251
812.39453125	2	decision	foodImageDisplay	2	100	40	foodImage.33	FOODEEG_Images\0329.jpg	YN	Left	Yes	0.845717300002434	0	415947	252
814.458984375	0.845717300002434	decision	choicePhaseStart	2	100	40	foodImage.33	FOODEEG_Images\0329.jpg	YN	Left	Yes	0.845717300002434	0	417004	253
815.294921875	0	decision	response	2	100	40	foodImage.33	FOODEEG_Images\0329.jpg	YN	Left	Yes	0.845717300002434	0	417432	234
816.3359375	1	health	trialStart	2	101	41	foodImage.5	FOODEEG_Images\0107.jpg	YN	Right	No	0.92070330000206	0	417965	251
817.390625	2	health	foodImageDisplay	2	101	41	foodImage.5	FOODEEG_Images\0107.jpg	YN	Right	No	0.92070330000206	0	418505	252
819.455078125	0.92070330000206	health	choicePhaseStart	2	101	41	foodImage.5	FOODEEG_Images\0107.jpg	YN	Right	No	0.92070330000206	0	419562	253
820.3671875	0	health	response	2	101	41	foodImage.5	FOODEEG_Images\0107.jpg	YN	Right	No	0.92070330000206	0	420029	235
821.41015625	1	taste	trialStart	2	102	42	foodImage.47	FOODEEG_Images\0488.jpg	NY	Left	No	1.46364000000176	0	420563	251
822.451171875	2	taste	foodImageDisplay	2	102	42	foodImage.47	FOODEEG_Images\0488.jpg	NY	Left	No	1.46364000000176	0	421096	252
824.51953125	1.46364000000176	taste	choicePhaseStart	2	102	42	foodImage.47	FOODEEG_Images\0488.jpg	NY	Left	No	1.46364000000176	0	422155	253
825.974609375	0	taste	response	2	102	42	foodImage.47	FOODEEG_Images\0488.jpg	NY	Left	No	1.46364000000176	0	422900	234
827.015625	1	taste	trialStart	2	103	43	foodImage.39	FOODEEG_Images\0367.jpg	YN	Right	No	0.917690799997217	0	423433	251
828.0703125	2	taste	foodImageDisplay	2	103	43	foodImage.39	FOODEEG_Images\0367.jpg	YN	Right	No	0.917690799997217	0	423973	252
830.13671875	0.917690799997217	taste	choicePhaseStart	2	103	43	foodImage.39	FOODEEG_Images\0367.jpg	YN	Right	No	0.917690799997217	0	425031	253
831.046875	0	taste	response	2	103	43	foodImage.39	FOODEEG_Images\0367.jpg	YN	Right	No	0.917690799997217	0	425497	235
832.087890625	1	health	trialStart	2	104	44	foodImage.54	FOODEEG_Images\0560.jpg	NY	Right	Yes	1.04499659999783	0	426030	251
833.146484375	2	health	foodImageDisplay	2	104	44	foodImage.54	FOODEEG_Images\0560.jpg	NY	Right	Yes	1.04499659999783	0	426572	252
835.208984375	1.04499659999783	health	choicePhaseStart	2	104	44	foodImage.54	FOODEEG_Images\0560.jpg	NY	Right	Yes	1.04499659999783	0	427628	253
836.24609375	0	health	response	2	104	44	foodImage.54	FOODEEG_Images\0560.jpg	NY	Right	Yes	1.04499659999783	0	428159	235
837.287109375	1	taste	trialStart	2	105	45	foodImage.19	FOODEEG_Images\0225.jpg	YN	Right	No	1.02594890000182	0	428692	251
838.330078125	2	taste	foodImageDisplay	2	105	45	foodImage.19	FOODEEG_Images\0225.jpg	YN	Right	No	1.02594890000182	0	429226	252
840.39453125	1.02594890000182	taste	choicePhaseStart	2	105	45	foodImage.19	FOODEEG_Images\0225.jpg	YN	Right	No	1.02594890000182	0	430283	253
841.4140625	0	taste	response	2	105	45	foodImage.19	FOODEEG_Images\0225.jpg	YN	Right	No	1.02594890000182	0	430805	235
842.478515625	1	taste	trialStart	2	106	46	foodImage.16	FOODEEG_Images\0196.jpg	YN	Left	Yes	0.817806099999871	0	431350	251
843.53515625	2	taste	foodImageDisplay	2	106	46	foodImage.16	FOODEEG_Images\0196.jpg	YN	Left	Yes	0.817806099999871	0	431891	252
845.59765625	0.817806099999871	taste	choicePhaseStart	2	106	46	foodImage.16	FOODEEG_Images\0196.jpg	YN	Left	Yes	0.817806099999871	0	432947	253
846.40625	0	taste	response	2	106	46	foodImage.16	FOODEEG_Images\0196.jpg	YN	Left	Yes	0.817806099999871	0	433361	234
847.458984375	1	decision	trialStart	2	107	47	foodImage.39	FOODEEG_Images\0367.jpg	YN	Right	No	1.22900010000012	0	433900	251
848.498046875	2	decision	foodImageDisplay	2	107	47	foodImage.39	FOODEEG_Images\0367.jpg	YN	Right	No	1.22900010000012	0	434432	252
850.560546875	1.22900010000012	decision	choicePhaseStart	2	107	47	foodImage.39	FOODEEG_Images\0367.jpg	YN	Right	No	1.22900010000012	0	435488	253
851.78125	0	decision	response	2	107	47	foodImage.39	FOODEEG_Images\0367.jpg	YN	Right	No	1.22900010000012	0	436113	235
852.830078125	1	decision	trialStart	2	108	48	foodImage.72	FOODEEG_Images\0714.jpg	YN	Right	No	0.974153800001659	0	436650	251
853.873046875	2	decision	foodImageDisplay	2	108	48	foodImage.72	FOODEEG_Images\0714.jpg	YN	Right	No	0.974153800001659	0	437184	252
855.935546875	0.974153800001659	decision	choicePhaseStart	2	108	48	foodImage.72	FOODEEG_Images\0714.jpg	YN	Right	No	0.974153800001659	0	438240	253
856.900390625	0	decision	response	2	108	48	foodImage.72	FOODEEG_Images\0714.jpg	YN	Right	No	0.974153800001659	0	438734	235
857.94921875	1	health	trialStart	2	109	49	foodImage.96	FOODEEG_Images\0904.jpg	NY	Right	Yes	0.70746340000187	0	439271	251
858.98828125	2	health	foodImageDisplay	2	109	49	foodImage.96	FOODEEG_Images\0904.jpg	NY	Right	Yes	0.70746340000187	0	439803	252
861.05078125	0.70746340000187	health	choicePhaseStart	2	109	49	foodImage.96	FOODEEG_Images\0904.jpg	NY	Right	Yes	0.70746340000187	0	440859	253
861.748046875	0	health	response	2	109	49	foodImage.96	FOODEEG_Images\0904.jpg	NY	Right	Yes	0.70746340000187	0	441216	235
862.79296875	1	taste	trialStart	2	110	50	foodImage.69	FOODEEG_Images\0693.jpg	NY	Left	No	1.33069869999963	0	441751	251
863.8359375	2	taste	foodImageDisplay	2	110	50	foodImage.69	FOODEEG_Images\0693.jpg	NY	Left	No	1.33069869999963	0	442285	252
865.8984375	1.33069869999963	taste	choicePhaseStart	2	110	50	foodImage.69	FOODEEG_Images\0693.jpg	NY	Left	No	1.33069869999963	0	443341	253
867.220703125	0	taste	response	2	110	50	foodImage.69	FOODEEG_Images\0693.jpg	NY	Left	No	1.33069869999963	0	444018	234
868.263671875	1	health	trialStart	2	111	51	foodImage.74	FOODEEG_Images\0752.jpg	YN	Left	Yes	0.804187199999433	0	444552	251
869.306640625	2	health	foodImageDisplay	2	111	51	foodImage.74	FOODEEG_Images\0752.jpg	YN	Left	Yes	0.804187199999433	0	445086	252
871.369140625	0.804187199999433	health	choicePhaseStart	2	111	51	foodImage.74	FOODEEG_Images\0752.jpg	YN	Left	Yes	0.804187199999433	0	446142	253
872.1640625	0	health	response	2	111	51	foodImage.74	FOODEEG_Images\0752.jpg	YN	Left	Yes	0.804187199999433	0	446549	234
873.208984375	1	decision	trialStart	2	112	52	foodImage.25	FOODEEG_Images\0261.jpg	YN	Left	Yes	1.25040309999895	0	447084	251
874.25	2	decision	foodImageDisplay	2	112	52	foodImage.25	FOODEEG_Images\0261.jpg	YN	Left	Yes	1.25040309999895	0	447617	252
876.314453125	1.25040309999895	decision	choicePhaseStart	2	112	52	foodImage.25	FOODEEG_Images\0261.jpg	YN	Left	Yes	1.25040309999895	0	448674	253
877.556640625	0	decision	response	2	112	52	foodImage.25	FOODEEG_Images\0261.jpg	YN	Left	Yes	1.25040309999895	0	449310	234
878.60546875	1	taste	trialStart	2	113	53	foodImage.24	FOODEEG_Images\0250.jpg	YN	Left	Yes	0.911369299999933	0	449847	251
879.662109375	2	taste	foodImageDisplay	2	113	53	foodImage.24	FOODEEG_Images\0250.jpg	YN	Left	Yes	0.911369299999933	0	450388	252
881.7265625	0.911369299999933	taste	choicePhaseStart	2	113	53	foodImage.24	FOODEEG_Images\0250.jpg	YN	Left	Yes	0.911369299999933	0	451445	253
882.62890625	0	taste	response	2	113	53	foodImage.24	FOODEEG_Images\0250.jpg	YN	Left	Yes	0.911369299999933	0	451907	234
883.671875	1	health	trialStart	2	114	54	foodImage.93	FOODEEG_Images\0901.jpg	YN	Left	Yes	1.00861730000179	0	452441	251
884.7109375	2	health	foodImageDisplay	2	114	54	foodImage.93	FOODEEG_Images\0901.jpg	YN	Left	Yes	1.00861730000179	0	452973	252
886.7734375	1.00861730000179	health	choicePhaseStart	2	114	54	foodImage.93	FOODEEG_Images\0901.jpg	YN	Left	Yes	1.00861730000179	0	454029	253
887.771484375	0	health	response	2	114	54	foodImage.93	FOODEEG_Images\0901.jpg	YN	Left	Yes	1.00861730000179	0	454540	234
888.814453125	1	decision	trialStart	2	115	55	foodImage.30	FOODEEG_Images\0282.jpg	YN	Left	Yes	0.780532900000253	0	455074	251
889.85546875	2	decision	foodImageDisplay	2	115	55	foodImage.30	FOODEEG_Images\0282.jpg	YN	Left	Yes	0.780532900000253	0	455607	252
891.919921875	0.780532900000253	decision	choicePhaseStart	2	115	55	foodImage.30	FOODEEG_Images\0282.jpg	YN	Left	Yes	0.780532900000253	0	456664	253
892.69140625	0	decision	response	2	115	55	foodImage.30	FOODEEG_Images\0282.jpg	YN	Left	Yes	0.780532900000253	0	457059	234
893.734375	1	decision	trialStart	2	116	56	foodImage.10	FOODEEG_Images\0145.jpg	YN	Left	Yes	0.912173199998506	0	457593	251
894.794921875	2	decision	foodImageDisplay	2	116	56	foodImage.10	FOODEEG_Images\0145.jpg	YN	Left	Yes	0.912173199998506	0	458136	252
896.861328125	0.912173199998506	decision	choicePhaseStart	2	116	56	foodImage.10	FOODEEG_Images\0145.jpg	YN	Left	Yes	0.912173199998506	0	459194	253
897.763671875	0	decision	response	2	116	56	foodImage.10	FOODEEG_Images\0145.jpg	YN	Left	Yes	0.912173199998506	0	459656	234
898.8125	1	health	trialStart	2	117	57	foodImage.8	FOODEEG_Images\0136.jpg	NY	Left	No	0.981504200000927	0	460193	251
899.85546875	2	health	foodImageDisplay	2	117	57	foodImage.8	FOODEEG_Images\0136.jpg	NY	Left	No	0.981504200000927	0	460727	252
901.919921875	0.981504200000927	health	choicePhaseStart	2	117	57	foodImage.8	FOODEEG_Images\0136.jpg	NY	Left	No	0.981504200000927	0	461784	253
902.892578125	0	health	response	2	117	57	foodImage.8	FOODEEG_Images\0136.jpg	NY	Left	No	0.981504200000927	0	462282	234
903.935546875	1	health	trialStart	2	118	58	foodImage.109	FOODEEG_Images\0917.jpg	NY	Left	No	0.981669500000862	0	462816	251
904.974609375	2	health	foodImageDisplay	2	118	58	foodImage.109	FOODEEG_Images\0917.jpg	NY	Left	No	0.981669500000862	0	463348	252
907.037109375	0.981669500000862	health	choicePhaseStart	2	118	58	foodImage.109	FOODEEG_Images\0917.jpg	NY	Left	No	0.981669500000862	0	464404	253
908.01171875	0	health	response	2	118	58	foodImage.109	FOODEEG_Images\0917.jpg	NY	Left	No	0.981669500000862	0	464903	234
909.052734375	1	health	trialStart	2	119	59	foodImage.21	FOODEEG_Images\0234.jpg	NY	Right	Yes	0.699929799997335	0	465436	251
910.111328125	2	health	foodImageDisplay	2	119	59	foodImage.21	FOODEEG_Images\0234.jpg	NY	Right	Yes	0.699929799997335	0	465978	252
912.17578125	0.699929799997335	health	choicePhaseStart	2	119	59	foodImage.21	FOODEEG_Images\0234.jpg	NY	Right	Yes	0.699929799997335	0	467035	253
912.8671875	0	health	response	2	119	59	foodImage.21	FOODEEG_Images\0234.jpg	NY	Right	Yes	0.699929799997335	0	467389	235
913.91015625	1	taste	trialStart	2	120	60	foodImage.86	FOODEEG_Images\0844.jpg	YN	Right	No	0.955528300000879	0	467923	251
914.96875	2	taste	foodImageDisplay	2	120	60	foodImage.86	FOODEEG_Images\0844.jpg	YN	Right	No	0.955528300000879	0	468465	252
917.033203125	0.955528300000879	taste	choicePhaseStart	2	120	60	foodImage.86	FOODEEG_Images\0844.jpg	YN	Right	No	0.955528300000879	0	469522	253
917.978515625	0	taste	response	2	120	60	foodImage.86	FOODEEG_Images\0844.jpg	YN	Right	No	0.955528300000879	0	470006	235
920.021484375	7.4140625	n/a	blockEnd	n/a	n/a	n/a	n/a	n/a	n/a	n/a	n/a	n/a	n/a	471052	254
927.435546875	2	n/a	blockStart	3	n/a	n/a	n/a	n/a	n/a	n/a	n/a	n/a	n/a	474848	250
929.46875	1	health	trialStart	3	121	1	foodImage.76	FOODEEG_Images\0766.jpg	NY	Right	Yes	0.591772300002049	0	475889	251
930.53515625	2	health	foodImageDisplay	3	121	1	foodImage.76	FOODEEG_Images\0766.jpg	NY	Right	Yes	0.591772300002049	0	476435	252
932.599609375	0.591772300002049	health	choicePhaseStart	3	121	1	foodImage.76	FOODEEG_Images\0766.jpg	NY	Right	Yes	0.591772300002049	0	477492	253
933.185546875	0	health	response	3	121	1	foodImage.76	FOODEEG_Images\0766.jpg	NY	Right	Yes	0.591772300002049	0	477792	235
934.228515625	1	health	trialStart	3	122	2	foodImage.59	FOODEEG_Images\0607.jpg	NY	Left	No	0.566741200000251	0	478326	251
935.27734375	2	health	foodImageDisplay	3	122	2	foodImage.59	FOODEEG_Images\0607.jpg	NY	Left	No	0.566741200000251	0	478863	252
937.33984375	0.566741200000251	health	choicePhaseStart	3	122	2	foodImage.59	FOODEEG_Images\0607.jpg	NY	Left	No	0.566741200000251	0	479919	253
937.8984375	0	health	response	3	122	2	foodImage.59	FOODEEG_Images\0607.jpg	NY	Left	No	0.566741200000251	0	480205	234
938.94140625	1	decision	trialStart	3	123	3	foodImage.88	FOODEEG_Images\0878.jpg	NY	Left	No	0.517737499998475	0	480739	251
939.998046875	2	decision	foodImageDisplay	3	123	3	foodImage.88	FOODEEG_Images\0878.jpg	NY	Left	No	0.517737499998475	0	481280	252
942.060546875	0.517737499998475	decision	choicePhaseStart	3	123	3	foodImage.88	FOODEEG_Images\0878.jpg	NY	Left	No	0.517737499998475	0	482336	253
942.5703125	0	decision	response	3	123	3	foodImage.88	FOODEEG_Images\0878.jpg	NY	Left	No	0.517737499998475	0	482597	234
943.61328125	1	decision	trialStart	3	124	4	foodImage.34	FOODEEG_Images\0339.jpg	NY	Left	No	0.608791399998154	0	483131	251
944.671875	2	decision	foodImageDisplay	3	124	4	foodImage.34	FOODEEG_Images\0339.jpg	NY	Left	No	0.608791399998154	0	483673	252
946.736328125	0.608791399998154	decision	choicePhaseStart	3	124	4	foodImage.34	FOODEEG_Images\0339.jpg	NY	Left	No	0.608791399998154	0	484730	253
947.337890625	0	decision	response	3	124	4	foodImage.34	FOODEEG_Images\0339.jpg	NY	Left	No	0.608791399998154	0	485038	234
948.384765625	1	decision	trialStart	3	125	5	foodImage.92	FOODEEG_Images\0900.jpg	NY	Left	No	0.664301499997237	0	485574	251
949.423828125	2	decision	foodImageDisplay	3	125	5	foodImage.92	FOODEEG_Images\0900.jpg	NY	Left	No	0.664301499997237	0	486106	252
951.486328125	0.664301499997237	decision	choicePhaseStart	3	125	5	foodImage.92	FOODEEG_Images\0900.jpg	NY	Left	No	0.664301499997237	0	487162	253
952.14453125	0	decision	response	3	125	5	foodImage.92	FOODEEG_Images\0900.jpg	NY	Left	No	0.664301499997237	0	487499	234
953.193359375	1	decision	trialStart	3	126	6	foodImage.68	FOODEEG_Images\0685.jpg	NY	Right	Yes	0.705050100001245	0	488036	251
954.271484375	2	decision	foodImageDisplay	3	126	6	foodImage.68	FOODEEG_Images\0685.jpg	NY	Right	Yes	0.705050100001245	0	488588	252
956.3359375	0.705050100001245	decision	choicePhaseStart	3	126	6	foodImage.68	FOODEEG_Images\0685.jpg	NY	Right	Yes	0.705050100001245	0	489645	253
957.033203125	0	decision	response	3	126	6	foodImage.68	FOODEEG_Images\0685.jpg	NY	Right	Yes	0.705050100001245	0	490002	235
958.076171875	1	health	trialStart	3	127	7	foodImage.77	FOODEEG_Images\0771.jpg	NY	Right	Yes	0.640579700000671	0	490536	251
959.12109375	2	health	foodImageDisplay	3	127	7	foodImage.77	FOODEEG_Images\0771.jpg	NY	Right	Yes	0.640579700000671	0	491071	252
961.185546875	0.640579700000671	health	choicePhaseStart	3	127	7	foodImage.77	FOODEEG_Images\0771.jpg	NY	Right	Yes	0.640579700000671	0	492128	253
961.81640625	0	health	response	3	127	7	foodImage.77	FOODEEG_Images\0771.jpg	NY	Right	Yes	0.640579700000671	0	492451	235
962.865234375	1	taste	trialStart	3	128	8	foodImage.17	FOODEEG_Images\0199.jpg	YN	Left	Yes	0.558675399999629	0	492988	251
963.90625	2	taste	foodImageDisplay	3	128	8	foodImage.17	FOODEEG_Images\0199.jpg	YN	Left	Yes	0.558675399999629	0	493521	252
965.970703125	0.558675399999629	taste	choicePhaseStart	3	128	8	foodImage.17	FOODEEG_Images\0199.jpg	YN	Left	Yes	0.558675399999629	0	494578	253
966.51953125	0	taste	response	3	128	8	foodImage.17	FOODEEG_Images\0199.jpg	YN	Left	Yes	0.558675399999629	0	494859	234
967.564453125	1	decision	trialStart	3	129	9	foodImage.86	FOODEEG_Images\0844.jpg	NY	Left	No	0.709256699999969	0	495394	251
968.619140625	2	decision	foodImageDisplay	3	129	9	foodImage.86	FOODEEG_Images\0844.jpg	NY	Left	No	0.709256699999969	0	495934	252
970.68359375	0.709256699999969	decision	choicePhaseStart	3	129	9	foodImage.86	FOODEEG_Images\0844.jpg	NY	Left	No	0.709256699999969	0	496991	253
971.384765625	0	decision	response	3	129	9	foodImage.86	FOODEEG_Images\0844.jpg	NY	Left	No	0.709256699999969	0	497350	234
972.427734375	1	health	trialStart	3	130	10	foodImage.117	FOODEEG_Images\0925.jpg	YN	Left	Yes	2.05318540000007	0	497884	251
973.466796875	2	health	foodImageDisplay	3	130	10	foodImage.117	FOODEEG_Images\0925.jpg	YN	Left	Yes	2.05318540000007	0	498416	252
975.533203125	2.05318540000007	health	choicePhaseStart	3	130	10	foodImage.117	FOODEEG_Images\0925.jpg	YN	Left	Yes	2.05318540000007	0	499474	253
977.576171875	0	health	response	3	130	10	foodImage.117	FOODEEG_Images\0925.jpg	YN	Left	Yes	2.05318540000007	0	500520	234
978.619140625	1	decision	trialStart	3	131	11	foodImage.28	FOODEEG_Images\0273.jpg	YN	Left	Yes	0.767382499998348	0	501054	251
979.681640625	2	decision	foodImageDisplay	3	131	11	foodImage.28	FOODEEG_Images\0273.jpg	YN	Left	Yes	0.767382499998348	0	501598	252
981.74609375	0.767382499998348	decision	choicePhaseStart	3	131	11	foodImage.28	FOODEEG_Images\0273.jpg	YN	Left	Yes	0.767382499998348	0	502655	253
982.50390625	0	decision	response	3	131	11	foodImage.28	FOODEEG_Images\0273.jpg	YN	Left	Yes	0.767382499998348	0	503043	234
983.546875	1	health	trialStart	3	132	12	foodImage.102	FOODEEG_Images\0910.jpg	YN	Left	Yes	0.718563999998878	0	503577	251
984.5859375	2	health	foodImageDisplay	3	132	12	foodImage.102	FOODEEG_Images\0910.jpg	YN	Left	Yes	0.718563999998878	0	504109	252
986.650390625	0.718563999998878	health	choicePhaseStart	3	132	12	foodImage.102	FOODEEG_Images\0910.jpg	YN	Left	Yes	0.718563999998878	0	505166	253
987.359375	0	health	response	3	132	12	foodImage.102	FOODEEG_Images\0910.jpg	YN	Left	Yes	0.718563999998878	0	505529	234
988.40234375	1	decision	trialStart	3	133	13	foodImage.109	FOODEEG_Images\0917.jpg	YN	Right	No	0.519890299998224	0	506063	251
989.44140625	2	decision	foodImageDisplay	3	133	13	foodImage.109	FOODEEG_Images\0917.jpg	YN	Right	No	0.519890299998224	0	506595	252
991.50390625	0.519890299998224	decision	choicePhaseStart	3	133	13	foodImage.109	FOODEEG_Images\0917.jpg	YN	Right	No	0.519890299998224	0	507651	253
992.015625	0	decision	response	3	133	13	foodImage.109	FOODEEG_Images\0917.jpg	YN	Right	No	0.519890299998224	0	507913	235
993.05859375	1	decision	trialStart	3	134	14	foodImage.85	FOODEEG_Images\0841.jpg	YN	Left	Yes	0.91259970000101	0	508447	251
994.119140625	2	decision	foodImageDisplay	3	134	14	foodImage.85	FOODEEG_Images\0841.jpg	YN	Left	Yes	0.91259970000101	0	508990	252
996.18359375	0.91259970000101	decision	choicePhaseStart	3	134	14	foodImage.85	FOODEEG_Images\0841.jpg	YN	Left	Yes	0.91259970000101	0	510047	253
997.087890625	0	decision	response	3	134	14	foodImage.85	FOODEEG_Images\0841.jpg	YN	Left	Yes	0.91259970000101	0	510510	234
998.126953125	1	decision	trialStart	3	135	15	foodImage.67	FOODEEG_Images\0679.jpg	NY	Left	No	1.3059745999999	0	511042	251
999.18359375	2	decision	foodImageDisplay	3	135	15	foodImage.67	FOODEEG_Images\0679.jpg	NY	Left	No	1.3059745999999	0	511583	252
1001.24609375	1.3059745999999	decision	choicePhaseStart	3	135	15	foodImage.67	FOODEEG_Images\0679.jpg	NY	Left	No	1.3059745999999	0	512639	253
1002.54296875	0	decision	response	3	135	15	foodImage.67	FOODEEG_Images\0679.jpg	NY	Left	No	1.3059745999999	0	513303	234
1003.5859375	1	taste	trialStart	3	136	16	foodImage.28	FOODEEG_Images\0273.jpg	YN	Left	Yes	1.1613322000012	0	513837	251
1004.62890625	2	taste	foodImageDisplay	3	136	16	foodImage.28	FOODEEG_Images\0273.jpg	YN	Left	Yes	1.1613322000012	0	514371	252
1006.693359375	1.1613322000012	taste	choicePhaseStart	3	136	16	foodImage.28	FOODEEG_Images\0273.jpg	YN	Left	Yes	1.1613322000012	0	515428	253
1007.84765625	0	taste	response	3	136	16	foodImage.28	FOODEEG_Images\0273.jpg	YN	Left	Yes	1.1613322000012	0	516019	234
1008.890625	1	taste	trialStart	3	137	17	foodImage.66	FOODEEG_Images\0676.jpg	NY	Left	No	1.14172260000123	0	516553	251
1009.931640625	2	taste	foodImageDisplay	3	137	17	foodImage.66	FOODEEG_Images\0676.jpg	NY	Left	No	1.14172260000123	0	517086	252
1011.994140625	1.14172260000123	taste	choicePhaseStart	3	137	17	foodImage.66	FOODEEG_Images\0676.jpg	NY	Left	No	1.14172260000123	0	518142	253
1013.126953125	0	taste	response	3	137	17	foodImage.66	FOODEEG_Images\0676.jpg	NY	Left	No	1.14172260000123	0	518722	234
1014.17578125	1	health	trialStart	3	138	18	foodImage.115	FOODEEG_Images\0923.jpg	NY	Left	No	0.977704500000982	0	519259	251
1015.21484375	2	health	foodImageDisplay	3	138	18	foodImage.115	FOODEEG_Images\0923.jpg	NY	Left	No	0.977704500000982	0	519791	252
1017.279296875	0.977704500000982	health	choicePhaseStart	3	138	18	foodImage.115	FOODEEG_Images\0923.jpg	NY	Left	No	0.977704500000982	0	520848	253
1018.24609375	0	health	response	3	138	18	foodImage.115	FOODEEG_Images\0923.jpg	NY	Left	No	0.977704500000982	0	521343	234
1019.291015625	1	decision	trialStart	3	139	19	foodImage.20	FOODEEG_Images\0226.jpg	YN	Right	No	1.06718140000157	0	521878	251
1020.33203125	2	decision	foodImageDisplay	3	139	19	foodImage.20	FOODEEG_Images\0226.jpg	YN	Right	No	1.06718140000157	0	522411	252
1022.396484375	1.06718140000157	decision	choicePhaseStart	3	139	19	foodImage.20	FOODEEG_Images\0226.jpg	YN	Right	No	1.06718140000157	0	523468	253
1023.455078125	0	decision	response	3	139	19	foodImage.20	FOODEEG_Images\0226.jpg	YN	Right	No	1.06718140000157	0	524010	235
1024.498046875	1	taste	trialStart	3	140	20	foodImage.49	FOODEEG_Images\0515.jpg	YN	Right	No	1.0277204999984	0	524544	251
1025.5390625	2	taste	foodImageDisplay	3	140	20	foodImage.49	FOODEEG_Images\0515.jpg	YN	Right	No	1.0277204999984	0	525077	252
1027.603515625	1.0277204999984	taste	choicePhaseStart	3	140	20	foodImage.49	FOODEEG_Images\0515.jpg	YN	Right	No	1.0277204999984	0	526134	253
1028.623046875	0	taste	response	3	140	20	foodImage.49	FOODEEG_Images\0515.jpg	YN	Right	No	1.0277204999984	0	526656	235
1029.6640625	1	decision	trialStart	3	141	21	foodImage.118	FOODEEG_Images\0926.jpg	NY	Left	No	1.51763289999872	0	527189	251
1030.705078125	2	decision	foodImageDisplay	3	141	21	foodImage.118	FOODEEG_Images\0926.jpg	NY	Left	No	1.51763289999872	0	527722	252
1032.76953125	1.51763289999872	decision	choicePhaseStart	3	141	21	foodImage.118	FOODEEG_Images\0926.jpg	NY	Left	No	1.51763289999872	0	528779	253
1034.27734375	0	decision	response	3	141	21	foodImage.118	FOODEEG_Images\0926.jpg	NY	Left	No	1.51763289999872	0	529551	234
1035.322265625	1	decision	trialStart	3	142	22	foodImage.107	FOODEEG_Images\0915.jpg	YN	Right	No	0.816788400003134	0	530086	251
1036.359375	2	decision	foodImageDisplay	3	142	22	foodImage.107	FOODEEG_Images\0915.jpg	YN	Right	No	0.816788400003134	0	530617	252
1038.421875	0.816788400003134	decision	choicePhaseStart	3	142	22	foodImage.107	FOODEEG_Images\0915.jpg	YN	Right	No	0.816788400003134	0	531673	253
1039.23046875	0	decision	response	3	142	22	foodImage.107	FOODEEG_Images\0915.jpg	YN	Right	No	0.816788400003134	0	532087	235
1040.2734375	1	taste	trialStart	3	143	23	foodImage.92	FOODEEG_Images\0900.jpg	NY	Left	No	0.739094699998532	0	532621	251
1041.31640625	2	taste	foodImageDisplay	3	143	23	foodImage.92	FOODEEG_Images\0900.jpg	NY	Left	No	0.739094699998532	0	533155	252
1043.37890625	0.739094699998532	taste	choicePhaseStart	3	143	23	foodImage.92	FOODEEG_Images\0900.jpg	NY	Left	No	0.739094699998532	0	534211	253
1044.109375	0	taste	response	3	143	23	foodImage.92	FOODEEG_Images\0900.jpg	NY	Left	No	0.739094699998532	0	534585	234
1045.15234375	1	taste	trialStart	3	144	24	foodImage.74	FOODEEG_Images\0752.jpg	NY	Right	Yes	0.795629100000951	0	535119	251
1046.193359375	2	taste	foodImageDisplay	3	144	24	foodImage.74	FOODEEG_Images\0752.jpg	NY	Right	Yes	0.795629100000951	0	535652	252
1048.2578125	0.795629100000951	taste	choicePhaseStart	3	144	24	foodImage.74	FOODEEG_Images\0752.jpg	NY	Right	Yes	0.795629100000951	0	536709	253
1049.044921875	0	taste	response	3	144	24	foodImage.74	FOODEEG_Images\0752.jpg	NY	Right	Yes	0.795629100000951	0	537112	235
1050.087890625	1	health	trialStart	3	145	25	foodImage.53	FOODEEG_Images\0547.jpg	NY	Left	No	0.770584199999576	0	537646	251
1051.14453125	2	health	foodImageDisplay	3	145	25	foodImage.53	FOODEEG_Images\0547.jpg	NY	Left	No	0.770584199999576	0	538187	252
1053.2109375	0.770584199999576	health	choicePhaseStart	3	145	25	foodImage.53	FOODEEG_Images\0547.jpg	NY	Left	No	0.770584199999576	0	539245	253
1053.97265625	0	health	response	3	145	25	foodImage.53	FOODEEG_Images\0547.jpg	NY	Left	No	0.770584199999576	0	539635	234
1055.021484375	1	taste	trialStart	3	146	26	foodImage.72	FOODEEG_Images\0714.jpg	NY	Right	Yes	0.948361300001125	0	540172	251
1056.064453125	2	taste	foodImageDisplay	3	146	26	foodImage.72	FOODEEG_Images\0714.jpg	NY	Right	Yes	0.948361300001125	0	540706	252
1058.130859375	0.948361300001125	taste	choicePhaseStart	3	146	26	foodImage.72	FOODEEG_Images\0714.jpg	NY	Right	Yes	0.948361300001125	0	541764	253
1059.068359375	0	taste	response	3	146	26	foodImage.72	FOODEEG_Images\0714.jpg	NY	Right	Yes	0.948361300001125	0	542244	235
1060.111328125	1	decision	trialStart	3	147	27	foodImage.76	FOODEEG_Images\0766.jpg	NY	Right	Yes	1.11490259999846	0	542778	251
1061.154296875	2	decision	foodImageDisplay	3	147	27	foodImage.76	FOODEEG_Images\0766.jpg	NY	Right	Yes	1.11490259999846	0	543312	252
1063.216796875	1.11490259999846	decision	choicePhaseStart	3	147	27	foodImage.76	FOODEEG_Images\0766.jpg	NY	Right	Yes	1.11490259999846	0	544368	253
1064.32421875	0	decision	response	3	147	27	foodImage.76	FOODEEG_Images\0766.jpg	NY	Right	Yes	1.11490259999846	0	544935	235
1065.3671875	1	decision	trialStart	3	148	28	foodImage.70	FOODEEG_Images\0705.jpg	NY	Right	Yes	0.782103699999425	0	545469	251
1066.423828125	2	decision	foodImageDisplay	3	148	28	foodImage.70	FOODEEG_Images\0705.jpg	NY	Right	Yes	0.782103699999425	0	546010	252
1068.48828125	0.782103699999425	decision	choicePhaseStart	3	148	28	foodImage.70	FOODEEG_Images\0705.jpg	NY	Right	Yes	0.782103699999425	0	547067	253
1069.259765625	0	decision	response	3	148	28	foodImage.70	FOODEEG_Images\0705.jpg	NY	Right	Yes	0.782103699999425	0	547462	235
1070.3046875	1	health	trialStart	3	149	29	foodImage.114	FOODEEG_Images\0922.jpg	YN	Left	Yes	0.990406600001734	0	547997	251
1071.34375	2	health	foodImageDisplay	3	149	29	foodImage.114	FOODEEG_Images\0922.jpg	YN	Left	Yes	0.990406600001734	0	548529	252
1073.408203125	0.990406600001734	health	choicePhaseStart	3	149	29	foodImage.114	FOODEEG_Images\0922.jpg	YN	Left	Yes	0.990406600001734	0	549586	253
1074.388671875	0	health	response	3	149	29	foodImage.114	FOODEEG_Images\0922.jpg	YN	Left	Yes	0.990406600001734	0	550088	234
1075.43359375	1	decision	trialStart	3	150	30	foodImage.64	FOODEEG_Images\0647.jpg	YN	Left	Yes	0.875834499998746	0	550623	251
1076.490234375	2	decision	foodImageDisplay	3	150	30	foodImage.64	FOODEEG_Images\0647.jpg	YN	Left	Yes	0.875834499998746	0	551164	252
1078.5546875	0.875834499998746	decision	choicePhaseStart	3	150	30	foodImage.64	FOODEEG_Images\0647.jpg	YN	Left	Yes	0.875834499998746	0	552221	253
1079.419921875	0	decision	response	3	150	30	foodImage.64	FOODEEG_Images\0647.jpg	YN	Left	Yes	0.875834499998746	0	552664	234
1080.466796875	1	health	trialStart	3	151	31	foodImage.82	FOODEEG_Images\0805.jpg	NY	Right	Yes	2.27392139999938	0	553200	251
1081.521484375	2	health	foodImageDisplay	3	151	31	foodImage.82	FOODEEG_Images\0805.jpg	NY	Right	Yes	2.27392139999938	0	553740	252
1083.583984375	2.27392139999938	health	choicePhaseStart	3	151	31	foodImage.82	FOODEEG_Images\0805.jpg	NY	Right	Yes	2.27392139999938	0	554796	253
1085.8515625	0	health	response	3	151	31	foodImage.82	FOODEEG_Images\0805.jpg	NY	Right	Yes	2.27392139999938	0	555957	235
1086.896484375	1	decision	trialStart	3	152	32	foodImage.32	FOODEEG_Images\0319.jpg	YN	Left	Yes	1.37700419999965	0	556492	251
1087.939453125	2	decision	foodImageDisplay	3	152	32	foodImage.32	FOODEEG_Images\0319.jpg	YN	Left	Yes	1.37700419999965	0	557026	252
1090.00390625	1.37700419999965	decision	choicePhaseStart	3	152	32	foodImage.32	FOODEEG_Images\0319.jpg	YN	Left	Yes	1.37700419999965	0	558083	253
1091.37109375	0	decision	response	3	152	32	foodImage.32	FOODEEG_Images\0319.jpg	YN	Left	Yes	1.37700419999965	0	558783	234
1092.419921875	1	health	trialStart	3	153	33	foodImage.113	FOODEEG_Images\0921.jpg	NY	Left	No	0.618789999996807	0	559320	251
1093.458984375	2	health	foodImageDisplay	3	153	33	foodImage.113	FOODEEG_Images\0921.jpg	NY	Left	No	0.618789999996807	0	559852	252
1095.521484375	0.618789999996807	health	choicePhaseStart	3	153	33	foodImage.113	FOODEEG_Images\0921.jpg	NY	Left	No	0.618789999996807	0	560908	253
1096.130859375	0	health	response	3	153	33	foodImage.113	FOODEEG_Images\0921.jpg	NY	Left	No	0.618789999996807	0	561220	234
1097.17578125	1	taste	trialStart	3	154	34	foodImage.36	FOODEEG_Images\0352.jpg	NY	Left	No	1.50742499999978	0	561755	251
1098.234375	2	taste	foodImageDisplay	3	154	34	foodImage.36	FOODEEG_Images\0352.jpg	NY	Left	No	1.50742499999978	0	562297	252
1100.296875	1.50742499999978	taste	choicePhaseStart	3	154	34	foodImage.36	FOODEEG_Images\0352.jpg	NY	Left	No	1.50742499999978	0	563353	253
1101.794921875	0	taste	response	3	154	34	foodImage.36	FOODEEG_Images\0352.jpg	NY	Left	No	1.50742499999978	0	564120	234
1102.837890625	1	health	trialStart	3	155	35	foodImage.13	FOODEEG_Images\0183.jpg	NY	Right	Yes	0.740382800002408	0	564654	251
1103.87890625	2	health	foodImageDisplay	3	155	35	foodImage.13	FOODEEG_Images\0183.jpg	NY	Right	Yes	0.740382800002408	0	565187	252
1105.947265625	0.740382800002408	health	choicePhaseStart	3	155	35	foodImage.13	FOODEEG_Images\0183.jpg	NY	Right	Yes	0.740382800002408	0	566246	253
1106.68359375	0	health	response	3	155	35	foodImage.13	FOODEEG_Images\0183.jpg	NY	Right	Yes	0.740382800002408	0	566623	235
1107.7265625	1	decision	trialStart	3	156	36	foodImage.54	FOODEEG_Images\0560.jpg	YN	Left	Yes	0.994679299998097	0	567157	251
1108.78515625	2	decision	foodImageDisplay	3	156	36	foodImage.54	FOODEEG_Images\0560.jpg	YN	Left	Yes	0.994679299998097	0	567699	252
1110.849609375	0.994679299998097	decision	choicePhaseStart	3	156	36	foodImage.54	FOODEEG_Images\0560.jpg	YN	Left	Yes	0.994679299998097	0	568756	253
1111.8359375	0	decision	response	3	156	36	foodImage.54	FOODEEG_Images\0560.jpg	YN	Left	Yes	0.994679299998097	0	569261	234
1112.87890625	1	taste	trialStart	3	157	37	foodImage.112	FOODEEG_Images\0920.jpg	NY	Left	No	1.0174076000003	0	569795	251
1113.916015625	2	taste	foodImageDisplay	3	157	37	foodImage.112	FOODEEG_Images\0920.jpg	NY	Left	No	1.0174076000003	0	570326	252
1115.978515625	1.0174076000003	taste	choicePhaseStart	3	157	37	foodImage.112	FOODEEG_Images\0920.jpg	NY	Left	No	1.0174076000003	0	571382	253
1116.986328125	0	taste	response	3	157	37	foodImage.112	FOODEEG_Images\0920.jpg	NY	Left	No	1.0174076000003	0	571898	234
1118.033203125	1	taste	trialStart	3	158	38	foodImage.100	FOODEEG_Images\0908.jpg	YN	Right	No	1.18594840000151	0	572434	251
1119.072265625	2	taste	foodImageDisplay	3	158	38	foodImage.100	FOODEEG_Images\0908.jpg	YN	Right	No	1.18594840000151	0	572966	252
1121.134765625	1.18594840000151	taste	choicePhaseStart	3	158	38	foodImage.100	FOODEEG_Images\0908.jpg	YN	Right	No	1.18594840000151	0	574022	253
1122.314453125	0	taste	response	3	158	38	foodImage.100	FOODEEG_Images\0908.jpg	YN	Right	No	1.18594840000151	0	574626	235
1123.359375	1	taste	trialStart	3	159	39	foodImage.111	FOODEEG_Images\0919.jpg	YN	Right	No	1.00577800000246	0	575161	251
1124.3984375	2	taste	foodImageDisplay	3	159	39	foodImage.111	FOODEEG_Images\0919.jpg	YN	Right	No	1.00577800000246	0	575693	252
1126.462890625	1.00577800000246	taste	choicePhaseStart	3	159	39	foodImage.111	FOODEEG_Images\0919.jpg	YN	Right	No	1.00577800000246	0	576750	253
1127.45703125	0	taste	response	3	159	39	foodImage.111	FOODEEG_Images\0919.jpg	YN	Right	No	1.00577800000246	0	577259	235
1128.5078125	1	health	trialStart	3	160	40	foodImage.107	FOODEEG_Images\0915.jpg	NY	Left	No	1.14363639999647	0	577797	251
1129.548828125	2	health	foodImageDisplay	3	160	40	foodImage.107	FOODEEG_Images\0915.jpg	NY	Left	No	1.14363639999647	0	578330	252
1131.611328125	1.14363639999647	health	choicePhaseStart	3	160	40	foodImage.107	FOODEEG_Images\0915.jpg	NY	Left	No	1.14363639999647	0	579386	253
1132.74609375	0	health	response	3	160	40	foodImage.107	FOODEEG_Images\0915.jpg	NY	Left	No	1.14363639999647	0	579967	234
1133.7890625	1	health	trialStart	3	161	41	foodImage.85	FOODEEG_Images\0841.jpg	NY	Left	No	1.19806850000168	0	580501	251
1134.845703125	2	health	foodImageDisplay	3	161	41	foodImage.85	FOODEEG_Images\0841.jpg	NY	Left	No	1.19806850000168	0	581042	252
1136.908203125	1.19806850000168	health	choicePhaseStart	3	161	41	foodImage.85	FOODEEG_Images\0841.jpg	NY	Left	No	1.19806850000168	0	582098	253
1138.09765625	0	health	response	3	161	41	foodImage.85	FOODEEG_Images\0841.jpg	NY	Left	No	1.19806850000168	0	582707	234
1139.140625	1	decision	trialStart	3	162	42	foodImage.60	FOODEEG_Images\0614.jpg	YN	Left	Yes	1.07646359999853	0	583241	251
1140.19921875	2	decision	foodImageDisplay	3	162	42	foodImage.60	FOODEEG_Images\0614.jpg	YN	Left	Yes	1.07646359999853	0	583783	252
1142.26171875	1.07646359999853	decision	choicePhaseStart	3	162	42	foodImage.60	FOODEEG_Images\0614.jpg	YN	Left	Yes	1.07646359999853	0	584839	253
1143.330078125	0	decision	response	3	162	42	foodImage.60	FOODEEG_Images\0614.jpg	YN	Left	Yes	1.07646359999853	0	585386	234
1144.373046875	1	decision	trialStart	3	163	43	foodImage.79	FOODEEG_Images\0794.jpg	YN	Left	Yes	0.916835500000161	0	585920	251
1145.416015625	2	decision	foodImageDisplay	3	163	43	foodImage.79	FOODEEG_Images\0794.jpg	YN	Left	Yes	0.916835500000161	0	586454	252
1147.478515625	0.916835500000161	decision	choicePhaseStart	3	163	43	foodImage.79	FOODEEG_Images\0794.jpg	YN	Left	Yes	0.916835500000161	0	587510	253
1148.384765625	0	decision	response	3	163	43	foodImage.79	FOODEEG_Images\0794.jpg	YN	Left	Yes	0.916835500000161	0	587974	234
1149.427734375	1	health	trialStart	3	164	44	foodImage.110	FOODEEG_Images\0918.jpg	YN	Right	No	0.488410199999635	0	588508	251
1150.466796875	2	health	foodImageDisplay	3	164	44	foodImage.110	FOODEEG_Images\0918.jpg	YN	Right	No	0.488410199999635	0	589040	252
1152.53125	0.488410199999635	health	choicePhaseStart	3	164	44	foodImage.110	FOODEEG_Images\0918.jpg	YN	Right	No	0.488410199999635	0	590097	253
1153.009765625	0	health	response	3	164	44	foodImage.110	FOODEEG_Images\0918.jpg	YN	Right	No	0.488410199999635	0	590342	235
1154.05859375	1	taste	trialStart	3	165	45	foodImage.54	FOODEEG_Images\0560.jpg	NY	Right	Yes	1.18845610000062	0	590879	251
1155.1328125	2	taste	foodImageDisplay	3	165	45	foodImage.54	FOODEEG_Images\0560.jpg	NY	Right	Yes	1.18845610000062	0	591429	252
1157.197265625	1.18845610000062	taste	choicePhaseStart	3	165	45	foodImage.54	FOODEEG_Images\0560.jpg	NY	Right	Yes	1.18845610000062	0	592486	253
1158.376953125	0	taste	response	3	165	45	foodImage.54	FOODEEG_Images\0560.jpg	NY	Right	Yes	1.18845610000062	0	593090	235
1159.419921875	1	decision	trialStart	3	166	46	foodImage.110	FOODEEG_Images\0918.jpg	YN	Right	No	0.985902300002635	0	593624	251
1160.458984375	2	decision	foodImageDisplay	3	166	46	foodImage.110	FOODEEG_Images\0918.jpg	YN	Right	No	0.985902300002635	0	594156	252
1162.52734375	0.985902300002635	decision	choicePhaseStart	3	166	46	foodImage.110	FOODEEG_Images\0918.jpg	YN	Right	No	0.985902300002635	0	595215	253
1163.505859375	0	decision	response	3	166	46	foodImage.110	FOODEEG_Images\0918.jpg	YN	Right	No	0.985902300002635	0	595716	235
1164.5546875	1	decision	trialStart	3	167	47	foodImage.114	FOODEEG_Images\0922.jpg	YN	Left	Yes	0.824153500001557	0	596253	251
1165.591796875	2	decision	foodImageDisplay	3	167	47	foodImage.114	FOODEEG_Images\0922.jpg	YN	Left	Yes	0.824153500001557	0	596784	252
1167.654296875	0.824153500001557	decision	choicePhaseStart	3	167	47	foodImage.114	FOODEEG_Images\0922.jpg	YN	Left	Yes	0.824153500001557	0	597840	253
1168.47265625	0	decision	response	3	167	47	foodImage.114	FOODEEG_Images\0922.jpg	YN	Left	Yes	0.824153500001557	0	598259	234
1169.515625	1	decision	trialStart	3	168	48	foodImage.6	FOODEEG_Images\0113.jpg	YN	Right	No	1.06204119999893	0	598793	251
1170.556640625	2	decision	foodImageDisplay	3	168	48	foodImage.6	FOODEEG_Images\0113.jpg	YN	Right	No	1.06204119999893	0	599326	252
1172.619140625	1.06204119999893	decision	choicePhaseStart	3	168	48	foodImage.6	FOODEEG_Images\0113.jpg	YN	Right	No	1.06204119999893	0	600382	253
1173.671875	0	decision	response	3	168	48	foodImage.6	FOODEEG_Images\0113.jpg	YN	Right	No	1.06204119999893	0	600921	235
1174.720703125	1	taste	trialStart	3	169	49	foodImage.80	FOODEEG_Images\0796.jpg	YN	Left	Yes	0.854571199997736	0	601458	251
1175.802734375	2	taste	foodImageDisplay	3	169	49	foodImage.80	FOODEEG_Images\0796.jpg	YN	Left	Yes	0.854571199997736	0	602012	252
1177.8671875	0.854571199997736	taste	choicePhaseStart	3	169	49	foodImage.80	FOODEEG_Images\0796.jpg	YN	Left	Yes	0.854571199997736	0	603069	253
1178.712890625	0	taste	response	3	169	49	foodImage.80	FOODEEG_Images\0796.jpg	YN	Left	Yes	0.854571199997736	0	603502	234
1179.7578125	1	health	trialStart	3	170	50	foodImage.108	FOODEEG_Images\0916.jpg	YN	Right	No	1.16389580000032	0	604037	251
1180.796875	2	health	foodImageDisplay	3	170	50	foodImage.108	FOODEEG_Images\0916.jpg	YN	Right	No	1.16389580000032	0	604569	252
1182.861328125	1.16389580000032	health	choicePhaseStart	3	170	50	foodImage.108	FOODEEG_Images\0916.jpg	YN	Right	No	1.16389580000032	0	605626	253
1184.015625	0	health	response	3	170	50	foodImage.108	FOODEEG_Images\0916.jpg	YN	Right	No	1.16389580000032	0	606217	235
1185.05859375	1	decision	trialStart	3	171	51	foodImage.105	FOODEEG_Images\0913.jpg	NY	Left	No	1.4407613000003	0	606751	251
1186.09765625	2	decision	foodImageDisplay	3	171	51	foodImage.105	FOODEEG_Images\0913.jpg	NY	Left	No	1.4407613000003	0	607283	252
1188.16015625	1.4407613000003	decision	choicePhaseStart	3	171	51	foodImage.105	FOODEEG_Images\0913.jpg	NY	Left	No	1.4407613000003	0	608339	253
1189.591796875	0	decision	response	3	171	51	foodImage.105	FOODEEG_Images\0913.jpg	NY	Left	No	1.4407613000003	0	609072	234
1190.63671875	1	taste	trialStart	3	172	52	foodImage.52	FOODEEG_Images\0539.jpg	NY	Left	No	1.07701350000207	0	609607	251
1191.69140625	2	taste	foodImageDisplay	3	172	52	foodImage.52	FOODEEG_Images\0539.jpg	NY	Left	No	1.07701350000207	0	610147	252
1193.755859375	1.07701350000207	taste	choicePhaseStart	3	172	52	foodImage.52	FOODEEG_Images\0539.jpg	NY	Left	No	1.07701350000207	0	611204	253
1194.82421875	0	taste	response	3	172	52	foodImage.52	FOODEEG_Images\0539.jpg	NY	Left	No	1.07701350000207	0	611751	234
1195.8671875	1	health	trialStart	3	173	53	foodImage.49	FOODEEG_Images\0515.jpg	NY	Right	Yes	0.866991200000484	0	612285	251
1196.91015625	2	health	foodImageDisplay	3	173	53	foodImage.49	FOODEEG_Images\0515.jpg	NY	Right	Yes	0.866991200000484	0	612819	252
1198.97265625	0.866991200000484	health	choicePhaseStart	3	173	53	foodImage.49	FOODEEG_Images\0515.jpg	NY	Right	Yes	0.866991200000484	0	613875	253
1199.83203125	0	health	response	3	173	53	foodImage.49	FOODEEG_Images\0515.jpg	NY	Right	Yes	0.866991200000484	0	614315	235
1200.875	1	taste	trialStart	3	174	54	foodImage.70	FOODEEG_Images\0705.jpg	YN	Left	Yes	1.33996280000065	0	614849	251
1201.93359375	2	taste	foodImageDisplay	3	174	54	foodImage.70	FOODEEG_Images\0705.jpg	YN	Left	Yes	1.33996280000065	0	615391	252
1203.99609375	1.33996280000065	taste	choicePhaseStart	3	174	54	foodImage.70	FOODEEG_Images\0705.jpg	YN	Left	Yes	1.33996280000065	0	616447	253
1205.328125	0	taste	response	3	174	54	foodImage.70	FOODEEG_Images\0705.jpg	YN	Left	Yes	1.33996280000065	0	617129	234
1206.373046875	1	taste	trialStart	3	175	55	foodImage.95	FOODEEG_Images\0903.jpg	NY	Left	No	1.26907579999897	0	617664	251
1207.412109375	2	taste	foodImageDisplay	3	175	55	foodImage.95	FOODEEG_Images\0903.jpg	NY	Left	No	1.26907579999897	0	618196	252
1209.474609375	1.26907579999897	taste	choicePhaseStart	3	175	55	foodImage.95	FOODEEG_Images\0903.jpg	NY	Left	No	1.26907579999897	0	619252	253
1210.734375	0	taste	response	3	175	55	foodImage.95	FOODEEG_Images\0903.jpg	NY	Left	No	1.26907579999897	0	619897	234
1211.783203125	1	health	trialStart	3	176	56	foodImage.58	FOODEEG_Images\0605.jpg	YN	Right	No	1.05416649999825	0	620434	251
1212.841796875	2	health	foodImageDisplay	3	176	56	foodImage.58	FOODEEG_Images\0605.jpg	YN	Right	No	1.05416649999825	0	620976	252
1214.912109375	1.05416649999825	health	choicePhaseStart	3	176	56	foodImage.58	FOODEEG_Images\0605.jpg	YN	Right	No	1.05416649999825	0	622036	253
1215.958984375	0	health	response	3	176	56	foodImage.58	FOODEEG_Images\0605.jpg	YN	Right	No	1.05416649999825	0	622572	235
1217.00390625	1	health	trialStart	3	177	57	foodImage.78	FOODEEG_Images\0787.jpg	YN	Left	Yes	0.759681299998192	0	623107	251
1218.048828125	2	health	foodImageDisplay	3	177	57	foodImage.78	FOODEEG_Images\0787.jpg	YN	Left	Yes	0.759681299998192	0	623642	252
1220.11328125	0.759681299998192	health	choicePhaseStart	3	177	57	foodImage.78	FOODEEG_Images\0787.jpg	YN	Left	Yes	0.759681299998192	0	624699	253
1220.86328125	0	health	response	3	177	57	foodImage.78	FOODEEG_Images\0787.jpg	YN	Left	Yes	0.759681299998192	0	625083	234
1221.912109375	1	decision	trialStart	3	178	58	foodImage.11	FOODEEG_Images\0180.jpg	YN	Right	No	1.17695760000061	0	625620	251
1222.953125	2	decision	foodImageDisplay	3	178	58	foodImage.11	FOODEEG_Images\0180.jpg	YN	Right	No	1.17695760000061	0	626153	252
1225.015625	1.17695760000061	decision	choicePhaseStart	3	178	58	foodImage.11	FOODEEG_Images\0180.jpg	YN	Right	No	1.17695760000061	0	627209	253
1226.181640625	0	decision	response	3	178	58	foodImage.11	FOODEEG_Images\0180.jpg	YN	Right	No	1.17695760000061	0	627806	235
1227.228515625	1	health	trialStart	3	179	59	foodImage.25	FOODEEG_Images\0261.jpg	YN	Left	Yes	0.772939800001041	0	628342	251
1228.267578125	2	health	foodImageDisplay	3	179	59	foodImage.25	FOODEEG_Images\0261.jpg	YN	Left	Yes	0.772939800001041	0	628874	252
1230.33203125	0.772939800001041	health	choicePhaseStart	3	179	59	foodImage.25	FOODEEG_Images\0261.jpg	YN	Left	Yes	0.772939800001041	0	629931	253
1231.09375	0	health	response	3	179	59	foodImage.25	FOODEEG_Images\0261.jpg	YN	Left	Yes	0.772939800001041	0	630321	234
1232.13671875	1	decision	trialStart	3	180	60	foodImage.42	FOODEEG_Images\0438.jpg	YN	Left	Yes	1.18614110000271	0	630855	251
1233.22265625	2	decision	foodImageDisplay	3	180	60	foodImage.42	FOODEEG_Images\0438.jpg	YN	Left	Yes	1.18614110000271	0	631411	252
1235.28515625	1.18614110000271	decision	choicePhaseStart	3	180	60	foodImage.42	FOODEEG_Images\0438.jpg	YN	Left	Yes	1.18614110000271	0	632467	253
1236.462890625	0	decision	response	3	180	60	foodImage.42	FOODEEG_Images\0438.jpg	YN	Left	Yes	1.18614110000271	0	633070	234
1238.50390625	18.056640625	n/a	blockEnd	n/a	n/a	n/a	n/a	n/a	n/a	n/a	n/a	n/a	n/a	634115	254
1256.560546875	2	n/a	blockStart	4	n/a	n/a	n/a	n/a	n/a	n/a	n/a	n/a	n/a	643360	250
1258.59375	1	health	trialStart	4	181	1	foodImage.28	FOODEEG_Images\0273.jpg	YN	Left	Yes	0.625588999999309	0	644401	251
1259.63671875	2	health	foodImageDisplay	4	181	1	foodImage.28	FOODEEG_Images\0273.jpg	YN	Left	Yes	0.625588999999309	0	644935	252
1261.69921875	0.625588999999309	health	choicePhaseStart	4	181	1	foodImage.28	FOODEEG_Images\0273.jpg	YN	Left	Yes	0.625588999999309	0	645991	253
1262.31640625	0	health	response	4	181	1	foodImage.28	FOODEEG_Images\0273.jpg	YN	Left	Yes	0.625588999999309	0	646307	234
1263.375	1	taste	trialStart	4	182	2	foodImage.23	FOODEEG_Images\0244.jpg	NY	Left	No	1.39219339999909	0	646849	251
1264.416015625	2	taste	foodImageDisplay	4	182	2	foodImage.23	FOODEEG_Images\0244.jpg	NY	Left	No	1.39219339999909	0	647382	252
1266.478515625	1.39219339999909	taste	choicePhaseStart	4	182	2	foodImage.23	FOODEEG_Images\0244.jpg	NY	Left	No	1.39219339999909	0	648438	253
1267.861328125	0	taste	response	4	182	2	foodImage.23	FOODEEG_Images\0244.jpg	NY	Left	No	1.39219339999909	0	649146	234
1268.904296875	1	taste	trialStart	4	183	3	foodImage.88	FOODEEG_Images\0878.jpg	NY	Left	No	1.07656090000091	0	649680	251
1269.9609375	2	taste	foodImageDisplay	4	183	3	foodImage.88	FOODEEG_Images\0878.jpg	NY	Left	No	1.07656090000091	0	650221	252
1272.025390625	1.07656090000091	taste	choicePhaseStart	4	183	3	foodImage.88	FOODEEG_Images\0878.jpg	NY	Left	No	1.07656090000091	0	651278	253
1273.091796875	0	taste	response	4	183	3	foodImage.88	FOODEEG_Images\0878.jpg	NY	Left	No	1.07656090000091	0	651824	234
1274.13671875	1	health	trialStart	4	184	4	foodImage.17	FOODEEG_Images\0199.jpg	YN	Left	Yes	0.917688600002293	0	652359	251
1275.197265625	2	health	foodImageDisplay	4	184	4	foodImage.17	FOODEEG_Images\0199.jpg	YN	Left	Yes	0.917688600002293	0	652902	252
1277.26171875	0.917688600002293	health	choicePhaseStart	4	184	4	foodImage.17	FOODEEG_Images\0199.jpg	YN	Left	Yes	0.917688600002293	0	653959	253
1278.171875	0	health	response	4	184	4	foodImage.17	FOODEEG_Images\0199.jpg	YN	Left	Yes	0.917688600002293	0	654425	234
1279.216796875	1	taste	trialStart	4	185	5	foodImage.50	FOODEEG_Images\0529.jpg	NY	Right	Yes	0.851687200000015	0	654960	251
1280.2734375	2	taste	foodImageDisplay	4	185	5	foodImage.50	FOODEEG_Images\0529.jpg	NY	Right	Yes	0.851687200000015	0	655501	252
1282.337890625	0.851687200000015	taste	choicePhaseStart	4	185	5	foodImage.50	FOODEEG_Images\0529.jpg	NY	Right	Yes	0.851687200000015	0	656558	253
1283.1796875	0	taste	response	4	185	5	foodImage.50	FOODEEG_Images\0529.jpg	NY	Right	Yes	0.851687200000015	0	656989	235
1284.224609375	1	health	trialStart	4	186	6	foodImage.33	FOODEEG_Images\0329.jpg	NY	Right	Yes	0.706870699999854	0	657524	251
1285.267578125	2	health	foodImageDisplay	4	186	6	foodImage.33	FOODEEG_Images\0329.jpg	NY	Right	Yes	0.706870699999854	0	658058	252
1287.330078125	0.706870699999854	health	choicePhaseStart	4	186	6	foodImage.33	FOODEEG_Images\0329.jpg	NY	Right	Yes	0.706870699999854	0	659114	253
1288.02734375	0	health	response	4	186	6	foodImage.33	FOODEEG_Images\0329.jpg	NY	Right	Yes	0.706870699999854	0	659471	235
1289.076171875	1	taste	trialStart	4	187	7	foodImage.61	FOODEEG_Images\0640.jpg	YN	Left	Yes	0.872961000000942	0	660008	251
1290.1171875	2	taste	foodImageDisplay	4	187	7	foodImage.61	FOODEEG_Images\0640.jpg	YN	Left	Yes	0.872961000000942	0	660541	252
1292.1796875	0.872961000000942	taste	choicePhaseStart	4	187	7	foodImage.61	FOODEEG_Images\0640.jpg	YN	Left	Yes	0.872961000000942	0	661597	253
1293.04296875	0	taste	response	4	187	7	foodImage.61	FOODEEG_Images\0640.jpg	YN	Left	Yes	0.872961000000942	0	662039	234
1294.087890625	1	taste	trialStart	4	188	8	foodImage.78	FOODEEG_Images\0787.jpg	NY	Right	Yes	0.865484499998274	0	662574	251
1295.154296875	2	taste	foodImageDisplay	4	188	8	foodImage.78	FOODEEG_Images\0787.jpg	NY	Right	Yes	0.865484499998274	0	663120	252
1297.216796875	0.865484499998274	taste	choicePhaseStart	4	188	8	foodImage.78	FOODEEG_Images\0787.jpg	NY	Right	Yes	0.865484499998274	0	664176	253
1298.076171875	0	taste	response	4	188	8	foodImage.78	FOODEEG_Images\0787.jpg	NY	Right	Yes	0.865484499998274	0	664616	235
1299.119140625	1	decision	trialStart	4	189	9	foodImage.31	FOODEEG_Images\0294.jpg	YN	Left	Yes	2.10876350000035	0	665150	251
1300.162109375	2	decision	foodImageDisplay	4	189	9	foodImage.31	FOODEEG_Images\0294.jpg	YN	Left	Yes	2.10876350000035	0	665684	252
1302.23046875	2.10876350000035	decision	choicePhaseStart	4	189	9	foodImage.31	FOODEEG_Images\0294.jpg	YN	Left	Yes	2.10876350000035	0	666743	253
1304.33203125	0	decision	response	4	189	9	foodImage.31	FOODEEG_Images\0294.jpg	YN	Left	Yes	2.10876350000035	0	667819	234
1305.375	1	decision	trialStart	4	190	10	foodImage.57	FOODEEG_Images\0587.jpg	NY	Right	Yes	1.09859979999965	0	668353	251
1306.41796875	2	decision	foodImageDisplay	4	190	10	foodImage.57	FOODEEG_Images\0587.jpg	NY	Right	Yes	1.09859979999965	0	668887	252
1308.482421875	1.09859979999965	decision	choicePhaseStart	4	190	10	foodImage.57	FOODEEG_Images\0587.jpg	NY	Right	Yes	1.09859979999965	0	669944	253
1309.5703125	0	decision	response	4	190	10	foodImage.57	FOODEEG_Images\0587.jpg	NY	Right	Yes	1.09859979999965	0	670501	235
1310.615234375	1	decision	trialStart	4	191	11	foodImage.78	FOODEEG_Images\0787.jpg	NY	Right	Yes	0.787388000000647	0	671036	251
1311.658203125	2	decision	foodImageDisplay	4	191	11	foodImage.78	FOODEEG_Images\0787.jpg	NY	Right	Yes	0.787388000000647	0	671570	252
1313.7265625	0.787388000000647	decision	choicePhaseStart	4	191	11	foodImage.78	FOODEEG_Images\0787.jpg	NY	Right	Yes	0.787388000000647	0	672629	253
1314.505859375	0	decision	response	4	191	11	foodImage.78	FOODEEG_Images\0787.jpg	NY	Right	Yes	0.787388000000647	0	673028	235
1315.55078125	1	decision	trialStart	4	192	12	foodImage.115	FOODEEG_Images\0923.jpg	YN	Right	No	1.00349799999822	0	673563	251
1316.58984375	2	decision	foodImageDisplay	4	192	12	foodImage.115	FOODEEG_Images\0923.jpg	YN	Right	No	1.00349799999822	0	674095	252
1318.654296875	1.00349799999822	decision	choicePhaseStart	4	192	12	foodImage.115	FOODEEG_Images\0923.jpg	YN	Right	No	1.00349799999822	0	675152	253
1319.650390625	0	decision	response	4	192	12	foodImage.115	FOODEEG_Images\0923.jpg	YN	Right	No	1.00349799999822	0	675662	235
1320.6953125	1	taste	trialStart	4	193	13	foodImage.22	FOODEEG_Images\0236.jpg	NY	Right	Yes	0.91576950000308	0	676197	251
1321.736328125	2	taste	foodImageDisplay	4	193	13	foodImage.22	FOODEEG_Images\0236.jpg	NY	Right	Yes	0.91576950000308	0	676730	252
1323.798828125	0.91576950000308	taste	choicePhaseStart	4	193	13	foodImage.22	FOODEEG_Images\0236.jpg	NY	Right	Yes	0.91576950000308	0	677786	253
1324.70703125	0	taste	response	4	193	13	foodImage.22	FOODEEG_Images\0236.jpg	NY	Right	Yes	0.91576950000308	0	678251	235
1325.75	1	taste	trialStart	4	194	14	foodImage.45	FOODEEG_Images\0478.jpg	NY	Right	Yes	0.935475599999336	0	678785	251
1326.794921875	2	taste	foodImageDisplay	4	194	14	foodImage.45	FOODEEG_Images\0478.jpg	NY	Right	Yes	0.935475599999336	0	679320	252
1328.859375	0.935475599999336	taste	choicePhaseStart	4	194	14	foodImage.45	FOODEEG_Images\0478.jpg	NY	Right	Yes	0.935475599999336	0	680377	253
1329.78515625	0	taste	response	4	194	14	foodImage.45	FOODEEG_Images\0478.jpg	NY	Right	Yes	0.935475599999336	0	680851	235
