onset	duration	trial_type	event_type	block	trial_total	trial_in_block	food_image_code	food_image_path	button_position	resp_position	resp_choice	choice_rt	resp_too_slow	sample	trigger
164.69140625	2	n/a	blockStart	1	n/a	n/a	n/a	n/a	n/a	n/a	n/a	n/a	n/a	84323	250
166.732421875	1	health	trialStart	1	1	1	foodImage.9	FOODEEG_Images\0138.jpg	YN	Right	No	1.00101519999953	0	85368	251
167.794921875	2	health	foodImageDisplay	1	1	1	foodImage.9	FOODEEG_Images\0138.jpg	YN	Right	No	1.00101519999953	0	85912	252
169.861328125	1.00101519999953	health	choicePhaseStart	1	1	1	foodImage.9	FOODEEG_Images\0138.jpg	YN	Right	No	1.00101519999953	0	86970	253
170.85546875	0	health	response	1	1	1	foodImage.9	FOODEEG_Images\0138.jpg	YN	Right	No	1.00101519999953	0	87479	235
171.94140625	1	taste	trialStart	1	2	2	foodImage.118	FOODEEG_Images\0926.jpg	YN	Right	No	0.669659700000921	0	88035	251
172.990234375	2	taste	foodImageDisplay	1	2	2	foodImage.118	FOODEEG_Images\0926.jpg	YN	Right	No	0.669659700000921	0	88572	252
175.0625	0.669659700000921	taste	choicePhaseStart	1	2	2	foodImage.118	FOODEEG_Images\0926.jpg	YN	Right	No	0.669659700000921	0	89633	253
175.728515625	0	taste	response	1	2	2	foodImage.118	FOODEEG_Images\0926.jpg	YN	Right	No	0.669659700000921	0	89974	235
176.791015625	1	taste	trialStart	1	3	3	foodImage.64	FOODEEG_Images\0647.jpg	YN	Left	Yes	0.679892200001632	0	90518	251
177.85546875	2	taste	foodImageDisplay	1	3	3	foodImage.64	FOODEEG_Images\0647.jpg	YN	Left	Yes	0.679892200001632	0	91063	252
179.919921875	0.679892200001632	taste	choicePhaseStart	1	3	3	foodImage.64	FOODEEG_Images\0647.jpg	YN	Left	Yes	0.679892200001632	0	92120	253
180.591796875	0	taste	response	1	3	3	foodImage.64	FOODEEG_Images\0647.jpg	YN	Left	Yes	0.679892200001632	0	92464	234
181.63671875	1	decision	trialStart	1	4	4	foodImage.29	FOODEEG_Images\0278.jpg	NY	Right	Yes	0.94269229999918	0	92999	251
182.6796875	2	decision	foodImageDisplay	1	4	4	foodImage.29	FOODEEG_Images\0278.jpg	NY	Right	Yes	0.94269229999918	0	93533	252
184.744140625	0.94269229999918	decision	choicePhaseStart	1	4	4	foodImage.29	FOODEEG_Images\0278.jpg	NY	Right	Yes	0.94269229999918	0	94590	253
185.6796875	0	decision	response	1	4	4	foodImage.29	FOODEEG_Images\0278.jpg	NY	Right	Yes	0.94269229999918	0	95069	235
186.720703125	1	decision	trialStart	1	5	5	foodImage.110	FOODEEG_Images\0918.jpg	YN	Right	No	0.939373000001069	0	95602	251
187.763671875	2	decision	foodImageDisplay	1	5	5	foodImage.110	FOODEEG_Images\0918.jpg	YN	Right	No	0.939373000001069	0	96136	252
189.828125	0.939373000001069	decision	choicePhaseStart	1	5	5	foodImage.110	FOODEEG_Images\0918.jpg	YN	Right	No	0.939373000001069	0	97193	253
190.759765625	0	decision	response	1	5	5	foodImage.110	FOODEEG_Images\0918.jpg	YN	Right	No	0.939373000001069	0	97670	235
191.8125	1	decision	trialStart	1	6	6	foodImage.116	FOODEEG_Images\0924.jpg	NY	Left	No	0.713924400002725	0	98209	251
192.8515625	2	decision	foodImageDisplay	1	6	6	foodImage.116	FOODEEG_Images\0924.jpg	NY	Left	No	0.713924400002725	0	98741	252
194.91796875	0.713924400002725	decision	choicePhaseStart	1	6	6	foodImage.116	FOODEEG_Images\0924.jpg	NY	Left	No	0.713924400002725	0	99799	253
195.623046875	0	decision	response	1	6	6	foodImage.116	FOODEEG_Images\0924.jpg	NY	Left	No	0.713924400002725	0	100160	234
196.666015625	1	taste	trialStart	1	7	7	foodImage.107	FOODEEG_Images\0915.jpg	NY	Right	Yes	1.59251720000248	0	100694	251
197.703125	2	taste	foodImageDisplay	1	7	7	foodImage.107	FOODEEG_Images\0915.jpg	NY	Right	Yes	1.59251720000248	0	101225	252
199.767578125	1.59251720000248	taste	choicePhaseStart	1	7	7	foodImage.107	FOODEEG_Images\0915.jpg	NY	Right	Yes	1.59251720000248	0	102282	253
201.3515625	0	taste	response	1	7	7	foodImage.107	FOODEEG_Images\0915.jpg	NY	Right	Yes	1.59251720000248	0	103093	235
202.396484375	1	health	trialStart	1	8	8	foodImage.77	FOODEEG_Images\0771.jpg	YN	Left	Yes	0.966444000001502	0	103628	251
203.44140625	2	health	foodImageDisplay	1	8	8	foodImage.77	FOODEEG_Images\0771.jpg	YN	Left	Yes	0.966444000001502	0	104163	252
205.50390625	0.966444000001502	health	choicePhaseStart	1	8	8	foodImage.77	FOODEEG_Images\0771.jpg	YN	Left	Yes	0.966444000001502	0	105219	253
206.462890625	0	health	response	1	8	8	foodImage.77	FOODEEG_Images\0771.jpg	YN	Left	Yes	0.966444000001502	0	105710	234
207.505859375	1	health	trialStart	1	9	9	foodImage.74	FOODEEG_Images\0752.jpg	NY	Right	Yes	0.931347099998675	0	106244	251
208.548828125	2	health	foodImageDisplay	1	9	9	foodImage.74	FOODEEG_Images\0752.jpg	NY	Right	Yes	0.931347099998675	0	106778	252
210.619140625	0.931347099998675	health	choicePhaseStart	1	9	9	foodImage.74	FOODEEG_Images\0752.jpg	NY	Right	Yes	0.931347099998675	0	107838	253
211.54296875	0	health	response	1	9	9	foodImage.74	FOODEEG_Images\0752.jpg	NY	Right	Yes	0.931347099998675	0	108311	235
212.587890625	1	health	trialStart	1	10	10	foodImage.78	FOODEEG_Images\0787.jpg	NY	Right	Yes	1.89108579999811	0	108846	251
213.6328125	2	health	foodImageDisplay	1	10	10	foodImage.78	FOODEEG_Images\0787.jpg	NY	Right	Yes	1.89108579999811	0	109381	252
215.703125	1.89108579999811	health	choicePhaseStart	1	10	10	foodImage.78	FOODEEG_Images\0787.jpg	NY	Right	Yes	1.89108579999811	0	110441	253
217.58984375	0	health	response	1	10	10	foodImage.78	FOODEEG_Images\0787.jpg	NY	Right	Yes	1.89108579999811	0	111407	235
218.6328125	1	decision	trialStart	1	11	11	foodImage.41	FOODEEG_Images\0409.jpg	YN	Right	No	0.950046099998872	0	111941	251
219.6796875	2	decision	foodImageDisplay	1	11	11	foodImage.41	FOODEEG_Images\0409.jpg	YN	Right	No	0.950046099998872	0	112477	252
221.744140625	0.950046099998872	decision	choicePhaseStart	1	11	11	foodImage.41	FOODEEG_Images\0409.jpg	YN	Right	No	0.950046099998872	0	113534	253
222.685546875	0	decision	response	1	11	11	foodImage.41	FOODEEG_Images\0409.jpg	YN	Right	No	0.950046099998872	0	114016	235
223.728515625	1	taste	trialStart	1	12	12	foodImage.71	FOODEEG_Images\0713.jpg	YN	Right	No	1.26167150000038	0	114550	251
224.76953125	2	taste	foodImageDisplay	1	12	12	foodImage.71	FOODEEG_Images\0713.jpg	YN	Right	No	1.26167150000038	0	115083	252
226.83203125	1.26167150000038	taste	choicePhaseStart	1	12	12	foodImage.71	FOODEEG_Images\0713.jpg	YN	Right	No	1.26167150000038	0	116139	253
228.0859375	0	taste	response	1	12	12	foodImage.71	FOODEEG_Images\0713.jpg	YN	Right	No	1.26167150000038	0	116781	235
229.12890625	1	health	trialStart	1	13	13	foodImage.81	FOODEEG_Images\0797.jpg	YN	Left	Yes	3.81886520000262	0	117315	251
230.1875	2	health	foodImageDisplay	1	13	13	foodImage.81	FOODEEG_Images\0797.jpg	YN	Left	Yes	3.81886520000262	0	117857	252
232.25	3.81886520000262	health	choicePhaseStart	1	13	13	foodImage.81	FOODEEG_Images\0797.jpg	YN	Left	Yes	3.81886520000262	0	118913	253
236.060546875	0	health	response	1	13	13	foodImage.81	FOODEEG_Images\0797.jpg	YN	Left	Yes	3.81886520000262	0	120864	234
237.103515625	1	taste	trialStart	1	14	14	foodImage.9	FOODEEG_Images\0138.jpg	NY	Left	No	1.16928789999656	0	121398	251
238.162109375	2	taste	foodImageDisplay	1	14	14	foodImage.9	FOODEEG_Images\0138.jpg	NY	Left	No	1.16928789999656	0	121940	252
240.228515625	1.16928789999656	taste	choicePhaseStart	1	14	14	foodImage.9	FOODEEG_Images\0138.jpg	NY	Left	No	1.16928789999656	0	122998	253
241.390625	0	taste	response	1	14	14	foodImage.9	FOODEEG_Images\0138.jpg	NY	Left	No	1.16928789999656	0	123593	234
242.4375	1	decision	trialStart	1	15	15	foodImage.81	FOODEEG_Images\0797.jpg	YN	Left	Yes	1.68450400000074	0	124129	251
243.494140625	2	decision	foodImageDisplay	1	15	15	foodImage.81	FOODEEG_Images\0797.jpg	YN	Left	Yes	1.68450400000074	0	124670	252
245.560546875	1.68450400000074	decision	choicePhaseStart	1	15	15	foodImage.81	FOODEEG_Images\0797.jpg	YN	Left	Yes	1.68450400000074	0	125728	253
247.236328125	0	decision	response	1	15	15	foodImage.81	FOODEEG_Images\0797.jpg	YN	Left	Yes	1.68450400000074	0	126586	234
248.279296875	1	health	trialStart	1	16	16	foodImage.54	FOODEEG_Images\0560.jpg	YN	Left	Yes	1.45124950000172	0	127120	251
249.337890625	2	health	foodImageDisplay	1	16	16	foodImage.54	FOODEEG_Images\0560.jpg	YN	Left	Yes	1.45124950000172	0	127662	252
251.40234375	1.45124950000172	health	choicePhaseStart	1	16	16	foodImage.54	FOODEEG_Images\0560.jpg	YN	Left	Yes	1.45124950000172	0	128719	253
252.84375	0	health	response	1	16	16	foodImage.54	FOODEEG_Images\0560.jpg	YN	Left	Yes	1.45124950000172	0	129457	234
253.88671875	1	taste	trialStart	1	17	17	foodImage.20	FOODEEG_Images\0226.jpg	YN	Right	No	0.780989599999884	0	129991	251
254.9296875	2	taste	foodImageDisplay	1	17	17	foodImage.20	FOODEEG_Images\0226.jpg	YN	Right	No	0.780989599999884	0	130525	252
256.9921875	0.780989599999884	taste	choicePhaseStart	1	17	17	foodImage.20	FOODEEG_Images\0226.jpg	YN	Right	No	0.780989599999884	0	131581	253
257.763671875	0	taste	response	1	17	17	foodImage.20	FOODEEG_Images\0226.jpg	YN	Right	No	0.780989599999884	0	131976	235
258.806640625	1	decision	trialStart	1	18	18	foodImage.96	FOODEEG_Images\0904.jpg	NY	Left	No	1.30505740000081	0	132510	251
259.85546875	2	decision	foodImageDisplay	1	18	18	foodImage.96	FOODEEG_Images\0904.jpg	NY	Left	No	1.30505740000081	0	133047	252
261.919921875	1.30505740000081	decision	choicePhaseStart	1	18	18	foodImage.96	FOODEEG_Images\0904.jpg	NY	Left	No	1.30505740000081	0	134104	253
263.220703125	0	decision	response	1	18	18	foodImage.96	FOODEEG_Images\0904.jpg	NY	Left	No	1.30505740000081	0	134770	234
264.26171875	1	decision	trialStart	1	19	19	foodImage.32	FOODEEG_Images\0319.jpg	NY	Right	Yes	0.850477899999532	0	135303	251
265.306640625	2	decision	foodImageDisplay	1	19	19	foodImage.32	FOODEEG_Images\0319.jpg	NY	Right	Yes	0.850477899999532	0	135838	252
267.37109375	0.850477899999532	decision	choicePhaseStart	1	19	19	foodImage.32	FOODEEG_Images\0319.jpg	NY	Right	Yes	0.850477899999532	0	136895	253
268.212890625	0	decision	response	1	19	19	foodImage.32	FOODEEG_Images\0319.jpg	NY	Right	Yes	0.850477899999532	0	137326	235
269.25390625	1	decision	trialStart	1	20	20	foodImage.64	FOODEEG_Images\0647.jpg	YN	Left	Yes	0.92698929999824	0	137859	251
270.310546875	2	decision	foodImageDisplay	1	20	20	foodImage.64	FOODEEG_Images\0647.jpg	YN	Left	Yes	0.92698929999824	0	138400	252
272.380859375	0.92698929999824	decision	choicePhaseStart	1	20	20	foodImage.64	FOODEEG_Images\0647.jpg	YN	Left	Yes	0.92698929999824	0	139460	253
273.298828125	0	decision	response	1	20	20	foodImage.64	FOODEEG_Images\0647.jpg	YN	Left	Yes	0.92698929999824	0	139930	234
274.341796875	1	health	trialStart	1	21	21	foodImage.41	FOODEEG_Images\0409.jpg	NY	Right	Yes	1.24776600000041	0	140464	251
275.41015625	2	health	foodImageDisplay	1	21	21	foodImage.41	FOODEEG_Images\0409.jpg	NY	Right	Yes	1.24776600000041	0	141011	252
277.4765625	1.24776600000041	health	choicePhaseStart	1	21	21	foodImage.41	FOODEEG_Images\0409.jpg	NY	Right	Yes	1.24776600000041	0	142069	253
278.71484375	0	health	response	1	21	21	foodImage.41	FOODEEG_Images\0409.jpg	NY	Right	Yes	1.24776600000041	0	142703	235
279.7578125	1	health	trialStart	1	22	22	foodImage.51	FOODEEG_Images\0536.jpg	NY	Left	No	1.29055430000153	0	143237	251
280.802734375	2	health	foodImageDisplay	1	22	22	foodImage.51	FOODEEG_Images\0536.jpg	NY	Left	No	1.29055430000153	0	143772	252
282.865234375	1.29055430000153	health	choicePhaseStart	1	22	22	foodImage.51	FOODEEG_Images\0536.jpg	NY	Left	No	1.29055430000153	0	144828	253
284.146484375	0	health	response	1	22	22	foodImage.51	FOODEEG_Images\0536.jpg	NY	Left	No	1.29055430000153	0	145484	234
285.1875	1	health	trialStart	1	23	23	foodImage.100	FOODEEG_Images\0908.jpg	NY	Left	No	1.42714360000173	0	146017	251
286.2265625	2	health	foodImageDisplay	1	23	23	foodImage.100	FOODEEG_Images\0908.jpg	NY	Left	No	1.42714360000173	0	146549	252
288.2890625	1.42714360000173	health	choicePhaseStart	1	23	23	foodImage.100	FOODEEG_Images\0908.jpg	NY	Left	No	1.42714360000173	0	147605	253
289.70703125	0	health	response	1	23	23	foodImage.100	FOODEEG_Images\0908.jpg	NY	Left	No	1.42714360000173	0	148331	234
290.75	1	health	trialStart	1	24	24	foodImage.50	FOODEEG_Images\0529.jpg	NY	Right	Yes	1.13079969999671	0	148865	251
291.80859375	2	health	foodImageDisplay	1	24	24	foodImage.50	FOODEEG_Images\0529.jpg	NY	Right	Yes	1.13079969999671	0	149407	252
293.873046875	1.13079969999671	health	choicePhaseStart	1	24	24	foodImage.50	FOODEEG_Images\0529.jpg	NY	Right	Yes	1.13079969999671	0	150464	253
294.994140625	0	health	response	1	24	24	foodImage.50	FOODEEG_Images\0529.jpg	NY	Right	Yes	1.13079969999671	0	151038	235
296.037109375	1	taste	trialStart	1	25	25	foodImage.15	FOODEEG_Images\0189.jpg	NY	Right	Yes	0.850326199997653	0	151572	251
297.09765625	2	taste	foodImageDisplay	1	25	25	foodImage.15	FOODEEG_Images\0189.jpg	NY	Right	Yes	0.850326199997653	0	152115	252
299.16015625	0.850326199997653	taste	choicePhaseStart	1	25	25	foodImage.15	FOODEEG_Images\0189.jpg	NY	Right	Yes	0.850326199997653	0	153171	253
300.001953125	0	taste	response	1	25	25	foodImage.15	FOODEEG_Images\0189.jpg	NY	Right	Yes	0.850326199997653	0	153602	235
301.044921875	1	health	trialStart	1	26	26	foodImage.33	FOODEEG_Images\0329.jpg	NY	Right	Yes	1.25158300000112	0	154136	251
302.08984375	2	health	foodImageDisplay	1	26	26	foodImage.33	FOODEEG_Images\0329.jpg	NY	Right	Yes	1.25158300000112	0	154671	252
304.15234375	1.25158300000112	health	choicePhaseStart	1	26	26	foodImage.33	FOODEEG_Images\0329.jpg	NY	Right	Yes	1.25158300000112	0	155727	253
305.39453125	0	health	response	1	26	26	foodImage.33	FOODEEG_Images\0329.jpg	NY	Right	Yes	1.25158300000112	0	156363	235
306.435546875	1	health	trialStart	1	27	27	foodImage.21	FOODEEG_Images\0234.jpg	NY	Right	Yes	1.66150159999961	0	156896	251
307.49609375	2	health	foodImageDisplay	1	27	27	foodImage.21	FOODEEG_Images\0234.jpg	NY	Right	Yes	1.66150159999961	0	157439	252
309.564453125	1.66150159999961	health	choicePhaseStart	1	27	27	foodImage.21	FOODEEG_Images\0234.jpg	NY	Right	Yes	1.66150159999961	0	158498	253
311.21875	0	health	response	1	27	27	foodImage.21	FOODEEG_Images\0234.jpg	NY	Right	Yes	1.66150159999961	0	159345	235
312.26171875	1	taste	trialStart	1	28	28	foodImage.55	FOODEEG_Images\0567.jpg	NY	Right	Yes	1.45953700000246	0	159879	251
313.3203125	2	taste	foodImageDisplay	1	28	28	foodImage.55	FOODEEG_Images\0567.jpg	NY	Right	Yes	1.45953700000246	0	160421	252
315.3828125	1.45953700000246	taste	choicePhaseStart	1	28	28	foodImage.55	FOODEEG_Images\0567.jpg	NY	Right	Yes	1.45953700000246	0	161477	253
316.833984375	0	taste	response	1	28	28	foodImage.55	FOODEEG_Images\0567.jpg	NY	Right	Yes	1.45953700000246	0	162220	235
317.876953125	1	decision	trialStart	1	29	29	foodImage.75	FOODEEG_Images\0763.jpg	YN	Left	Yes	1.97221459999855	0	162754	251
318.919921875	2	decision	foodImageDisplay	1	29	29	foodImage.75	FOODEEG_Images\0763.jpg	YN	Left	Yes	1.97221459999855	0	163288	252
320.982421875	1.97221459999855	decision	choicePhaseStart	1	29	29	foodImage.75	FOODEEG_Images\0763.jpg	YN	Left	Yes	1.97221459999855	0	164344	253
322.9453125	0	decision	response	1	29	29	foodImage.75	FOODEEG_Images\0763.jpg	YN	Left	Yes	1.97221459999855	0	165349	234
323.994140625	1	taste	trialStart	1	30	30	foodImage.80	FOODEEG_Images\0796.jpg	NY	Right	Yes	1.10504009999931	0	165886	251
325.052734375	2	taste	foodImageDisplay	1	30	30	foodImage.80	FOODEEG_Images\0796.jpg	NY	Right	Yes	1.10504009999931	0	166428	252
327.115234375	1.10504009999931	taste	choicePhaseStart	1	30	30	foodImage.80	FOODEEG_Images\0796.jpg	NY	Right	Yes	1.10504009999931	0	167484	253
328.208984375	0	taste	response	1	30	30	foodImage.80	FOODEEG_Images\0796.jpg	NY	Right	Yes	1.10504009999931	0	168044	235
329.251953125	1	decision	trialStart	1	31	31	foodImage.37	FOODEEG_Images\0359.jpg	NY	Right	Yes	0.884489899999608	0	168578	251
330.294921875	2	decision	foodImageDisplay	1	31	31	foodImage.37	FOODEEG_Images\0359.jpg	NY	Right	Yes	0.884489899999608	0	169112	252
332.357421875	0.884489899999608	decision	choicePhaseStart	1	31	31	foodImage.37	FOODEEG_Images\0359.jpg	NY	Right	Yes	0.884489899999608	0	170168	253
333.234375	0	decision	response	1	31	31	foodImage.37	FOODEEG_Images\0359.jpg	NY	Right	Yes	0.884489899999608	0	170617	235
334.275390625	1	decision	trialStart	1	32	32	foodImage.47	FOODEEG_Images\0488.jpg	NY	Right	Yes	1.12037330000021	0	171150	251
335.318359375	2	decision	foodImageDisplay	1	32	32	foodImage.47	FOODEEG_Images\0488.jpg	NY	Right	Yes	1.12037330000021	0	171684	252
337.38671875	1.12037330000021	decision	choicePhaseStart	1	32	32	foodImage.47	FOODEEG_Images\0488.jpg	NY	Right	Yes	1.12037330000021	0	172743	253
338.498046875	0	decision	response	1	32	32	foodImage.47	FOODEEG_Images\0488.jpg	NY	Right	Yes	1.12037330000021	0	173312	235
339.5390625	1	taste	trialStart	1	33	33	foodImage.104	FOODEEG_Images\0912.jpg	NY	Right	Yes	0.775308699998277	0	173845	251
340.580078125	2	taste	foodImageDisplay	1	33	33	foodImage.104	FOODEEG_Images\0912.jpg	NY	Right	Yes	0.775308699998277	0	174378	252
342.642578125	0.775308699998277	taste	choicePhaseStart	1	33	33	foodImage.104	FOODEEG_Images\0912.jpg	NY	Right	Yes	0.775308699998277	0	175434	253
343.408203125	0	taste	response	1	33	33	foodImage.104	FOODEEG_Images\0912.jpg	NY	Right	Yes	0.775308699998277	0	175826	235
344.451171875	1	taste	trialStart	1	34	34	foodImage.13	FOODEEG_Images\0183.jpg	NY	Left	No	1.33944110000084	0	176360	251
345.494140625	2	taste	foodImageDisplay	1	34	34	foodImage.13	FOODEEG_Images\0183.jpg	NY	Left	No	1.33944110000084	0	176894	252
347.55859375	1.33944110000084	taste	choicePhaseStart	1	34	34	foodImage.13	FOODEEG_Images\0183.jpg	NY	Left	No	1.33944110000084	0	177951	253
348.888671875	0	taste	response	1	34	34	foodImage.13	FOODEEG_Images\0183.jpg	NY	Left	No	1.33944110000084	0	178632	234
349.9296875	1	decision	trialStart	1	35	35	foodImage.108	FOODEEG_Images\0916.jpg	YN	Right	No	1.42093500000192	0	179165	251
350.966796875	2	decision	foodImageDisplay	1	35	35	foodImage.108	FOODEEG_Images\0916.jpg	YN	Right	No	1.42093500000192	0	179696	252
353.029296875	1.42093500000192	decision	choicePhaseStart	1	35	35	foodImage.108	FOODEEG_Images\0916.jpg	YN	Right	No	1.42093500000192	0	180752	253
354.44140625	0	decision	response	1	35	35	foodImage.108	FOODEEG_Images\0916.jpg	YN	Right	No	1.42093500000192	0	181475	235
355.482421875	1	health	trialStart	1	36	36	foodImage.32	FOODEEG_Images\0319.jpg	YN	Right	No	1.22583210000084	0	182008	251
356.53515625	2	health	foodImageDisplay	1	36	36	foodImage.32	FOODEEG_Images\0319.jpg	YN	Right	No	1.22583210000084	0	182547	252
358.599609375	1.22583210000084	health	choicePhaseStart	1	36	36	foodImage.32	FOODEEG_Images\0319.jpg	YN	Right	No	1.22583210000084	0	183604	253
359.81640625	0	health	response	1	36	36	foodImage.32	FOODEEG_Images\0319.jpg	YN	Right	No	1.22583210000084	0	184227	235
360.859375	1	taste	trialStart	1	37	37	foodImage.97	FOODEEG_Images\0905.jpg	YN	Left	Yes	0.895180899999104	0	184761	251
361.8984375	2	taste	foodImageDisplay	1	37	37	foodImage.97	FOODEEG_Images\0905.jpg	YN	Left	Yes	0.895180899999104	0	185293	252
363.962890625	0.895180899999104	taste	choicePhaseStart	1	37	37	foodImage.97	FOODEEG_Images\0905.jpg	YN	Left	Yes	0.895180899999104	0	186350	253
364.84765625	0	taste	response	1	37	37	foodImage.97	FOODEEG_Images\0905.jpg	YN	Left	Yes	0.895180899999104	0	186803	234
365.890625	1	health	trialStart	1	38	38	foodImage.40	FOODEEG_Images\0373.jpg	NY	Left	No	1.42631339999934	0	187337	251
366.939453125	2	health	foodImageDisplay	1	38	38	foodImage.40	FOODEEG_Images\0373.jpg	NY	Left	No	1.42631339999934	0	187874	252
369.01171875	1.42631339999934	health	choicePhaseStart	1	38	38	foodImage.40	FOODEEG_Images\0373.jpg	NY	Left	No	1.42631339999934	0	188935	253
370.431640625	0	health	response	1	38	38	foodImage.40	FOODEEG_Images\0373.jpg	NY	Left	No	1.42631339999934	0	189662	234
371.474609375	1	health	trialStart	1	39	39	foodImage.103	FOODEEG_Images\0911.jpg	NY	Left	No	1.30356790000224	0	190196	251
372.513671875	2	health	foodImageDisplay	1	39	39	foodImage.103	FOODEEG_Images\0911.jpg	NY	Left	No	1.30356790000224	0	190728	252
374.578125	1.30356790000224	health	choicePhaseStart	1	39	39	foodImage.103	FOODEEG_Images\0911.jpg	NY	Left	No	1.30356790000224	0	191785	253
375.87109375	0	health	response	1	39	39	foodImage.103	FOODEEG_Images\0911.jpg	NY	Left	No	1.30356790000224	0	192447	234
376.9140625	1	health	trialStart	1	40	40	foodImage.72	FOODEEG_Images\0714.jpg	NY	Left	No	1.21138109999811	0	192981	251
377.955078125	2	health	foodImageDisplay	1	40	40	foodImage.72	FOODEEG_Images\0714.jpg	NY	Left	No	1.21138109999811	0	193514	252
380.021484375	1.21138109999811	health	choicePhaseStart	1	40	40	foodImage.72	FOODEEG_Images\0714.jpg	NY	Left	No	1.21138109999811	0	194572	253
381.22265625	0	health	response	1	40	40	foodImage.72	FOODEEG_Images\0714.jpg	NY	Left	No	1.21138109999811	0	195187	234
382.263671875	1	decision	trialStart	1	41	41	foodImage.44	FOODEEG_Images\0459.jpg	YN	Right	No	1.28195639999831	0	195720	251
383.30859375	2	decision	foodImageDisplay	1	41	41	foodImage.44	FOODEEG_Images\0459.jpg	YN	Right	No	1.28195639999831	0	196255	252
385.373046875	1.28195639999831	decision	choicePhaseStart	1	41	41	foodImage.44	FOODEEG_Images\0459.jpg	YN	Right	No	1.28195639999831	0	197312	253
386.6484375	0	decision	response	1	41	41	foodImage.44	FOODEEG_Images\0459.jpg	YN	Right	No	1.28195639999831	0	197965	235
387.689453125	1	decision	trialStart	1	42	42	foodImage.115	FOODEEG_Images\0923.jpg	YN	Right	No	1.24774640000032	0	198498	251
388.728515625	2	decision	foodImageDisplay	1	42	42	foodImage.115	FOODEEG_Images\0923.jpg	YN	Right	No	1.24774640000032	0	199030	252
390.79296875	1.24774640000032	decision	choicePhaseStart	1	42	42	foodImage.115	FOODEEG_Images\0923.jpg	YN	Right	No	1.24774640000032	0	200087	253
392.03125	0	decision	response	1	42	42	foodImage.115	FOODEEG_Images\0923.jpg	YN	Right	No	1.24774640000032	0	200721	235
393.076171875	1	decision	trialStart	1	43	43	foodImage.45	FOODEEG_Images\0478.jpg	YN	Left	Yes	1.53334170000016	0	201256	251
394.123046875	2	decision	foodImageDisplay	1	43	43	foodImage.45	FOODEEG_Images\0478.jpg	YN	Left	Yes	1.53334170000016	0	201792	252
396.19140625	1.53334170000016	decision	choicePhaseStart	1	43	43	foodImage.45	FOODEEG_Images\0478.jpg	YN	Left	Yes	1.53334170000016	0	202851	253
397.71875	0	decision	response	1	43	43	foodImage.45	FOODEEG_Images\0478.jpg	YN	Left	Yes	1.53334170000016	0	203633	234
398.76171875	1	taste	trialStart	1	44	44	foodImage.79	FOODEEG_Images\0794.jpg	NY	Right	Yes	1.57153459999972	0	204167	251
399.8046875	2	taste	foodImageDisplay	1	44	44	foodImage.79	FOODEEG_Images\0794.jpg	NY	Right	Yes	1.57153459999972	0	204701	252
401.869140625	1.57153459999972	taste	choicePhaseStart	1	44	44	foodImage.79	FOODEEG_Images\0794.jpg	NY	Right	Yes	1.57153459999972	0	205758	253
403.4296875	0	taste	response	1	44	44	foodImage.79	FOODEEG_Images\0794.jpg	NY	Right	Yes	1.57153459999972	0	206557	235
404.47265625	1	health	trialStart	1	45	45	foodImage.45	FOODEEG_Images\0478.jpg	NY	Right	Yes	1.6709127000031	0	207091	251
405.517578125	2	health	foodImageDisplay	1	45	45	foodImage.45	FOODEEG_Images\0478.jpg	NY	Right	Yes	1.6709127000031	0	207626	252
407.583984375	1.6709127000031	health	choicePhaseStart	1	45	45	foodImage.45	FOODEEG_Images\0478.jpg	NY	Right	Yes	1.6709127000031	0	208684	253
409.24609375	0	health	response	1	45	45	foodImage.45	FOODEEG_Images\0478.jpg	NY	Right	Yes	1.6709127000031	0	209535	235
410.29296875	1	taste	trialStart	1	46	46	foodImage.28	FOODEEG_Images\0273.jpg	YN	Right	No	0.895526500000415	0	210071	251
411.3359375	2	taste	foodImageDisplay	1	46	46	foodImage.28	FOODEEG_Images\0273.jpg	YN	Right	No	0.895526500000415	0	210605	252
413.400390625	0.895526500000415	taste	choicePhaseStart	1	46	46	foodImage.28	FOODEEG_Images\0273.jpg	YN	Right	No	0.895526500000415	0	211662	253
414.287109375	0	taste	response	1	46	46	foodImage.28	FOODEEG_Images\0273.jpg	YN	Right	No	0.895526500000415	0	212116	235
415.328125	1	taste	trialStart	1	47	47	foodImage.108	FOODEEG_Images\0916.jpg	NY	Left	No	0.961300499999197	0	212649	251
416.3671875	2	taste	foodImageDisplay	1	47	47	foodImage.108	FOODEEG_Images\0916.jpg	NY	Left	No	0.961300499999197	0	213181	252
418.4296875	0.961300499999197	taste	choicePhaseStart	1	47	47	foodImage.108	FOODEEG_Images\0916.jpg	NY	Left	No	0.961300499999197	0	214237	253
419.3828125	0	taste	response	1	47	47	foodImage.108	FOODEEG_Images\0916.jpg	NY	Left	No	0.961300499999197	0	214725	234
420.423828125	1	decision	trialStart	1	48	48	foodImage.118	FOODEEG_Images\0926.jpg	YN	Right	No	0.943807100000413	0	215258	251
421.462890625	2	decision	foodImageDisplay	1	48	48	foodImage.118	FOODEEG_Images\0926.jpg	YN	Right	No	0.943807100000413	0	215790	252
423.52734375	0.943807100000413	decision	choicePhaseStart	1	48	48	foodImage.118	FOODEEG_Images\0926.jpg	YN	Right	No	0.943807100000413	0	216847	253
424.4609375	0	decision	response	1	48	48	foodImage.118	FOODEEG_Images\0926.jpg	YN	Right	No	0.943807100000413	0	217325	235
425.505859375	1	decision	trialStart	1	49	49	foodImage.62	FOODEEG_Images\0644.jpg	YN	Left	Yes	0.803461799998331	0	217860	251
426.564453125	2	decision	foodImageDisplay	1	49	49	foodImage.62	FOODEEG_Images\0644.jpg	YN	Left	Yes	0.803461799998331	0	218402	252
428.626953125	0.803461799998331	decision	choicePhaseStart	1	49	49	foodImage.62	FOODEEG_Images\0644.jpg	YN	Left	Yes	0.803461799998331	0	219458	253
429.421875	0	decision	response	1	49	49	foodImage.62	FOODEEG_Images\0644.jpg	YN	Left	Yes	0.803461799998331	0	219865	234
430.46484375	1	health	trialStart	1	50	50	foodImage.2	FOODEEG_Images\0028.jpg	YN	Right	No	1.0312864999978	0	220399	251
431.509765625	2	health	foodImageDisplay	1	50	50	foodImage.2	FOODEEG_Images\0028.jpg	YN	Right	No	1.0312864999978	0	220934	252
433.572265625	1.0312864999978	health	choicePhaseStart	1	50	50	foodImage.2	FOODEEG_Images\0028.jpg	YN	Right	No	1.0312864999978	0	221990	253
434.59765625	0	health	response	1	50	50	foodImage.2	FOODEEG_Images\0028.jpg	YN	Right	No	1.0312864999978	0	222515	235
435.638671875	1	health	trialStart	1	51	51	foodImage.92	FOODEEG_Images\0900.jpg	NY	Left	No	1.30443089999972	0	223048	251
436.677734375	2	health	foodImageDisplay	1	51	51	foodImage.92	FOODEEG_Images\0900.jpg	NY	Left	No	1.30443089999972	0	223580	252
438.7421875	1.30443089999972	health	choicePhaseStart	1	51	51	foodImage.92	FOODEEG_Images\0900.jpg	NY	Left	No	1.30443089999972	0	224637	253
440.037109375	0	health	response	1	51	51	foodImage.92	FOODEEG_Images\0900.jpg	NY	Left	No	1.30443089999972	0	225300	234
441.0859375	1	decision	trialStart	1	52	52	foodImage.101	FOODEEG_Images\0909.jpg	YN	Right	No	1.20759809999799	0	225837	251
442.125	2	decision	foodImageDisplay	1	52	52	foodImage.101	FOODEEG_Images\0909.jpg	YN	Right	No	1.20759809999799	0	226369	252
444.19140625	1.20759809999799	decision	choicePhaseStart	1	52	52	foodImage.101	FOODEEG_Images\0909.jpg	YN	Right	No	1.20759809999799	0	227427	253
445.388671875	0	decision	response	1	52	52	foodImage.101	FOODEEG_Images\0909.jpg	YN	Right	No	1.20759809999799	0	228040	235
446.427734375	1	decision	trialStart	1	53	53	foodImage.52	FOODEEG_Images\0539.jpg	YN	Left	Yes	0.959968800001661	0	228572	251
447.49609375	2	decision	foodImageDisplay	1	53	53	foodImage.52	FOODEEG_Images\0539.jpg	YN	Left	Yes	0.959968800001661	0	229119	252
449.55859375	0.959968800001661	decision	choicePhaseStart	1	53	53	foodImage.52	FOODEEG_Images\0539.jpg	YN	Left	Yes	0.959968800001661	0	230175	253
450.5078125	0	decision	response	1	53	53	foodImage.52	FOODEEG_Images\0539.jpg	YN	Left	Yes	0.959968800001661	0	230661	234
451.552734375	1	taste	trialStart	1	54	54	foodImage.66	FOODEEG_Images\0676.jpg	NY	Right	Yes	0.852070799999638	0	231196	251
452.59375	2	taste	foodImageDisplay	1	54	54	foodImage.66	FOODEEG_Images\0676.jpg	NY	Right	Yes	0.852070799999638	0	231729	252
454.658203125	0.852070799999638	taste	choicePhaseStart	1	54	54	foodImage.66	FOODEEG_Images\0676.jpg	NY	Right	Yes	0.852070799999638	0	232786	253
455.5	0	taste	response	1	54	54	foodImage.66	FOODEEG_Images\0676.jpg	NY	Right	Yes	0.852070799999638	0	233217	235
456.54296875	1	health	trialStart	1	55	55	foodImage.1	FOODEEG_Images\0004.jpg	NY	Left	No	1.03275710000162	0	233751	251
457.583984375	2	health	foodImageDisplay	1	55	55	foodImage.1	FOODEEG_Images\0004.jpg	NY	Left	No	1.03275710000162	0	234284	252
459.65234375	1.03275710000162	health	choicePhaseStart	1	55	55	foodImage.1	FOODEEG_Images\0004.jpg	NY	Left	No	1.03275710000162	0	235343	253
460.67578125	0	health	response	1	55	55	foodImage.1	FOODEEG_Images\0004.jpg	NY	Left	No	1.03275710000162	0	235867	234
461.720703125	1	decision	trialStart	1	56	56	foodImage.30	FOODEEG_Images\0282.jpg	NY	Right	Yes	0.758499700001266	0	236402	251
462.765625	2	decision	foodImageDisplay	1	56	56	foodImage.30	FOODEEG_Images\0282.jpg	NY	Right	Yes	0.758499700001266	0	236937	252
464.833984375	0.758499700001266	decision	choicePhaseStart	1	56	56	foodImage.30	FOODEEG_Images\0282.jpg	NY	Right	Yes	0.758499700001266	0	237996	253
465.587890625	0	decision	response	1	56	56	foodImage.30	FOODEEG_Images\0282.jpg	NY	Right	Yes	0.758499700001266	0	238382	235
466.630859375	1	health	trialStart	1	57	57	foodImage.115	FOODEEG_Images\0923.jpg	YN	Right	No	1.30295430000115	0	238916	251
467.669921875	2	health	foodImageDisplay	1	57	57	foodImage.115	FOODEEG_Images\0923.jpg	YN	Right	No	1.30295430000115	0	239448	252
469.734375	1.30295430000115	health	choicePhaseStart	1	57	57	foodImage.115	FOODEEG_Images\0923.jpg	YN	Right	No	1.30295430000115	0	240505	253
471.02734375	0	health	response	1	57	57	foodImage.115	FOODEEG_Images\0923.jpg	YN	Right	No	1.30295430000115	0	241167	235
472.0703125	1	taste	trialStart	1	58	58	foodImage.85	FOODEEG_Images\0841.jpg	NY	Right	Yes	0.915660199996637	0	241701	251
473.12890625	2	taste	foodImageDisplay	1	58	58	foodImage.85	FOODEEG_Images\0841.jpg	NY	Right	Yes	0.915660199996637	0	242243	252
475.193359375	0.915660199996637	taste	choicePhaseStart	1	58	58	foodImage.85	FOODEEG_Images\0841.jpg	NY	Right	Yes	0.915660199996637	0	243300	253
476.099609375	0	taste	response	1	58	58	foodImage.85	FOODEEG_Images\0841.jpg	NY	Right	Yes	0.915660199996637	0	243764	235
477.142578125	1	health	trialStart	1	59	59	foodImage.24	FOODEEG_Images\0250.jpg	YN	Left	Yes	1.01041759999862	0	244298	251
478.185546875	2	health	foodImageDisplay	1	59	59	foodImage.24	FOODEEG_Images\0250.jpg	YN	Left	Yes	1.01041759999862	0	244832	252
480.25	1.01041759999862	health	choicePhaseStart	1	59	59	foodImage.24	FOODEEG_Images\0250.jpg	YN	Left	Yes	1.01041759999862	0	245889	253
481.251953125	0	health	response	1	59	59	foodImage.24	FOODEEG_Images\0250.jpg	YN	Left	Yes	1.01041759999862	0	246402	234
482.29296875	1	taste	trialStart	1	60	60	foodImage.91	FOODEEG_Images\0896.jpg	YN	Left	Yes	0.817404099998384	0	246935	251
483.3515625	2	taste	foodImageDisplay	1	60	60	foodImage.91	FOODEEG_Images\0896.jpg	YN	Left	Yes	0.817404099998384	0	247477	252
485.416015625	0.817404099998384	taste	choicePhaseStart	1	60	60	foodImage.91	FOODEEG_Images\0896.jpg	YN	Left	Yes	0.817404099998384	0	248534	253
486.2265625	0	taste	response	1	60	60	foodImage.91	FOODEEG_Images\0896.jpg	YN	Left	Yes	0.817404099998384	0	248949	234
488.26953125	20.75	n/a	blockEnd	n/a	n/a	n/a	n/a	n/a	n/a	n/a	n/a	n/a	n/a	249995	254
509.01953125	2	n/a	blockStart	2	n/a	n/a	n/a	n/a	n/a	n/a	n/a	n/a	n/a	260619	250
511.0546875	1	taste	trialStart	2	61	1	foodImage.103	FOODEEG_Images\0911.jpg	NY	Left	No	1.02315769999768	0	261661	251
512.09375	2	taste	foodImageDisplay	2	61	1	foodImage.103	FOODEEG_Images\0911.jpg	NY	Left	No	1.02315769999768	0	262193	252
514.158203125	1.02315769999768	taste	choicePhaseStart	2	61	1	foodImage.103	FOODEEG_Images\0911.jpg	NY	Left	No	1.02315769999768	0	263250	253
515.177734375	0	taste	response	2	61	1	foodImage.103	FOODEEG_Images\0911.jpg	NY	Left	No	1.02315769999768	0	263772	234
516.220703125	1	health	trialStart	2	62	2	foodImage.88	FOODEEG_Images\0878.jpg	YN	Right	No	1.11737530000028	0	264306	251
517.27734375	2	health	foodImageDisplay	2	62	2	foodImage.88	FOODEEG_Images\0878.jpg	YN	Right	No	1.11737530000028	0	264847	252
519.341796875	1.11737530000028	health	choicePhaseStart	2	62	2	foodImage.88	FOODEEG_Images\0878.jpg	YN	Right	No	1.11737530000028	0	265904	253
520.44921875	0	health	response	2	62	2	foodImage.88	FOODEEG_Images\0878.jpg	YN	Right	No	1.11737530000028	0	266471	235
521.4921875	1	taste	trialStart	2	63	3	foodImage.34	FOODEEG_Images\0339.jpg	YN	Left	Yes	0.949327500002255	0	267005	251
522.55078125	2	taste	foodImageDisplay	2	63	3	foodImage.34	FOODEEG_Images\0339.jpg	YN	Left	Yes	0.949327500002255	0	267547	252
524.61328125	0.949327500002255	taste	choicePhaseStart	2	63	3	foodImage.34	FOODEEG_Images\0339.jpg	YN	Left	Yes	0.949327500002255	0	268603	253
525.552734375	0	taste	response	2	63	3	foodImage.34	FOODEEG_Images\0339.jpg	YN	Left	Yes	0.949327500002255	0	269084	234
526.595703125	1	health	trialStart	2	64	4	foodImage.119	FOODEEG_Images\0927.jpg	YN	Right	No	1.04561599999943	0	269618	251
527.634765625	2	health	foodImageDisplay	2	64	4	foodImage.119	FOODEEG_Images\0927.jpg	YN	Right	No	1.04561599999943	0	270150	252
529.69921875	1.04561599999943	health	choicePhaseStart	2	64	4	foodImage.119	FOODEEG_Images\0927.jpg	YN	Right	No	1.04561599999943	0	271207	253
530.73828125	0	health	response	2	64	4	foodImage.119	FOODEEG_Images\0927.jpg	YN	Right	No	1.04561599999943	0	271739	235
531.779296875	1	decision	trialStart	2	65	5	foodImage.73	FOODEEG_Images\0717.jpg	YN	Right	No	0.94139069999801	0	272272	251
532.837890625	2	decision	foodImageDisplay	2	65	5	foodImage.73	FOODEEG_Images\0717.jpg	YN	Right	No	0.94139069999801	0	272814	252
534.900390625	0.94139069999801	decision	choicePhaseStart	2	65	5	foodImage.73	FOODEEG_Images\0717.jpg	YN	Right	No	0.94139069999801	0	273870	253
535.833984375	0	decision	response	2	65	5	foodImage.73	FOODEEG_Images\0717.jpg	YN	Right	No	0.94139069999801	0	274348	235
536.876953125	1	decision	trialStart	2	66	6	foodImage.93	FOODEEG_Images\0901.jpg	YN	Right	No	0.80568889999995	0	274882	251
537.916015625	2	decision	foodImageDisplay	2	66	6	foodImage.93	FOODEEG_Images\0901.jpg	YN	Right	No	0.80568889999995	0	275414	252
539.98046875	0.80568889999995	decision	choicePhaseStart	2	66	6	foodImage.93	FOODEEG_Images\0901.jpg	YN	Right	No	0.80568889999995	0	276471	253
540.77734375	0	decision	response	2	66	6	foodImage.93	FOODEEG_Images\0901.jpg	YN	Right	No	0.80568889999995	0	276879	235
541.8203125	1	decision	trialStart	2	67	7	foodImage.57	FOODEEG_Images\0587.jpg	NY	Right	Yes	0.973165600000357	0	277413	251
542.884765625	2	decision	foodImageDisplay	2	67	7	foodImage.57	FOODEEG_Images\0587.jpg	NY	Right	Yes	0.973165600000357	0	277958	252
544.953125	0.973165600000357	decision	choicePhaseStart	2	67	7	foodImage.57	FOODEEG_Images\0587.jpg	NY	Right	Yes	0.973165600000357	0	279017	253
545.921875	0	decision	response	2	67	7	foodImage.57	FOODEEG_Images\0587.jpg	NY	Right	Yes	0.973165600000357	0	279513	235
546.970703125	1	taste	trialStart	2	68	8	foodImage.70	FOODEEG_Images\0705.jpg	YN	Left	Yes	1.01091029999952	0	280050	251
548.052734375	2	taste	foodImageDisplay	2	68	8	foodImage.70	FOODEEG_Images\0705.jpg	YN	Left	Yes	1.01091029999952	0	280604	252
550.1171875	1.01091029999952	taste	choicePhaseStart	2	68	8	foodImage.70	FOODEEG_Images\0705.jpg	YN	Left	Yes	1.01091029999952	0	281661	253
551.12109375	0	taste	response	2	68	8	foodImage.70	FOODEEG_Images\0705.jpg	YN	Left	Yes	1.01091029999952	0	282175	234
552.1640625	1	taste	trialStart	2	69	9	foodImage.90	FOODEEG_Images\0890.jpg	YN	Right	No	1.26018190000104	0	282709	251
553.21875	2	taste	foodImageDisplay	2	69	9	foodImage.90	FOODEEG_Images\0890.jpg	YN	Right	No	1.26018190000104	0	283249	252
555.283203125	1.26018190000104	taste	choicePhaseStart	2	69	9	foodImage.90	FOODEEG_Images\0890.jpg	YN	Right	No	1.26018190000104	0	284306	253
556.537109375	0	taste	response	2	69	9	foodImage.90	FOODEEG_Images\0890.jpg	YN	Right	No	1.26018190000104	0	284948	235
557.578125	1	health	trialStart	2	70	10	foodImage.91	FOODEEG_Images\0896.jpg	NY	Right	Yes	1.07778079999844	0	285481	251
558.634765625	2	health	foodImageDisplay	2	70	10	foodImage.91	FOODEEG_Images\0896.jpg	NY	Right	Yes	1.07778079999844	0	286022	252
560.69921875	1.07778079999844	health	choicePhaseStart	2	70	10	foodImage.91	FOODEEG_Images\0896.jpg	NY	Right	Yes	1.07778079999844	0	287079	253
561.767578125	0	health	response	2	70	10	foodImage.91	FOODEEG_Images\0896.jpg	NY	Right	Yes	1.07778079999844	0	287626	235
562.810546875	1	taste	trialStart	2	71	11	foodImage.36	FOODEEG_Images\0352.jpg	NY	Right	Yes	1.07682249999925	0	288160	251
563.869140625	2	taste	foodImageDisplay	2	71	11	foodImage.36	FOODEEG_Images\0352.jpg	NY	Right	Yes	1.07682249999925	0	288702	252
565.93359375	1.07682249999925	taste	choicePhaseStart	2	71	11	foodImage.36	FOODEEG_Images\0352.jpg	NY	Right	Yes	1.07682249999925	0	289759	253
567	0	taste	response	2	71	11	foodImage.36	FOODEEG_Images\0352.jpg	NY	Right	Yes	1.07682249999925	0	290305	235
568.04296875	1	health	trialStart	2	72	12	foodImage.56	FOODEEG_Images\0586.jpg	NY	Left	No	2.16075029999774	0	290839	251
569.087890625	2	health	foodImageDisplay	2	72	12	foodImage.56	FOODEEG_Images\0586.jpg	NY	Left	No	2.16075029999774	0	291374	252
571.15234375	2.16075029999774	health	choicePhaseStart	2	72	12	foodImage.56	FOODEEG_Images\0586.jpg	NY	Left	No	2.16075029999774	0	292431	253
573.302734375	0	health	response	2	72	12	foodImage.56	FOODEEG_Images\0586.jpg	NY	Left	No	2.16075029999774	0	293532	234
574.34765625	1	decision	trialStart	2	73	13	foodImage.43	FOODEEG_Images\0445.jpg	NY	Left	No	3.5943057000004	0	294067	251
575.40625	2	decision	foodImageDisplay	2	73	13	foodImage.43	FOODEEG_Images\0445.jpg	NY	Left	No	3.5943057000004	0	294609	252
577.470703125	3.5943057000004	decision	choicePhaseStart	2	73	13	foodImage.43	FOODEEG_Images\0445.jpg	NY	Left	No	3.5943057000004	0	295666	253
581.0546875	0	decision	response	2	73	13	foodImage.43	FOODEEG_Images\0445.jpg	NY	Left	No	3.5943057000004	0	297501	234
582.12109375	1	taste	trialStart	2	74	14	foodImage.52	FOODEEG_Images\0539.jpg	NY	Right	Yes	1.26487400000042	0	298047	251
583.177734375	2	taste	foodImageDisplay	2	74	14	foodImage.52	FOODEEG_Images\0539.jpg	NY	Right	Yes	1.26487400000042	0	298588	252
585.240234375	1.26487400000042	taste	choicePhaseStart	2	74	14	foodImage.52	FOODEEG_Images\0539.jpg	NY	Right	Yes	1.26487400000042	0	299644	253
586.49609375	0	taste	response	2	74	14	foodImage.52	FOODEEG_Images\0539.jpg	NY	Right	Yes	1.26487400000042	0	300287	235
587.548828125	1	health	trialStart	2	75	15	foodImage.70	FOODEEG_Images\0705.jpg	NY	Left	No	1.6887327000004	0	300826	251
588.609375	2	health	foodImageDisplay	2	75	15	foodImage.70	FOODEEG_Images\0705.jpg	NY	Left	No	1.6887327000004	0	301369	252
590.671875	1.6887327000004	health	choicePhaseStart	2	75	15	foodImage.70	FOODEEG_Images\0705.jpg	NY	Left	No	1.6887327000004	0	302425	253
592.3515625	0	health	response	2	75	15	foodImage.70	FOODEEG_Images\0705.jpg	NY	Left	No	1.6887327000004	0	303285	234
593.39453125	1	decision	trialStart	2	76	16	foodImage.40	FOODEEG_Images\0373.jpg	YN	Left	Yes	0.948048400001426	0	303819	251
594.435546875	2	decision	foodImageDisplay	2	76	16	foodImage.40	FOODEEG_Images\0373.jpg	YN	Left	Yes	0.948048400001426	0	304352	252
596.5	0.948048400001426	decision	choicePhaseStart	2	76	16	foodImage.40	FOODEEG_Images\0373.jpg	YN	Left	Yes	0.948048400001426	0	305409	253
597.439453125	0	decision	response	2	76	16	foodImage.40	FOODEEG_Images\0373.jpg	YN	Left	Yes	0.948048400001426	0	305890	234
598.482421875	1	taste	trialStart	2	77	17	foodImage.8	FOODEEG_Images\0136.jpg	YN	Right	No	1.8094394999971	0	306424	251
599.525390625	2	taste	foodImageDisplay	2	77	17	foodImage.8	FOODEEG_Images\0136.jpg	YN	Right	No	1.8094394999971	0	306958	252
601.591796875	1.8094394999971	taste	choicePhaseStart	2	77	17	foodImage.8	FOODEEG_Images\0136.jpg	YN	Right	No	1.8094394999971	0	308016	253
603.390625	0	taste	response	2	77	17	foodImage.8	FOODEEG_Images\0136.jpg	YN	Right	No	1.8094394999971	0	308937	235
604.43359375	1	health	trialStart	2	78	18	foodImage.20	FOODEEG_Images\0226.jpg	YN	Left	Yes	1.65196020000076	0	309471	251
605.4765625	2	health	foodImageDisplay	2	78	18	foodImage.20	FOODEEG_Images\0226.jpg	YN	Left	Yes	1.65196020000076	0	310005	252
607.5390625	1.65196020000076	health	choicePhaseStart	2	78	18	foodImage.20	FOODEEG_Images\0226.jpg	YN	Left	Yes	1.65196020000076	0	311061	253
609.181640625	0	health	response	2	78	18	foodImage.20	FOODEEG_Images\0226.jpg	YN	Left	Yes	1.65196020000076	0	311902	234
610.23046875	1	decision	trialStart	2	79	19	foodImage.7	FOODEEG_Images\0116.jpg	NY	Right	Yes	1.09540399999969	0	312439	251
611.287109375	2	decision	foodImageDisplay	2	79	19	foodImage.7	FOODEEG_Images\0116.jpg	NY	Right	Yes	1.09540399999969	0	312980	252
613.3515625	1.09540399999969	decision	choicePhaseStart	2	79	19	foodImage.7	FOODEEG_Images\0116.jpg	NY	Right	Yes	1.09540399999969	0	314037	253
614.4375	0	decision	response	2	79	19	foodImage.7	FOODEEG_Images\0116.jpg	NY	Right	Yes	1.09540399999969	0	314593	235
615.48828125	1	health	trialStart	2	80	20	foodImage.97	FOODEEG_Images\0905.jpg	YN	Right	No	2.07206529999894	0	315131	251
616.52734375	2	health	foodImageDisplay	2	80	20	foodImage.97	FOODEEG_Images\0905.jpg	YN	Right	No	2.07206529999894	0	315663	252
618.591796875	2.07206529999894	health	choicePhaseStart	2	80	20	foodImage.97	FOODEEG_Images\0905.jpg	YN	Right	No	2.07206529999894	0	316720	253
620.654296875	0	health	response	2	80	20	foodImage.97	FOODEEG_Images\0905.jpg	YN	Right	No	2.07206529999894	0	317776	235
621.6953125	1	health	trialStart	2	81	21	foodImage.116	FOODEEG_Images\0924.jpg	NY	Left	No	1.77850009999747	0	318309	251
622.736328125	2	health	foodImageDisplay	2	81	21	foodImage.116	FOODEEG_Images\0924.jpg	NY	Left	No	1.77850009999747	0	318842	252
624.8046875	1.77850009999747	health	choicePhaseStart	2	81	21	foodImage.116	FOODEEG_Images\0924.jpg	NY	Left	No	1.77850009999747	0	319901	253
626.57421875	0	health	response	2	81	21	foodImage.116	FOODEEG_Images\0924.jpg	NY	Left	No	1.77850009999747	0	320807	234
627.6171875	1	decision	trialStart	2	82	22	foodImage.5	FOODEEG_Images\0107.jpg	NY	Right	Yes	1.0109188000024	0	321341	251
628.67578125	2	decision	foodImageDisplay	2	82	22	foodImage.5	FOODEEG_Images\0107.jpg	NY	Right	Yes	1.0109188000024	0	321883	252
630.740234375	1.0109188000024	decision	choicePhaseStart	2	82	22	foodImage.5	FOODEEG_Images\0107.jpg	NY	Right	Yes	1.0109188000024	0	322940	253
631.7421875	0	decision	response	2	82	22	foodImage.5	FOODEEG_Images\0107.jpg	NY	Right	Yes	1.0109188000024	0	323453	235
632.78515625	1	taste	trialStart	2	83	23	foodImage.117	FOODEEG_Images\0925.jpg	NY	Right	Yes	1.21328889999859	0	323987	251
633.82421875	2	taste	foodImageDisplay	2	83	23	foodImage.117	FOODEEG_Images\0925.jpg	NY	Right	Yes	1.21328889999859	0	324519	252
635.888671875	1.21328889999859	taste	choicePhaseStart	2	83	23	foodImage.117	FOODEEG_Images\0925.jpg	NY	Right	Yes	1.21328889999859	0	325576	253
637.09375	0	taste	response	2	83	23	foodImage.117	FOODEEG_Images\0925.jpg	NY	Right	Yes	1.21328889999859	0	326193	235
638.134765625	1	decision	trialStart	2	84	24	foodImage.71	FOODEEG_Images\0713.jpg	YN	Right	No	1.01806679999936	0	326726	251
639.1796875	2	decision	foodImageDisplay	2	84	24	foodImage.71	FOODEEG_Images\0713.jpg	YN	Right	No	1.01806679999936	0	327261	252
641.244140625	1.01806679999936	decision	choicePhaseStart	2	84	24	foodImage.71	FOODEEG_Images\0713.jpg	YN	Right	No	1.01806679999936	0	328318	253
642.25390625	0	decision	response	2	84	24	foodImage.71	FOODEEG_Images\0713.jpg	YN	Right	No	1.01806679999936	0	328835	235
643.298828125	1	decision	trialStart	2	85	25	foodImage.92	FOODEEG_Images\0900.jpg	YN	Right	No	1.41885239999829	0	329370	251
644.337890625	2	decision	foodImageDisplay	2	85	25	foodImage.92	FOODEEG_Images\0900.jpg	YN	Right	No	1.41885239999829	0	329902	252
646.404296875	1.41885239999829	decision	choicePhaseStart	2	85	25	foodImage.92	FOODEEG_Images\0900.jpg	YN	Right	No	1.41885239999829	0	330960	253
647.8125	0	decision	response	2	85	25	foodImage.92	FOODEEG_Images\0900.jpg	YN	Right	No	1.41885239999829	0	331681	235
648.85546875	1	health	trialStart	2	86	26	foodImage.120	FOODEEG_Images\0928.jpg	NY	Left	No	1.3224768	0	332215	251
649.892578125	2	health	foodImageDisplay	2	86	26	foodImage.120	FOODEEG_Images\0928.jpg	NY	Left	No	1.3224768	0	332746	252
651.958984375	1.3224768	health	choicePhaseStart	2	86	26	foodImage.120	FOODEEG_Images\0928.jpg	NY	Left	No	1.3224768	0	333804	253
653.27734375	0	health	response	2	86	26	foodImage.120	FOODEEG_Images\0928.jpg	NY	Left	No	1.3224768	0	334479	234
654.3203125	1	taste	trialStart	2	87	27	foodImage.98	FOODEEG_Images\0906.jpg	YN	Left	Yes	0.984429999996792	0	335013	251
655.357421875	2	taste	foodImageDisplay	2	87	27	foodImage.98	FOODEEG_Images\0906.jpg	YN	Left	Yes	0.984429999996792	0	335544	252
657.421875	0.984429999996792	taste	choicePhaseStart	2	87	27	foodImage.98	FOODEEG_Images\0906.jpg	YN	Left	Yes	0.984429999996792	0	336601	253
658.396484375	0	taste	response	2	87	27	foodImage.98	FOODEEG_Images\0906.jpg	YN	Left	Yes	0.984429999996792	0	337100	234
659.439453125	1	health	trialStart	2	88	28	foodImage.106	FOODEEG_Images\0914.jpg	NY	Left	No	1.97706029999972	0	337634	251
660.478515625	2	health	foodImageDisplay	2	88	28	foodImage.106	FOODEEG_Images\0914.jpg	NY	Left	No	1.97706029999972	0	338166	252
662.541015625	1.97706029999972	health	choicePhaseStart	2	88	28	foodImage.106	FOODEEG_Images\0914.jpg	NY	Left	No	1.97706029999972	0	339222	253
664.5078125	0	health	response	2	88	28	foodImage.106	FOODEEG_Images\0914.jpg	NY	Left	No	1.97706029999972	0	340229	234
665.55078125	1	health	trialStart	2	89	29	foodImage.16	FOODEEG_Images\0196.jpg	YN	Left	Yes	2.1708538999992	0	340763	251
666.609375	2	health	foodImageDisplay	2	89	29	foodImage.16	FOODEEG_Images\0196.jpg	YN	Left	Yes	2.1708538999992	0	341305	252
668.673828125	2.1708538999992	health	choicePhaseStart	2	89	29	foodImage.16	FOODEEG_Images\0196.jpg	YN	Left	Yes	2.1708538999992	0	342362	253
670.8359375	0	health	response	2	89	29	foodImage.16	FOODEEG_Images\0196.jpg	YN	Left	Yes	2.1708538999992	0	343469	234
671.8828125	1	decision	trialStart	2	90	30	foodImage.11	FOODEEG_Images\0180.jpg	YN	Right	No	1.15887250000014	0	344005	251
672.927734375	2	decision	foodImageDisplay	2	90	30	foodImage.11	FOODEEG_Images\0180.jpg	YN	Right	No	1.15887250000014	0	344540	252
674.99609375	1.15887250000014	decision	choicePhaseStart	2	90	30	foodImage.11	FOODEEG_Images\0180.jpg	YN	Right	No	1.15887250000014	0	345599	253
676.1484375	0	decision	response	2	90	30	foodImage.11	FOODEEG_Images\0180.jpg	YN	Right	No	1.15887250000014	0	346189	235
677.19140625	1	taste	trialStart	2	91	31	foodImage.57	FOODEEG_Images\0587.jpg	YN	Left	Yes	3.94759479999993	0	346723	251
678.234375	2	taste	foodImageDisplay	2	91	31	foodImage.57	FOODEEG_Images\0587.jpg	YN	Left	Yes	3.94759479999993	0	347257	252
680.296875	3.94759479999993	taste	choicePhaseStart	2	91	31	foodImage.57	FOODEEG_Images\0587.jpg	YN	Left	Yes	3.94759479999993	0	348313	253
684.236328125	0	taste	response	2	91	31	foodImage.57	FOODEEG_Images\0587.jpg	YN	Left	Yes	3.94759479999993	0	350330	234
685.27734375	1	decision	trialStart	2	92	32	foodImage.26	FOODEEG_Images\0262.jpg	YN	Right	No	0.91256820000126	0	350863	251
686.3203125	2	decision	foodImageDisplay	2	92	32	foodImage.26	FOODEEG_Images\0262.jpg	YN	Right	No	0.91256820000126	0	351397	252
688.38671875	0.91256820000126	decision	choicePhaseStart	2	92	32	foodImage.26	FOODEEG_Images\0262.jpg	YN	Right	No	0.91256820000126	0	352455	253
689.291015625	0	decision	response	2	92	32	foodImage.26	FOODEEG_Images\0262.jpg	YN	Right	No	0.91256820000126	0	352918	235
690.33984375	1	decision	trialStart	2	93	33	foodImage.66	FOODEEG_Images\0676.jpg	NY	Left	No	0.919673100001091	0	353455	251
691.380859375	2	decision	foodImageDisplay	2	93	33	foodImage.66	FOODEEG_Images\0676.jpg	NY	Left	No	0.919673100001091	0	353988	252
693.4453125	0.919673100001091	decision	choicePhaseStart	2	93	33	foodImage.66	FOODEEG_Images\0676.jpg	NY	Left	No	0.919673100001091	0	355045	253
694.35546875	0	decision	response	2	93	33	foodImage.66	FOODEEG_Images\0676.jpg	NY	Left	No	0.919673100001091	0	355511	234
695.396484375	1	decision	trialStart	2	94	34	foodImage.97	FOODEEG_Images\0905.jpg	NY	Right	Yes	0.918342199998733	0	356044	251
696.4375	2	decision	foodImageDisplay	2	94	34	foodImage.97	FOODEEG_Images\0905.jpg	NY	Right	Yes	0.918342199998733	0	356577	252
698.5078125	0.918342199998733	decision	choicePhaseStart	2	94	34	foodImage.97	FOODEEG_Images\0905.jpg	NY	Right	Yes	0.918342199998733	0	357637	253
699.41796875	0	decision	response	2	94	34	foodImage.97	FOODEEG_Images\0905.jpg	NY	Right	Yes	0.918342199998733	0	358103	235
700.4609375	1	decision	trialStart	2	95	35	foodImage.103	FOODEEG_Images\0911.jpg	NY	Left	No	1.02901360000033	0	358637	251
701.5	2	decision	foodImageDisplay	2	95	35	foodImage.103	FOODEEG_Images\0911.jpg	NY	Left	No	1.02901360000033	0	359169	252
703.56640625	1.02901360000033	decision	choicePhaseStart	2	95	35	foodImage.103	FOODEEG_Images\0911.jpg	NY	Left	No	1.02901360000033	0	360227	253
704.5859375	0	decision	response	2	95	35	foodImage.103	FOODEEG_Images\0911.jpg	NY	Left	No	1.02901360000033	0	360749	234
705.62890625	1	decision	trialStart	2	96	36	foodImage.54	FOODEEG_Images\0560.jpg	YN	Left	Yes	0.988757899998745	0	361283	251
706.6875	2	decision	foodImageDisplay	2	96	36	foodImage.54	FOODEEG_Images\0560.jpg	YN	Left	Yes	0.988757899998745	0	361825	252
708.75	0.988757899998745	decision	choicePhaseStart	2	96	36	foodImage.54	FOODEEG_Images\0560.jpg	YN	Left	Yes	0.988757899998745	0	362881	253
709.73046875	0	decision	response	2	96	36	foodImage.54	FOODEEG_Images\0560.jpg	YN	Left	Yes	0.988757899998745	0	363383	234
710.775390625	1	taste	trialStart	2	97	37	foodImage.22	FOODEEG_Images\0236.jpg	YN	Left	Yes	1.48346180000226	0	363918	251
711.81640625	2	taste	foodImageDisplay	2	97	37	foodImage.22	FOODEEG_Images\0236.jpg	YN	Left	Yes	1.48346180000226	0	364451	252
713.87890625	1.48346180000226	taste	choicePhaseStart	2	97	37	foodImage.22	FOODEEG_Images\0236.jpg	YN	Left	Yes	1.48346180000226	0	365507	253
715.353515625	0	taste	response	2	97	37	foodImage.22	FOODEEG_Images\0236.jpg	YN	Left	Yes	1.48346180000226	0	366262	234
716.3984375	1	decision	trialStart	2	98	38	foodImage.87	FOODEEG_Images\0873.jpg	YN	Right	No	1.00053209999896	0	366797	251
717.45703125	2	decision	foodImageDisplay	2	98	38	foodImage.87	FOODEEG_Images\0873.jpg	YN	Right	No	1.00053209999896	0	367339	252
719.51953125	1.00053209999896	decision	choicePhaseStart	2	98	38	foodImage.87	FOODEEG_Images\0873.jpg	YN	Right	No	1.00053209999896	0	368395	253
720.513671875	0	decision	response	2	98	38	foodImage.87	FOODEEG_Images\0873.jpg	YN	Right	No	1.00053209999896	0	368904	235
721.556640625	1	health	trialStart	2	99	39	foodImage.84	FOODEEG_Images\0830.jpg	NY	Right	Yes	0.854626699998335	0	369438	251
722.61328125	2	health	foodImageDisplay	2	99	39	foodImage.84	FOODEEG_Images\0830.jpg	NY	Right	Yes	0.854626699998335	0	369979	252
724.67578125	0.854626699998335	health	choicePhaseStart	2	99	39	foodImage.84	FOODEEG_Images\0830.jpg	NY	Right	Yes	0.854626699998335	0	371035	253
725.521484375	0	health	response	2	99	39	foodImage.84	FOODEEG_Images\0830.jpg	NY	Right	Yes	0.854626699998335	0	371468	235
726.56640625	1	decision	trialStart	2	100	40	foodImage.20	FOODEEG_Images\0226.jpg	YN	Right	No	1.26557750000211	0	372003	251
727.609375	2	decision	foodImageDisplay	2	100	40	foodImage.20	FOODEEG_Images\0226.jpg	YN	Right	No	1.26557750000211	0	372537	252
729.673828125	1.26557750000211	decision	choicePhaseStart	2	100	40	foodImage.20	FOODEEG_Images\0226.jpg	YN	Right	No	1.26557750000211	0	373594	253
730.9296875	0	decision	response	2	100	40	foodImage.20	FOODEEG_Images\0226.jpg	YN	Right	No	1.26557750000211	0	374237	235
731.97265625	1	taste	trialStart	2	101	41	foodImage.77	FOODEEG_Images\0771.jpg	YN	Left	Yes	0.850322300000698	0	374771	251
733.017578125	2	taste	foodImageDisplay	2	101	41	foodImage.77	FOODEEG_Images\0771.jpg	YN	Left	Yes	0.850322300000698	0	375306	252
735.080078125	0.850322300000698	taste	choicePhaseStart	2	101	41	foodImage.77	FOODEEG_Images\0771.jpg	YN	Left	Yes	0.850322300000698	0	376362	253
735.921875	0	taste	response	2	101	41	foodImage.77	FOODEEG_Images\0771.jpg	YN	Left	Yes	0.850322300000698	0	376793	234
736.96484375	1	taste	trialStart	2	102	42	foodImage.37	FOODEEG_Images\0359.jpg	YN	Left	Yes	0.788764900000388	0	377327	251
738.005859375	2	taste	foodImageDisplay	2	102	42	foodImage.37	FOODEEG_Images\0359.jpg	YN	Left	Yes	0.788764900000388	0	377860	252
740.068359375	0.788764900000388	taste	choicePhaseStart	2	102	42	foodImage.37	FOODEEG_Images\0359.jpg	YN	Left	Yes	0.788764900000388	0	378916	253
740.849609375	0	taste	response	2	102	42	foodImage.37	FOODEEG_Images\0359.jpg	YN	Left	Yes	0.788764900000388	0	379316	234
741.896484375	1	decision	trialStart	2	103	43	foodImage.72	FOODEEG_Images\0714.jpg	NY	Left	No	1.06379539999762	0	379852	251
742.939453125	2	decision	foodImageDisplay	2	103	43	foodImage.72	FOODEEG_Images\0714.jpg	NY	Left	No	1.06379539999762	0	380386	252
745.0078125	1.06379539999762	decision	choicePhaseStart	2	103	43	foodImage.72	FOODEEG_Images\0714.jpg	NY	Left	No	1.06379539999762	0	381445	253
746.064453125	0	decision	response	2	103	43	foodImage.72	FOODEEG_Images\0714.jpg	NY	Left	No	1.06379539999762	0	381986	234
747.107421875	1	taste	trialStart	2	104	44	foodImage.65	FOODEEG_Images\0658.jpg	YN	Left	Yes	1.32378959999915	0	382520	251
748.150390625	2	taste	foodImageDisplay	2	104	44	foodImage.65	FOODEEG_Images\0658.jpg	YN	Left	Yes	1.32378959999915	0	383054	252
750.212890625	1.32378959999915	taste	choicePhaseStart	2	104	44	foodImage.65	FOODEEG_Images\0658.jpg	YN	Left	Yes	1.32378959999915	0	384110	253
751.529296875	0	taste	response	2	104	44	foodImage.65	FOODEEG_Images\0658.jpg	YN	Left	Yes	1.32378959999915	0	384784	234
752.572265625	1	decision	trialStart	2	105	45	foodImage.4	FOODEEG_Images\0065.jpg	NY	Right	Yes	0.925216499999806	0	385318	251
753.630859375	2	decision	foodImageDisplay	2	105	45	foodImage.4	FOODEEG_Images\0065.jpg	NY	Right	Yes	0.925216499999806	0	385860	252
755.693359375	0.925216499999806	decision	choicePhaseStart	2	105	45	foodImage.4	FOODEEG_Images\0065.jpg	NY	Right	Yes	0.925216499999806	0	386916	253
756.609375	0	decision	response	2	105	45	foodImage.4	FOODEEG_Images\0065.jpg	NY	Right	Yes	0.925216499999806	0	387385	235
757.65234375	1	taste	trialStart	2	106	46	foodImage.29	FOODEEG_Images\0278.jpg	NY	Left	No	1.12542440000107	0	387919	251
758.693359375	2	taste	foodImageDisplay	2	106	46	foodImage.29	FOODEEG_Images\0278.jpg	NY	Left	No	1.12542440000107	0	388452	252
760.755859375	1.12542440000107	taste	choicePhaseStart	2	106	46	foodImage.29	FOODEEG_Images\0278.jpg	NY	Left	No	1.12542440000107	0	389508	253
761.873046875	0	taste	response	2	106	46	foodImage.29	FOODEEG_Images\0278.jpg	NY	Left	No	1.12542440000107	0	390080	234
762.921875	1	decision	trialStart	2	107	47	foodImage.49	FOODEEG_Images\0515.jpg	NY	Right	Yes	0.80724100000225	0	390617	251
763.970703125	2	decision	foodImageDisplay	2	107	47	foodImage.49	FOODEEG_Images\0515.jpg	NY	Right	Yes	0.80724100000225	0	391154	252
766.03515625	0.80724100000225	decision	choicePhaseStart	2	107	47	foodImage.49	FOODEEG_Images\0515.jpg	NY	Right	Yes	0.80724100000225	0	392211	253
766.83203125	0	decision	response	2	107	47	foodImage.49	FOODEEG_Images\0515.jpg	NY	Right	Yes	0.80724100000225	0	392619	235
767.873046875	1	decision	trialStart	2	108	48	foodImage.70	FOODEEG_Images\0705.jpg	NY	Right	Yes	0.902013999999326	0	393152	251
768.9296875	2	decision	foodImageDisplay	2	108	48	foodImage.70	FOODEEG_Images\0705.jpg	NY	Right	Yes	0.902013999999326	0	393693	252
770.994140625	0.902013999999326	decision	choicePhaseStart	2	108	48	foodImage.70	FOODEEG_Images\0705.jpg	NY	Right	Yes	0.902013999999326	0	394750	253
771.888671875	0	decision	response	2	108	48	foodImage.70	FOODEEG_Images\0705.jpg	NY	Right	Yes	0.902013999999326	0	395208	235
772.9296875	1	taste	trialStart	2	109	49	foodImage.7	FOODEEG_Images\0116.jpg	NY	Left	No	1.45165039999847	0	395741	251
773.978515625	2	taste	foodImageDisplay	2	109	49	foodImage.7	FOODEEG_Images\0116.jpg	NY	Left	No	1.45165039999847	0	396278	252
776.044921875	1.45165039999847	taste	choicePhaseStart	2	109	49	foodImage.7	FOODEEG_Images\0116.jpg	NY	Left	No	1.45165039999847	0	397336	253
777.48828125	0	taste	response	2	109	49	foodImage.7	FOODEEG_Images\0116.jpg	NY	Left	No	1.45165039999847	0	398075	234
778.537109375	1	health	trialStart	2	110	50	foodImage.79	FOODEEG_Images\0794.jpg	YN	Left	Yes	1.45570660000158	0	398612	251
779.58203125	2	health	foodImageDisplay	2	110	50	foodImage.79	FOODEEG_Images\0794.jpg	YN	Left	Yes	1.45570660000158	0	399147	252
781.650390625	1.45570660000158	health	choicePhaseStart	2	110	50	foodImage.79	FOODEEG_Images\0794.jpg	YN	Left	Yes	1.45570660000158	0	400206	253
783.095703125	0	health	response	2	110	50	foodImage.79	FOODEEG_Images\0794.jpg	YN	Left	Yes	1.45570660000158	0	400946	234
784.14453125	1	taste	trialStart	2	111	51	foodImage.39	FOODEEG_Images\0367.jpg	YN	Left	Yes	2.66077500000029	0	401483	251
785.18359375	2	taste	foodImageDisplay	2	111	51	foodImage.39	FOODEEG_Images\0367.jpg	YN	Left	Yes	2.66077500000029	0	402015	252
787.25	2.66077500000029	taste	choicePhaseStart	2	111	51	foodImage.39	FOODEEG_Images\0367.jpg	YN	Left	Yes	2.66077500000029	0	403073	253
789.904296875	0	taste	response	2	111	51	foodImage.39	FOODEEG_Images\0367.jpg	YN	Left	Yes	2.66077500000029	0	404432	234
790.947265625	1	health	trialStart	2	112	52	foodImage.19	FOODEEG_Images\0225.jpg	YN	Right	No	1.01203059999898	0	404966	251
791.98828125	2	health	foodImageDisplay	2	112	52	foodImage.19	FOODEEG_Images\0225.jpg	YN	Right	No	1.01203059999898	0	405499	252
794.052734375	1.01203059999898	health	choicePhaseStart	2	112	52	foodImage.19	FOODEEG_Images\0225.jpg	YN	Right	No	1.01203059999898	0	406556	253
795.0546875	0	health	response	2	112	52	foodImage.19	FOODEEG_Images\0225.jpg	YN	Right	No	1.01203059999898	0	407069	235
796.099609375	1	health	trialStart	2	113	53	foodImage.118	FOODEEG_Images\0926.jpg	NY	Left	No	1.21744359999866	0	407604	251
797.138671875	2	health	foodImageDisplay	2	113	53	foodImage.118	FOODEEG_Images\0926.jpg	NY	Left	No	1.21744359999866	0	408136	252
799.205078125	1.21744359999866	health	choicePhaseStart	2	113	53	foodImage.118	FOODEEG_Images\0926.jpg	NY	Left	No	1.21744359999866	0	409194	253
800.4140625	0	health	response	2	113	53	foodImage.118	FOODEEG_Images\0926.jpg	NY	Left	No	1.21744359999866	0	409813	234
801.45703125	1	health	trialStart	2	114	54	foodImage.69	FOODEEG_Images\0693.jpg	NY	Left	No	2.12441119999858	0	410347	251
802.5	2	health	foodImageDisplay	2	114	54	foodImage.69	FOODEEG_Images\0693.jpg	NY	Left	No	2.12441119999858	0	410881	252
804.5625	2.12441119999858	health	choicePhaseStart	2	114	54	foodImage.69	FOODEEG_Images\0693.jpg	NY	Left	No	2.12441119999858	0	411937	253
806.677734375	0	health	response	2	114	54	foodImage.69	FOODEEG_Images\0693.jpg	NY	Left	No	2.12441119999858	0	413020	234
807.720703125	1	taste	trialStart	2	115	55	foodImage.43	FOODEEG_Images\0445.jpg	YN	Right	No	1.26006430000052	0	413554	251
808.779296875	2	taste	foodImageDisplay	2	115	55	foodImage.43	FOODEEG_Images\0445.jpg	YN	Right	No	1.26006430000052	0	414096	252
810.84375	1.26006430000052	taste	choicePhaseStart	2	115	55	foodImage.43	FOODEEG_Images\0445.jpg	YN	Right	No	1.26006430000052	0	415153	253
812.09375	0	taste	response	2	115	55	foodImage.43	FOODEEG_Images\0445.jpg	YN	Right	No	1.26006430000052	0	415793	235
813.13671875	1	taste	trialStart	2	116	56	foodImage.72	FOODEEG_Images\0714.jpg	YN	Right	No	1.0361879000011	0	416327	251
814.181640625	2	taste	foodImageDisplay	2	116	56	foodImage.72	FOODEEG_Images\0714.jpg	YN	Right	No	1.0361879000011	0	416862	252
816.244140625	1.0361879000011	taste	choicePhaseStart	2	116	56	foodImage.72	FOODEEG_Images\0714.jpg	YN	Right	No	1.0361879000011	0	417918	253
817.271484375	0	taste	response	2	116	56	foodImage.72	FOODEEG_Images\0714.jpg	YN	Right	No	1.0361879000011	0	418444	235
818.318359375	1	decision	trialStart	2	117	57	foodImage.91	FOODEEG_Images\0896.jpg	YN	Left	Yes	1.14448020000054	0	418980	251
819.396484375	2	decision	foodImageDisplay	2	117	57	foodImage.91	FOODEEG_Images\0896.jpg	YN	Left	Yes	1.14448020000054	0	419532	252
821.462890625	1.14448020000054	decision	choicePhaseStart	2	117	57	foodImage.91	FOODEEG_Images\0896.jpg	YN	Left	Yes	1.14448020000054	0	420590	253
822.59765625	0	decision	response	2	117	57	foodImage.91	FOODEEG_Images\0896.jpg	YN	Left	Yes	1.14448020000054	0	421171	234
823.642578125	1	decision	trialStart	2	118	58	foodImage.18	FOODEEG_Images\0202.jpg	NY	Right	Yes	0.924765199997637	0	421706	251
824.69921875	2	decision	foodImageDisplay	2	118	58	foodImage.18	FOODEEG_Images\0202.jpg	NY	Right	Yes	0.924765199997637	0	422247	252
826.76171875	0.924765199997637	decision	choicePhaseStart	2	118	58	foodImage.18	FOODEEG_Images\0202.jpg	NY	Right	Yes	0.924765199997637	0	423303	253
827.677734375	0	decision	response	2	118	58	foodImage.18	FOODEEG_Images\0202.jpg	NY	Right	Yes	0.924765199997637	0	423772	235
828.72265625	1	health	trialStart	2	119	59	foodImage.8	FOODEEG_Images\0136.jpg	YN	Right	No	1.18049830000018	0	424307	251
829.763671875	2	health	foodImageDisplay	2	119	59	foodImage.8	FOODEEG_Images\0136.jpg	YN	Right	No	1.18049830000018	0	424840	252
831.826171875	1.18049830000018	health	choicePhaseStart	2	119	59	foodImage.8	FOODEEG_Images\0136.jpg	YN	Right	No	1.18049830000018	0	425896	253
832.998046875	0	health	response	2	119	59	foodImage.8	FOODEEG_Images\0136.jpg	YN	Right	No	1.18049830000018	0	426496	235
834.04296875	1	decision	trialStart	2	120	60	foodImage.35	FOODEEG_Images\0350.jpg	NY	Right	Yes	0.8910160000014	0	427031	251
835.091796875	2	decision	foodImageDisplay	2	120	60	foodImage.35	FOODEEG_Images\0350.jpg	NY	Right	Yes	0.8910160000014	0	427568	252
837.15625	0.8910160000014	decision	choicePhaseStart	2	120	60	foodImage.35	FOODEEG_Images\0350.jpg	NY	Right	Yes	0.8910160000014	0	428625	253
838.037109375	0	decision	response	2	120	60	foodImage.35	FOODEEG_Images\0350.jpg	NY	Right	Yes	0.8910160000014	0	429076	235
840.080078125	38.837890625	n/a	blockEnd	n/a	n/a	n/a	n/a	n/a	n/a	n/a	n/a	n/a	n/a	430122	254
878.91796875	2	n/a	blockStart	3	n/a	n/a	n/a	n/a	n/a	n/a	n/a	n/a	n/a	450007	250
880.953125	1	health	trialStart	3	121	1	foodImage.18	FOODEEG_Images\0202.jpg	NY	Right	Yes	0.942768500000966	0	451049	251
882.013671875	2	health	foodImageDisplay	3	121	1	foodImage.18	FOODEEG_Images\0202.jpg	NY	Right	Yes	0.942768500000966	0	451592	252
884.078125	0.942768500000966	health	choicePhaseStart	3	121	1	foodImage.18	FOODEEG_Images\0202.jpg	NY	Right	Yes	0.942768500000966	0	452649	253
885.01171875	0	health	response	3	121	1	foodImage.18	FOODEEG_Images\0202.jpg	NY	Right	Yes	0.942768500000966	0	453127	235
886.0546875	1	health	trialStart	3	122	2	foodImage.110	FOODEEG_Images\0918.jpg	NY	Left	No	1.72100489999866	0	453661	251
887.09375	2	health	foodImageDisplay	3	122	2	foodImage.110	FOODEEG_Images\0918.jpg	NY	Left	No	1.72100489999866	0	454193	252
889.15625	1.72100489999866	health	choicePhaseStart	3	122	2	foodImage.110	FOODEEG_Images\0918.jpg	NY	Left	No	1.72100489999866	0	455249	253
890.8671875	0	health	response	3	122	2	foodImage.110	FOODEEG_Images\0918.jpg	NY	Left	No	1.72100489999866	0	456125	234
891.91015625	1	taste	trialStart	3	123	3	foodImage.17	FOODEEG_Images\0199.jpg	NY	Right	Yes	1.05539180000051	0	456659	251
892.953125	2	taste	foodImageDisplay	3	123	3	foodImage.17	FOODEEG_Images\0199.jpg	NY	Right	Yes	1.05539180000051	0	457193	252
895.01953125	1.05539180000051	taste	choicePhaseStart	3	123	3	foodImage.17	FOODEEG_Images\0199.jpg	NY	Right	Yes	1.05539180000051	0	458251	253
896.06640625	0	taste	response	3	123	3	foodImage.17	FOODEEG_Images\0199.jpg	NY	Right	Yes	1.05539180000051	0	458787	235
897.109375	1	taste	trialStart	3	124	4	foodImage.1	FOODEEG_Images\0004.jpg	YN	Left	Yes	1.74679660000038	0	459321	251
898.150390625	2	taste	foodImageDisplay	3	124	4	foodImage.1	FOODEEG_Images\0004.jpg	YN	Left	Yes	1.74679660000038	0	459854	252
900.21484375	1.74679660000038	taste	choicePhaseStart	3	124	4	foodImage.1	FOODEEG_Images\0004.jpg	YN	Left	Yes	1.74679660000038	0	460911	253
901.955078125	0	taste	response	3	124	4	foodImage.1	FOODEEG_Images\0004.jpg	YN	Left	Yes	1.74679660000038	0	461802	234
902.998046875	1	health	trialStart	3	125	5	foodImage.59	FOODEEG_Images\0607.jpg	YN	Right	No	1.7283477000019	0	462336	251
904.044921875	2	health	foodImageDisplay	3	125	5	foodImage.59	FOODEEG_Images\0607.jpg	YN	Right	No	1.7283477000019	0	462872	252
906.107421875	1.7283477000019	health	choicePhaseStart	3	125	5	foodImage.59	FOODEEG_Images\0607.jpg	YN	Right	No	1.7283477000019	0	463928	253
907.826171875	0	health	response	3	125	5	foodImage.59	FOODEEG_Images\0607.jpg	YN	Right	No	1.7283477000019	0	464808	235
908.869140625	1	decision	trialStart	3	126	6	foodImage.38	FOODEEG_Images\0365.jpg	YN	Left	Yes	0.854778799999622	0	465342	251
909.91015625	2	decision	foodImageDisplay	3	126	6	foodImage.38	FOODEEG_Images\0365.jpg	YN	Left	Yes	0.854778799999622	0	465875	252
911.97265625	0.854778799999622	decision	choicePhaseStart	3	126	6	foodImage.38	FOODEEG_Images\0365.jpg	YN	Left	Yes	0.854778799999622	0	466931	253
912.818359375	0	decision	response	3	126	6	foodImage.38	FOODEEG_Images\0365.jpg	YN	Left	Yes	0.854778799999622	0	467364	234
913.861328125	1	health	trialStart	3	127	7	foodImage.25	FOODEEG_Images\0261.jpg	YN	Left	Yes	0.821311400002742	0	467898	251
914.908203125	2	health	foodImageDisplay	3	127	7	foodImage.25	FOODEEG_Images\0261.jpg	YN	Left	Yes	0.821311400002742	0	468434	252
916.98046875	0.821311400002742	health	choicePhaseStart	3	127	7	foodImage.25	FOODEEG_Images\0261.jpg	YN	Left	Yes	0.821311400002742	0	469495	253
917.794921875	0	health	response	3	127	7	foodImage.25	FOODEEG_Images\0261.jpg	YN	Left	Yes	0.821311400002742	0	469912	234
918.8359375	1	decision	trialStart	3	128	8	foodImage.36	FOODEEG_Images\0352.jpg	NY	Right	Yes	1.03737349999938	0	470445	251
919.90625	2	decision	foodImageDisplay	3	128	8	foodImage.36	FOODEEG_Images\0352.jpg	NY	Right	Yes	1.03737349999938	0	470993	252
921.974609375	1.03737349999938	decision	choicePhaseStart	3	128	8	foodImage.36	FOODEEG_Images\0352.jpg	NY	Right	Yes	1.03737349999938	0	472052	253
923.001953125	0	decision	response	3	128	8	foodImage.36	FOODEEG_Images\0352.jpg	NY	Right	Yes	1.03737349999938	0	472578	235
924.052734375	1	health	trialStart	3	129	9	foodImage.96	FOODEEG_Images\0904.jpg	NY	Right	Yes	1.48722620000262	0	473116	251
925.091796875	2	health	foodImageDisplay	3	129	9	foodImage.96	FOODEEG_Images\0904.jpg	NY	Right	Yes	1.48722620000262	0	473648	252
927.15625	1.48722620000262	health	choicePhaseStart	3	129	9	foodImage.96	FOODEEG_Images\0904.jpg	NY	Right	Yes	1.48722620000262	0	474705	253
928.634765625	0	health	response	3	129	9	foodImage.96	FOODEEG_Images\0904.jpg	NY	Right	Yes	1.48722620000262	0	475462	235
929.67578125	1	decision	trialStart	3	130	10	foodImage.13	FOODEEG_Images\0183.jpg	YN	Right	No	1.06122479999976	0	475995	251
930.71875	2	decision	foodImageDisplay	3	130	10	foodImage.13	FOODEEG_Images\0183.jpg	YN	Right	No	1.06122479999976	0	476529	252
932.78125	1.06122479999976	decision	choicePhaseStart	3	130	10	foodImage.13	FOODEEG_Images\0183.jpg	YN	Right	No	1.06122479999976	0	477585	253
933.833984375	0	decision	response	3	130	10	foodImage.13	FOODEEG_Images\0183.jpg	YN	Right	No	1.06122479999976	0	478124	235
934.876953125	1	decision	trialStart	3	131	11	foodImage.114	FOODEEG_Images\0922.jpg	YN	Right	No	0.943851899999572	0	478658	251
935.916015625	2	decision	foodImageDisplay	3	131	11	foodImage.114	FOODEEG_Images\0922.jpg	YN	Right	No	0.943851899999572	0	479190	252
937.978515625	0.943851899999572	decision	choicePhaseStart	3	131	11	foodImage.114	FOODEEG_Images\0922.jpg	YN	Right	No	0.943851899999572	0	480246	253
938.9140625	0	decision	response	3	131	11	foodImage.114	FOODEEG_Images\0922.jpg	YN	Right	No	0.943851899999572	0	480725	235
939.955078125	1	health	trialStart	3	132	12	foodImage.38	FOODEEG_Images\0365.jpg	NY	Right	Yes	1.33154899999863	0	481258	251
941.0078125	2	health	foodImageDisplay	3	132	12	foodImage.38	FOODEEG_Images\0365.jpg	NY	Right	Yes	1.33154899999863	0	481797	252
943.0703125	1.33154899999863	health	choicePhaseStart	3	132	12	foodImage.38	FOODEEG_Images\0365.jpg	NY	Right	Yes	1.33154899999863	0	482853	253
944.392578125	0	health	response	3	132	12	foodImage.38	FOODEEG_Images\0365.jpg	NY	Right	Yes	1.33154899999863	0	483530	235
945.4375	1	decision	trialStart	3	133	13	foodImage.84	FOODEEG_Images\0830.jpg	YN	Left	Yes	0.828060699997877	0	484065	251
946.494140625	2	decision	foodImageDisplay	3	133	13	foodImage.84	FOODEEG_Images\0830.jpg	YN	Left	Yes	0.828060699997877	0	484606	252
948.55859375	0.828060699997877	decision	choicePhaseStart	3	133	13	foodImage.84	FOODEEG_Images\0830.jpg	YN	Left	Yes	0.828060699997877	0	485663	253
949.376953125	0	decision	response	3	133	13	foodImage.84	FOODEEG_Images\0830.jpg	YN	Left	Yes	0.828060699997877	0	486082	234
950.419921875	1	taste	trialStart	3	134	14	foodImage.3	FOODEEG_Images\0046.jpg	NY	Right	Yes	0.796186299998226	0	486616	251
951.484375	2	taste	foodImageDisplay	3	134	14	foodImage.3	FOODEEG_Images\0046.jpg	NY	Right	Yes	0.796186299998226	0	487161	252
953.546875	0.796186299998226	taste	choicePhaseStart	3	134	14	foodImage.3	FOODEEG_Images\0046.jpg	NY	Right	Yes	0.796186299998226	0	488217	253
954.3359375	0	taste	response	3	134	14	foodImage.3	FOODEEG_Images\0046.jpg	NY	Right	Yes	0.796186299998226	0	488621	235
955.37890625	1	taste	trialStart	3	135	15	foodImage.116	FOODEEG_Images\0924.jpg	YN	Right	No	0.697269699998287	0	489155	251
956.41796875	2	taste	foodImageDisplay	3	135	15	foodImage.116	FOODEEG_Images\0924.jpg	YN	Right	No	0.697269699998287	0	489687	252
958.482421875	0.697269699998287	taste	choicePhaseStart	3	135	15	foodImage.116	FOODEEG_Images\0924.jpg	YN	Right	No	0.697269699998287	0	490744	253
959.169921875	0	taste	response	3	135	15	foodImage.116	FOODEEG_Images\0924.jpg	YN	Right	No	0.697269699998287	0	491096	235
960.220703125	1	health	trialStart	3	136	16	foodImage.39	FOODEEG_Images\0367.jpg	NY	Left	No	2.97553100000005	0	491634	251
961.2578125	2	health	foodImageDisplay	3	136	16	foodImage.39	FOODEEG_Images\0367.jpg	NY	Left	No	2.97553100000005	0	492165	252
963.322265625	2.97553100000005	health	choicePhaseStart	3	136	16	foodImage.39	FOODEEG_Images\0367.jpg	NY	Left	No	2.97553100000005	0	493222	253
966.2890625	0	health	response	3	136	16	foodImage.39	FOODEEG_Images\0367.jpg	NY	Left	No	2.97553100000005	0	494741	234
967.33203125	1	decision	trialStart	3	137	17	foodImage.3	FOODEEG_Images\0046.jpg	YN	Right	No	3.87078670000119	0	495275	251
968.37109375	2	decision	foodImageDisplay	3	137	17	foodImage.3	FOODEEG_Images\0046.jpg	YN	Right	No	3.87078670000119	0	495807	252
970.435546875	3.87078670000119	decision	choicePhaseStart	3	137	17	foodImage.3	FOODEEG_Images\0046.jpg	YN	Right	No	3.87078670000119	0	496864	253
974.294921875	0	decision	response	3	137	17	foodImage.3	FOODEEG_Images\0046.jpg	YN	Right	No	3.87078670000119	0	498840	235
975.337890625	1	decision	trialStart	3	138	18	foodImage.10	FOODEEG_Images\0145.jpg	NY	Right	Yes	0.884567200002493	0	499374	251
976.421875	2	decision	foodImageDisplay	3	138	18	foodImage.10	FOODEEG_Images\0145.jpg	NY	Right	Yes	0.884567200002493	0	499929	252
978.484375	0.884567200002493	decision	choicePhaseStart	3	138	18	foodImage.10	FOODEEG_Images\0145.jpg	NY	Right	Yes	0.884567200002493	0	500985	253
979.359375	0	decision	response	3	138	18	foodImage.10	FOODEEG_Images\0145.jpg	NY	Right	Yes	0.884567200002493	0	501433	235
980.404296875	1	decision	trialStart	3	139	19	foodImage.102	FOODEEG_Images\0910.jpg	NY	Left	No	0.862629800001741	0	501968	251
981.44140625	2	decision	foodImageDisplay	3	139	19	foodImage.102	FOODEEG_Images\0910.jpg	NY	Left	No	0.862629800001741	0	502499	252
983.505859375	0.862629800001741	decision	choicePhaseStart	3	139	19	foodImage.102	FOODEEG_Images\0910.jpg	NY	Left	No	0.862629800001741	0	503556	253
984.359375	0	decision	response	3	139	19	foodImage.102	FOODEEG_Images\0910.jpg	NY	Left	No	0.862629800001741	0	503993	234
985.40234375	1	health	trialStart	3	140	20	foodImage.80	FOODEEG_Images\0796.jpg	YN	Left	Yes	0.858497600002011	0	504527	251
986.458984375	2	health	foodImageDisplay	3	140	20	foodImage.80	FOODEEG_Images\0796.jpg	YN	Left	Yes	0.858497600002011	0	505068	252
988.5234375	0.858497600002011	health	choicePhaseStart	3	140	20	foodImage.80	FOODEEG_Images\0796.jpg	YN	Left	Yes	0.858497600002011	0	506125	253
989.375	0	health	response	3	140	20	foodImage.80	FOODEEG_Images\0796.jpg	YN	Left	Yes	0.858497600002011	0	506561	234
990.42578125	1	health	trialStart	3	141	21	foodImage.113	FOODEEG_Images\0921.jpg	YN	Right	No	0.711571499999991	0	507099	251
991.46484375	2	health	foodImageDisplay	3	141	21	foodImage.113	FOODEEG_Images\0921.jpg	YN	Right	No	0.711571499999991	0	507631	252
993.529296875	0.711571499999991	health	choicePhaseStart	3	141	21	foodImage.113	FOODEEG_Images\0921.jpg	YN	Right	No	0.711571499999991	0	508688	253
994.23046875	0	health	response	3	141	21	foodImage.113	FOODEEG_Images\0921.jpg	YN	Right	No	0.711571499999991	0	509047	235
995.275390625	1	taste	trialStart	3	142	22	foodImage.73	FOODEEG_Images\0717.jpg	NY	Left	No	1.35719859999881	0	509582	251
996.35546875	2	taste	foodImageDisplay	3	142	22	foodImage.73	FOODEEG_Images\0717.jpg	NY	Left	No	1.35719859999881	0	510135	252
998.419921875	1.35719859999881	taste	choicePhaseStart	3	142	22	foodImage.73	FOODEEG_Images\0717.jpg	NY	Left	No	1.35719859999881	0	511192	253
999.767578125	0	taste	response	3	142	22	foodImage.73	FOODEEG_Images\0717.jpg	NY	Left	No	1.35719859999881	0	511882	234
1000.810546875	1	taste	trialStart	3	143	23	foodImage.48	FOODEEG_Images\0494.jpg	NY	Left	No	1.01871380000011	0	512416	251
1001.853515625	2	taste	foodImageDisplay	3	143	23	foodImage.48	FOODEEG_Images\0494.jpg	NY	Left	No	1.01871380000011	0	512950	252
1003.91796875	1.01871380000011	taste	choicePhaseStart	3	143	23	foodImage.48	FOODEEG_Images\0494.jpg	NY	Left	No	1.01871380000011	0	514007	253
1004.927734375	0	taste	response	3	143	23	foodImage.48	FOODEEG_Images\0494.jpg	NY	Left	No	1.01871380000011	0	514524	234
1005.970703125	1	health	trialStart	3	144	24	foodImage.104	FOODEEG_Images\0912.jpg	NY	Left	No	1.17675330000202	0	515058	251
1007.0078125	2	health	foodImageDisplay	3	144	24	foodImage.104	FOODEEG_Images\0912.jpg	NY	Left	No	1.17675330000202	0	515589	252
1009.0703125	1.17675330000202	health	choicePhaseStart	3	144	24	foodImage.104	FOODEEG_Images\0912.jpg	NY	Left	No	1.17675330000202	0	516645	253
1010.23828125	0	health	response	3	144	24	foodImage.104	FOODEEG_Images\0912.jpg	NY	Left	No	1.17675330000202	0	517243	234
1011.28125	1	decision	trialStart	3	145	25	foodImage.22	FOODEEG_Images\0236.jpg	NY	Right	Yes	0.801873399999749	0	517777	251
1012.322265625	2	decision	foodImageDisplay	3	145	25	foodImage.22	FOODEEG_Images\0236.jpg	NY	Right	Yes	0.801873399999749	0	518310	252
1014.38671875	0.801873399999749	decision	choicePhaseStart	3	145	25	foodImage.22	FOODEEG_Images\0236.jpg	NY	Right	Yes	0.801873399999749	0	519367	253
1015.181640625	0	decision	response	3	145	25	foodImage.22	FOODEEG_Images\0236.jpg	NY	Right	Yes	0.801873399999749	0	519774	235
1016.224609375	1	health	trialStart	3	146	26	foodImage.62	FOODEEG_Images\0644.jpg	NY	Right	Yes	1.7887791999965	0	520308	251
1017.283203125	2	health	foodImageDisplay	3	146	26	foodImage.62	FOODEEG_Images\0644.jpg	NY	Right	Yes	1.7887791999965	0	520850	252
1019.345703125	1.7887791999965	health	choicePhaseStart	3	146	26	foodImage.62	FOODEEG_Images\0644.jpg	NY	Right	Yes	1.7887791999965	0	521906	253
1021.126953125	0	health	response	3	146	26	foodImage.62	FOODEEG_Images\0644.jpg	NY	Right	Yes	1.7887791999965	0	522818	235
1022.169921875	1	health	trialStart	3	147	27	foodImage.29	FOODEEG_Images\0278.jpg	YN	Left	Yes	2.34033429999909	0	523352	251
1023.2109375	2	health	foodImageDisplay	3	147	27	foodImage.29	FOODEEG_Images\0278.jpg	YN	Left	Yes	2.34033429999909	0	523885	252
1025.275390625	2.34033429999909	health	choicePhaseStart	3	147	27	foodImage.29	FOODEEG_Images\0278.jpg	YN	Left	Yes	2.34033429999909	0	524942	253
1027.60546875	0	health	response	3	147	27	foodImage.29	FOODEEG_Images\0278.jpg	YN	Left	Yes	2.34033429999909	0	526135	234
1028.6484375	1	decision	trialStart	3	148	28	foodImage.106	FOODEEG_Images\0914.jpg	NY	Right	Yes	0.723337999999785	0	526669	251
1029.6875	2	decision	foodImageDisplay	3	148	28	foodImage.106	FOODEEG_Images\0914.jpg	NY	Right	Yes	0.723337999999785	0	527201	252
1031.755859375	0.723337999999785	decision	choicePhaseStart	3	148	28	foodImage.106	FOODEEG_Images\0914.jpg	NY	Right	Yes	0.723337999999785	0	528260	253
1032.470703125	0	decision	response	3	148	28	foodImage.106	FOODEEG_Images\0914.jpg	NY	Right	Yes	0.723337999999785	0	528626	235
1033.517578125	1	taste	trialStart	3	149	29	foodImage.12	FOODEEG_Images\0181.jpg	YN	Left	Yes	2.46097119999831	0	529162	251
1034.560546875	2	taste	foodImageDisplay	3	149	29	foodImage.12	FOODEEG_Images\0181.jpg	YN	Left	Yes	2.46097119999831	0	529696	252
1036.625	2.46097119999831	taste	choicePhaseStart	3	149	29	foodImage.12	FOODEEG_Images\0181.jpg	YN	Left	Yes	2.46097119999831	0	530753	253
1039.076171875	0	taste	response	3	149	29	foodImage.12	FOODEEG_Images\0181.jpg	YN	Left	Yes	2.46097119999831	0	532008	234
1040.12109375	1	decision	trialStart	3	150	30	foodImage.9	FOODEEG_Images\0138.jpg	YN	Right	No	1.4100929999986	0	532543	251
1041.177734375	2	decision	foodImageDisplay	3	150	30	foodImage.9	FOODEEG_Images\0138.jpg	YN	Right	No	1.4100929999986	0	533084	252
1043.244140625	1.4100929999986	decision	choicePhaseStart	3	150	30	foodImage.9	FOODEEG_Images\0138.jpg	YN	Right	No	1.4100929999986	0	534142	253
1044.64453125	0	decision	response	3	150	30	foodImage.9	FOODEEG_Images\0138.jpg	YN	Right	No	1.4100929999986	0	534859	235
1045.689453125	1	health	trialStart	3	151	31	foodImage.64	FOODEEG_Images\0647.jpg	YN	Left	Yes	2.38709119999839	0	535394	251
1046.748046875	2	health	foodImageDisplay	3	151	31	foodImage.64	FOODEEG_Images\0647.jpg	YN	Left	Yes	2.38709119999839	0	535936	252
1048.810546875	2.38709119999839	health	choicePhaseStart	3	151	31	foodImage.64	FOODEEG_Images\0647.jpg	YN	Left	Yes	2.38709119999839	0	536992	253
1051.189453125	0	health	response	3	151	31	foodImage.64	FOODEEG_Images\0647.jpg	YN	Left	Yes	2.38709119999839	0	538210	234
1052.232421875	1	decision	trialStart	3	152	32	foodImage.53	FOODEEG_Images\0547.jpg	YN	Right	No	1.25926690000051	0	538744	251
1053.291015625	2	decision	foodImageDisplay	3	152	32	foodImage.53	FOODEEG_Images\0547.jpg	YN	Right	No	1.25926690000051	0	539286	252
1055.35546875	1.25926690000051	decision	choicePhaseStart	3	152	32	foodImage.53	FOODEEG_Images\0547.jpg	YN	Right	No	1.25926690000051	0	540343	253
1056.60546875	0	decision	response	3	152	32	foodImage.53	FOODEEG_Images\0547.jpg	YN	Right	No	1.25926690000051	0	540983	235
1057.673828125	1	decision	trialStart	3	153	33	foodImage.55	FOODEEG_Images\0567.jpg	NY	Right	Yes	0.818546500002412	0	541530	251
1058.73046875	2	decision	foodImageDisplay	3	153	33	foodImage.55	FOODEEG_Images\0567.jpg	NY	Right	Yes	0.818546500002412	0	542071	252
1060.794921875	0.818546500002412	decision	choicePhaseStart	3	153	33	foodImage.55	FOODEEG_Images\0567.jpg	NY	Right	Yes	0.818546500002412	0	543128	253
1061.60546875	0	decision	response	3	153	33	foodImage.55	FOODEEG_Images\0567.jpg	NY	Right	Yes	0.818546500002412	0	543543	235
1062.6484375	1	decision	trialStart	3	154	34	foodImage.74	FOODEEG_Images\0752.jpg	NY	Right	Yes	0.964538500000344	0	544077	251
1063.712890625	2	decision	foodImageDisplay	3	154	34	foodImage.74	FOODEEG_Images\0752.jpg	NY	Right	Yes	0.964538500000344	0	544622	252
1065.78125	0.964538500000344	decision	choicePhaseStart	3	154	34	foodImage.74	FOODEEG_Images\0752.jpg	NY	Right	Yes	0.964538500000344	0	545681	253
1066.740234375	0	decision	response	3	154	34	foodImage.74	FOODEEG_Images\0752.jpg	NY	Right	Yes	0.964538500000344	0	546172	235
1067.78125	1	health	trialStart	3	155	35	foodImage.44	FOODEEG_Images\0459.jpg	YN	Left	Yes	1.18530860000101	0	546705	251
1068.828125	2	health	foodImageDisplay	3	155	35	foodImage.44	FOODEEG_Images\0459.jpg	YN	Left	Yes	1.18530860000101	0	547241	252
1070.892578125	1.18530860000101	health	choicePhaseStart	3	155	35	foodImage.44	FOODEEG_Images\0459.jpg	YN	Left	Yes	1.18530860000101	0	548298	253
1072.068359375	0	health	response	3	155	35	foodImage.44	FOODEEG_Images\0459.jpg	YN	Left	Yes	1.18530860000101	0	548900	234
1073.111328125	1	health	trialStart	3	156	36	foodImage.31	FOODEEG_Images\0294.jpg	NY	Left	No	0.988240599999699	0	549434	251
1074.154296875	2	health	foodImageDisplay	3	156	36	foodImage.31	FOODEEG_Images\0294.jpg	NY	Left	No	0.988240599999699	0	549968	252
1076.216796875	0.988240599999699	health	choicePhaseStart	3	156	36	foodImage.31	FOODEEG_Images\0294.jpg	NY	Left	No	0.988240599999699	0	551024	253
1077.1953125	0	health	response	3	156	36	foodImage.31	FOODEEG_Images\0294.jpg	NY	Left	No	0.988240599999699	0	551525	234
1078.23828125	1	taste	trialStart	3	157	37	foodImage.51	FOODEEG_Images\0536.jpg	NY	Right	Yes	1.35194120000233	0	552059	251
1079.28515625	2	taste	foodImageDisplay	3	157	37	foodImage.51	FOODEEG_Images\0536.jpg	NY	Right	Yes	1.35194120000233	0	552595	252
1081.34765625	1.35194120000233	taste	choicePhaseStart	3	157	37	foodImage.51	FOODEEG_Images\0536.jpg	NY	Right	Yes	1.35194120000233	0	553651	253
1082.69140625	0	taste	response	3	157	37	foodImage.51	FOODEEG_Images\0536.jpg	NY	Right	Yes	1.35194120000233	0	554339	235
1083.7421875	1	health	trialStart	3	158	38	foodImage.53	FOODEEG_Images\0547.jpg	YN	Right	No	0.998503000002529	0	554877	251
1084.822265625	2	health	foodImageDisplay	3	158	38	foodImage.53	FOODEEG_Images\0547.jpg	YN	Right	No	0.998503000002529	0	555430	252
1086.884765625	0.998503000002529	health	choicePhaseStart	3	158	38	foodImage.53	FOODEEG_Images\0547.jpg	YN	Right	No	0.998503000002529	0	556486	253
1087.875	0	health	response	3	158	38	foodImage.53	FOODEEG_Images\0547.jpg	YN	Right	No	0.998503000002529	0	556993	235
1088.91796875	1	taste	trialStart	3	159	39	foodImage.45	FOODEEG_Images\0478.jpg	YN	Left	Yes	0.952890799999295	0	557527	251
1089.96484375	2	taste	foodImageDisplay	3	159	39	foodImage.45	FOODEEG_Images\0478.jpg	YN	Left	Yes	0.952890799999295	0	558063	252
1092.029296875	0.952890799999295	taste	choicePhaseStart	3	159	39	foodImage.45	FOODEEG_Images\0478.jpg	YN	Left	Yes	0.952890799999295	0	559120	253
1092.97265625	0	taste	response	3	159	39	foodImage.45	FOODEEG_Images\0478.jpg	YN	Left	Yes	0.952890799999295	0	559603	234
1094.015625	1	health	trialStart	3	160	40	foodImage.57	FOODEEG_Images\0587.jpg	NY	Left	No	2.29160019999836	0	560137	251
1095.080078125	2	health	foodImageDisplay	3	160	40	foodImage.57	FOODEEG_Images\0587.jpg	NY	Left	No	2.29160019999836	0	560682	252
1097.14453125	2.29160019999836	health	choicePhaseStart	3	160	40	foodImage.57	FOODEEG_Images\0587.jpg	NY	Left	No	2.29160019999836	0	561739	253
1099.427734375	0	health	response	3	160	40	foodImage.57	FOODEEG_Images\0587.jpg	NY	Left	No	2.29160019999836	0	562908	234
1100.470703125	1	taste	trialStart	3	161	41	foodImage.119	FOODEEG_Images\0927.jpg	YN	Right	No	1.03126210000119	0	563442	251
1101.509765625	2	taste	foodImageDisplay	3	161	41	foodImage.119	FOODEEG_Images\0927.jpg	YN	Right	No	1.03126210000119	0	563974	252
1103.572265625	1.03126210000119	taste	choicePhaseStart	3	161	41	foodImage.119	FOODEEG_Images\0927.jpg	YN	Right	No	1.03126210000119	0	565030	253
1104.595703125	0	taste	response	3	161	41	foodImage.119	FOODEEG_Images\0927.jpg	YN	Right	No	1.03126210000119	0	565554	235
1105.638671875	1	health	trialStart	3	162	42	foodImage.26	FOODEEG_Images\0262.jpg	YN	Left	Yes	1.15405110000211	0	566088	251
1106.681640625	2	health	foodImageDisplay	3	162	42	foodImage.26	FOODEEG_Images\0262.jpg	YN	Left	Yes	1.15405110000211	0	566622	252
1108.74609375	1.15405110000211	health	choicePhaseStart	3	162	42	foodImage.26	FOODEEG_Images\0262.jpg	YN	Left	Yes	1.15405110000211	0	567679	253
1109.890625	0	health	response	3	162	42	foodImage.26	FOODEEG_Images\0262.jpg	YN	Left	Yes	1.15405110000211	0	568265	234
1110.95703125	1	decision	trialStart	3	163	43	foodImage.82	FOODEEG_Images\0805.jpg	YN	Right	No	1.00771850000092	0	568811	251
1112.013671875	2	decision	foodImageDisplay	3	163	43	foodImage.82	FOODEEG_Images\0805.jpg	YN	Right	No	1.00771850000092	0	569352	252
1114.076171875	1.00771850000092	decision	choicePhaseStart	3	163	43	foodImage.82	FOODEEG_Images\0805.jpg	YN	Right	No	1.00771850000092	0	570408	253
1115.07421875	0	decision	response	3	163	43	foodImage.82	FOODEEG_Images\0805.jpg	YN	Right	No	1.00771850000092	0	570919	235
1116.115234375	1	taste	trialStart	3	164	44	foodImage.75	FOODEEG_Images\0763.jpg	YN	Right	No	1.79217330000029	0	571452	251
1117.1796875	2	taste	foodImageDisplay	3	164	44	foodImage.75	FOODEEG_Images\0763.jpg	YN	Right	No	1.79217330000029	0	571997	252
1119.244140625	1.79217330000029	taste	choicePhaseStart	3	164	44	foodImage.75	FOODEEG_Images\0763.jpg	YN	Right	No	1.79217330000029	0	573054	253
1121.025390625	0	taste	response	3	164	44	foodImage.75	FOODEEG_Images\0763.jpg	YN	Right	No	1.79217330000029	0	573966	235
1122.068359375	1	health	trialStart	3	165	45	foodImage.85	FOODEEG_Images\0841.jpg	NY	Left	No	1.02069219999976	0	574500	251
1123.126953125	2	health	foodImageDisplay	3	165	45	foodImage.85	FOODEEG_Images\0841.jpg	NY	Left	No	1.02069219999976	0	575042	252
1125.189453125	1.02069219999976	health	choicePhaseStart	3	165	45	foodImage.85	FOODEEG_Images\0841.jpg	NY	Left	No	1.02069219999976	0	576098	253
1126.201171875	0	health	response	3	165	45	foodImage.85	FOODEEG_Images\0841.jpg	NY	Left	No	1.02069219999976	0	576616	234
1127.244140625	1	decision	trialStart	3	166	46	foodImage.89	FOODEEG_Images\0881.jpg	NY	Right	Yes	0.843268399999943	0	577150	251
1128.326171875	2	decision	foodImageDisplay	3	166	46	foodImage.89	FOODEEG_Images\0881.jpg	NY	Right	Yes	0.843268399999943	0	577704	252
1130.390625	0.843268399999943	decision	choicePhaseStart	3	166	46	foodImage.89	FOODEEG_Images\0881.jpg	NY	Right	Yes	0.843268399999943	0	578761	253
1131.2265625	0	decision	response	3	166	46	foodImage.89	FOODEEG_Images\0881.jpg	NY	Right	Yes	0.843268399999943	0	579189	235
1132.275390625	1	decision	trialStart	3	167	47	foodImage.17	FOODEEG_Images\0199.jpg	NY	Right	Yes	2.57559059999767	0	579726	251
1133.31640625	2	decision	foodImageDisplay	3	167	47	foodImage.17	FOODEEG_Images\0199.jpg	NY	Right	Yes	2.57559059999767	0	580259	252
1135.37890625	2.57559059999767	decision	choicePhaseStart	3	167	47	foodImage.17	FOODEEG_Images\0199.jpg	NY	Right	Yes	2.57559059999767	0	581315	253
1137.9453125	0	decision	response	3	167	47	foodImage.17	FOODEEG_Images\0199.jpg	NY	Right	Yes	2.57559059999767	0	582629	235
1138.9921875	1	health	trialStart	3	168	48	foodImage.76	FOODEEG_Images\0766.jpg	NY	Right	Yes	1.46305479999864	0	583165	251
1140.044921875	2	health	foodImageDisplay	3	168	48	foodImage.76	FOODEEG_Images\0766.jpg	NY	Right	Yes	1.46305479999864	0	583704	252
1142.11328125	1.46305479999864	health	choicePhaseStart	3	168	48	foodImage.76	FOODEEG_Images\0766.jpg	NY	Right	Yes	1.46305479999864	0	584763	253
1143.568359375	0	health	response	3	168	48	foodImage.76	FOODEEG_Images\0766.jpg	NY	Right	Yes	1.46305479999864	0	585508	235
1144.61328125	1	taste	trialStart	3	169	49	foodImage.53	FOODEEG_Images\0547.jpg	NY	Left	No	0.940802099998109	0	586043	251
1145.669921875	2	taste	foodImageDisplay	3	169	49	foodImage.53	FOODEEG_Images\0547.jpg	NY	Left	No	0.940802099998109	0	586584	252
1147.732421875	0.940802099998109	taste	choicePhaseStart	3	169	49	foodImage.53	FOODEEG_Images\0547.jpg	NY	Left	No	0.940802099998109	0	587640	253
1148.6640625	0	taste	response	3	169	49	foodImage.53	FOODEEG_Images\0547.jpg	NY	Left	No	0.940802099998109	0	588117	234
1149.705078125	1	health	trialStart	3	170	50	foodImage.109	FOODEEG_Images\0917.jpg	NY	Left	No	1.34857859999829	0	588650	251
1150.7421875	2	health	foodImageDisplay	3	170	50	foodImage.109	FOODEEG_Images\0917.jpg	NY	Left	No	1.34857859999829	0	589181	252
1152.8046875	1.34857859999829	health	choicePhaseStart	3	170	50	foodImage.109	FOODEEG_Images\0917.jpg	NY	Left	No	1.34857859999829	0	590237	253
1154.14453125	0	health	response	3	170	50	foodImage.109	FOODEEG_Images\0917.jpg	NY	Left	No	1.34857859999829	0	590923	234
1155.189453125	1	decision	trialStart	3	171	51	foodImage.86	FOODEEG_Images\0844.jpg	NY	Left	No	1.62511330000052	0	591458	251
1156.24609375	2	decision	foodImageDisplay	3	171	51	foodImage.86	FOODEEG_Images\0844.jpg	NY	Left	No	1.62511330000052	0	591999	252
1158.3125	1.62511330000052	decision	choicePhaseStart	3	171	51	foodImage.86	FOODEEG_Images\0844.jpg	NY	Left	No	1.62511330000052	0	593057	253
1159.927734375	0	decision	response	3	171	51	foodImage.86	FOODEEG_Images\0844.jpg	NY	Left	No	1.62511330000052	0	593884	234
1160.970703125	1	taste	trialStart	3	172	52	foodImage.96	FOODEEG_Images\0904.jpg	NY	Left	No	1.08198379999885	0	594418	251
1162.025390625	2	taste	foodImageDisplay	3	172	52	foodImage.96	FOODEEG_Images\0904.jpg	NY	Left	No	1.08198379999885	0	594958	252
1164.087890625	1.08198379999885	taste	choicePhaseStart	3	172	52	foodImage.96	FOODEEG_Images\0904.jpg	NY	Left	No	1.08198379999885	0	596014	253
1165.16015625	0	taste	response	3	172	52	foodImage.96	FOODEEG_Images\0904.jpg	NY	Left	No	1.08198379999885	0	596563	234
1166.203125	1	health	trialStart	3	173	53	foodImage.105	FOODEEG_Images\0913.jpg	NY	Left	No	3.29766690000179	0	597097	251
1167.25	2	health	foodImageDisplay	3	173	53	foodImage.105	FOODEEG_Images\0913.jpg	NY	Left	No	3.29766690000179	0	597633	252
1169.3125	3.29766690000179	health	choicePhaseStart	3	173	53	foodImage.105	FOODEEG_Images\0913.jpg	NY	Left	No	3.29766690000179	0	598689	253
1172.599609375	0	health	response	3	173	53	foodImage.105	FOODEEG_Images\0913.jpg	NY	Left	No	3.29766690000179	0	600372	234
1173.642578125	1	taste	trialStart	3	174	54	foodImage.46	FOODEEG_Images\0479.jpg	NY	Right	Yes	0.732406800001627	0	600906	251
1174.701171875	2	taste	foodImageDisplay	3	174	54	foodImage.46	FOODEEG_Images\0479.jpg	NY	Right	Yes	0.732406800001627	0	601448	252
1176.765625	0.732406800001627	taste	choicePhaseStart	3	174	54	foodImage.46	FOODEEG_Images\0479.jpg	NY	Right	Yes	0.732406800001627	0	602505	253
1177.48828125	0	taste	response	3	174	54	foodImage.46	FOODEEG_Images\0479.jpg	NY	Right	Yes	0.732406800001627	0	602875	235
1178.53125	1	health	trialStart	3	175	55	foodImage.58	FOODEEG_Images\0605.jpg	YN	Left	Yes	0.922343499998533	0	603409	251
1179.591796875	2	health	foodImageDisplay	3	175	55	foodImage.58	FOODEEG_Images\0605.jpg	YN	Left	Yes	0.922343499998533	0	603952	252
1181.654296875	0.922343499998533	health	choicePhaseStart	3	175	55	foodImage.58	FOODEEG_Images\0605.jpg	YN	Left	Yes	0.922343499998533	0	605008	253
1182.568359375	0	health	response	3	175	55	foodImage.58	FOODEEG_Images\0605.jpg	YN	Left	Yes	0.922343499998533	0	605476	234
1183.609375	1	decision	trialStart	3	176	56	foodImage.60	FOODEEG_Images\0614.jpg	YN	Left	Yes	1.01322110000183	0	606009	251
1184.66796875	2	decision	foodImageDisplay	3	176	56	foodImage.60	FOODEEG_Images\0614.jpg	YN	Left	Yes	1.01322110000183	0	606551	252
1186.73046875	1.01322110000183	decision	choicePhaseStart	3	176	56	foodImage.60	FOODEEG_Images\0614.jpg	YN	Left	Yes	1.01322110000183	0	607607	253
1187.736328125	0	decision	response	3	176	56	foodImage.60	FOODEEG_Images\0614.jpg	YN	Left	Yes	1.01322110000183	0	608122	234
1188.779296875	1	health	trialStart	3	177	57	foodImage.46	FOODEEG_Images\0479.jpg	YN	Left	Yes	1.99608620000072	0	608656	251
1189.84765625	2	health	foodImageDisplay	3	177	57	foodImage.46	FOODEEG_Images\0479.jpg	YN	Left	Yes	1.99608620000072	0	609203	252
1191.908203125	1.99608620000072	health	choicePhaseStart	3	177	57	foodImage.46	FOODEEG_Images\0479.jpg	YN	Left	Yes	1.99608620000072	0	610258	253
1193.89453125	0	health	response	3	177	57	foodImage.46	FOODEEG_Images\0479.jpg	YN	Left	Yes	1.99608620000072	0	611275	234
1194.939453125	1	taste	trialStart	3	178	58	foodImage.102	FOODEEG_Images\0910.jpg	NY	Left	No	0.949443800000154	0	611810	251
1195.9765625	2	taste	foodImageDisplay	3	178	58	foodImage.102	FOODEEG_Images\0910.jpg	NY	Left	No	0.949443800000154	0	612341	252
1198.0390625	0.949443800000154	taste	choicePhaseStart	3	178	58	foodImage.102	FOODEEG_Images\0910.jpg	NY	Left	No	0.949443800000154	0	613397	253
1198.982421875	0	taste	response	3	178	58	foodImage.102	FOODEEG_Images\0910.jpg	NY	Left	No	0.949443800000154	0	613880	234
1200.02734375	1	taste	trialStart	3	179	59	foodImage.5	FOODEEG_Images\0107.jpg	YN	Left	Yes	0.835605299998861	0	614415	251
1201.083984375	2	taste	foodImageDisplay	3	179	59	foodImage.5	FOODEEG_Images\0107.jpg	YN	Left	Yes	0.835605299998861	0	614956	252
1203.1484375	0.835605299998861	taste	choicePhaseStart	3	179	59	foodImage.5	FOODEEG_Images\0107.jpg	YN	Left	Yes	0.835605299998861	0	616013	253
1203.974609375	0	taste	response	3	179	59	foodImage.5	FOODEEG_Images\0107.jpg	YN	Left	Yes	0.835605299998861	0	616436	234
1205.025390625	1	decision	trialStart	3	180	60	foodImage.48	FOODEEG_Images\0494.jpg	YN	Right	No	1.78192059999856	0	616974	251
1206.068359375	2	decision	foodImageDisplay	3	180	60	foodImage.48	FOODEEG_Images\0494.jpg	YN	Right	No	1.78192059999856	0	617508	252
1208.13671875	1.78192059999856	decision	choicePhaseStart	3	180	60	foodImage.48	FOODEEG_Images\0494.jpg	YN	Right	No	1.78192059999856	0	618567	253
1209.91015625	0	decision	response	3	180	60	foodImage.48	FOODEEG_Images\0494.jpg	YN	Right	No	1.78192059999856	0	619475	235
1211.953125	92.755859375	n/a	blockEnd	n/a	n/a	n/a	n/a	n/a	n/a	n/a	n/a	n/a	n/a	620521	254
1304.708984375	2	n/a	blockStart	4	n/a	n/a	n/a	n/a	n/a	n/a	n/a	n/a	n/a	668012	250
1306.7421875	1	decision	trialStart	4	181	1	foodImage.39	FOODEEG_Images\0367.jpg	YN	Right	No	1.02295080000113	0	669053	251
1307.78125	2	decision	foodImageDisplay	4	181	1	foodImage.39	FOODEEG_Images\0367.jpg	YN	Right	No	1.02295080000113	0	669585	252
1309.84375	1.02295080000113	decision	choicePhaseStart	4	181	1	foodImage.39	FOODEEG_Images\0367.jpg	YN	Right	No	1.02295080000113	0	670641	253
1310.859375	0	decision	response	4	181	1	foodImage.39	FOODEEG_Images\0367.jpg	YN	Right	No	1.02295080000113	0	671161	235
1311.90234375	1	decision	trialStart	4	182	2	foodImage.27	FOODEEG_Images\0263.jpg	NY	Right	Yes	0.976952599998185	0	671695	251
1312.947265625	2	decision	foodImageDisplay	4	182	2	foodImage.27	FOODEEG_Images\0263.jpg	NY	Right	Yes	0.976952599998185	0	672230	252
1315.01171875	0.976952599998185	decision	choicePhaseStart	4	182	2	foodImage.27	FOODEEG_Images\0263.jpg	NY	Right	Yes	0.976952599998185	0	673287	253
1315.978515625	0	decision	response	4	182	2	foodImage.27	FOODEEG_Images\0263.jpg	NY	Right	Yes	0.976952599998185	0	673782	235
1317.021484375	1	decision	trialStart	4	183	3	foodImage.25	FOODEEG_Images\0261.jpg	YN	Left	Yes	1.29229599999962	0	674316	251
1318.0625	2	decision	foodImageDisplay	4	183	3	foodImage.25	FOODEEG_Images\0261.jpg	YN	Left	Yes	1.29229599999962	0	674849	252
1320.125	1.29229599999962	decision	choicePhaseStart	4	183	3	foodImage.25	FOODEEG_Images\0261.jpg	YN	Left	Yes	1.29229599999962	0	675905	253
1321.41015625	0	decision	response	4	183	3	foodImage.25	FOODEEG_Images\0261.jpg	YN	Left	Yes	1.29229599999962	0	676563	234
1322.453125	1	taste	trialStart	4	184	4	foodImage.61	FOODEEG_Images\0640.jpg	NY	Left	No	1.10091639999882	0	677097	251
1323.494140625	2	taste	foodImageDisplay	4	184	4	foodImage.61	FOODEEG_Images\0640.jpg	NY	Left	No	1.10091639999882	0	677630	252
1325.55859375	1.10091639999882	taste	choicePhaseStart	4	184	4	foodImage.61	FOODEEG_Images\0640.jpg	NY	Left	No	1.10091639999882	0	678687	253
1326.650390625	0	taste	response	4	184	4	foodImage.61	FOODEEG_Images\0640.jpg	NY	Left	No	1.10091639999882	0	679246	234
1327.693359375	1	taste	trialStart	4	185	5	foodImage.6	FOODEEG_Images\0113.jpg	NY	Right	Yes	0.922452999999223	0	679780	251
1328.734375	2	taste	foodImageDisplay	4	185	5	foodImage.6	FOODEEG_Images\0113.jpg	NY	Right	Yes	0.922452999999223	0	680313	252
1330.798828125	0.922452999999223	taste	choicePhaseStart	4	185	5	foodImage.6	FOODEEG_Images\0113.jpg	NY	Right	Yes	0.922452999999223	0	681370	253
1331.71484375	0	taste	response	4	185	5	foodImage.6	FOODEEG_Images\0113.jpg	NY	Right	Yes	0.922452999999223	0	681839	235
1332.755859375	1	decision	trialStart	4	186	6	foodImage.99	FOODEEG_Images\0907.jpg	NY	Left	No	0.802597699999751	0	682372	251
1333.80078125	2	decision	foodImageDisplay	4	186	6	foodImage.99	FOODEEG_Images\0907.jpg	NY	Left	No	0.802597699999751	0	682907	252
1335.86328125	0.802597699999751	decision	choicePhaseStart	4	186	6	foodImage.99	FOODEEG_Images\0907.jpg	NY	Left	No	0.802597699999751	0	683963	253
1336.658203125	0	decision	response	4	186	6	foodImage.99	FOODEEG_Images\0907.jpg	NY	Left	No	0.802597699999751	0	684370	234
1337.703125	1	decision	trialStart	4	187	7	foodImage.34	FOODEEG_Images\0339.jpg	NY	Left	No	1.74938459999976	0	684905	251
1338.7578125	2	decision	foodImageDisplay	4	187	7	foodImage.34	FOODEEG_Images\0339.jpg	NY	Left	No	1.74938459999976	0	685445	252
1340.8203125	1.74938459999976	decision	choicePhaseStart	4	187	7	foodImage.34	FOODEEG_Images\0339.jpg	NY	Left	No	1.74938459999976	0	686501	253
1342.560546875	0	decision	response	4	187	7	foodImage.34	FOODEEG_Images\0339.jpg	NY	Left	No	1.74938459999976	0	687392	234
1343.60546875	1	decision	trialStart	4	188	8	foodImage.61	FOODEEG_Images\0640.jpg	YN	Right	No	1.15407200000118	0	687927	251
1344.6484375	2	decision	foodImageDisplay	4	188	8	foodImage.61	FOODEEG_Images\0640.jpg	YN	Right	No	1.15407200000118	0	688461	252
1346.712890625	1.15407200000118	decision	choicePhaseStart	4	188	8	foodImage.61	FOODEEG_Images\0640.jpg	YN	Right	No	1.15407200000118	0	689518	253
1347.857421875	0	decision	response	4	188	8	foodImage.61	FOODEEG_Images\0640.jpg	YN	Right	No	1.15407200000118	0	690104	235
1348.900390625	1	decision	trialStart	4	189	9	foodImage.109	FOODEEG_Images\0917.jpg	NY	Right	Yes	0.925461999999243	0	690638	251
1349.9453125	2	decision	foodImageDisplay	4	189	9	foodImage.109	FOODEEG_Images\0917.jpg	NY	Right	Yes	0.925461999999243	0	691173	252
1352.01171875	0.925461999999243	decision	choicePhaseStart	4	189	9	foodImage.109	FOODEEG_Images\0917.jpg	NY	Right	Yes	0.925461999999243	0	692231	253
1352.9296875	0	decision	response	4	189	9	foodImage.109	FOODEEG_Images\0917.jpg	NY	Right	Yes	0.925461999999243	0	692701	235
1353.97265625	1	decision	trialStart	4	190	10	foodImage.21	FOODEEG_Images\0234.jpg	YN	Left	Yes	0.954142200000206	0	693235	251
1355.052734375	2	decision	foodImageDisplay	4	190	10	foodImage.21	FOODEEG_Images\0234.jpg	YN	Left	Yes	0.954142200000206	0	693788	252
1357.1171875	0.954142200000206	decision	choicePhaseStart	4	190	10	foodImage.21	FOODEEG_Images\0234.jpg	YN	Left	Yes	0.954142200000206	0	694845	253
1358.064453125	0	decision	response	4	190	10	foodImage.21	FOODEEG_Images\0234.jpg	YN	Left	Yes	0.954142200000206	0	695330	234
1359.107421875	1	decision	trialStart	4	191	11	foodImage.119	FOODEEG_Images\0927.jpg	NY	Right	Yes	0.862572300000465	0	695864	251
1360.146484375	2	decision	foodImageDisplay	4	191	11	foodImage.119	FOODEEG_Images\0927.jpg	NY	Right	Yes	0.862572300000465	0	696396	252
1362.2109375	0.862572300000465	decision	choicePhaseStart	4	191	11	foodImage.119	FOODEEG_Images\0927.jpg	NY	Right	Yes	0.862572300000465	0	697453	253
1363.064453125	0	decision	response	4	191	11	foodImage.119	FOODEEG_Images\0927.jpg	NY	Right	Yes	0.862572300000465	0	697890	235
1364.11328125	1	taste	trialStart	4	192	12	foodImage.26	FOODEEG_Images\0262.jpg	NY	Left	No	0.838578699997015	0	698427	251
1365.15625	2	taste	foodImageDisplay	4	192	12	foodImage.26	FOODEEG_Images\0262.jpg	NY	Left	No	0.838578699997015	0	698961	252
1367.21875	0.838578699997015	taste	choicePhaseStart	4	192	12	foodImage.26	FOODEEG_Images\0262.jpg	NY	Left	No	0.838578699997015	0	700017	253
1368.048828125	0	taste	response	4	192	12	foodImage.26	FOODEEG_Images\0262.jpg	NY	Left	No	0.838578699997015	0	700442	234
1369.09375	1	decision	trialStart	4	193	13	foodImage.15	FOODEEG_Images\0189.jpg	YN	Right	No	1.27960650000023	0	700977	251
1370.154296875	2	decision	foodImageDisplay	4	193	13	foodImage.15	FOODEEG_Images\0189.jpg	YN	Right	No	1.27960650000023	0	701520	252
1372.216796875	1.27960650000023	decision	choicePhaseStart	4	193	13	foodImage.15	FOODEEG_Images\0189.jpg	YN	Right	No	1.27960650000023	0	702576	253
1373.48828125	0	decision	response	4	193	13	foodImage.15	FOODEEG_Images\0189.jpg	YN	Right	No	1.27960650000023	0	703227	235
1374.5546875	1	decision	trialStart	4	194	14	foodImage.42	FOODEEG_Images\0438.jpg	YN	Left	Yes	2.5397129999983	0	703773	251
1375.646484375	2	decision	foodImageDisplay	4	194	14	foodImage.42	FOODEEG_Images\0438.jpg	YN	Left	Yes	2.5397129999983	0	704332	252
1377.708984375	2.5397129999983	decision	choicePhaseStart	4	194	14	foodImage.42	FOODEEG_Images\0438.jpg	YN	Left	Yes	2.5397129999983	0	705388	253
1380.240234375	0	decision	response	4	194	14	foodImage.42	FOODEEG_Images\0438.jpg	YN	Left	Yes	2.5397129999983	0	706684	234
1381.283203125	1	decision	trialStart	4	195	15	foodImage.77	FOODEEG_Images\0771.jpg	NY	Right	Yes	0.984903700002178	0	707218	251
