onset	duration	trial_type	event_type	block	trial_total	trial_in_block	food_image_code	food_image_path	button_position	resp_position	resp_choice	choice_rt	resp_too_slow	sample	trigger
252.1484375	2	n/a	blockStart	1	n/a	n/a	n/a		n/a	n/a	n/a	n/a	n/a	129101	250
254.185546875	1	decision	trialStart	1	1	1	foodImage.98	FOODEEG_Images\0906.jpg	NY	Left	No	1.11659019999206	0	130144	251
255.23046875	2	decision	foodImageDisplay	1	1	1	foodImage.98	FOODEEG_Images\0906.jpg	NY	Left	No	1.11659019999206	0	130679	252
257.296875	1.11659019999206	decision	choicePhaseStart	1	1	1	foodImage.98	FOODEEG_Images\0906.jpg	NY	Left	No	1.11659019999206	0	131737	253
258.40625	0	decision	response	1	1	1	foodImage.98	FOODEEG_Images\0906.jpg	NY	Left	No	1.11659019999206	0	132305	234
259.533203125	1	decision	trialStart	1	2	2	foodImage.4	FOODEEG_Images\0065.jpg	YN	Left	Yes	0.847120100050233	0	132882	251
260.591796875	2	decision	foodImageDisplay	1	2	2	foodImage.4	FOODEEG_Images\0065.jpg	YN	Left	Yes	0.847120100050233	0	133424	252
262.654296875	0.847120100050233	decision	choicePhaseStart	1	2	2	foodImage.4	FOODEEG_Images\0065.jpg	YN	Left	Yes	0.847120100050233	0	134480	253
263.494140625	0	decision	response	1	2	2	foodImage.4	FOODEEG_Images\0065.jpg	YN	Left	Yes	0.847120100050233	0	134910	234
264.544921875	1	taste	trialStart	1	3	3	foodImage.8	FOODEEG_Images\0136.jpg	NY	Right	Yes	2.78939350007568	0	135448	251
265.587890625	2	taste	foodImageDisplay	1	3	3	foodImage.8	FOODEEG_Images\0136.jpg	NY	Right	Yes	2.78939350007568	0	135982	252
267.65234375	2.78939350007568	taste	choicePhaseStart	1	3	3	foodImage.8	FOODEEG_Images\0136.jpg	NY	Right	Yes	2.78939350007568	0	137039	253
270.4375	0	taste	response	1	3	3	foodImage.8	FOODEEG_Images\0136.jpg	NY	Right	Yes	2.78939350007568	0	138465	235
271.478515625	1	taste	trialStart	1	4	4	foodImage.90	FOODEEG_Images\0890.jpg	NY	Right	Yes	0.788635300006717	0	138998	251
272.53515625	2	taste	foodImageDisplay	1	4	4	foodImage.90	FOODEEG_Images\0890.jpg	NY	Right	Yes	0.788635300006717	0	139539	252
274.59765625	0.788635300006717	taste	choicePhaseStart	1	4	4	foodImage.90	FOODEEG_Images\0890.jpg	NY	Right	Yes	0.788635300006717	0	140595	253
275.380859375	0	taste	response	1	4	4	foodImage.90	FOODEEG_Images\0890.jpg	NY	Right	Yes	0.788635300006717	0	140996	235
276.423828125	1	taste	trialStart	1	5	5	foodImage.36	FOODEEG_Images\0352.jpg	NY	Right	Yes	0.819983300054446	0	141530	251
277.490234375	2	taste	foodImageDisplay	1	5	5	foodImage.36	FOODEEG_Images\0352.jpg	NY	Right	Yes	0.819983300054446	0	142076	252
279.5546875	0.819983300054446	taste	choicePhaseStart	1	5	5	foodImage.36	FOODEEG_Images\0352.jpg	NY	Right	Yes	0.819983300054446	0	143133	253
280.365234375	0	taste	response	1	5	5	foodImage.36	FOODEEG_Images\0352.jpg	NY	Right	Yes	0.819983300054446	0	143548	235
281.41796875	1	health	trialStart	1	6	6	foodImage.120	FOODEEG_Images\0928.jpg	YN	Right	No	1.31512739998288	0	144087	251
282.458984375	2	health	foodImageDisplay	1	6	6	foodImage.120	FOODEEG_Images\0928.jpg	YN	Right	No	1.31512739998288	0	144620	252
284.521484375	1.31512739998288	health	choicePhaseStart	1	6	6	foodImage.120	FOODEEG_Images\0928.jpg	YN	Right	No	1.31512739998288	0	145676	253
285.828125	0	health	response	1	6	6	foodImage.120	FOODEEG_Images\0928.jpg	YN	Right	No	1.31512739998288	0	146345	235
286.87109375	1	decision	trialStart	1	7	7	foodImage.21	FOODEEG_Images\0234.jpg	YN	Right	No	0.680698200012557	0	146879	251
287.927734375	2	decision	foodImageDisplay	1	7	7	foodImage.21	FOODEEG_Images\0234.jpg	YN	Right	No	0.680698200012557	0	147420	252
289.9921875	0.680698200012557	decision	choicePhaseStart	1	7	7	foodImage.21	FOODEEG_Images\0234.jpg	YN	Right	No	0.680698200012557	0	148477	253
290.66796875	0	decision	response	1	7	7	foodImage.21	FOODEEG_Images\0234.jpg	YN	Right	No	0.680698200012557	0	148823	235
291.712890625	1	taste	trialStart	1	8	8	foodImage.58	FOODEEG_Images\0605.jpg	YN	Left	Yes	1.33090559998527	0	149358	251
292.794921875	2	taste	foodImageDisplay	1	8	8	foodImage.58	FOODEEG_Images\0605.jpg	YN	Left	Yes	1.33090559998527	0	149912	252
294.857421875	1.33090559998527	taste	choicePhaseStart	1	8	8	foodImage.58	FOODEEG_Images\0605.jpg	YN	Left	Yes	1.33090559998527	0	150968	253
296.1796875	0	taste	response	1	8	8	foodImage.58	FOODEEG_Images\0605.jpg	YN	Left	Yes	1.33090559998527	0	151645	234
297.22265625	1	taste	trialStart	1	9	9	foodImage.44	FOODEEG_Images\0459.jpg	NY	Right	Yes	0.682412599911913	0	152179	251
298.271484375	2	taste	foodImageDisplay	1	9	9	foodImage.44	FOODEEG_Images\0459.jpg	NY	Right	Yes	0.682412599911913	0	152716	252
300.3359375	0.682412599911913	taste	choicePhaseStart	1	9	9	foodImage.44	FOODEEG_Images\0459.jpg	NY	Right	Yes	0.682412599911913	0	153773	253
301.01171875	0	taste	response	1	9	9	foodImage.44	FOODEEG_Images\0459.jpg	NY	Right	Yes	0.682412599911913	0	154119	235
302.0546875	1	health	trialStart	1	10	10	foodImage.34	FOODEEG_Images\0339.jpg	NY	Left	No	0.63474310003221	0	154653	251
303.115234375	2	health	foodImageDisplay	1	10	10	foodImage.34	FOODEEG_Images\0339.jpg	NY	Left	No	0.63474310003221	0	155196	252
305.177734375	0.63474310003221	health	choicePhaseStart	1	10	10	foodImage.34	FOODEEG_Images\0339.jpg	NY	Left	No	0.63474310003221	0	156252	253
305.802734375	0	health	response	1	10	10	foodImage.34	FOODEEG_Images\0339.jpg	NY	Left	No	0.63474310003221	0	156572	234
306.853515625	1	taste	trialStart	1	11	11	foodImage.4	FOODEEG_Images\0065.jpg	NY	Right	Yes	0.831104999990202	0	157110	251
307.91015625	2	taste	foodImageDisplay	1	11	11	foodImage.4	FOODEEG_Images\0065.jpg	NY	Right	Yes	0.831104999990202	0	157651	252
309.97265625	0.831104999990202	taste	choicePhaseStart	1	11	11	foodImage.4	FOODEEG_Images\0065.jpg	NY	Right	Yes	0.831104999990202	0	158707	253
310.794921875	0	taste	response	1	11	11	foodImage.4	FOODEEG_Images\0065.jpg	NY	Right	Yes	0.831104999990202	0	159128	235
311.837890625	1	health	trialStart	1	12	12	foodImage.79	FOODEEG_Images\0794.jpg	NY	Right	Yes	0.792946100002155	0	159662	251
312.8828125	2	health	foodImageDisplay	1	12	12	foodImage.79	FOODEEG_Images\0794.jpg	NY	Right	Yes	0.792946100002155	0	160197	252
314.947265625	0.792946100002155	health	choicePhaseStart	1	12	12	foodImage.79	FOODEEG_Images\0794.jpg	NY	Right	Yes	0.792946100002155	0	161254	253
315.73046875	0	health	response	1	12	12	foodImage.79	FOODEEG_Images\0794.jpg	NY	Right	Yes	0.792946100002155	0	161655	235
316.775390625	1	decision	trialStart	1	13	13	foodImage.1	FOODEEG_Images\0004.jpg	NY	Right	Yes	0.703049400006421	0	162190	251
317.818359375	2	decision	foodImageDisplay	1	13	13	foodImage.1	FOODEEG_Images\0004.jpg	NY	Right	Yes	0.703049400006421	0	162724	252
319.880859375	0.703049400006421	decision	choicePhaseStart	1	13	13	foodImage.1	FOODEEG_Images\0004.jpg	NY	Right	Yes	0.703049400006421	0	163780	253
320.578125	0	decision	response	1	13	13	foodImage.1	FOODEEG_Images\0004.jpg	NY	Right	Yes	0.703049400006421	0	164137	235
321.62109375	1	health	trialStart	1	14	14	foodImage.53	FOODEEG_Images\0547.jpg	NY	Left	No	0.734700500033796	0	164671	251
322.677734375	2	health	foodImageDisplay	1	14	14	foodImage.53	FOODEEG_Images\0547.jpg	NY	Left	No	0.734700500033796	0	165212	252
324.740234375	0.734700500033796	health	choicePhaseStart	1	14	14	foodImage.53	FOODEEG_Images\0547.jpg	NY	Left	No	0.734700500033796	0	166268	253
325.466796875	0	health	response	1	14	14	foodImage.53	FOODEEG_Images\0547.jpg	NY	Left	No	0.734700500033796	0	166640	234
326.51171875	1	taste	trialStart	1	15	15	foodImage.52	FOODEEG_Images\0539.jpg	YN	Left	Yes	0.706142399925739	0	167175	251
327.5703125	2	taste	foodImageDisplay	1	15	15	foodImage.52	FOODEEG_Images\0539.jpg	YN	Left	Yes	0.706142399925739	0	167717	252
329.6328125	0.706142399925739	taste	choicePhaseStart	1	15	15	foodImage.52	FOODEEG_Images\0539.jpg	YN	Left	Yes	0.706142399925739	0	168773	253
330.330078125	0	taste	response	1	15	15	foodImage.52	FOODEEG_Images\0539.jpg	YN	Left	Yes	0.706142399925739	0	169130	234
331.373046875	1	health	trialStart	1	16	16	foodImage.92	FOODEEG_Images\0900.jpg	YN	Left	Yes	1.15938530000858	0	169664	251
332.412109375	2	health	foodImageDisplay	1	16	16	foodImage.92	FOODEEG_Images\0900.jpg	YN	Left	Yes	1.15938530000858	0	170196	252
334.4765625	1.15938530000858	health	choicePhaseStart	1	16	16	foodImage.92	FOODEEG_Images\0900.jpg	YN	Left	Yes	1.15938530000858	0	171253	253
335.626953125	0	health	response	1	16	16	foodImage.92	FOODEEG_Images\0900.jpg	YN	Left	Yes	1.15938530000858	0	171842	234
336.669921875	1	decision	trialStart	1	17	17	foodImage.108	FOODEEG_Images\0916.jpg	NY	Left	No	1.11020959995221	0	172376	251
337.708984375	2	decision	foodImageDisplay	1	17	17	foodImage.108	FOODEEG_Images\0916.jpg	NY	Left	No	1.11020959995221	0	172908	252
339.771484375	1.11020959995221	decision	choicePhaseStart	1	17	17	foodImage.108	FOODEEG_Images\0916.jpg	NY	Left	No	1.11020959995221	0	173964	253
340.875	0	decision	response	1	17	17	foodImage.108	FOODEEG_Images\0916.jpg	NY	Left	No	1.11020959995221	0	174529	234
341.921875	1	health	trialStart	1	18	18	foodImage.52	FOODEEG_Images\0539.jpg	NY	Right	Yes	0.740684500080533	0	175065	251
343.005859375	2	health	foodImageDisplay	1	18	18	foodImage.52	FOODEEG_Images\0539.jpg	NY	Right	Yes	0.740684500080533	0	175620	252
345.076171875	0.740684500080533	health	choicePhaseStart	1	18	18	foodImage.52	FOODEEG_Images\0539.jpg	NY	Right	Yes	0.740684500080533	0	176680	253
345.810546875	0	health	response	1	18	18	foodImage.52	FOODEEG_Images\0539.jpg	NY	Right	Yes	0.740684500080533	0	177056	235
346.849609375	1	taste	trialStart	1	19	19	foodImage.88	FOODEEG_Images\0878.jpg	NY	Right	Yes	0.831859900034033	0	177588	251
347.908203125	2	taste	foodImageDisplay	1	19	19	foodImage.88	FOODEEG_Images\0878.jpg	NY	Right	Yes	0.831859900034033	0	178130	252
349.970703125	0.831859900034033	taste	choicePhaseStart	1	19	19	foodImage.88	FOODEEG_Images\0878.jpg	NY	Right	Yes	0.831859900034033	0	179186	253
350.79296875	0	taste	response	1	19	19	foodImage.88	FOODEEG_Images\0878.jpg	NY	Right	Yes	0.831859900034033	0	179607	235
351.8359375	1	decision	trialStart	1	20	20	foodImage.63	FOODEEG_Images\0645.jpg	YN	Left	Yes	0.720185799989849	0	180141	251
352.884765625	2	decision	foodImageDisplay	1	20	20	foodImage.63	FOODEEG_Images\0645.jpg	YN	Left	Yes	0.720185799989849	0	180678	252
354.947265625	0.720185799989849	decision	choicePhaseStart	1	20	20	foodImage.63	FOODEEG_Images\0645.jpg	YN	Left	Yes	0.720185799989849	0	181734	253
355.658203125	0	decision	response	1	20	20	foodImage.63	FOODEEG_Images\0645.jpg	YN	Left	Yes	0.720185799989849	0	182098	234
356.69921875	1	health	trialStart	1	21	21	foodImage.10	FOODEEG_Images\0145.jpg	NY	Left	No	1.26949500001501	0	182631	251
357.759765625	2	health	foodImageDisplay	1	21	21	foodImage.10	FOODEEG_Images\0145.jpg	NY	Left	No	1.26949500001501	0	183174	252
359.822265625	1.26949500001501	health	choicePhaseStart	1	21	21	foodImage.10	FOODEEG_Images\0145.jpg	NY	Left	No	1.26949500001501	0	184230	253
361.08203125	0	health	response	1	21	21	foodImage.10	FOODEEG_Images\0145.jpg	NY	Left	No	1.26949500001501	0	184875	234
362.123046875	1	health	trialStart	1	22	22	foodImage.96	FOODEEG_Images\0904.jpg	NY	Right	Yes	0.878707599942572	0	185408	251
363.1640625	2	health	foodImageDisplay	1	22	22	foodImage.96	FOODEEG_Images\0904.jpg	NY	Right	Yes	0.878707599942572	0	185941	252
365.2265625	0.878707599942572	health	choicePhaseStart	1	22	22	foodImage.96	FOODEEG_Images\0904.jpg	NY	Right	Yes	0.878707599942572	0	186997	253
366.09765625	0	health	response	1	22	22	foodImage.96	FOODEEG_Images\0904.jpg	NY	Right	Yes	0.878707599942572	0	187443	235
367.140625	1	health	trialStart	1	23	23	foodImage.16	FOODEEG_Images\0196.jpg	NY	Right	Yes	0.4953000000678	0	187977	251
368.197265625	2	health	foodImageDisplay	1	23	23	foodImage.16	FOODEEG_Images\0196.jpg	NY	Right	Yes	0.4953000000678	0	188518	252
370.259765625	0.4953000000678	health	choicePhaseStart	1	23	23	foodImage.16	FOODEEG_Images\0196.jpg	NY	Right	Yes	0.4953000000678	0	189574	253
370.744140625	0	health	response	1	23	23	foodImage.16	FOODEEG_Images\0196.jpg	NY	Right	Yes	0.4953000000678	0	189822	235
371.787109375	1	health	trialStart	1	24	24	foodImage.54	FOODEEG_Images\0560.jpg	YN	Left	Yes	0.771448799991049	0	190356	251
372.84375	2	health	foodImageDisplay	1	24	24	foodImage.54	FOODEEG_Images\0560.jpg	YN	Left	Yes	0.771448799991049	0	190897	252
374.908203125	0.771448799991049	health	choicePhaseStart	1	24	24	foodImage.54	FOODEEG_Images\0560.jpg	YN	Left	Yes	0.771448799991049	0	191954	253
375.671875	0	health	response	1	24	24	foodImage.54	FOODEEG_Images\0560.jpg	YN	Left	Yes	0.771448799991049	0	192345	234
376.71484375	1	health	trialStart	1	25	25	foodImage.69	FOODEEG_Images\0693.jpg	YN	Left	Yes	1.31522340001538	0	192879	251
377.76171875	2	health	foodImageDisplay	1	25	25	foodImage.69	FOODEEG_Images\0693.jpg	YN	Left	Yes	1.31522340001538	0	193415	252
379.822265625	1.31522340001538	health	choicePhaseStart	1	25	25	foodImage.69	FOODEEG_Images\0693.jpg	YN	Left	Yes	1.31522340001538	0	194470	253
381.12890625	0	health	response	1	25	25	foodImage.69	FOODEEG_Images\0693.jpg	YN	Left	Yes	1.31522340001538	0	195139	234
382.171875	1	decision	trialStart	1	26	26	foodImage.116	FOODEEG_Images\0924.jpg	YN	Right	No	0.920383099932224	0	195673	251
383.2109375	2	decision	foodImageDisplay	1	26	26	foodImage.116	FOODEEG_Images\0924.jpg	YN	Right	No	0.920383099932224	0	196205	252
385.2734375	0.920383099932224	decision	choicePhaseStart	1	26	26	foodImage.116	FOODEEG_Images\0924.jpg	YN	Right	No	0.920383099932224	0	197261	253
386.18359375	0	decision	response	1	26	26	foodImage.116	FOODEEG_Images\0924.jpg	YN	Right	No	0.920383099932224	0	197727	235
387.2265625	1	taste	trialStart	1	27	27	foodImage.91	FOODEEG_Images\0896.jpg	NY	Right	Yes	0.964496299973689	0	198261	251
388.287109375	2	taste	foodImageDisplay	1	27	27	foodImage.91	FOODEEG_Images\0896.jpg	NY	Right	Yes	0.964496299973689	0	198804	252
390.349609375	0.964496299973689	taste	choicePhaseStart	1	27	27	foodImage.91	FOODEEG_Images\0896.jpg	NY	Right	Yes	0.964496299973689	0	199860	253
391.3046875	0	taste	response	1	27	27	foodImage.91	FOODEEG_Images\0896.jpg	NY	Right	Yes	0.964496299973689	0	200349	235
392.345703125	1	taste	trialStart	1	28	28	foodImage.12	FOODEEG_Images\0181.jpg	YN	Left	Yes	0.622136399964802	0	200882	251
393.388671875	2	taste	foodImageDisplay	1	28	28	foodImage.12	FOODEEG_Images\0181.jpg	YN	Left	Yes	0.622136399964802	0	201416	252
395.44921875	0.622136399964802	taste	choicePhaseStart	1	28	28	foodImage.12	FOODEEG_Images\0181.jpg	YN	Left	Yes	0.622136399964802	0	202471	253
396.064453125	0	taste	response	1	28	28	foodImage.12	FOODEEG_Images\0181.jpg	YN	Left	Yes	0.622136399964802	0	202786	234
397.103515625	1	health	trialStart	1	29	29	foodImage.112	FOODEEG_Images\0920.jpg	NY	Right	Yes	1.03349879989401	0	203318	251
398.146484375	2	health	foodImageDisplay	1	29	29	foodImage.112	FOODEEG_Images\0920.jpg	NY	Right	Yes	1.03349879989401	0	203852	252
400.208984375	1.03349879989401	health	choicePhaseStart	1	29	29	foodImage.112	FOODEEG_Images\0920.jpg	NY	Right	Yes	1.03349879989401	0	204908	253
401.232421875	0	health	response	1	29	29	foodImage.112	FOODEEG_Images\0920.jpg	NY	Right	Yes	1.03349879989401	0	205432	235
402.271484375	1	taste	trialStart	1	30	30	foodImage.54	FOODEEG_Images\0560.jpg	NY	Right	Yes	0.501725999987684	0	205964	251
403.32421875	2	taste	foodImageDisplay	1	30	30	foodImage.54	FOODEEG_Images\0560.jpg	NY	Right	Yes	0.501725999987684	0	206503	252
405.38671875	0.501725999987684	taste	choicePhaseStart	1	30	30	foodImage.54	FOODEEG_Images\0560.jpg	NY	Right	Yes	0.501725999987684	0	207559	253
405.87890625	0	taste	response	1	30	30	foodImage.54	FOODEEG_Images\0560.jpg	NY	Right	Yes	0.501725999987684	0	207811	235
406.921875	1	decision	trialStart	1	31	31	foodImage.51	FOODEEG_Images\0536.jpg	NY	Right	Yes	0.768310899962671	0	208345	251
407.966796875	2	decision	foodImageDisplay	1	31	31	foodImage.51	FOODEEG_Images\0536.jpg	NY	Right	Yes	0.768310899962671	0	208880	252
410.029296875	0.768310899962671	decision	choicePhaseStart	1	31	31	foodImage.51	FOODEEG_Images\0536.jpg	NY	Right	Yes	0.768310899962671	0	209936	253
410.791015625	0	decision	response	1	31	31	foodImage.51	FOODEEG_Images\0536.jpg	NY	Right	Yes	0.768310899962671	0	210326	235
411.833984375	1	taste	trialStart	1	32	32	foodImage.69	FOODEEG_Images\0693.jpg	NY	Right	Yes	0.639875199995004	0	210860	251
412.8984375	2	taste	foodImageDisplay	1	32	32	foodImage.69	FOODEEG_Images\0693.jpg	NY	Right	Yes	0.639875199995004	0	211405	252
414.96484375	0.639875199995004	taste	choicePhaseStart	1	32	32	foodImage.69	FOODEEG_Images\0693.jpg	NY	Right	Yes	0.639875199995004	0	212463	253
415.599609375	0	taste	response	1	32	32	foodImage.69	FOODEEG_Images\0693.jpg	NY	Right	Yes	0.639875199995004	0	212788	235
416.638671875	1	taste	trialStart	1	33	33	foodImage.18	FOODEEG_Images\0202.jpg	NY	Right	Yes	2.30993340001442	0	213320	251
417.6953125	2	taste	foodImageDisplay	1	33	33	foodImage.18	FOODEEG_Images\0202.jpg	NY	Right	Yes	2.30993340001442	0	213861	252
419.763671875	2.30993340001442	taste	choicePhaseStart	1	33	33	foodImage.18	FOODEEG_Images\0202.jpg	NY	Right	Yes	2.30993340001442	0	214920	253
422.0625	0	taste	response	1	33	33	foodImage.18	FOODEEG_Images\0202.jpg	NY	Right	Yes	2.30993340001442	0	216097	235
423.10546875	1	taste	trialStart	1	34	34	foodImage.19	FOODEEG_Images\0225.jpg	YN	Left	Yes	1.4102203999646	0	216631	251
424.150390625	2	taste	foodImageDisplay	1	34	34	foodImage.19	FOODEEG_Images\0225.jpg	YN	Left	Yes	1.4102203999646	0	217166	252
426.212890625	1.4102203999646	taste	choicePhaseStart	1	34	34	foodImage.19	FOODEEG_Images\0225.jpg	YN	Left	Yes	1.4102203999646	0	218222	253
427.615234375	0	taste	response	1	34	34	foodImage.19	FOODEEG_Images\0225.jpg	YN	Left	Yes	1.4102203999646	0	218940	234
428.65625	1	decision	trialStart	1	35	35	foodImage.45	FOODEEG_Images\0478.jpg	NY	Right	Yes	0.964743799995631	0	219473	251
429.701171875	2	decision	foodImageDisplay	1	35	35	foodImage.45	FOODEEG_Images\0478.jpg	NY	Right	Yes	0.964743799995631	0	220008	252
431.763671875	0.964743799995631	decision	choicePhaseStart	1	35	35	foodImage.45	FOODEEG_Images\0478.jpg	NY	Right	Yes	0.964743799995631	0	221064	253
432.71875	0	decision	response	1	35	35	foodImage.45	FOODEEG_Images\0478.jpg	NY	Right	Yes	0.964743799995631	0	221553	235
433.76171875	1	taste	trialStart	1	36	36	foodImage.84	FOODEEG_Images\0830.jpg	NY	Right	Yes	0.677692800061777	0	222087	251
434.8203125	2	taste	foodImageDisplay	1	36	36	foodImage.84	FOODEEG_Images\0830.jpg	NY	Right	Yes	0.677692800061777	0	222629	252
436.8828125	0.677692800061777	taste	choicePhaseStart	1	36	36	foodImage.84	FOODEEG_Images\0830.jpg	NY	Right	Yes	0.677692800061777	0	223685	253
437.55078125	0	taste	response	1	36	36	foodImage.84	FOODEEG_Images\0830.jpg	NY	Right	Yes	0.677692800061777	0	224027	235
438.591796875	1	decision	trialStart	1	37	37	foodImage.95	FOODEEG_Images\0903.jpg	YN	Right	No	0.976677300059237	0	224560	251
439.6328125	2	decision	foodImageDisplay	1	37	37	foodImage.95	FOODEEG_Images\0903.jpg	YN	Right	No	0.976677300059237	0	225093	252
441.6953125	0.976677300059237	decision	choicePhaseStart	1	37	37	foodImage.95	FOODEEG_Images\0903.jpg	YN	Right	No	0.976677300059237	0	226149	253
442.662109375	0	decision	response	1	37	37	foodImage.95	FOODEEG_Images\0903.jpg	YN	Right	No	0.976677300059237	0	226644	235
443.705078125	1	health	trialStart	1	38	38	foodImage.45	FOODEEG_Images\0478.jpg	YN	Left	Yes	0.69814930006396	0	227178	251
444.75	2	health	foodImageDisplay	1	38	38	foodImage.45	FOODEEG_Images\0478.jpg	YN	Left	Yes	0.69814930006396	0	227713	252
446.8125	0.69814930006396	health	choicePhaseStart	1	38	38	foodImage.45	FOODEEG_Images\0478.jpg	YN	Left	Yes	0.69814930006396	0	228769	253
447.501953125	0	health	response	1	38	38	foodImage.45	FOODEEG_Images\0478.jpg	YN	Left	Yes	0.69814930006396	0	229122	234
448.544921875	1	decision	trialStart	1	39	39	foodImage.76	FOODEEG_Images\0766.jpg	NY	Right	Yes	0.643102300004102	0	229656	251
449.58984375	2	decision	foodImageDisplay	1	39	39	foodImage.76	FOODEEG_Images\0766.jpg	NY	Right	Yes	0.643102300004102	0	230191	252
451.65234375	0.643102300004102	decision	choicePhaseStart	1	39	39	foodImage.76	FOODEEG_Images\0766.jpg	NY	Right	Yes	0.643102300004102	0	231247	253
452.28515625	0	decision	response	1	39	39	foodImage.76	FOODEEG_Images\0766.jpg	NY	Right	Yes	0.643102300004102	0	231571	235
453.328125	1	decision	trialStart	1	40	40	foodImage.32	FOODEEG_Images\0319.jpg	NY	Right	Yes	0.644806899945252	0	232105	251
454.37109375	2	decision	foodImageDisplay	1	40	40	foodImage.32	FOODEEG_Images\0319.jpg	NY	Right	Yes	0.644806899945252	0	232639	252
456.431640625	0.644806899945252	decision	choicePhaseStart	1	40	40	foodImage.32	FOODEEG_Images\0319.jpg	NY	Right	Yes	0.644806899945252	0	233694	253
457.068359375	0	decision	response	1	40	40	foodImage.32	FOODEEG_Images\0319.jpg	NY	Right	Yes	0.644806899945252	0	234020	235
458.111328125	1	health	trialStart	1	41	41	foodImage.44	FOODEEG_Images\0459.jpg	YN	Left	Yes	0.635408599977382	0	234554	251
459.177734375	2	health	foodImageDisplay	1	41	41	foodImage.44	FOODEEG_Images\0459.jpg	YN	Left	Yes	0.635408599977382	0	235100	252
461.240234375	0.635408599977382	health	choicePhaseStart	1	41	41	foodImage.44	FOODEEG_Images\0459.jpg	YN	Left	Yes	0.635408599977382	0	236156	253
461.869140625	0	health	response	1	41	41	foodImage.44	FOODEEG_Images\0459.jpg	YN	Left	Yes	0.635408599977382	0	236478	234
462.91015625	1	health	trialStart	1	42	42	foodImage.5	FOODEEG_Images\0107.jpg	NY	Left	No	1.42226740007754	0	237011	251
463.96875	2	health	foodImageDisplay	1	42	42	foodImage.5	FOODEEG_Images\0107.jpg	NY	Left	No	1.42226740007754	0	237553	252
466.03125	1.42226740007754	health	choicePhaseStart	1	42	42	foodImage.5	FOODEEG_Images\0107.jpg	NY	Left	No	1.42226740007754	0	238609	253
467.4453125	0	health	response	1	42	42	foodImage.5	FOODEEG_Images\0107.jpg	NY	Left	No	1.42226740007754	0	239333	234
468.494140625	1	health	trialStart	1	43	43	foodImage.11	FOODEEG_Images\0180.jpg	NY	Left	No	1.65790009999182	0	239870	251
469.533203125	2	health	foodImageDisplay	1	43	43	foodImage.11	FOODEEG_Images\0180.jpg	NY	Left	No	1.65790009999182	0	240402	252
471.595703125	1.65790009999182	health	choicePhaseStart	1	43	43	foodImage.11	FOODEEG_Images\0180.jpg	NY	Left	No	1.65790009999182	0	241458	253
473.244140625	0	health	response	1	43	43	foodImage.11	FOODEEG_Images\0180.jpg	NY	Left	No	1.65790009999182	0	242302	234
474.287109375	1	health	trialStart	1	44	44	foodImage.49	FOODEEG_Images\0515.jpg	YN	Right	No	1.94525320001412	0	242836	251
475.330078125	2	health	foodImageDisplay	1	44	44	foodImage.49	FOODEEG_Images\0515.jpg	YN	Right	No	1.94525320001412	0	243370	252
477.396484375	1.94525320001412	health	choicePhaseStart	1	44	44	foodImage.49	FOODEEG_Images\0515.jpg	YN	Right	No	1.94525320001412	0	244428	253
479.33203125	0	health	response	1	44	44	foodImage.49	FOODEEG_Images\0515.jpg	YN	Right	No	1.94525320001412	0	245419	235
480.375	1	taste	trialStart	1	45	45	foodImage.22	FOODEEG_Images\0236.jpg	NY	Right	Yes	0.654148100060411	0	245953	251
481.41796875	2	taste	foodImageDisplay	1	45	45	foodImage.22	FOODEEG_Images\0236.jpg	NY	Right	Yes	0.654148100060411	0	246487	252
483.478515625	0.654148100060411	taste	choicePhaseStart	1	45	45	foodImage.22	FOODEEG_Images\0236.jpg	NY	Right	Yes	0.654148100060411	0	247542	253
484.125	0	taste	response	1	45	45	foodImage.22	FOODEEG_Images\0236.jpg	NY	Right	Yes	0.654148100060411	0	247873	235
485.166015625	1	health	trialStart	1	46	46	foodImage.85	FOODEEG_Images\0841.jpg	NY	Left	No	1.07464040000923	0	248406	251
486.2265625	2	health	foodImageDisplay	1	46	46	foodImage.85	FOODEEG_Images\0841.jpg	NY	Left	No	1.07464040000923	0	248949	252
488.2890625	1.07464040000923	health	choicePhaseStart	1	46	46	foodImage.85	FOODEEG_Images\0841.jpg	NY	Left	No	1.07464040000923	0	250005	253
489.35546875	0	health	response	1	46	46	foodImage.85	FOODEEG_Images\0841.jpg	NY	Left	No	1.07464040000923	0	250551	234
490.3984375	1	taste	trialStart	1	47	47	foodImage.109	FOODEEG_Images\0917.jpg	NY	Left	No	1.51280409994069	0	251085	251
491.4375	2	taste	foodImageDisplay	1	47	47	foodImage.109	FOODEEG_Images\0917.jpg	NY	Left	No	1.51280409994069	0	251617	252
493.5	1.51280409994069	taste	choicePhaseStart	1	47	47	foodImage.109	FOODEEG_Images\0917.jpg	NY	Left	No	1.51280409994069	0	252673	253
495.00390625	0	taste	response	1	47	47	foodImage.109	FOODEEG_Images\0917.jpg	NY	Left	No	1.51280409994069	0	253443	234
496.046875	1	decision	trialStart	1	48	48	foodImage.78	FOODEEG_Images\0787.jpg	NY	Right	Yes	0.640314599964768	0	253977	251
497.09375	2	decision	foodImageDisplay	1	48	48	foodImage.78	FOODEEG_Images\0787.jpg	NY	Right	Yes	0.640314599964768	0	254513	252
499.15625	0.640314599964768	decision	choicePhaseStart	1	48	48	foodImage.78	FOODEEG_Images\0787.jpg	NY	Right	Yes	0.640314599964768	0	255569	253
499.787109375	0	decision	response	1	48	48	foodImage.78	FOODEEG_Images\0787.jpg	NY	Right	Yes	0.640314599964768	0	255892	235
500.830078125	1	decision	trialStart	1	49	49	foodImage.104	FOODEEG_Images\0912.jpg	YN	Left	Yes	0.752997000003234	0	256426	251
501.869140625	2	decision	foodImageDisplay	1	49	49	foodImage.104	FOODEEG_Images\0912.jpg	YN	Left	Yes	0.752997000003234	0	256958	252
503.931640625	0.752997000003234	decision	choicePhaseStart	1	49	49	foodImage.104	FOODEEG_Images\0912.jpg	YN	Left	Yes	0.752997000003234	0	258014	253
504.67578125	0	decision	response	1	49	49	foodImage.104	FOODEEG_Images\0912.jpg	YN	Left	Yes	0.752997000003234	0	258395	234
505.716796875	1	decision	trialStart	1	50	50	foodImage.56	FOODEEG_Images\0586.jpg	NY	Right	Yes	1.1743628999684	0	258928	251
506.759765625	2	decision	foodImageDisplay	1	50	50	foodImage.56	FOODEEG_Images\0586.jpg	NY	Right	Yes	1.1743628999684	0	259462	252
508.8203125	1.1743628999684	decision	choicePhaseStart	1	50	50	foodImage.56	FOODEEG_Images\0586.jpg	NY	Right	Yes	1.1743628999684	0	260517	253
509.986328125	0	decision	response	1	50	50	foodImage.56	FOODEEG_Images\0586.jpg	NY	Right	Yes	1.1743628999684	0	261114	235
511.029296875	1	decision	trialStart	1	51	51	foodImage.80	FOODEEG_Images\0796.jpg	YN	Left	Yes	0.61463329999242	0	261648	251
512.095703125	2	decision	foodImageDisplay	1	51	51	foodImage.80	FOODEEG_Images\0796.jpg	YN	Left	Yes	0.61463329999242	0	262194	252
514.158203125	0.61463329999242	decision	choicePhaseStart	1	51	51	foodImage.80	FOODEEG_Images\0796.jpg	YN	Left	Yes	0.61463329999242	0	263250	253
514.763671875	0	decision	response	1	51	51	foodImage.80	FOODEEG_Images\0796.jpg	YN	Left	Yes	0.61463329999242	0	263560	234
515.8125	1	health	trialStart	1	52	52	foodImage.7	FOODEEG_Images\0116.jpg	YN	Right	No	0.646132200025022	0	264097	251
516.85546875	2	health	foodImageDisplay	1	52	52	foodImage.7	FOODEEG_Images\0116.jpg	YN	Right	No	0.646132200025022	0	264631	252
518.916015625	0.646132200025022	health	choicePhaseStart	1	52	52	foodImage.7	FOODEEG_Images\0116.jpg	YN	Right	No	0.646132200025022	0	265686	253
519.5546875	0	health	response	1	52	52	foodImage.7	FOODEEG_Images\0116.jpg	YN	Right	No	0.646132200025022	0	266013	235
520.59765625	1	decision	trialStart	1	53	53	foodImage.86	FOODEEG_Images\0844.jpg	YN	Right	No	0.917359700077213	0	266547	251
521.65625	2	decision	foodImageDisplay	1	53	53	foodImage.86	FOODEEG_Images\0844.jpg	YN	Right	No	0.917359700077213	0	267089	252
523.71875	0.917359700077213	decision	choicePhaseStart	1	53	53	foodImage.86	FOODEEG_Images\0844.jpg	YN	Right	No	0.917359700077213	0	268145	253
524.626953125	0	decision	response	1	53	53	foodImage.86	FOODEEG_Images\0844.jpg	YN	Right	No	0.917359700077213	0	268610	235
525.66796875	1	taste	trialStart	1	54	54	foodImage.96	FOODEEG_Images\0904.jpg	YN	Left	Yes	0.851637899992056	0	269143	251
526.705078125	2	taste	foodImageDisplay	1	54	54	foodImage.96	FOODEEG_Images\0904.jpg	YN	Left	Yes	0.851637899992056	0	269674	252
528.767578125	0.851637899992056	taste	choicePhaseStart	1	54	54	foodImage.96	FOODEEG_Images\0904.jpg	YN	Left	Yes	0.851637899992056	0	270730	253
529.609375	0	taste	response	1	54	54	foodImage.96	FOODEEG_Images\0904.jpg	YN	Left	Yes	0.851637899992056	0	271161	234
530.654296875	1	taste	trialStart	1	55	55	foodImage.64	FOODEEG_Images\0647.jpg	NY	Right	Yes	0.879974599927664	0	271696	251
531.708984375	2	taste	foodImageDisplay	1	55	55	foodImage.64	FOODEEG_Images\0647.jpg	NY	Right	Yes	0.879974599927664	0	272236	252
533.771484375	0.879974599927664	taste	choicePhaseStart	1	55	55	foodImage.64	FOODEEG_Images\0647.jpg	NY	Right	Yes	0.879974599927664	0	273292	253
534.642578125	0	taste	response	1	55	55	foodImage.64	FOODEEG_Images\0647.jpg	NY	Right	Yes	0.879974599927664	0	273738	235
535.685546875	1	taste	trialStart	1	56	56	foodImage.59	FOODEEG_Images\0607.jpg	NY	Right	Yes	0.775487800012343	0	274272	251
536.732421875	2	taste	foodImageDisplay	1	56	56	foodImage.59	FOODEEG_Images\0607.jpg	NY	Right	Yes	0.775487800012343	0	274808	252
538.794921875	0.775487800012343	taste	choicePhaseStart	1	56	56	foodImage.59	FOODEEG_Images\0607.jpg	NY	Right	Yes	0.775487800012343	0	275864	253
539.5625	0	taste	response	1	56	56	foodImage.59	FOODEEG_Images\0607.jpg	NY	Right	Yes	0.775487800012343	0	276257	235
540.60546875	1	decision	trialStart	1	57	57	foodImage.58	FOODEEG_Images\0605.jpg	YN	Left	Yes	1.42865270003676	0	276791	251
541.6640625	2	decision	foodImageDisplay	1	57	57	foodImage.58	FOODEEG_Images\0605.jpg	YN	Left	Yes	1.42865270003676	0	277333	252
543.7265625	1.42865270003676	decision	choicePhaseStart	1	57	57	foodImage.58	FOODEEG_Images\0605.jpg	YN	Left	Yes	1.42865270003676	0	278389	253
545.146484375	0	decision	response	1	57	57	foodImage.58	FOODEEG_Images\0605.jpg	YN	Left	Yes	1.42865270003676	0	279116	234
546.1875	1	taste	trialStart	1	58	58	foodImage.65	FOODEEG_Images\0658.jpg	YN	Left	Yes	0.839273000019602	0	279649	251
547.23046875	2	taste	foodImageDisplay	1	58	58	foodImage.65	FOODEEG_Images\0658.jpg	YN	Left	Yes	0.839273000019602	0	280183	252
549.29296875	0.839273000019602	taste	choicePhaseStart	1	58	58	foodImage.65	FOODEEG_Images\0658.jpg	YN	Left	Yes	0.839273000019602	0	281239	253
550.12109375	0	taste	response	1	58	58	foodImage.65	FOODEEG_Images\0658.jpg	YN	Left	Yes	0.839273000019602	0	281663	234
551.16796875	1	health	trialStart	1	59	59	foodImage.81	FOODEEG_Images\0797.jpg	NY	Right	Yes	0.537430800031871	0	282199	251
552.2265625	2	health	foodImageDisplay	1	59	59	foodImage.81	FOODEEG_Images\0797.jpg	NY	Right	Yes	0.537430800031871	0	282741	252
554.2890625	0.537430800031871	health	choicePhaseStart	1	59	59	foodImage.81	FOODEEG_Images\0797.jpg	NY	Right	Yes	0.537430800031871	0	283797	253
554.818359375	0	health	response	1	59	59	foodImage.81	FOODEEG_Images\0797.jpg	NY	Right	Yes	0.537430800031871	0	284068	235
555.859375	1	health	trialStart	1	60	60	foodImage.82	FOODEEG_Images\0805.jpg	YN	Left	Yes	0.556993999984115	0	284601	251
556.912109375	2	health	foodImageDisplay	1	60	60	foodImage.82	FOODEEG_Images\0805.jpg	YN	Left	Yes	0.556993999984115	0	285140	252
558.974609375	0.556993999984115	health	choicePhaseStart	1	60	60	foodImage.82	FOODEEG_Images\0805.jpg	YN	Left	Yes	0.556993999984115	0	286196	253
559.521484375	0	health	response	1	60	60	foodImage.82	FOODEEG_Images\0805.jpg	YN	Left	Yes	0.556993999984115	0	286476	234
561.5625	14.349609375	n/a	blockEnd	n/a	n/a	n/a	n/a		n/a	n/a	n/a	n/a	n/a	287521	254
575.912109375	2	n/a	blockStart	2	n/a	n/a	n/a		n/a	n/a	n/a	n/a	n/a	294868	250
577.943359375	1	taste	trialStart	2	61	1	foodImage.108	FOODEEG_Images\0916.jpg	YN	Right	No	0.877461900003254	0	295908	251
578.98046875	2	taste	foodImageDisplay	2	61	1	foodImage.108	FOODEEG_Images\0916.jpg	YN	Right	No	0.877461900003254	0	296439	252
581.04296875	0.877461900003254	taste	choicePhaseStart	2	61	1	foodImage.108	FOODEEG_Images\0916.jpg	YN	Right	No	0.877461900003254	0	297495	253
581.912109375	0	taste	response	2	61	1	foodImage.108	FOODEEG_Images\0916.jpg	YN	Right	No	0.877461900003254	0	297940	235
582.955078125	1	taste	trialStart	2	62	2	foodImage.29	FOODEEG_Images\0278.jpg	NY	Right	Yes	0.685496999998577	0	298474	251
583.99609375	2	taste	foodImageDisplay	2	62	2	foodImage.29	FOODEEG_Images\0278.jpg	NY	Right	Yes	0.685496999998577	0	299007	252
586.05859375	0.685496999998577	taste	choicePhaseStart	2	62	2	foodImage.29	FOODEEG_Images\0278.jpg	NY	Right	Yes	0.685496999998577	0	300063	253
586.736328125	0	taste	response	2	62	2	foodImage.29	FOODEEG_Images\0278.jpg	NY	Right	Yes	0.685496999998577	0	300410	235
587.779296875	1	health	trialStart	2	63	3	foodImage.2	FOODEEG_Images\0028.jpg	YN	Right	No	0.707965399953537	0	300944	251
588.822265625	2	health	foodImageDisplay	2	63	3	foodImage.2	FOODEEG_Images\0028.jpg	YN	Right	No	0.707965399953537	0	301478	252
590.884765625	0.707965399953537	health	choicePhaseStart	2	63	3	foodImage.2	FOODEEG_Images\0028.jpg	YN	Right	No	0.707965399953537	0	302534	253
591.583984375	0	health	response	2	63	3	foodImage.2	FOODEEG_Images\0028.jpg	YN	Right	No	0.707965399953537	0	302892	235
592.626953125	1	taste	trialStart	2	64	4	foodImage.94	FOODEEG_Images\0902.jpg	NY	Right	Yes	0.569835999980569	0	303426	251
593.666015625	2	taste	foodImageDisplay	2	64	4	foodImage.94	FOODEEG_Images\0902.jpg	NY	Right	Yes	0.569835999980569	0	303958	252
595.728515625	0.569835999980569	taste	choicePhaseStart	2	64	4	foodImage.94	FOODEEG_Images\0902.jpg	NY	Right	Yes	0.569835999980569	0	305014	253
596.287109375	0	taste	response	2	64	4	foodImage.94	FOODEEG_Images\0902.jpg	NY	Right	Yes	0.569835999980569	0	305300	235
597.3359375	1	decision	trialStart	2	65	5	foodImage.71	FOODEEG_Images\0713.jpg	NY	Right	Yes	0.814861900056712	0	305837	251
598.37890625	2	decision	foodImageDisplay	2	65	5	foodImage.71	FOODEEG_Images\0713.jpg	NY	Right	Yes	0.814861900056712	0	306371	252
600.44140625	0.814861900056712	decision	choicePhaseStart	2	65	5	foodImage.71	FOODEEG_Images\0713.jpg	NY	Right	Yes	0.814861900056712	0	307427	253
601.248046875	0	decision	response	2	65	5	foodImage.71	FOODEEG_Images\0713.jpg	NY	Right	Yes	0.814861900056712	0	307840	235
602.296875	1	health	trialStart	2	66	6	foodImage.74	FOODEEG_Images\0752.jpg	NY	Right	Yes	0.619810400065035	0	308377	251
603.341796875	2	health	foodImageDisplay	2	66	6	foodImage.74	FOODEEG_Images\0752.jpg	NY	Right	Yes	0.619810400065035	0	308912	252
605.404296875	0.619810400065035	health	choicePhaseStart	2	66	6	foodImage.74	FOODEEG_Images\0752.jpg	NY	Right	Yes	0.619810400065035	0	309968	253
606.015625	0	health	response	2	66	6	foodImage.74	FOODEEG_Images\0752.jpg	NY	Right	Yes	0.619810400065035	0	310281	235
607.05859375	1	decision	trialStart	2	67	7	foodImage.117	FOODEEG_Images\0925.jpg	NY	Left	No	1.13534679997247	0	310815	251
608.099609375	2	decision	foodImageDisplay	2	67	7	foodImage.117	FOODEEG_Images\0925.jpg	NY	Left	No	1.13534679997247	0	311348	252
610.162109375	1.13534679997247	decision	choicePhaseStart	2	67	7	foodImage.117	FOODEEG_Images\0925.jpg	NY	Left	No	1.13534679997247	0	312404	253
611.287109375	0	decision	response	2	67	7	foodImage.117	FOODEEG_Images\0925.jpg	NY	Left	No	1.13534679997247	0	312980	234
612.330078125	1	health	trialStart	2	68	8	foodImage.38	FOODEEG_Images\0365.jpg	YN	Left	Yes	0.74401929997839	0	313514	251
613.369140625	2	health	foodImageDisplay	2	68	8	foodImage.38	FOODEEG_Images\0365.jpg	YN	Left	Yes	0.74401929997839	0	314046	252
615.431640625	0.74401929997839	health	choicePhaseStart	2	68	8	foodImage.38	FOODEEG_Images\0365.jpg	YN	Left	Yes	0.74401929997839	0	315102	253
616.166015625	0	health	response	2	68	8	foodImage.38	FOODEEG_Images\0365.jpg	YN	Left	Yes	0.74401929997839	0	315478	234
617.2109375	1	health	trialStart	2	69	9	foodImage.18	FOODEEG_Images\0202.jpg	YN	Left	Yes	0.681539200013503	0	316013	251
618.271484375	2	health	foodImageDisplay	2	69	9	foodImage.18	FOODEEG_Images\0202.jpg	YN	Left	Yes	0.681539200013503	0	316556	252
620.333984375	0.681539200013503	health	choicePhaseStart	2	69	9	foodImage.18	FOODEEG_Images\0202.jpg	YN	Left	Yes	0.681539200013503	0	317612	253
621.0078125	0	health	response	2	69	9	foodImage.18	FOODEEG_Images\0202.jpg	YN	Left	Yes	0.681539200013503	0	317957	234
622.0546875	1	decision	trialStart	2	70	10	foodImage.46	FOODEEG_Images\0479.jpg	YN	Right	No	1.30821180006023	0	318493	251
623.115234375	2	decision	foodImageDisplay	2	70	10	foodImage.46	FOODEEG_Images\0479.jpg	YN	Right	No	1.30821180006023	0	319036	252
625.1796875	1.30821180006023	decision	choicePhaseStart	2	70	10	foodImage.46	FOODEEG_Images\0479.jpg	YN	Right	No	1.30821180006023	0	320093	253
626.478515625	0	decision	response	2	70	10	foodImage.46	FOODEEG_Images\0479.jpg	YN	Right	No	1.30821180006023	0	320758	235
627.521484375	1	decision	trialStart	2	71	11	foodImage.90	FOODEEG_Images\0890.jpg	NY	Right	Yes	0.778122600051574	0	321292	251
628.59765625	2	decision	foodImageDisplay	2	71	11	foodImage.90	FOODEEG_Images\0890.jpg	NY	Right	Yes	0.778122600051574	0	321843	252
630.66015625	0.778122600051574	decision	choicePhaseStart	2	71	11	foodImage.90	FOODEEG_Images\0890.jpg	NY	Right	Yes	0.778122600051574	0	322899	253
631.4296875	0	decision	response	2	71	11	foodImage.90	FOODEEG_Images\0890.jpg	NY	Right	Yes	0.778122600051574	0	323293	235
632.47265625	1	health	trialStart	2	72	12	foodImage.73	FOODEEG_Images\0717.jpg	NY	Right	Yes	1.36553940002341	0	323827	251
633.53125	2	health	foodImageDisplay	2	72	12	foodImage.73	FOODEEG_Images\0717.jpg	NY	Right	Yes	1.36553940002341	0	324369	252
635.59375	1.36553940002341	health	choicePhaseStart	2	72	12	foodImage.73	FOODEEG_Images\0717.jpg	NY	Right	Yes	1.36553940002341	0	325425	253
636.951171875	0	health	response	2	72	12	foodImage.73	FOODEEG_Images\0717.jpg	NY	Right	Yes	1.36553940002341	0	326120	235
637.994140625	1	health	trialStart	2	73	13	foodImage.99	FOODEEG_Images\0907.jpg	NY	Left	No	2.21522390004247	0	326654	251
639.033203125	2	health	foodImageDisplay	2	73	13	foodImage.99	FOODEEG_Images\0907.jpg	NY	Left	No	2.21522390004247	0	327186	252
641.095703125	2.21522390004247	health	choicePhaseStart	2	73	13	foodImage.99	FOODEEG_Images\0907.jpg	NY	Left	No	2.21522390004247	0	328242	253
643.302734375	0	health	response	2	73	13	foodImage.99	FOODEEG_Images\0907.jpg	NY	Left	No	2.21522390004247	0	329372	234
644.34375	1	decision	trialStart	2	74	14	foodImage.94	FOODEEG_Images\0902.jpg	YN	Left	Yes	0.976283399970271	0	329905	251
645.3828125	2	decision	foodImageDisplay	2	74	14	foodImage.94	FOODEEG_Images\0902.jpg	YN	Left	Yes	0.976283399970271	0	330437	252
647.4453125	0.976283399970271	decision	choicePhaseStart	2	74	14	foodImage.94	FOODEEG_Images\0902.jpg	YN	Left	Yes	0.976283399970271	0	331493	253
648.4140625	0	decision	response	2	74	14	foodImage.94	FOODEEG_Images\0902.jpg	YN	Left	Yes	0.976283399970271	0	331989	234
649.455078125	1	decision	trialStart	2	75	15	foodImage.67	FOODEEG_Images\0679.jpg	YN	Left	Yes	0.656181899947114	0	332522	251
650.51953125	2	decision	foodImageDisplay	2	75	15	foodImage.67	FOODEEG_Images\0679.jpg	YN	Left	Yes	0.656181899947114	0	333067	252
652.58203125	0.656181899947114	decision	choicePhaseStart	2	75	15	foodImage.67	FOODEEG_Images\0679.jpg	YN	Left	Yes	0.656181899947114	0	334123	253
653.23046875	0	decision	response	2	75	15	foodImage.67	FOODEEG_Images\0679.jpg	YN	Left	Yes	0.656181899947114	0	334455	234
654.2734375	1	health	trialStart	2	76	16	foodImage.80	FOODEEG_Images\0796.jpg	YN	Left	Yes	0.57370589999482	0	334989	251
655.330078125	2	health	foodImageDisplay	2	76	16	foodImage.80	FOODEEG_Images\0796.jpg	YN	Left	Yes	0.57370589999482	0	335530	252
657.392578125	0.57370589999482	health	choicePhaseStart	2	76	16	foodImage.80	FOODEEG_Images\0796.jpg	YN	Left	Yes	0.57370589999482	0	336586	253
657.95703125	0	health	response	2	76	16	foodImage.80	FOODEEG_Images\0796.jpg	YN	Left	Yes	0.57370589999482	0	336875	234
659.001953125	1	taste	trialStart	2	77	17	foodImage.53	FOODEEG_Images\0547.jpg	NY	Right	Yes	2.75629359995946	0	337410	251
660.060546875	2	taste	foodImageDisplay	2	77	17	foodImage.53	FOODEEG_Images\0547.jpg	NY	Right	Yes	2.75629359995946	0	337952	252
662.123046875	2.75629359995946	taste	choicePhaseStart	2	77	17	foodImage.53	FOODEEG_Images\0547.jpg	NY	Right	Yes	2.75629359995946	0	339008	253
664.869140625	0	taste	response	2	77	17	foodImage.53	FOODEEG_Images\0547.jpg	NY	Right	Yes	2.75629359995946	0	340414	235
665.912109375	1	decision	trialStart	2	78	18	foodImage.19	FOODEEG_Images\0225.jpg	NY	Right	Yes	1.34171210008208	0	340948	251
666.953125	2	decision	foodImageDisplay	2	78	18	foodImage.19	FOODEEG_Images\0225.jpg	NY	Right	Yes	1.34171210008208	0	341481	252
669.015625	1.34171210008208	decision	choicePhaseStart	2	78	18	foodImage.19	FOODEEG_Images\0225.jpg	NY	Right	Yes	1.34171210008208	0	342537	253
670.349609375	0	decision	response	2	78	18	foodImage.19	FOODEEG_Images\0225.jpg	NY	Right	Yes	1.34171210008208	0	343220	235
671.388671875	1	taste	trialStart	2	79	19	foodImage.110	FOODEEG_Images\0918.jpg	NY	Right	Yes	0.907783999922685	0	343752	251
672.427734375	2	taste	foodImageDisplay	2	79	19	foodImage.110	FOODEEG_Images\0918.jpg	NY	Right	Yes	0.907783999922685	0	344284	252
674.490234375	0.907783999922685	taste	choicePhaseStart	2	79	19	foodImage.110	FOODEEG_Images\0918.jpg	NY	Right	Yes	0.907783999922685	0	345340	253
675.388671875	0	taste	response	2	79	19	foodImage.110	FOODEEG_Images\0918.jpg	NY	Right	Yes	0.907783999922685	0	345800	235
676.431640625	1	taste	trialStart	2	80	20	foodImage.25	FOODEEG_Images\0261.jpg	YN	Left	Yes	0.580861700000241	0	346334	251
677.474609375	2	taste	foodImageDisplay	2	80	20	foodImage.25	FOODEEG_Images\0261.jpg	YN	Left	Yes	0.580861700000241	0	346868	252
679.537109375	0.580861700000241	taste	choicePhaseStart	2	80	20	foodImage.25	FOODEEG_Images\0261.jpg	YN	Left	Yes	0.580861700000241	0	347924	253
680.109375	0	taste	response	2	80	20	foodImage.25	FOODEEG_Images\0261.jpg	YN	Left	Yes	0.580861700000241	0	348217	234
681.150390625	1	taste	trialStart	2	81	21	foodImage.20	FOODEEG_Images\0226.jpg	YN	Left	Yes	0.97427540004719	0	348750	251
682.193359375	2	taste	foodImageDisplay	2	81	21	foodImage.20	FOODEEG_Images\0226.jpg	YN	Left	Yes	0.97427540004719	0	349284	252
684.255859375	0.97427540004719	taste	choicePhaseStart	2	81	21	foodImage.20	FOODEEG_Images\0226.jpg	YN	Left	Yes	0.97427540004719	0	350340	253
685.220703125	0	taste	response	2	81	21	foodImage.20	FOODEEG_Images\0226.jpg	YN	Left	Yes	0.97427540004719	0	350834	234
686.263671875	1	taste	trialStart	2	82	22	foodImage.7	FOODEEG_Images\0116.jpg	NY	Right	Yes	0.99705849995371	0	351368	251
687.3046875	2	taste	foodImageDisplay	2	82	22	foodImage.7	FOODEEG_Images\0116.jpg	NY	Right	Yes	0.99705849995371	0	351901	252
689.3671875	0.99705849995371	taste	choicePhaseStart	2	82	22	foodImage.7	FOODEEG_Images\0116.jpg	NY	Right	Yes	0.99705849995371	0	352957	253
690.35546875	0	taste	response	2	82	22	foodImage.7	FOODEEG_Images\0116.jpg	NY	Right	Yes	0.99705849995371	0	353463	235
691.404296875	1	health	trialStart	2	83	23	foodImage.83	FOODEEG_Images\0827.jpg	YN	Left	Yes	0.641663599992171	0	354000	251
692.462890625	2	health	foodImageDisplay	2	83	23	foodImage.83	FOODEEG_Images\0827.jpg	YN	Left	Yes	0.641663599992171	0	354542	252
694.5234375	0.641663599992171	health	choicePhaseStart	2	83	23	foodImage.83	FOODEEG_Images\0827.jpg	YN	Left	Yes	0.641663599992171	0	355597	253
695.15625	0	health	response	2	83	23	foodImage.83	FOODEEG_Images\0827.jpg	YN	Left	Yes	0.641663599992171	0	355921	234
696.205078125	1	health	trialStart	2	84	24	foodImage.20	FOODEEG_Images\0226.jpg	YN	Left	Yes	2.03167319996282	0	356458	251
697.248046875	2	health	foodImageDisplay	2	84	24	foodImage.20	FOODEEG_Images\0226.jpg	YN	Left	Yes	2.03167319996282	0	356992	252
699.310546875	2.03167319996282	health	choicePhaseStart	2	84	24	foodImage.20	FOODEEG_Images\0226.jpg	YN	Left	Yes	2.03167319996282	0	358048	253
701.33203125	0	health	response	2	84	24	foodImage.20	FOODEEG_Images\0226.jpg	YN	Left	Yes	2.03167319996282	0	359083	234
702.375	1	taste	trialStart	2	85	25	foodImage.23	FOODEEG_Images\0244.jpg	YN	Left	Yes	0.507137999986298	0	359617	251
703.41796875	2	taste	foodImageDisplay	2	85	25	foodImage.23	FOODEEG_Images\0244.jpg	YN	Left	Yes	0.507137999986298	0	360151	252
705.48046875	0.507137999986298	taste	choicePhaseStart	2	85	25	foodImage.23	FOODEEG_Images\0244.jpg	YN	Left	Yes	0.507137999986298	0	361207	253
705.978515625	0	taste	response	2	85	25	foodImage.23	FOODEEG_Images\0244.jpg	YN	Left	Yes	0.507137999986298	0	361462	234
707.0234375	1	health	trialStart	2	86	26	foodImage.32	FOODEEG_Images\0319.jpg	NY	Left	No	1.5074054999277	0	361997	251
708.06640625	2	health	foodImageDisplay	2	86	26	foodImage.32	FOODEEG_Images\0319.jpg	NY	Left	No	1.5074054999277	0	362531	252
710.12890625	1.5074054999277	health	choicePhaseStart	2	86	26	foodImage.32	FOODEEG_Images\0319.jpg	NY	Left	No	1.5074054999277	0	363587	253
711.626953125	0	health	response	2	86	26	foodImage.32	FOODEEG_Images\0319.jpg	NY	Left	No	1.5074054999277	0	364354	234
712.671875	1	health	trialStart	2	87	27	foodImage.68	FOODEEG_Images\0685.jpg	NY	Left	No	1.20948469999712	0	364889	251
713.75	2	health	foodImageDisplay	2	87	27	foodImage.68	FOODEEG_Images\0685.jpg	NY	Left	No	1.20948469999712	0	365441	252
715.8125	1.20948469999712	health	choicePhaseStart	2	87	27	foodImage.68	FOODEEG_Images\0685.jpg	NY	Left	No	1.20948469999712	0	366497	253
717.01171875	0	health	response	2	87	27	foodImage.68	FOODEEG_Images\0685.jpg	NY	Left	No	1.20948469999712	0	367111	234
718.0546875	1	decision	trialStart	2	88	28	foodImage.112	FOODEEG_Images\0920.jpg	YN	Right	No	1.10433489992283	0	367645	251
719.091796875	2	decision	foodImageDisplay	2	88	28	foodImage.112	FOODEEG_Images\0920.jpg	YN	Right	No	1.10433489992283	0	368176	252
721.154296875	1.10433489992283	decision	choicePhaseStart	2	88	28	foodImage.112	FOODEEG_Images\0920.jpg	YN	Right	No	1.10433489992283	0	369232	253
722.25	0	decision	response	2	88	28	foodImage.112	FOODEEG_Images\0920.jpg	YN	Right	No	1.10433489992283	0	369793	235
723.29296875	1	taste	trialStart	2	89	29	foodImage.117	FOODEEG_Images\0925.jpg	NY	Right	Yes	1.10140610008966	0	370327	251
724.330078125	2	taste	foodImageDisplay	2	89	29	foodImage.117	FOODEEG_Images\0925.jpg	NY	Right	Yes	1.10140610008966	0	370858	252
726.392578125	1.10140610008966	taste	choicePhaseStart	2	89	29	foodImage.117	FOODEEG_Images\0925.jpg	NY	Right	Yes	1.10140610008966	0	371914	253
727.484375	0	taste	response	2	89	29	foodImage.117	FOODEEG_Images\0925.jpg	NY	Right	Yes	1.10140610008966	0	372473	235
728.52734375	1	taste	trialStart	2	90	30	foodImage.34	FOODEEG_Images\0339.jpg	NY	Right	Yes	0.749041399918497	0	373007	251
729.5859375	2	taste	foodImageDisplay	2	90	30	foodImage.34	FOODEEG_Images\0339.jpg	NY	Right	Yes	0.749041399918497	0	373549	252
731.6484375	0.749041399918497	taste	choicePhaseStart	2	90	30	foodImage.34	FOODEEG_Images\0339.jpg	NY	Right	Yes	0.749041399918497	0	374605	253
732.38671875	0	taste	response	2	90	30	foodImage.34	FOODEEG_Images\0339.jpg	NY	Right	Yes	0.749041399918497	0	374983	235
733.4296875	1	taste	trialStart	2	91	31	foodImage.33	FOODEEG_Images\0329.jpg	NY	Right	Yes	0.62761219998356	0	375517	251
734.47265625	2	taste	foodImageDisplay	2	91	31	foodImage.33	FOODEEG_Images\0329.jpg	NY	Right	Yes	0.62761219998356	0	376051	252
736.53515625	0.62761219998356	taste	choicePhaseStart	2	91	31	foodImage.33	FOODEEG_Images\0329.jpg	NY	Right	Yes	0.62761219998356	0	377107	253
737.154296875	0	taste	response	2	91	31	foodImage.33	FOODEEG_Images\0329.jpg	NY	Right	Yes	0.62761219998356	0	377424	235
738.197265625	1	health	trialStart	2	92	32	foodImage.101	FOODEEG_Images\0909.jpg	YN	Left	Yes	0.952489700051956	0	377958	251
739.236328125	2	health	foodImageDisplay	2	92	32	foodImage.101	FOODEEG_Images\0909.jpg	YN	Left	Yes	0.952489700051956	0	378490	252
741.298828125	0.952489700051956	health	choicePhaseStart	2	92	32	foodImage.101	FOODEEG_Images\0909.jpg	YN	Left	Yes	0.952489700051956	0	379546	253
742.2421875	0	health	response	2	92	32	foodImage.101	FOODEEG_Images\0909.jpg	YN	Left	Yes	0.952489700051956	0	380029	234
743.28515625	1	decision	trialStart	2	93	33	foodImage.113	FOODEEG_Images\0921.jpg	NY	Left	No	1.67843110009562	0	380563	251
744.326171875	2	decision	foodImageDisplay	2	93	33	foodImage.113	FOODEEG_Images\0921.jpg	NY	Left	No	1.67843110009562	0	381096	252
746.388671875	1.67843110009562	decision	choicePhaseStart	2	93	33	foodImage.113	FOODEEG_Images\0921.jpg	NY	Left	No	1.67843110009562	0	382152	253
748.05859375	0	decision	response	2	93	33	foodImage.113	FOODEEG_Images\0921.jpg	NY	Left	No	1.67843110009562	0	383007	234
749.099609375	1	decision	trialStart	2	94	34	foodImage.5	FOODEEG_Images\0107.jpg	NY	Right	Yes	1.47180629998911	0	383540	251
750.158203125	2	decision	foodImageDisplay	2	94	34	foodImage.5	FOODEEG_Images\0107.jpg	NY	Right	Yes	1.47180629998911	0	384082	252
752.21875	1.47180629998911	decision	choicePhaseStart	2	94	34	foodImage.5	FOODEEG_Images\0107.jpg	NY	Right	Yes	1.47180629998911	0	385137	253
753.681640625	0	decision	response	2	94	34	foodImage.5	FOODEEG_Images\0107.jpg	NY	Right	Yes	1.47180629998911	0	385886	235
754.724609375	1	taste	trialStart	2	95	35	foodImage.66	FOODEEG_Images\0676.jpg	NY	Right	Yes	0.652506899903528	0	386420	251
755.767578125	2	taste	foodImageDisplay	2	95	35	foodImage.66	FOODEEG_Images\0676.jpg	NY	Right	Yes	0.652506899903528	0	386954	252
757.830078125	0.652506899903528	taste	choicePhaseStart	2	95	35	foodImage.66	FOODEEG_Images\0676.jpg	NY	Right	Yes	0.652506899903528	0	388010	253
758.474609375	0	taste	response	2	95	35	foodImage.66	FOODEEG_Images\0676.jpg	NY	Right	Yes	0.652506899903528	0	388340	235
759.517578125	1	decision	trialStart	2	96	36	foodImage.84	FOODEEG_Images\0830.jpg	NY	Right	Yes	0.92541419994086	0	388874	251
760.57421875	2	decision	foodImageDisplay	2	96	36	foodImage.84	FOODEEG_Images\0830.jpg	NY	Right	Yes	0.92541419994086	0	389415	252
762.63671875	0.92541419994086	decision	choicePhaseStart	2	96	36	foodImage.84	FOODEEG_Images\0830.jpg	NY	Right	Yes	0.92541419994086	0	390471	253
763.552734375	0	decision	response	2	96	36	foodImage.84	FOODEEG_Images\0830.jpg	NY	Right	Yes	0.92541419994086	0	390940	235
764.595703125	1	health	trialStart	2	97	37	foodImage.111	FOODEEG_Images\0919.jpg	NY	Left	No	1.08289110008627	0	391474	251
765.640625	2	health	foodImageDisplay	2	97	37	foodImage.111	FOODEEG_Images\0919.jpg	NY	Left	No	1.08289110008627	0	392009	252
767.703125	1.08289110008627	health	choicePhaseStart	2	97	37	foodImage.111	FOODEEG_Images\0919.jpg	NY	Left	No	1.08289110008627	0	393065	253
768.77734375	0	health	response	2	97	37	foodImage.111	FOODEEG_Images\0919.jpg	NY	Left	No	1.08289110008627	0	393615	234
769.818359375	1	taste	trialStart	2	98	38	foodImage.74	FOODEEG_Images\0752.jpg	NY	Right	Yes	1.45224330003839	0	394148	251
770.86328125	2	taste	foodImageDisplay	2	98	38	foodImage.74	FOODEEG_Images\0752.jpg	NY	Right	Yes	1.45224330003839	0	394683	252
772.92578125	1.45224330003839	taste	choicePhaseStart	2	98	38	foodImage.74	FOODEEG_Images\0752.jpg	NY	Right	Yes	1.45224330003839	0	395739	253
774.369140625	0	taste	response	2	98	38	foodImage.74	FOODEEG_Images\0752.jpg	NY	Right	Yes	1.45224330003839	0	396478	235
775.412109375	1	health	trialStart	2	99	39	foodImage.25	FOODEEG_Images\0261.jpg	NY	Right	Yes	0.923065399983898	0	397012	251
776.455078125	2	health	foodImageDisplay	2	99	39	foodImage.25	FOODEEG_Images\0261.jpg	NY	Right	Yes	0.923065399983898	0	397546	252
778.517578125	0.923065399983898	health	choicePhaseStart	2	99	39	foodImage.25	FOODEEG_Images\0261.jpg	NY	Right	Yes	0.923065399983898	0	398602	253
779.431640625	0	health	response	2	99	39	foodImage.25	FOODEEG_Images\0261.jpg	NY	Right	Yes	0.923065399983898	0	399070	235
780.4765625	1	taste	trialStart	2	100	40	foodImage.42	FOODEEG_Images\0438.jpg	NY	Right	Yes	1.19633079995401	0	399605	251
781.56640625	2	taste	foodImageDisplay	2	100	40	foodImage.42	FOODEEG_Images\0438.jpg	NY	Right	Yes	1.19633079995401	0	400163	252
783.62890625	1.19633079995401	taste	choicePhaseStart	2	100	40	foodImage.42	FOODEEG_Images\0438.jpg	NY	Right	Yes	1.19633079995401	0	401219	253
784.81640625	0	taste	response	2	100	40	foodImage.42	FOODEEG_Images\0438.jpg	NY	Right	Yes	1.19633079995401	0	401827	235
785.859375	1	decision	trialStart	2	101	41	foodImage.54	FOODEEG_Images\0560.jpg	YN	Left	Yes	1.26998420001473	0	402361	251
786.91796875	2	decision	foodImageDisplay	2	101	41	foodImage.54	FOODEEG_Images\0560.jpg	YN	Left	Yes	1.26998420001473	0	402903	252
788.98046875	1.26998420001473	decision	choicePhaseStart	2	101	41	foodImage.54	FOODEEG_Images\0560.jpg	YN	Left	Yes	1.26998420001473	0	403959	253
790.240234375	0	decision	response	2	101	41	foodImage.54	FOODEEG_Images\0560.jpg	YN	Left	Yes	1.26998420001473	0	404604	234
791.283203125	1	decision	trialStart	2	102	42	foodImage.6	FOODEEG_Images\0113.jpg	YN	Left	Yes	0.633032099925913	0	405138	251
792.322265625	2	decision	foodImageDisplay	2	102	42	foodImage.6	FOODEEG_Images\0113.jpg	YN	Left	Yes	0.633032099925913	0	405670	252
794.384765625	0.633032099925913	decision	choicePhaseStart	2	102	42	foodImage.6	FOODEEG_Images\0113.jpg	YN	Left	Yes	0.633032099925913	0	406726	253
795.0078125	0	decision	response	2	102	42	foodImage.6	FOODEEG_Images\0113.jpg	YN	Left	Yes	0.633032099925913	0	407045	234
796.05078125	1	health	trialStart	2	103	43	foodImage.89	FOODEEG_Images\0881.jpg	YN	Left	Yes	1.18754119996447	0	407579	251
797.107421875	2	health	foodImageDisplay	2	103	43	foodImage.89	FOODEEG_Images\0881.jpg	YN	Left	Yes	1.18754119996447	0	408120	252
799.173828125	1.18754119996447	health	choicePhaseStart	2	103	43	foodImage.89	FOODEEG_Images\0881.jpg	YN	Left	Yes	1.18754119996447	0	409178	253
800.3515625	0	health	response	2	103	43	foodImage.89	FOODEEG_Images\0881.jpg	YN	Left	Yes	1.18754119996447	0	409781	234
801.392578125	1	decision	trialStart	2	104	44	foodImage.101	FOODEEG_Images\0909.jpg	YN	Right	No	0.868289200006984	0	410314	251
802.4296875	2	decision	foodImageDisplay	2	104	44	foodImage.101	FOODEEG_Images\0909.jpg	YN	Right	No	0.868289200006984	0	410845	252
804.4921875	0.868289200006984	decision	choicePhaseStart	2	104	44	foodImage.101	FOODEEG_Images\0909.jpg	YN	Right	No	0.868289200006984	0	411901	253
805.3515625	0	decision	response	2	104	44	foodImage.101	FOODEEG_Images\0909.jpg	YN	Right	No	0.868289200006984	0	412341	235
806.39453125	1	decision	trialStart	2	105	45	foodImage.83	FOODEEG_Images\0827.jpg	NY	Right	Yes	1.15138719999231	0	412875	251
807.451171875	2	decision	foodImageDisplay	2	105	45	foodImage.83	FOODEEG_Images\0827.jpg	NY	Right	Yes	1.15138719999231	0	413416	252
809.51171875	1.15138719999231	decision	choicePhaseStart	2	105	45	foodImage.83	FOODEEG_Images\0827.jpg	NY	Right	Yes	1.15138719999231	0	414471	253
810.654296875	0	decision	response	2	105	45	foodImage.83	FOODEEG_Images\0827.jpg	NY	Right	Yes	1.15138719999231	0	415056	235
811.697265625	1	taste	trialStart	2	106	46	foodImage.57	FOODEEG_Images\0587.jpg	NY	Right	Yes	0.954977200017311	0	415590	251
812.7421875	2	taste	foodImageDisplay	2	106	46	foodImage.57	FOODEEG_Images\0587.jpg	NY	Right	Yes	0.954977200017311	0	416125	252
814.8046875	0.954977200017311	taste	choicePhaseStart	2	106	46	foodImage.57	FOODEEG_Images\0587.jpg	NY	Right	Yes	0.954977200017311	0	417181	253
815.75	0	taste	response	2	106	46	foodImage.57	FOODEEG_Images\0587.jpg	NY	Right	Yes	0.954977200017311	0	417665	235
816.79296875	1	decision	trialStart	2	107	47	foodImage.12	FOODEEG_Images\0181.jpg	NY	Right	Yes	1.13568509998731	0	418199	251
817.833984375	2	decision	foodImageDisplay	2	107	47	foodImage.12	FOODEEG_Images\0181.jpg	NY	Right	Yes	1.13568509998731	0	418732	252
819.896484375	1.13568509998731	decision	choicePhaseStart	2	107	47	foodImage.12	FOODEEG_Images\0181.jpg	NY	Right	Yes	1.13568509998731	0	419788	253
821.0234375	0	decision	response	2	107	47	foodImage.12	FOODEEG_Images\0181.jpg	NY	Right	Yes	1.13568509998731	0	420365	235
822.06640625	1	decision	trialStart	2	108	48	foodImage.39	FOODEEG_Images\0367.jpg	YN	Left	Yes	1.8898073999444	0	420899	251
823.103515625	2	decision	foodImageDisplay	2	108	48	foodImage.39	FOODEEG_Images\0367.jpg	YN	Left	Yes	1.8898073999444	0	421430	252
825.166015625	1.8898073999444	decision	choicePhaseStart	2	108	48	foodImage.39	FOODEEG_Images\0367.jpg	YN	Left	Yes	1.8898073999444	0	422486	253
827.046875	0	decision	response	2	108	48	foodImage.39	FOODEEG_Images\0367.jpg	YN	Left	Yes	1.8898073999444	0	423449	234
828.08984375	1	decision	trialStart	2	109	49	foodImage.36	FOODEEG_Images\0352.jpg	NY	Right	Yes	0.608450700063258	0	423983	251
829.14453125	2	decision	foodImageDisplay	2	109	49	foodImage.36	FOODEEG_Images\0352.jpg	NY	Right	Yes	0.608450700063258	0	424523	252
831.20703125	0.608450700063258	decision	choicePhaseStart	2	109	49	foodImage.36	FOODEEG_Images\0352.jpg	NY	Right	Yes	0.608450700063258	0	425579	253
831.806640625	0	decision	response	2	109	49	foodImage.36	FOODEEG_Images\0352.jpg	NY	Right	Yes	0.608450700063258	0	425886	235
832.849609375	1	taste	trialStart	2	110	50	foodImage.13	FOODEEG_Images\0183.jpg	NY	Right	Yes	0.724295100080781	0	426420	251
833.892578125	2	taste	foodImageDisplay	2	110	50	foodImage.13	FOODEEG_Images\0183.jpg	NY	Right	Yes	0.724295100080781	0	426954	252
835.955078125	0.724295100080781	taste	choicePhaseStart	2	110	50	foodImage.13	FOODEEG_Images\0183.jpg	NY	Right	Yes	0.724295100080781	0	428010	253
836.669921875	0	taste	response	2	110	50	foodImage.13	FOODEEG_Images\0183.jpg	NY	Right	Yes	0.724295100080781	0	428376	235
837.724609375	1	health	trialStart	2	111	51	foodImage.61	FOODEEG_Images\0640.jpg	YN	Left	Yes	0.553101100027561	0	428916	251
838.767578125	2	health	foodImageDisplay	2	111	51	foodImage.61	FOODEEG_Images\0640.jpg	YN	Left	Yes	0.553101100027561	0	429450	252
840.83203125	0.553101100027561	health	choicePhaseStart	2	111	51	foodImage.61	FOODEEG_Images\0640.jpg	YN	Left	Yes	0.553101100027561	0	430507	253
841.375	0	health	response	2	111	51	foodImage.61	FOODEEG_Images\0640.jpg	YN	Left	Yes	0.553101100027561	0	430785	234
842.416015625	1	health	trialStart	2	112	52	foodImage.66	FOODEEG_Images\0676.jpg	YN	Right	No	1.68763079994824	0	431318	251
843.45703125	2	health	foodImageDisplay	2	112	52	foodImage.66	FOODEEG_Images\0676.jpg	YN	Right	No	1.68763079994824	0	431851	252
845.51953125	1.68763079994824	health	choicePhaseStart	2	112	52	foodImage.66	FOODEEG_Images\0676.jpg	YN	Right	No	1.68763079994824	0	432907	253
847.197265625	0	health	response	2	112	52	foodImage.66	FOODEEG_Images\0676.jpg	YN	Right	No	1.68763079994824	0	433766	235
848.244140625	1	health	trialStart	2	113	53	foodImage.72	FOODEEG_Images\0714.jpg	YN	Left	Yes	0.775695100077428	0	434302	251
849.2890625	2	health	foodImageDisplay	2	113	53	foodImage.72	FOODEEG_Images\0714.jpg	YN	Left	Yes	0.775695100077428	0	434837	252
851.3515625	0.775695100077428	health	choicePhaseStart	2	113	53	foodImage.72	FOODEEG_Images\0714.jpg	YN	Left	Yes	0.775695100077428	0	435893	253
852.1171875	0	health	response	2	113	53	foodImage.72	FOODEEG_Images\0714.jpg	YN	Left	Yes	0.775695100077428	0	436285	234
853.162109375	1	health	trialStart	2	114	54	foodImage.48	FOODEEG_Images\0494.jpg	YN	Right	No	0.81497920001857	0	436820	251
854.201171875	2	health	foodImageDisplay	2	114	54	foodImage.48	FOODEEG_Images\0494.jpg	YN	Right	No	0.81497920001857	0	437352	252
856.263671875	0.81497920001857	health	choicePhaseStart	2	114	54	foodImage.48	FOODEEG_Images\0494.jpg	YN	Right	No	0.81497920001857	0	438408	253
857.0703125	0	health	response	2	114	54	foodImage.48	FOODEEG_Images\0494.jpg	YN	Right	No	0.81497920001857	0	438821	235
858.11328125	1	decision	trialStart	2	115	55	foodImage.110	FOODEEG_Images\0918.jpg	YN	Left	Yes	0.674317099968903	0	439355	251
859.150390625	2	decision	foodImageDisplay	2	115	55	foodImage.110	FOODEEG_Images\0918.jpg	YN	Left	Yes	0.674317099968903	0	439886	252
861.212890625	0.674317099968903	decision	choicePhaseStart	2	115	55	foodImage.110	FOODEEG_Images\0918.jpg	YN	Left	Yes	0.674317099968903	0	440942	253
861.876953125	0	decision	response	2	115	55	foodImage.110	FOODEEG_Images\0918.jpg	YN	Left	Yes	0.674317099968903	0	441282	234
862.923828125	1	taste	trialStart	2	116	56	foodImage.95	FOODEEG_Images\0903.jpg	NY	Left	No	1.23293039994314	0	441818	251
863.9765625	2	taste	foodImageDisplay	2	116	56	foodImage.95	FOODEEG_Images\0903.jpg	NY	Left	No	1.23293039994314	0	442357	252
866.0390625	1.23293039994314	taste	choicePhaseStart	2	116	56	foodImage.95	FOODEEG_Images\0903.jpg	NY	Left	No	1.23293039994314	0	443413	253
867.26171875	0	taste	response	2	116	56	foodImage.95	FOODEEG_Images\0903.jpg	NY	Left	No	1.23293039994314	0	444039	234
868.3046875	1	decision	trialStart	2	117	57	foodImage.11	FOODEEG_Images\0180.jpg	YN	Left	Yes	1.10564740002155	0	444573	251
869.34765625	2	decision	foodImageDisplay	2	117	57	foodImage.11	FOODEEG_Images\0180.jpg	YN	Left	Yes	1.10564740002155	0	445107	252
871.412109375	1.10564740002155	decision	choicePhaseStart	2	117	57	foodImage.11	FOODEEG_Images\0180.jpg	YN	Left	Yes	1.10564740002155	0	446164	253
872.509765625	0	decision	response	2	117	57	foodImage.11	FOODEEG_Images\0180.jpg	YN	Left	Yes	1.10564740002155	0	446726	234
873.552734375	1	decision	trialStart	2	118	58	foodImage.96	FOODEEG_Images\0904.jpg	NY	Right	Yes	1.3757163999835	0	447260	251
874.58984375	2	decision	foodImageDisplay	2	118	58	foodImage.96	FOODEEG_Images\0904.jpg	NY	Right	Yes	1.3757163999835	0	447791	252
876.65234375	1.3757163999835	decision	choicePhaseStart	2	118	58	foodImage.96	FOODEEG_Images\0904.jpg	NY	Right	Yes	1.3757163999835	0	448847	253
878.021484375	0	decision	response	2	118	58	foodImage.96	FOODEEG_Images\0904.jpg	NY	Right	Yes	1.3757163999835	0	449548	235
879.0625	1	taste	trialStart	2	119	59	foodImage.40	FOODEEG_Images\0373.jpg	NY	Right	Yes	0.788062200066634	0	450081	251
880.107421875	2	taste	foodImageDisplay	2	119	59	foodImage.40	FOODEEG_Images\0373.jpg	NY	Right	Yes	0.788062200066634	0	450616	252
882.169921875	0.788062200066634	taste	choicePhaseStart	2	119	59	foodImage.40	FOODEEG_Images\0373.jpg	NY	Right	Yes	0.788062200066634	0	451672	253
882.94921875	0	taste	response	2	119	59	foodImage.40	FOODEEG_Images\0373.jpg	NY	Right	Yes	0.788062200066634	0	452071	235
883.9921875	1	health	trialStart	2	120	60	foodImage.28	FOODEEG_Images\0273.jpg	YN	Left	Yes	0.652056399965659	0	452605	251
885.03515625	2	health	foodImageDisplay	2	120	60	foodImage.28	FOODEEG_Images\0273.jpg	YN	Left	Yes	0.652056399965659	0	453139	252
887.09765625	0.652056399965659	health	choicePhaseStart	2	120	60	foodImage.28	FOODEEG_Images\0273.jpg	YN	Left	Yes	0.652056399965659	0	454195	253
887.740234375	0	health	response	2	120	60	foodImage.28	FOODEEG_Images\0273.jpg	YN	Left	Yes	0.652056399965659	0	454524	234
889.78125	29.93359375	n/a	blockEnd	n/a	n/a	n/a	n/a		n/a	n/a	n/a	n/a	n/a	455569	254
919.71484375	2	n/a	blockStart	3	n/a	n/a	n/a		n/a	n/a	n/a	n/a	n/a	470895	250
921.748046875	1	decision	trialStart	3	121	1	foodImage.85	FOODEEG_Images\0841.jpg	YN	Left	Yes	0.492703199968673	0	471936	251
922.80859375	2	decision	foodImageDisplay	3	121	1	foodImage.85	FOODEEG_Images\0841.jpg	YN	Left	Yes	0.492703199968673	0	472479	252
924.87109375	0.492703199968673	decision	choicePhaseStart	3	121	1	foodImage.85	FOODEEG_Images\0841.jpg	YN	Left	Yes	0.492703199968673	0	473535	253
925.35546875	0	decision	response	3	121	1	foodImage.85	FOODEEG_Images\0841.jpg	YN	Left	Yes	0.492703199968673	0	473783	234
926.3984375	1	decision	trialStart	3	122	2	foodImage.81	FOODEEG_Images\0797.jpg	YN	Left	Yes	1.09311929997057	0	474317	251
927.45703125	2	decision	foodImageDisplay	3	122	2	foodImage.81	FOODEEG_Images\0797.jpg	YN	Left	Yes	1.09311929997057	0	474859	252
929.517578125	1.09311929997057	decision	choicePhaseStart	3	122	2	foodImage.81	FOODEEG_Images\0797.jpg	YN	Left	Yes	1.09311929997057	0	475914	253
930.6015625	0	decision	response	3	122	2	foodImage.81	FOODEEG_Images\0797.jpg	YN	Left	Yes	1.09311929997057	0	476469	234
931.646484375	1	taste	trialStart	3	123	3	foodImage.70	FOODEEG_Images\0705.jpg	YN	Left	Yes	0.642952599911951	0	477004	251
932.70703125	2	taste	foodImageDisplay	3	123	3	foodImage.70	FOODEEG_Images\0705.jpg	YN	Left	Yes	0.642952599911951	0	477547	252
934.76953125	0.642952599911951	taste	choicePhaseStart	3	123	3	foodImage.70	FOODEEG_Images\0705.jpg	YN	Left	Yes	0.642952599911951	0	478603	253
935.40234375	0	taste	response	3	123	3	foodImage.70	FOODEEG_Images\0705.jpg	YN	Left	Yes	0.642952599911951	0	478927	234
936.4453125	1	taste	trialStart	3	124	4	foodImage.28	FOODEEG_Images\0273.jpg	YN	Left	Yes	0.538803800009191	0	479461	251
937.48828125	2	taste	foodImageDisplay	3	124	4	foodImage.28	FOODEEG_Images\0273.jpg	YN	Left	Yes	0.538803800009191	0	479995	252
939.55078125	0.538803800009191	taste	choicePhaseStart	3	124	4	foodImage.28	FOODEEG_Images\0273.jpg	YN	Left	Yes	0.538803800009191	0	481051	253
940.08203125	0	taste	response	3	124	4	foodImage.28	FOODEEG_Images\0273.jpg	YN	Left	Yes	0.538803800009191	0	481323	234
941.125	1	health	trialStart	3	125	5	foodImage.116	FOODEEG_Images\0924.jpg	YN	Right	No	1.80865300004371	0	481857	251
942.1640625	2	health	foodImageDisplay	3	125	5	foodImage.116	FOODEEG_Images\0924.jpg	YN	Right	No	1.80865300004371	0	482389	252
944.2265625	1.80865300004371	health	choicePhaseStart	3	125	5	foodImage.116	FOODEEG_Images\0924.jpg	YN	Right	No	1.80865300004371	0	483445	253
946.025390625	0	health	response	3	125	5	foodImage.116	FOODEEG_Images\0924.jpg	YN	Right	No	1.80865300004371	0	484366	235
947.068359375	1	health	trialStart	3	126	6	foodImage.117	FOODEEG_Images\0925.jpg	NY	Right	Yes	1.64278989995364	0	484900	251
948.10546875	2	health	foodImageDisplay	3	126	6	foodImage.117	FOODEEG_Images\0925.jpg	NY	Right	Yes	1.64278989995364	0	485431	252
950.16796875	1.64278989995364	health	choicePhaseStart	3	126	6	foodImage.117	FOODEEG_Images\0925.jpg	NY	Right	Yes	1.64278989995364	0	486487	253
951.802734375	0	health	response	3	126	6	foodImage.117	FOODEEG_Images\0925.jpg	NY	Right	Yes	1.64278989995364	0	487324	235
952.845703125	1	taste	trialStart	3	127	7	foodImage.3	FOODEEG_Images\0046.jpg	NY	Right	Yes	0.666362500051036	0	487858	251
953.888671875	2	taste	foodImageDisplay	3	127	7	foodImage.3	FOODEEG_Images\0046.jpg	NY	Right	Yes	0.666362500051036	0	488392	252
955.953125	0.666362500051036	taste	choicePhaseStart	3	127	7	foodImage.3	FOODEEG_Images\0046.jpg	NY	Right	Yes	0.666362500051036	0	489449	253
956.609375	0	taste	response	3	127	7	foodImage.3	FOODEEG_Images\0046.jpg	NY	Right	Yes	0.666362500051036	0	489785	235
957.65234375	1	taste	trialStart	3	128	8	foodImage.31	FOODEEG_Images\0294.jpg	NY	Right	Yes	0.613630200037733	0	490319	251
958.693359375	2	taste	foodImageDisplay	3	128	8	foodImage.31	FOODEEG_Images\0294.jpg	NY	Right	Yes	0.613630200037733	0	490852	252
960.755859375	0.613630200037733	taste	choicePhaseStart	3	128	8	foodImage.31	FOODEEG_Images\0294.jpg	NY	Right	Yes	0.613630200037733	0	491908	253
961.361328125	0	taste	response	3	128	8	foodImage.31	FOODEEG_Images\0294.jpg	NY	Right	Yes	0.613630200037733	0	492218	235
962.404296875	1	taste	trialStart	3	129	9	foodImage.82	FOODEEG_Images\0805.jpg	YN	Left	Yes	1.51818409992848	0	492752	251
963.478515625	2	taste	foodImageDisplay	3	129	9	foodImage.82	FOODEEG_Images\0805.jpg	YN	Left	Yes	1.51818409992848	0	493302	252
965.541015625	1.51818409992848	taste	choicePhaseStart	3	129	9	foodImage.82	FOODEEG_Images\0805.jpg	YN	Left	Yes	1.51818409992848	0	494358	253
967.048828125	0	taste	response	3	129	9	foodImage.82	FOODEEG_Images\0805.jpg	YN	Left	Yes	1.51818409992848	0	495130	234
968.091796875	1	taste	trialStart	3	130	10	foodImage.99	FOODEEG_Images\0907.jpg	NY	Left	No	0.897975799976848	0	495664	251
969.130859375	2	taste	foodImageDisplay	3	130	10	foodImage.99	FOODEEG_Images\0907.jpg	NY	Left	No	0.897975799976848	0	496196	252
971.193359375	0.897975799976848	taste	choicePhaseStart	3	130	10	foodImage.99	FOODEEG_Images\0907.jpg	NY	Left	No	0.897975799976848	0	497252	253
972.08203125	0	taste	response	3	130	10	foodImage.99	FOODEEG_Images\0907.jpg	NY	Left	No	0.897975799976848	0	497707	234
973.123046875	1	health	trialStart	3	131	11	foodImage.21	FOODEEG_Images\0234.jpg	NY	Right	Yes	0.894193800049834	0	498240	251
974.18359375	2	health	foodImageDisplay	3	131	11	foodImage.21	FOODEEG_Images\0234.jpg	NY	Right	Yes	0.894193800049834	0	498783	252
976.244140625	0.894193800049834	health	choicePhaseStart	3	131	11	foodImage.21	FOODEEG_Images\0234.jpg	NY	Right	Yes	0.894193800049834	0	499838	253
977.12890625	0	health	response	3	131	11	foodImage.21	FOODEEG_Images\0234.jpg	NY	Right	Yes	0.894193800049834	0	500291	235
978.171875	1	health	trialStart	3	132	12	foodImage.115	FOODEEG_Images\0923.jpg	YN	Left	Yes	0.813149399938993	0	500825	251
979.212890625	2	health	foodImageDisplay	3	132	12	foodImage.115	FOODEEG_Images\0923.jpg	YN	Left	Yes	0.813149399938993	0	501358	252
981.275390625	0.813149399938993	health	choicePhaseStart	3	132	12	foodImage.115	FOODEEG_Images\0923.jpg	YN	Left	Yes	0.813149399938993	0	502414	253
982.080078125	0	health	response	3	132	12	foodImage.115	FOODEEG_Images\0923.jpg	YN	Left	Yes	0.813149399938993	0	502826	234
983.123046875	1	taste	trialStart	3	133	13	foodImage.6	FOODEEG_Images\0113.jpg	YN	Left	Yes	0.797618100070395	0	503360	251
984.166015625	2	taste	foodImageDisplay	3	133	13	foodImage.6	FOODEEG_Images\0113.jpg	YN	Left	Yes	0.797618100070395	0	503894	252
986.228515625	0.797618100070395	taste	choicePhaseStart	3	133	13	foodImage.6	FOODEEG_Images\0113.jpg	YN	Left	Yes	0.797618100070395	0	504950	253
987.017578125	0	taste	response	3	133	13	foodImage.6	FOODEEG_Images\0113.jpg	YN	Left	Yes	0.797618100070395	0	505354	234
988.060546875	1	health	trialStart	3	134	14	foodImage.17	FOODEEG_Images\0199.jpg	NY	Right	Yes	0.620631200028583	0	505888	251
989.103515625	2	health	foodImageDisplay	3	134	14	foodImage.17	FOODEEG_Images\0199.jpg	NY	Right	Yes	0.620631200028583	0	506422	252
991.166015625	0.620631200028583	health	choicePhaseStart	3	134	14	foodImage.17	FOODEEG_Images\0199.jpg	NY	Right	Yes	0.620631200028583	0	507478	253
991.77734375	0	health	response	3	134	14	foodImage.17	FOODEEG_Images\0199.jpg	NY	Right	Yes	0.620631200028583	0	507791	235
992.8203125	1	health	trialStart	3	135	15	foodImage.40	FOODEEG_Images\0373.jpg	NY	Right	Yes	0.854417400085367	0	508325	251
993.861328125	2	health	foodImageDisplay	3	135	15	foodImage.40	FOODEEG_Images\0373.jpg	NY	Right	Yes	0.854417400085367	0	508858	252
995.921875	0.854417400085367	health	choicePhaseStart	3	135	15	foodImage.40	FOODEEG_Images\0373.jpg	NY	Right	Yes	0.854417400085367	0	509913	253
996.767578125	0	health	response	3	135	15	foodImage.40	FOODEEG_Images\0373.jpg	NY	Right	Yes	0.854417400085367	0	510346	235
997.810546875	1	decision	trialStart	3	136	16	foodImage.73	FOODEEG_Images\0717.jpg	YN	Left	Yes	0.910077900043689	0	510880	251
998.869140625	2	decision	foodImageDisplay	3	136	16	foodImage.73	FOODEEG_Images\0717.jpg	YN	Left	Yes	0.910077900043689	0	511422	252
1000.931640625	0.910077900043689	decision	choicePhaseStart	3	136	16	foodImage.73	FOODEEG_Images\0717.jpg	YN	Left	Yes	0.910077900043689	0	512478	253
1001.83203125	0	decision	response	3	136	16	foodImage.73	FOODEEG_Images\0717.jpg	YN	Left	Yes	0.910077900043689	0	512939	234
1002.875	1	decision	trialStart	3	137	17	foodImage.77	FOODEEG_Images\0771.jpg	YN	Left	Yes	1.94734069996048	0	513473	251
1003.919921875	2	decision	foodImageDisplay	3	137	17	foodImage.77	FOODEEG_Images\0771.jpg	YN	Left	Yes	1.94734069996048	0	514008	252
1005.982421875	1.94734069996048	decision	choicePhaseStart	3	137	17	foodImage.77	FOODEEG_Images\0771.jpg	YN	Left	Yes	1.94734069996048	0	515064	253
1007.919921875	0	decision	response	3	137	17	foodImage.77	FOODEEG_Images\0771.jpg	YN	Left	Yes	1.94734069996048	0	516056	234
1008.962890625	1	taste	trialStart	3	138	18	foodImage.68	FOODEEG_Images\0685.jpg	NY	Right	Yes	1.09760340000503	0	516590	251
1010.064453125	2	taste	foodImageDisplay	3	138	18	foodImage.68	FOODEEG_Images\0685.jpg	NY	Right	Yes	1.09760340000503	0	517154	252
1012.126953125	1.09760340000503	taste	choicePhaseStart	3	138	18	foodImage.68	FOODEEG_Images\0685.jpg	NY	Right	Yes	1.09760340000503	0	518210	253
1013.21484375	0	taste	response	3	138	18	foodImage.68	FOODEEG_Images\0685.jpg	NY	Right	Yes	1.09760340000503	0	518767	235
1014.259765625	1	decision	trialStart	3	139	19	foodImage.118	FOODEEG_Images\0926.jpg	YN	Right	No	0.807009599986486	0	519302	251
1015.298828125	2	decision	foodImageDisplay	3	139	19	foodImage.118	FOODEEG_Images\0926.jpg	YN	Right	No	0.807009599986486	0	519834	252
1017.361328125	0.807009599986486	decision	choicePhaseStart	3	139	19	foodImage.118	FOODEEG_Images\0926.jpg	YN	Right	No	0.807009599986486	0	520890	253
1018.158203125	0	decision	response	3	139	19	foodImage.118	FOODEEG_Images\0926.jpg	YN	Right	No	0.807009599986486	0	521298	235
1019.203125	1	health	trialStart	3	140	20	foodImage.14	FOODEEG_Images\0188.jpg	NY	Left	No	1.13504990004003	0	521833	251
1020.259765625	2	health	foodImageDisplay	3	140	20	foodImage.14	FOODEEG_Images\0188.jpg	NY	Left	No	1.13504990004003	0	522374	252
1022.322265625	1.13504990004003	health	choicePhaseStart	3	140	20	foodImage.14	FOODEEG_Images\0188.jpg	NY	Left	No	1.13504990004003	0	523430	253
1023.447265625	0	health	response	3	140	20	foodImage.14	FOODEEG_Images\0188.jpg	NY	Left	No	1.13504990004003	0	524006	234
1024.490234375	1	health	trialStart	3	141	21	foodImage.94	FOODEEG_Images\0902.jpg	NY	Left	No	0.570232299971394	0	524540	251
1025.52734375	2	health	foodImageDisplay	3	141	21	foodImage.94	FOODEEG_Images\0902.jpg	NY	Left	No	0.570232299971394	0	525071	252
1027.58984375	0.570232299971394	health	choicePhaseStart	3	141	21	foodImage.94	FOODEEG_Images\0902.jpg	NY	Left	No	0.570232299971394	0	526127	253
1028.15234375	0	health	response	3	141	21	foodImage.94	FOODEEG_Images\0902.jpg	NY	Left	No	0.570232299971394	0	526415	234
1029.19921875	1	taste	trialStart	3	142	22	foodImage.11	FOODEEG_Images\0180.jpg	YN	Left	Yes	0.629663899890147	0	526951	251
1030.2421875	2	taste	foodImageDisplay	3	142	22	foodImage.11	FOODEEG_Images\0180.jpg	YN	Left	Yes	0.629663899890147	0	527485	252
1032.302734375	0.629663899890147	taste	choicePhaseStart	3	142	22	foodImage.11	FOODEEG_Images\0180.jpg	YN	Left	Yes	0.629663899890147	0	528540	253
1032.927734375	0	taste	response	3	142	22	foodImage.11	FOODEEG_Images\0180.jpg	YN	Left	Yes	0.629663899890147	0	528860	234
1033.9765625	1	decision	trialStart	3	143	23	foodImage.8	FOODEEG_Images\0136.jpg	NY	Left	No	0.90372069994919	0	529397	251
1035.017578125	2	decision	foodImageDisplay	3	143	23	foodImage.8	FOODEEG_Images\0136.jpg	NY	Left	No	0.90372069994919	0	529930	252
1037.080078125	0.90372069994919	decision	choicePhaseStart	3	143	23	foodImage.8	FOODEEG_Images\0136.jpg	NY	Left	No	0.90372069994919	0	530986	253
1037.974609375	0	decision	response	3	143	23	foodImage.8	FOODEEG_Images\0136.jpg	NY	Left	No	0.90372069994919	0	531444	234
1039.0234375	1	decision	trialStart	3	144	24	foodImage.91	FOODEEG_Images\0896.jpg	NY	Right	Yes	0.827712500002235	0	531981	251
1040.08203125	2	decision	foodImageDisplay	3	144	24	foodImage.91	FOODEEG_Images\0896.jpg	NY	Right	Yes	0.827712500002235	0	532523	252
1042.14453125	0.827712500002235	decision	choicePhaseStart	3	144	24	foodImage.91	FOODEEG_Images\0896.jpg	NY	Right	Yes	0.827712500002235	0	533579	253
1042.966796875	0	decision	response	3	144	24	foodImage.91	FOODEEG_Images\0896.jpg	NY	Right	Yes	0.827712500002235	0	534000	235
1044.009765625	1	health	trialStart	3	145	25	foodImage.1	FOODEEG_Images\0004.jpg	YN	Right	No	0.820829099975526	0	534534	251
1045.0703125	2	health	foodImageDisplay	3	145	25	foodImage.1	FOODEEG_Images\0004.jpg	YN	Right	No	0.820829099975526	0	535077	252
1047.130859375	0.820829099975526	health	choicePhaseStart	3	145	25	foodImage.1	FOODEEG_Images\0004.jpg	YN	Right	No	0.820829099975526	0	536132	253
1047.94140625	0	health	response	3	145	25	foodImage.1	FOODEEG_Images\0004.jpg	YN	Right	No	0.820829099975526	0	536547	235
1048.984375	1	decision	trialStart	3	146	26	foodImage.114	FOODEEG_Images\0922.jpg	YN	Left	Yes	0.624357099994086	0	537081	251
1050.0234375	2	decision	foodImageDisplay	3	146	26	foodImage.114	FOODEEG_Images\0922.jpg	YN	Left	Yes	0.624357099994086	0	537613	252
1052.0859375	0.624357099994086	decision	choicePhaseStart	3	146	26	foodImage.114	FOODEEG_Images\0922.jpg	YN	Left	Yes	0.624357099994086	0	538669	253
1052.701171875	0	decision	response	3	146	26	foodImage.114	FOODEEG_Images\0922.jpg	YN	Left	Yes	0.624357099994086	0	538984	234
1053.744140625	1	health	trialStart	3	147	27	foodImage.26	FOODEEG_Images\0262.jpg	YN	Left	Yes	1.86009570001625	0	539518	251
1054.787109375	2	health	foodImageDisplay	3	147	27	foodImage.26	FOODEEG_Images\0262.jpg	YN	Left	Yes	1.86009570001625	0	540052	252
1056.849609375	1.86009570001625	health	choicePhaseStart	3	147	27	foodImage.26	FOODEEG_Images\0262.jpg	YN	Left	Yes	1.86009570001625	0	541108	253
1058.701171875	0	health	response	3	147	27	foodImage.26	FOODEEG_Images\0262.jpg	YN	Left	Yes	1.86009570001625	0	542056	234
1059.744140625	1	decision	trialStart	3	148	28	foodImage.55	FOODEEG_Images\0567.jpg	YN	Left	Yes	0.533151999930851	0	542590	251
1060.8046875	2	decision	foodImageDisplay	3	148	28	foodImage.55	FOODEEG_Images\0567.jpg	YN	Left	Yes	0.533151999930851	0	543133	252
1062.865234375	0.533151999930851	decision	choicePhaseStart	3	148	28	foodImage.55	FOODEEG_Images\0567.jpg	YN	Left	Yes	0.533151999930851	0	544188	253
1063.390625	0	decision	response	3	148	28	foodImage.55	FOODEEG_Images\0567.jpg	YN	Left	Yes	0.533151999930851	0	544457	234
1064.43359375	1	decision	trialStart	3	149	29	foodImage.62	FOODEEG_Images\0644.jpg	YN	Left	Yes	0.603609499987215	0	544991	251
1065.4921875	2	decision	foodImageDisplay	3	149	29	foodImage.62	FOODEEG_Images\0644.jpg	YN	Left	Yes	0.603609499987215	0	545533	252
1067.5546875	0.603609499987215	decision	choicePhaseStart	3	149	29	foodImage.62	FOODEEG_Images\0644.jpg	YN	Left	Yes	0.603609499987215	0	546589	253
1068.150390625	0	decision	response	3	149	29	foodImage.62	FOODEEG_Images\0644.jpg	YN	Left	Yes	0.603609499987215	0	546894	234
1069.19140625	1	health	trialStart	3	150	30	foodImage.58	FOODEEG_Images\0605.jpg	NY	Right	Yes	2.81165149994195	0	547427	251
1070.248046875	2	health	foodImageDisplay	3	150	30	foodImage.58	FOODEEG_Images\0605.jpg	NY	Right	Yes	2.81165149994195	0	547968	252
1072.3125	2.81165149994195	health	choicePhaseStart	3	150	30	foodImage.58	FOODEEG_Images\0605.jpg	NY	Right	Yes	2.81165149994195	0	549025	253
1075.1171875	0	health	response	3	150	30	foodImage.58	FOODEEG_Images\0605.jpg	NY	Right	Yes	2.81165149994195	0	550461	235
1076.16796875	1	decision	trialStart	3	151	31	foodImage.72	FOODEEG_Images\0714.jpg	NY	Right	Yes	0.798282300005667	0	550999	251
1077.2109375	2	decision	foodImageDisplay	3	151	31	foodImage.72	FOODEEG_Images\0714.jpg	NY	Right	Yes	0.798282300005667	0	551533	252
1079.2734375	0.798282300005667	decision	choicePhaseStart	3	151	31	foodImage.72	FOODEEG_Images\0714.jpg	NY	Right	Yes	0.798282300005667	0	552589	253
1080.0625	0	decision	response	3	151	31	foodImage.72	FOODEEG_Images\0714.jpg	NY	Right	Yes	0.798282300005667	0	552993	235
1081.10546875	1	taste	trialStart	3	152	32	foodImage.81	FOODEEG_Images\0797.jpg	YN	Left	Yes	0.93200849997811	0	553527	251
1082.162109375	2	taste	foodImageDisplay	3	152	32	foodImage.81	FOODEEG_Images\0797.jpg	YN	Left	Yes	0.93200849997811	0	554068	252
1084.22265625	0.93200849997811	taste	choicePhaseStart	3	152	32	foodImage.81	FOODEEG_Images\0797.jpg	YN	Left	Yes	0.93200849997811	0	555123	253
1085.1484375	0	taste	response	3	152	32	foodImage.81	FOODEEG_Images\0797.jpg	YN	Left	Yes	0.93200849997811	0	555597	234
1086.189453125	1	taste	trialStart	3	153	33	foodImage.83	FOODEEG_Images\0827.jpg	NY	Right	Yes	0.623184700030833	0	556130	251
1087.25390625	2	taste	foodImageDisplay	3	153	33	foodImage.83	FOODEEG_Images\0827.jpg	NY	Right	Yes	0.623184700030833	0	556675	252
1089.31640625	0.623184700030833	taste	choicePhaseStart	3	153	33	foodImage.83	FOODEEG_Images\0827.jpg	NY	Right	Yes	0.623184700030833	0	557731	253
1089.931640625	0	taste	response	3	153	33	foodImage.83	FOODEEG_Images\0827.jpg	NY	Right	Yes	0.623184700030833	0	558046	235
1090.9765625	1	taste	trialStart	3	154	34	foodImage.80	FOODEEG_Images\0796.jpg	NY	Right	Yes	0.687318400014192	0	558581	251
1092.033203125	2	taste	foodImageDisplay	3	154	34	foodImage.80	FOODEEG_Images\0796.jpg	NY	Right	Yes	0.687318400014192	0	559122	252
1094.095703125	0.687318400014192	taste	choicePhaseStart	3	154	34	foodImage.80	FOODEEG_Images\0796.jpg	NY	Right	Yes	0.687318400014192	0	560178	253
1094.771484375	0	taste	response	3	154	34	foodImage.80	FOODEEG_Images\0796.jpg	NY	Right	Yes	0.687318400014192	0	560524	235
1095.81640625	1	decision	trialStart	3	155	35	foodImage.74	FOODEEG_Images\0752.jpg	NY	Right	Yes	1.36156380001921	0	561059	251
1096.869140625	2	decision	foodImageDisplay	3	155	35	foodImage.74	FOODEEG_Images\0752.jpg	NY	Right	Yes	1.36156380001921	0	561598	252
1098.931640625	1.36156380001921	decision	choicePhaseStart	3	155	35	foodImage.74	FOODEEG_Images\0752.jpg	NY	Right	Yes	1.36156380001921	0	562654	253
1100.283203125	0	decision	response	3	155	35	foodImage.74	FOODEEG_Images\0752.jpg	NY	Right	Yes	1.36156380001921	0	563346	235
1101.33203125	1	decision	trialStart	3	156	36	foodImage.9	FOODEEG_Images\0138.jpg	NY	Right	Yes	0.928834400023334	0	563883	251
1102.390625	2	decision	foodImageDisplay	3	156	36	foodImage.9	FOODEEG_Images\0138.jpg	NY	Right	Yes	0.928834400023334	0	564425	252
1104.453125	0.928834400023334	decision	choicePhaseStart	3	156	36	foodImage.9	FOODEEG_Images\0138.jpg	NY	Right	Yes	0.928834400023334	0	565481	253
1105.37109375	0	decision	response	3	156	36	foodImage.9	FOODEEG_Images\0138.jpg	NY	Right	Yes	0.928834400023334	0	565951	235
1106.419921875	1	decision	trialStart	3	157	37	foodImage.89	FOODEEG_Images\0881.jpg	YN	Right	No	2.73095709993504	0	566488	251
1107.474609375	2	decision	foodImageDisplay	3	157	37	foodImage.89	FOODEEG_Images\0881.jpg	YN	Right	No	2.73095709993504	0	567028	252
1109.537109375	2.73095709993504	decision	choicePhaseStart	3	157	37	foodImage.89	FOODEEG_Images\0881.jpg	YN	Right	No	2.73095709993504	0	568084	253
1112.259765625	0	decision	response	3	157	37	foodImage.89	FOODEEG_Images\0881.jpg	YN	Right	No	2.73095709993504	0	569478	235
1113.30078125	1	taste	trialStart	3	158	38	foodImage.32	FOODEEG_Images\0319.jpg	NY	Right	Yes	1.55762370000593	0	570011	251
1114.345703125	2	taste	foodImageDisplay	3	158	38	foodImage.32	FOODEEG_Images\0319.jpg	NY	Right	Yes	1.55762370000593	0	570546	252
1116.408203125	1.55762370000593	taste	choicePhaseStart	3	158	38	foodImage.32	FOODEEG_Images\0319.jpg	NY	Right	Yes	1.55762370000593	0	571602	253
1117.955078125	0	taste	response	3	158	38	foodImage.32	FOODEEG_Images\0319.jpg	NY	Right	Yes	1.55762370000593	0	572394	235
1118.998046875	1	decision	trialStart	3	159	39	foodImage.29	FOODEEG_Images\0278.jpg	YN	Left	Yes	1.32499980006833	0	572928	251
1120.041015625	2	decision	foodImageDisplay	3	159	39	foodImage.29	FOODEEG_Images\0278.jpg	YN	Left	Yes	1.32499980006833	0	573462	252
1122.1015625	1.32499980006833	decision	choicePhaseStart	3	159	39	foodImage.29	FOODEEG_Images\0278.jpg	YN	Left	Yes	1.32499980006833	0	574517	253
1123.41796875	0	decision	response	3	159	39	foodImage.29	FOODEEG_Images\0278.jpg	YN	Left	Yes	1.32499980006833	0	575191	234
1124.46875	1	health	trialStart	3	160	40	foodImage.113	FOODEEG_Images\0921.jpg	YN	Left	Yes	0.723929599975236	0	575729	251
1125.5078125	2	health	foodImageDisplay	3	160	40	foodImage.113	FOODEEG_Images\0921.jpg	YN	Left	Yes	0.723929599975236	0	576261	252
1127.568359375	0.723929599975236	health	choicePhaseStart	3	160	40	foodImage.113	FOODEEG_Images\0921.jpg	YN	Left	Yes	0.723929599975236	0	577316	253
1128.283203125	0	health	response	3	160	40	foodImage.113	FOODEEG_Images\0921.jpg	YN	Left	Yes	0.723929599975236	0	577682	234
1129.32421875	1	decision	trialStart	3	161	41	foodImage.115	FOODEEG_Images\0923.jpg	NY	Left	No	0.730104799964465	0	578215	251
1130.36328125	2	decision	foodImageDisplay	3	161	41	foodImage.115	FOODEEG_Images\0923.jpg	NY	Left	No	0.730104799964465	0	578747	252
1132.42578125	0.730104799964465	decision	choicePhaseStart	3	161	41	foodImage.115	FOODEEG_Images\0923.jpg	NY	Left	No	0.730104799964465	0	579803	253
1133.146484375	0	decision	response	3	161	41	foodImage.115	FOODEEG_Images\0923.jpg	NY	Left	No	0.730104799964465	0	580172	234
1134.19140625	1	decision	trialStart	3	162	42	foodImage.18	FOODEEG_Images\0202.jpg	NY	Right	Yes	1.70715639996342	0	580707	251
1135.25	2	decision	foodImageDisplay	3	162	42	foodImage.18	FOODEEG_Images\0202.jpg	NY	Right	Yes	1.70715639996342	0	581249	252
1137.3125	1.70715639996342	decision	choicePhaseStart	3	162	42	foodImage.18	FOODEEG_Images\0202.jpg	NY	Right	Yes	1.70715639996342	0	582305	253
1139.009765625	0	decision	response	3	162	42	foodImage.18	FOODEEG_Images\0202.jpg	NY	Right	Yes	1.70715639996342	0	583174	235
1140.0546875	1	taste	trialStart	3	163	43	foodImage.107	FOODEEG_Images\0915.jpg	YN	Right	No	1.55266079993453	0	583709	251
1141.09375	2	taste	foodImageDisplay	3	163	43	foodImage.107	FOODEEG_Images\0915.jpg	YN	Right	No	1.55266079993453	0	584241	252
1143.15625	1.55266079993453	taste	choicePhaseStart	3	163	43	foodImage.107	FOODEEG_Images\0915.jpg	YN	Right	No	1.55266079993453	0	585297	253
1144.69921875	0	taste	response	3	163	43	foodImage.107	FOODEEG_Images\0915.jpg	YN	Right	No	1.55266079993453	0	586087	235
1145.7421875	1	taste	trialStart	3	164	44	foodImage.35	FOODEEG_Images\0350.jpg	YN	Left	Yes	0.658074000035413	0	586621	251
1146.779296875	2	taste	foodImageDisplay	3	164	44	foodImage.35	FOODEEG_Images\0350.jpg	YN	Left	Yes	0.658074000035413	0	587152	252
1148.841796875	0.658074000035413	taste	choicePhaseStart	3	164	44	foodImage.35	FOODEEG_Images\0350.jpg	YN	Left	Yes	0.658074000035413	0	588208	253
1149.490234375	0	taste	response	3	164	44	foodImage.35	FOODEEG_Images\0350.jpg	YN	Left	Yes	0.658074000035413	0	588540	234
1150.5390625	1	decision	trialStart	3	165	45	foodImage.38	FOODEEG_Images\0365.jpg	YN	Left	Yes	0.914578999974765	0	589077	251
1151.576171875	2	decision	foodImageDisplay	3	165	45	foodImage.38	FOODEEG_Images\0365.jpg	YN	Left	Yes	0.914578999974765	0	589608	252
1153.640625	0.914578999974765	decision	choicePhaseStart	3	165	45	foodImage.38	FOODEEG_Images\0365.jpg	YN	Left	Yes	0.914578999974765	0	590665	253
1154.546875	0	decision	response	3	165	45	foodImage.38	FOODEEG_Images\0365.jpg	YN	Left	Yes	0.914578999974765	0	591129	234
1155.599609375	1	health	trialStart	3	166	46	foodImage.29	FOODEEG_Images\0278.jpg	NY	Right	Yes	1.21942649991252	0	591668	251
1156.640625	2	health	foodImageDisplay	3	166	46	foodImage.29	FOODEEG_Images\0278.jpg	NY	Right	Yes	1.21942649991252	0	592201	252
1158.703125	1.21942649991252	health	choicePhaseStart	3	166	46	foodImage.29	FOODEEG_Images\0278.jpg	NY	Right	Yes	1.21942649991252	0	593257	253
1159.9140625	0	health	response	3	166	46	foodImage.29	FOODEEG_Images\0278.jpg	NY	Right	Yes	1.21942649991252	0	593877	235
1160.95703125	1	health	trialStart	3	167	47	foodImage.62	FOODEEG_Images\0644.jpg	NY	Right	Yes	1.64697549992707	0	594411	251
1162.013671875	2	health	foodImageDisplay	3	167	47	foodImage.62	FOODEEG_Images\0644.jpg	NY	Right	Yes	1.64697549992707	0	594952	252
1164.076171875	1.64697549992707	health	choicePhaseStart	3	167	47	foodImage.62	FOODEEG_Images\0644.jpg	NY	Right	Yes	1.64697549992707	0	596008	253
1165.712890625	0	health	response	3	167	47	foodImage.62	FOODEEG_Images\0644.jpg	NY	Right	Yes	1.64697549992707	0	596846	235
1166.7578125	1	health	trialStart	3	168	48	foodImage.86	FOODEEG_Images\0844.jpg	NY	Left	No	0.656544600031339	0	597381	251
1167.8125	2	health	foodImageDisplay	3	168	48	foodImage.86	FOODEEG_Images\0844.jpg	NY	Left	No	0.656544600031339	0	597921	252
1169.875	0.656544600031339	health	choicePhaseStart	3	168	48	foodImage.86	FOODEEG_Images\0844.jpg	NY	Left	No	0.656544600031339	0	598977	253
1170.521484375	0	health	response	3	168	48	foodImage.86	FOODEEG_Images\0844.jpg	NY	Left	No	0.656544600031339	0	599308	234
1171.560546875	1	taste	trialStart	3	169	49	foodImage.50	FOODEEG_Images\0529.jpg	YN	Left	Yes	0.63938990002498	0	599840	251
1172.62109375	2	taste	foodImageDisplay	3	169	49	foodImage.50	FOODEEG_Images\0529.jpg	YN	Left	Yes	0.63938990002498	0	600383	252
1174.68359375	0.63938990002498	taste	choicePhaseStart	3	169	49	foodImage.50	FOODEEG_Images\0529.jpg	YN	Left	Yes	0.63938990002498	0	601439	253
1175.3125	0	taste	response	3	169	49	foodImage.50	FOODEEG_Images\0529.jpg	YN	Left	Yes	0.63938990002498	0	601761	234
1176.35546875	1	decision	trialStart	3	170	50	foodImage.53	FOODEEG_Images\0547.jpg	NY	Left	No	1.69403339992277	0	602295	251
1177.4140625	2	decision	foodImageDisplay	3	170	50	foodImage.53	FOODEEG_Images\0547.jpg	NY	Left	No	1.69403339992277	0	602837	252
1179.4765625	1.69403339992277	decision	choicePhaseStart	3	170	50	foodImage.53	FOODEEG_Images\0547.jpg	NY	Left	No	1.69403339992277	0	603893	253
1181.16015625	0	decision	response	3	170	50	foodImage.53	FOODEEG_Images\0547.jpg	NY	Left	No	1.69403339992277	0	604755	234
1182.203125	1	decision	trialStart	3	171	51	foodImage.70	FOODEEG_Images\0705.jpg	NY	Right	Yes	0.800748999929056	0	605289	251
1183.259765625	2	decision	foodImageDisplay	3	171	51	foodImage.70	FOODEEG_Images\0705.jpg	NY	Right	Yes	0.800748999929056	0	605830	252
1185.322265625	0.800748999929056	decision	choicePhaseStart	3	171	51	foodImage.70	FOODEEG_Images\0705.jpg	NY	Right	Yes	0.800748999929056	0	606886	253
1186.11328125	0	decision	response	3	171	51	foodImage.70	FOODEEG_Images\0705.jpg	NY	Right	Yes	0.800748999929056	0	607291	235
1187.15625	1	decision	trialStart	3	172	52	foodImage.109	FOODEEG_Images\0917.jpg	YN	Left	Yes	1.55475729994942	0	607825	251
1188.193359375	2	decision	foodImageDisplay	3	172	52	foodImage.109	FOODEEG_Images\0917.jpg	YN	Left	Yes	1.55475729994942	0	608356	252
1190.26171875	1.55475729994942	decision	choicePhaseStart	3	172	52	foodImage.109	FOODEEG_Images\0917.jpg	YN	Left	Yes	1.55475729994942	0	609415	253
1191.80859375	0	decision	response	3	172	52	foodImage.109	FOODEEG_Images\0917.jpg	YN	Left	Yes	1.55475729994942	0	610207	234
1192.857421875	1	health	trialStart	3	173	53	foodImage.23	FOODEEG_Images\0244.jpg	YN	Left	Yes	1.37766180001199	0	610744	251
1193.896484375	2	health	foodImageDisplay	3	173	53	foodImage.23	FOODEEG_Images\0244.jpg	YN	Left	Yes	1.37766180001199	0	611276	252
1195.958984375	1.37766180001199	health	choicePhaseStart	3	173	53	foodImage.23	FOODEEG_Images\0244.jpg	YN	Left	Yes	1.37766180001199	0	612332	253
1197.328125	0	health	response	3	173	53	foodImage.23	FOODEEG_Images\0244.jpg	YN	Left	Yes	1.37766180001199	0	613033	234
1198.37109375	1	taste	trialStart	3	174	54	foodImage.85	FOODEEG_Images\0841.jpg	NY	Right	Yes	0.698983700014651	0	613567	251
1199.43359375	2	taste	foodImageDisplay	3	174	54	foodImage.85	FOODEEG_Images\0841.jpg	NY	Right	Yes	0.698983700014651	0	614111	252
1201.49609375	0.698983700014651	taste	choicePhaseStart	3	174	54	foodImage.85	FOODEEG_Images\0841.jpg	NY	Right	Yes	0.698983700014651	0	615167	253
1202.18359375	0	taste	response	3	174	54	foodImage.85	FOODEEG_Images\0841.jpg	NY	Right	Yes	0.698983700014651	0	615519	235
1203.2265625	1	health	trialStart	3	175	55	foodImage.31	FOODEEG_Images\0294.jpg	YN	Left	Yes	0.693365199957043	0	616053	251
1204.26953125	2	health	foodImageDisplay	3	175	55	foodImage.31	FOODEEG_Images\0294.jpg	YN	Left	Yes	0.693365199957043	0	616587	252
1206.33203125	0.693365199957043	health	choicePhaseStart	3	175	55	foodImage.31	FOODEEG_Images\0294.jpg	YN	Left	Yes	0.693365199957043	0	617643	253
1207.015625	0	health	response	3	175	55	foodImage.31	FOODEEG_Images\0294.jpg	YN	Left	Yes	0.693365199957043	0	617993	234
1208.05859375	1	taste	trialStart	3	176	56	foodImage.79	FOODEEG_Images\0794.jpg	YN	Left	Yes	0.628283600090072	0	618527	251
1209.1015625	2	taste	foodImageDisplay	3	176	56	foodImage.79	FOODEEG_Images\0794.jpg	YN	Left	Yes	0.628283600090072	0	619061	252
1211.1640625	0.628283600090072	taste	choicePhaseStart	3	176	56	foodImage.79	FOODEEG_Images\0794.jpg	YN	Left	Yes	0.628283600090072	0	620117	253
1211.783203125	0	taste	response	3	176	56	foodImage.79	FOODEEG_Images\0794.jpg	YN	Left	Yes	0.628283600090072	0	620434	234
1212.826171875	1	taste	trialStart	3	177	57	foodImage.47	FOODEEG_Images\0488.jpg	NY	Right	Yes	0.831603200058453	0	620968	251
1213.875	2	taste	foodImageDisplay	3	177	57	foodImage.47	FOODEEG_Images\0488.jpg	NY	Right	Yes	0.831603200058453	0	621505	252
1215.9375	0.831603200058453	taste	choicePhaseStart	3	177	57	foodImage.47	FOODEEG_Images\0488.jpg	NY	Right	Yes	0.831603200058453	0	622561	253
1216.759765625	0	taste	response	3	177	57	foodImage.47	FOODEEG_Images\0488.jpg	NY	Right	Yes	0.831603200058453	0	622982	235
1217.802734375	1	decision	trialStart	3	178	58	foodImage.60	FOODEEG_Images\0614.jpg	YN	Left	Yes	0.660331599996425	0	623516	251
1218.861328125	2	decision	foodImageDisplay	3	178	58	foodImage.60	FOODEEG_Images\0614.jpg	YN	Left	Yes	0.660331599996425	0	624058	252
1220.923828125	0.660331599996425	decision	choicePhaseStart	3	178	58	foodImage.60	FOODEEG_Images\0614.jpg	YN	Left	Yes	0.660331599996425	0	625114	253
1221.576171875	0	decision	response	3	178	58	foodImage.60	FOODEEG_Images\0614.jpg	YN	Left	Yes	0.660331599996425	0	625448	234
1222.6171875	1	taste	trialStart	3	179	59	foodImage.49	FOODEEG_Images\0515.jpg	YN	Left	Yes	0.630205799941905	0	625981	251
1223.66015625	2	taste	foodImageDisplay	3	179	59	foodImage.49	FOODEEG_Images\0515.jpg	YN	Left	Yes	0.630205799941905	0	626515	252
1225.720703125	0.630205799941905	taste	choicePhaseStart	3	179	59	foodImage.49	FOODEEG_Images\0515.jpg	YN	Left	Yes	0.630205799941905	0	627570	253
1226.34375	0	taste	response	3	179	59	foodImage.49	FOODEEG_Images\0515.jpg	YN	Left	Yes	0.630205799941905	0	627889	234
1227.384765625	1	taste	trialStart	3	180	60	foodImage.9	FOODEEG_Images\0138.jpg	YN	Left	Yes	1.43427500000689	0	628422	251
1228.439453125	2	taste	foodImageDisplay	3	180	60	foodImage.9	FOODEEG_Images\0138.jpg	YN	Left	Yes	1.43427500000689	0	628962	252
1230.501953125	1.43427500000689	taste	choicePhaseStart	3	180	60	foodImage.9	FOODEEG_Images\0138.jpg	YN	Left	Yes	1.43427500000689	0	630018	253
1231.92578125	0	taste	response	3	180	60	foodImage.9	FOODEEG_Images\0138.jpg	YN	Left	Yes	1.43427500000689	0	630747	234
1233.98046875	29.244140625	n/a	blockEnd	n/a	n/a	n/a	n/a		n/a	n/a	n/a	n/a	n/a	631799	254
1263.224609375	2	n/a	blockStart	4	n/a	n/a	n/a		n/a	n/a	n/a	n/a	n/a	646772	250
1265.26171875	1	health	trialStart	4	181	1	foodImage.24	FOODEEG_Images\0250.jpg	YN	Left	Yes	0.626857200055383	0	647815	251
1266.306640625	2	health	foodImageDisplay	4	181	1	foodImage.24	FOODEEG_Images\0250.jpg	YN	Left	Yes	0.626857200055383	0	648350	252
1268.373046875	0.626857200055383	health	choicePhaseStart	4	181	1	foodImage.24	FOODEEG_Images\0250.jpg	YN	Left	Yes	0.626857200055383	0	649408	253
1268.990234375	0	health	response	4	181	1	foodImage.24	FOODEEG_Images\0250.jpg	YN	Left	Yes	0.626857200055383	0	649724	234
1270.03125	1	health	trialStart	4	182	2	foodImage.109	FOODEEG_Images\0917.jpg	NY	Left	No	1.06614030001219	0	650257	251
1271.0703125	2	health	foodImageDisplay	4	182	2	foodImage.109	FOODEEG_Images\0917.jpg	NY	Left	No	1.06614030001219	0	650789	252
1273.1328125	1.06614030001219	health	choicePhaseStart	4	182	2	foodImage.109	FOODEEG_Images\0917.jpg	NY	Left	No	1.06614030001219	0	651845	253
1274.189453125	0	health	response	4	182	2	foodImage.109	FOODEEG_Images\0917.jpg	NY	Left	No	1.06614030001219	0	652386	234
1275.232421875	1	health	trialStart	4	183	3	foodImage.75	FOODEEG_Images\0763.jpg	NY	Right	Yes	0.609268800006248	0	652920	251
1276.27734375	2	health	foodImageDisplay	4	183	3	foodImage.75	FOODEEG_Images\0763.jpg	NY	Right	Yes	0.609268800006248	0	653455	252
1278.33984375	0.609268800006248	health	choicePhaseStart	4	183	3	foodImage.75	FOODEEG_Images\0763.jpg	NY	Right	Yes	0.609268800006248	0	654511	253
1278.94140625	0	health	response	4	183	3	foodImage.75	FOODEEG_Images\0763.jpg	NY	Right	Yes	0.609268800006248	0	654819	235
1279.984375	1	taste	trialStart	4	184	4	foodImage.114	FOODEEG_Images\0922.jpg	NY	Right	Yes	1.26153469993733	0	655353	251
1281.0234375	2	taste	foodImageDisplay	4	184	4	foodImage.114	FOODEEG_Images\0922.jpg	NY	Right	Yes	1.26153469993733	0	655885	252
1283.0859375	1.26153469993733	taste	choicePhaseStart	4	184	4	foodImage.114	FOODEEG_Images\0922.jpg	NY	Right	Yes	1.26153469993733	0	656941	253
1284.341796875	0	taste	response	4	184	4	foodImage.114	FOODEEG_Images\0922.jpg	NY	Right	Yes	1.26153469993733	0	657584	235
1285.388671875	1	decision	trialStart	4	185	5	foodImage.65	FOODEEG_Images\0658.jpg	YN	Left	Yes	0.584669100004248	0	658120	251
1286.4296875	2	decision	foodImageDisplay	4	185	5	foodImage.65	FOODEEG_Images\0658.jpg	YN	Left	Yes	0.584669100004248	0	658653	252
1288.4921875	0.584669100004248	decision	choicePhaseStart	4	185	5	foodImage.65	FOODEEG_Images\0658.jpg	YN	Left	Yes	0.584669100004248	0	659709	253
1289.068359375	0	decision	response	4	185	5	foodImage.65	FOODEEG_Images\0658.jpg	YN	Left	Yes	0.584669100004248	0	660004	234
1290.11328125	1	health	trialStart	4	186	6	foodImage.67	FOODEEG_Images\0679.jpg	NY	Left	No	1.01227240008302	0	660539	251
1291.171875	2	health	foodImageDisplay	4	186	6	foodImage.67	FOODEEG_Images\0679.jpg	NY	Left	No	1.01227240008302	0	661081	252
1293.234375	1.01227240008302	health	choicePhaseStart	4	186	6	foodImage.67	FOODEEG_Images\0679.jpg	NY	Left	No	1.01227240008302	0	662137	253
1294.236328125	0	health	response	4	186	6	foodImage.67	FOODEEG_Images\0679.jpg	NY	Left	No	1.01227240008302	0	662650	234
1295.279296875	1	health	trialStart	4	187	7	foodImage.42	FOODEEG_Images\0438.jpg	YN	Left	Yes	0.904711700044572	0	663184	251
1296.3671875	2	health	foodImageDisplay	4	187	7	foodImage.42	FOODEEG_Images\0438.jpg	YN	Left	Yes	0.904711700044572	0	663741	252
1298.4296875	0.904711700044572	health	choicePhaseStart	4	187	7	foodImage.42	FOODEEG_Images\0438.jpg	YN	Left	Yes	0.904711700044572	0	664797	253
1299.32421875	0	health	response	4	187	7	foodImage.42	FOODEEG_Images\0438.jpg	YN	Left	Yes	0.904711700044572	0	665255	234
1300.3671875	1	decision	trialStart	4	188	8	foodImage.87	FOODEEG_Images\0873.jpg	NY	Right	Yes	1.20774570002686	0	665789	251
1301.423828125	2	decision	foodImageDisplay	4	188	8	foodImage.87	FOODEEG_Images\0873.jpg	NY	Right	Yes	1.20774570002686	0	666330	252
1303.486328125	1.20774570002686	decision	choicePhaseStart	4	188	8	foodImage.87	FOODEEG_Images\0873.jpg	NY	Right	Yes	1.20774570002686	0	667386	253
1304.68359375	0	decision	response	4	188	8	foodImage.87	FOODEEG_Images\0873.jpg	NY	Right	Yes	1.20774570002686	0	667999	235
1305.728515625	1	decision	trialStart	4	189	9	foodImage.93	FOODEEG_Images\0901.jpg	NY	Left	No	0.992709100013599	0	668534	251
1306.765625	2	decision	foodImageDisplay	4	189	9	foodImage.93	FOODEEG_Images\0901.jpg	NY	Left	No	0.992709100013599	0	669065	252
1308.828125	0.992709100013599	decision	choicePhaseStart	4	189	9	foodImage.93	FOODEEG_Images\0901.jpg	NY	Left	No	0.992709100013599	0	670121	253
1309.8125	0	decision	response	4	189	9	foodImage.93	FOODEEG_Images\0901.jpg	NY	Left	No	0.992709100013599	0	670625	234
1310.85546875	1	decision	trialStart	4	190	10	foodImage.40	FOODEEG_Images\0373.jpg	NY	Right	Yes	0.643481099978089	0	671159	251
1311.8984375	2	decision	foodImageDisplay	4	190	10	foodImage.40	FOODEEG_Images\0373.jpg	NY	Right	Yes	0.643481099978089	0	671693	252
1313.9609375	0.643481099978089	decision	choicePhaseStart	4	190	10	foodImage.40	FOODEEG_Images\0373.jpg	NY	Right	Yes	0.643481099978089	0	672749	253
1314.595703125	0	decision	response	4	190	10	foodImage.40	FOODEEG_Images\0373.jpg	NY	Right	Yes	0.643481099978089	0	673074	235
1315.638671875	1	decision	trialStart	4	191	11	foodImage.14	FOODEEG_Images\0188.jpg	YN	Left	Yes	0.980539199896157	0	673608	251
1316.697265625	2	decision	foodImageDisplay	4	191	11	foodImage.14	FOODEEG_Images\0188.jpg	YN	Left	Yes	0.980539199896157	0	674150	252
1318.759765625	0.980539199896157	decision	choicePhaseStart	4	191	11	foodImage.14	FOODEEG_Images\0188.jpg	YN	Left	Yes	0.980539199896157	0	675206	253
1319.73046875	0	decision	response	4	191	11	foodImage.14	FOODEEG_Images\0188.jpg	YN	Left	Yes	0.980539199896157	0	675703	234
1320.775390625	1	decision	trialStart	4	192	12	foodImage.61	FOODEEG_Images\0640.jpg	NY	Right	Yes	1.70085940009449	0	676238	251
1321.818359375	2	decision	foodImageDisplay	4	192	12	foodImage.61	FOODEEG_Images\0640.jpg	NY	Right	Yes	1.70085940009449	0	676772	252
1323.87890625	1.70085940009449	decision	choicePhaseStart	4	192	12	foodImage.61	FOODEEG_Images\0640.jpg	NY	Right	Yes	1.70085940009449	0	677827	253
1325.5703125	0	decision	response	4	192	12	foodImage.61	FOODEEG_Images\0640.jpg	NY	Right	Yes	1.70085940009449	0	678693	235
