onset	duration	trial_type	event_type	block	trial_total	trial_in_block	food_image_code	food_image_path	button_position	resp_position	resp_choice	choice_rt	resp_too_slow	sample	trigger
175.814453125	2	n/a	blockStart	1	n/a	n/a	n/a	n/a	n/a	n/a	n/a	n/a	n/a	90018	250
177.86328125	1	taste	trialStart	1	1	1	foodImage.87	FOODEEG_Images\0873.jpg	YN	Right	No	1.20949790000031	0	91067	251
178.9296875	2	taste	foodImageDisplay	1	1	1	foodImage.87	FOODEEG_Images\0873.jpg	YN	Right	No	1.20949790000031	0	91613	252
180.998046875	1.20949790000031	taste	choicePhaseStart	1	1	1	foodImage.87	FOODEEG_Images\0873.jpg	YN	Right	No	1.20949790000031	0	92672	253
182.20703125	0	taste	response	1	1	1	foodImage.87	FOODEEG_Images\0873.jpg	YN	Right	No	1.20949790000031	0	93291	235
183.31640625	1	health	trialStart	1	2	2	foodImage.1	FOODEEG_Images\0004.jpg	YN	Right	No	0.789065799999662	0	93859	251
184.365234375	2	health	foodImageDisplay	1	2	2	foodImage.1	FOODEEG_Images\0004.jpg	YN	Right	No	0.789065799999662	0	94396	252
186.43359375	0.789065799999662	health	choicePhaseStart	1	2	2	foodImage.1	FOODEEG_Images\0004.jpg	YN	Right	No	0.789065799999662	0	95455	253
187.22265625	0	health	response	1	2	2	foodImage.1	FOODEEG_Images\0004.jpg	YN	Right	No	0.789065799999662	0	95859	235
188.28515625	1	taste	trialStart	1	3	3	foodImage.7	FOODEEG_Images\0116.jpg	NY	Right	Yes	2.45971469999949	0	96403	251
189.3359375	2	taste	foodImageDisplay	1	3	3	foodImage.7	FOODEEG_Images\0116.jpg	NY	Right	Yes	2.45971469999949	0	96941	252
191.40234375	2.45971469999949	taste	choicePhaseStart	1	3	3	foodImage.7	FOODEEG_Images\0116.jpg	NY	Right	Yes	2.45971469999949	0	97999	253
193.86328125	0	taste	response	1	3	3	foodImage.7	FOODEEG_Images\0116.jpg	NY	Right	Yes	2.45971469999949	0	99259	235
194.921875	1	health	trialStart	1	4	4	foodImage.38	FOODEEG_Images\0365.jpg	NY	Right	Yes	0.742827599999146	0	99801	251
195.970703125	2	health	foodImageDisplay	1	4	4	foodImage.38	FOODEEG_Images\0365.jpg	NY	Right	Yes	0.742827599999146	0	100338	252
198.0390625	0.742827599999146	health	choicePhaseStart	1	4	4	foodImage.38	FOODEEG_Images\0365.jpg	NY	Right	Yes	0.742827599999146	0	101397	253
198.78125	0	health	response	1	4	4	foodImage.38	FOODEEG_Images\0365.jpg	NY	Right	Yes	0.742827599999146	0	101777	235
199.841796875	1	health	trialStart	1	5	5	foodImage.16	FOODEEG_Images\0196.jpg	NY	Right	Yes	0.695070400000077	0	102320	251
200.908203125	2	health	foodImageDisplay	1	5	5	foodImage.16	FOODEEG_Images\0196.jpg	NY	Right	Yes	0.695070400000077	0	102866	252
202.9765625	0.695070400000077	health	choicePhaseStart	1	5	5	foodImage.16	FOODEEG_Images\0196.jpg	NY	Right	Yes	0.695070400000077	0	103925	253
203.669921875	0	health	response	1	5	5	foodImage.16	FOODEEG_Images\0196.jpg	NY	Right	Yes	0.695070400000077	0	104280	235
204.7421875	1	decision	trialStart	1	6	6	foodImage.71	FOODEEG_Images\0713.jpg	NY	Right	Yes	0.744795100000374	0	104829	251
205.79296875	2	decision	foodImageDisplay	1	6	6	foodImage.71	FOODEEG_Images\0713.jpg	NY	Right	Yes	0.744795100000374	0	105367	252
207.86328125	0.744795100000374	decision	choicePhaseStart	1	6	6	foodImage.71	FOODEEG_Images\0713.jpg	NY	Right	Yes	0.744795100000374	0	106427	253
208.60546875	0	decision	response	1	6	6	foodImage.71	FOODEEG_Images\0713.jpg	NY	Right	Yes	0.744795100000374	0	106807	235
209.662109375	1	taste	trialStart	1	7	7	foodImage.20	FOODEEG_Images\0226.jpg	NY	Right	Yes	0.913976900000307	0	107348	251
210.7109375	2	taste	foodImageDisplay	1	7	7	foodImage.20	FOODEEG_Images\0226.jpg	NY	Right	Yes	0.913976900000307	0	107885	252
212.779296875	0.913976900000307	taste	choicePhaseStart	1	7	7	foodImage.20	FOODEEG_Images\0226.jpg	NY	Right	Yes	0.913976900000307	0	108944	253
213.693359375	0	taste	response	1	7	7	foodImage.20	FOODEEG_Images\0226.jpg	NY	Right	Yes	0.913976900000307	0	109412	235
214.748046875	1	decision	trialStart	1	8	8	foodImage.78	FOODEEG_Images\0787.jpg	NY	Right	Yes	0.755814699999974	0	109952	251
215.796875	2	decision	foodImageDisplay	1	8	8	foodImage.78	FOODEEG_Images\0787.jpg	NY	Right	Yes	0.755814699999974	0	110489	252
217.865234375	0.755814699999974	decision	choicePhaseStart	1	8	8	foodImage.78	FOODEEG_Images\0787.jpg	NY	Right	Yes	0.755814699999974	0	111548	253
218.62109375	0	decision	response	1	8	8	foodImage.78	FOODEEG_Images\0787.jpg	NY	Right	Yes	0.755814699999974	0	111935	235
219.666015625	1	health	trialStart	1	9	9	foodImage.112	FOODEEG_Images\0920.jpg	YN	Left	Yes	1.64499780000006	0	112470	251
220.716796875	2	health	foodImageDisplay	1	9	9	foodImage.112	FOODEEG_Images\0920.jpg	YN	Left	Yes	1.64499780000006	0	113008	252
222.78515625	1.64499780000006	health	choicePhaseStart	1	9	9	foodImage.112	FOODEEG_Images\0920.jpg	YN	Left	Yes	1.64499780000006	0	114067	253
224.4296875	0	health	response	1	9	9	foodImage.112	FOODEEG_Images\0920.jpg	YN	Left	Yes	1.64499780000006	0	114909	234
225.486328125	1	health	trialStart	1	10	10	foodImage.100	FOODEEG_Images\0908.jpg	NY	Right	Yes	1.2649394	0	115450	251
226.53515625	2	health	foodImageDisplay	1	10	10	foodImage.100	FOODEEG_Images\0908.jpg	NY	Right	Yes	1.2649394	0	115987	252
228.603515625	1.2649394	health	choicePhaseStart	1	10	10	foodImage.100	FOODEEG_Images\0908.jpg	NY	Right	Yes	1.2649394	0	117046	253
229.869140625	0	health	response	1	10	10	foodImage.100	FOODEEG_Images\0908.jpg	NY	Right	Yes	1.2649394	0	117694	235
230.921875	1	decision	trialStart	1	11	11	foodImage.15	FOODEEG_Images\0189.jpg	NY	Right	Yes	0.836552799999481	0	118233	251
231.98828125	2	decision	foodImageDisplay	1	11	11	foodImage.15	FOODEEG_Images\0189.jpg	NY	Right	Yes	0.836552799999481	0	118779	252
234.056640625	0.836552799999481	decision	choicePhaseStart	1	11	11	foodImage.15	FOODEEG_Images\0189.jpg	NY	Right	Yes	0.836552799999481	0	119838	253
234.892578125	0	decision	response	1	11	11	foodImage.15	FOODEEG_Images\0189.jpg	NY	Right	Yes	0.836552799999481	0	120266	235
235.94140625	1	taste	trialStart	1	12	12	foodImage.17	FOODEEG_Images\0199.jpg	YN	Left	Yes	0.69781090000015	0	120803	251
236.990234375	2	taste	foodImageDisplay	1	12	12	foodImage.17	FOODEEG_Images\0199.jpg	YN	Left	Yes	0.69781090000015	0	121340	252
239.060546875	0.69781090000015	taste	choicePhaseStart	1	12	12	foodImage.17	FOODEEG_Images\0199.jpg	YN	Left	Yes	0.69781090000015	0	122400	253
239.755859375	0	taste	response	1	12	12	foodImage.17	FOODEEG_Images\0199.jpg	YN	Left	Yes	0.69781090000015	0	122756	234
240.80859375	1	decision	trialStart	1	13	13	foodImage.19	FOODEEG_Images\0225.jpg	YN	Left	Yes	0.956528599999729	0	123295	251
241.859375	2	decision	foodImageDisplay	1	13	13	foodImage.19	FOODEEG_Images\0225.jpg	YN	Left	Yes	0.956528599999729	0	123833	252
243.927734375	0.956528599999729	decision	choicePhaseStart	1	13	13	foodImage.19	FOODEEG_Images\0225.jpg	YN	Left	Yes	0.956528599999729	0	124892	253
244.884765625	0	decision	response	1	13	13	foodImage.19	FOODEEG_Images\0225.jpg	YN	Left	Yes	0.956528599999729	0	125382	234
245.962890625	1	decision	trialStart	1	14	14	foodImage.72	FOODEEG_Images\0714.jpg	NY	Right	Yes	0.827942500000063	0	125934	251
247.01171875	2	decision	foodImageDisplay	1	14	14	foodImage.72	FOODEEG_Images\0714.jpg	NY	Right	Yes	0.827942500000063	0	126471	252
249.080078125	0.827942500000063	decision	choicePhaseStart	1	14	14	foodImage.72	FOODEEG_Images\0714.jpg	NY	Right	Yes	0.827942500000063	0	127530	253
249.908203125	0	decision	response	1	14	14	foodImage.72	FOODEEG_Images\0714.jpg	NY	Right	Yes	0.827942500000063	0	127954	235
250.96484375	1	decision	trialStart	1	15	15	foodImage.75	FOODEEG_Images\0763.jpg	YN	Left	Yes	1.27337299999999	0	128495	251
252.015625	2	decision	foodImageDisplay	1	15	15	foodImage.75	FOODEEG_Images\0763.jpg	YN	Left	Yes	1.27337299999999	0	129033	252
254.08203125	1.27337299999999	decision	choicePhaseStart	1	15	15	foodImage.75	FOODEEG_Images\0763.jpg	YN	Left	Yes	1.27337299999999	0	130091	253
255.35546875	0	decision	response	1	15	15	foodImage.75	FOODEEG_Images\0763.jpg	YN	Left	Yes	1.27337299999999	0	130743	234
256.416015625	1	health	trialStart	1	16	16	foodImage.67	FOODEEG_Images\0679.jpg	YN	Left	Yes	0.972174900000027	0	131286	251
257.484375	2	health	foodImageDisplay	1	16	16	foodImage.67	FOODEEG_Images\0679.jpg	YN	Left	Yes	0.972174900000027	0	131833	252
259.55078125	0.972174900000027	health	choicePhaseStart	1	16	16	foodImage.67	FOODEEG_Images\0679.jpg	YN	Left	Yes	0.972174900000027	0	132891	253
260.525390625	0	health	response	1	16	16	foodImage.67	FOODEEG_Images\0679.jpg	YN	Left	Yes	0.972174900000027	0	133390	234
261.603515625	1	health	trialStart	1	17	17	foodImage.11	FOODEEG_Images\0180.jpg	NY	Right	Yes	1.16261370000029	0	133942	251
262.65234375	2	health	foodImageDisplay	1	17	17	foodImage.11	FOODEEG_Images\0180.jpg	NY	Right	Yes	1.16261370000029	0	134479	252
264.720703125	1.16261370000029	health	choicePhaseStart	1	17	17	foodImage.11	FOODEEG_Images\0180.jpg	NY	Right	Yes	1.16261370000029	0	135538	253
265.8828125	0	health	response	1	17	17	foodImage.11	FOODEEG_Images\0180.jpg	NY	Right	Yes	1.16261370000029	0	136133	235
266.939453125	1	taste	trialStart	1	18	18	foodImage.91	FOODEEG_Images\0896.jpg	NY	Right	Yes	0.809894299999542	0	136674	251
268.005859375	2	taste	foodImageDisplay	1	18	18	foodImage.91	FOODEEG_Images\0896.jpg	NY	Right	Yes	0.809894299999542	0	137220	252
270.07421875	0.809894299999542	taste	choicePhaseStart	1	18	18	foodImage.91	FOODEEG_Images\0896.jpg	NY	Right	Yes	0.809894299999542	0	138279	253
270.8828125	0	taste	response	1	18	18	foodImage.91	FOODEEG_Images\0896.jpg	NY	Right	Yes	0.809894299999542	0	138693	235
271.94140625	1	decision	trialStart	1	19	19	foodImage.17	FOODEEG_Images\0199.jpg	NY	Right	Yes	0.752051700000266	0	139235	251
272.9921875	2	decision	foodImageDisplay	1	19	19	foodImage.17	FOODEEG_Images\0199.jpg	NY	Right	Yes	0.752051700000266	0	139773	252
275.05859375	0.752051700000266	decision	choicePhaseStart	1	19	19	foodImage.17	FOODEEG_Images\0199.jpg	NY	Right	Yes	0.752051700000266	0	140831	253
275.810546875	0	decision	response	1	19	19	foodImage.17	FOODEEG_Images\0199.jpg	NY	Right	Yes	0.752051700000266	0	141216	235
276.859375	1	health	trialStart	1	20	20	foodImage.22	FOODEEG_Images\0236.jpg	NY	Right	Yes	0.689050599999973	0	141753	251
277.91015625	2	health	foodImageDisplay	1	20	20	foodImage.22	FOODEEG_Images\0236.jpg	NY	Right	Yes	0.689050599999973	0	142291	252
279.978515625	0.689050599999973	health	choicePhaseStart	1	20	20	foodImage.22	FOODEEG_Images\0236.jpg	NY	Right	Yes	0.689050599999973	0	143350	253
280.66796875	0	health	response	1	20	20	foodImage.22	FOODEEG_Images\0236.jpg	NY	Right	Yes	0.689050599999973	0	143703	235
281.712890625	1	decision	trialStart	1	21	21	foodImage.74	FOODEEG_Images\0752.jpg	NY	Right	Yes	0.620343200000207	0	144238	251
282.76171875	2	decision	foodImageDisplay	1	21	21	foodImage.74	FOODEEG_Images\0752.jpg	NY	Right	Yes	0.620343200000207	0	144775	252
284.830078125	0.620343200000207	decision	choicePhaseStart	1	21	21	foodImage.74	FOODEEG_Images\0752.jpg	NY	Right	Yes	0.620343200000207	0	145834	253
285.451171875	0	decision	response	1	21	21	foodImage.74	FOODEEG_Images\0752.jpg	NY	Right	Yes	0.620343200000207	0	146152	235
286.513671875	1	decision	trialStart	1	22	22	foodImage.8	FOODEEG_Images\0136.jpg	YN	Right	No	1.10587600000053	0	146696	251
287.564453125	2	decision	foodImageDisplay	1	22	22	foodImage.8	FOODEEG_Images\0136.jpg	YN	Right	No	1.10587600000053	0	147234	252
289.6328125	1.10587600000053	decision	choicePhaseStart	1	22	22	foodImage.8	FOODEEG_Images\0136.jpg	YN	Right	No	1.10587600000053	0	148293	253
290.73828125	0	decision	response	1	22	22	foodImage.8	FOODEEG_Images\0136.jpg	YN	Right	No	1.10587600000053	0	148859	235
291.783203125	1	health	trialStart	1	23	23	foodImage.91	FOODEEG_Images\0896.jpg	YN	Left	Yes	1.12331399999948	0	149394	251
292.8515625	2	health	foodImageDisplay	1	23	23	foodImage.91	FOODEEG_Images\0896.jpg	YN	Left	Yes	1.12331399999948	0	149941	252
294.919921875	1.12331399999948	health	choicePhaseStart	1	23	23	foodImage.91	FOODEEG_Images\0896.jpg	YN	Left	Yes	1.12331399999948	0	151000	253
296.04296875	0	health	response	1	23	23	foodImage.91	FOODEEG_Images\0896.jpg	YN	Left	Yes	1.12331399999948	0	151575	234
297.103515625	1	decision	trialStart	1	24	24	foodImage.98	FOODEEG_Images\0906.jpg	YN	Left	Yes	1.74110160000055	0	152118	251
298.154296875	2	decision	foodImageDisplay	1	24	24	foodImage.98	FOODEEG_Images\0906.jpg	YN	Left	Yes	1.74110160000055	0	152656	252
300.220703125	1.74110160000055	decision	choicePhaseStart	1	24	24	foodImage.98	FOODEEG_Images\0906.jpg	YN	Left	Yes	1.74110160000055	0	153714	253
301.962890625	0	decision	response	1	24	24	foodImage.98	FOODEEG_Images\0906.jpg	YN	Left	Yes	1.74110160000055	0	154606	234
303.021484375	1	decision	trialStart	1	25	25	foodImage.23	FOODEEG_Images\0244.jpg	NY	Right	Yes	0.797750499999893	0	155148	251
304.072265625	2	decision	foodImageDisplay	1	25	25	foodImage.23	FOODEEG_Images\0244.jpg	NY	Right	Yes	0.797750499999893	0	155686	252
306.140625	0.797750499999893	decision	choicePhaseStart	1	25	25	foodImage.23	FOODEEG_Images\0244.jpg	NY	Right	Yes	0.797750499999893	0	156745	253
306.9375	0	decision	response	1	25	25	foodImage.23	FOODEEG_Images\0244.jpg	NY	Right	Yes	0.797750499999893	0	157153	235
307.9921875	1	taste	trialStart	1	26	26	foodImage.12	FOODEEG_Images\0181.jpg	NY	Right	Yes	1.32389899999998	0	157693	251
309.041015625	2	taste	foodImageDisplay	1	26	26	foodImage.12	FOODEEG_Images\0181.jpg	NY	Right	Yes	1.32389899999998	0	158230	252
311.109375	1.32389899999998	taste	choicePhaseStart	1	26	26	foodImage.12	FOODEEG_Images\0181.jpg	NY	Right	Yes	1.32389899999998	0	159289	253
312.43359375	0	taste	response	1	26	26	foodImage.12	FOODEEG_Images\0181.jpg	NY	Right	Yes	1.32389899999998	0	159967	235
313.494140625	1	decision	trialStart	1	27	27	foodImage.70	FOODEEG_Images\0705.jpg	NY	Right	Yes	0.564549199999419	0	160510	251
314.560546875	2	decision	foodImageDisplay	1	27	27	foodImage.70	FOODEEG_Images\0705.jpg	NY	Right	Yes	0.564549199999419	0	161056	252
316.62890625	0.564549199999419	decision	choicePhaseStart	1	27	27	foodImage.70	FOODEEG_Images\0705.jpg	NY	Right	Yes	0.564549199999419	0	162115	253
317.193359375	0	decision	response	1	27	27	foodImage.70	FOODEEG_Images\0705.jpg	NY	Right	Yes	0.564549199999419	0	162404	235
318.24609375	1	taste	trialStart	1	28	28	foodImage.111	FOODEEG_Images\0919.jpg	NY	Left	No	0.636991800000033	0	162943	251
319.296875	2	taste	foodImageDisplay	1	28	28	foodImage.111	FOODEEG_Images\0919.jpg	NY	Left	No	0.636991800000033	0	163481	252
321.365234375	0.636991800000033	taste	choicePhaseStart	1	28	28	foodImage.111	FOODEEG_Images\0919.jpg	NY	Left	No	0.636991800000033	0	164540	253
322.001953125	0	taste	response	1	28	28	foodImage.111	FOODEEG_Images\0919.jpg	NY	Left	No	0.636991800000033	0	164866	234
323.048828125	1	taste	trialStart	1	29	29	foodImage.51	FOODEEG_Images\0536.jpg	NY	Left	No	0.850268400000459	0	165402	251
324.099609375	2	taste	foodImageDisplay	1	29	29	foodImage.51	FOODEEG_Images\0536.jpg	NY	Left	No	0.850268400000459	0	165940	252
326.166015625	0.850268400000459	taste	choicePhaseStart	1	29	29	foodImage.51	FOODEEG_Images\0536.jpg	NY	Left	No	0.850268400000459	0	166998	253
327.017578125	0	taste	response	1	29	29	foodImage.51	FOODEEG_Images\0536.jpg	NY	Left	No	0.850268400000459	0	167434	234
328.068359375	1	health	trialStart	1	30	30	foodImage.117	FOODEEG_Images\0925.jpg	YN	Right	No	1.90290779999941	0	167972	251
329.1171875	2	health	foodImageDisplay	1	30	30	foodImage.117	FOODEEG_Images\0925.jpg	YN	Right	No	1.90290779999941	0	168509	252
331.185546875	1.90290779999941	health	choicePhaseStart	1	30	30	foodImage.117	FOODEEG_Images\0925.jpg	YN	Right	No	1.90290779999941	0	169568	253
333.087890625	0	health	response	1	30	30	foodImage.117	FOODEEG_Images\0925.jpg	YN	Right	No	1.90290779999941	0	170542	235
334.13671875	1	decision	trialStart	1	31	31	foodImage.97	FOODEEG_Images\0905.jpg	NY	Left	No	0.745367999999871	0	171079	251
335.1875	2	decision	foodImageDisplay	1	31	31	foodImage.97	FOODEEG_Images\0905.jpg	NY	Left	No	0.745367999999871	0	171617	252
337.255859375	0.745367999999871	decision	choicePhaseStart	1	31	31	foodImage.97	FOODEEG_Images\0905.jpg	NY	Left	No	0.745367999999871	0	172676	253
338	0	decision	response	1	31	31	foodImage.97	FOODEEG_Images\0905.jpg	NY	Left	No	0.745367999999871	0	173057	234
339.056640625	1	decision	trialStart	1	32	32	foodImage.86	FOODEEG_Images\0844.jpg	NY	Right	Yes	0.729534799999783	0	173598	251
340.123046875	2	decision	foodImageDisplay	1	32	32	foodImage.86	FOODEEG_Images\0844.jpg	NY	Right	Yes	0.729534799999783	0	174144	252
342.19140625	0.729534799999783	decision	choicePhaseStart	1	32	32	foodImage.86	FOODEEG_Images\0844.jpg	NY	Right	Yes	0.729534799999783	0	175203	253
342.919921875	0	decision	response	1	32	32	foodImage.86	FOODEEG_Images\0844.jpg	NY	Right	Yes	0.729534799999783	0	175576	235
343.974609375	1	decision	trialStart	1	33	33	foodImage.38	FOODEEG_Images\0365.jpg	NY	Right	Yes	1.20309950000046	0	176116	251
345.025390625	2	decision	foodImageDisplay	1	33	33	foodImage.38	FOODEEG_Images\0365.jpg	NY	Right	Yes	1.20309950000046	0	176654	252
347.09375	1.20309950000046	decision	choicePhaseStart	1	33	33	foodImage.38	FOODEEG_Images\0365.jpg	NY	Right	Yes	1.20309950000046	0	177713	253
348.296875	0	decision	response	1	33	33	foodImage.38	FOODEEG_Images\0365.jpg	NY	Right	Yes	1.20309950000046	0	178329	235
349.34375	1	taste	trialStart	1	34	34	foodImage.113	FOODEEG_Images\0921.jpg	YN	Right	No	1.07343740000033	0	178865	251
350.39453125	2	taste	foodImageDisplay	1	34	34	foodImage.113	FOODEEG_Images\0921.jpg	YN	Right	No	1.07343740000033	0	179403	252
352.462890625	1.07343740000033	taste	choicePhaseStart	1	34	34	foodImage.113	FOODEEG_Images\0921.jpg	YN	Right	No	1.07343740000033	0	180462	253
353.53515625	0	taste	response	1	34	34	foodImage.113	FOODEEG_Images\0921.jpg	YN	Right	No	1.07343740000033	0	181011	235
354.59765625	1	health	trialStart	1	35	35	foodImage.7	FOODEEG_Images\0116.jpg	NY	Left	No	0.916803699999946	0	181555	251
355.646484375	2	health	foodImageDisplay	1	35	35	foodImage.7	FOODEEG_Images\0116.jpg	NY	Left	No	0.916803699999946	0	182092	252
357.71484375	0.916803699999946	health	choicePhaseStart	1	35	35	foodImage.7	FOODEEG_Images\0116.jpg	NY	Left	No	0.916803699999946	0	183151	253
358.630859375	0	health	response	1	35	35	foodImage.7	FOODEEG_Images\0116.jpg	NY	Left	No	0.916803699999946	0	183620	234
359.68359375	1	decision	trialStart	1	36	36	foodImage.69	FOODEEG_Images\0693.jpg	NY	Right	Yes	0.855051000000458	0	184159	251
360.732421875	2	decision	foodImageDisplay	1	36	36	foodImage.69	FOODEEG_Images\0693.jpg	NY	Right	Yes	0.855051000000458	0	184696	252
362.80078125	0.855051000000458	decision	choicePhaseStart	1	36	36	foodImage.69	FOODEEG_Images\0693.jpg	NY	Right	Yes	0.855051000000458	0	185755	253
363.65625	0	decision	response	1	36	36	foodImage.69	FOODEEG_Images\0693.jpg	NY	Right	Yes	0.855051000000458	0	186193	235
364.701171875	1	health	trialStart	1	37	37	foodImage.78	FOODEEG_Images\0787.jpg	NY	Right	Yes	0.795804800000042	0	186728	251
365.751953125	2	health	foodImageDisplay	1	37	37	foodImage.78	FOODEEG_Images\0787.jpg	NY	Right	Yes	0.795804800000042	0	187266	252
367.8203125	0.795804800000042	health	choicePhaseStart	1	37	37	foodImage.78	FOODEEG_Images\0787.jpg	NY	Right	Yes	0.795804800000042	0	188325	253
368.615234375	0	health	response	1	37	37	foodImage.78	FOODEEG_Images\0787.jpg	NY	Right	Yes	0.795804800000042	0	188732	235
369.669921875	1	decision	trialStart	1	38	38	foodImage.73	FOODEEG_Images\0717.jpg	NY	Right	Yes	0.649819900000693	0	189272	251
370.73828125	2	decision	foodImageDisplay	1	38	38	foodImage.73	FOODEEG_Images\0717.jpg	NY	Right	Yes	0.649819900000693	0	189819	252
372.806640625	0.649819900000693	decision	choicePhaseStart	1	38	38	foodImage.73	FOODEEG_Images\0717.jpg	NY	Right	Yes	0.649819900000693	0	190878	253
373.455078125	0	decision	response	1	38	38	foodImage.73	FOODEEG_Images\0717.jpg	NY	Right	Yes	0.649819900000693	0	191210	235
374.505859375	1	health	trialStart	1	39	39	foodImage.63	FOODEEG_Images\0645.jpg	YN	Right	No	1.28675860000021	0	191748	251
375.556640625	2	health	foodImageDisplay	1	39	39	foodImage.63	FOODEEG_Images\0645.jpg	YN	Right	No	1.28675860000021	0	192286	252
377.625	1.28675860000021	health	choicePhaseStart	1	39	39	foodImage.63	FOODEEG_Images\0645.jpg	YN	Right	No	1.28675860000021	0	193345	253
378.91015625	0	health	response	1	39	39	foodImage.63	FOODEEG_Images\0645.jpg	YN	Right	No	1.28675860000021	0	194003	235
379.958984375	1	decision	trialStart	1	40	40	foodImage.109	FOODEEG_Images\0917.jpg	NY	Left	No	1.28161330000057	0	194540	251
381.009765625	2	decision	foodImageDisplay	1	40	40	foodImage.109	FOODEEG_Images\0917.jpg	NY	Left	No	1.28161330000057	0	195078	252
383.076171875	1.28161330000057	decision	choicePhaseStart	1	40	40	foodImage.109	FOODEEG_Images\0917.jpg	NY	Left	No	1.28161330000057	0	196136	253
384.359375	0	decision	response	1	40	40	foodImage.109	FOODEEG_Images\0917.jpg	NY	Left	No	1.28161330000057	0	196793	234
385.412109375	1	taste	trialStart	1	41	41	foodImage.68	FOODEEG_Images\0685.jpg	NY	Right	Yes	0.795533800000157	0	197332	251
386.49609375	2	taste	foodImageDisplay	1	41	41	foodImage.68	FOODEEG_Images\0685.jpg	NY	Right	Yes	0.795533800000157	0	197887	252
388.5625	0.795533800000157	taste	choicePhaseStart	1	41	41	foodImage.68	FOODEEG_Images\0685.jpg	NY	Right	Yes	0.795533800000157	0	198945	253
389.357421875	0	taste	response	1	41	41	foodImage.68	FOODEEG_Images\0685.jpg	NY	Right	Yes	0.795533800000157	0	199352	235
390.4140625	1	taste	trialStart	1	42	42	foodImage.61	FOODEEG_Images\0640.jpg	NY	Right	Yes	1.2426059999998	0	199893	251
391.46484375	2	taste	foodImageDisplay	1	42	42	foodImage.61	FOODEEG_Images\0640.jpg	NY	Right	Yes	1.2426059999998	0	200431	252
393.53125	1.2426059999998	taste	choicePhaseStart	1	42	42	foodImage.61	FOODEEG_Images\0640.jpg	NY	Right	Yes	1.2426059999998	0	201489	253
394.775390625	0	taste	response	1	42	42	foodImage.61	FOODEEG_Images\0640.jpg	NY	Right	Yes	1.2426059999998	0	202126	235
395.833984375	1	taste	trialStart	1	43	43	foodImage.45	FOODEEG_Images\0478.jpg	NY	Right	Yes	0.983171400000174	0	202668	251
396.8828125	2	taste	foodImageDisplay	1	43	43	foodImage.45	FOODEEG_Images\0478.jpg	NY	Right	Yes	0.983171400000174	0	203205	252
398.951171875	0.983171400000174	taste	choicePhaseStart	1	43	43	foodImage.45	FOODEEG_Images\0478.jpg	NY	Right	Yes	0.983171400000174	0	204264	253
399.93359375	0	taste	response	1	43	43	foodImage.45	FOODEEG_Images\0478.jpg	NY	Right	Yes	0.983171400000174	0	204767	235
400.986328125	1	decision	trialStart	1	44	44	foodImage.96	FOODEEG_Images\0904.jpg	YN	Left	Yes	0.766780400000243	0	205306	251
402.03515625	2	decision	foodImageDisplay	1	44	44	foodImage.96	FOODEEG_Images\0904.jpg	YN	Left	Yes	0.766780400000243	0	205843	252
404.103515625	0.766780400000243	decision	choicePhaseStart	1	44	44	foodImage.96	FOODEEG_Images\0904.jpg	YN	Left	Yes	0.766780400000243	0	206902	253
404.87109375	0	decision	response	1	44	44	foodImage.96	FOODEEG_Images\0904.jpg	YN	Left	Yes	0.766780400000243	0	207295	234
405.921875	1	taste	trialStart	1	45	45	foodImage.24	FOODEEG_Images\0250.jpg	YN	Left	Yes	0.710305399999925	0	207833	251
406.970703125	2	taste	foodImageDisplay	1	45	45	foodImage.24	FOODEEG_Images\0250.jpg	YN	Left	Yes	0.710305399999925	0	208370	252
409.0390625	0.710305399999925	taste	choicePhaseStart	1	45	45	foodImage.24	FOODEEG_Images\0250.jpg	YN	Left	Yes	0.710305399999925	0	209429	253
409.75	0	taste	response	1	45	45	foodImage.24	FOODEEG_Images\0250.jpg	YN	Left	Yes	0.710305399999925	0	209793	234
410.82421875	1	taste	trialStart	1	46	46	foodImage.43	FOODEEG_Images\0445.jpg	YN	Left	Yes	0.535145400000147	0	210343	251
411.890625	2	taste	foodImageDisplay	1	46	46	foodImage.43	FOODEEG_Images\0445.jpg	YN	Left	Yes	0.535145400000147	0	210889	252
413.958984375	0.535145400000147	taste	choicePhaseStart	1	46	46	foodImage.43	FOODEEG_Images\0445.jpg	YN	Left	Yes	0.535145400000147	0	211948	253
414.494140625	0	taste	response	1	46	46	foodImage.43	FOODEEG_Images\0445.jpg	YN	Left	Yes	0.535145400000147	0	212222	234
415.55859375	1	health	trialStart	1	47	47	foodImage.9	FOODEEG_Images\0138.jpg	NY	Left	No	0.975525600000765	0	212767	251
416.626953125	2	health	foodImageDisplay	1	47	47	foodImage.9	FOODEEG_Images\0138.jpg	NY	Left	No	0.975525600000765	0	213314	252
418.693359375	0.975525600000765	health	choicePhaseStart	1	47	47	foodImage.9	FOODEEG_Images\0138.jpg	NY	Left	No	0.975525600000765	0	214372	253
419.669921875	0	health	response	1	47	47	foodImage.9	FOODEEG_Images\0138.jpg	NY	Left	No	0.975525600000765	0	214872	234
420.728515625	1	health	trialStart	1	48	48	foodImage.80	FOODEEG_Images\0796.jpg	NY	Right	Yes	1.1824086000006	0	215414	251
421.794921875	2	health	foodImageDisplay	1	48	48	foodImage.80	FOODEEG_Images\0796.jpg	NY	Right	Yes	1.1824086000006	0	215960	252
423.86328125	1.1824086000006	health	choicePhaseStart	1	48	48	foodImage.80	FOODEEG_Images\0796.jpg	NY	Right	Yes	1.1824086000006	0	217019	253
425.044921875	0	health	response	1	48	48	foodImage.80	FOODEEG_Images\0796.jpg	NY	Right	Yes	1.1824086000006	0	217624	235
426.09765625	1	taste	trialStart	1	49	49	foodImage.95	FOODEEG_Images\0903.jpg	NY	Left	No	0.653596000000107	0	218163	251
427.1484375	2	taste	foodImageDisplay	1	49	49	foodImage.95	FOODEEG_Images\0903.jpg	NY	Left	No	0.653596000000107	0	218701	252
429.21484375	0.653596000000107	taste	choicePhaseStart	1	49	49	foodImage.95	FOODEEG_Images\0903.jpg	NY	Left	No	0.653596000000107	0	219759	253
429.869140625	0	taste	response	1	49	49	foodImage.95	FOODEEG_Images\0903.jpg	NY	Left	No	0.653596000000107	0	220094	234
430.916015625	1	health	trialStart	1	50	50	foodImage.105	FOODEEG_Images\0913.jpg	YN	Left	Yes	1.26636919999964	0	220630	251
431.966796875	2	health	foodImageDisplay	1	50	50	foodImage.105	FOODEEG_Images\0913.jpg	YN	Left	Yes	1.26636919999964	0	221168	252
434.03515625	1.26636919999964	health	choicePhaseStart	1	50	50	foodImage.105	FOODEEG_Images\0913.jpg	YN	Left	Yes	1.26636919999964	0	222227	253
435.30078125	0	health	response	1	50	50	foodImage.105	FOODEEG_Images\0913.jpg	YN	Left	Yes	1.26636919999964	0	222875	234
436.3515625	1	decision	trialStart	1	51	51	foodImage.113	FOODEEG_Images\0921.jpg	YN	Right	No	1.1741576000004	0	223413	251
437.40234375	2	decision	foodImageDisplay	1	51	51	foodImage.113	FOODEEG_Images\0921.jpg	YN	Right	No	1.1741576000004	0	223951	252
439.470703125	1.1741576000004	decision	choicePhaseStart	1	51	51	foodImage.113	FOODEEG_Images\0921.jpg	YN	Right	No	1.1741576000004	0	225010	253
440.64453125	0	decision	response	1	51	51	foodImage.113	FOODEEG_Images\0921.jpg	YN	Right	No	1.1741576000004	0	225611	235
441.705078125	1	decision	trialStart	1	52	52	foodImage.50	FOODEEG_Images\0529.jpg	YN	Left	Yes	0.900852400000076	0	226154	251
442.771484375	2	decision	foodImageDisplay	1	52	52	foodImage.50	FOODEEG_Images\0529.jpg	YN	Left	Yes	0.900852400000076	0	226700	252
444.83984375	0.900852400000076	decision	choicePhaseStart	1	52	52	foodImage.50	FOODEEG_Images\0529.jpg	YN	Left	Yes	0.900852400000076	0	227759	253
445.740234375	0	decision	response	1	52	52	foodImage.50	FOODEEG_Images\0529.jpg	YN	Left	Yes	0.900852400000076	0	228220	234
446.791015625	1	taste	trialStart	1	53	53	foodImage.54	FOODEEG_Images\0560.jpg	NY	Right	Yes	0.718538099999932	0	228758	251
447.857421875	2	taste	foodImageDisplay	1	53	53	foodImage.54	FOODEEG_Images\0560.jpg	NY	Right	Yes	0.718538099999932	0	229304	252
449.92578125	0.718538099999932	taste	choicePhaseStart	1	53	53	foodImage.54	FOODEEG_Images\0560.jpg	NY	Right	Yes	0.718538099999932	0	230363	253
450.64453125	0	taste	response	1	53	53	foodImage.54	FOODEEG_Images\0560.jpg	NY	Right	Yes	0.718538099999932	0	230731	235
451.708984375	1	decision	trialStart	1	54	54	foodImage.68	FOODEEG_Images\0685.jpg	YN	Left	Yes	0.958527099999628	0	231276	251
452.79296875	2	decision	foodImageDisplay	1	54	54	foodImage.68	FOODEEG_Images\0685.jpg	YN	Left	Yes	0.958527099999628	0	231831	252
454.861328125	0.958527099999628	decision	choicePhaseStart	1	54	54	foodImage.68	FOODEEG_Images\0685.jpg	YN	Left	Yes	0.958527099999628	0	232890	253
455.8203125	0	decision	response	1	54	54	foodImage.68	FOODEEG_Images\0685.jpg	YN	Left	Yes	0.958527099999628	0	233381	234
456.87890625	1	health	trialStart	1	55	55	foodImage.85	FOODEEG_Images\0841.jpg	NY	Left	No	1.65410059999977	0	233923	251
457.9453125	2	health	foodImageDisplay	1	55	55	foodImage.85	FOODEEG_Images\0841.jpg	NY	Left	No	1.65410059999977	0	234469	252
460.013671875	1.65410059999977	health	choicePhaseStart	1	55	55	foodImage.85	FOODEEG_Images\0841.jpg	NY	Left	No	1.65410059999977	0	235528	253
461.66796875	0	health	response	1	55	55	foodImage.85	FOODEEG_Images\0841.jpg	NY	Left	No	1.65410059999977	0	236375	234
462.71484375	1	taste	trialStart	1	56	56	foodImage.114	FOODEEG_Images\0922.jpg	NY	Left	No	0.786703900000248	0	236911	251
463.765625	2	taste	foodImageDisplay	1	56	56	foodImage.114	FOODEEG_Images\0922.jpg	NY	Left	No	0.786703900000248	0	237449	252
465.83203125	0.786703900000248	taste	choicePhaseStart	1	56	56	foodImage.114	FOODEEG_Images\0922.jpg	NY	Left	No	0.786703900000248	0	238507	253
466.619140625	0	taste	response	1	56	56	foodImage.114	FOODEEG_Images\0922.jpg	NY	Left	No	0.786703900000248	0	238910	234
467.66796875	1	health	trialStart	1	57	57	foodImage.110	FOODEEG_Images\0918.jpg	YN	Right	No	0.954067000000578	0	239447	251
468.716796875	2	health	foodImageDisplay	1	57	57	foodImage.110	FOODEEG_Images\0918.jpg	YN	Right	No	0.954067000000578	0	239984	252
470.78515625	0.954067000000578	health	choicePhaseStart	1	57	57	foodImage.110	FOODEEG_Images\0918.jpg	YN	Right	No	0.954067000000578	0	241043	253
471.73828125	0	health	response	1	57	57	foodImage.110	FOODEEG_Images\0918.jpg	YN	Right	No	0.954067000000578	0	241531	235
472.787109375	1	health	trialStart	1	58	58	foodImage.98	FOODEEG_Images\0906.jpg	NY	Left	No	1.22705560000031	0	242068	251
473.8359375	2	health	foodImageDisplay	1	58	58	foodImage.98	FOODEEG_Images\0906.jpg	NY	Left	No	1.22705560000031	0	242605	252
475.904296875	1.22705560000031	health	choicePhaseStart	1	58	58	foodImage.98	FOODEEG_Images\0906.jpg	NY	Left	No	1.22705560000031	0	243664	253
477.130859375	0	health	response	1	58	58	foodImage.98	FOODEEG_Images\0906.jpg	NY	Left	No	1.22705560000031	0	244292	234
478.189453125	1	decision	trialStart	1	59	59	foodImage.5	FOODEEG_Images\0107.jpg	YN	Left	Yes	0.903456900000492	0	244834	251
479.255859375	2	decision	foodImageDisplay	1	59	59	foodImage.5	FOODEEG_Images\0107.jpg	YN	Left	Yes	0.903456900000492	0	245380	252
481.32421875	0.903456900000492	decision	choicePhaseStart	1	59	59	foodImage.5	FOODEEG_Images\0107.jpg	YN	Left	Yes	0.903456900000492	0	246439	253
482.2265625	0	decision	response	1	59	59	foodImage.5	FOODEEG_Images\0107.jpg	YN	Left	Yes	0.903456900000492	0	246901	234
483.291015625	1	decision	trialStart	1	60	60	foodImage.42	FOODEEG_Images\0438.jpg	YN	Left	Yes	1.07145570000012	0	247446	251
484.392578125	2	decision	foodImageDisplay	1	60	60	foodImage.42	FOODEEG_Images\0438.jpg	YN	Left	Yes	1.07145570000012	0	248010	252
486.458984375	1.07145570000012	decision	choicePhaseStart	1	60	60	foodImage.42	FOODEEG_Images\0438.jpg	YN	Left	Yes	1.07145570000012	0	249068	253
487.53125	0	decision	response	1	60	60	foodImage.42	FOODEEG_Images\0438.jpg	YN	Left	Yes	1.07145570000012	0	249617	234
489.59375	16.0078125	n/a	blockEnd	n/a	n/a	n/a	n/a	n/a	n/a	n/a	n/a	n/a	n/a	250673	254
505.6015625	2	n/a	blockStart	2	n/a	n/a	n/a	n/a	n/a	n/a	n/a	n/a	n/a	258869	250
507.63671875	1	decision	trialStart	2	61	1	foodImage.119	FOODEEG_Images\0927.jpg	YN	Right	No	0.839223500000116	0	259911	251
508.6875	2	decision	foodImageDisplay	2	61	1	foodImage.119	FOODEEG_Images\0927.jpg	YN	Right	No	0.839223500000116	0	260449	252
510.75390625	0.839223500000116	decision	choicePhaseStart	2	61	1	foodImage.119	FOODEEG_Images\0927.jpg	YN	Right	No	0.839223500000116	0	261507	253
511.59375	0	decision	response	2	61	1	foodImage.119	FOODEEG_Images\0927.jpg	YN	Right	No	0.839223500000116	0	261937	235
512.638671875	1	health	trialStart	2	62	2	foodImage.33	FOODEEG_Images\0329.jpg	YN	Left	Yes	1.05281809999997	0	262472	251
513.689453125	2	health	foodImageDisplay	2	62	2	foodImage.33	FOODEEG_Images\0329.jpg	YN	Left	Yes	1.05281809999997	0	263010	252
515.755859375	1.05281809999997	health	choicePhaseStart	2	62	2	foodImage.33	FOODEEG_Images\0329.jpg	YN	Left	Yes	1.05281809999997	0	264068	253
516.80859375	0	health	response	2	62	2	foodImage.33	FOODEEG_Images\0329.jpg	YN	Left	Yes	1.05281809999997	0	264607	234
517.857421875	1	health	trialStart	2	63	3	foodImage.60	FOODEEG_Images\0614.jpg	NY	Right	Yes	1.04912400000012	0	265144	251
518.923828125	2	health	foodImageDisplay	2	63	3	foodImage.60	FOODEEG_Images\0614.jpg	NY	Right	Yes	1.04912400000012	0	265690	252
520.9921875	1.04912400000012	health	choicePhaseStart	2	63	3	foodImage.60	FOODEEG_Images\0614.jpg	NY	Right	Yes	1.04912400000012	0	266749	253
522.041015625	0	health	response	2	63	3	foodImage.60	FOODEEG_Images\0614.jpg	NY	Right	Yes	1.04912400000012	0	267286	235
523.09375	1	taste	trialStart	2	64	4	foodImage.53	FOODEEG_Images\0547.jpg	YN	Right	No	0.957117400000243	0	267825	251
524.16015625	2	taste	foodImageDisplay	2	64	4	foodImage.53	FOODEEG_Images\0547.jpg	YN	Right	No	0.957117400000243	0	268371	252
526.228515625	0.957117400000243	taste	choicePhaseStart	2	64	4	foodImage.53	FOODEEG_Images\0547.jpg	YN	Right	No	0.957117400000243	0	269430	253
527.185546875	0	taste	response	2	64	4	foodImage.53	FOODEEG_Images\0547.jpg	YN	Right	No	0.957117400000243	0	269920	235
528.24609375	1	health	trialStart	2	65	5	foodImage.64	FOODEEG_Images\0647.jpg	NY	Right	Yes	1.03640730000006	0	270463	251
529.3125	2	health	foodImageDisplay	2	65	5	foodImage.64	FOODEEG_Images\0647.jpg	NY	Right	Yes	1.03640730000006	0	271009	252
531.380859375	1.03640730000006	health	choicePhaseStart	2	65	5	foodImage.64	FOODEEG_Images\0647.jpg	NY	Right	Yes	1.03640730000006	0	272068	253
532.41796875	0	health	response	2	65	5	foodImage.64	FOODEEG_Images\0647.jpg	NY	Right	Yes	1.03640730000006	0	272599	235
533.46484375	1	decision	trialStart	2	66	6	foodImage.43	FOODEEG_Images\0445.jpg	NY	Right	Yes	0.896978800000397	0	273135	251
534.53125	2	decision	foodImageDisplay	2	66	6	foodImage.43	FOODEEG_Images\0445.jpg	NY	Right	Yes	0.896978800000397	0	273681	252
536.599609375	0.896978800000397	decision	choicePhaseStart	2	66	6	foodImage.43	FOODEEG_Images\0445.jpg	NY	Right	Yes	0.896978800000397	0	274740	253
537.49609375	0	decision	response	2	66	6	foodImage.43	FOODEEG_Images\0445.jpg	NY	Right	Yes	0.896978800000397	0	275199	235
538.55078125	1	health	trialStart	2	67	7	foodImage.84	FOODEEG_Images\0830.jpg	YN	Left	Yes	0.722948699999506	0	275739	251
539.6171875	2	health	foodImageDisplay	2	67	7	foodImage.84	FOODEEG_Images\0830.jpg	YN	Left	Yes	0.722948699999506	0	276285	252
541.685546875	0.722948699999506	health	choicePhaseStart	2	67	7	foodImage.84	FOODEEG_Images\0830.jpg	YN	Left	Yes	0.722948699999506	0	277344	253
542.408203125	0	health	response	2	67	7	foodImage.84	FOODEEG_Images\0830.jpg	YN	Left	Yes	0.722948699999506	0	277714	234
543.46875	1	taste	trialStart	2	68	8	foodImage.115	FOODEEG_Images\0923.jpg	YN	Right	No	0.980551800000285	0	278257	251
544.51953125	2	taste	foodImageDisplay	2	68	8	foodImage.115	FOODEEG_Images\0923.jpg	YN	Right	No	0.980551800000285	0	278795	252
546.587890625	0.980551800000285	taste	choicePhaseStart	2	68	8	foodImage.115	FOODEEG_Images\0923.jpg	YN	Right	No	0.980551800000285	0	279854	253
547.568359375	0	taste	response	2	68	8	foodImage.115	FOODEEG_Images\0923.jpg	YN	Right	No	0.980551800000285	0	280356	235
548.623046875	1	health	trialStart	2	69	9	foodImage.113	FOODEEG_Images\0921.jpg	YN	Left	Yes	0.891525099999853	0	280896	251
549.671875	2	health	foodImageDisplay	2	69	9	foodImage.113	FOODEEG_Images\0921.jpg	YN	Left	Yes	0.891525099999853	0	281433	252
551.740234375	0.891525099999853	health	choicePhaseStart	2	69	9	foodImage.113	FOODEEG_Images\0921.jpg	YN	Left	Yes	0.891525099999853	0	282492	253
552.6328125	0	health	response	2	69	9	foodImage.113	FOODEEG_Images\0921.jpg	YN	Left	Yes	0.891525099999853	0	282949	234
553.69140625	1	health	trialStart	2	70	10	foodImage.88	FOODEEG_Images\0878.jpg	YN	Right	No	1.51813750000019	0	283491	251
554.7578125	2	health	foodImageDisplay	2	70	10	foodImage.88	FOODEEG_Images\0878.jpg	YN	Right	No	1.51813750000019	0	284037	252
556.826171875	1.51813750000019	health	choicePhaseStart	2	70	10	foodImage.88	FOODEEG_Images\0878.jpg	YN	Right	No	1.51813750000019	0	285096	253
558.34375	0	health	response	2	70	10	foodImage.88	FOODEEG_Images\0878.jpg	YN	Right	No	1.51813750000019	0	285873	235
559.39453125	1	health	trialStart	2	71	11	foodImage.32	FOODEEG_Images\0319.jpg	YN	Left	Yes	2.10379790000025	0	286411	251
560.4453125	2	health	foodImageDisplay	2	71	11	foodImage.32	FOODEEG_Images\0319.jpg	YN	Left	Yes	2.10379790000025	0	286949	252
562.51171875	2.10379790000025	health	choicePhaseStart	2	71	11	foodImage.32	FOODEEG_Images\0319.jpg	YN	Left	Yes	2.10379790000025	0	288007	253
564.615234375	0	health	response	2	71	11	foodImage.32	FOODEEG_Images\0319.jpg	YN	Left	Yes	2.10379790000025	0	289084	234
565.6640625	1	decision	trialStart	2	72	12	foodImage.45	FOODEEG_Images\0478.jpg	YN	Left	Yes	0.905611199999839	0	289621	251
566.71484375	2	decision	foodImageDisplay	2	72	12	foodImage.45	FOODEEG_Images\0478.jpg	YN	Left	Yes	0.905611199999839	0	290159	252
568.783203125	0.905611199999839	decision	choicePhaseStart	2	72	12	foodImage.45	FOODEEG_Images\0478.jpg	YN	Left	Yes	0.905611199999839	0	291218	253
569.6875	0	decision	response	2	72	12	foodImage.45	FOODEEG_Images\0478.jpg	YN	Left	Yes	0.905611199999839	0	291681	234
570.732421875	1	decision	trialStart	2	73	13	foodImage.36	FOODEEG_Images\0352.jpg	YN	Left	Yes	0.995609200000217	0	292216	251
571.798828125	2	decision	foodImageDisplay	2	73	13	foodImage.36	FOODEEG_Images\0352.jpg	YN	Left	Yes	0.995609200000217	0	292762	252
573.869140625	0.995609200000217	decision	choicePhaseStart	2	73	13	foodImage.36	FOODEEG_Images\0352.jpg	YN	Left	Yes	0.995609200000217	0	293822	253
574.86328125	0	decision	response	2	73	13	foodImage.36	FOODEEG_Images\0352.jpg	YN	Left	Yes	0.995609200000217	0	294331	234
575.91796875	1	taste	trialStart	2	74	14	foodImage.110	FOODEEG_Images\0918.jpg	NY	Left	No	1.03432809999958	0	294871	251
576.96875	2	taste	foodImageDisplay	2	74	14	foodImage.110	FOODEEG_Images\0918.jpg	NY	Left	No	1.03432809999958	0	295409	252
579.037109375	1.03432809999958	taste	choicePhaseStart	2	74	14	foodImage.110	FOODEEG_Images\0918.jpg	NY	Left	No	1.03432809999958	0	296468	253
580.0703125	0	taste	response	2	74	14	foodImage.110	FOODEEG_Images\0918.jpg	NY	Left	No	1.03432809999958	0	296997	234
581.12109375	1	taste	trialStart	2	75	15	foodImage.101	FOODEEG_Images\0909.jpg	NY	Left	No	0.855992199999491	0	297535	251
582.171875	2	taste	foodImageDisplay	2	75	15	foodImage.101	FOODEEG_Images\0909.jpg	NY	Left	No	0.855992199999491	0	298073	252
584.23828125	0.855992199999491	taste	choicePhaseStart	2	75	15	foodImage.101	FOODEEG_Images\0909.jpg	NY	Left	No	0.855992199999491	0	299131	253
585.095703125	0	taste	response	2	75	15	foodImage.101	FOODEEG_Images\0909.jpg	NY	Left	No	0.855992199999491	0	299570	234
586.140625	1	taste	trialStart	2	76	16	foodImage.49	FOODEEG_Images\0515.jpg	YN	Left	Yes	1.92463270000007	0	300105	251
587.189453125	2	taste	foodImageDisplay	2	76	16	foodImage.49	FOODEEG_Images\0515.jpg	YN	Left	Yes	1.92463270000007	0	300642	252
589.2578125	1.92463270000007	taste	choicePhaseStart	2	76	16	foodImage.49	FOODEEG_Images\0515.jpg	YN	Left	Yes	1.92463270000007	0	301701	253
591.181640625	0	taste	response	2	76	16	foodImage.49	FOODEEG_Images\0515.jpg	YN	Left	Yes	1.92463270000007	0	302686	234
592.2421875	1	taste	trialStart	2	77	17	foodImage.94	FOODEEG_Images\0902.jpg	NY	Right	Yes	1.40554080000038	0	303229	251
593.29296875	2	taste	foodImageDisplay	2	77	17	foodImage.94	FOODEEG_Images\0902.jpg	NY	Right	Yes	1.40554080000038	0	303767	252
595.361328125	1.40554080000038	taste	choicePhaseStart	2	77	17	foodImage.94	FOODEEG_Images\0902.jpg	NY	Right	Yes	1.40554080000038	0	304826	253
596.765625	0	taste	response	2	77	17	foodImage.94	FOODEEG_Images\0902.jpg	NY	Right	Yes	1.40554080000038	0	305545	235
597.8125	1	decision	trialStart	2	78	18	foodImage.91	FOODEEG_Images\0896.jpg	YN	Left	Yes	0.947466600000553	0	306081	251
598.87890625	2	decision	foodImageDisplay	2	78	18	foodImage.91	FOODEEG_Images\0896.jpg	YN	Left	Yes	0.947466600000553	0	306627	252
600.947265625	0.947466600000553	decision	choicePhaseStart	2	78	18	foodImage.91	FOODEEG_Images\0896.jpg	YN	Left	Yes	0.947466600000553	0	307686	253
601.89453125	0	decision	response	2	78	18	foodImage.91	FOODEEG_Images\0896.jpg	YN	Left	Yes	0.947466600000553	0	308171	234
602.947265625	1	health	trialStart	2	79	19	foodImage.12	FOODEEG_Images\0181.jpg	YN	Left	Yes	1.03547590000016	0	308710	251
603.998046875	2	health	foodImageDisplay	2	79	19	foodImage.12	FOODEEG_Images\0181.jpg	YN	Left	Yes	1.03547590000016	0	309248	252
606.06640625	1.03547590000016	health	choicePhaseStart	2	79	19	foodImage.12	FOODEEG_Images\0181.jpg	YN	Left	Yes	1.03547590000016	0	310307	253
607.1015625	0	health	response	2	79	19	foodImage.12	FOODEEG_Images\0181.jpg	YN	Left	Yes	1.03547590000016	0	310837	234
608.150390625	1	decision	trialStart	2	80	20	foodImage.62	FOODEEG_Images\0644.jpg	NY	Right	Yes	0.824734699999681	0	311374	251
609.216796875	2	decision	foodImageDisplay	2	80	20	foodImage.62	FOODEEG_Images\0644.jpg	NY	Right	Yes	0.824734699999681	0	311920	252
611.28515625	0.824734699999681	decision	choicePhaseStart	2	80	20	foodImage.62	FOODEEG_Images\0644.jpg	NY	Right	Yes	0.824734699999681	0	312979	253
612.109375	0	decision	response	2	80	20	foodImage.62	FOODEEG_Images\0644.jpg	NY	Right	Yes	0.824734699999681	0	313401	235
613.169921875	1	decision	trialStart	2	81	21	foodImage.24	FOODEEG_Images\0250.jpg	NY	Right	Yes	0.862125900000137	0	313944	251
614.220703125	2	decision	foodImageDisplay	2	81	21	foodImage.24	FOODEEG_Images\0250.jpg	NY	Right	Yes	0.862125900000137	0	314482	252
616.287109375	0.862125900000137	decision	choicePhaseStart	2	81	21	foodImage.24	FOODEEG_Images\0250.jpg	NY	Right	Yes	0.862125900000137	0	315540	253
617.150390625	0	decision	response	2	81	21	foodImage.24	FOODEEG_Images\0250.jpg	NY	Right	Yes	0.862125900000137	0	315982	235
618.205078125	1	decision	trialStart	2	82	22	foodImage.47	FOODEEG_Images\0488.jpg	NY	Right	Yes	0.826272499999504	0	316522	251
619.255859375	2	decision	foodImageDisplay	2	82	22	foodImage.47	FOODEEG_Images\0488.jpg	NY	Right	Yes	0.826272499999504	0	317060	252
621.322265625	0.826272499999504	decision	choicePhaseStart	2	82	22	foodImage.47	FOODEEG_Images\0488.jpg	NY	Right	Yes	0.826272499999504	0	318118	253
622.150390625	0	decision	response	2	82	22	foodImage.47	FOODEEG_Images\0488.jpg	NY	Right	Yes	0.826272499999504	0	318542	235
623.20703125	1	taste	trialStart	2	83	23	foodImage.86	FOODEEG_Images\0844.jpg	YN	Left	Yes	1.10293170000023	0	319083	251
624.275390625	2	taste	foodImageDisplay	2	83	23	foodImage.86	FOODEEG_Images\0844.jpg	YN	Left	Yes	1.10293170000023	0	319630	252
626.341796875	1.10293170000023	taste	choicePhaseStart	2	83	23	foodImage.86	FOODEEG_Images\0844.jpg	YN	Left	Yes	1.10293170000023	0	320688	253
627.4453125	0	taste	response	2	83	23	foodImage.86	FOODEEG_Images\0844.jpg	YN	Left	Yes	1.10293170000023	0	321253	234
628.494140625	1	decision	trialStart	2	84	24	foodImage.40	FOODEEG_Images\0373.jpg	YN	Left	Yes	1.25733550000041	0	321790	251
629.54296875	2	decision	foodImageDisplay	2	84	24	foodImage.40	FOODEEG_Images\0373.jpg	YN	Left	Yes	1.25733550000041	0	322327	252
631.611328125	1.25733550000041	decision	choicePhaseStart	2	84	24	foodImage.40	FOODEEG_Images\0373.jpg	YN	Left	Yes	1.25733550000041	0	323386	253
632.869140625	0	decision	response	2	84	24	foodImage.40	FOODEEG_Images\0373.jpg	YN	Left	Yes	1.25733550000041	0	324030	234
633.9296875	1	taste	trialStart	2	85	25	foodImage.39	FOODEEG_Images\0367.jpg	YN	Left	Yes	0.797417300000234	0	324573	251
634.98046875	2	taste	foodImageDisplay	2	85	25	foodImage.39	FOODEEG_Images\0367.jpg	YN	Left	Yes	0.797417300000234	0	325111	252
637.046875	0.797417300000234	taste	choicePhaseStart	2	85	25	foodImage.39	FOODEEG_Images\0367.jpg	YN	Left	Yes	0.797417300000234	0	326169	253
637.845703125	0	taste	response	2	85	25	foodImage.39	FOODEEG_Images\0367.jpg	YN	Left	Yes	0.797417300000234	0	326578	234
638.8984375	1	health	trialStart	2	86	26	foodImage.57	FOODEEG_Images\0587.jpg	NY	Left	No	1.71631419999994	0	327117	251
639.94921875	2	health	foodImageDisplay	2	86	26	foodImage.57	FOODEEG_Images\0587.jpg	NY	Left	No	1.71631419999994	0	327655	252
642.015625	1.71631419999994	health	choicePhaseStart	2	86	26	foodImage.57	FOODEEG_Images\0587.jpg	NY	Left	No	1.71631419999994	0	328713	253
643.732421875	0	health	response	2	86	26	foodImage.57	FOODEEG_Images\0587.jpg	NY	Left	No	1.71631419999994	0	329592	234
644.78515625	1	health	trialStart	2	87	27	foodImage.118	FOODEEG_Images\0926.jpg	YN	Right	No	2.38980289999927	0	330131	251
645.8359375	2	health	foodImageDisplay	2	87	27	foodImage.118	FOODEEG_Images\0926.jpg	YN	Right	No	2.38980289999927	0	330669	252
647.90234375	2.38980289999927	health	choicePhaseStart	2	87	27	foodImage.118	FOODEEG_Images\0926.jpg	YN	Right	No	2.38980289999927	0	331727	253
650.29296875	0	health	response	2	87	27	foodImage.118	FOODEEG_Images\0926.jpg	YN	Right	No	2.38980289999927	0	332951	235
651.337890625	1	decision	trialStart	2	88	28	foodImage.104	FOODEEG_Images\0912.jpg	YN	Left	Yes	1.30853399999978	0	333486	251
652.388671875	2	decision	foodImageDisplay	2	88	28	foodImage.104	FOODEEG_Images\0912.jpg	YN	Left	Yes	1.30853399999978	0	334024	252
654.455078125	1.30853399999978	decision	choicePhaseStart	2	88	28	foodImage.104	FOODEEG_Images\0912.jpg	YN	Left	Yes	1.30853399999978	0	335082	253
655.763671875	0	decision	response	2	88	28	foodImage.104	FOODEEG_Images\0912.jpg	YN	Left	Yes	1.30853399999978	0	335752	234
656.82421875	1	taste	trialStart	2	89	29	foodImage.40	FOODEEG_Images\0373.jpg	YN	Left	Yes	1.11025550000068	0	336295	251
657.873046875	2	taste	foodImageDisplay	2	89	29	foodImage.40	FOODEEG_Images\0373.jpg	YN	Left	Yes	1.11025550000068	0	336832	252
659.94140625	1.11025550000068	taste	choicePhaseStart	2	89	29	foodImage.40	FOODEEG_Images\0373.jpg	YN	Left	Yes	1.11025550000068	0	337891	253
661.05078125	0	taste	response	2	89	29	foodImage.40	FOODEEG_Images\0373.jpg	YN	Left	Yes	1.11025550000068	0	338459	234
662.109375	1	decision	trialStart	2	90	30	foodImage.58	FOODEEG_Images\0605.jpg	YN	Left	Yes	0.847723400000177	0	339001	251
663.17578125	2	decision	foodImageDisplay	2	90	30	foodImage.58	FOODEEG_Images\0605.jpg	YN	Left	Yes	0.847723400000177	0	339547	252
665.244140625	0.847723400000177	decision	choicePhaseStart	2	90	30	foodImage.58	FOODEEG_Images\0605.jpg	YN	Left	Yes	0.847723400000177	0	340606	253
666.091796875	0	decision	response	2	90	30	foodImage.58	FOODEEG_Images\0605.jpg	YN	Left	Yes	0.847723400000177	0	341040	234
667.14453125	1	health	trialStart	2	91	31	foodImage.120	FOODEEG_Images\0928.jpg	NY	Right	Yes	1.18830000000071	0	341579	251
668.1953125	2	health	foodImageDisplay	2	91	31	foodImage.120	FOODEEG_Images\0928.jpg	NY	Right	Yes	1.18830000000071	0	342117	252
670.263671875	1.18830000000071	health	choicePhaseStart	2	91	31	foodImage.120	FOODEEG_Images\0928.jpg	NY	Right	Yes	1.18830000000071	0	343176	253
671.451171875	0	health	response	2	91	31	foodImage.120	FOODEEG_Images\0928.jpg	NY	Right	Yes	1.18830000000071	0	343784	235
672.498046875	1	decision	trialStart	2	92	32	foodImage.77	FOODEEG_Images\0771.jpg	YN	Left	Yes	1.0594102999994	0	344320	251
673.548828125	2	decision	foodImageDisplay	2	92	32	foodImage.77	FOODEEG_Images\0771.jpg	YN	Left	Yes	1.0594102999994	0	344858	252
675.615234375	1.0594102999994	decision	choicePhaseStart	2	92	32	foodImage.77	FOODEEG_Images\0771.jpg	YN	Left	Yes	1.0594102999994	0	345916	253
676.67578125	0	decision	response	2	92	32	foodImage.77	FOODEEG_Images\0771.jpg	YN	Left	Yes	1.0594102999994	0	346459	234
677.734375	1	health	trialStart	2	93	33	foodImage.8	FOODEEG_Images\0136.jpg	NY	Left	No	1.29559059999974	0	347001	251
678.783203125	2	health	foodImageDisplay	2	93	33	foodImage.8	FOODEEG_Images\0136.jpg	NY	Left	No	1.29559059999974	0	347538	252
680.8515625	1.29559059999974	health	choicePhaseStart	2	93	33	foodImage.8	FOODEEG_Images\0136.jpg	NY	Left	No	1.29559059999974	0	348597	253
682.146484375	0	health	response	2	93	33	foodImage.8	FOODEEG_Images\0136.jpg	NY	Left	No	1.29559059999974	0	349260	234
683.203125	1	taste	trialStart	2	94	34	foodImage.99	FOODEEG_Images\0907.jpg	YN	Right	No	1.25783320000028	0	349801	251
684.25390625	2	taste	foodImageDisplay	2	94	34	foodImage.99	FOODEEG_Images\0907.jpg	YN	Right	No	1.25783320000028	0	350339	252
686.3203125	1.25783320000028	taste	choicePhaseStart	2	94	34	foodImage.99	FOODEEG_Images\0907.jpg	YN	Right	No	1.25783320000028	0	351397	253
687.578125	0	taste	response	2	94	34	foodImage.99	FOODEEG_Images\0907.jpg	YN	Right	No	1.25783320000028	0	352041	235
688.638671875	1	taste	trialStart	2	95	35	foodImage.11	FOODEEG_Images\0180.jpg	YN	Right	No	0.725773099999969	0	352584	251
689.689453125	2	taste	foodImageDisplay	2	95	35	foodImage.11	FOODEEG_Images\0180.jpg	YN	Right	No	0.725773099999969	0	353122	252
691.7578125	0.725773099999969	taste	choicePhaseStart	2	95	35	foodImage.11	FOODEEG_Images\0180.jpg	YN	Right	No	0.725773099999969	0	354181	253
692.482421875	0	taste	response	2	95	35	foodImage.11	FOODEEG_Images\0180.jpg	YN	Right	No	0.725773099999969	0	354552	235
693.541015625	1	decision	trialStart	2	96	36	foodImage.29	FOODEEG_Images\0278.jpg	NY	Left	No	1.37559950000013	0	355094	251
694.591796875	2	decision	foodImageDisplay	2	96	36	foodImage.29	FOODEEG_Images\0278.jpg	NY	Left	No	1.37559950000013	0	355632	252
696.658203125	1.37559950000013	decision	choicePhaseStart	2	96	36	foodImage.29	FOODEEG_Images\0278.jpg	NY	Left	No	1.37559950000013	0	356690	253
698.03515625	0	decision	response	2	96	36	foodImage.29	FOODEEG_Images\0278.jpg	NY	Left	No	1.37559950000013	0	357395	234
699.09375	1	taste	trialStart	2	97	37	foodImage.58	FOODEEG_Images\0605.jpg	NY	Right	Yes	0.925946499999554	0	357937	251
700.16015625	2	taste	foodImageDisplay	2	97	37	foodImage.58	FOODEEG_Images\0605.jpg	NY	Right	Yes	0.925946499999554	0	358483	252
702.228515625	0.925946499999554	taste	choicePhaseStart	2	97	37	foodImage.58	FOODEEG_Images\0605.jpg	NY	Right	Yes	0.925946499999554	0	359542	253
703.154296875	0	taste	response	2	97	37	foodImage.58	FOODEEG_Images\0605.jpg	NY	Right	Yes	0.925946499999554	0	360016	235
704.212890625	1	health	trialStart	2	98	38	foodImage.93	FOODEEG_Images\0901.jpg	NY	Right	Yes	1.35932420000063	0	360558	251
705.263671875	2	health	foodImageDisplay	2	98	38	foodImage.93	FOODEEG_Images\0901.jpg	NY	Right	Yes	1.35932420000063	0	361096	252
707.33203125	1.35932420000063	health	choicePhaseStart	2	98	38	foodImage.93	FOODEEG_Images\0901.jpg	NY	Right	Yes	1.35932420000063	0	362155	253
708.689453125	0	health	response	2	98	38	foodImage.93	FOODEEG_Images\0901.jpg	NY	Right	Yes	1.35932420000063	0	362850	235
709.748046875	1	decision	trialStart	2	99	39	foodImage.100	FOODEEG_Images\0908.jpg	YN	Left	Yes	0.847179800000049	0	363392	251
710.798828125	2	decision	foodImageDisplay	2	99	39	foodImage.100	FOODEEG_Images\0908.jpg	YN	Left	Yes	0.847179800000049	0	363930	252
712.8671875	0.847179800000049	decision	choicePhaseStart	2	99	39	foodImage.100	FOODEEG_Images\0908.jpg	YN	Left	Yes	0.847179800000049	0	364989	253
713.712890625	0	decision	response	2	99	39	foodImage.100	FOODEEG_Images\0908.jpg	YN	Left	Yes	0.847179800000049	0	365422	234
714.767578125	1	taste	trialStart	2	100	40	foodImage.4	FOODEEG_Images\0065.jpg	YN	Left	Yes	0.771268200000122	0	365962	251
715.833984375	2	taste	foodImageDisplay	2	100	40	foodImage.4	FOODEEG_Images\0065.jpg	YN	Left	Yes	0.771268200000122	0	366508	252
717.90234375	0.771268200000122	taste	choicePhaseStart	2	100	40	foodImage.4	FOODEEG_Images\0065.jpg	YN	Left	Yes	0.771268200000122	0	367567	253
718.673828125	0	taste	response	2	100	40	foodImage.4	FOODEEG_Images\0065.jpg	YN	Left	Yes	0.771268200000122	0	367962	234
719.720703125	1	decision	trialStart	2	101	41	foodImage.59	FOODEEG_Images\0607.jpg	NY	Left	No	1.79510409999966	0	368498	251
720.76953125	2	decision	foodImageDisplay	2	101	41	foodImage.59	FOODEEG_Images\0607.jpg	NY	Left	No	1.79510409999966	0	369035	252
722.837890625	1.79510409999966	decision	choicePhaseStart	2	101	41	foodImage.59	FOODEEG_Images\0607.jpg	NY	Left	No	1.79510409999966	0	370094	253
724.6328125	0	decision	response	2	101	41	foodImage.59	FOODEEG_Images\0607.jpg	NY	Left	No	1.79510409999966	0	371013	234
725.689453125	1	health	trialStart	2	102	42	foodImage.41	FOODEEG_Images\0409.jpg	NY	Right	Yes	1.27392270000018	0	371554	251
726.740234375	2	health	foodImageDisplay	2	102	42	foodImage.41	FOODEEG_Images\0409.jpg	NY	Right	Yes	1.27392270000018	0	372092	252
728.806640625	1.27392270000018	health	choicePhaseStart	2	102	42	foodImage.41	FOODEEG_Images\0409.jpg	NY	Right	Yes	1.27392270000018	0	373150	253
730.08203125	0	health	response	2	102	42	foodImage.41	FOODEEG_Images\0409.jpg	NY	Right	Yes	1.27392270000018	0	373803	235
731.142578125	1	health	trialStart	2	103	43	foodImage.72	FOODEEG_Images\0714.jpg	YN	Left	Yes	1.17292759999964	0	374346	251
732.193359375	2	health	foodImageDisplay	2	103	43	foodImage.72	FOODEEG_Images\0714.jpg	YN	Left	Yes	1.17292759999964	0	374884	252
734.259765625	1.17292759999964	health	choicePhaseStart	2	103	43	foodImage.72	FOODEEG_Images\0714.jpg	YN	Left	Yes	1.17292759999964	0	375942	253
735.43359375	0	health	response	2	103	43	foodImage.72	FOODEEG_Images\0714.jpg	YN	Left	Yes	1.17292759999964	0	376543	234
736.494140625	1	decision	trialStart	2	104	44	foodImage.57	FOODEEG_Images\0587.jpg	YN	Left	Yes	0.699525600000015	0	377086	251
737.5625	2	decision	foodImageDisplay	2	104	44	foodImage.57	FOODEEG_Images\0587.jpg	YN	Left	Yes	0.699525600000015	0	377633	252
739.62890625	0.699525600000015	decision	choicePhaseStart	2	104	44	foodImage.57	FOODEEG_Images\0587.jpg	YN	Left	Yes	0.699525600000015	0	378691	253
740.328125	0	decision	response	2	104	44	foodImage.57	FOODEEG_Images\0587.jpg	YN	Left	Yes	0.699525600000015	0	379049	234
741.380859375	1	decision	trialStart	2	105	45	foodImage.6	FOODEEG_Images\0113.jpg	YN	Left	Yes	1.23820119999982	0	379588	251
742.431640625	2	decision	foodImageDisplay	2	105	45	foodImage.6	FOODEEG_Images\0113.jpg	YN	Left	Yes	1.23820119999982	0	380126	252
744.498046875	1.23820119999982	decision	choicePhaseStart	2	105	45	foodImage.6	FOODEEG_Images\0113.jpg	YN	Left	Yes	1.23820119999982	0	381184	253
745.736328125	0	decision	response	2	105	45	foodImage.6	FOODEEG_Images\0113.jpg	YN	Left	Yes	1.23820119999982	0	381818	234
746.783203125	1	health	trialStart	2	106	46	foodImage.34	FOODEEG_Images\0339.jpg	NY	Left	No	0.802691400000185	0	382354	251
747.849609375	2	health	foodImageDisplay	2	106	46	foodImage.34	FOODEEG_Images\0339.jpg	NY	Left	No	0.802691400000185	0	382900	252
749.91796875	0.802691400000185	health	choicePhaseStart	2	106	46	foodImage.34	FOODEEG_Images\0339.jpg	NY	Left	No	0.802691400000185	0	383959	253
750.720703125	0	health	response	2	106	46	foodImage.34	FOODEEG_Images\0339.jpg	NY	Left	No	0.802691400000185	0	384370	234
751.767578125	1	taste	trialStart	2	107	47	foodImage.21	FOODEEG_Images\0234.jpg	YN	Left	Yes	0.896869399999559	0	384906	251
752.8359375	2	taste	foodImageDisplay	2	107	47	foodImage.21	FOODEEG_Images\0234.jpg	YN	Left	Yes	0.896869399999559	0	385453	252
754.904296875	0.896869399999559	taste	choicePhaseStart	2	107	47	foodImage.21	FOODEEG_Images\0234.jpg	YN	Left	Yes	0.896869399999559	0	386512	253
755.80078125	0	taste	response	2	107	47	foodImage.21	FOODEEG_Images\0234.jpg	YN	Left	Yes	0.896869399999559	0	386971	234
756.853515625	1	taste	trialStart	2	108	48	foodImage.109	FOODEEG_Images\0917.jpg	YN	Right	No	0.867803399999502	0	387510	251
757.904296875	2	taste	foodImageDisplay	2	108	48	foodImage.109	FOODEEG_Images\0917.jpg	YN	Right	No	0.867803399999502	0	388048	252
759.97265625	0.867803399999502	taste	choicePhaseStart	2	108	48	foodImage.109	FOODEEG_Images\0917.jpg	YN	Right	No	0.867803399999502	0	389107	253
760.83984375	0	taste	response	2	108	48	foodImage.109	FOODEEG_Images\0917.jpg	YN	Right	No	0.867803399999502	0	389551	235
761.890625	1	decision	trialStart	2	109	49	foodImage.67	FOODEEG_Images\0679.jpg	NY	Right	Yes	0.759110400000282	0	390089	251
762.95703125	2	decision	foodImageDisplay	2	109	49	foodImage.67	FOODEEG_Images\0679.jpg	NY	Right	Yes	0.759110400000282	0	390635	252
765.025390625	0.759110400000282	decision	choicePhaseStart	2	109	49	foodImage.67	FOODEEG_Images\0679.jpg	NY	Right	Yes	0.759110400000282	0	391694	253
765.783203125	0	decision	response	2	109	49	foodImage.67	FOODEEG_Images\0679.jpg	NY	Right	Yes	0.759110400000282	0	392082	235
766.841796875	1	taste	trialStart	2	110	50	foodImage.41	FOODEEG_Images\0409.jpg	NY	Right	Yes	0.982992400000512	0	392624	251
767.892578125	2	taste	foodImageDisplay	2	110	50	foodImage.41	FOODEEG_Images\0409.jpg	NY	Right	Yes	0.982992400000512	0	393162	252
769.9609375	0.982992400000512	taste	choicePhaseStart	2	110	50	foodImage.41	FOODEEG_Images\0409.jpg	NY	Right	Yes	0.982992400000512	0	394221	253
770.943359375	0	taste	response	2	110	50	foodImage.41	FOODEEG_Images\0409.jpg	NY	Right	Yes	0.982992400000512	0	394724	235
771.994140625	1	health	trialStart	2	111	51	foodImage.4	FOODEEG_Images\0065.jpg	YN	Left	Yes	1.30198689999997	0	395262	251
773.0625	2	health	foodImageDisplay	2	111	51	foodImage.4	FOODEEG_Images\0065.jpg	YN	Left	Yes	1.30198689999997	0	395809	252
775.12890625	1.30198689999997	health	choicePhaseStart	2	111	51	foodImage.4	FOODEEG_Images\0065.jpg	YN	Left	Yes	1.30198689999997	0	396867	253
776.431640625	0	health	response	2	111	51	foodImage.4	FOODEEG_Images\0065.jpg	YN	Left	Yes	1.30198689999997	0	397534	234
777.48046875	1	health	trialStart	2	112	52	foodImage.59	FOODEEG_Images\0607.jpg	NY	Left	No	1.16026719999991	0	398071	251
778.53125	2	health	foodImageDisplay	2	112	52	foodImage.59	FOODEEG_Images\0607.jpg	NY	Left	No	1.16026719999991	0	398609	252
780.599609375	1.16026719999991	health	choicePhaseStart	2	112	52	foodImage.59	FOODEEG_Images\0607.jpg	NY	Left	No	1.16026719999991	0	399668	253
781.759765625	0	health	response	2	112	52	foodImage.59	FOODEEG_Images\0607.jpg	NY	Left	No	1.16026719999991	0	400262	234
782.81640625	1	taste	trialStart	2	113	53	foodImage.2	FOODEEG_Images\0028.jpg	NY	Right	Yes	1.04804039999999	0	400803	251
783.8671875	2	taste	foodImageDisplay	2	113	53	foodImage.2	FOODEEG_Images\0028.jpg	NY	Right	Yes	1.04804039999999	0	401341	252
785.93359375	1.04804039999999	taste	choicePhaseStart	2	113	53	foodImage.2	FOODEEG_Images\0028.jpg	NY	Right	Yes	1.04804039999999	0	402399	253
786.982421875	0	taste	response	2	113	53	foodImage.2	FOODEEG_Images\0028.jpg	NY	Right	Yes	1.04804039999999	0	402936	235
788.03515625	1	health	trialStart	2	114	54	foodImage.44	FOODEEG_Images\0459.jpg	NY	Right	Yes	0.852878800000326	0	403475	251
789.0859375	2	health	foodImageDisplay	2	114	54	foodImage.44	FOODEEG_Images\0459.jpg	NY	Right	Yes	0.852878800000326	0	404013	252
791.154296875	0.852878800000326	health	choicePhaseStart	2	114	54	foodImage.44	FOODEEG_Images\0459.jpg	NY	Right	Yes	0.852878800000326	0	405072	253
792.005859375	0	health	response	2	114	54	foodImage.44	FOODEEG_Images\0459.jpg	NY	Right	Yes	0.852878800000326	0	405508	235
793.0546875	1	decision	trialStart	2	115	55	foodImage.92	FOODEEG_Images\0900.jpg	YN	Right	No	0.96967609999956	0	406045	251
794.10546875	2	decision	foodImageDisplay	2	115	55	foodImage.92	FOODEEG_Images\0900.jpg	YN	Right	No	0.96967609999956	0	406583	252
796.173828125	0.96967609999956	decision	choicePhaseStart	2	115	55	foodImage.92	FOODEEG_Images\0900.jpg	YN	Right	No	0.96967609999956	0	407642	253
797.142578125	0	decision	response	2	115	55	foodImage.92	FOODEEG_Images\0900.jpg	YN	Right	No	0.96967609999956	0	408138	235
798.19140625	1	health	trialStart	2	116	56	foodImage.47	FOODEEG_Images\0488.jpg	NY	Left	No	0.801730099999986	0	408675	251
799.240234375	2	health	foodImageDisplay	2	116	56	foodImage.47	FOODEEG_Images\0488.jpg	NY	Left	No	0.801730099999986	0	409212	252
801.30859375	0.801730099999986	health	choicePhaseStart	2	116	56	foodImage.47	FOODEEG_Images\0488.jpg	NY	Left	No	0.801730099999986	0	410271	253
802.111328125	0	health	response	2	116	56	foodImage.47	FOODEEG_Images\0488.jpg	NY	Left	No	0.801730099999986	0	410682	234
803.16015625	1	taste	trialStart	2	117	57	foodImage.90	FOODEEG_Images\0890.jpg	YN	Left	Yes	1.60788509999929	0	411219	251
804.2265625	2	taste	foodImageDisplay	2	117	57	foodImage.90	FOODEEG_Images\0890.jpg	YN	Left	Yes	1.60788509999929	0	411765	252
806.294921875	1.60788509999929	taste	choicePhaseStart	2	117	57	foodImage.90	FOODEEG_Images\0890.jpg	YN	Left	Yes	1.60788509999929	0	412824	253
807.90234375	0	taste	response	2	117	57	foodImage.90	FOODEEG_Images\0890.jpg	YN	Left	Yes	1.60788509999929	0	413647	234
808.962890625	1	health	trialStart	2	118	58	foodImage.76	FOODEEG_Images\0766.jpg	NY	Right	Yes	0.773534800000562	0	414190	251
810.013671875	2	health	foodImageDisplay	2	118	58	foodImage.76	FOODEEG_Images\0766.jpg	NY	Right	Yes	0.773534800000562	0	414728	252
812.080078125	0.773534800000562	health	choicePhaseStart	2	118	58	foodImage.76	FOODEEG_Images\0766.jpg	NY	Right	Yes	0.773534800000562	0	415786	253
812.853515625	0	health	response	2	118	58	foodImage.76	FOODEEG_Images\0766.jpg	NY	Right	Yes	0.773534800000562	0	416182	235
813.931640625	1	decision	trialStart	2	119	59	foodImage.9	FOODEEG_Images\0138.jpg	YN	Left	Yes	0.916130199999316	0	416734	251
814.998046875	2	decision	foodImageDisplay	2	119	59	foodImage.9	FOODEEG_Images\0138.jpg	YN	Left	Yes	0.916130199999316	0	417280	252
817.06640625	0.916130199999316	decision	choicePhaseStart	2	119	59	foodImage.9	FOODEEG_Images\0138.jpg	YN	Left	Yes	0.916130199999316	0	418339	253
817.982421875	0	decision	response	2	119	59	foodImage.9	FOODEEG_Images\0138.jpg	YN	Left	Yes	0.916130199999316	0	418808	234
819.05078125	1	decision	trialStart	2	120	60	foodImage.66	FOODEEG_Images\0676.jpg	NY	Right	Yes	1.16508620000059	0	419355	251
820.1015625	2	decision	foodImageDisplay	2	120	60	foodImage.66	FOODEEG_Images\0676.jpg	NY	Right	Yes	1.16508620000059	0	419893	252
822.169921875	1.16508620000059	decision	choicePhaseStart	2	120	60	foodImage.66	FOODEEG_Images\0676.jpg	NY	Right	Yes	1.16508620000059	0	420952	253
823.333984375	0	decision	response	2	120	60	foodImage.66	FOODEEG_Images\0676.jpg	NY	Right	Yes	1.16508620000059	0	421548	235
825.384765625	39.00390625	n/a	blockEnd	n/a	n/a	n/a	n/a	n/a	n/a	n/a	n/a	n/a	n/a	422598	254
864.388671875	2	n/a	blockStart	3	n/a	n/a	n/a	n/a	n/a	n/a	n/a	n/a	n/a	442568	250
866.423828125	1	taste	trialStart	3	121	1	foodImage.116	FOODEEG_Images\0924.jpg	YN	Right	No	0.686764199999743	0	443610	251
867.47265625	2	taste	foodImageDisplay	3	121	1	foodImage.116	FOODEEG_Images\0924.jpg	YN	Right	No	0.686764199999743	0	444147	252
869.541015625	0.686764199999743	taste	choicePhaseStart	3	121	1	foodImage.116	FOODEEG_Images\0924.jpg	YN	Right	No	0.686764199999743	0	445206	253
870.228515625	0	taste	response	3	121	1	foodImage.116	FOODEEG_Images\0924.jpg	YN	Right	No	0.686764199999743	0	445558	235
871.275390625	1	health	trialStart	3	122	2	foodImage.61	FOODEEG_Images\0640.jpg	YN	Left	Yes	0.706067900000562	0	446094	251
872.326171875	2	health	foodImageDisplay	3	122	2	foodImage.61	FOODEEG_Images\0640.jpg	YN	Left	Yes	0.706067900000562	0	446632	252
874.392578125	0.706067900000562	health	choicePhaseStart	3	122	2	foodImage.61	FOODEEG_Images\0640.jpg	YN	Left	Yes	0.706067900000562	0	447690	253
875.099609375	0	health	response	3	122	2	foodImage.61	FOODEEG_Images\0640.jpg	YN	Left	Yes	0.706067900000562	0	448052	234
876.16015625	1	health	trialStart	3	123	3	foodImage.50	FOODEEG_Images\0529.jpg	YN	Left	Yes	0.68385170000056	0	448595	251
877.228515625	2	health	foodImageDisplay	3	123	3	foodImage.50	FOODEEG_Images\0529.jpg	YN	Left	Yes	0.68385170000056	0	449142	252
879.294921875	0.68385170000056	health	choicePhaseStart	3	123	3	foodImage.50	FOODEEG_Images\0529.jpg	YN	Left	Yes	0.68385170000056	0	450200	253
879.978515625	0	health	response	3	123	3	foodImage.50	FOODEEG_Images\0529.jpg	YN	Left	Yes	0.68385170000056	0	450550	234
881.029296875	1	health	trialStart	3	124	4	foodImage.40	FOODEEG_Images\0373.jpg	YN	Right	No	1.12683230000039	0	451088	251
882.080078125	2	health	foodImageDisplay	3	124	4	foodImage.40	FOODEEG_Images\0373.jpg	YN	Right	No	1.12683230000039	0	451626	252
884.1484375	1.12683230000039	health	choicePhaseStart	3	124	4	foodImage.40	FOODEEG_Images\0373.jpg	YN	Right	No	1.12683230000039	0	452685	253
885.275390625	0	health	response	3	124	4	foodImage.40	FOODEEG_Images\0373.jpg	YN	Right	No	1.12683230000039	0	453262	235
886.33203125	1	health	trialStart	3	125	5	foodImage.31	FOODEEG_Images\0294.jpg	NY	Right	Yes	1.04851039999994	0	453803	251
887.3828125	2	health	foodImageDisplay	3	125	5	foodImage.31	FOODEEG_Images\0294.jpg	NY	Right	Yes	1.04851039999994	0	454341	252
889.451171875	1.04851039999994	health	choicePhaseStart	3	125	5	foodImage.31	FOODEEG_Images\0294.jpg	NY	Right	Yes	1.04851039999994	0	455400	253
890.498046875	0	health	response	3	125	5	foodImage.31	FOODEEG_Images\0294.jpg	NY	Right	Yes	1.04851039999994	0	455936	235
891.55078125	1	decision	trialStart	3	126	6	foodImage.80	FOODEEG_Images\0796.jpg	NY	Right	Yes	0.916327500000079	0	456475	251
892.619140625	2	decision	foodImageDisplay	3	126	6	foodImage.80	FOODEEG_Images\0796.jpg	NY	Right	Yes	0.916327500000079	0	457022	252
894.685546875	0.916327500000079	decision	choicePhaseStart	3	126	6	foodImage.80	FOODEEG_Images\0796.jpg	NY	Right	Yes	0.916327500000079	0	458080	253
895.603515625	0	decision	response	3	126	6	foodImage.80	FOODEEG_Images\0796.jpg	NY	Right	Yes	0.916327500000079	0	458550	235
896.654296875	1	taste	trialStart	3	127	7	foodImage.46	FOODEEG_Images\0479.jpg	NY	Right	Yes	0.715276799999629	0	459088	251
897.720703125	2	taste	foodImageDisplay	3	127	7	foodImage.46	FOODEEG_Images\0479.jpg	NY	Right	Yes	0.715276799999629	0	459634	252
899.861328125	0.715276799999629	taste	choicePhaseStart	3	127	7	foodImage.46	FOODEEG_Images\0479.jpg	NY	Right	Yes	0.715276799999629	0	460730	253
900.5703125	0	taste	response	3	127	7	foodImage.46	FOODEEG_Images\0479.jpg	NY	Right	Yes	0.715276799999629	0	461093	235
901.623046875	1	health	trialStart	3	128	8	foodImage.71	FOODEEG_Images\0713.jpg	YN	Right	No	0.933033299999806	0	461632	251
902.673828125	2	health	foodImageDisplay	3	128	8	foodImage.71	FOODEEG_Images\0713.jpg	YN	Right	No	0.933033299999806	0	462170	252
904.740234375	0.933033299999806	health	choicePhaseStart	3	128	8	foodImage.71	FOODEEG_Images\0713.jpg	YN	Right	No	0.933033299999806	0	463228	253
905.673828125	0	health	response	3	128	8	foodImage.71	FOODEEG_Images\0713.jpg	YN	Right	No	0.933033299999806	0	463706	235
906.724609375	1	decision	trialStart	3	129	9	foodImage.39	FOODEEG_Images\0367.jpg	YN	Left	Yes	1.17453329999989	0	464244	251
907.775390625	2	decision	foodImageDisplay	3	129	9	foodImage.39	FOODEEG_Images\0367.jpg	YN	Left	Yes	1.17453329999989	0	464782	252
909.84375	1.17453329999989	decision	choicePhaseStart	3	129	9	foodImage.39	FOODEEG_Images\0367.jpg	YN	Left	Yes	1.17453329999989	0	465841	253
911.017578125	0	decision	response	3	129	9	foodImage.39	FOODEEG_Images\0367.jpg	YN	Left	Yes	1.17453329999989	0	466442	234
912.078125	1	health	trialStart	3	130	10	foodImage.24	FOODEEG_Images\0250.jpg	YN	Left	Yes	0.734027900000001	0	466985	251
913.12890625	2	health	foodImageDisplay	3	130	10	foodImage.24	FOODEEG_Images\0250.jpg	YN	Left	Yes	0.734027900000001	0	467523	252
915.1953125	0.734027900000001	health	choicePhaseStart	3	130	10	foodImage.24	FOODEEG_Images\0250.jpg	YN	Left	Yes	0.734027900000001	0	468581	253
915.9296875	0	health	response	3	130	10	foodImage.24	FOODEEG_Images\0250.jpg	YN	Left	Yes	0.734027900000001	0	468957	234
916.98046875	1	taste	trialStart	3	131	11	foodImage.55	FOODEEG_Images\0567.jpg	YN	Left	Yes	0.894182099999853	0	469495	251
918.064453125	2	taste	foodImageDisplay	3	131	11	foodImage.55	FOODEEG_Images\0567.jpg	YN	Left	Yes	0.894182099999853	0	470050	252
920.130859375	0.894182099999853	taste	choicePhaseStart	3	131	11	foodImage.55	FOODEEG_Images\0567.jpg	YN	Left	Yes	0.894182099999853	0	471108	253
921.025390625	0	taste	response	3	131	11	foodImage.55	FOODEEG_Images\0567.jpg	YN	Left	Yes	0.894182099999853	0	471566	234
922.08203125	1	health	trialStart	3	132	12	foodImage.6	FOODEEG_Images\0113.jpg	NY	Left	No	1.28873139999996	0	472107	251
923.1328125	2	health	foodImageDisplay	3	132	12	foodImage.6	FOODEEG_Images\0113.jpg	NY	Left	No	1.28873139999996	0	472645	252
925.201171875	1.28873139999996	health	choicePhaseStart	3	132	12	foodImage.6	FOODEEG_Images\0113.jpg	NY	Left	No	1.28873139999996	0	473704	253
926.490234375	0	health	response	3	132	12	foodImage.6	FOODEEG_Images\0113.jpg	NY	Left	No	1.28873139999996	0	474364	234
927.53515625	1	taste	trialStart	3	133	13	foodImage.65	FOODEEG_Images\0658.jpg	YN	Right	No	1.97202689999995	0	474899	251
928.5859375	2	taste	foodImageDisplay	3	133	13	foodImage.65	FOODEEG_Images\0658.jpg	YN	Right	No	1.97202689999995	0	475437	252
930.65234375	1.97202689999995	taste	choicePhaseStart	3	133	13	foodImage.65	FOODEEG_Images\0658.jpg	YN	Right	No	1.97202689999995	0	476495	253
932.625	0	taste	response	3	133	13	foodImage.65	FOODEEG_Images\0658.jpg	YN	Right	No	1.97202689999995	0	477505	235
933.671875	1	health	trialStart	3	134	14	foodImage.73	FOODEEG_Images\0717.jpg	YN	Right	No	1.1067850999998	0	478041	251
934.73828125	2	health	foodImageDisplay	3	134	14	foodImage.73	FOODEEG_Images\0717.jpg	YN	Right	No	1.1067850999998	0	478587	252
936.806640625	1.1067850999998	health	choicePhaseStart	3	134	14	foodImage.73	FOODEEG_Images\0717.jpg	YN	Right	No	1.1067850999998	0	479646	253
937.912109375	0	health	response	3	134	14	foodImage.73	FOODEEG_Images\0717.jpg	YN	Right	No	1.1067850999998	0	480212	235
938.974609375	1	decision	trialStart	3	135	15	foodImage.107	FOODEEG_Images\0915.jpg	YN	Right	No	1.52459780000027	0	480756	251
940.025390625	2	decision	foodImageDisplay	3	135	15	foodImage.107	FOODEEG_Images\0915.jpg	YN	Right	No	1.52459780000027	0	481294	252
942.091796875	1.52459780000027	decision	choicePhaseStart	3	135	15	foodImage.107	FOODEEG_Images\0915.jpg	YN	Right	No	1.52459780000027	0	482352	253
943.6171875	0	decision	response	3	135	15	foodImage.107	FOODEEG_Images\0915.jpg	YN	Right	No	1.52459780000027	0	483133	235
944.677734375	1	health	trialStart	3	136	16	foodImage.19	FOODEEG_Images\0225.jpg	NY	Right	Yes	1.29373829999986	0	483676	251
945.7265625	2	health	foodImageDisplay	3	136	16	foodImage.19	FOODEEG_Images\0225.jpg	NY	Right	Yes	1.29373829999986	0	484213	252
947.794921875	1.29373829999986	health	choicePhaseStart	3	136	16	foodImage.19	FOODEEG_Images\0225.jpg	NY	Right	Yes	1.29373829999986	0	485272	253
949.087890625	0	health	response	3	136	16	foodImage.19	FOODEEG_Images\0225.jpg	NY	Right	Yes	1.29373829999986	0	485934	235
950.146484375	1	decision	trialStart	3	137	17	foodImage.112	FOODEEG_Images\0920.jpg	YN	Right	No	0.784206400000585	0	486476	251
951.197265625	2	decision	foodImageDisplay	3	137	17	foodImage.112	FOODEEG_Images\0920.jpg	YN	Right	No	0.784206400000585	0	487014	252
953.263671875	0.784206400000585	decision	choicePhaseStart	3	137	17	foodImage.112	FOODEEG_Images\0920.jpg	YN	Right	No	0.784206400000585	0	488072	253
954.048828125	0	decision	response	3	137	17	foodImage.112	FOODEEG_Images\0920.jpg	YN	Right	No	0.784206400000585	0	488474	235
955.09765625	1	taste	trialStart	3	138	18	foodImage.44	FOODEEG_Images\0459.jpg	YN	Left	Yes	0.903439000000617	0	489011	251
956.1484375	2	taste	foodImageDisplay	3	138	18	foodImage.44	FOODEEG_Images\0459.jpg	YN	Left	Yes	0.903439000000617	0	489549	252
958.216796875	0.903439000000617	taste	choicePhaseStart	3	138	18	foodImage.44	FOODEEG_Images\0459.jpg	YN	Left	Yes	0.903439000000617	0	490608	253
959.119140625	0	taste	response	3	138	18	foodImage.44	FOODEEG_Images\0459.jpg	YN	Left	Yes	0.903439000000617	0	491070	234
960.16796875	1	decision	trialStart	3	139	19	foodImage.114	FOODEEG_Images\0922.jpg	YN	Right	No	1.13053300000047	0	491607	251
961.21875	2	decision	foodImageDisplay	3	139	19	foodImage.114	FOODEEG_Images\0922.jpg	YN	Right	No	1.13053300000047	0	492145	252
963.28515625	1.13053300000047	decision	choicePhaseStart	3	139	19	foodImage.114	FOODEEG_Images\0922.jpg	YN	Right	No	1.13053300000047	0	493203	253
964.416015625	0	decision	response	3	139	19	foodImage.114	FOODEEG_Images\0922.jpg	YN	Right	No	1.13053300000047	0	493782	235
965.470703125	1	taste	trialStart	3	140	20	foodImage.30	FOODEEG_Images\0282.jpg	YN	Left	Yes	0.915550299999268	0	494322	251
966.51953125	2	taste	foodImageDisplay	3	140	20	foodImage.30	FOODEEG_Images\0282.jpg	YN	Left	Yes	0.915550299999268	0	494859	252
968.587890625	0.915550299999268	taste	choicePhaseStart	3	140	20	foodImage.30	FOODEEG_Images\0282.jpg	YN	Left	Yes	0.915550299999268	0	495918	253
969.50390625	0	taste	response	3	140	20	foodImage.30	FOODEEG_Images\0282.jpg	YN	Left	Yes	0.915550299999268	0	496387	234
970.556640625	1	decision	trialStart	3	141	21	foodImage.22	FOODEEG_Images\0236.jpg	YN	Left	Yes	1.02195249999932	0	496926	251
971.60546875	2	decision	foodImageDisplay	3	141	21	foodImage.22	FOODEEG_Images\0236.jpg	YN	Left	Yes	1.02195249999932	0	497463	252
973.673828125	1.02195249999932	decision	choicePhaseStart	3	141	21	foodImage.22	FOODEEG_Images\0236.jpg	YN	Left	Yes	1.02195249999932	0	498522	253
974.6953125	0	decision	response	3	141	21	foodImage.22	FOODEEG_Images\0236.jpg	YN	Left	Yes	1.02195249999932	0	499045	234
975.7421875	1	health	trialStart	3	142	22	foodImage.65	FOODEEG_Images\0658.jpg	NY	Left	No	1.0998481000006	0	499581	251
976.791015625	2	health	foodImageDisplay	3	142	22	foodImage.65	FOODEEG_Images\0658.jpg	NY	Left	No	1.0998481000006	0	500118	252
978.859375	1.0998481000006	health	choicePhaseStart	3	142	22	foodImage.65	FOODEEG_Images\0658.jpg	NY	Left	No	1.0998481000006	0	501177	253
979.958984375	0	health	response	3	142	22	foodImage.65	FOODEEG_Images\0658.jpg	NY	Left	No	1.0998481000006	0	501740	234
981.01171875	1	health	trialStart	3	143	23	foodImage.53	FOODEEG_Images\0547.jpg	YN	Right	No	1.22174859999996	0	502279	251
982.078125	2	health	foodImageDisplay	3	143	23	foodImage.53	FOODEEG_Images\0547.jpg	YN	Right	No	1.22174859999996	0	502825	252
984.14453125	1.22174859999996	health	choicePhaseStart	3	143	23	foodImage.53	FOODEEG_Images\0547.jpg	YN	Right	No	1.22174859999996	0	503883	253
985.3671875	0	health	response	3	143	23	foodImage.53	FOODEEG_Images\0547.jpg	YN	Right	No	1.22174859999996	0	504509	235
986.4296875	1	taste	trialStart	3	144	24	foodImage.62	FOODEEG_Images\0644.jpg	NY	Right	Yes	1.59425529999953	0	505053	251
987.49609375	2	taste	foodImageDisplay	3	144	24	foodImage.62	FOODEEG_Images\0644.jpg	NY	Right	Yes	1.59425529999953	0	505599	252
989.564453125	1.59425529999953	taste	choicePhaseStart	3	144	24	foodImage.62	FOODEEG_Images\0644.jpg	NY	Right	Yes	1.59425529999953	0	506658	253
991.158203125	0	taste	response	3	144	24	foodImage.62	FOODEEG_Images\0644.jpg	NY	Right	Yes	1.59425529999953	0	507474	235
992.21484375	1	decision	trialStart	3	145	25	foodImage.49	FOODEEG_Images\0515.jpg	YN	Left	Yes	1.03285620000042	0	508015	251
993.265625	2	decision	foodImageDisplay	3	145	25	foodImage.49	FOODEEG_Images\0515.jpg	YN	Left	Yes	1.03285620000042	0	508553	252
995.333984375	1.03285620000042	decision	choicePhaseStart	3	145	25	foodImage.49	FOODEEG_Images\0515.jpg	YN	Left	Yes	1.03285620000042	0	509612	253
996.3671875	0	decision	response	3	145	25	foodImage.49	FOODEEG_Images\0515.jpg	YN	Left	Yes	1.03285620000042	0	510141	234
997.41796875	1	health	trialStart	3	146	26	foodImage.96	FOODEEG_Images\0904.jpg	NY	Right	Yes	0.766270400000394	0	510679	251
998.46875	2	health	foodImageDisplay	3	146	26	foodImage.96	FOODEEG_Images\0904.jpg	NY	Right	Yes	0.766270400000394	0	511217	252
1000.537109375	0.766270400000394	health	choicePhaseStart	3	146	26	foodImage.96	FOODEEG_Images\0904.jpg	NY	Right	Yes	0.766270400000394	0	512276	253
1001.302734375	0	health	response	3	146	26	foodImage.96	FOODEEG_Images\0904.jpg	NY	Right	Yes	0.766270400000394	0	512668	235
1002.353515625	1	decision	trialStart	3	147	27	foodImage.4	FOODEEG_Images\0065.jpg	YN	Left	Yes	1.08552200000031	0	513206	251
1003.421875	2	decision	foodImageDisplay	3	147	27	foodImage.4	FOODEEG_Images\0065.jpg	YN	Left	Yes	1.08552200000031	0	513753	252
1005.48828125	1.08552200000031	decision	choicePhaseStart	3	147	27	foodImage.4	FOODEEG_Images\0065.jpg	YN	Left	Yes	1.08552200000031	0	514811	253
1006.57421875	0	decision	response	3	147	27	foodImage.4	FOODEEG_Images\0065.jpg	YN	Left	Yes	1.08552200000031	0	515367	234
1007.623046875	1	decision	trialStart	3	148	28	foodImage.44	FOODEEG_Images\0459.jpg	NY	Right	Yes	0.696787900000345	0	515904	251
1008.673828125	2	decision	foodImageDisplay	3	148	28	foodImage.44	FOODEEG_Images\0459.jpg	NY	Right	Yes	0.696787900000345	0	516442	252
1010.740234375	0.696787900000345	decision	choicePhaseStart	3	148	28	foodImage.44	FOODEEG_Images\0459.jpg	NY	Right	Yes	0.696787900000345	0	517500	253
1011.4375	0	decision	response	3	148	28	foodImage.44	FOODEEG_Images\0459.jpg	NY	Right	Yes	0.696787900000345	0	517857	235
1012.4921875	1	health	trialStart	3	149	29	foodImage.55	FOODEEG_Images\0567.jpg	NY	Right	Yes	0.954973199999586	0	518397	251
1013.55859375	2	health	foodImageDisplay	3	149	29	foodImage.55	FOODEEG_Images\0567.jpg	NY	Right	Yes	0.954973199999586	0	518943	252
1015.626953125	0.954973199999586	health	choicePhaseStart	3	149	29	foodImage.55	FOODEEG_Images\0567.jpg	NY	Right	Yes	0.954973199999586	0	520002	253
1016.58203125	0	health	response	3	149	29	foodImage.55	FOODEEG_Images\0567.jpg	NY	Right	Yes	0.954973199999586	0	520491	235
1017.62890625	1	health	trialStart	3	150	30	foodImage.75	FOODEEG_Images\0763.jpg	YN	Left	Yes	0.771595899999738	0	521027	251
1018.677734375	2	health	foodImageDisplay	3	150	30	foodImage.75	FOODEEG_Images\0763.jpg	YN	Left	Yes	0.771595899999738	0	521564	252
1020.74609375	0.771595899999738	health	choicePhaseStart	3	150	30	foodImage.75	FOODEEG_Images\0763.jpg	YN	Left	Yes	0.771595899999738	0	522623	253
1021.517578125	0	health	response	3	150	30	foodImage.75	FOODEEG_Images\0763.jpg	YN	Left	Yes	0.771595899999738	0	523018	234
1022.564453125	1	decision	trialStart	3	151	31	foodImage.28	FOODEEG_Images\0273.jpg	NY	Left	No	0.85975370000051	0	523554	251
1023.61328125	2	decision	foodImageDisplay	3	151	31	foodImage.28	FOODEEG_Images\0273.jpg	NY	Left	No	0.85975370000051	0	524091	252
1025.681640625	0.85975370000051	decision	choicePhaseStart	3	151	31	foodImage.28	FOODEEG_Images\0273.jpg	NY	Left	No	0.85975370000051	0	525150	253
1026.541015625	0	decision	response	3	151	31	foodImage.28	FOODEEG_Images\0273.jpg	NY	Left	No	0.85975370000051	0	525590	234
1027.599609375	1	health	trialStart	3	152	32	foodImage.109	FOODEEG_Images\0917.jpg	NY	Left	No	0.656021099999634	0	526132	251
1028.650390625	2	health	foodImageDisplay	3	152	32	foodImage.109	FOODEEG_Images\0917.jpg	NY	Left	No	0.656021099999634	0	526670	252
1030.716796875	0.656021099999634	health	choicePhaseStart	3	152	32	foodImage.109	FOODEEG_Images\0917.jpg	NY	Left	No	0.656021099999634	0	527728	253
1031.373046875	0	health	response	3	152	32	foodImage.109	FOODEEG_Images\0917.jpg	NY	Left	No	0.656021099999634	0	528064	234
1032.435546875	1	health	trialStart	3	153	33	foodImage.30	FOODEEG_Images\0282.jpg	YN	Left	Yes	0.876019100000121	0	528608	251
1033.484375	2	health	foodImageDisplay	3	153	33	foodImage.30	FOODEEG_Images\0282.jpg	YN	Left	Yes	0.876019100000121	0	529145	252
1035.552734375	0.876019100000121	health	choicePhaseStart	3	153	33	foodImage.30	FOODEEG_Images\0282.jpg	YN	Left	Yes	0.876019100000121	0	530204	253
1036.4296875	0	health	response	3	153	33	foodImage.30	FOODEEG_Images\0282.jpg	YN	Left	Yes	0.876019100000121	0	530653	234
1037.50390625	1	taste	trialStart	3	154	34	foodImage.52	FOODEEG_Images\0539.jpg	YN	Left	Yes	1.02221879999979	0	531203	251
1038.5703125	2	taste	foodImageDisplay	3	154	34	foodImage.52	FOODEEG_Images\0539.jpg	YN	Left	Yes	1.02221879999979	0	531749	252
1040.638671875	1.02221879999979	taste	choicePhaseStart	3	154	34	foodImage.52	FOODEEG_Images\0539.jpg	YN	Left	Yes	1.02221879999979	0	532808	253
1041.66015625	0	taste	response	3	154	34	foodImage.52	FOODEEG_Images\0539.jpg	YN	Left	Yes	1.02221879999979	0	533331	234
1042.70703125	1	health	trialStart	3	155	35	foodImage.116	FOODEEG_Images\0924.jpg	YN	Right	No	0.939817999999832	0	533867	251
1043.7578125	2	health	foodImageDisplay	3	155	35	foodImage.116	FOODEEG_Images\0924.jpg	YN	Right	No	0.939817999999832	0	534405	252
1045.82421875	0.939817999999832	health	choicePhaseStart	3	155	35	foodImage.116	FOODEEG_Images\0924.jpg	YN	Right	No	0.939817999999832	0	535463	253
1046.763671875	0	health	response	3	155	35	foodImage.116	FOODEEG_Images\0924.jpg	YN	Right	No	0.939817999999832	0	535944	235
1047.826171875	1	decision	trialStart	3	156	36	foodImage.63	FOODEEG_Images\0645.jpg	NY	Right	Yes	0.852908799999568	0	536488	251
1048.876953125	2	decision	foodImageDisplay	3	156	36	foodImage.63	FOODEEG_Images\0645.jpg	NY	Right	Yes	0.852908799999568	0	537026	252
1050.943359375	0.852908799999568	decision	choicePhaseStart	3	156	36	foodImage.63	FOODEEG_Images\0645.jpg	NY	Right	Yes	0.852908799999568	0	538084	253
1051.796875	0	decision	response	3	156	36	foodImage.63	FOODEEG_Images\0645.jpg	NY	Right	Yes	0.852908799999568	0	538521	235
1052.84375	1	taste	trialStart	3	157	37	foodImage.83	FOODEEG_Images\0827.jpg	YN	Left	Yes	0.648804999999811	0	539057	251
1053.912109375	2	taste	foodImageDisplay	3	157	37	foodImage.83	FOODEEG_Images\0827.jpg	YN	Left	Yes	0.648804999999811	0	539604	252
1055.978515625	0.648804999999811	taste	choicePhaseStart	3	157	37	foodImage.83	FOODEEG_Images\0827.jpg	YN	Left	Yes	0.648804999999811	0	540662	253
1056.62890625	0	taste	response	3	157	37	foodImage.83	FOODEEG_Images\0827.jpg	YN	Left	Yes	0.648804999999811	0	540995	234
1057.6796875	1	taste	trialStart	3	158	38	foodImage.120	FOODEEG_Images\0928.jpg	NY	Left	No	1.51784500000031	0	541533	251
1058.73046875	2	taste	foodImageDisplay	3	158	38	foodImage.120	FOODEEG_Images\0928.jpg	NY	Left	No	1.51784500000031	0	542071	252
1060.798828125	1.51784500000031	taste	choicePhaseStart	3	158	38	foodImage.120	FOODEEG_Images\0928.jpg	NY	Left	No	1.51784500000031	0	543130	253
1062.31640625	0	taste	response	3	158	38	foodImage.120	FOODEEG_Images\0928.jpg	NY	Left	No	1.51784500000031	0	543907	234
1063.3671875	1	health	trialStart	3	159	39	foodImage.36	FOODEEG_Images\0352.jpg	NY	Right	Yes	1.05474429999958	0	544445	251
1064.43359375	2	health	foodImageDisplay	3	159	39	foodImage.36	FOODEEG_Images\0352.jpg	NY	Right	Yes	1.05474429999958	0	544991	252
1066.501953125	1.05474429999958	health	choicePhaseStart	3	159	39	foodImage.36	FOODEEG_Images\0352.jpg	NY	Right	Yes	1.05474429999958	0	546050	253
1067.556640625	0	health	response	3	159	39	foodImage.36	FOODEEG_Images\0352.jpg	NY	Right	Yes	1.05474429999958	0	546590	235
1068.6015625	1	health	trialStart	3	160	40	foodImage.39	FOODEEG_Images\0367.jpg	YN	Right	No	0.715277899999819	0	547125	251
1069.65234375	2	health	foodImageDisplay	3	160	40	foodImage.39	FOODEEG_Images\0367.jpg	YN	Right	No	0.715277899999819	0	547663	252
1071.720703125	0.715277899999819	health	choicePhaseStart	3	160	40	foodImage.39	FOODEEG_Images\0367.jpg	YN	Right	No	0.715277899999819	0	548722	253
1072.435546875	0	health	response	3	160	40	foodImage.39	FOODEEG_Images\0367.jpg	YN	Right	No	0.715277899999819	0	549088	235
1073.48828125	1	taste	trialStart	3	161	41	foodImage.35	FOODEEG_Images\0350.jpg	YN	Left	Yes	1.01362559999961	0	549627	251
1074.5390625	2	taste	foodImageDisplay	3	161	41	foodImage.35	FOODEEG_Images\0350.jpg	YN	Left	Yes	1.01362559999961	0	550165	252
1076.60546875	1.01362559999961	taste	choicePhaseStart	3	161	41	foodImage.35	FOODEEG_Images\0350.jpg	YN	Left	Yes	1.01362559999961	0	551223	253
1077.619140625	0	taste	response	3	161	41	foodImage.35	FOODEEG_Images\0350.jpg	YN	Left	Yes	1.01362559999961	0	551742	234
1078.673828125	1	taste	trialStart	3	162	42	foodImage.60	FOODEEG_Images\0614.jpg	NY	Right	Yes	1.46699420000004	0	552282	251
1079.740234375	2	taste	foodImageDisplay	3	162	42	foodImage.60	FOODEEG_Images\0614.jpg	NY	Right	Yes	1.46699420000004	0	552828	252
1081.80859375	1.46699420000004	taste	choicePhaseStart	3	162	42	foodImage.60	FOODEEG_Images\0614.jpg	NY	Right	Yes	1.46699420000004	0	553887	253
1083.275390625	0	taste	response	3	162	42	foodImage.60	FOODEEG_Images\0614.jpg	NY	Right	Yes	1.46699420000004	0	554638	235
1084.326171875	1	decision	trialStart	3	163	43	foodImage.90	FOODEEG_Images\0890.jpg	NY	Right	Yes	1.25384810000014	0	555176	251
1085.392578125	2	decision	foodImageDisplay	3	163	43	foodImage.90	FOODEEG_Images\0890.jpg	NY	Right	Yes	1.25384810000014	0	555722	252
1087.4609375	1.25384810000014	decision	choicePhaseStart	3	163	43	foodImage.90	FOODEEG_Images\0890.jpg	NY	Right	Yes	1.25384810000014	0	556781	253
1088.71484375	0	decision	response	3	163	43	foodImage.90	FOODEEG_Images\0890.jpg	NY	Right	Yes	1.25384810000014	0	557423	235
1089.76171875	1	health	trialStart	3	164	44	foodImage.119	FOODEEG_Images\0927.jpg	YN	Left	Yes	2.29032019999977	0	557959	251
1090.8125	2	health	foodImageDisplay	3	164	44	foodImage.119	FOODEEG_Images\0927.jpg	YN	Left	Yes	2.29032019999977	0	558497	252
1092.880859375	2.29032019999977	health	choicePhaseStart	3	164	44	foodImage.119	FOODEEG_Images\0927.jpg	YN	Left	Yes	2.29032019999977	0	559556	253
1095.169921875	0	health	response	3	164	44	foodImage.119	FOODEEG_Images\0927.jpg	YN	Left	Yes	2.29032019999977	0	560728	234
1096.232421875	1	decision	trialStart	3	165	45	foodImage.56	FOODEEG_Images\0586.jpg	YN	Left	Yes	0.955982800000129	0	561272	251
1097.298828125	2	decision	foodImageDisplay	3	165	45	foodImage.56	FOODEEG_Images\0586.jpg	YN	Left	Yes	0.955982800000129	0	561818	252
1099.3671875	0.955982800000129	decision	choicePhaseStart	3	165	45	foodImage.56	FOODEEG_Images\0586.jpg	YN	Left	Yes	0.955982800000129	0	562877	253
1100.322265625	0	decision	response	3	165	45	foodImage.56	FOODEEG_Images\0586.jpg	YN	Left	Yes	0.955982800000129	0	563366	234
1101.3671875	1	health	trialStart	3	166	46	foodImage.70	FOODEEG_Images\0705.jpg	YN	Right	No	1.10817039999984	0	563901	251
1102.435546875	2	health	foodImageDisplay	3	166	46	foodImage.70	FOODEEG_Images\0705.jpg	YN	Right	No	1.10817039999984	0	564448	252
1104.501953125	1.10817039999984	health	choicePhaseStart	3	166	46	foodImage.70	FOODEEG_Images\0705.jpg	YN	Right	No	1.10817039999984	0	565506	253
1105.611328125	0	health	response	3	166	46	foodImage.70	FOODEEG_Images\0705.jpg	YN	Right	No	1.10817039999984	0	566074	235
1106.669921875	1	taste	trialStart	3	167	47	foodImage.10	FOODEEG_Images\0145.jpg	NY	Right	Yes	0.797039699999914	0	566616	251
1107.736328125	2	taste	foodImageDisplay	3	167	47	foodImage.10	FOODEEG_Images\0145.jpg	NY	Right	Yes	0.797039699999914	0	567162	252
1109.8046875	0.797039699999914	taste	choicePhaseStart	3	167	47	foodImage.10	FOODEEG_Images\0145.jpg	NY	Right	Yes	0.797039699999914	0	568221	253
1110.6015625	0	taste	response	3	167	47	foodImage.10	FOODEEG_Images\0145.jpg	NY	Right	Yes	0.797039699999914	0	568629	235
1111.65625	1	health	trialStart	3	168	48	foodImage.17	FOODEEG_Images\0199.jpg	YN	Left	Yes	1.21942539999964	0	569169	251
1112.72265625	2	health	foodImageDisplay	3	168	48	foodImage.17	FOODEEG_Images\0199.jpg	YN	Left	Yes	1.21942539999964	0	569715	252
1114.791015625	1.21942539999964	health	choicePhaseStart	3	168	48	foodImage.17	FOODEEG_Images\0199.jpg	YN	Left	Yes	1.21942539999964	0	570774	253
1116.009765625	0	health	response	3	168	48	foodImage.17	FOODEEG_Images\0199.jpg	YN	Left	Yes	1.21942539999964	0	571398	234
1117.05859375	1	taste	trialStart	3	169	49	foodImage.15	FOODEEG_Images\0189.jpg	NY	Right	Yes	0.984742499999811	0	571935	251
1118.125	2	taste	foodImageDisplay	3	169	49	foodImage.15	FOODEEG_Images\0189.jpg	NY	Right	Yes	0.984742499999811	0	572481	252
1120.193359375	0.984742499999811	taste	choicePhaseStart	3	169	49	foodImage.15	FOODEEG_Images\0189.jpg	NY	Right	Yes	0.984742499999811	0	573540	253
1121.177734375	0	taste	response	3	169	49	foodImage.15	FOODEEG_Images\0189.jpg	NY	Right	Yes	0.984742499999811	0	574044	235
1122.228515625	1	taste	trialStart	3	170	50	foodImage.118	FOODEEG_Images\0926.jpg	NY	Left	No	0.872059000000263	0	574582	251
1123.27734375	2	taste	foodImageDisplay	3	170	50	foodImage.118	FOODEEG_Images\0926.jpg	NY	Left	No	0.872059000000263	0	575119	252
1125.345703125	0.872059000000263	taste	choicePhaseStart	3	170	50	foodImage.118	FOODEEG_Images\0926.jpg	NY	Left	No	0.872059000000263	0	576178	253
1126.216796875	0	taste	response	3	170	50	foodImage.118	FOODEEG_Images\0926.jpg	NY	Left	No	0.872059000000263	0	576624	234
1127.279296875	1	decision	trialStart	3	171	51	foodImage.89	FOODEEG_Images\0881.jpg	YN	Left	Yes	1.23477789999924	0	577168	251
1128.34765625	2	decision	foodImageDisplay	3	171	51	foodImage.89	FOODEEG_Images\0881.jpg	YN	Left	Yes	1.23477789999924	0	577715	252
1130.416015625	1.23477789999924	decision	choicePhaseStart	3	171	51	foodImage.89	FOODEEG_Images\0881.jpg	YN	Left	Yes	1.23477789999924	0	578774	253
1131.650390625	0	decision	response	3	171	51	foodImage.89	FOODEEG_Images\0881.jpg	YN	Left	Yes	1.23477789999924	0	579406	234
1132.69921875	1	decision	trialStart	3	172	52	foodImage.7	FOODEEG_Images\0116.jpg	YN	Left	Yes	0.999759299999823	0	579943	251
1133.75	2	decision	foodImageDisplay	3	172	52	foodImage.7	FOODEEG_Images\0116.jpg	YN	Left	Yes	0.999759299999823	0	580481	252
1135.818359375	0.999759299999823	decision	choicePhaseStart	3	172	52	foodImage.7	FOODEEG_Images\0116.jpg	YN	Left	Yes	0.999759299999823	0	581540	253
1136.81640625	0	decision	response	3	172	52	foodImage.7	FOODEEG_Images\0116.jpg	YN	Left	Yes	0.999759299999823	0	582051	234
1137.869140625	1	health	trialStart	3	173	53	foodImage.86	FOODEEG_Images\0844.jpg	YN	Left	Yes	1.10890380000001	0	582590	251
1138.951171875	2	health	foodImageDisplay	3	173	53	foodImage.86	FOODEEG_Images\0844.jpg	YN	Left	Yes	1.10890380000001	0	583144	252
1141.01953125	1.10890380000001	health	choicePhaseStart	3	173	53	foodImage.86	FOODEEG_Images\0844.jpg	YN	Left	Yes	1.10890380000001	0	584203	253
1142.12890625	0	health	response	3	173	53	foodImage.86	FOODEEG_Images\0844.jpg	YN	Left	Yes	1.10890380000001	0	584771	234
1143.1875	1	decision	trialStart	3	174	54	foodImage.79	FOODEEG_Images\0794.jpg	YN	Left	Yes	1.4552233000004	0	585313	251
1144.23828125	2	decision	foodImageDisplay	3	174	54	foodImage.79	FOODEEG_Images\0794.jpg	YN	Left	Yes	1.4552233000004	0	585851	252
1146.3046875	1.4552233000004	decision	choicePhaseStart	3	174	54	foodImage.79	FOODEEG_Images\0794.jpg	YN	Left	Yes	1.4552233000004	0	586909	253
1147.76171875	0	decision	response	3	174	54	foodImage.79	FOODEEG_Images\0794.jpg	YN	Left	Yes	1.4552233000004	0	587655	234
1148.806640625	1	health	trialStart	3	175	55	foodImage.94	FOODEEG_Images\0902.jpg	YN	Right	No	1.21968440000001	0	588190	251
1149.857421875	2	health	foodImageDisplay	3	175	55	foodImage.94	FOODEEG_Images\0902.jpg	YN	Right	No	1.21968440000001	0	588728	252
1151.92578125	1.21968440000001	health	choicePhaseStart	3	175	55	foodImage.94	FOODEEG_Images\0902.jpg	YN	Right	No	1.21968440000001	0	589787	253
1153.14453125	0	health	response	3	175	55	foodImage.94	FOODEEG_Images\0902.jpg	YN	Right	No	1.21968440000001	0	590411	235
1154.193359375	1	taste	trialStart	3	176	56	foodImage.3	FOODEEG_Images\0046.jpg	NY	Left	No	1.36905389999993	0	590948	251
1155.244140625	2	taste	foodImageDisplay	3	176	56	foodImage.3	FOODEEG_Images\0046.jpg	NY	Left	No	1.36905389999993	0	591486	252
1157.3125	1.36905389999993	taste	choicePhaseStart	3	176	56	foodImage.3	FOODEEG_Images\0046.jpg	NY	Left	No	1.36905389999993	0	592545	253
1158.6796875	0	taste	response	3	176	56	foodImage.3	FOODEEG_Images\0046.jpg	NY	Left	No	1.36905389999993	0	593245	234
1159.728515625	1	taste	trialStart	3	177	57	foodImage.29	FOODEEG_Images\0278.jpg	YN	Right	No	0.889107599999988	0	593782	251
1160.779296875	2	taste	foodImageDisplay	3	177	57	foodImage.29	FOODEEG_Images\0278.jpg	YN	Right	No	0.889107599999988	0	594320	252
1162.84765625	0.889107599999988	taste	choicePhaseStart	3	177	57	foodImage.29	FOODEEG_Images\0278.jpg	YN	Right	No	0.889107599999988	0	595379	253
1163.736328125	0	taste	response	3	177	57	foodImage.29	FOODEEG_Images\0278.jpg	YN	Right	No	0.889107599999988	0	595834	235
1164.78125	1	taste	trialStart	3	178	58	foodImage.75	FOODEEG_Images\0763.jpg	YN	Left	Yes	0.772877500000504	0	596369	251
1165.83203125	2	taste	foodImageDisplay	3	178	58	foodImage.75	FOODEEG_Images\0763.jpg	YN	Left	Yes	0.772877500000504	0	596907	252
1167.8984375	0.772877500000504	taste	choicePhaseStart	3	178	58	foodImage.75	FOODEEG_Images\0763.jpg	YN	Left	Yes	0.772877500000504	0	597965	253
1168.671875	0	taste	response	3	178	58	foodImage.75	FOODEEG_Images\0763.jpg	YN	Left	Yes	0.772877500000504	0	598361	234
1169.734375	1	health	trialStart	3	179	59	foodImage.3	FOODEEG_Images\0046.jpg	YN	Right	No	0.83639310000035	0	598905	251
1170.783203125	2	health	foodImageDisplay	3	179	59	foodImage.3	FOODEEG_Images\0046.jpg	YN	Right	No	0.83639310000035	0	599442	252
1172.8515625	0.83639310000035	health	choicePhaseStart	3	179	59	foodImage.3	FOODEEG_Images\0046.jpg	YN	Right	No	0.83639310000035	0	600501	253
1173.6875	0	health	response	3	179	59	foodImage.3	FOODEEG_Images\0046.jpg	YN	Right	No	0.83639310000035	0	600929	235
1174.736328125	1	health	trialStart	3	180	60	foodImage.10	FOODEEG_Images\0145.jpg	NY	Left	No	1.51283860000058	0	601466	251
1175.802734375	2	health	foodImageDisplay	3	180	60	foodImage.10	FOODEEG_Images\0145.jpg	NY	Left	No	1.51283860000058	0	602012	252
1177.87109375	1.51283860000058	health	choicePhaseStart	3	180	60	foodImage.10	FOODEEG_Images\0145.jpg	NY	Left	No	1.51283860000058	0	603071	253
1179.3828125	0	health	response	3	180	60	foodImage.10	FOODEEG_Images\0145.jpg	NY	Left	No	1.51283860000058	0	603845	234
1181.439453125	61.044921875	n/a	blockEnd	n/a	n/a	n/a	n/a	n/a	n/a	n/a	n/a	n/a	n/a	604898	254
1242.484375	2	n/a	blockStart	4	n/a	n/a	n/a	n/a	n/a	n/a	n/a	n/a	n/a	636153	250
1244.51953125	1	taste	trialStart	4	181	1	foodImage.89	FOODEEG_Images\0881.jpg	NY	Right	Yes	0.62310190000062	0	637195	251
1245.5859375	2	taste	foodImageDisplay	4	181	1	foodImage.89	FOODEEG_Images\0881.jpg	NY	Right	Yes	0.62310190000062	0	637741	252
1247.654296875	0.62310190000062	taste	choicePhaseStart	4	181	1	foodImage.89	FOODEEG_Images\0881.jpg	NY	Right	Yes	0.62310190000062	0	638800	253
1248.27734375	0	taste	response	4	181	1	foodImage.89	FOODEEG_Images\0881.jpg	NY	Right	Yes	0.62310190000062	0	639119	235
1249.337890625	1	taste	trialStart	4	182	2	foodImage.8	FOODEEG_Images\0136.jpg	YN	Right	No	0.652672999999595	0	639662	251
1250.388671875	2	taste	foodImageDisplay	4	182	2	foodImage.8	FOODEEG_Images\0136.jpg	YN	Right	No	0.652672999999595	0	640200	252
1252.455078125	0.652672999999595	taste	choicePhaseStart	4	182	2	foodImage.8	FOODEEG_Images\0136.jpg	YN	Right	No	0.652672999999595	0	641258	253
1253.109375	0	taste	response	4	182	2	foodImage.8	FOODEEG_Images\0136.jpg	YN	Right	No	0.652672999999595	0	641593	235
1254.15625	1	taste	trialStart	4	183	3	foodImage.73	FOODEEG_Images\0717.jpg	NY	Right	Yes	0.736942599999566	0	642129	251
1255.224609375	2	taste	foodImageDisplay	4	183	3	foodImage.73	FOODEEG_Images\0717.jpg	NY	Right	Yes	0.736942599999566	0	642676	252
1257.291015625	0.736942599999566	taste	choicePhaseStart	4	183	3	foodImage.73	FOODEEG_Images\0717.jpg	NY	Right	Yes	0.736942599999566	0	643734	253
1258.029296875	0	taste	response	4	183	3	foodImage.73	FOODEEG_Images\0717.jpg	NY	Right	Yes	0.736942599999566	0	644112	235
1259.076171875	1	health	trialStart	4	184	4	foodImage.27	FOODEEG_Images\0263.jpg	NY	Right	Yes	0.610296800000469	0	644648	251
1260.126953125	2	health	foodImageDisplay	4	184	4	foodImage.27	FOODEEG_Images\0263.jpg	NY	Right	Yes	0.610296800000469	0	645186	252
1262.193359375	0.610296800000469	health	choicePhaseStart	4	184	4	foodImage.27	FOODEEG_Images\0263.jpg	NY	Right	Yes	0.610296800000469	0	646244	253
1262.8046875	0	health	response	4	184	4	foodImage.27	FOODEEG_Images\0263.jpg	NY	Right	Yes	0.610296800000469	0	646557	235
1263.861328125	1	decision	trialStart	4	185	5	foodImage.46	FOODEEG_Images\0479.jpg	NY	Right	Yes	0.647777099999985	0	647098	251
1264.927734375	2	decision	foodImageDisplay	4	185	5	foodImage.46	FOODEEG_Images\0479.jpg	NY	Right	Yes	0.647777099999985	0	647644	252
1266.99609375	0.647777099999985	decision	choicePhaseStart	4	185	5	foodImage.46	FOODEEG_Images\0479.jpg	NY	Right	Yes	0.647777099999985	0	648703	253
1267.64453125	0	decision	response	4	185	5	foodImage.46	FOODEEG_Images\0479.jpg	NY	Right	Yes	0.647777099999985	0	649035	235
1268.697265625	1	health	trialStart	4	186	6	foodImage.68	FOODEEG_Images\0685.jpg	YN	Left	Yes	0.651279699999577	0	649574	251
1269.78125	2	health	foodImageDisplay	4	186	6	foodImage.68	FOODEEG_Images\0685.jpg	YN	Left	Yes	0.651279699999577	0	650129	252
1271.84765625	0.651279699999577	health	choicePhaseStart	4	186	6	foodImage.68	FOODEEG_Images\0685.jpg	YN	Left	Yes	0.651279699999577	0	651187	253
1272.5	0	health	response	4	186	6	foodImage.68	FOODEEG_Images\0685.jpg	YN	Left	Yes	0.651279699999577	0	651521	234
1273.548828125	1	decision	trialStart	4	187	7	foodImage.16	FOODEEG_Images\0196.jpg	YN	Left	Yes	0.84754360000079	0	652058	251
1274.6171875	2	decision	foodImageDisplay	4	187	7	foodImage.16	FOODEEG_Images\0196.jpg	YN	Left	Yes	0.84754360000079	0	652605	252
1276.68359375	0.84754360000079	decision	choicePhaseStart	4	187	7	foodImage.16	FOODEEG_Images\0196.jpg	YN	Left	Yes	0.84754360000079	0	653663	253
1277.53125	0	decision	response	4	187	7	foodImage.16	FOODEEG_Images\0196.jpg	YN	Left	Yes	0.84754360000079	0	654097	234
1278.5859375	1	health	trialStart	4	188	8	foodImage.90	FOODEEG_Images\0890.jpg	YN	Left	Yes	0.691640000000007	0	654637	251
1279.65234375	2	health	foodImageDisplay	4	188	8	foodImage.90	FOODEEG_Images\0890.jpg	YN	Left	Yes	0.691640000000007	0	655183	252
1281.71875	0.691640000000007	health	choicePhaseStart	4	188	8	foodImage.90	FOODEEG_Images\0890.jpg	YN	Left	Yes	0.691640000000007	0	656241	253
1282.412109375	0	health	response	4	188	8	foodImage.90	FOODEEG_Images\0890.jpg	YN	Left	Yes	0.691640000000007	0	656596	234
1283.470703125	1	decision	trialStart	4	189	9	foodImage.10	FOODEEG_Images\0145.jpg	NY	Right	Yes	0.725908600000366	0	657138	251
1284.537109375	2	decision	foodImageDisplay	4	189	9	foodImage.10	FOODEEG_Images\0145.jpg	NY	Right	Yes	0.725908600000366	0	657684	252
1286.60546875	0.725908600000366	decision	choicePhaseStart	4	189	9	foodImage.10	FOODEEG_Images\0145.jpg	NY	Right	Yes	0.725908600000366	0	658743	253
1287.33203125	0	decision	response	4	189	9	foodImage.10	FOODEEG_Images\0145.jpg	NY	Right	Yes	0.725908600000366	0	659115	235
1288.390625	1	decision	trialStart	4	190	10	foodImage.55	FOODEEG_Images\0567.jpg	NY	Right	Yes	0.734581899999284	0	659657	251
1289.45703125	2	decision	foodImageDisplay	4	190	10	foodImage.55	FOODEEG_Images\0567.jpg	NY	Right	Yes	0.734581899999284	0	660203	252
1291.5234375	0.734581899999284	decision	choicePhaseStart	4	190	10	foodImage.55	FOODEEG_Images\0567.jpg	NY	Right	Yes	0.734581899999284	0	661261	253
1292.259765625	0	decision	response	4	190	10	foodImage.55	FOODEEG_Images\0567.jpg	NY	Right	Yes	0.734581899999284	0	661638	235
1293.30859375	1	decision	trialStart	4	191	11	foodImage.85	FOODEEG_Images\0841.jpg	YN	Left	Yes	1.37502100000074	0	662175	251
1294.375	2	decision	foodImageDisplay	4	191	11	foodImage.85	FOODEEG_Images\0841.jpg	YN	Left	Yes	1.37502100000074	0	662721	252
1296.443359375	1.37502100000074	decision	choicePhaseStart	4	191	11	foodImage.85	FOODEEG_Images\0841.jpg	YN	Left	Yes	1.37502100000074	0	663780	253
1297.818359375	0	decision	response	4	191	11	foodImage.85	FOODEEG_Images\0841.jpg	YN	Left	Yes	1.37502100000074	0	664484	234
1298.87890625	1	taste	trialStart	4	192	12	foodImage.32	FOODEEG_Images\0319.jpg	NY	Left	No	1.15838040000017	0	665027	251
1299.927734375	2	taste	foodImageDisplay	4	192	12	foodImage.32	FOODEEG_Images\0319.jpg	NY	Left	No	1.15838040000017	0	665564	252
1301.99609375	1.15838040000017	taste	choicePhaseStart	4	192	12	foodImage.32	FOODEEG_Images\0319.jpg	NY	Left	No	1.15838040000017	0	666623	253
1303.154296875	0	taste	response	4	192	12	foodImage.32	FOODEEG_Images\0319.jpg	NY	Left	No	1.15838040000017	0	667216	234
1304.21484375	1	decision	trialStart	4	193	13	foodImage.26	FOODEEG_Images\0262.jpg	NY	Left	No	0.798520299999836	0	667759	251
1305.263671875	2	decision	foodImageDisplay	4	193	13	foodImage.26	FOODEEG_Images\0262.jpg	NY	Left	No	0.798520299999836	0	668296	252
1307.33203125	0.798520299999836	decision	choicePhaseStart	4	193	13	foodImage.26	FOODEEG_Images\0262.jpg	NY	Left	No	0.798520299999836	0	669355	253
1308.130859375	0	decision	response	4	193	13	foodImage.26	FOODEEG_Images\0262.jpg	NY	Left	No	0.798520299999836	0	669764	234
1309.18359375	1	taste	trialStart	4	194	14	foodImage.80	FOODEEG_Images\0796.jpg	YN	Left	Yes	1.46062290000009	0	670303	251
1310.25	2	taste	foodImageDisplay	4	194	14	foodImage.80	FOODEEG_Images\0796.jpg	YN	Left	Yes	1.46062290000009	0	670849	252
1312.318359375	1.46062290000009	taste	choicePhaseStart	4	194	14	foodImage.80	FOODEEG_Images\0796.jpg	YN	Left	Yes	1.46062290000009	0	671908	253
