onset	duration	trial_type	event_type	block	trial_total	trial_in_block	food_image_code	food_image_path	button_position	resp_position	resp_choice	choice_rt	resp_too_slow	sample	trigger
346.724609375	2	n/a	blockStart	1	n/a	n/a	n/a	n/a	n/a	n/a	n/a	n/a	n/a	177524	250
348.763671875	1	decision	trialStart	1	1	1	foodImage.27	FOODEEG_Images\0263.jpg	NY	Right	Yes	1.4141977999825	0	178568	251
349.8125	2	decision	foodImageDisplay	1	1	1	foodImage.27	FOODEEG_Images\0263.jpg	NY	Right	Yes	1.4141977999825	0	179105	252
351.876953125	1.4141977999825	decision	choicePhaseStart	1	1	1	foodImage.27	FOODEEG_Images\0263.jpg	NY	Right	Yes	1.4141977999825	0	180162	253
353.283203125	0	decision	response	1	1	1	foodImage.27	FOODEEG_Images\0263.jpg	NY	Right	Yes	1.4141977999825	0	180882	235
354.380859375	1	health	trialStart	1	2	2	foodImage.9	FOODEEG_Images\0138.jpg	NY	Left	No	1.33688989991788	0	181444	251
355.443359375	2	health	foodImageDisplay	1	2	2	foodImage.9	FOODEEG_Images\0138.jpg	NY	Left	No	1.33688989991788	0	181988	252
357.505859375	1.33688989991788	health	choicePhaseStart	1	2	2	foodImage.9	FOODEEG_Images\0138.jpg	NY	Left	No	1.33688989991788	0	183044	253
358.833984375	0	health	response	1	2	2	foodImage.9	FOODEEG_Images\0138.jpg	NY	Left	No	1.33688989991788	0	183724	234
359.890625	1	health	trialStart	1	3	3	foodImage.62	FOODEEG_Images\0644.jpg	YN	Left	Yes	1.22824690002017	0	184265	251
360.951171875	2	health	foodImageDisplay	1	3	3	foodImage.62	FOODEEG_Images\0644.jpg	YN	Left	Yes	1.22824690002017	0	184808	252
363.015625	1.22824690002017	health	choicePhaseStart	1	3	3	foodImage.62	FOODEEG_Images\0644.jpg	YN	Left	Yes	1.22824690002017	0	185865	253
364.234375	0	health	response	1	3	3	foodImage.62	FOODEEG_Images\0644.jpg	YN	Left	Yes	1.22824690002017	0	186489	234
365.279296875	1	decision	trialStart	1	4	4	foodImage.71	FOODEEG_Images\0713.jpg	NY	Left	No	1.95228920003865	0	187024	251
366.322265625	2	decision	foodImageDisplay	1	4	4	foodImage.71	FOODEEG_Images\0713.jpg	NY	Left	No	1.95228920003865	0	187558	252
368.384765625	1.95228920003865	decision	choicePhaseStart	1	4	4	foodImage.71	FOODEEG_Images\0713.jpg	NY	Left	No	1.95228920003865	0	188614	253
370.330078125	0	decision	response	1	4	4	foodImage.71	FOODEEG_Images\0713.jpg	NY	Left	No	1.95228920003865	0	189610	234
371.375	1	taste	trialStart	1	5	5	foodImage.65	FOODEEG_Images\0658.jpg	YN	Right	No	1.91475100000389	0	190145	251
372.421875	2	taste	foodImageDisplay	1	5	5	foodImage.65	FOODEEG_Images\0658.jpg	YN	Right	No	1.91475100000389	0	190681	252
374.494140625	1.91475100000389	taste	choicePhaseStart	1	5	5	foodImage.65	FOODEEG_Images\0658.jpg	YN	Right	No	1.91475100000389	0	191742	253
376.40234375	0	taste	response	1	5	5	foodImage.65	FOODEEG_Images\0658.jpg	YN	Right	No	1.91475100000389	0	192719	235
377.455078125	1	decision	trialStart	1	6	6	foodImage.16	FOODEEG_Images\0196.jpg	NY	Right	Yes	1.10272620001342	0	193258	251
378.5234375	2	decision	foodImageDisplay	1	6	6	foodImage.16	FOODEEG_Images\0196.jpg	NY	Right	Yes	1.10272620001342	0	193805	252
380.587890625	1.10272620001342	decision	choicePhaseStart	1	6	6	foodImage.16	FOODEEG_Images\0196.jpg	NY	Right	Yes	1.10272620001342	0	194862	253
381.681640625	0	decision	response	1	6	6	foodImage.16	FOODEEG_Images\0196.jpg	NY	Right	Yes	1.10272620001342	0	195422	235
382.7265625	1	health	trialStart	1	7	7	foodImage.108	FOODEEG_Images\0916.jpg	YN	Left	Yes	0.859858400071971	0	195957	251
383.765625	2	health	foodImageDisplay	1	7	7	foodImage.108	FOODEEG_Images\0916.jpg	YN	Left	Yes	0.859858400071971	0	196489	252
385.830078125	0.859858400071971	health	choicePhaseStart	1	7	7	foodImage.108	FOODEEG_Images\0916.jpg	YN	Left	Yes	0.859858400071971	0	197546	253
386.681640625	0	health	response	1	7	7	foodImage.108	FOODEEG_Images\0916.jpg	YN	Left	Yes	0.859858400071971	0	197982	234
387.724609375	1	taste	trialStart	1	8	8	foodImage.95	FOODEEG_Images\0903.jpg	YN	Right	No	1.75261940003838	0	198516	251
388.765625	2	taste	foodImageDisplay	1	8	8	foodImage.95	FOODEEG_Images\0903.jpg	YN	Right	No	1.75261940003838	0	199049	252
390.83203125	1.75261940003838	taste	choicePhaseStart	1	8	8	foodImage.95	FOODEEG_Images\0903.jpg	YN	Right	No	1.75261940003838	0	200107	253
392.576171875	0	taste	response	1	8	8	foodImage.95	FOODEEG_Images\0903.jpg	YN	Right	No	1.75261940003838	0	201000	235
393.623046875	1	decision	trialStart	1	9	9	foodImage.62	FOODEEG_Images\0644.jpg	YN	Left	Yes	3.38623720000032	0	201536	251
394.685546875	2	decision	foodImageDisplay	1	9	9	foodImage.62	FOODEEG_Images\0644.jpg	YN	Left	Yes	3.38623720000032	0	202080	252
396.748046875	3.38623720000032	decision	choicePhaseStart	1	9	9	foodImage.62	FOODEEG_Images\0644.jpg	YN	Left	Yes	3.38623720000032	0	203136	253
400.130859375	0	decision	response	1	9	9	foodImage.62	FOODEEG_Images\0644.jpg	YN	Left	Yes	3.38623720000032	0	204868	234
401.17578125	1	decision	trialStart	1	10	10	foodImage.31	FOODEEG_Images\0294.jpg	NY	Left	No	1.55219200009014	0	205403	251
402.216796875	2	decision	foodImageDisplay	1	10	10	foodImage.31	FOODEEG_Images\0294.jpg	NY	Left	No	1.55219200009014	0	205936	252
404.28125	1.55219200009014	decision	choicePhaseStart	1	10	10	foodImage.31	FOODEEG_Images\0294.jpg	NY	Left	No	1.55219200009014	0	206993	253
405.82421875	0	decision	response	1	10	10	foodImage.31	FOODEEG_Images\0294.jpg	NY	Left	No	1.55219200009014	0	207783	234
406.87109375	1	health	trialStart	1	11	11	foodImage.10	FOODEEG_Images\0145.jpg	YN	Left	Yes	2.33025060000364	0	208319	251
407.935546875	2	health	foodImageDisplay	1	11	11	foodImage.10	FOODEEG_Images\0145.jpg	YN	Left	Yes	2.33025060000364	0	208864	252
409.998046875	2.33025060000364	health	choicePhaseStart	1	11	11	foodImage.10	FOODEEG_Images\0145.jpg	YN	Left	Yes	2.33025060000364	0	209920	253
412.3203125	0	health	response	1	11	11	foodImage.10	FOODEEG_Images\0145.jpg	YN	Left	Yes	2.33025060000364	0	211109	234
413.361328125	1	taste	trialStart	1	12	12	foodImage.19	FOODEEG_Images\0225.jpg	NY	Right	Yes	2.60035940003581	0	211642	251
414.40625	2	taste	foodImageDisplay	1	12	12	foodImage.19	FOODEEG_Images\0225.jpg	NY	Right	Yes	2.60035940003581	0	212177	252
416.470703125	2.60035940003581	taste	choicePhaseStart	1	12	12	foodImage.19	FOODEEG_Images\0225.jpg	NY	Right	Yes	2.60035940003581	0	213234	253
419.064453125	0	taste	response	1	12	12	foodImage.19	FOODEEG_Images\0225.jpg	NY	Right	Yes	2.60035940003581	0	214562	235
420.109375	1	taste	trialStart	1	13	13	foodImage.56	FOODEEG_Images\0586.jpg	NY	Right	Yes	1.49310710001737	0	215097	251
421.158203125	2	taste	foodImageDisplay	1	13	13	foodImage.56	FOODEEG_Images\0586.jpg	NY	Right	Yes	1.49310710001737	0	215634	252
423.220703125	1.49310710001737	taste	choicePhaseStart	1	13	13	foodImage.56	FOODEEG_Images\0586.jpg	NY	Right	Yes	1.49310710001737	0	216690	253
424.703125	0	taste	response	1	13	13	foodImage.56	FOODEEG_Images\0586.jpg	NY	Right	Yes	1.49310710001737	0	217449	235
425.748046875	1	taste	trialStart	1	14	14	foodImage.112	FOODEEG_Images\0920.jpg	YN	Right	No	1.49852559994906	0	217984	251
426.79296875	2	taste	foodImageDisplay	1	14	14	foodImage.112	FOODEEG_Images\0920.jpg	YN	Right	No	1.49852559994906	0	218519	252
428.861328125	1.49852559994906	taste	choicePhaseStart	1	14	14	foodImage.112	FOODEEG_Images\0920.jpg	YN	Right	No	1.49852559994906	0	219578	253
430.3515625	0	taste	response	1	14	14	foodImage.112	FOODEEG_Images\0920.jpg	YN	Right	No	1.49852559994906	0	220341	235
431.3984375	1	health	trialStart	1	15	15	foodImage.85	FOODEEG_Images\0841.jpg	YN	Left	Yes	1.54591929994058	0	220877	251
432.455078125	2	health	foodImageDisplay	1	15	15	foodImage.85	FOODEEG_Images\0841.jpg	YN	Left	Yes	1.54591929994058	0	221418	252
434.51953125	1.54591929994058	health	choicePhaseStart	1	15	15	foodImage.85	FOODEEG_Images\0841.jpg	YN	Left	Yes	1.54591929994058	0	222475	253
436.0546875	0	health	response	1	15	15	foodImage.85	FOODEEG_Images\0841.jpg	YN	Left	Yes	1.54591929994058	0	223261	234
437.099609375	1	taste	trialStart	1	16	16	foodImage.55	FOODEEG_Images\0567.jpg	YN	Left	Yes	0.842881400021724	0	223796	251
438.15625	2	taste	foodImageDisplay	1	16	16	foodImage.55	FOODEEG_Images\0567.jpg	YN	Left	Yes	0.842881400021724	0	224337	252
440.220703125	0.842881400021724	taste	choicePhaseStart	1	16	16	foodImage.55	FOODEEG_Images\0567.jpg	YN	Left	Yes	0.842881400021724	0	225394	253
441.0546875	0	taste	response	1	16	16	foodImage.55	FOODEEG_Images\0567.jpg	YN	Left	Yes	0.842881400021724	0	225821	234
442.09765625	1	taste	trialStart	1	17	17	foodImage.52	FOODEEG_Images\0539.jpg	YN	Left	Yes	1.53301070001908	0	226355	251
443.181640625	2	taste	foodImageDisplay	1	17	17	foodImage.52	FOODEEG_Images\0539.jpg	YN	Left	Yes	1.53301070001908	0	226910	252
445.244140625	1.53301070001908	taste	choicePhaseStart	1	17	17	foodImage.52	FOODEEG_Images\0539.jpg	YN	Left	Yes	1.53301070001908	0	227966	253
446.767578125	0	taste	response	1	17	17	foodImage.52	FOODEEG_Images\0539.jpg	YN	Left	Yes	1.53301070001908	0	228746	234
447.810546875	1	health	trialStart	1	18	18	foodImage.73	FOODEEG_Images\0717.jpg	NY	Right	Yes	1.18243859999347	0	229280	251
448.865234375	2	health	foodImageDisplay	1	18	18	foodImage.73	FOODEEG_Images\0717.jpg	NY	Right	Yes	1.18243859999347	0	229820	252
450.9296875	1.18243859999347	health	choicePhaseStart	1	18	18	foodImage.73	FOODEEG_Images\0717.jpg	NY	Right	Yes	1.18243859999347	0	230877	253
452.103515625	0	health	response	1	18	18	foodImage.73	FOODEEG_Images\0717.jpg	NY	Right	Yes	1.18243859999347	0	231478	235
453.146484375	1	taste	trialStart	1	19	19	foodImage.60	FOODEEG_Images\0614.jpg	NY	Right	Yes	1.81639590009581	0	232012	251
454.216796875	2	taste	foodImageDisplay	1	19	19	foodImage.60	FOODEEG_Images\0614.jpg	NY	Right	Yes	1.81639590009581	0	232560	252
456.279296875	1.81639590009581	taste	choicePhaseStart	1	19	19	foodImage.60	FOODEEG_Images\0614.jpg	NY	Right	Yes	1.81639590009581	0	233616	253
458.0859375	0	taste	response	1	19	19	foodImage.60	FOODEEG_Images\0614.jpg	NY	Right	Yes	1.81639590009581	0	234541	235
459.12890625	1	decision	trialStart	1	20	20	foodImage.73	FOODEEG_Images\0717.jpg	YN	Left	Yes	1.29094450001139	0	235075	251
460.20703125	2	decision	foodImageDisplay	1	20	20	foodImage.73	FOODEEG_Images\0717.jpg	YN	Left	Yes	1.29094450001139	0	235627	252
462.26953125	1.29094450001139	decision	choicePhaseStart	1	20	20	foodImage.73	FOODEEG_Images\0717.jpg	YN	Left	Yes	1.29094450001139	0	236683	253
463.55078125	0	decision	response	1	20	20	foodImage.73	FOODEEG_Images\0717.jpg	YN	Left	Yes	1.29094450001139	0	237339	234
464.60546875	1	decision	trialStart	1	21	21	foodImage.23	FOODEEG_Images\0244.jpg	YN	Left	Yes	1.23961819999386	0	237879	251
465.6484375	2	decision	foodImageDisplay	1	21	21	foodImage.23	FOODEEG_Images\0244.jpg	YN	Left	Yes	1.23961819999386	0	238413	252
467.7109375	1.23961819999386	decision	choicePhaseStart	1	21	21	foodImage.23	FOODEEG_Images\0244.jpg	YN	Left	Yes	1.23961819999386	0	239469	253
468.94140625	0	decision	response	1	21	21	foodImage.23	FOODEEG_Images\0244.jpg	YN	Left	Yes	1.23961819999386	0	240099	234
469.986328125	1	health	trialStart	1	22	22	foodImage.38	FOODEEG_Images\0365.jpg	NY	Right	Yes	0.857562800054438	0	240634	251
471.0234375	2	health	foodImageDisplay	1	22	22	foodImage.38	FOODEEG_Images\0365.jpg	NY	Right	Yes	0.857562800054438	0	241165	252
473.0859375	0.857562800054438	health	choicePhaseStart	1	22	22	foodImage.38	FOODEEG_Images\0365.jpg	NY	Right	Yes	0.857562800054438	0	242221	253
473.93359375	0	health	response	1	22	22	foodImage.38	FOODEEG_Images\0365.jpg	NY	Right	Yes	0.857562800054438	0	242655	235
474.9765625	1	health	trialStart	1	23	23	foodImage.79	FOODEEG_Images\0794.jpg	YN	Left	Yes	0.762472599977627	0	243189	251
476.021484375	2	health	foodImageDisplay	1	23	23	foodImage.79	FOODEEG_Images\0794.jpg	YN	Left	Yes	0.762472599977627	0	243724	252
478.083984375	0.762472599977627	health	choicePhaseStart	1	23	23	foodImage.79	FOODEEG_Images\0794.jpg	YN	Left	Yes	0.762472599977627	0	244780	253
478.837890625	0	health	response	1	23	23	foodImage.79	FOODEEG_Images\0794.jpg	YN	Left	Yes	0.762472599977627	0	245166	234
479.880859375	1	taste	trialStart	1	24	24	foodImage.10	FOODEEG_Images\0145.jpg	YN	Left	Yes	1.15568500000518	0	245700	251
480.939453125	2	taste	foodImageDisplay	1	24	24	foodImage.10	FOODEEG_Images\0145.jpg	YN	Left	Yes	1.15568500000518	0	246242	252
483.001953125	1.15568500000518	taste	choicePhaseStart	1	24	24	foodImage.10	FOODEEG_Images\0145.jpg	YN	Left	Yes	1.15568500000518	0	247298	253
484.1484375	0	taste	response	1	24	24	foodImage.10	FOODEEG_Images\0145.jpg	YN	Left	Yes	1.15568500000518	0	247885	234
485.193359375	1	decision	trialStart	1	25	25	foodImage.86	FOODEEG_Images\0844.jpg	NY	Right	Yes	0.959992500022054	0	248420	251
486.255859375	2	decision	foodImageDisplay	1	25	25	foodImage.86	FOODEEG_Images\0844.jpg	NY	Right	Yes	0.959992500022054	0	248964	252
488.318359375	0.959992500022054	decision	choicePhaseStart	1	25	25	foodImage.86	FOODEEG_Images\0844.jpg	NY	Right	Yes	0.959992500022054	0	250020	253
489.26953125	0	decision	response	1	25	25	foodImage.86	FOODEEG_Images\0844.jpg	NY	Right	Yes	0.959992500022054	0	250507	235
490.3125	1	decision	trialStart	1	26	26	foodImage.111	FOODEEG_Images\0919.jpg	YN	Right	No	1.36099850002211	0	251041	251
491.353515625	2	decision	foodImageDisplay	1	26	26	foodImage.111	FOODEEG_Images\0919.jpg	YN	Right	No	1.36099850002211	0	251574	252
493.419921875	1.36099850002211	decision	choicePhaseStart	1	26	26	foodImage.111	FOODEEG_Images\0919.jpg	YN	Right	No	1.36099850002211	0	252632	253
494.7734375	0	decision	response	1	26	26	foodImage.111	FOODEEG_Images\0919.jpg	YN	Right	No	1.36099850002211	0	253325	235
495.81640625	1	health	trialStart	1	27	27	foodImage.80	FOODEEG_Images\0796.jpg	YN	Left	Yes	1.08520479989238	0	253859	251
496.875	2	health	foodImageDisplay	1	27	27	foodImage.80	FOODEEG_Images\0796.jpg	YN	Left	Yes	1.08520479989238	0	254401	252
498.9375	1.08520479989238	health	choicePhaseStart	1	27	27	foodImage.80	FOODEEG_Images\0796.jpg	YN	Left	Yes	1.08520479989238	0	255457	253
500.013671875	0	health	response	1	27	27	foodImage.80	FOODEEG_Images\0796.jpg	YN	Left	Yes	1.08520479989238	0	256008	234
501.060546875	1	decision	trialStart	1	28	28	foodImage.100	FOODEEG_Images\0908.jpg	NY	Left	No	1.03609609999694	0	256544	251
502.10546875	2	decision	foodImageDisplay	1	28	28	foodImage.100	FOODEEG_Images\0908.jpg	NY	Left	No	1.03609609999694	0	257079	252
504.16796875	1.03609609999694	decision	choicePhaseStart	1	28	28	foodImage.100	FOODEEG_Images\0908.jpg	NY	Left	No	1.03609609999694	0	258135	253
505.197265625	0	decision	response	1	28	28	foodImage.100	FOODEEG_Images\0908.jpg	NY	Left	No	1.03609609999694	0	258662	234
506.240234375	1	decision	trialStart	1	29	29	foodImage.24	FOODEEG_Images\0250.jpg	YN	Left	Yes	1.47781080007553	0	259196	251
507.28125	2	decision	foodImageDisplay	1	29	29	foodImage.24	FOODEEG_Images\0250.jpg	YN	Left	Yes	1.47781080007553	0	259729	252
509.34375	1.47781080007553	decision	choicePhaseStart	1	29	29	foodImage.24	FOODEEG_Images\0250.jpg	YN	Left	Yes	1.47781080007553	0	260785	253
510.8125	0	decision	response	1	29	29	foodImage.24	FOODEEG_Images\0250.jpg	YN	Left	Yes	1.47781080007553	0	261537	234
511.85546875	1	health	trialStart	1	30	30	foodImage.39	FOODEEG_Images\0367.jpg	YN	Right	No	1.66530450002756	0	262071	251
512.89453125	2	health	foodImageDisplay	1	30	30	foodImage.39	FOODEEG_Images\0367.jpg	YN	Right	No	1.66530450002756	0	262603	252
514.955078125	1.66530450002756	health	choicePhaseStart	1	30	30	foodImage.39	FOODEEG_Images\0367.jpg	YN	Right	No	1.66530450002756	0	263658	253
516.61328125	0	health	response	1	30	30	foodImage.39	FOODEEG_Images\0367.jpg	YN	Right	No	1.66530450002756	0	264507	235
517.654296875	1	decision	trialStart	1	31	31	foodImage.47	FOODEEG_Images\0488.jpg	NY	Right	Yes	2.10158609994687	0	265040	251
518.697265625	2	decision	foodImageDisplay	1	31	31	foodImage.47	FOODEEG_Images\0488.jpg	NY	Right	Yes	2.10158609994687	0	265574	252
520.759765625	2.10158609994687	decision	choicePhaseStart	1	31	31	foodImage.47	FOODEEG_Images\0488.jpg	NY	Right	Yes	2.10158609994687	0	266630	253
522.8515625	0	decision	response	1	31	31	foodImage.47	FOODEEG_Images\0488.jpg	NY	Right	Yes	2.10158609994687	0	267701	235
523.89453125	1	health	trialStart	1	32	32	foodImage.43	FOODEEG_Images\0445.jpg	YN	Left	Yes	0.8361630999716	0	268235	251
524.955078125	2	health	foodImageDisplay	1	32	32	foodImage.43	FOODEEG_Images\0445.jpg	YN	Left	Yes	0.8361630999716	0	268778	252
527.017578125	0.8361630999716	health	choicePhaseStart	1	32	32	foodImage.43	FOODEEG_Images\0445.jpg	YN	Left	Yes	0.8361630999716	0	269834	253
527.84375	0	health	response	1	32	32	foodImage.43	FOODEEG_Images\0445.jpg	YN	Left	Yes	0.8361630999716	0	270257	234
528.88671875	1	decision	trialStart	1	33	33	foodImage.91	FOODEEG_Images\0896.jpg	NY	Right	Yes	1.06169400003273	0	270791	251
529.943359375	2	decision	foodImageDisplay	1	33	33	foodImage.91	FOODEEG_Images\0896.jpg	NY	Right	Yes	1.06169400003273	0	271332	252
532.005859375	1.06169400003273	decision	choicePhaseStart	1	33	33	foodImage.91	FOODEEG_Images\0896.jpg	NY	Right	Yes	1.06169400003273	0	272388	253
533.060546875	0	decision	response	1	33	33	foodImage.91	FOODEEG_Images\0896.jpg	NY	Right	Yes	1.06169400003273	0	272928	235
534.103515625	1	taste	trialStart	1	34	34	foodImage.69	FOODEEG_Images\0693.jpg	NY	Right	Yes	1.18934489996172	0	273462	251
535.154296875	2	taste	foodImageDisplay	1	34	34	foodImage.69	FOODEEG_Images\0693.jpg	NY	Right	Yes	1.18934489996172	0	274000	252
537.216796875	1.18934489996172	taste	choicePhaseStart	1	34	34	foodImage.69	FOODEEG_Images\0693.jpg	NY	Right	Yes	1.18934489996172	0	275056	253
538.39453125	0	taste	response	1	34	34	foodImage.69	FOODEEG_Images\0693.jpg	NY	Right	Yes	1.18934489996172	0	275659	235
539.4375	1	decision	trialStart	1	35	35	foodImage.5	FOODEEG_Images\0107.jpg	NY	Right	Yes	2.48332530003972	0	276193	251
540.498046875	2	decision	foodImageDisplay	1	35	35	foodImage.5	FOODEEG_Images\0107.jpg	NY	Right	Yes	2.48332530003972	0	276736	252
542.560546875	2.48332530003972	decision	choicePhaseStart	1	35	35	foodImage.5	FOODEEG_Images\0107.jpg	NY	Right	Yes	2.48332530003972	0	277792	253
545.03515625	0	decision	response	1	35	35	foodImage.5	FOODEEG_Images\0107.jpg	NY	Right	Yes	2.48332530003972	0	279059	235
546.078125	1	taste	trialStart	1	36	36	foodImage.62	FOODEEG_Images\0644.jpg	NY	Right	Yes	1.02969120000489	0	279593	251
547.13671875	2	taste	foodImageDisplay	1	36	36	foodImage.62	FOODEEG_Images\0644.jpg	NY	Right	Yes	1.02969120000489	0	280135	252
549.19921875	1.02969120000489	taste	choicePhaseStart	1	36	36	foodImage.62	FOODEEG_Images\0644.jpg	NY	Right	Yes	1.02969120000489	0	281191	253
550.21875	0	taste	response	1	36	36	foodImage.62	FOODEEG_Images\0644.jpg	NY	Right	Yes	1.02969120000489	0	281713	235
551.263671875	1	decision	trialStart	1	37	37	foodImage.36	FOODEEG_Images\0352.jpg	NY	Right	Yes	1.19143060001079	0	282248	251
552.32421875	2	decision	foodImageDisplay	1	37	37	foodImage.36	FOODEEG_Images\0352.jpg	NY	Right	Yes	1.19143060001079	0	282791	252
554.38671875	1.19143060001079	decision	choicePhaseStart	1	37	37	foodImage.36	FOODEEG_Images\0352.jpg	NY	Right	Yes	1.19143060001079	0	283847	253
555.5703125	0	decision	response	1	37	37	foodImage.36	FOODEEG_Images\0352.jpg	NY	Right	Yes	1.19143060001079	0	284453	235
556.61328125	1	taste	trialStart	1	38	38	foodImage.96	FOODEEG_Images\0904.jpg	NY	Right	Yes	1.64601220004261	0	284987	251
557.654296875	2	taste	foodImageDisplay	1	38	38	foodImage.96	FOODEEG_Images\0904.jpg	NY	Right	Yes	1.64601220004261	0	285520	252
559.716796875	1.64601220004261	taste	choicePhaseStart	1	38	38	foodImage.96	FOODEEG_Images\0904.jpg	NY	Right	Yes	1.64601220004261	0	286576	253
561.35546875	0	taste	response	1	38	38	foodImage.96	FOODEEG_Images\0904.jpg	NY	Right	Yes	1.64601220004261	0	287415	235
562.3984375	1	taste	trialStart	1	39	39	foodImage.45	FOODEEG_Images\0478.jpg	YN	Left	Yes	2.03379150002729	0	287949	251
563.443359375	2	taste	foodImageDisplay	1	39	39	foodImage.45	FOODEEG_Images\0478.jpg	YN	Left	Yes	2.03379150002729	0	288484	252
565.505859375	2.03379150002729	taste	choicePhaseStart	1	39	39	foodImage.45	FOODEEG_Images\0478.jpg	YN	Left	Yes	2.03379150002729	0	289540	253
567.53125	0	taste	response	1	39	39	foodImage.45	FOODEEG_Images\0478.jpg	YN	Left	Yes	2.03379150002729	0	290577	234
568.572265625	1	health	trialStart	1	40	40	foodImage.82	FOODEEG_Images\0805.jpg	YN	Right	No	1.80509359994903	0	291110	251
569.630859375	2	health	foodImageDisplay	1	40	40	foodImage.82	FOODEEG_Images\0805.jpg	YN	Right	No	1.80509359994903	0	291652	252
571.6953125	1.80509359994903	health	choicePhaseStart	1	40	40	foodImage.82	FOODEEG_Images\0805.jpg	YN	Right	No	1.80509359994903	0	292709	253
573.490234375	0	health	response	1	40	40	foodImage.82	FOODEEG_Images\0805.jpg	YN	Right	No	1.80509359994903	0	293628	235
574.533203125	1	decision	trialStart	1	41	41	foodImage.33	FOODEEG_Images\0329.jpg	YN	Left	Yes	0.893308699945919	0	294162	251
575.57421875	2	decision	foodImageDisplay	1	41	41	foodImage.33	FOODEEG_Images\0329.jpg	YN	Left	Yes	0.893308699945919	0	294695	252
577.63671875	0.893308699945919	decision	choicePhaseStart	1	41	41	foodImage.33	FOODEEG_Images\0329.jpg	YN	Left	Yes	0.893308699945919	0	295751	253
578.521484375	0	decision	response	1	41	41	foodImage.33	FOODEEG_Images\0329.jpg	YN	Left	Yes	0.893308699945919	0	296204	234
579.564453125	1	taste	trialStart	1	42	42	foodImage.21	FOODEEG_Images\0234.jpg	NY	Right	Yes	1.07313469995279	0	296738	251
580.619140625	2	taste	foodImageDisplay	1	42	42	foodImage.21	FOODEEG_Images\0234.jpg	NY	Right	Yes	1.07313469995279	0	297278	252
582.681640625	1.07313469995279	taste	choicePhaseStart	1	42	42	foodImage.21	FOODEEG_Images\0234.jpg	NY	Right	Yes	1.07313469995279	0	298334	253
583.74609375	0	taste	response	1	42	42	foodImage.21	FOODEEG_Images\0234.jpg	NY	Right	Yes	1.07313469995279	0	298879	235
584.79296875	1	decision	trialStart	1	43	43	foodImage.46	FOODEEG_Images\0479.jpg	YN	Left	Yes	1.47890109999571	0	299415	251
585.853515625	2	decision	foodImageDisplay	1	43	43	foodImage.46	FOODEEG_Images\0479.jpg	YN	Left	Yes	1.47890109999571	0	299958	252
587.916015625	1.47890109999571	decision	choicePhaseStart	1	43	43	foodImage.46	FOODEEG_Images\0479.jpg	YN	Left	Yes	1.47890109999571	0	301014	253
589.384765625	0	decision	response	1	43	43	foodImage.46	FOODEEG_Images\0479.jpg	YN	Left	Yes	1.47890109999571	0	301766	234
590.427734375	1	taste	trialStart	1	44	44	foodImage.88	FOODEEG_Images\0878.jpg	YN	Left	Yes	1.04088989994489	0	302300	251
591.490234375	2	taste	foodImageDisplay	1	44	44	foodImage.88	FOODEEG_Images\0878.jpg	YN	Left	Yes	1.04088989994489	0	302844	252
593.552734375	1.04088989994489	taste	choicePhaseStart	1	44	44	foodImage.88	FOODEEG_Images\0878.jpg	YN	Left	Yes	1.04088989994489	0	303900	253
594.5859375	0	taste	response	1	44	44	foodImage.88	FOODEEG_Images\0878.jpg	YN	Left	Yes	1.04088989994489	0	304429	234
595.62890625	1	decision	trialStart	1	45	45	foodImage.57	FOODEEG_Images\0587.jpg	YN	Left	Yes	0.916988700046204	0	304963	251
596.6796875	2	decision	foodImageDisplay	1	45	45	foodImage.57	FOODEEG_Images\0587.jpg	YN	Left	Yes	0.916988700046204	0	305501	252
598.7421875	0.916988700046204	decision	choicePhaseStart	1	45	45	foodImage.57	FOODEEG_Images\0587.jpg	YN	Left	Yes	0.916988700046204	0	306557	253
599.6484375	0	decision	response	1	45	45	foodImage.57	FOODEEG_Images\0587.jpg	YN	Left	Yes	0.916988700046204	0	307021	234
600.69140625	1	health	trialStart	1	46	46	foodImage.66	FOODEEG_Images\0676.jpg	NY	Left	No	1.14118259993847	0	307555	251
601.734375	2	health	foodImageDisplay	1	46	46	foodImage.66	FOODEEG_Images\0676.jpg	NY	Left	No	1.14118259993847	0	308089	252
603.796875	1.14118259993847	health	choicePhaseStart	1	46	46	foodImage.66	FOODEEG_Images\0676.jpg	NY	Left	No	1.14118259993847	0	309145	253
604.927734375	0	health	response	1	46	46	foodImage.66	FOODEEG_Images\0676.jpg	NY	Left	No	1.14118259993847	0	309724	234
605.970703125	1	decision	trialStart	1	47	47	foodImage.107	FOODEEG_Images\0915.jpg	YN	Right	No	1.74454860005062	0	310258	251
607.009765625	2	decision	foodImageDisplay	1	47	47	foodImage.107	FOODEEG_Images\0915.jpg	YN	Right	No	1.74454860005062	0	310790	252
609.072265625	1.74454860005062	decision	choicePhaseStart	1	47	47	foodImage.107	FOODEEG_Images\0915.jpg	YN	Right	No	1.74454860005062	0	311846	253
610.80859375	0	decision	response	1	47	47	foodImage.107	FOODEEG_Images\0915.jpg	YN	Right	No	1.74454860005062	0	312735	235
611.853515625	1	decision	trialStart	1	48	48	foodImage.103	FOODEEG_Images\0911.jpg	YN	Right	No	1.41698310000356	0	313270	251
612.890625	2	decision	foodImageDisplay	1	48	48	foodImage.103	FOODEEG_Images\0911.jpg	YN	Right	No	1.41698310000356	0	313801	252
614.953125	1.41698310000356	decision	choicePhaseStart	1	48	48	foodImage.103	FOODEEG_Images\0911.jpg	YN	Right	No	1.41698310000356	0	314857	253
616.361328125	0	decision	response	1	48	48	foodImage.103	FOODEEG_Images\0911.jpg	YN	Right	No	1.41698310000356	0	315578	235
617.40234375	1	decision	trialStart	1	49	49	foodImage.88	FOODEEG_Images\0878.jpg	NY	Right	Yes	3.43911419995129	0	316111	251
618.458984375	2	decision	foodImageDisplay	1	49	49	foodImage.88	FOODEEG_Images\0878.jpg	NY	Right	Yes	3.43911419995129	0	316652	252
620.521484375	3.43911419995129	decision	choicePhaseStart	1	49	49	foodImage.88	FOODEEG_Images\0878.jpg	NY	Right	Yes	3.43911419995129	0	317708	253
623.953125	0	decision	response	1	49	49	foodImage.88	FOODEEG_Images\0878.jpg	NY	Right	Yes	3.43911419995129	0	319465	235
624.99609375	1	taste	trialStart	1	50	50	foodImage.37	FOODEEG_Images\0359.jpg	YN	Left	Yes	1.1182792999316	0	319999	251
626.052734375	2	taste	foodImageDisplay	1	50	50	foodImage.37	FOODEEG_Images\0359.jpg	YN	Left	Yes	1.1182792999316	0	320540	252
628.115234375	1.1182792999316	taste	choicePhaseStart	1	50	50	foodImage.37	FOODEEG_Images\0359.jpg	YN	Left	Yes	1.1182792999316	0	321596	253
629.224609375	0	taste	response	1	50	50	foodImage.37	FOODEEG_Images\0359.jpg	YN	Left	Yes	1.1182792999316	0	322164	234
630.267578125	1	taste	trialStart	1	51	51	foodImage.9	FOODEEG_Images\0138.jpg	NY	Left	No	1.15762650000397	0	322698	251
631.33203125	2	taste	foodImageDisplay	1	51	51	foodImage.9	FOODEEG_Images\0138.jpg	NY	Left	No	1.15762650000397	0	323243	252
633.392578125	1.15762650000397	taste	choicePhaseStart	1	51	51	foodImage.9	FOODEEG_Images\0138.jpg	NY	Left	No	1.15762650000397	0	324298	253
634.54296875	0	taste	response	1	51	51	foodImage.9	FOODEEG_Images\0138.jpg	NY	Left	No	1.15762650000397	0	324887	234
635.587890625	1	decision	trialStart	1	52	52	foodImage.92	FOODEEG_Images\0900.jpg	NY	Left	No	1.30049009993672	0	325422	251
636.62890625	2	decision	foodImageDisplay	1	52	52	foodImage.92	FOODEEG_Images\0900.jpg	NY	Left	No	1.30049009993672	0	325955	252
638.69140625	1.30049009993672	decision	choicePhaseStart	1	52	52	foodImage.92	FOODEEG_Images\0900.jpg	NY	Left	No	1.30049009993672	0	327011	253
639.982421875	0	decision	response	1	52	52	foodImage.92	FOODEEG_Images\0900.jpg	NY	Left	No	1.30049009993672	0	327672	234
641.0234375	1	decision	trialStart	1	53	53	foodImage.49	FOODEEG_Images\0515.jpg	NY	Right	Yes	1.2433135000756	0	328205	251
642.0625	2	decision	foodImageDisplay	1	53	53	foodImage.49	FOODEEG_Images\0515.jpg	NY	Right	Yes	1.2433135000756	0	328737	252
644.125	1.2433135000756	decision	choicePhaseStart	1	53	53	foodImage.49	FOODEEG_Images\0515.jpg	NY	Right	Yes	1.2433135000756	0	329793	253
645.359375	0	decision	response	1	53	53	foodImage.49	FOODEEG_Images\0515.jpg	NY	Right	Yes	1.2433135000756	0	330425	235
646.400390625	1	decision	trialStart	1	54	54	foodImage.59	FOODEEG_Images\0607.jpg	YN	Right	No	1.73189659998752	0	330958	251
647.462890625	2	decision	foodImageDisplay	1	54	54	foodImage.59	FOODEEG_Images\0607.jpg	YN	Right	No	1.73189659998752	0	331502	252
649.5234375	1.73189659998752	decision	choicePhaseStart	1	54	54	foodImage.59	FOODEEG_Images\0607.jpg	YN	Right	No	1.73189659998752	0	332557	253
651.24609375	0	decision	response	1	54	54	foodImage.59	FOODEEG_Images\0607.jpg	YN	Right	No	1.73189659998752	0	333439	235
652.291015625	1	health	trialStart	1	55	55	foodImage.44	FOODEEG_Images\0459.jpg	YN	Left	Yes	1.07158689992502	0	333974	251
653.337890625	2	health	foodImageDisplay	1	55	55	foodImage.44	FOODEEG_Images\0459.jpg	YN	Left	Yes	1.07158689992502	0	334510	252
655.400390625	1.07158689992502	health	choicePhaseStart	1	55	55	foodImage.44	FOODEEG_Images\0459.jpg	YN	Left	Yes	1.07158689992502	0	335566	253
656.462890625	0	health	response	1	55	55	foodImage.44	FOODEEG_Images\0459.jpg	YN	Left	Yes	1.07158689992502	0	336110	234
657.505859375	1	health	trialStart	1	56	56	foodImage.90	FOODEEG_Images\0890.jpg	YN	Left	Yes	1.07656369998585	0	336644	251
658.564453125	2	health	foodImageDisplay	1	56	56	foodImage.90	FOODEEG_Images\0890.jpg	YN	Left	Yes	1.07656369998585	0	337186	252
660.626953125	1.07656369998585	health	choicePhaseStart	1	56	56	foodImage.90	FOODEEG_Images\0890.jpg	YN	Left	Yes	1.07656369998585	0	338242	253
661.6953125	0	health	response	1	56	56	foodImage.90	FOODEEG_Images\0890.jpg	YN	Left	Yes	1.07656369998585	0	338789	234
662.73828125	1	health	trialStart	1	57	57	foodImage.7	FOODEEG_Images\0116.jpg	NY	Left	No	1.9361554000061	0	339323	251
663.779296875	2	health	foodImageDisplay	1	57	57	foodImage.7	FOODEEG_Images\0116.jpg	NY	Left	No	1.9361554000061	0	339856	252
665.84765625	1.9361554000061	health	choicePhaseStart	1	57	57	foodImage.7	FOODEEG_Images\0116.jpg	NY	Left	No	1.9361554000061	0	340915	253
667.775390625	0	health	response	1	57	57	foodImage.7	FOODEEG_Images\0116.jpg	NY	Left	No	1.9361554000061	0	341902	234
668.818359375	1	taste	trialStart	1	58	58	foodImage.59	FOODEEG_Images\0607.jpg	NY	Left	No	1.90357089997269	0	342436	251
669.865234375	2	taste	foodImageDisplay	1	58	58	foodImage.59	FOODEEG_Images\0607.jpg	NY	Left	No	1.90357089997269	0	342972	252
671.927734375	1.90357089997269	taste	choicePhaseStart	1	58	58	foodImage.59	FOODEEG_Images\0607.jpg	NY	Left	No	1.90357089997269	0	344028	253
673.822265625	0	taste	response	1	58	58	foodImage.59	FOODEEG_Images\0607.jpg	NY	Left	No	1.90357089997269	0	344998	234
674.865234375	1	decision	trialStart	1	59	59	foodImage.53	FOODEEG_Images\0547.jpg	YN	Right	No	1.07624540000688	0	345532	251
675.931640625	2	decision	foodImageDisplay	1	59	59	foodImage.53	FOODEEG_Images\0547.jpg	YN	Right	No	1.07624540000688	0	346078	252
677.994140625	1.07624540000688	decision	choicePhaseStart	1	59	59	foodImage.53	FOODEEG_Images\0547.jpg	YN	Right	No	1.07624540000688	0	347134	253
679.0625	0	decision	response	1	59	59	foodImage.53	FOODEEG_Images\0547.jpg	YN	Right	No	1.07624540000688	0	347681	235
680.10546875	1	decision	trialStart	1	60	60	foodImage.109	FOODEEG_Images\0917.jpg	NY	Left	No	1.6198198000202	0	348215	251
681.15625	2	decision	foodImageDisplay	1	60	60	foodImage.109	FOODEEG_Images\0917.jpg	NY	Left	No	1.6198198000202	0	348753	252
683.21875	1.6198198000202	decision	choicePhaseStart	1	60	60	foodImage.109	FOODEEG_Images\0917.jpg	NY	Left	No	1.6198198000202	0	349809	253
684.830078125	0	decision	response	1	60	60	foodImage.109	FOODEEG_Images\0917.jpg	NY	Left	No	1.6198198000202	0	350634	234
686.87890625	30.1328125	n/a	blockEnd	n/a	n/a	n/a	n/a	n/a	n/a	n/a	n/a	n/a	n/a	351683	254
717.01171875	2	n/a	blockStart	2	n/a	n/a	n/a	n/a	n/a	n/a	n/a	n/a	n/a	367111	250
719.044921875	1	taste	trialStart	2	61	1	foodImage.30	FOODEEG_Images\0282.jpg	NY	Right	Yes	1.26838230004068	0	368152	251
720.087890625	2	taste	foodImageDisplay	2	61	1	foodImage.30	FOODEEG_Images\0282.jpg	NY	Right	Yes	1.26838230004068	0	368686	252
722.150390625	1.26838230004068	taste	choicePhaseStart	2	61	1	foodImage.30	FOODEEG_Images\0282.jpg	NY	Right	Yes	1.26838230004068	0	369742	253
723.412109375	0	taste	response	2	61	1	foodImage.30	FOODEEG_Images\0282.jpg	NY	Right	Yes	1.26838230004068	0	370388	235
724.455078125	1	taste	trialStart	2	62	2	foodImage.82	FOODEEG_Images\0805.jpg	NY	Left	No	1.2841849999968	0	370922	251
725.509765625	2	taste	foodImageDisplay	2	62	2	foodImage.82	FOODEEG_Images\0805.jpg	NY	Left	No	1.2841849999968	0	371462	252
727.576171875	1.2841849999968	taste	choicePhaseStart	2	62	2	foodImage.82	FOODEEG_Images\0805.jpg	NY	Left	No	1.2841849999968	0	372520	253
728.8515625	0	taste	response	2	62	2	foodImage.82	FOODEEG_Images\0805.jpg	NY	Left	No	1.2841849999968	0	373173	234
729.916015625	1	taste	trialStart	2	63	3	foodImage.44	FOODEEG_Images\0459.jpg	NY	Right	Yes	1.60624530003406	0	373718	251
730.96484375	2	taste	foodImageDisplay	2	63	3	foodImage.44	FOODEEG_Images\0459.jpg	NY	Right	Yes	1.60624530003406	0	374255	252
733.029296875	1.60624530003406	taste	choicePhaseStart	2	63	3	foodImage.44	FOODEEG_Images\0459.jpg	NY	Right	Yes	1.60624530003406	0	375312	253
734.626953125	0	taste	response	2	63	3	foodImage.44	FOODEEG_Images\0459.jpg	NY	Right	Yes	1.60624530003406	0	376130	235
735.669921875	1	taste	trialStart	2	64	4	foodImage.18	FOODEEG_Images\0202.jpg	YN	Left	Yes	0.87320589995943	0	376664	251
736.7265625	2	taste	foodImageDisplay	2	64	4	foodImage.18	FOODEEG_Images\0202.jpg	YN	Left	Yes	0.87320589995943	0	377205	252
738.7890625	0.87320589995943	taste	choicePhaseStart	2	64	4	foodImage.18	FOODEEG_Images\0202.jpg	YN	Left	Yes	0.87320589995943	0	378261	253
739.65234375	0	taste	response	2	64	4	foodImage.18	FOODEEG_Images\0202.jpg	YN	Left	Yes	0.87320589995943	0	378703	234
740.6953125	1	health	trialStart	2	65	5	foodImage.104	FOODEEG_Images\0912.jpg	NY	Left	No	1.57207220001146	0	379237	251
741.73828125	2	health	foodImageDisplay	2	65	5	foodImage.104	FOODEEG_Images\0912.jpg	NY	Left	No	1.57207220001146	0	379771	252
743.80078125	1.57207220001146	health	choicePhaseStart	2	65	5	foodImage.104	FOODEEG_Images\0912.jpg	NY	Left	No	1.57207220001146	0	380827	253
745.36328125	0	health	response	2	65	5	foodImage.104	FOODEEG_Images\0912.jpg	NY	Left	No	1.57207220001146	0	381627	234
746.40625	1	health	trialStart	2	66	6	foodImage.69	FOODEEG_Images\0693.jpg	NY	Right	Yes	1.26213259994984	0	382161	251
747.447265625	2	health	foodImageDisplay	2	66	6	foodImage.69	FOODEEG_Images\0693.jpg	NY	Right	Yes	1.26213259994984	0	382694	252
749.509765625	1.26213259994984	health	choicePhaseStart	2	66	6	foodImage.69	FOODEEG_Images\0693.jpg	NY	Right	Yes	1.26213259994984	0	383750	253
750.763671875	0	health	response	2	66	6	foodImage.69	FOODEEG_Images\0693.jpg	NY	Right	Yes	1.26213259994984	0	384392	235
751.806640625	1	health	trialStart	2	67	7	foodImage.115	FOODEEG_Images\0923.jpg	NY	Left	No	0.894305899972096	0	384926	251
752.85546875	2	health	foodImageDisplay	2	67	7	foodImage.115	FOODEEG_Images\0923.jpg	NY	Left	No	0.894305899972096	0	385463	252
754.91796875	0.894305899972096	health	choicePhaseStart	2	67	7	foodImage.115	FOODEEG_Images\0923.jpg	NY	Left	No	0.894305899972096	0	386519	253
755.802734375	0	health	response	2	67	7	foodImage.115	FOODEEG_Images\0923.jpg	NY	Left	No	0.894305899972096	0	386972	234
756.845703125	1	taste	trialStart	2	68	8	foodImage.113	FOODEEG_Images\0921.jpg	NY	Left	No	1.1139172000112	0	387506	251
757.8984375	2	taste	foodImageDisplay	2	68	8	foodImage.113	FOODEEG_Images\0921.jpg	NY	Left	No	1.1139172000112	0	388045	252
759.9609375	1.1139172000112	taste	choicePhaseStart	2	68	8	foodImage.113	FOODEEG_Images\0921.jpg	NY	Left	No	1.1139172000112	0	389101	253
761.06640625	0	taste	response	2	68	8	foodImage.113	FOODEEG_Images\0921.jpg	NY	Left	No	1.1139172000112	0	389667	234
762.10546875	1	decision	trialStart	2	69	9	foodImage.43	FOODEEG_Images\0445.jpg	NY	Right	Yes	1.11387809994631	0	390199	251
763.162109375	2	decision	foodImageDisplay	2	69	9	foodImage.43	FOODEEG_Images\0445.jpg	NY	Right	Yes	1.11387809994631	0	390740	252
765.224609375	1.11387809994631	decision	choicePhaseStart	2	69	9	foodImage.43	FOODEEG_Images\0445.jpg	NY	Right	Yes	1.11387809994631	0	391796	253
766.330078125	0	decision	response	2	69	9	foodImage.43	FOODEEG_Images\0445.jpg	NY	Right	Yes	1.11387809994631	0	392362	235
767.373046875	1	taste	trialStart	2	70	10	foodImage.72	FOODEEG_Images\0714.jpg	YN	Left	Yes	1.08473499992397	0	392896	251
768.416015625	2	taste	foodImageDisplay	2	70	10	foodImage.72	FOODEEG_Images\0714.jpg	YN	Left	Yes	1.08473499992397	0	393430	252
770.478515625	1.08473499992397	taste	choicePhaseStart	2	70	10	foodImage.72	FOODEEG_Images\0714.jpg	YN	Left	Yes	1.08473499992397	0	394486	253
771.5546875	0	taste	response	2	70	10	foodImage.72	FOODEEG_Images\0714.jpg	YN	Left	Yes	1.08473499992397	0	395037	234
772.59765625	1	health	trialStart	2	71	11	foodImage.45	FOODEEG_Images\0478.jpg	YN	Left	Yes	0.986123500042595	0	395571	251
773.666015625	2	health	foodImageDisplay	2	71	11	foodImage.45	FOODEEG_Images\0478.jpg	YN	Left	Yes	0.986123500042595	0	396118	252
775.728515625	0.986123500042595	health	choicePhaseStart	2	71	11	foodImage.45	FOODEEG_Images\0478.jpg	YN	Left	Yes	0.986123500042595	0	397174	253
776.705078125	0	health	response	2	71	11	foodImage.45	FOODEEG_Images\0478.jpg	YN	Left	Yes	0.986123500042595	0	397674	234
777.748046875	1	taste	trialStart	2	72	12	foodImage.102	FOODEEG_Images\0910.jpg	NY	Left	No	1.14334480010439	0	398208	251
778.796875	2	taste	foodImageDisplay	2	72	12	foodImage.102	FOODEEG_Images\0910.jpg	NY	Left	No	1.14334480010439	0	398745	252
780.859375	1.14334480010439	taste	choicePhaseStart	2	72	12	foodImage.102	FOODEEG_Images\0910.jpg	NY	Left	No	1.14334480010439	0	399801	253
781.994140625	0	taste	response	2	72	12	foodImage.102	FOODEEG_Images\0910.jpg	NY	Left	No	1.14334480010439	0	400382	234
783.03515625	1	taste	trialStart	2	73	13	foodImage.43	FOODEEG_Images\0445.jpg	NY	Right	Yes	0.931572700035758	0	400915	251
784.11328125	2	taste	foodImageDisplay	2	73	13	foodImage.43	FOODEEG_Images\0445.jpg	NY	Right	Yes	0.931572700035758	0	401467	252
786.17578125	0.931572700035758	taste	choicePhaseStart	2	73	13	foodImage.43	FOODEEG_Images\0445.jpg	NY	Right	Yes	0.931572700035758	0	402523	253
787.09765625	0	taste	response	2	73	13	foodImage.43	FOODEEG_Images\0445.jpg	NY	Right	Yes	0.931572700035758	0	402995	235
788.140625	1	taste	trialStart	2	74	14	foodImage.33	FOODEEG_Images\0329.jpg	NY	Right	Yes	0.836963999900036	0	403529	251
789.181640625	2	taste	foodImageDisplay	2	74	14	foodImage.33	FOODEEG_Images\0329.jpg	NY	Right	Yes	0.836963999900036	0	404062	252
791.244140625	0.836963999900036	taste	choicePhaseStart	2	74	14	foodImage.33	FOODEEG_Images\0329.jpg	NY	Right	Yes	0.836963999900036	0	405118	253
792.07421875	0	taste	response	2	74	14	foodImage.33	FOODEEG_Images\0329.jpg	NY	Right	Yes	0.836963999900036	0	405543	235
793.1171875	1	health	trialStart	2	75	15	foodImage.42	FOODEEG_Images\0438.jpg	NY	Right	Yes	1.70897720009089	0	406077	251
794.20703125	2	health	foodImageDisplay	2	75	15	foodImage.42	FOODEEG_Images\0438.jpg	NY	Right	Yes	1.70897720009089	0	406635	252
796.26953125	1.70897720009089	health	choicePhaseStart	2	75	15	foodImage.42	FOODEEG_Images\0438.jpg	NY	Right	Yes	1.70897720009089	0	407691	253
797.96875	0	health	response	2	75	15	foodImage.42	FOODEEG_Images\0438.jpg	NY	Right	Yes	1.70897720009089	0	408561	235
799.013671875	1	decision	trialStart	2	76	16	foodImage.21	FOODEEG_Images\0234.jpg	NY	Right	Yes	0.866127499961294	0	409096	251
800.09765625	2	decision	foodImageDisplay	2	76	16	foodImage.21	FOODEEG_Images\0234.jpg	NY	Right	Yes	0.866127499961294	0	409651	252
802.16015625	0.866127499961294	decision	choicePhaseStart	2	76	16	foodImage.21	FOODEEG_Images\0234.jpg	NY	Right	Yes	0.866127499961294	0	410707	253
803.017578125	0	decision	response	2	76	16	foodImage.21	FOODEEG_Images\0234.jpg	NY	Right	Yes	0.866127499961294	0	411146	235
804.0625	1	health	trialStart	2	77	17	foodImage.117	FOODEEG_Images\0925.jpg	NY	Left	No	0.856353599927388	0	411681	251
805.099609375	2	health	foodImageDisplay	2	77	17	foodImage.117	FOODEEG_Images\0925.jpg	NY	Left	No	0.856353599927388	0	412212	252
807.162109375	0.856353599927388	health	choicePhaseStart	2	77	17	foodImage.117	FOODEEG_Images\0925.jpg	NY	Left	No	0.856353599927388	0	413268	253
808.009765625	0	health	response	2	77	17	foodImage.117	FOODEEG_Images\0925.jpg	NY	Left	No	0.856353599927388	0	413702	234
809.052734375	1	taste	trialStart	2	78	18	foodImage.34	FOODEEG_Images\0339.jpg	YN	Right	No	1.21206960000563	0	414236	251
810.109375	2	taste	foodImageDisplay	2	78	18	foodImage.34	FOODEEG_Images\0339.jpg	YN	Right	No	1.21206960000563	0	414777	252
812.171875	1.21206960000563	taste	choicePhaseStart	2	78	18	foodImage.34	FOODEEG_Images\0339.jpg	YN	Right	No	1.21206960000563	0	415833	253
813.376953125	0	taste	response	2	78	18	foodImage.34	FOODEEG_Images\0339.jpg	YN	Right	No	1.21206960000563	0	416450	235
814.419921875	1	health	trialStart	2	79	19	foodImage.32	FOODEEG_Images\0319.jpg	NY	Right	Yes	2.09927010000683	0	416984	251
815.462890625	2	health	foodImageDisplay	2	79	19	foodImage.32	FOODEEG_Images\0319.jpg	NY	Right	Yes	2.09927010000683	0	417518	252
817.525390625	2.09927010000683	health	choicePhaseStart	2	79	19	foodImage.32	FOODEEG_Images\0319.jpg	NY	Right	Yes	2.09927010000683	0	418574	253
819.6171875	0	health	response	2	79	19	foodImage.32	FOODEEG_Images\0319.jpg	NY	Right	Yes	2.09927010000683	0	419645	235
820.658203125	1	health	trialStart	2	80	20	foodImage.61	FOODEEG_Images\0640.jpg	YN	Left	Yes	0.790033800061792	0	420178	251
821.708984375	2	health	foodImageDisplay	2	80	20	foodImage.61	FOODEEG_Images\0640.jpg	YN	Left	Yes	0.790033800061792	0	420716	252
823.771484375	0.790033800061792	health	choicePhaseStart	2	80	20	foodImage.61	FOODEEG_Images\0640.jpg	YN	Left	Yes	0.790033800061792	0	421772	253
824.552734375	0	health	response	2	80	20	foodImage.61	FOODEEG_Images\0640.jpg	YN	Left	Yes	0.790033800061792	0	422172	234
825.59375	1	health	trialStart	2	81	21	foodImage.109	FOODEEG_Images\0917.jpg	YN	Right	No	0.872608299949206	0	422705	251
826.6328125	2	health	foodImageDisplay	2	81	21	foodImage.109	FOODEEG_Images\0917.jpg	YN	Right	No	0.872608299949206	0	423237	252
828.6953125	0.872608299949206	health	choicePhaseStart	2	81	21	foodImage.109	FOODEEG_Images\0917.jpg	YN	Right	No	0.872608299949206	0	424293	253
829.560546875	0	health	response	2	81	21	foodImage.109	FOODEEG_Images\0917.jpg	YN	Right	No	0.872608299949206	0	424736	235
830.609375	1	taste	trialStart	2	82	22	foodImage.89	FOODEEG_Images\0881.jpg	NY	Right	Yes	1.5430830999976	0	425273	251
831.666015625	2	taste	foodImageDisplay	2	82	22	foodImage.89	FOODEEG_Images\0881.jpg	NY	Right	Yes	1.5430830999976	0	425814	252
833.728515625	1.5430830999976	taste	choicePhaseStart	2	82	22	foodImage.89	FOODEEG_Images\0881.jpg	NY	Right	Yes	1.5430830999976	0	426870	253
835.263671875	0	taste	response	2	82	22	foodImage.89	FOODEEG_Images\0881.jpg	NY	Right	Yes	1.5430830999976	0	427656	235
836.3046875	1	health	trialStart	2	83	23	foodImage.86	FOODEEG_Images\0844.jpg	YN	Right	No	1.29296310001519	0	428189	251
837.37109375	2	health	foodImageDisplay	2	83	23	foodImage.86	FOODEEG_Images\0844.jpg	YN	Right	No	1.29296310001519	0	428735	252
839.43359375	1.29296310001519	health	choicePhaseStart	2	83	23	foodImage.86	FOODEEG_Images\0844.jpg	YN	Right	No	1.29296310001519	0	429791	253
840.71875	0	health	response	2	83	23	foodImage.86	FOODEEG_Images\0844.jpg	YN	Right	No	1.29296310001519	0	430449	235
841.76171875	1	taste	trialStart	2	84	24	foodImage.3	FOODEEG_Images\0046.jpg	NY	Right	Yes	1.63110120000783	0	430983	251
842.810546875	2	taste	foodImageDisplay	2	84	24	foodImage.3	FOODEEG_Images\0046.jpg	NY	Right	Yes	1.63110120000783	0	431520	252
844.873046875	1.63110120000783	taste	choicePhaseStart	2	84	24	foodImage.3	FOODEEG_Images\0046.jpg	NY	Right	Yes	1.63110120000783	0	432576	253
846.49609375	0	taste	response	2	84	24	foodImage.3	FOODEEG_Images\0046.jpg	NY	Right	Yes	1.63110120000783	0	433407	235
847.5390625	1	taste	trialStart	2	85	25	foodImage.57	FOODEEG_Images\0587.jpg	NY	Right	Yes	1.32800270000007	0	433941	251
848.6015625	2	taste	foodImageDisplay	2	85	25	foodImage.57	FOODEEG_Images\0587.jpg	NY	Right	Yes	1.32800270000007	0	434485	252
850.6640625	1.32800270000007	taste	choicePhaseStart	2	85	25	foodImage.57	FOODEEG_Images\0587.jpg	NY	Right	Yes	1.32800270000007	0	435541	253
851.982421875	0	taste	response	2	85	25	foodImage.57	FOODEEG_Images\0587.jpg	NY	Right	Yes	1.32800270000007	0	436216	235
853.025390625	1	taste	trialStart	2	86	26	foodImage.16	FOODEEG_Images\0196.jpg	NY	Right	Yes	0.771044899942353	0	436750	251
854.0859375	2	taste	foodImageDisplay	2	86	26	foodImage.16	FOODEEG_Images\0196.jpg	NY	Right	Yes	0.771044899942353	0	437293	252
856.1484375	0.771044899942353	taste	choicePhaseStart	2	86	26	foodImage.16	FOODEEG_Images\0196.jpg	NY	Right	Yes	0.771044899942353	0	438349	253
856.91015625	0	taste	response	2	86	26	foodImage.16	FOODEEG_Images\0196.jpg	NY	Right	Yes	0.771044899942353	0	438739	235
857.955078125	1	taste	trialStart	2	87	27	foodImage.108	FOODEEG_Images\0916.jpg	YN	Right	No	1.67151079990435	0	439274	251
858.994140625	2	taste	foodImageDisplay	2	87	27	foodImage.108	FOODEEG_Images\0916.jpg	YN	Right	No	1.67151079990435	0	439806	252
861.056640625	1.67151079990435	taste	choicePhaseStart	2	87	27	foodImage.108	FOODEEG_Images\0916.jpg	YN	Right	No	1.67151079990435	0	440862	253
862.71875	0	taste	response	2	87	27	foodImage.108	FOODEEG_Images\0916.jpg	YN	Right	No	1.67151079990435	0	441713	235
863.76171875	1	health	trialStart	2	88	28	foodImage.4	FOODEEG_Images\0065.jpg	YN	Right	No	1.17264230002183	0	442247	251
864.8203125	2	health	foodImageDisplay	2	88	28	foodImage.4	FOODEEG_Images\0065.jpg	YN	Right	No	1.17264230002183	0	442789	252
866.8828125	1.17264230002183	health	choicePhaseStart	2	88	28	foodImage.4	FOODEEG_Images\0065.jpg	YN	Right	No	1.17264230002183	0	443845	253
868.046875	0	health	response	2	88	28	foodImage.4	FOODEEG_Images\0065.jpg	YN	Right	No	1.17264230002183	0	444441	235
869.08984375	1	health	trialStart	2	89	29	foodImage.24	FOODEEG_Images\0250.jpg	NY	Right	Yes	0.913780899951234	0	444975	251
870.15234375	2	health	foodImageDisplay	2	89	29	foodImage.24	FOODEEG_Images\0250.jpg	NY	Right	Yes	0.913780899951234	0	445519	252
872.21484375	0.913780899951234	health	choicePhaseStart	2	89	29	foodImage.24	FOODEEG_Images\0250.jpg	NY	Right	Yes	0.913780899951234	0	446575	253
873.1171875	0	health	response	2	89	29	foodImage.24	FOODEEG_Images\0250.jpg	NY	Right	Yes	0.913780899951234	0	447037	235
874.162109375	1	health	trialStart	2	90	30	foodImage.48	FOODEEG_Images\0494.jpg	YN	Right	No	1.29006080003455	0	447572	251
875.20703125	2	health	foodImageDisplay	2	90	30	foodImage.48	FOODEEG_Images\0494.jpg	YN	Right	No	1.29006080003455	0	448107	252
877.26953125	1.29006080003455	health	choicePhaseStart	2	90	30	foodImage.48	FOODEEG_Images\0494.jpg	YN	Right	No	1.29006080003455	0	449163	253
878.55078125	0	health	response	2	90	30	foodImage.48	FOODEEG_Images\0494.jpg	YN	Right	No	1.29006080003455	0	449819	235
879.59765625	1	taste	trialStart	2	91	31	foodImage.7	FOODEEG_Images\0116.jpg	YN	Left	Yes	2.5132305000443	0	450355	251
880.638671875	2	taste	foodImageDisplay	2	91	31	foodImage.7	FOODEEG_Images\0116.jpg	YN	Left	Yes	2.5132305000443	0	450888	252
882.701171875	2.5132305000443	taste	choicePhaseStart	2	91	31	foodImage.7	FOODEEG_Images\0116.jpg	YN	Left	Yes	2.5132305000443	0	451944	253
885.205078125	0	taste	response	2	91	31	foodImage.7	FOODEEG_Images\0116.jpg	YN	Left	Yes	2.5132305000443	0	453226	234
886.25	1	decision	trialStart	2	92	32	foodImage.63	FOODEEG_Images\0645.jpg	NY	Left	No	1.44959479989484	0	453761	251
887.29296875	2	decision	foodImageDisplay	2	92	32	foodImage.63	FOODEEG_Images\0645.jpg	NY	Left	No	1.44959479989484	0	454295	252
889.35546875	1.44959479989484	decision	choicePhaseStart	2	92	32	foodImage.63	FOODEEG_Images\0645.jpg	NY	Left	No	1.44959479989484	0	455351	253
890.796875	0	decision	response	2	92	32	foodImage.63	FOODEEG_Images\0645.jpg	NY	Left	No	1.44959479989484	0	456089	234
891.83984375	1	taste	trialStart	2	93	33	foodImage.42	FOODEEG_Images\0438.jpg	YN	Left	Yes	1.78105500002857	0	456623	251
892.923828125	2	taste	foodImageDisplay	2	93	33	foodImage.42	FOODEEG_Images\0438.jpg	YN	Left	Yes	1.78105500002857	0	457178	252
894.986328125	1.78105500002857	taste	choicePhaseStart	2	93	33	foodImage.42	FOODEEG_Images\0438.jpg	YN	Left	Yes	1.78105500002857	0	458234	253
896.7578125	0	taste	response	2	93	33	foodImage.42	FOODEEG_Images\0438.jpg	YN	Left	Yes	1.78105500002857	0	459141	234
897.806640625	1	health	trialStart	2	94	34	foodImage.46	FOODEEG_Images\0479.jpg	YN	Left	Yes	0.854851000010967	0	459678	251
898.873046875	2	health	foodImageDisplay	2	94	34	foodImage.46	FOODEEG_Images\0479.jpg	YN	Left	Yes	0.854851000010967	0	460224	252
900.935546875	0.854851000010967	health	choicePhaseStart	2	94	34	foodImage.46	FOODEEG_Images\0479.jpg	YN	Left	Yes	0.854851000010967	0	461280	253
901.78125	0	health	response	2	94	34	foodImage.46	FOODEEG_Images\0479.jpg	YN	Left	Yes	0.854851000010967	0	461713	234
902.82421875	1	decision	trialStart	2	95	35	foodImage.54	FOODEEG_Images\0560.jpg	NY	Right	Yes	0.862461499986239	0	462247	251
903.888671875	2	decision	foodImageDisplay	2	95	35	foodImage.54	FOODEEG_Images\0560.jpg	NY	Right	Yes	0.862461499986239	0	462792	252
905.951171875	0.862461499986239	decision	choicePhaseStart	2	95	35	foodImage.54	FOODEEG_Images\0560.jpg	NY	Right	Yes	0.862461499986239	0	463848	253
906.8046875	0	decision	response	2	95	35	foodImage.54	FOODEEG_Images\0560.jpg	NY	Right	Yes	0.862461499986239	0	464285	235
907.84765625	1	health	trialStart	2	96	36	foodImage.74	FOODEEG_Images\0752.jpg	YN	Left	Yes	0.788670300040394	0	464819	251
908.8984375	2	health	foodImageDisplay	2	96	36	foodImage.74	FOODEEG_Images\0752.jpg	YN	Left	Yes	0.788670300040394	0	465357	252
910.9609375	0.788670300040394	health	choicePhaseStart	2	96	36	foodImage.74	FOODEEG_Images\0752.jpg	YN	Left	Yes	0.788670300040394	0	466413	253
911.740234375	0	health	response	2	96	36	foodImage.74	FOODEEG_Images\0752.jpg	YN	Left	Yes	0.788670300040394	0	466812	234
912.78515625	1	taste	trialStart	2	97	37	foodImage.15	FOODEEG_Images\0189.jpg	YN	Left	Yes	0.784626199980266	0	467347	251
913.845703125	2	taste	foodImageDisplay	2	97	37	foodImage.15	FOODEEG_Images\0189.jpg	YN	Left	Yes	0.784626199980266	0	467890	252
915.908203125	0.784626199980266	taste	choicePhaseStart	2	97	37	foodImage.15	FOODEEG_Images\0189.jpg	YN	Left	Yes	0.784626199980266	0	468946	253
916.685546875	0	taste	response	2	97	37	foodImage.15	FOODEEG_Images\0189.jpg	YN	Left	Yes	0.784626199980266	0	469344	234
917.732421875	1	taste	trialStart	2	98	38	foodImage.81	FOODEEG_Images\0797.jpg	NY	Right	Yes	1.03271850000601	0	469880	251
918.80078125	2	taste	foodImageDisplay	2	98	38	foodImage.81	FOODEEG_Images\0797.jpg	NY	Right	Yes	1.03271850000601	0	470427	252
920.86328125	1.03271850000601	taste	choicePhaseStart	2	98	38	foodImage.81	FOODEEG_Images\0797.jpg	NY	Right	Yes	1.03271850000601	0	471483	253
921.884765625	0	taste	response	2	98	38	foodImage.81	FOODEEG_Images\0797.jpg	NY	Right	Yes	1.03271850000601	0	472006	235
922.927734375	1	taste	trialStart	2	99	39	foodImage.35	FOODEEG_Images\0350.jpg	NY	Right	Yes	1.18279849993996	0	472540	251
923.966796875	2	taste	foodImageDisplay	2	99	39	foodImage.35	FOODEEG_Images\0350.jpg	NY	Right	Yes	1.18279849993996	0	473072	252
926.029296875	1.18279849993996	taste	choicePhaseStart	2	99	39	foodImage.35	FOODEEG_Images\0350.jpg	NY	Right	Yes	1.18279849993996	0	474128	253
927.203125	0	taste	response	2	99	39	foodImage.35	FOODEEG_Images\0350.jpg	NY	Right	Yes	1.18279849993996	0	474729	235
928.248046875	1	health	trialStart	2	100	40	foodImage.49	FOODEEG_Images\0515.jpg	YN	Left	Yes	1.406881300034	0	475264	251
929.294921875	2	health	foodImageDisplay	2	100	40	foodImage.49	FOODEEG_Images\0515.jpg	YN	Left	Yes	1.406881300034	0	475800	252
931.357421875	1.406881300034	health	choicePhaseStart	2	100	40	foodImage.49	FOODEEG_Images\0515.jpg	YN	Left	Yes	1.406881300034	0	476856	253
932.755859375	0	health	response	2	100	40	foodImage.49	FOODEEG_Images\0515.jpg	YN	Left	Yes	1.406881300034	0	477572	234
933.814453125	1	health	trialStart	2	101	41	foodImage.18	FOODEEG_Images\0202.jpg	YN	Left	Yes	0.700647400110029	0	478114	251
934.873046875	2	health	foodImageDisplay	2	101	41	foodImage.18	FOODEEG_Images\0202.jpg	YN	Left	Yes	0.700647400110029	0	478656	252
936.935546875	0.700647400110029	health	choicePhaseStart	2	101	41	foodImage.18	FOODEEG_Images\0202.jpg	YN	Left	Yes	0.700647400110029	0	479712	253
937.626953125	0	health	response	2	101	41	foodImage.18	FOODEEG_Images\0202.jpg	YN	Left	Yes	0.700647400110029	0	480066	234
938.669921875	1	decision	trialStart	2	102	42	foodImage.35	FOODEEG_Images\0350.jpg	YN	Left	Yes	1.02552530006506	0	480600	251
939.708984375	2	decision	foodImageDisplay	2	102	42	foodImage.35	FOODEEG_Images\0350.jpg	YN	Left	Yes	1.02552530006506	0	481132	252
941.771484375	1.02552530006506	decision	choicePhaseStart	2	102	42	foodImage.35	FOODEEG_Images\0350.jpg	YN	Left	Yes	1.02552530006506	0	482188	253
942.787109375	0	decision	response	2	102	42	foodImage.35	FOODEEG_Images\0350.jpg	YN	Left	Yes	1.02552530006506	0	482708	234
943.830078125	1	decision	trialStart	2	103	43	foodImage.28	FOODEEG_Images\0273.jpg	YN	Left	Yes	0.789124699891545	0	483242	251
944.88671875	2	decision	foodImageDisplay	2	103	43	foodImage.28	FOODEEG_Images\0273.jpg	YN	Left	Yes	0.789124699891545	0	483783	252
946.94921875	0.789124699891545	decision	choicePhaseStart	2	103	43	foodImage.28	FOODEEG_Images\0273.jpg	YN	Left	Yes	0.789124699891545	0	484839	253
947.73046875	0	decision	response	2	103	43	foodImage.28	FOODEEG_Images\0273.jpg	YN	Left	Yes	0.789124699891545	0	485239	234
948.7734375	1	taste	trialStart	2	104	44	foodImage.17	FOODEEG_Images\0199.jpg	NY	Right	Yes	0.982227799948305	0	485773	251
949.81640625	2	taste	foodImageDisplay	2	104	44	foodImage.17	FOODEEG_Images\0199.jpg	NY	Right	Yes	0.982227799948305	0	486307	252
951.87890625	0.982227799948305	taste	choicePhaseStart	2	104	44	foodImage.17	FOODEEG_Images\0199.jpg	NY	Right	Yes	0.982227799948305	0	487363	253
952.8515625	0	taste	response	2	104	44	foodImage.17	FOODEEG_Images\0199.jpg	NY	Right	Yes	0.982227799948305	0	487861	235
953.89453125	1	taste	trialStart	2	105	45	foodImage.106	FOODEEG_Images\0914.jpg	NY	Left	No	0.978307099896483	0	488395	251
954.93359375	2	taste	foodImageDisplay	2	105	45	foodImage.106	FOODEEG_Images\0914.jpg	NY	Left	No	0.978307099896483	0	488927	252
957.001953125	0.978307099896483	taste	choicePhaseStart	2	105	45	foodImage.106	FOODEEG_Images\0914.jpg	NY	Left	No	0.978307099896483	0	489986	253
957.970703125	0	taste	response	2	105	45	foodImage.106	FOODEEG_Images\0914.jpg	NY	Left	No	0.978307099896483	0	490482	234
959.015625	1	taste	trialStart	2	106	46	foodImage.50	FOODEEG_Images\0529.jpg	NY	Right	Yes	0.741928900009952	0	491017	251
960.072265625	2	taste	foodImageDisplay	2	106	46	foodImage.50	FOODEEG_Images\0529.jpg	NY	Right	Yes	0.741928900009952	0	491558	252
962.1328125	0.741928900009952	taste	choicePhaseStart	2	106	46	foodImage.50	FOODEEG_Images\0529.jpg	NY	Right	Yes	0.741928900009952	0	492613	253
962.8671875	0	taste	response	2	106	46	foodImage.50	FOODEEG_Images\0529.jpg	NY	Right	Yes	0.741928900009952	0	492989	235
963.91015625	1	health	trialStart	2	107	47	foodImage.96	FOODEEG_Images\0904.jpg	YN	Left	Yes	1.61577749997377	0	493523	251
964.94921875	2	health	foodImageDisplay	2	107	47	foodImage.96	FOODEEG_Images\0904.jpg	YN	Left	Yes	1.61577749997377	0	494055	252
967.009765625	1.61577749997377	health	choicePhaseStart	2	107	47	foodImage.96	FOODEEG_Images\0904.jpg	YN	Left	Yes	1.61577749997377	0	495110	253
968.619140625	0	health	response	2	107	47	foodImage.96	FOODEEG_Images\0904.jpg	YN	Left	Yes	1.61577749997377	0	495934	234
969.662109375	1	decision	trialStart	2	108	48	foodImage.25	FOODEEG_Images\0261.jpg	NY	Left	No	1.24456389993429	0	496468	251
970.703125	2	decision	foodImageDisplay	2	108	48	foodImage.25	FOODEEG_Images\0261.jpg	NY	Left	No	1.24456389993429	0	497001	252
972.765625	1.24456389993429	decision	choicePhaseStart	2	108	48	foodImage.25	FOODEEG_Images\0261.jpg	NY	Left	No	1.24456389993429	0	498057	253
974.001953125	0	decision	response	2	108	48	foodImage.25	FOODEEG_Images\0261.jpg	NY	Left	No	1.24456389993429	0	498690	234
975.046875	1	health	trialStart	2	109	49	foodImage.118	FOODEEG_Images\0926.jpg	NY	Right	Yes	2.45869680005126	0	499225	251
976.08984375	2	health	foodImageDisplay	2	109	49	foodImage.118	FOODEEG_Images\0926.jpg	NY	Right	Yes	2.45869680005126	0	499759	252
978.15234375	2.45869680005126	health	choicePhaseStart	2	109	49	foodImage.118	FOODEEG_Images\0926.jpg	NY	Right	Yes	2.45869680005126	0	500815	253
980.6015625	0	health	response	2	109	49	foodImage.118	FOODEEG_Images\0926.jpg	NY	Right	Yes	2.45869680005126	0	502069	235
981.646484375	1	decision	trialStart	2	110	50	foodImage.90	FOODEEG_Images\0890.jpg	NY	Left	No	1.90635559998918	0	502604	251
982.712890625	2	decision	foodImageDisplay	2	110	50	foodImage.90	FOODEEG_Images\0890.jpg	NY	Left	No	1.90635559998918	0	503150	252
984.775390625	1.90635559998918	decision	choicePhaseStart	2	110	50	foodImage.90	FOODEEG_Images\0890.jpg	NY	Left	No	1.90635559998918	0	504206	253
986.673828125	0	decision	response	2	110	50	foodImage.90	FOODEEG_Images\0890.jpg	NY	Left	No	1.90635559998918	0	505178	234
987.716796875	1	decision	trialStart	2	111	51	foodImage.118	FOODEEG_Images\0926.jpg	NY	Left	No	0.904602400027215	0	505712	251
988.755859375	2	decision	foodImageDisplay	2	111	51	foodImage.118	FOODEEG_Images\0926.jpg	NY	Left	No	0.904602400027215	0	506244	252
990.818359375	0.904602400027215	decision	choicePhaseStart	2	111	51	foodImage.118	FOODEEG_Images\0926.jpg	NY	Left	No	0.904602400027215	0	507300	253
991.712890625	0	decision	response	2	111	51	foodImage.118	FOODEEG_Images\0926.jpg	NY	Left	No	0.904602400027215	0	507758	234
992.7578125	1	decision	trialStart	2	112	52	foodImage.108	FOODEEG_Images\0916.jpg	YN	Right	No	1.32136639999226	0	508293	251
993.80078125	2	decision	foodImageDisplay	2	112	52	foodImage.108	FOODEEG_Images\0916.jpg	YN	Right	No	1.32136639999226	0	508827	252
995.86328125	1.32136639999226	decision	choicePhaseStart	2	112	52	foodImage.108	FOODEEG_Images\0916.jpg	YN	Right	No	1.32136639999226	0	509883	253
997.177734375	0	decision	response	2	112	52	foodImage.108	FOODEEG_Images\0916.jpg	YN	Right	No	1.32136639999226	0	510556	235
998.220703125	1	decision	trialStart	2	113	53	foodImage.110	FOODEEG_Images\0918.jpg	NY	Left	No	0.87307219998911	0	511090	251
999.259765625	2	decision	foodImageDisplay	2	113	53	foodImage.110	FOODEEG_Images\0918.jpg	NY	Left	No	0.87307219998911	0	511622	252
1001.322265625	0.87307219998911	decision	choicePhaseStart	2	113	53	foodImage.110	FOODEEG_Images\0918.jpg	NY	Left	No	0.87307219998911	0	512678	253
1002.185546875	0	decision	response	2	113	53	foodImage.110	FOODEEG_Images\0918.jpg	NY	Left	No	0.87307219998911	0	513120	234
1003.23046875	1	taste	trialStart	2	114	54	foodImage.105	FOODEEG_Images\0913.jpg	NY	Left	No	0.894380600075237	0	513655	251
1004.26953125	2	taste	foodImageDisplay	2	114	54	foodImage.105	FOODEEG_Images\0913.jpg	NY	Left	No	0.894380600075237	0	514187	252
1006.33203125	0.894380600075237	taste	choicePhaseStart	2	114	54	foodImage.105	FOODEEG_Images\0913.jpg	NY	Left	No	0.894380600075237	0	515243	253
1007.216796875	0	taste	response	2	114	54	foodImage.105	FOODEEG_Images\0913.jpg	NY	Left	No	0.894380600075237	0	515696	234
1008.26171875	1	taste	trialStart	2	115	55	foodImage.120	FOODEEG_Images\0928.jpg	YN	Right	No	1.0318082999438	0	516231	251
1009.298828125	2	taste	foodImageDisplay	2	115	55	foodImage.120	FOODEEG_Images\0928.jpg	YN	Right	No	1.0318082999438	0	516762	252
1011.361328125	1.0318082999438	taste	choicePhaseStart	2	115	55	foodImage.120	FOODEEG_Images\0928.jpg	YN	Right	No	1.0318082999438	0	517818	253
1012.384765625	0	taste	response	2	115	55	foodImage.120	FOODEEG_Images\0928.jpg	YN	Right	No	1.0318082999438	0	518342	235
1013.4296875	1	taste	trialStart	2	116	56	foodImage.73	FOODEEG_Images\0717.jpg	NY	Right	Yes	0.845611099968664	0	518877	251
1014.509765625	2	taste	foodImageDisplay	2	116	56	foodImage.73	FOODEEG_Images\0717.jpg	NY	Right	Yes	0.845611099968664	0	519430	252
1016.572265625	0.845611099968664	taste	choicePhaseStart	2	116	56	foodImage.73	FOODEEG_Images\0717.jpg	NY	Right	Yes	0.845611099968664	0	520486	253
1017.408203125	0	taste	response	2	116	56	foodImage.73	FOODEEG_Images\0717.jpg	NY	Right	Yes	0.845611099968664	0	520914	235
1018.455078125	1	decision	trialStart	2	117	57	foodImage.20	FOODEEG_Images\0226.jpg	NY	Left	No	1.22409649996553	0	521450	251
1019.505859375	2	decision	foodImageDisplay	2	117	57	foodImage.20	FOODEEG_Images\0226.jpg	NY	Left	No	1.22409649996553	0	521988	252
1021.568359375	1.22409649996553	decision	choicePhaseStart	2	117	57	foodImage.20	FOODEEG_Images\0226.jpg	NY	Left	No	1.22409649996553	0	523044	253
1022.78515625	0	decision	response	2	117	57	foodImage.20	FOODEEG_Images\0226.jpg	NY	Left	No	1.22409649996553	0	523667	234
1023.828125	1	decision	trialStart	2	118	58	foodImage.2	FOODEEG_Images\0028.jpg	YN	Left	Yes	1.64533249998931	0	524201	251
1024.88671875	2	decision	foodImageDisplay	2	118	58	foodImage.2	FOODEEG_Images\0028.jpg	YN	Left	Yes	1.64533249998931	0	524743	252
1026.947265625	1.64533249998931	decision	choicePhaseStart	2	118	58	foodImage.2	FOODEEG_Images\0028.jpg	YN	Left	Yes	1.64533249998931	0	525798	253
1028.583984375	0	decision	response	2	118	58	foodImage.2	FOODEEG_Images\0028.jpg	YN	Left	Yes	1.64533249998931	0	526636	234
1029.626953125	1	taste	trialStart	2	119	59	foodImage.63	FOODEEG_Images\0645.jpg	YN	Right	No	1.51849980000407	0	527170	251
1030.68359375	2	taste	foodImageDisplay	2	119	59	foodImage.63	FOODEEG_Images\0645.jpg	YN	Right	No	1.51849980000407	0	527711	252
1032.74609375	1.51849980000407	taste	choicePhaseStart	2	119	59	foodImage.63	FOODEEG_Images\0645.jpg	YN	Right	No	1.51849980000407	0	528767	253
1034.255859375	0	taste	response	2	119	59	foodImage.63	FOODEEG_Images\0645.jpg	YN	Right	No	1.51849980000407	0	529540	235
1035.298828125	1	decision	trialStart	2	120	60	foodImage.41	FOODEEG_Images\0409.jpg	NY	Right	Yes	0.961252100067213	0	530074	251
1036.369140625	2	decision	foodImageDisplay	2	120	60	foodImage.41	FOODEEG_Images\0409.jpg	NY	Right	Yes	0.961252100067213	0	530622	252
1038.431640625	0.961252100067213	decision	choicePhaseStart	2	120	60	foodImage.41	FOODEEG_Images\0409.jpg	NY	Right	Yes	0.961252100067213	0	531678	253
1039.3828125	0	decision	response	2	120	60	foodImage.41	FOODEEG_Images\0409.jpg	NY	Right	Yes	0.961252100067213	0	532165	235
1041.42578125	12.333984375	n/a	blockEnd	n/a	n/a	n/a	n/a	n/a	n/a	n/a	n/a	n/a	n/a	533211	254
1053.759765625	2	n/a	blockStart	3	n/a	n/a	n/a	n/a	n/a	n/a	n/a	n/a	n/a	539526	250
1055.79296875	1	decision	trialStart	3	121	1	foodImage.119	FOODEEG_Images\0927.jpg	NY	Left	No	1.03098420007154	0	540567	251
1056.83203125	2	decision	foodImageDisplay	3	121	1	foodImage.119	FOODEEG_Images\0927.jpg	NY	Left	No	1.03098420007154	0	541099	252
1058.896484375	1.03098420007154	decision	choicePhaseStart	3	121	1	foodImage.119	FOODEEG_Images\0927.jpg	NY	Left	No	1.03098420007154	0	542156	253
1059.91796875	0	decision	response	3	121	1	foodImage.119	FOODEEG_Images\0927.jpg	NY	Left	No	1.03098420007154	0	542679	234
1060.96484375	1	taste	trialStart	3	122	2	foodImage.101	FOODEEG_Images\0909.jpg	YN	Right	No	1.14965279994067	0	543215	251
1062.00390625	2	taste	foodImageDisplay	3	122	2	foodImage.101	FOODEEG_Images\0909.jpg	YN	Right	No	1.14965279994067	0	543747	252
1064.06640625	1.14965279994067	taste	choicePhaseStart	3	122	2	foodImage.101	FOODEEG_Images\0909.jpg	YN	Right	No	1.14965279994067	0	544803	253
1065.20703125	0	taste	response	3	122	2	foodImage.101	FOODEEG_Images\0909.jpg	YN	Right	No	1.14965279994067	0	545387	235
1066.248046875	1	decision	trialStart	3	123	3	foodImage.38	FOODEEG_Images\0365.jpg	NY	Right	Yes	1.01797829999123	0	545920	251
1067.287109375	2	decision	foodImageDisplay	3	123	3	foodImage.38	FOODEEG_Images\0365.jpg	NY	Right	Yes	1.01797829999123	0	546452	252
1069.349609375	1.01797829999123	decision	choicePhaseStart	3	123	3	foodImage.38	FOODEEG_Images\0365.jpg	NY	Right	Yes	1.01797829999123	0	547508	253
1070.357421875	0	decision	response	3	123	3	foodImage.38	FOODEEG_Images\0365.jpg	NY	Right	Yes	1.01797829999123	0	548024	235
1071.400390625	1	health	trialStart	3	124	4	foodImage.47	FOODEEG_Images\0488.jpg	NY	Left	No	1.08815450000111	0	548558	251
1072.44140625	2	health	foodImageDisplay	3	124	4	foodImage.47	FOODEEG_Images\0488.jpg	NY	Left	No	1.08815450000111	0	549091	252
1074.50390625	1.08815450000111	health	choicePhaseStart	3	124	4	foodImage.47	FOODEEG_Images\0488.jpg	NY	Left	No	1.08815450000111	0	550147	253
1075.58203125	0	health	response	3	124	4	foodImage.47	FOODEEG_Images\0488.jpg	NY	Left	No	1.08815450000111	0	550699	234
1076.625	1	taste	trialStart	3	125	5	foodImage.39	FOODEEG_Images\0367.jpg	NY	Right	Yes	1.01730329997372	0	551233	251
1077.6640625	2	taste	foodImageDisplay	3	125	5	foodImage.39	FOODEEG_Images\0367.jpg	NY	Right	Yes	1.01730329997372	0	551765	252
1079.7265625	1.01730329997372	taste	choicePhaseStart	3	125	5	foodImage.39	FOODEEG_Images\0367.jpg	NY	Right	Yes	1.01730329997372	0	552821	253
1080.734375	0	taste	response	3	125	5	foodImage.39	FOODEEG_Images\0367.jpg	NY	Right	Yes	1.01730329997372	0	553337	235
1081.77734375	1	taste	trialStart	3	126	6	foodImage.48	FOODEEG_Images\0494.jpg	YN	Left	Yes	1.83543229999486	0	553871	251
1082.818359375	2	taste	foodImageDisplay	3	126	6	foodImage.48	FOODEEG_Images\0494.jpg	YN	Left	Yes	1.83543229999486	0	554404	252
1084.8828125	1.83543229999486	taste	choicePhaseStart	3	126	6	foodImage.48	FOODEEG_Images\0494.jpg	YN	Left	Yes	1.83543229999486	0	555461	253
1086.7109375	0	taste	response	3	126	6	foodImage.48	FOODEEG_Images\0494.jpg	YN	Left	Yes	1.83543229999486	0	556397	234
1087.75390625	1	taste	trialStart	3	127	7	foodImage.28	FOODEEG_Images\0273.jpg	NY	Right	Yes	2.38731110002846	0	556931	251
1088.8046875	2	taste	foodImageDisplay	3	127	7	foodImage.28	FOODEEG_Images\0273.jpg	NY	Right	Yes	2.38731110002846	0	557469	252
1090.8671875	2.38731110002846	taste	choicePhaseStart	3	127	7	foodImage.28	FOODEEG_Images\0273.jpg	NY	Right	Yes	2.38731110002846	0	558525	253
1093.24609375	0	taste	response	3	127	7	foodImage.28	FOODEEG_Images\0273.jpg	NY	Right	Yes	2.38731110002846	0	559743	235
1094.291015625	1	taste	trialStart	3	128	8	foodImage.90	FOODEEG_Images\0890.jpg	NY	Right	Yes	1.6090678999899	0	560278	251
1095.3515625	2	taste	foodImageDisplay	3	128	8	foodImage.90	FOODEEG_Images\0890.jpg	NY	Right	Yes	1.6090678999899	0	560821	252
1097.412109375	1.6090678999899	taste	choicePhaseStart	3	128	8	foodImage.90	FOODEEG_Images\0890.jpg	NY	Right	Yes	1.6090678999899	0	561876	253
1099.013671875	0	taste	response	3	128	8	foodImage.90	FOODEEG_Images\0890.jpg	NY	Right	Yes	1.6090678999899	0	562696	235
1100.056640625	1	decision	trialStart	3	129	9	foodImage.81	FOODEEG_Images\0797.jpg	NY	Right	Yes	1.87240310001653	0	563230	251
1101.115234375	2	decision	foodImageDisplay	3	129	9	foodImage.81	FOODEEG_Images\0797.jpg	NY	Right	Yes	1.87240310001653	0	563772	252
1103.1796875	1.87240310001653	decision	choicePhaseStart	3	129	9	foodImage.81	FOODEEG_Images\0797.jpg	NY	Right	Yes	1.87240310001653	0	564829	253
1105.044921875	0	decision	response	3	129	9	foodImage.81	FOODEEG_Images\0797.jpg	NY	Right	Yes	1.87240310001653	0	565784	235
1106.091796875	1	health	trialStart	3	130	10	foodImage.51	FOODEEG_Images\0536.jpg	NY	Left	No	1.03071610000916	0	566320	251
1107.14453125	2	health	foodImageDisplay	3	130	10	foodImage.51	FOODEEG_Images\0536.jpg	NY	Left	No	1.03071610000916	0	566859	252
1109.20703125	1.03071610000916	health	choicePhaseStart	3	130	10	foodImage.51	FOODEEG_Images\0536.jpg	NY	Left	No	1.03071610000916	0	567915	253
1110.228515625	0	health	response	3	130	10	foodImage.51	FOODEEG_Images\0536.jpg	NY	Left	No	1.03071610000916	0	568438	234
1111.271484375	1	health	trialStart	3	131	11	foodImage.119	FOODEEG_Images\0927.jpg	YN	Right	No	0.966124900034629	0	568972	251
1112.3203125	2	health	foodImageDisplay	3	131	11	foodImage.119	FOODEEG_Images\0927.jpg	YN	Right	No	0.966124900034629	0	569509	252
1114.384765625	0.966124900034629	health	choicePhaseStart	3	131	11	foodImage.119	FOODEEG_Images\0927.jpg	YN	Right	No	0.966124900034629	0	570566	253
1115.33984375	0	health	response	3	131	11	foodImage.119	FOODEEG_Images\0927.jpg	YN	Right	No	0.966124900034629	0	571055	235
1116.384765625	1	taste	trialStart	3	132	12	foodImage.92	FOODEEG_Images\0900.jpg	NY	Left	No	1.1203375000041	0	571590	251
1117.421875	2	taste	foodImageDisplay	3	132	12	foodImage.92	FOODEEG_Images\0900.jpg	NY	Left	No	1.1203375000041	0	572121	252
1119.484375	1.1203375000041	taste	choicePhaseStart	3	132	12	foodImage.92	FOODEEG_Images\0900.jpg	NY	Left	No	1.1203375000041	0	573177	253
1120.595703125	0	taste	response	3	132	12	foodImage.92	FOODEEG_Images\0900.jpg	NY	Left	No	1.1203375000041	0	573746	234
1121.640625	1	taste	trialStart	3	133	13	foodImage.58	FOODEEG_Images\0605.jpg	NY	Right	Yes	0.83760689990595	0	574281	251
1122.697265625	2	taste	foodImageDisplay	3	133	13	foodImage.58	FOODEEG_Images\0605.jpg	NY	Right	Yes	0.83760689990595	0	574822	252
1124.759765625	0.83760689990595	taste	choicePhaseStart	3	133	13	foodImage.58	FOODEEG_Images\0605.jpg	NY	Right	Yes	0.83760689990595	0	575878	253
1125.587890625	0	taste	response	3	133	13	foodImage.58	FOODEEG_Images\0605.jpg	NY	Right	Yes	0.83760689990595	0	576302	235
1126.630859375	1	health	trialStart	3	134	14	foodImage.29	FOODEEG_Images\0278.jpg	YN	Left	Yes	1.47605439997278	0	576836	251
1127.671875	2	health	foodImageDisplay	3	134	14	foodImage.29	FOODEEG_Images\0278.jpg	YN	Left	Yes	1.47605439997278	0	577369	252
1129.736328125	1.47605439997278	health	choicePhaseStart	3	134	14	foodImage.29	FOODEEG_Images\0278.jpg	YN	Left	Yes	1.47605439997278	0	578426	253
1131.205078125	0	health	response	3	134	14	foodImage.29	FOODEEG_Images\0278.jpg	YN	Left	Yes	1.47605439997278	0	579178	234
1132.24609375	1	taste	trialStart	3	135	15	foodImage.6	FOODEEG_Images\0113.jpg	NY	Right	Yes	2.348036600044	0	579711	251
1133.2890625	2	taste	foodImageDisplay	3	135	15	foodImage.6	FOODEEG_Images\0113.jpg	NY	Right	Yes	2.348036600044	0	580245	252
1135.3515625	2.348036600044	taste	choicePhaseStart	3	135	15	foodImage.6	FOODEEG_Images\0113.jpg	NY	Right	Yes	2.348036600044	0	581301	253
1137.69140625	0	taste	response	3	135	15	foodImage.6	FOODEEG_Images\0113.jpg	NY	Right	Yes	2.348036600044	0	582499	235
1138.734375	1	taste	trialStart	3	136	16	foodImage.13	FOODEEG_Images\0183.jpg	NY	Right	Yes	0.951105099986307	0	583033	251
1139.775390625	2	taste	foodImageDisplay	3	136	16	foodImage.13	FOODEEG_Images\0183.jpg	NY	Right	Yes	0.951105099986307	0	583566	252
1141.837890625	0.951105099986307	taste	choicePhaseStart	3	136	16	foodImage.13	FOODEEG_Images\0183.jpg	NY	Right	Yes	0.951105099986307	0	584622	253
1142.779296875	0	taste	response	3	136	16	foodImage.13	FOODEEG_Images\0183.jpg	NY	Right	Yes	0.951105099986307	0	585104	235
1143.828125	1	health	trialStart	3	137	17	foodImage.84	FOODEEG_Images\0830.jpg	NY	Right	Yes	1.03939279995393	0	585641	251
1144.88671875	2	health	foodImageDisplay	3	137	17	foodImage.84	FOODEEG_Images\0830.jpg	NY	Right	Yes	1.03939279995393	0	586183	252
1146.947265625	1.03939279995393	health	choicePhaseStart	3	137	17	foodImage.84	FOODEEG_Images\0830.jpg	NY	Right	Yes	1.03939279995393	0	587238	253
1147.978515625	0	health	response	3	137	17	foodImage.84	FOODEEG_Images\0830.jpg	NY	Right	Yes	1.03939279995393	0	587766	235
1149.0234375	1	taste	trialStart	3	138	18	foodImage.116	FOODEEG_Images\0924.jpg	NY	Left	No	1.35265260003507	0	588301	251
1150.060546875	2	taste	foodImageDisplay	3	138	18	foodImage.116	FOODEEG_Images\0924.jpg	NY	Left	No	1.35265260003507	0	588832	252
1152.123046875	1.35265260003507	taste	choicePhaseStart	3	138	18	foodImage.116	FOODEEG_Images\0924.jpg	NY	Left	No	1.35265260003507	0	589888	253
1153.466796875	0	taste	response	3	138	18	foodImage.116	FOODEEG_Images\0924.jpg	NY	Left	No	1.35265260003507	0	590576	234
1154.509765625	1	taste	trialStart	3	139	19	foodImage.5	FOODEEG_Images\0107.jpg	YN	Left	Yes	2.31855970004108	0	591110	251
1155.57421875	2	taste	foodImageDisplay	3	139	19	foodImage.5	FOODEEG_Images\0107.jpg	YN	Left	Yes	2.31855970004108	0	591655	252
1157.63671875	2.31855970004108	taste	choicePhaseStart	3	139	19	foodImage.5	FOODEEG_Images\0107.jpg	YN	Left	Yes	2.31855970004108	0	592711	253
1159.947265625	0	taste	response	3	139	19	foodImage.5	FOODEEG_Images\0107.jpg	YN	Left	Yes	2.31855970004108	0	593894	234
1160.990234375	1	health	trialStart	3	140	20	foodImage.91	FOODEEG_Images\0896.jpg	YN	Left	Yes	1.02066239994019	0	594428	251
1162.046875	2	health	foodImageDisplay	3	140	20	foodImage.91	FOODEEG_Images\0896.jpg	YN	Left	Yes	1.02066239994019	0	594969	252
1164.109375	1.02066239994019	health	choicePhaseStart	3	140	20	foodImage.91	FOODEEG_Images\0896.jpg	YN	Left	Yes	1.02066239994019	0	596025	253
1165.123046875	0	health	response	3	140	20	foodImage.91	FOODEEG_Images\0896.jpg	YN	Left	Yes	1.02066239994019	0	596544	234
1166.166015625	1	health	trialStart	3	141	21	foodImage.56	FOODEEG_Images\0586.jpg	NY	Right	Yes	1.90498810005374	0	597078	251
1167.228515625	2	health	foodImageDisplay	3	141	21	foodImage.56	FOODEEG_Images\0586.jpg	NY	Right	Yes	1.90498810005374	0	597622	252
1169.291015625	1.90498810005374	health	choicePhaseStart	3	141	21	foodImage.56	FOODEEG_Images\0586.jpg	NY	Right	Yes	1.90498810005374	0	598678	253
1171.1875	0	health	response	3	141	21	foodImage.56	FOODEEG_Images\0586.jpg	NY	Right	Yes	1.90498810005374	0	599649	235
1172.23046875	1	decision	trialStart	3	142	22	foodImage.94	FOODEEG_Images\0902.jpg	NY	Left	No	1.02689660002943	0	600183	251
1173.2734375	2	decision	foodImageDisplay	3	142	22	foodImage.94	FOODEEG_Images\0902.jpg	NY	Left	No	1.02689660002943	0	600717	252
1175.3359375	1.02689660002943	decision	choicePhaseStart	3	142	22	foodImage.94	FOODEEG_Images\0902.jpg	NY	Left	No	1.02689660002943	0	601773	253
1176.353515625	0	decision	response	3	142	22	foodImage.94	FOODEEG_Images\0902.jpg	NY	Left	No	1.02689660002943	0	602294	234
1177.396484375	1	health	trialStart	3	143	23	foodImage.50	FOODEEG_Images\0529.jpg	YN	Left	Yes	1.24082199996337	0	602828	251
1178.4609375	2	health	foodImageDisplay	3	143	23	foodImage.50	FOODEEG_Images\0529.jpg	YN	Left	Yes	1.24082199996337	0	603373	252
1180.5234375	1.24082199996337	health	choicePhaseStart	3	143	23	foodImage.50	FOODEEG_Images\0529.jpg	YN	Left	Yes	1.24082199996337	0	604429	253
1181.75390625	0	health	response	3	143	23	foodImage.50	FOODEEG_Images\0529.jpg	YN	Left	Yes	1.24082199996337	0	605059	234
1182.798828125	1	decision	trialStart	3	144	24	foodImage.83	FOODEEG_Images\0827.jpg	NY	Right	Yes	0.965158100007102	0	605594	251
1183.85546875	2	decision	foodImageDisplay	3	144	24	foodImage.83	FOODEEG_Images\0827.jpg	NY	Right	Yes	0.965158100007102	0	606135	252
1185.916015625	0.965158100007102	decision	choicePhaseStart	3	144	24	foodImage.83	FOODEEG_Images\0827.jpg	NY	Right	Yes	0.965158100007102	0	607190	253
1186.873046875	0	decision	response	3	144	24	foodImage.83	FOODEEG_Images\0827.jpg	NY	Right	Yes	0.965158100007102	0	607680	235
1187.916015625	1	health	trialStart	3	145	25	foodImage.13	FOODEEG_Images\0183.jpg	YN	Left	Yes	1.83244429994375	0	608214	251
1188.958984375	2	health	foodImageDisplay	3	145	25	foodImage.13	FOODEEG_Images\0183.jpg	YN	Left	Yes	1.83244429994375	0	608748	252
1191.025390625	1.83244429994375	health	choicePhaseStart	3	145	25	foodImage.13	FOODEEG_Images\0183.jpg	YN	Left	Yes	1.83244429994375	0	609806	253
1192.849609375	0	health	response	3	145	25	foodImage.13	FOODEEG_Images\0183.jpg	YN	Left	Yes	1.83244429994375	0	610740	234
1193.89453125	1	taste	trialStart	3	146	26	foodImage.111	FOODEEG_Images\0919.jpg	YN	Right	No	1.19363919994794	0	611275	251
1194.931640625	2	taste	foodImageDisplay	3	146	26	foodImage.111	FOODEEG_Images\0919.jpg	YN	Right	No	1.19363919994794	0	611806	252
1196.9921875	1.19363919994794	taste	choicePhaseStart	3	146	26	foodImage.111	FOODEEG_Images\0919.jpg	YN	Right	No	1.19363919994794	0	612861	253
1198.177734375	0	taste	response	3	146	26	foodImage.111	FOODEEG_Images\0919.jpg	YN	Right	No	1.19363919994794	0	613468	235
1199.220703125	1	decision	trialStart	3	147	27	foodImage.40	FOODEEG_Images\0373.jpg	NY	Right	Yes	1.47699310001917	0	614002	251
1200.26171875	2	decision	foodImageDisplay	3	147	27	foodImage.40	FOODEEG_Images\0373.jpg	NY	Right	Yes	1.47699310001917	0	614535	252
1202.326171875	1.47699310001917	decision	choicePhaseStart	3	147	27	foodImage.40	FOODEEG_Images\0373.jpg	NY	Right	Yes	1.47699310001917	0	615592	253
1203.79296875	0	decision	response	3	147	27	foodImage.40	FOODEEG_Images\0373.jpg	NY	Right	Yes	1.47699310001917	0	616343	235
1204.837890625	1	health	trialStart	3	148	28	foodImage.34	FOODEEG_Images\0339.jpg	NY	Left	No	1.21288420003839	0	616878	251
1205.89453125	2	health	foodImageDisplay	3	148	28	foodImage.34	FOODEEG_Images\0339.jpg	NY	Left	No	1.21288420003839	0	617419	252
1207.95703125	1.21288420003839	health	choicePhaseStart	3	148	28	foodImage.34	FOODEEG_Images\0339.jpg	NY	Left	No	1.21288420003839	0	618475	253
1209.162109375	0	health	response	3	148	28	foodImage.34	FOODEEG_Images\0339.jpg	NY	Left	No	1.21288420003839	0	619092	234
1210.205078125	1	health	trialStart	3	149	29	foodImage.99	FOODEEG_Images\0907.jpg	NY	Left	No	0.866354099940509	0	619626	251
1211.2421875	2	health	foodImageDisplay	3	149	29	foodImage.99	FOODEEG_Images\0907.jpg	NY	Left	No	0.866354099940509	0	620157	252
1213.3046875	0.866354099940509	health	choicePhaseStart	3	149	29	foodImage.99	FOODEEG_Images\0907.jpg	NY	Left	No	0.866354099940509	0	621213	253
1214.16015625	0	health	response	3	149	29	foodImage.99	FOODEEG_Images\0907.jpg	NY	Left	No	0.866354099940509	0	621651	234
1215.205078125	1	health	trialStart	3	150	30	foodImage.81	FOODEEG_Images\0797.jpg	YN	Left	Yes	1.0035918999929	0	622186	251
1216.263671875	2	health	foodImageDisplay	3	150	30	foodImage.81	FOODEEG_Images\0797.jpg	YN	Left	Yes	1.0035918999929	0	622728	252
1218.32421875	1.0035918999929	health	choicePhaseStart	3	150	30	foodImage.81	FOODEEG_Images\0797.jpg	YN	Left	Yes	1.0035918999929	0	623783	253
1219.3203125	0	health	response	3	150	30	foodImage.81	FOODEEG_Images\0797.jpg	YN	Left	Yes	1.0035918999929	0	624293	234
1220.369140625	1	health	trialStart	3	151	31	foodImage.106	FOODEEG_Images\0914.jpg	NY	Left	No	1.75114080007188	0	624830	251
1221.412109375	2	health	foodImageDisplay	3	151	31	foodImage.106	FOODEEG_Images\0914.jpg	NY	Left	No	1.75114080007188	0	625364	252
1223.474609375	1.75114080007188	health	choicePhaseStart	3	151	31	foodImage.106	FOODEEG_Images\0914.jpg	NY	Left	No	1.75114080007188	0	626420	253
1225.216796875	0	health	response	3	151	31	foodImage.106	FOODEEG_Images\0914.jpg	NY	Left	No	1.75114080007188	0	627312	234
1226.259765625	1	health	trialStart	3	152	32	foodImage.55	FOODEEG_Images\0567.jpg	YN	Left	Yes	0.913364399923012	0	627846	251
1227.3203125	2	health	foodImageDisplay	3	152	32	foodImage.55	FOODEEG_Images\0567.jpg	YN	Left	Yes	0.913364399923012	0	628389	252
1229.3828125	0.913364399923012	health	choicePhaseStart	3	152	32	foodImage.55	FOODEEG_Images\0567.jpg	YN	Left	Yes	0.913364399923012	0	629445	253
1230.2890625	0	health	response	3	152	32	foodImage.55	FOODEEG_Images\0567.jpg	YN	Left	Yes	0.913364399923012	0	629909	234
1231.337890625	1	decision	trialStart	3	153	33	foodImage.15	FOODEEG_Images\0189.jpg	NY	Left	No	1.67841729999054	0	630446	251
1232.396484375	2	decision	foodImageDisplay	3	153	33	foodImage.15	FOODEEG_Images\0189.jpg	NY	Left	No	1.67841729999054	0	630988	252
1234.45703125	1.67841729999054	decision	choicePhaseStart	3	153	33	foodImage.15	FOODEEG_Images\0189.jpg	NY	Left	No	1.67841729999054	0	632043	253
1236.12890625	0	decision	response	3	153	33	foodImage.15	FOODEEG_Images\0189.jpg	NY	Left	No	1.67841729999054	0	632899	234
1237.169921875	1	health	trialStart	3	154	34	foodImage.60	FOODEEG_Images\0614.jpg	YN	Left	Yes	1.18362699996214	0	633432	251
1238.244140625	2	health	foodImageDisplay	3	154	34	foodImage.60	FOODEEG_Images\0614.jpg	YN	Left	Yes	1.18362699996214	0	633982	252
1240.306640625	1.18362699996214	health	choicePhaseStart	3	154	34	foodImage.60	FOODEEG_Images\0614.jpg	YN	Left	Yes	1.18362699996214	0	635038	253
1241.48046875	0	health	response	3	154	34	foodImage.60	FOODEEG_Images\0614.jpg	YN	Left	Yes	1.18362699996214	0	635639	234
1242.5234375	1	health	trialStart	3	155	35	foodImage.102	FOODEEG_Images\0910.jpg	NY	Left	No	3.2787863999838	0	636173	251
1243.5625	2	health	foodImageDisplay	3	155	35	foodImage.102	FOODEEG_Images\0910.jpg	NY	Left	No	3.2787863999838	0	636705	252
1245.625	3.2787863999838	health	choicePhaseStart	3	155	35	foodImage.102	FOODEEG_Images\0910.jpg	NY	Left	No	3.2787863999838	0	637761	253
1248.896484375	0	health	response	3	155	35	foodImage.102	FOODEEG_Images\0910.jpg	NY	Left	No	3.2787863999838	0	639436	234
1249.939453125	1	taste	trialStart	3	156	36	foodImage.70	FOODEEG_Images\0705.jpg	YN	Left	Yes	1.53883940004744	0	639970	251
1250.998046875	2	taste	foodImageDisplay	3	156	36	foodImage.70	FOODEEG_Images\0705.jpg	YN	Left	Yes	1.53883940004744	0	640512	252
1253.060546875	1.53883940004744	taste	choicePhaseStart	3	156	36	foodImage.70	FOODEEG_Images\0705.jpg	YN	Left	Yes	1.53883940004744	0	641568	253
1254.591796875	0	taste	response	3	156	36	foodImage.70	FOODEEG_Images\0705.jpg	YN	Left	Yes	1.53883940004744	0	642352	234
1255.634765625	1	decision	trialStart	3	157	37	foodImage.52	FOODEEG_Images\0539.jpg	NY	Left	No	1.70995639998	0	642886	251
1256.69140625	2	decision	foodImageDisplay	3	157	37	foodImage.52	FOODEEG_Images\0539.jpg	NY	Left	No	1.70995639998	0	643427	252
1258.75390625	1.70995639998	decision	choicePhaseStart	3	157	37	foodImage.52	FOODEEG_Images\0539.jpg	NY	Left	No	1.70995639998	0	644483	253
1260.455078125	0	decision	response	3	157	37	foodImage.52	FOODEEG_Images\0539.jpg	NY	Left	No	1.70995639998	0	645354	234
1261.49609375	1	taste	trialStart	3	158	38	foodImage.31	FOODEEG_Images\0294.jpg	NY	Right	Yes	1.05569579999428	0	645887	251
1262.537109375	2	taste	foodImageDisplay	3	158	38	foodImage.31	FOODEEG_Images\0294.jpg	NY	Right	Yes	1.05569579999428	0	646420	252
1264.599609375	1.05569579999428	taste	choicePhaseStart	3	158	38	foodImage.31	FOODEEG_Images\0294.jpg	NY	Right	Yes	1.05569579999428	0	647476	253
1265.646484375	0	taste	response	3	158	38	foodImage.31	FOODEEG_Images\0294.jpg	NY	Right	Yes	1.05569579999428	0	648012	235
1266.69140625	1	health	trialStart	3	159	39	foodImage.27	FOODEEG_Images\0263.jpg	NY	Right	Yes	1.21778140007518	0	648547	251
1267.736328125	2	health	foodImageDisplay	3	159	39	foodImage.27	FOODEEG_Images\0263.jpg	NY	Right	Yes	1.21778140007518	0	649082	252
1269.798828125	1.21778140007518	health	choicePhaseStart	3	159	39	foodImage.27	FOODEEG_Images\0263.jpg	NY	Right	Yes	1.21778140007518	0	650138	253
1271.005859375	0	health	response	3	159	39	foodImage.27	FOODEEG_Images\0263.jpg	NY	Right	Yes	1.21778140007518	0	650756	235
1272.048828125	1	decision	trialStart	3	160	40	foodImage.96	FOODEEG_Images\0904.jpg	NY	Left	No	3.02573849994224	0	651290	251
1273.087890625	2	decision	foodImageDisplay	3	160	40	foodImage.96	FOODEEG_Images\0904.jpg	NY	Left	No	3.02573849994224	0	651822	252
1275.150390625	3.02573849994224	decision	choicePhaseStart	3	160	40	foodImage.96	FOODEEG_Images\0904.jpg	NY	Left	No	3.02573849994224	0	652878	253
1278.166015625	0	decision	response	3	160	40	foodImage.96	FOODEEG_Images\0904.jpg	NY	Left	No	3.02573849994224	0	654422	234
1279.2109375	1	health	trialStart	3	161	41	foodImage.77	FOODEEG_Images\0771.jpg	YN	Left	Yes	0.88057130004745	0	654957	251
1280.25390625	2	health	foodImageDisplay	3	161	41	foodImage.77	FOODEEG_Images\0771.jpg	YN	Left	Yes	0.88057130004745	0	655491	252
1282.318359375	0.88057130004745	health	choicePhaseStart	3	161	41	foodImage.77	FOODEEG_Images\0771.jpg	YN	Left	Yes	0.88057130004745	0	656548	253
1283.189453125	0	health	response	3	161	41	foodImage.77	FOODEEG_Images\0771.jpg	YN	Left	Yes	0.88057130004745	0	656994	234
1284.234375	1	decision	trialStart	3	162	42	foodImage.102	FOODEEG_Images\0910.jpg	YN	Right	No	1.08002290001605	0	657529	251
1285.271484375	2	decision	foodImageDisplay	3	162	42	foodImage.102	FOODEEG_Images\0910.jpg	YN	Right	No	1.08002290001605	0	658060	252
1287.3359375	1.08002290001605	decision	choicePhaseStart	3	162	42	foodImage.102	FOODEEG_Images\0910.jpg	YN	Right	No	1.08002290001605	0	659117	253
1288.40625	0	decision	response	3	162	42	foodImage.102	FOODEEG_Images\0910.jpg	YN	Right	No	1.08002290001605	0	659665	235
1289.451171875	1	decision	trialStart	3	163	43	foodImage.19	FOODEEG_Images\0225.jpg	NY	Right	Yes	1.85743520001415	0	660200	251
1290.494140625	2	decision	foodImageDisplay	3	163	43	foodImage.19	FOODEEG_Images\0225.jpg	NY	Right	Yes	1.85743520001415	0	660734	252
1292.556640625	1.85743520001415	decision	choicePhaseStart	3	163	43	foodImage.19	FOODEEG_Images\0225.jpg	NY	Right	Yes	1.85743520001415	0	661790	253
1294.40625	0	decision	response	3	163	43	foodImage.19	FOODEEG_Images\0225.jpg	NY	Right	Yes	1.85743520001415	0	662737	235
1295.44921875	1	taste	trialStart	3	164	44	foodImage.75	FOODEEG_Images\0763.jpg	YN	Left	Yes	1.09493360004853	0	663271	251
1296.494140625	2	taste	foodImageDisplay	3	164	44	foodImage.75	FOODEEG_Images\0763.jpg	YN	Left	Yes	1.09493360004853	0	663806	252
1298.55859375	1.09493360004853	taste	choicePhaseStart	3	164	44	foodImage.75	FOODEEG_Images\0763.jpg	YN	Left	Yes	1.09493360004853	0	664863	253
1299.64453125	0	taste	response	3	164	44	foodImage.75	FOODEEG_Images\0763.jpg	YN	Left	Yes	1.09493360004853	0	665419	234
1300.689453125	1	health	trialStart	3	165	45	foodImage.107	FOODEEG_Images\0915.jpg	NY	Left	No	1.28117049997672	0	665954	251
1301.7265625	2	health	foodImageDisplay	3	165	45	foodImage.107	FOODEEG_Images\0915.jpg	NY	Left	No	1.28117049997672	0	666485	252
1303.7890625	1.28117049997672	health	choicePhaseStart	3	165	45	foodImage.107	FOODEEG_Images\0915.jpg	NY	Left	No	1.28117049997672	0	667541	253
1305.060546875	0	health	response	3	165	45	foodImage.107	FOODEEG_Images\0915.jpg	NY	Left	No	1.28117049997672	0	668192	234
1306.109375	1	taste	trialStart	3	166	46	foodImage.77	FOODEEG_Images\0771.jpg	YN	Left	Yes	1.4587646999862	0	668729	251
1307.154296875	2	taste	foodImageDisplay	3	166	46	foodImage.77	FOODEEG_Images\0771.jpg	YN	Left	Yes	1.4587646999862	0	669264	252
1309.21875	1.4587646999862	taste	choicePhaseStart	3	166	46	foodImage.77	FOODEEG_Images\0771.jpg	YN	Left	Yes	1.4587646999862	0	670321	253
1310.669921875	0	taste	response	3	166	46	foodImage.77	FOODEEG_Images\0771.jpg	YN	Left	Yes	1.4587646999862	0	671064	234
1311.712890625	1	health	trialStart	3	167	47	foodImage.35	FOODEEG_Images\0350.jpg	NY	Right	Yes	2.07980030006729	0	671598	251
1312.75	2	health	foodImageDisplay	3	167	47	foodImage.35	FOODEEG_Images\0350.jpg	NY	Right	Yes	2.07980030006729	0	672129	252
1314.8125	2.07980030006729	health	choicePhaseStart	3	167	47	foodImage.35	FOODEEG_Images\0350.jpg	NY	Right	Yes	2.07980030006729	0	673185	253
1316.884765625	0	health	response	3	167	47	foodImage.35	FOODEEG_Images\0350.jpg	NY	Right	Yes	2.07980030006729	0	674246	235
1317.927734375	1	decision	trialStart	3	168	48	foodImage.22	FOODEEG_Images\0236.jpg	YN	Left	Yes	0.869447299977764	0	674780	251
1318.970703125	2	decision	foodImageDisplay	3	168	48	foodImage.22	FOODEEG_Images\0236.jpg	YN	Left	Yes	0.869447299977764	0	675314	252
1321.033203125	0.869447299977764	decision	choicePhaseStart	3	168	48	foodImage.22	FOODEEG_Images\0236.jpg	YN	Left	Yes	0.869447299977764	0	676370	253
1321.892578125	0	decision	response	3	168	48	foodImage.22	FOODEEG_Images\0236.jpg	YN	Left	Yes	0.869447299977764	0	676810	234
1322.935546875	1	health	trialStart	3	169	49	foodImage.41	FOODEEG_Images\0409.jpg	NY	Right	Yes	0.848051400040276	0	677344	251
1323.9921875	2	health	foodImageDisplay	3	169	49	foodImage.41	FOODEEG_Images\0409.jpg	NY	Right	Yes	0.848051400040276	0	677885	252
1326.0546875	0.848051400040276	health	choicePhaseStart	3	169	49	foodImage.41	FOODEEG_Images\0409.jpg	NY	Right	Yes	0.848051400040276	0	678941	253
1326.892578125	0	health	response	3	169	49	foodImage.41	FOODEEG_Images\0409.jpg	NY	Right	Yes	0.848051400040276	0	679370	235
1327.935546875	1	decision	trialStart	3	170	50	foodImage.77	FOODEEG_Images\0771.jpg	YN	Left	Yes	0.762632500031032	0	679904	251
1328.98828125	2	decision	foodImageDisplay	3	170	50	foodImage.77	FOODEEG_Images\0771.jpg	YN	Left	Yes	0.762632500031032	0	680443	252
1331.05078125	0.762632500031032	decision	choicePhaseStart	3	170	50	foodImage.77	FOODEEG_Images\0771.jpg	YN	Left	Yes	0.762632500031032	0	681499	253
1331.8046875	0	decision	response	3	170	50	foodImage.77	FOODEEG_Images\0771.jpg	YN	Left	Yes	0.762632500031032	0	681885	234
1332.84765625	1	decision	trialStart	3	171	51	foodImage.75	FOODEEG_Images\0763.jpg	YN	Left	Yes	0.84247829997912	0	682419	251
1333.892578125	2	decision	foodImageDisplay	3	171	51	foodImage.75	FOODEEG_Images\0763.jpg	YN	Left	Yes	0.84247829997912	0	682954	252
1335.955078125	0.84247829997912	decision	choicePhaseStart	3	171	51	foodImage.75	FOODEEG_Images\0763.jpg	YN	Left	Yes	0.84247829997912	0	684010	253
1336.7890625	0	decision	response	3	171	51	foodImage.75	FOODEEG_Images\0763.jpg	YN	Left	Yes	0.84247829997912	0	684437	234
1337.830078125	1	health	trialStart	3	172	52	foodImage.83	FOODEEG_Images\0827.jpg	NY	Right	Yes	0.820090300054289	0	684970	251
1338.890625	2	health	foodImageDisplay	3	172	52	foodImage.83	FOODEEG_Images\0827.jpg	NY	Right	Yes	0.820090300054289	0	685513	252
1340.953125	0.820090300054289	health	choicePhaseStart	3	172	52	foodImage.83	FOODEEG_Images\0827.jpg	NY	Right	Yes	0.820090300054289	0	686569	253
1341.763671875	0	health	response	3	172	52	foodImage.83	FOODEEG_Images\0827.jpg	NY	Right	Yes	0.820090300054289	0	686984	235
1342.806640625	1	health	trialStart	3	173	53	foodImage.58	FOODEEG_Images\0605.jpg	NY	Right	Yes	1.15623790002428	0	687518	251
1343.865234375	2	health	foodImageDisplay	3	173	53	foodImage.58	FOODEEG_Images\0605.jpg	NY	Right	Yes	1.15623790002428	0	688060	252
1345.927734375	1.15623790002428	health	choicePhaseStart	3	173	53	foodImage.58	FOODEEG_Images\0605.jpg	NY	Right	Yes	1.15623790002428	0	689116	253
1347.076171875	0	health	response	3	173	53	foodImage.58	FOODEEG_Images\0605.jpg	NY	Right	Yes	1.15623790002428	0	689704	235
1348.1171875	1	decision	trialStart	3	174	54	foodImage.42	FOODEEG_Images\0438.jpg	NY	Right	Yes	1.14564530004282	0	690237	251
1349.203125	2	decision	foodImageDisplay	3	174	54	foodImage.42	FOODEEG_Images\0438.jpg	NY	Right	Yes	1.14564530004282	0	690793	252
1351.267578125	1.14564530004282	decision	choicePhaseStart	3	174	54	foodImage.42	FOODEEG_Images\0438.jpg	NY	Right	Yes	1.14564530004282	0	691850	253
1352.40234375	0	decision	response	3	174	54	foodImage.42	FOODEEG_Images\0438.jpg	NY	Right	Yes	1.14564530004282	0	692431	235
1353.447265625	1	health	trialStart	3	175	55	foodImage.31	FOODEEG_Images\0294.jpg	YN	Right	No	2.23235359997489	0	692966	251
1354.494140625	2	health	foodImageDisplay	3	175	55	foodImage.31	FOODEEG_Images\0294.jpg	YN	Right	No	2.23235359997489	0	693502	252
1356.5546875	2.23235359997489	health	choicePhaseStart	3	175	55	foodImage.31	FOODEEG_Images\0294.jpg	YN	Right	No	2.23235359997489	0	694557	253
1358.779296875	0	health	response	3	175	55	foodImage.31	FOODEEG_Images\0294.jpg	YN	Right	No	2.23235359997489	0	695696	235
1359.822265625	1	health	trialStart	3	176	56	foodImage.53	FOODEEG_Images\0547.jpg	YN	Right	No	0.790814099949785	0	696230	251
1360.87890625	2	health	foodImageDisplay	3	176	56	foodImage.53	FOODEEG_Images\0547.jpg	YN	Right	No	0.790814099949785	0	696771	252
1362.94140625	0.790814099949785	health	choicePhaseStart	3	176	56	foodImage.53	FOODEEG_Images\0547.jpg	YN	Right	No	0.790814099949785	0	697827	253
1363.72265625	0	health	response	3	176	56	foodImage.53	FOODEEG_Images\0547.jpg	YN	Right	No	0.790814099949785	0	698227	235
1364.765625	1	taste	trialStart	3	177	57	foodImage.84	FOODEEG_Images\0830.jpg	NY	Right	Yes	1.14452969992999	0	698761	251
1365.826171875	2	taste	foodImageDisplay	3	177	57	foodImage.84	FOODEEG_Images\0830.jpg	NY	Right	Yes	1.14452969992999	0	699304	252
1367.890625	1.14452969992999	taste	choicePhaseStart	3	177	57	foodImage.84	FOODEEG_Images\0830.jpg	NY	Right	Yes	1.14452969992999	0	700361	253
1369.02734375	0	taste	response	3	177	57	foodImage.84	FOODEEG_Images\0830.jpg	NY	Right	Yes	1.14452969992999	0	700943	235
1370.0703125	1	decision	trialStart	3	178	58	foodImage.11	FOODEEG_Images\0180.jpg	YN	Left	Yes	2.67798909998965	0	701477	251
1371.111328125	2	decision	foodImageDisplay	3	178	58	foodImage.11	FOODEEG_Images\0180.jpg	YN	Left	Yes	2.67798909998965	0	702010	252
1373.173828125	2.67798909998965	decision	choicePhaseStart	3	178	58	foodImage.11	FOODEEG_Images\0180.jpg	YN	Left	Yes	2.67798909998965	0	703066	253
1375.841796875	0	decision	response	3	178	58	foodImage.11	FOODEEG_Images\0180.jpg	YN	Left	Yes	2.67798909998965	0	704432	234
1376.88671875	1	decision	trialStart	3	179	59	foodImage.64	FOODEEG_Images\0647.jpg	NY	Left	No	0.785550500033423	0	704967	251
1377.9453125	2	decision	foodImageDisplay	3	179	59	foodImage.64	FOODEEG_Images\0647.jpg	NY	Left	No	0.785550500033423	0	705509	252
1380.0078125	0.785550500033423	decision	choicePhaseStart	3	179	59	foodImage.64	FOODEEG_Images\0647.jpg	NY	Left	No	0.785550500033423	0	706565	253
1380.787109375	0	decision	response	3	179	59	foodImage.64	FOODEEG_Images\0647.jpg	NY	Left	No	0.785550500033423	0	706964	234
1381.828125	1	decision	trialStart	3	180	60	foodImage.112	FOODEEG_Images\0920.jpg	YN	Right	No	0.867443799972534	0	707497	251
1382.873046875	2	decision	foodImageDisplay	3	180	60	foodImage.112	FOODEEG_Images\0920.jpg	YN	Right	No	0.867443799972534	0	708032	252
1384.935546875	0.867443799972534	decision	choicePhaseStart	3	180	60	foodImage.112	FOODEEG_Images\0920.jpg	YN	Right	No	0.867443799972534	0	709088	253
1385.794921875	0	decision	response	3	180	60	foodImage.112	FOODEEG_Images\0920.jpg	YN	Right	No	0.867443799972534	0	709528	235
1387.8359375	50.11328125	n/a	blockEnd	n/a	n/a	n/a	n/a	n/a	n/a	n/a	n/a	n/a	n/a	710573	254
1437.94921875	2	n/a	blockStart	4	n/a	n/a	n/a	n/a	n/a	n/a	n/a	n/a	n/a	736231	250
1439.98828125	1	health	trialStart	4	181	1	foodImage.3	FOODEEG_Images\0046.jpg	NY	Left	No	1.08213080000132	0	737275	251
1441.033203125	2	health	foodImageDisplay	4	181	1	foodImage.3	FOODEEG_Images\0046.jpg	NY	Left	No	1.08213080000132	0	737810	252
1443.095703125	1.08213080000132	health	choicePhaseStart	4	181	1	foodImage.3	FOODEEG_Images\0046.jpg	NY	Left	No	1.08213080000132	0	738866	253
1444.16796875	0	health	response	4	181	1	foodImage.3	FOODEEG_Images\0046.jpg	NY	Left	No	1.08213080000132	0	739415	234
1445.2109375	1	decision	trialStart	4	182	2	foodImage.120	FOODEEG_Images\0928.jpg	NY	Left	No	0.995352199999616	0	739949	251
1446.248046875	2	decision	foodImageDisplay	4	182	2	foodImage.120	FOODEEG_Images\0928.jpg	NY	Left	No	0.995352199999616	0	740480	252
1448.310546875	0.995352199999616	decision	choicePhaseStart	4	182	2	foodImage.120	FOODEEG_Images\0928.jpg	NY	Left	No	0.995352199999616	0	741536	253
1449.296875	0	decision	response	4	182	2	foodImage.120	FOODEEG_Images\0928.jpg	NY	Left	No	0.995352199999616	0	742041	234
1450.33984375	1	taste	trialStart	4	183	3	foodImage.118	FOODEEG_Images\0926.jpg	NY	Left	No	0.877466199919581	0	742575	251
1451.380859375	2	taste	foodImageDisplay	4	183	3	foodImage.118	FOODEEG_Images\0926.jpg	NY	Left	No	0.877466199919581	0	743108	252
1453.443359375	0.877466199919581	taste	choicePhaseStart	4	183	3	foodImage.118	FOODEEG_Images\0926.jpg	NY	Left	No	0.877466199919581	0	744164	253
1454.3125	0	taste	response	4	183	3	foodImage.118	FOODEEG_Images\0926.jpg	NY	Left	No	0.877466199919581	0	744609	234
1455.353515625	1	decision	trialStart	4	184	4	foodImage.72	FOODEEG_Images\0714.jpg	YN	Left	Yes	0.89207569998689	0	745142	251
1456.396484375	2	decision	foodImageDisplay	4	184	4	foodImage.72	FOODEEG_Images\0714.jpg	YN	Left	Yes	0.89207569998689	0	745676	252
1458.4609375	0.89207569998689	decision	choicePhaseStart	4	184	4	foodImage.72	FOODEEG_Images\0714.jpg	YN	Left	Yes	0.89207569998689	0	746733	253
1459.34375	0	decision	response	4	184	4	foodImage.72	FOODEEG_Images\0714.jpg	YN	Left	Yes	0.89207569998689	0	747185	234
1460.38671875	1	taste	trialStart	4	185	5	foodImage.114	FOODEEG_Images\0922.jpg	NY	Left	No	1.63675379997585	0	747719	251
1461.427734375	2	taste	foodImageDisplay	4	185	5	foodImage.114	FOODEEG_Images\0922.jpg	NY	Left	No	1.63675379997585	0	748252	252
1463.490234375	1.63675379997585	taste	choicePhaseStart	4	185	5	foodImage.114	FOODEEG_Images\0922.jpg	NY	Left	No	1.63675379997585	0	749308	253
1465.119140625	0	taste	response	4	185	5	foodImage.114	FOODEEG_Images\0922.jpg	NY	Left	No	1.63675379997585	0	750142	234
1466.162109375	1	health	trialStart	4	186	6	foodImage.63	FOODEEG_Images\0645.jpg	NY	Left	No	1.68640790006611	0	750676	251
1467.203125	2	health	foodImageDisplay	4	186	6	foodImage.63	FOODEEG_Images\0645.jpg	NY	Left	No	1.68640790006611	0	751209	252
1469.265625	1.68640790006611	health	choicePhaseStart	4	186	6	foodImage.63	FOODEEG_Images\0645.jpg	NY	Left	No	1.68640790006611	0	752265	253
1470.943359375	0	health	response	4	186	6	foodImage.63	FOODEEG_Images\0645.jpg	NY	Left	No	1.68640790006611	0	753124	234
1471.986328125	1	taste	trialStart	4	187	7	foodImage.25	FOODEEG_Images\0261.jpg	NY	Left	No	1.35683230007999	0	753658	251
1473.02734375	2	taste	foodImageDisplay	4	187	7	foodImage.25	FOODEEG_Images\0261.jpg	NY	Left	No	1.35683230007999	0	754191	252
1475.08984375	1.35683230007999	taste	choicePhaseStart	4	187	7	foodImage.25	FOODEEG_Images\0261.jpg	NY	Left	No	1.35683230007999	0	755247	253
1476.4375	0	taste	response	4	187	7	foodImage.25	FOODEEG_Images\0261.jpg	NY	Left	No	1.35683230007999	0	755937	234
1477.482421875	1	decision	trialStart	4	188	8	foodImage.70	FOODEEG_Images\0705.jpg	NY	Right	Yes	0.856916000018828	0	756472	251
1478.544921875	2	decision	foodImageDisplay	4	188	8	foodImage.70	FOODEEG_Images\0705.jpg	NY	Right	Yes	0.856916000018828	0	757016	252
1480.607421875	0.856916000018828	decision	choicePhaseStart	4	188	8	foodImage.70	FOODEEG_Images\0705.jpg	NY	Right	Yes	0.856916000018828	0	758072	253
1481.455078125	0	decision	response	4	188	8	foodImage.70	FOODEEG_Images\0705.jpg	NY	Right	Yes	0.856916000018828	0	758506	235
1482.498046875	1	health	trialStart	4	189	9	foodImage.75	FOODEEG_Images\0763.jpg	NY	Right	Yes	1.33073100005277	0	759040	251
1483.54296875	2	health	foodImageDisplay	4	189	9	foodImage.75	FOODEEG_Images\0763.jpg	NY	Right	Yes	1.33073100005277	0	759575	252
1485.60546875	1.33073100005277	health	choicePhaseStart	4	189	9	foodImage.75	FOODEEG_Images\0763.jpg	NY	Right	Yes	1.33073100005277	0	760631	253
1486.92578125	0	health	response	4	189	9	foodImage.75	FOODEEG_Images\0763.jpg	NY	Right	Yes	1.33073100005277	0	761307	235
1487.96875	1	taste	trialStart	4	190	10	foodImage.23	FOODEEG_Images\0244.jpg	NY	Right	Yes	1.11384380003437	0	761841	251
1489.029296875	2	taste	foodImageDisplay	4	190	10	foodImage.23	FOODEEG_Images\0244.jpg	NY	Right	Yes	1.11384380003437	0	762384	252
1491.091796875	1.11384380003437	taste	choicePhaseStart	4	190	10	foodImage.23	FOODEEG_Images\0244.jpg	NY	Right	Yes	1.11384380003437	0	763440	253
1492.197265625	0	taste	response	4	190	10	foodImage.23	FOODEEG_Images\0244.jpg	NY	Right	Yes	1.11384380003437	0	764006	235
1493.2421875	1	taste	trialStart	4	191	11	foodImage.115	FOODEEG_Images\0923.jpg	NY	Left	No	1.0159417000832	0	764541	251
1494.279296875	2	taste	foodImageDisplay	4	191	11	foodImage.115	FOODEEG_Images\0923.jpg	NY	Left	No	1.0159417000832	0	765072	252
1496.341796875	1.0159417000832	taste	choicePhaseStart	4	191	11	foodImage.115	FOODEEG_Images\0923.jpg	NY	Left	No	1.0159417000832	0	766128	253
1497.349609375	0	taste	response	4	191	11	foodImage.115	FOODEEG_Images\0923.jpg	NY	Left	No	1.0159417000832	0	766644	234
1498.390625	1	health	trialStart	4	192	12	foodImage.113	FOODEEG_Images\0921.jpg	NY	Right	Yes	1.80179280007724	0	767177	251
1499.4296875	2	health	foodImageDisplay	4	192	12	foodImage.113	FOODEEG_Images\0921.jpg	NY	Right	Yes	1.80179280007724	0	767709	252
1501.4921875	1.80179280007724	health	choicePhaseStart	4	192	12	foodImage.113	FOODEEG_Images\0921.jpg	NY	Right	Yes	1.80179280007724	0	768765	253
1503.28515625	0	health	response	4	192	12	foodImage.113	FOODEEG_Images\0921.jpg	NY	Right	Yes	1.80179280007724	0	769683	235
1504.326171875	1	decision	trialStart	4	193	13	foodImage.95	FOODEEG_Images\0903.jpg	YN	Right	No	1.21060540003236	0	770216	251
1505.365234375	2	decision	foodImageDisplay	4	193	13	foodImage.95	FOODEEG_Images\0903.jpg	YN	Right	No	1.21060540003236	0	770748	252
1507.427734375	1.21060540003236	decision	choicePhaseStart	4	193	13	foodImage.95	FOODEEG_Images\0903.jpg	YN	Right	No	1.21060540003236	0	771804	253
1508.62890625	0	decision	response	4	193	13	foodImage.95	FOODEEG_Images\0903.jpg	YN	Right	No	1.21060540003236	0	772419	235
1509.671875	1	decision	trialStart	4	194	14	foodImage.66	FOODEEG_Images\0676.jpg	NY	Left	No	0.99466670001857	0	772953	251
1510.732421875	2	decision	foodImageDisplay	4	194	14	foodImage.66	FOODEEG_Images\0676.jpg	NY	Left	No	0.99466670001857	0	773496	252
1512.794921875	0.99466670001857	decision	choicePhaseStart	4	194	14	foodImage.66	FOODEEG_Images\0676.jpg	NY	Left	No	0.99466670001857	0	774552	253
1513.78125	0	decision	response	4	194	14	foodImage.66	FOODEEG_Images\0676.jpg	NY	Left	No	0.99466670001857	0	775057	234
1514.82421875	1	taste	trialStart	4	195	15	foodImage.78	FOODEEG_Images\0787.jpg	NY	Right	Yes	2.1614283999661	0	775591	251
