onset	duration	trial_type	event_type	block	trial_total	trial_in_block	food_image_code	food_image_path	button_position	resp_position	resp_choice	choice_rt	resp_too_slow	sample	trigger
336.087890625	2	n/a	blockStart	1	n/a	n/a	n/a	n/a	n/a	n/a	n/a	n/a	n/a	172078	250
338.125	1	decision	trialStart	1	1	1	foodImage.114	FOODEEG_Images\0922.jpg	YN	Right	No	0.841093200000614	0	173121	251
339.171875	2	decision	foodImageDisplay	1	1	1	foodImage.114	FOODEEG_Images\0922.jpg	YN	Right	No	0.841093200000614	0	173657	252
341.236328125	0.841093200000614	decision	choicePhaseStart	1	1	1	foodImage.114	FOODEEG_Images\0922.jpg	YN	Right	No	0.841093200000614	0	174714	253
342.0703125	0	decision	response	1	1	1	foodImage.114	FOODEEG_Images\0922.jpg	YN	Right	No	0.841093200000614	0	175141	235
343.1640625	1	taste	trialStart	1	2	2	foodImage.21	FOODEEG_Images\0234.jpg	YN	Left	Yes	1.03151319999961	0	175701	251
344.220703125	2	taste	foodImageDisplay	1	2	2	foodImage.21	FOODEEG_Images\0234.jpg	YN	Left	Yes	1.03151319999961	0	176242	252
346.28515625	1.03151319999961	taste	choicePhaseStart	1	2	2	foodImage.21	FOODEEG_Images\0234.jpg	YN	Left	Yes	1.03151319999961	0	177299	253
347.30859375	0	taste	response	1	2	2	foodImage.21	FOODEEG_Images\0234.jpg	YN	Left	Yes	1.03151319999961	0	177823	234
348.365234375	1	taste	trialStart	1	3	3	foodImage.96	FOODEEG_Images\0904.jpg	YN	Right	No	1.71833390000029	0	178364	251
349.40625	2	taste	foodImageDisplay	1	3	3	foodImage.96	FOODEEG_Images\0904.jpg	YN	Right	No	1.71833390000029	0	178897	252
351.470703125	1.71833390000029	taste	choicePhaseStart	1	3	3	foodImage.96	FOODEEG_Images\0904.jpg	YN	Right	No	1.71833390000029	0	179954	253
353.1796875	0	taste	response	1	3	3	foodImage.96	FOODEEG_Images\0904.jpg	YN	Right	No	1.71833390000029	0	180829	235
354.224609375	1	decision	trialStart	1	4	4	foodImage.87	FOODEEG_Images\0873.jpg	YN	Left	Yes	0.747512400001142	0	181364	251
355.28125	2	decision	foodImageDisplay	1	4	4	foodImage.87	FOODEEG_Images\0873.jpg	YN	Left	Yes	0.747512400001142	0	181905	252
357.345703125	0.747512400001142	decision	choicePhaseStart	1	4	4	foodImage.87	FOODEEG_Images\0873.jpg	YN	Left	Yes	0.747512400001142	0	182962	253
358.083984375	0	decision	response	1	4	4	foodImage.87	FOODEEG_Images\0873.jpg	YN	Left	Yes	0.747512400001142	0	183340	234
359.126953125	1	decision	trialStart	1	5	5	foodImage.36	FOODEEG_Images\0352.jpg	NY	Right	Yes	0.935867500000313	0	183874	251
360.185546875	2	decision	foodImageDisplay	1	5	5	foodImage.36	FOODEEG_Images\0352.jpg	NY	Right	Yes	0.935867500000313	0	184416	252
362.251953125	0.935867500000313	decision	choicePhaseStart	1	5	5	foodImage.36	FOODEEG_Images\0352.jpg	NY	Right	Yes	0.935867500000313	0	185474	253
363.1796875	0	decision	response	1	5	5	foodImage.36	FOODEEG_Images\0352.jpg	NY	Right	Yes	0.935867500000313	0	185949	235
364.23046875	1	health	trialStart	1	6	6	foodImage.80	FOODEEG_Images\0796.jpg	YN	Left	Yes	0.788240400001087	0	186487	251
365.287109375	2	health	foodImageDisplay	1	6	6	foodImage.80	FOODEEG_Images\0796.jpg	YN	Left	Yes	0.788240400001087	0	187028	252
367.3515625	0.788240400001087	health	choicePhaseStart	1	6	6	foodImage.80	FOODEEG_Images\0796.jpg	YN	Left	Yes	0.788240400001087	0	188085	253
368.130859375	0	health	response	1	6	6	foodImage.80	FOODEEG_Images\0796.jpg	YN	Left	Yes	0.788240400001087	0	188484	234
369.173828125	1	health	trialStart	1	7	7	foodImage.10	FOODEEG_Images\0145.jpg	NY	Left	No	1.11445370000001	0	189018	251
370.232421875	2	health	foodImageDisplay	1	7	7	foodImage.10	FOODEEG_Images\0145.jpg	NY	Left	No	1.11445370000001	0	189560	252
372.294921875	1.11445370000001	health	choicePhaseStart	1	7	7	foodImage.10	FOODEEG_Images\0145.jpg	NY	Left	No	1.11445370000001	0	190616	253
373.404296875	0	health	response	1	7	7	foodImage.10	FOODEEG_Images\0145.jpg	NY	Left	No	1.11445370000001	0	191184	234
374.453125	1	taste	trialStart	1	8	8	foodImage.71	FOODEEG_Images\0713.jpg	NY	Right	Yes	0.76468030000251	0	191721	251
375.49609375	2	taste	foodImageDisplay	1	8	8	foodImage.71	FOODEEG_Images\0713.jpg	NY	Right	Yes	0.76468030000251	0	192255	252
377.560546875	0.76468030000251	taste	choicePhaseStart	1	8	8	foodImage.71	FOODEEG_Images\0713.jpg	NY	Right	Yes	0.76468030000251	0	193312	253
378.31640625	0	taste	response	1	8	8	foodImage.71	FOODEEG_Images\0713.jpg	NY	Right	Yes	0.76468030000251	0	193699	235
379.359375	1	health	trialStart	1	9	9	foodImage.117	FOODEEG_Images\0925.jpg	YN	Right	No	0.911944399998902	0	194233	251
380.3984375	2	health	foodImageDisplay	1	9	9	foodImage.117	FOODEEG_Images\0925.jpg	YN	Right	No	0.911944399998902	0	194765	252
382.46875	0.911944399998902	health	choicePhaseStart	1	9	9	foodImage.117	FOODEEG_Images\0925.jpg	YN	Right	No	0.911944399998902	0	195825	253
383.37109375	0	health	response	1	9	9	foodImage.117	FOODEEG_Images\0925.jpg	YN	Right	No	0.911944399998902	0	196287	235
384.41796875	1	taste	trialStart	1	10	10	foodImage.51	FOODEEG_Images\0536.jpg	NY	Left	No	0.855480300000636	0	196823	251
385.4609375	2	taste	foodImageDisplay	1	10	10	foodImage.51	FOODEEG_Images\0536.jpg	NY	Left	No	0.855480300000636	0	197357	252
387.525390625	0.855480300000636	taste	choicePhaseStart	1	10	10	foodImage.51	FOODEEG_Images\0536.jpg	NY	Left	No	0.855480300000636	0	198414	253
388.37109375	0	taste	response	1	10	10	foodImage.51	FOODEEG_Images\0536.jpg	NY	Left	No	0.855480300000636	0	198847	234
389.4140625	1	decision	trialStart	1	11	11	foodImage.105	FOODEEG_Images\0913.jpg	YN	Left	Yes	0.990751199999067	0	199381	251
390.453125	2	decision	foodImageDisplay	1	11	11	foodImage.105	FOODEEG_Images\0913.jpg	YN	Left	Yes	0.990751199999067	0	199913	252
392.517578125	0.990751199999067	decision	choicePhaseStart	1	11	11	foodImage.105	FOODEEG_Images\0913.jpg	YN	Left	Yes	0.990751199999067	0	200970	253
393.5	0	decision	response	1	11	11	foodImage.105	FOODEEG_Images\0913.jpg	YN	Left	Yes	0.990751199999067	0	201473	234
394.541015625	1	taste	trialStart	1	12	12	foodImage.59	FOODEEG_Images\0607.jpg	YN	Left	Yes	0.872964099999081	0	202006	251
395.58984375	2	taste	foodImageDisplay	1	12	12	foodImage.59	FOODEEG_Images\0607.jpg	YN	Left	Yes	0.872964099999081	0	202543	252
397.65625	0.872964099999081	taste	choicePhaseStart	1	12	12	foodImage.59	FOODEEG_Images\0607.jpg	YN	Left	Yes	0.872964099999081	0	203601	253
398.5234375	0	taste	response	1	12	12	foodImage.59	FOODEEG_Images\0607.jpg	YN	Left	Yes	0.872964099999081	0	204045	234
399.564453125	1	taste	trialStart	1	13	13	foodImage.30	FOODEEG_Images\0282.jpg	YN	Left	Yes	1.07511019999947	0	204578	251
400.60546875	2	taste	foodImageDisplay	1	13	13	foodImage.30	FOODEEG_Images\0282.jpg	YN	Left	Yes	1.07511019999947	0	205111	252
402.671875	1.07511019999947	taste	choicePhaseStart	1	13	13	foodImage.30	FOODEEG_Images\0282.jpg	YN	Left	Yes	1.07511019999947	0	206169	253
403.73828125	0	taste	response	1	13	13	foodImage.30	FOODEEG_Images\0282.jpg	YN	Left	Yes	1.07511019999947	0	206715	234
404.779296875	1	health	trialStart	1	14	14	foodImage.27	FOODEEG_Images\0263.jpg	NY	Right	Yes	0.771173199998884	0	207248	251
405.822265625	2	health	foodImageDisplay	1	14	14	foodImage.27	FOODEEG_Images\0263.jpg	NY	Right	Yes	0.771173199998884	0	207782	252
407.88671875	0.771173199998884	health	choicePhaseStart	1	14	14	foodImage.27	FOODEEG_Images\0263.jpg	NY	Right	Yes	0.771173199998884	0	208839	253
408.650390625	0	health	response	1	14	14	foodImage.27	FOODEEG_Images\0263.jpg	NY	Right	Yes	0.771173199998884	0	209230	235
409.689453125	1	decision	trialStart	1	15	15	foodImage.46	FOODEEG_Images\0479.jpg	YN	Right	No	1.5755977000008	0	209762	251
410.74609375	2	decision	foodImageDisplay	1	15	15	foodImage.46	FOODEEG_Images\0479.jpg	YN	Right	No	1.5755977000008	0	210303	252
412.810546875	1.5755977000008	decision	choicePhaseStart	1	15	15	foodImage.46	FOODEEG_Images\0479.jpg	YN	Right	No	1.5755977000008	0	211360	253
414.37890625	0	decision	response	1	15	15	foodImage.46	FOODEEG_Images\0479.jpg	YN	Right	No	1.5755977000008	0	212163	235
415.419921875	1	health	trialStart	1	16	16	foodImage.35	FOODEEG_Images\0350.jpg	NY	Right	Yes	1.64702730000135	0	212696	251
416.458984375	2	health	foodImageDisplay	1	16	16	foodImage.35	FOODEEG_Images\0350.jpg	NY	Right	Yes	1.64702730000135	0	213228	252
418.5234375	1.64702730000135	health	choicePhaseStart	1	16	16	foodImage.35	FOODEEG_Images\0350.jpg	NY	Right	Yes	1.64702730000135	0	214285	253
420.162109375	0	health	response	1	16	16	foodImage.35	FOODEEG_Images\0350.jpg	NY	Right	Yes	1.64702730000135	0	215124	235
421.203125	1	decision	trialStart	1	17	17	foodImage.95	FOODEEG_Images\0903.jpg	YN	Right	No	1.03212500000154	0	215657	251
422.2421875	2	decision	foodImageDisplay	1	17	17	foodImage.95	FOODEEG_Images\0903.jpg	YN	Right	No	1.03212500000154	0	216189	252
424.306640625	1.03212500000154	decision	choicePhaseStart	1	17	17	foodImage.95	FOODEEG_Images\0903.jpg	YN	Right	No	1.03212500000154	0	217246	253
425.330078125	0	decision	response	1	17	17	foodImage.95	FOODEEG_Images\0903.jpg	YN	Right	No	1.03212500000154	0	217770	235
426.37109375	1	taste	trialStart	1	18	18	foodImage.117	FOODEEG_Images\0925.jpg	YN	Right	No	0.785128199997416	0	218303	251
427.41015625	2	taste	foodImageDisplay	1	18	18	foodImage.117	FOODEEG_Images\0925.jpg	YN	Right	No	0.785128199997416	0	218835	252
429.474609375	0.785128199997416	taste	choicePhaseStart	1	18	18	foodImage.117	FOODEEG_Images\0925.jpg	YN	Right	No	0.785128199997416	0	219892	253
430.25	0	taste	response	1	18	18	foodImage.117	FOODEEG_Images\0925.jpg	YN	Right	No	0.785128199997416	0	220289	235
431.291015625	1	health	trialStart	1	19	19	foodImage.73	FOODEEG_Images\0717.jpg	YN	Left	Yes	1.1832816999995	0	220822	251
432.34765625	2	health	foodImageDisplay	1	19	19	foodImage.73	FOODEEG_Images\0717.jpg	YN	Left	Yes	1.1832816999995	0	221363	252
434.41015625	1.1832816999995	health	choicePhaseStart	1	19	19	foodImage.73	FOODEEG_Images\0717.jpg	YN	Left	Yes	1.1832816999995	0	222419	253
435.5859375	0	health	response	1	19	19	foodImage.73	FOODEEG_Images\0717.jpg	YN	Left	Yes	1.1832816999995	0	223021	234
436.626953125	1	decision	trialStart	1	20	20	foodImage.120	FOODEEG_Images\0928.jpg	NY	Left	No	0.863159399999859	0	223554	251
437.66796875	2	decision	foodImageDisplay	1	20	20	foodImage.120	FOODEEG_Images\0928.jpg	NY	Left	No	0.863159399999859	0	224087	252
439.73046875	0.863159399999859	decision	choicePhaseStart	1	20	20	foodImage.120	FOODEEG_Images\0928.jpg	NY	Left	No	0.863159399999859	0	225143	253
440.5859375	0	decision	response	1	20	20	foodImage.120	FOODEEG_Images\0928.jpg	NY	Left	No	0.863159399999859	0	225581	234
441.626953125	1	taste	trialStart	1	21	21	foodImage.92	FOODEEG_Images\0900.jpg	YN	Right	No	1.38213170000017	0	226114	251
442.66796875	2	taste	foodImageDisplay	1	21	21	foodImage.92	FOODEEG_Images\0900.jpg	YN	Right	No	1.38213170000017	0	226647	252
444.732421875	1.38213170000017	taste	choicePhaseStart	1	21	21	foodImage.92	FOODEEG_Images\0900.jpg	YN	Right	No	1.38213170000017	0	227704	253
446.10546875	0	taste	response	1	21	21	foodImage.92	FOODEEG_Images\0900.jpg	YN	Right	No	1.38213170000017	0	228407	235
447.14453125	1	health	trialStart	1	22	22	foodImage.70	FOODEEG_Images\0705.jpg	YN	Right	No	1.15709350000179	0	228939	251
448.205078125	2	health	foodImageDisplay	1	22	22	foodImage.70	FOODEEG_Images\0705.jpg	YN	Right	No	1.15709350000179	0	229482	252
450.267578125	1.15709350000179	health	choicePhaseStart	1	22	22	foodImage.70	FOODEEG_Images\0705.jpg	YN	Right	No	1.15709350000179	0	230538	253
451.416015625	0	health	response	1	22	22	foodImage.70	FOODEEG_Images\0705.jpg	YN	Right	No	1.15709350000179	0	231126	235
452.458984375	1	decision	trialStart	1	23	23	foodImage.9	FOODEEG_Images\0138.jpg	YN	Left	Yes	0.692812699999195	0	231660	251
453.517578125	2	decision	foodImageDisplay	1	23	23	foodImage.9	FOODEEG_Images\0138.jpg	YN	Left	Yes	0.692812699999195	0	232202	252
455.58203125	0.692812699999195	decision	choicePhaseStart	1	23	23	foodImage.9	FOODEEG_Images\0138.jpg	YN	Left	Yes	0.692812699999195	0	233259	253
456.263671875	0	decision	response	1	23	23	foodImage.9	FOODEEG_Images\0138.jpg	YN	Left	Yes	0.692812699999195	0	233608	234
457.30859375	1	health	trialStart	1	24	24	foodImage.112	FOODEEG_Images\0920.jpg	NY	Left	No	2.20636620000005	0	234143	251
458.34765625	2	health	foodImageDisplay	1	24	24	foodImage.112	FOODEEG_Images\0920.jpg	NY	Left	No	2.20636620000005	0	234675	252
460.412109375	2.20636620000005	health	choicePhaseStart	1	24	24	foodImage.112	FOODEEG_Images\0920.jpg	NY	Left	No	2.20636620000005	0	235732	253
462.607421875	0	health	response	1	24	24	foodImage.112	FOODEEG_Images\0920.jpg	NY	Left	No	2.20636620000005	0	236856	234
463.6484375	1	decision	trialStart	1	25	25	foodImage.104	FOODEEG_Images\0912.jpg	NY	Left	No	0.873005000001285	0	237389	251
464.689453125	2	decision	foodImageDisplay	1	25	25	foodImage.104	FOODEEG_Images\0912.jpg	NY	Left	No	0.873005000001285	0	237922	252
466.751953125	0.873005000001285	decision	choicePhaseStart	1	25	25	foodImage.104	FOODEEG_Images\0912.jpg	NY	Left	No	0.873005000001285	0	238978	253
467.615234375	0	decision	response	1	25	25	foodImage.104	FOODEEG_Images\0912.jpg	NY	Left	No	0.873005000001285	0	239420	234
468.65625	1	health	trialStart	1	26	26	foodImage.33	FOODEEG_Images\0329.jpg	NY	Right	Yes	0.531239399999322	0	239953	251
469.69921875	2	health	foodImageDisplay	1	26	26	foodImage.33	FOODEEG_Images\0329.jpg	NY	Right	Yes	0.531239399999322	0	240487	252
471.765625	0.531239399999322	health	choicePhaseStart	1	26	26	foodImage.33	FOODEEG_Images\0329.jpg	NY	Right	Yes	0.531239399999322	0	241545	253
472.287109375	0	health	response	1	26	26	foodImage.33	FOODEEG_Images\0329.jpg	NY	Right	Yes	0.531239399999322	0	241812	235
473.330078125	1	decision	trialStart	1	27	27	foodImage.84	FOODEEG_Images\0830.jpg	YN	Left	Yes	1.21240190000026	0	242346	251
474.38671875	2	decision	foodImageDisplay	1	27	27	foodImage.84	FOODEEG_Images\0830.jpg	YN	Left	Yes	1.21240190000026	0	242887	252
476.451171875	1.21240190000026	decision	choicePhaseStart	1	27	27	foodImage.84	FOODEEG_Images\0830.jpg	YN	Left	Yes	1.21240190000026	0	243944	253
477.654296875	0	decision	response	1	27	27	foodImage.84	FOODEEG_Images\0830.jpg	YN	Left	Yes	1.21240190000026	0	244560	234
478.69921875	1	taste	trialStart	1	28	28	foodImage.14	FOODEEG_Images\0188.jpg	NY	Right	Yes	0.729437799996958	0	245095	251
479.759765625	2	taste	foodImageDisplay	1	28	28	foodImage.14	FOODEEG_Images\0188.jpg	NY	Right	Yes	0.729437799996958	0	245638	252
481.822265625	0.729437799996958	taste	choicePhaseStart	1	28	28	foodImage.14	FOODEEG_Images\0188.jpg	NY	Right	Yes	0.729437799996958	0	246694	253
482.54296875	0	taste	response	1	28	28	foodImage.14	FOODEEG_Images\0188.jpg	NY	Right	Yes	0.729437799996958	0	247063	235
483.5859375	1	taste	trialStart	1	29	29	foodImage.72	FOODEEG_Images\0714.jpg	NY	Right	Yes	1.22746750000078	0	247597	251
484.62890625	2	taste	foodImageDisplay	1	29	29	foodImage.72	FOODEEG_Images\0714.jpg	NY	Right	Yes	1.22746750000078	0	248131	252
486.693359375	1.22746750000078	taste	choicePhaseStart	1	29	29	foodImage.72	FOODEEG_Images\0714.jpg	NY	Right	Yes	1.22746750000078	0	249188	253
487.91015625	0	taste	response	1	29	29	foodImage.72	FOODEEG_Images\0714.jpg	NY	Right	Yes	1.22746750000078	0	249811	235
488.951171875	1	health	trialStart	1	30	30	foodImage.55	FOODEEG_Images\0567.jpg	YN	Left	Yes	1.3773508000013	0	250344	251
490.0078125	2	health	foodImageDisplay	1	30	30	foodImage.55	FOODEEG_Images\0567.jpg	YN	Left	Yes	1.3773508000013	0	250885	252
492.0703125	1.3773508000013	health	choicePhaseStart	1	30	30	foodImage.55	FOODEEG_Images\0567.jpg	YN	Left	Yes	1.3773508000013	0	251941	253
493.439453125	0	health	response	1	30	30	foodImage.55	FOODEEG_Images\0567.jpg	YN	Left	Yes	1.3773508000013	0	252642	234
494.48046875	1	taste	trialStart	1	31	31	foodImage.73	FOODEEG_Images\0717.jpg	YN	Left	Yes	1.27328310000303	0	253175	251
495.53515625	2	taste	foodImageDisplay	1	31	31	foodImage.73	FOODEEG_Images\0717.jpg	YN	Left	Yes	1.27328310000303	0	253715	252
497.59765625	1.27328310000303	taste	choicePhaseStart	1	31	31	foodImage.73	FOODEEG_Images\0717.jpg	YN	Left	Yes	1.27328310000303	0	254771	253
498.86328125	0	taste	response	1	31	31	foodImage.73	FOODEEG_Images\0717.jpg	YN	Left	Yes	1.27328310000303	0	255419	234
499.90234375	1	decision	trialStart	1	32	32	foodImage.23	FOODEEG_Images\0244.jpg	NY	Right	Yes	1.31252940000195	0	255951	251
500.943359375	2	decision	foodImageDisplay	1	32	32	foodImage.23	FOODEEG_Images\0244.jpg	NY	Right	Yes	1.31252940000195	0	256484	252
503.0078125	1.31252940000195	decision	choicePhaseStart	1	32	32	foodImage.23	FOODEEG_Images\0244.jpg	NY	Right	Yes	1.31252940000195	0	257541	253
504.310546875	0	decision	response	1	32	32	foodImage.23	FOODEEG_Images\0244.jpg	NY	Right	Yes	1.31252940000195	0	258208	235
505.3515625	1	health	trialStart	1	33	33	foodImage.8	FOODEEG_Images\0136.jpg	YN	Right	No	1.32115780000095	0	258741	251
506.392578125	2	health	foodImageDisplay	1	33	33	foodImage.8	FOODEEG_Images\0136.jpg	YN	Right	No	1.32115780000095	0	259274	252
508.455078125	1.32115780000095	health	choicePhaseStart	1	33	33	foodImage.8	FOODEEG_Images\0136.jpg	YN	Right	No	1.32115780000095	0	260330	253
509.765625	0	health	response	1	33	33	foodImage.8	FOODEEG_Images\0136.jpg	YN	Right	No	1.32115780000095	0	261001	235
510.80859375	1	decision	trialStart	1	34	34	foodImage.74	FOODEEG_Images\0752.jpg	NY	Left	No	0.817464599997038	0	261535	251
511.853515625	2	decision	foodImageDisplay	1	34	34	foodImage.74	FOODEEG_Images\0752.jpg	NY	Left	No	0.817464599997038	0	262070	252
513.91796875	0.817464599997038	decision	choicePhaseStart	1	34	34	foodImage.74	FOODEEG_Images\0752.jpg	NY	Left	No	0.817464599997038	0	263127	253
514.7265625	0	decision	response	1	34	34	foodImage.74	FOODEEG_Images\0752.jpg	NY	Left	No	0.817464599997038	0	263541	234
515.76953125	1	health	trialStart	1	35	35	foodImage.48	FOODEEG_Images\0494.jpg	NY	Right	Yes	1.47671199999968	0	264075	251
516.828125	2	health	foodImageDisplay	1	35	35	foodImage.48	FOODEEG_Images\0494.jpg	NY	Right	Yes	1.47671199999968	0	264617	252
518.890625	1.47671199999968	health	choicePhaseStart	1	35	35	foodImage.48	FOODEEG_Images\0494.jpg	NY	Right	Yes	1.47671199999968	0	265673	253
520.357421875	0	health	response	1	35	35	foodImage.48	FOODEEG_Images\0494.jpg	NY	Right	Yes	1.47671199999968	0	266424	235
521.3984375	1	health	trialStart	1	36	36	foodImage.37	FOODEEG_Images\0359.jpg	YN	Left	Yes	1.00472799999989	0	266957	251
522.439453125	2	health	foodImageDisplay	1	36	36	foodImage.37	FOODEEG_Images\0359.jpg	YN	Left	Yes	1.00472799999989	0	267490	252
524.50390625	1.00472799999989	health	choicePhaseStart	1	36	36	foodImage.37	FOODEEG_Images\0359.jpg	YN	Left	Yes	1.00472799999989	0	268547	253
525.501953125	0	health	response	1	36	36	foodImage.37	FOODEEG_Images\0359.jpg	YN	Left	Yes	1.00472799999989	0	269058	234
526.544921875	1	decision	trialStart	1	37	37	foodImage.110	FOODEEG_Images\0918.jpg	NY	Left	No	0.696323800002574	0	269592	251
527.583984375	2	decision	foodImageDisplay	1	37	37	foodImage.110	FOODEEG_Images\0918.jpg	NY	Left	No	0.696323800002574	0	270124	252
529.646484375	0.696323800002574	decision	choicePhaseStart	1	37	37	foodImage.110	FOODEEG_Images\0918.jpg	NY	Left	No	0.696323800002574	0	271180	253
530.333984375	0	decision	response	1	37	37	foodImage.110	FOODEEG_Images\0918.jpg	NY	Left	No	0.696323800002574	0	271532	234
531.375	1	decision	trialStart	1	38	38	foodImage.89	FOODEEG_Images\0881.jpg	NY	Right	Yes	1.04502280000088	0	272065	251
532.4296875	2	decision	foodImageDisplay	1	38	38	foodImage.89	FOODEEG_Images\0881.jpg	NY	Right	Yes	1.04502280000088	0	272605	252
534.498046875	1.04502280000088	decision	choicePhaseStart	1	38	38	foodImage.89	FOODEEG_Images\0881.jpg	NY	Right	Yes	1.04502280000088	0	273664	253
535.533203125	0	decision	response	1	38	38	foodImage.89	FOODEEG_Images\0881.jpg	NY	Right	Yes	1.04502280000088	0	274194	235
536.57421875	1	decision	trialStart	1	39	39	foodImage.101	FOODEEG_Images\0909.jpg	NY	Left	No	0.742079200001172	0	274727	251
537.61328125	2	decision	foodImageDisplay	1	39	39	foodImage.101	FOODEEG_Images\0909.jpg	NY	Left	No	0.742079200001172	0	275259	252
539.677734375	0.742079200001172	decision	choicePhaseStart	1	39	39	foodImage.101	FOODEEG_Images\0909.jpg	NY	Left	No	0.742079200001172	0	276316	253
540.412109375	0	decision	response	1	39	39	foodImage.101	FOODEEG_Images\0909.jpg	NY	Left	No	0.742079200001172	0	276692	234
541.453125	1	health	trialStart	1	40	40	foodImage.44	FOODEEG_Images\0459.jpg	NY	Right	Yes	0.708666699996684	0	277225	251
542.505859375	2	health	foodImageDisplay	1	40	40	foodImage.44	FOODEEG_Images\0459.jpg	NY	Right	Yes	0.708666699996684	0	277764	252
544.5703125	0.708666699996684	health	choicePhaseStart	1	40	40	foodImage.44	FOODEEG_Images\0459.jpg	NY	Right	Yes	0.708666699996684	0	278821	253
545.26953125	0	health	response	1	40	40	foodImage.44	FOODEEG_Images\0459.jpg	NY	Right	Yes	0.708666699996684	0	279179	235
546.310546875	1	decision	trialStart	1	41	41	foodImage.85	FOODEEG_Images\0841.jpg	NY	Right	Yes	0.906726700002764	0	279712	251
547.37109375	2	decision	foodImageDisplay	1	41	41	foodImage.85	FOODEEG_Images\0841.jpg	NY	Right	Yes	0.906726700002764	0	280255	252
549.435546875	0.906726700002764	decision	choicePhaseStart	1	41	41	foodImage.85	FOODEEG_Images\0841.jpg	NY	Right	Yes	0.906726700002764	0	281312	253
550.33203125	0	decision	response	1	41	41	foodImage.85	FOODEEG_Images\0841.jpg	NY	Right	Yes	0.906726700002764	0	281771	235
551.373046875	1	health	trialStart	1	42	42	foodImage.32	FOODEEG_Images\0319.jpg	YN	Right	No	1.61518660000002	0	282304	251
552.416015625	2	health	foodImageDisplay	1	42	42	foodImage.32	FOODEEG_Images\0319.jpg	YN	Right	No	1.61518660000002	0	282838	252
554.478515625	1.61518660000002	health	choicePhaseStart	1	42	42	foodImage.32	FOODEEG_Images\0319.jpg	YN	Right	No	1.61518660000002	0	283894	253
556.083984375	0	health	response	1	42	42	foodImage.32	FOODEEG_Images\0319.jpg	YN	Right	No	1.61518660000002	0	284716	235
557.125	1	decision	trialStart	1	43	43	foodImage.118	FOODEEG_Images\0926.jpg	YN	Right	No	0.990338100000372	0	285249	251
558.181640625	2	decision	foodImageDisplay	1	43	43	foodImage.118	FOODEEG_Images\0926.jpg	YN	Right	No	0.990338100000372	0	285790	252
560.24609375	0.990338100000372	decision	choicePhaseStart	1	43	43	foodImage.118	FOODEEG_Images\0926.jpg	YN	Right	No	0.990338100000372	0	286847	253
561.228515625	0	decision	response	1	43	43	foodImage.118	FOODEEG_Images\0926.jpg	YN	Right	No	0.990338100000372	0	287350	235
562.26953125	1	taste	trialStart	1	44	44	foodImage.66	FOODEEG_Images\0676.jpg	NY	Right	Yes	0.854368899999827	0	287883	251
563.310546875	2	taste	foodImageDisplay	1	44	44	foodImage.66	FOODEEG_Images\0676.jpg	NY	Right	Yes	0.854368899999827	0	288416	252
565.373046875	0.854368899999827	taste	choicePhaseStart	1	44	44	foodImage.66	FOODEEG_Images\0676.jpg	NY	Right	Yes	0.854368899999827	0	289472	253
566.21875	0	taste	response	1	44	44	foodImage.66	FOODEEG_Images\0676.jpg	NY	Right	Yes	0.854368899999827	0	289905	235
567.259765625	1	taste	trialStart	1	45	45	foodImage.90	FOODEEG_Images\0890.jpg	YN	Left	Yes	0.810783699998865	0	290438	251
568.31640625	2	taste	foodImageDisplay	1	45	45	foodImage.90	FOODEEG_Images\0890.jpg	YN	Left	Yes	0.810783699998865	0	290979	252
570.3828125	0.810783699998865	taste	choicePhaseStart	1	45	45	foodImage.90	FOODEEG_Images\0890.jpg	YN	Left	Yes	0.810783699998865	0	292037	253
571.1875	0	taste	response	1	45	45	foodImage.90	FOODEEG_Images\0890.jpg	YN	Left	Yes	0.810783699998865	0	292449	234
572.2265625	1	decision	trialStart	1	46	46	foodImage.42	FOODEEG_Images\0438.jpg	NY	Right	Yes	1.41939730000013	0	292981	251
573.31640625	2	decision	foodImageDisplay	1	46	46	foodImage.42	FOODEEG_Images\0438.jpg	NY	Right	Yes	1.41939730000013	0	293539	252
575.3828125	1.41939730000013	decision	choicePhaseStart	1	46	46	foodImage.42	FOODEEG_Images\0438.jpg	NY	Right	Yes	1.41939730000013	0	294597	253
576.794921875	0	decision	response	1	46	46	foodImage.42	FOODEEG_Images\0438.jpg	NY	Right	Yes	1.41939730000013	0	295320	235
577.833984375	1	health	trialStart	1	47	47	foodImage.11	FOODEEG_Images\0180.jpg	NY	Right	Yes	1.65835070000321	0	295852	251
578.876953125	2	health	foodImageDisplay	1	47	47	foodImage.11	FOODEEG_Images\0180.jpg	NY	Right	Yes	1.65835070000321	0	296386	252
580.939453125	1.65835070000321	health	choicePhaseStart	1	47	47	foodImage.11	FOODEEG_Images\0180.jpg	NY	Right	Yes	1.65835070000321	0	297442	253
582.587890625	0	health	response	1	47	47	foodImage.11	FOODEEG_Images\0180.jpg	NY	Right	Yes	1.65835070000321	0	298286	235
583.62890625	1	decision	trialStart	1	48	48	foodImage.5	FOODEEG_Images\0107.jpg	YN	Left	Yes	0.725783399997454	0	298819	251
584.6875	2	decision	foodImageDisplay	1	48	48	foodImage.5	FOODEEG_Images\0107.jpg	YN	Left	Yes	0.725783399997454	0	299361	252
586.751953125	0.725783399997454	decision	choicePhaseStart	1	48	48	foodImage.5	FOODEEG_Images\0107.jpg	YN	Left	Yes	0.725783399997454	0	300418	253
587.466796875	0	decision	response	1	48	48	foodImage.5	FOODEEG_Images\0107.jpg	YN	Left	Yes	0.725783399997454	0	300784	234
588.5078125	1	taste	trialStart	1	49	49	foodImage.13	FOODEEG_Images\0183.jpg	NY	Right	Yes	0.902148999997735	0	301317	251
589.55078125	2	taste	foodImageDisplay	1	49	49	foodImage.13	FOODEEG_Images\0183.jpg	NY	Right	Yes	0.902148999997735	0	301851	252
591.61328125	0.902148999997735	taste	choicePhaseStart	1	49	49	foodImage.13	FOODEEG_Images\0183.jpg	NY	Right	Yes	0.902148999997735	0	302907	253
592.5078125	0	taste	response	1	49	49	foodImage.13	FOODEEG_Images\0183.jpg	NY	Right	Yes	0.902148999997735	0	303365	235
593.552734375	1	decision	trialStart	1	50	50	foodImage.91	FOODEEG_Images\0896.jpg	NY	Right	Yes	0.721057899998414	0	303900	251
594.611328125	2	decision	foodImageDisplay	1	50	50	foodImage.91	FOODEEG_Images\0896.jpg	NY	Right	Yes	0.721057899998414	0	304442	252
596.67578125	0.721057899998414	decision	choicePhaseStart	1	50	50	foodImage.91	FOODEEG_Images\0896.jpg	NY	Right	Yes	0.721057899998414	0	305499	253
597.38671875	0	decision	response	1	50	50	foodImage.91	FOODEEG_Images\0896.jpg	NY	Right	Yes	0.721057899998414	0	305863	235
598.427734375	1	decision	trialStart	1	51	51	foodImage.47	FOODEEG_Images\0488.jpg	NY	Right	Yes	0.735431499997503	0	306396	251
599.46875	2	decision	foodImageDisplay	1	51	51	foodImage.47	FOODEEG_Images\0488.jpg	NY	Right	Yes	0.735431499997503	0	306929	252
601.533203125	0.735431499997503	decision	choicePhaseStart	1	51	51	foodImage.47	FOODEEG_Images\0488.jpg	NY	Right	Yes	0.735431499997503	0	307986	253
602.2578125	0	decision	response	1	51	51	foodImage.47	FOODEEG_Images\0488.jpg	NY	Right	Yes	0.735431499997503	0	308357	235
603.30078125	1	taste	trialStart	1	52	52	foodImage.94	FOODEEG_Images\0902.jpg	YN	Right	No	2.26459189999878	0	308891	251
604.33984375	2	taste	foodImageDisplay	1	52	52	foodImage.94	FOODEEG_Images\0902.jpg	YN	Right	No	2.26459189999878	0	309423	252
606.404296875	2.26459189999878	taste	choicePhaseStart	1	52	52	foodImage.94	FOODEEG_Images\0902.jpg	YN	Right	No	2.26459189999878	0	310480	253
608.658203125	0	taste	response	1	52	52	foodImage.94	FOODEEG_Images\0902.jpg	YN	Right	No	2.26459189999878	0	311634	235
609.701171875	1	taste	trialStart	1	53	53	foodImage.102	FOODEEG_Images\0910.jpg	NY	Left	No	1.07016130000193	0	312168	251
610.73828125	2	taste	foodImageDisplay	1	53	53	foodImage.102	FOODEEG_Images\0910.jpg	NY	Left	No	1.07016130000193	0	312699	252
612.802734375	1.07016130000193	taste	choicePhaseStart	1	53	53	foodImage.102	FOODEEG_Images\0910.jpg	NY	Left	No	1.07016130000193	0	313756	253
613.865234375	0	taste	response	1	53	53	foodImage.102	FOODEEG_Images\0910.jpg	NY	Left	No	1.07016130000193	0	314300	234
614.916015625	1	taste	trialStart	1	54	54	foodImage.38	FOODEEG_Images\0365.jpg	NY	Right	Yes	1.36224420000144	0	314838	251
615.9609375	2	taste	foodImageDisplay	1	54	54	foodImage.38	FOODEEG_Images\0365.jpg	NY	Right	Yes	1.36224420000144	0	315373	252
618.025390625	1.36224420000144	taste	choicePhaseStart	1	54	54	foodImage.38	FOODEEG_Images\0365.jpg	NY	Right	Yes	1.36224420000144	0	316430	253
619.376953125	0	taste	response	1	54	54	foodImage.38	FOODEEG_Images\0365.jpg	NY	Right	Yes	1.36224420000144	0	317122	235
620.41796875	1	taste	trialStart	1	55	55	foodImage.50	FOODEEG_Images\0529.jpg	NY	Right	Yes	0.817789400000038	0	317655	251
621.484375	2	taste	foodImageDisplay	1	55	55	foodImage.50	FOODEEG_Images\0529.jpg	NY	Right	Yes	0.817789400000038	0	318201	252
623.552734375	0.817789400000038	taste	choicePhaseStart	1	55	55	foodImage.50	FOODEEG_Images\0529.jpg	NY	Right	Yes	0.817789400000038	0	319260	253
624.361328125	0	taste	response	1	55	55	foodImage.50	FOODEEG_Images\0529.jpg	NY	Right	Yes	0.817789400000038	0	319674	235
625.40234375	1	taste	trialStart	1	56	56	foodImage.26	FOODEEG_Images\0262.jpg	NY	Left	No	1.66036600000007	0	320207	251
626.4453125	2	taste	foodImageDisplay	1	56	56	foodImage.26	FOODEEG_Images\0262.jpg	NY	Left	No	1.66036600000007	0	320741	252
628.509765625	1.66036600000007	taste	choicePhaseStart	1	56	56	foodImage.26	FOODEEG_Images\0262.jpg	NY	Left	No	1.66036600000007	0	321798	253
630.162109375	0	taste	response	1	56	56	foodImage.26	FOODEEG_Images\0262.jpg	NY	Left	No	1.66036600000007	0	322644	234
631.208984375	1	decision	trialStart	1	57	57	foodImage.109	FOODEEG_Images\0917.jpg	YN	Right	No	0.706846699999005	0	323180	251
632.248046875	2	decision	foodImageDisplay	1	57	57	foodImage.109	FOODEEG_Images\0917.jpg	YN	Right	No	0.706846699999005	0	323712	252
634.3125	0.706846699999005	decision	choicePhaseStart	1	57	57	foodImage.109	FOODEEG_Images\0917.jpg	YN	Right	No	0.706846699999005	0	324769	253
635.009765625	0	decision	response	1	57	57	foodImage.109	FOODEEG_Images\0917.jpg	YN	Right	No	0.706846699999005	0	325126	235
636.05078125	1	taste	trialStart	1	58	58	foodImage.34	FOODEEG_Images\0339.jpg	NY	Right	Yes	1.08769989999928	0	325659	251
637.107421875	2	taste	foodImageDisplay	1	58	58	foodImage.34	FOODEEG_Images\0339.jpg	NY	Right	Yes	1.08769989999928	0	326200	252
639.171875	1.08769989999928	taste	choicePhaseStart	1	58	58	foodImage.34	FOODEEG_Images\0339.jpg	NY	Right	Yes	1.08769989999928	0	327257	253
640.248046875	0	taste	response	1	58	58	foodImage.34	FOODEEG_Images\0339.jpg	NY	Right	Yes	1.08769989999928	0	327808	235
641.291015625	1	health	trialStart	1	59	59	foodImage.14	FOODEEG_Images\0188.jpg	YN	Right	No	0.89531430000352	0	328342	251
642.34765625	2	health	foodImageDisplay	1	59	59	foodImage.14	FOODEEG_Images\0188.jpg	YN	Right	No	0.89531430000352	0	328883	252
644.41015625	0.89531430000352	health	choicePhaseStart	1	59	59	foodImage.14	FOODEEG_Images\0188.jpg	YN	Right	No	0.89531430000352	0	329939	253
645.296875	0	health	response	1	59	59	foodImage.14	FOODEEG_Images\0188.jpg	YN	Right	No	0.89531430000352	0	330393	235
646.337890625	1	health	trialStart	1	60	60	foodImage.38	FOODEEG_Images\0365.jpg	YN	Left	Yes	1.06615539999984	0	330926	251
647.376953125	2	health	foodImageDisplay	1	60	60	foodImage.38	FOODEEG_Images\0365.jpg	YN	Left	Yes	1.06615539999984	0	331458	252
649.439453125	1.06615539999984	health	choicePhaseStart	1	60	60	foodImage.38	FOODEEG_Images\0365.jpg	YN	Left	Yes	1.06615539999984	0	332514	253
650.49609375	0	health	response	1	60	60	foodImage.38	FOODEEG_Images\0365.jpg	YN	Left	Yes	1.06615539999984	0	333055	234
652.5390625	11.203125	n/a	blockEnd	n/a	n/a	n/a	n/a	n/a	n/a	n/a	n/a	n/a	n/a	334101	254
663.7421875	2	n/a	blockStart	2	n/a	n/a	n/a	n/a	n/a	n/a	n/a	n/a	n/a	339837	250
665.779296875	1	decision	trialStart	2	61	1	foodImage.59	FOODEEG_Images\0607.jpg	YN	Left	Yes	0.980351199999859	0	340880	251
666.828125	2	decision	foodImageDisplay	2	61	1	foodImage.59	FOODEEG_Images\0607.jpg	YN	Left	Yes	0.980351199999859	0	341417	252
668.892578125	0.980351199999859	decision	choicePhaseStart	2	61	1	foodImage.59	FOODEEG_Images\0607.jpg	YN	Left	Yes	0.980351199999859	0	342474	253
669.86328125	0	decision	response	2	61	1	foodImage.59	FOODEEG_Images\0607.jpg	YN	Left	Yes	0.980351199999859	0	342971	234
670.904296875	1	decision	trialStart	2	62	2	foodImage.81	FOODEEG_Images\0797.jpg	NY	Right	Yes	1.11895699999877	0	343504	251
671.962890625	2	decision	foodImageDisplay	2	62	2	foodImage.81	FOODEEG_Images\0797.jpg	NY	Right	Yes	1.11895699999877	0	344046	252
674.025390625	1.11895699999877	decision	choicePhaseStart	2	62	2	foodImage.81	FOODEEG_Images\0797.jpg	NY	Right	Yes	1.11895699999877	0	345102	253
675.134765625	0	decision	response	2	62	2	foodImage.81	FOODEEG_Images\0797.jpg	NY	Right	Yes	1.11895699999877	0	345670	235
676.17578125	1	decision	trialStart	2	63	3	foodImage.92	FOODEEG_Images\0900.jpg	YN	Right	No	0.847852800001419	0	346203	251
677.212890625	2	decision	foodImageDisplay	2	63	3	foodImage.92	FOODEEG_Images\0900.jpg	YN	Right	No	0.847852800001419	0	346734	252
679.28125	0.847852800001419	decision	choicePhaseStart	2	63	3	foodImage.92	FOODEEG_Images\0900.jpg	YN	Right	No	0.847852800001419	0	347793	253
680.119140625	0	decision	response	2	63	3	foodImage.92	FOODEEG_Images\0900.jpg	YN	Right	No	0.847852800001419	0	348222	235
681.162109375	1	decision	trialStart	2	64	4	foodImage.24	FOODEEG_Images\0250.jpg	YN	Left	Yes	0.730232800000522	0	348756	251
682.203125	2	decision	foodImageDisplay	2	64	4	foodImage.24	FOODEEG_Images\0250.jpg	YN	Left	Yes	0.730232800000522	0	349289	252
684.26953125	0.730232800000522	decision	choicePhaseStart	2	64	4	foodImage.24	FOODEEG_Images\0250.jpg	YN	Left	Yes	0.730232800000522	0	350347	253
684.990234375	0	decision	response	2	64	4	foodImage.24	FOODEEG_Images\0250.jpg	YN	Left	Yes	0.730232800000522	0	350716	234
686.033203125	1	decision	trialStart	2	65	5	foodImage.33	FOODEEG_Images\0329.jpg	YN	Left	Yes	0.815049900000304	0	351250	251
687.076171875	2	decision	foodImageDisplay	2	65	5	foodImage.33	FOODEEG_Images\0329.jpg	YN	Left	Yes	0.815049900000304	0	351784	252
689.14453125	0.815049900000304	decision	choicePhaseStart	2	65	5	foodImage.33	FOODEEG_Images\0329.jpg	YN	Left	Yes	0.815049900000304	0	352843	253
689.951171875	0	decision	response	2	65	5	foodImage.33	FOODEEG_Images\0329.jpg	YN	Left	Yes	0.815049900000304	0	353256	234
690.994140625	1	decision	trialStart	2	66	6	foodImage.103	FOODEEG_Images\0911.jpg	YN	Right	No	1.11078090000228	0	353790	251
692.03515625	2	decision	foodImageDisplay	2	66	6	foodImage.103	FOODEEG_Images\0911.jpg	YN	Right	No	1.11078090000228	0	354323	252
694.09765625	1.11078090000228	decision	choicePhaseStart	2	66	6	foodImage.103	FOODEEG_Images\0911.jpg	YN	Right	No	1.11078090000228	0	355379	253
695.19921875	0	decision	response	2	66	6	foodImage.103	FOODEEG_Images\0911.jpg	YN	Right	No	1.11078090000228	0	355943	235
696.2421875	1	decision	trialStart	2	67	7	foodImage.82	FOODEEG_Images\0805.jpg	NY	Right	Yes	0.701983599999949	0	356477	251
697.298828125	2	decision	foodImageDisplay	2	67	7	foodImage.82	FOODEEG_Images\0805.jpg	NY	Right	Yes	0.701983599999949	0	357018	252
699.361328125	0.701983599999949	decision	choicePhaseStart	2	67	7	foodImage.82	FOODEEG_Images\0805.jpg	NY	Right	Yes	0.701983599999949	0	358074	253
700.0546875	0	decision	response	2	67	7	foodImage.82	FOODEEG_Images\0805.jpg	NY	Right	Yes	0.701983599999949	0	358429	235
701.095703125	1	decision	trialStart	2	68	8	foodImage.8	FOODEEG_Images\0136.jpg	YN	Right	No	1.17802500000107	0	358962	251
702.13671875	2	decision	foodImageDisplay	2	68	8	foodImage.8	FOODEEG_Images\0136.jpg	YN	Right	No	1.17802500000107	0	359495	252
704.203125	1.17802500000107	decision	choicePhaseStart	2	68	8	foodImage.8	FOODEEG_Images\0136.jpg	YN	Right	No	1.17802500000107	0	360553	253
705.375	0	decision	response	2	68	8	foodImage.8	FOODEEG_Images\0136.jpg	YN	Right	No	1.17802500000107	0	361153	235
706.416015625	1	taste	trialStart	2	69	9	foodImage.93	FOODEEG_Images\0901.jpg	NY	Left	No	1.70345110000198	0	361686	251
707.455078125	2	taste	foodImageDisplay	2	69	9	foodImage.93	FOODEEG_Images\0901.jpg	NY	Left	No	1.70345110000198	0	362218	252
709.51953125	1.70345110000198	taste	choicePhaseStart	2	69	9	foodImage.93	FOODEEG_Images\0901.jpg	NY	Left	No	1.70345110000198	0	363275	253
711.21484375	0	taste	response	2	69	9	foodImage.93	FOODEEG_Images\0901.jpg	NY	Left	No	1.70345110000198	0	364143	234
712.2578125	1	decision	trialStart	2	70	10	foodImage.2	FOODEEG_Images\0028.jpg	YN	Left	Yes	1.11265120000098	0	364677	251
713.3203125	2	decision	foodImageDisplay	2	70	10	foodImage.2	FOODEEG_Images\0028.jpg	YN	Left	Yes	1.11265120000098	0	365221	252
715.3828125	1.11265120000098	decision	choicePhaseStart	2	70	10	foodImage.2	FOODEEG_Images\0028.jpg	YN	Left	Yes	1.11265120000098	0	366277	253
716.486328125	0	decision	response	2	70	10	foodImage.2	FOODEEG_Images\0028.jpg	YN	Left	Yes	1.11265120000098	0	366842	234
717.529296875	1	decision	trialStart	2	71	11	foodImage.4	FOODEEG_Images\0065.jpg	NY	Right	Yes	0.718019700001605	0	367376	251
718.5859375	2	decision	foodImageDisplay	2	71	11	foodImage.4	FOODEEG_Images\0065.jpg	NY	Right	Yes	0.718019700001605	0	367917	252
720.650390625	0.718019700001605	decision	choicePhaseStart	2	71	11	foodImage.4	FOODEEG_Images\0065.jpg	NY	Right	Yes	0.718019700001605	0	368974	253
721.357421875	0	decision	response	2	71	11	foodImage.4	FOODEEG_Images\0065.jpg	NY	Right	Yes	0.718019700001605	0	369336	235
722.400390625	1	health	trialStart	2	72	12	foodImage.62	FOODEEG_Images\0644.jpg	YN	Left	Yes	1.22002510000311	0	369870	251
723.458984375	2	health	foodImageDisplay	2	72	12	foodImage.62	FOODEEG_Images\0644.jpg	YN	Left	Yes	1.22002510000311	0	370412	252
725.5234375	1.22002510000311	health	choicePhaseStart	2	72	12	foodImage.62	FOODEEG_Images\0644.jpg	YN	Left	Yes	1.22002510000311	0	371469	253
726.734375	0	health	response	2	72	12	foodImage.62	FOODEEG_Images\0644.jpg	YN	Left	Yes	1.22002510000311	0	372089	234
727.78125	1	health	trialStart	2	73	13	foodImage.69	FOODEEG_Images\0693.jpg	YN	Left	Yes	1.33941839999898	0	372625	251
728.82421875	2	health	foodImageDisplay	2	73	13	foodImage.69	FOODEEG_Images\0693.jpg	YN	Left	Yes	1.33941839999898	0	373159	252
730.890625	1.33941839999898	health	choicePhaseStart	2	73	13	foodImage.69	FOODEEG_Images\0693.jpg	YN	Left	Yes	1.33941839999898	0	374217	253
732.220703125	0	health	response	2	73	13	foodImage.69	FOODEEG_Images\0693.jpg	YN	Left	Yes	1.33941839999898	0	374898	234
733.263671875	1	taste	trialStart	2	74	14	foodImage.47	FOODEEG_Images\0488.jpg	YN	Left	Yes	0.787729499999841	0	375432	251
734.306640625	2	taste	foodImageDisplay	2	74	14	foodImage.47	FOODEEG_Images\0488.jpg	YN	Left	Yes	0.787729499999841	0	375966	252
736.37109375	0.787729499999841	taste	choicePhaseStart	2	74	14	foodImage.47	FOODEEG_Images\0488.jpg	YN	Left	Yes	0.787729499999841	0	377023	253
737.1484375	0	taste	response	2	74	14	foodImage.47	FOODEEG_Images\0488.jpg	YN	Left	Yes	0.787729499999841	0	377421	234
738.189453125	1	health	trialStart	2	75	15	foodImage.26	FOODEEG_Images\0262.jpg	YN	Left	Yes	1.05651139999827	0	377954	251
739.23046875	2	health	foodImageDisplay	2	75	15	foodImage.26	FOODEEG_Images\0262.jpg	YN	Left	Yes	1.05651139999827	0	378487	252
741.294921875	1.05651139999827	health	choicePhaseStart	2	75	15	foodImage.26	FOODEEG_Images\0262.jpg	YN	Left	Yes	1.05651139999827	0	379544	253
742.341796875	0	health	response	2	75	15	foodImage.26	FOODEEG_Images\0262.jpg	YN	Left	Yes	1.05651139999827	0	380080	234
743.380859375	1	taste	trialStart	2	76	16	foodImage.2	FOODEEG_Images\0028.jpg	NY	Right	Yes	1.0813874000014	0	380612	251
744.427734375	2	taste	foodImageDisplay	2	76	16	foodImage.2	FOODEEG_Images\0028.jpg	NY	Right	Yes	1.0813874000014	0	381148	252
746.4921875	1.0813874000014	taste	choicePhaseStart	2	76	16	foodImage.2	FOODEEG_Images\0028.jpg	NY	Right	Yes	1.0813874000014	0	382205	253
747.564453125	0	taste	response	2	76	16	foodImage.2	FOODEEG_Images\0028.jpg	NY	Right	Yes	1.0813874000014	0	382754	235
748.609375	1	health	trialStart	2	77	17	foodImage.88	FOODEEG_Images\0878.jpg	YN	Right	No	0.95009840000057	0	383289	251
749.6640625	2	health	foodImageDisplay	2	77	17	foodImage.88	FOODEEG_Images\0878.jpg	YN	Right	No	0.95009840000057	0	383829	252
751.728515625	0.95009840000057	health	choicePhaseStart	2	77	17	foodImage.88	FOODEEG_Images\0878.jpg	YN	Right	No	0.95009840000057	0	384886	253
752.66796875	0	health	response	2	77	17	foodImage.88	FOODEEG_Images\0878.jpg	YN	Right	No	0.95009840000057	0	385367	235
753.708984375	1	taste	trialStart	2	78	18	foodImage.77	FOODEEG_Images\0771.jpg	YN	Left	Yes	0.944656200001191	0	385900	251
754.75390625	2	taste	foodImageDisplay	2	78	18	foodImage.77	FOODEEG_Images\0771.jpg	YN	Left	Yes	0.944656200001191	0	386435	252
756.818359375	0.944656200001191	taste	choicePhaseStart	2	78	18	foodImage.77	FOODEEG_Images\0771.jpg	YN	Left	Yes	0.944656200001191	0	387492	253
757.755859375	0	taste	response	2	78	18	foodImage.77	FOODEEG_Images\0771.jpg	YN	Left	Yes	0.944656200001191	0	387972	234
758.798828125	1	taste	trialStart	2	79	19	foodImage.57	FOODEEG_Images\0587.jpg	NY	Right	Yes	1.39294489999884	0	388506	251
759.84375	2	taste	foodImageDisplay	2	79	19	foodImage.57	FOODEEG_Images\0587.jpg	NY	Right	Yes	1.39294489999884	0	389041	252
761.908203125	1.39294489999884	taste	choicePhaseStart	2	79	19	foodImage.57	FOODEEG_Images\0587.jpg	NY	Right	Yes	1.39294489999884	0	390098	253
763.29296875	0	taste	response	2	79	19	foodImage.57	FOODEEG_Images\0587.jpg	NY	Right	Yes	1.39294489999884	0	390807	235
764.33203125	1	taste	trialStart	2	80	20	foodImage.80	FOODEEG_Images\0796.jpg	NY	Right	Yes	0.985336000001553	0	391339	251
765.388671875	2	taste	foodImageDisplay	2	80	20	foodImage.80	FOODEEG_Images\0796.jpg	NY	Right	Yes	0.985336000001553	0	391880	252
767.451171875	0.985336000001553	taste	choicePhaseStart	2	80	20	foodImage.80	FOODEEG_Images\0796.jpg	NY	Right	Yes	0.985336000001553	0	392936	253
768.427734375	0	taste	response	2	80	20	foodImage.80	FOODEEG_Images\0796.jpg	NY	Right	Yes	0.985336000001553	0	393436	235
769.470703125	1	decision	trialStart	2	81	21	foodImage.51	FOODEEG_Images\0536.jpg	YN	Right	No	0.841735699999845	0	393970	251
770.515625	2	decision	foodImageDisplay	2	81	21	foodImage.51	FOODEEG_Images\0536.jpg	YN	Right	No	0.841735699999845	0	394505	252
772.580078125	0.841735699999845	decision	choicePhaseStart	2	81	21	foodImage.51	FOODEEG_Images\0536.jpg	YN	Right	No	0.841735699999845	0	395562	253
773.412109375	0	decision	response	2	81	21	foodImage.51	FOODEEG_Images\0536.jpg	YN	Right	No	0.841735699999845	0	395988	235
774.451171875	1	taste	trialStart	2	82	22	foodImage.11	FOODEEG_Images\0180.jpg	YN	Left	Yes	1.44052670000019	0	396520	251
775.4921875	2	taste	foodImageDisplay	2	82	22	foodImage.11	FOODEEG_Images\0180.jpg	YN	Left	Yes	1.44052670000019	0	397053	252
777.5546875	1.44052670000019	taste	choicePhaseStart	2	82	22	foodImage.11	FOODEEG_Images\0180.jpg	YN	Left	Yes	1.44052670000019	0	398109	253
778.98828125	0	taste	response	2	82	22	foodImage.11	FOODEEG_Images\0180.jpg	YN	Left	Yes	1.44052670000019	0	398843	234
780.029296875	1	decision	trialStart	2	83	23	foodImage.25	FOODEEG_Images\0261.jpg	NY	Right	Yes	1.10976070000106	0	399376	251
781.072265625	2	decision	foodImageDisplay	2	83	23	foodImage.25	FOODEEG_Images\0261.jpg	NY	Right	Yes	1.10976070000106	0	399910	252
783.134765625	1.10976070000106	decision	choicePhaseStart	2	83	23	foodImage.25	FOODEEG_Images\0261.jpg	NY	Right	Yes	1.10976070000106	0	400966	253
784.236328125	0	decision	response	2	83	23	foodImage.25	FOODEEG_Images\0261.jpg	NY	Right	Yes	1.10976070000106	0	401530	235
785.27734375	1	decision	trialStart	2	84	24	foodImage.97	FOODEEG_Images\0905.jpg	NY	Right	Yes	0.774165899998479	0	402063	251
786.31640625	2	decision	foodImageDisplay	2	84	24	foodImage.97	FOODEEG_Images\0905.jpg	NY	Right	Yes	0.774165899998479	0	402595	252
788.380859375	0.774165899998479	decision	choicePhaseStart	2	84	24	foodImage.97	FOODEEG_Images\0905.jpg	NY	Right	Yes	0.774165899998479	0	403652	253
789.146484375	0	decision	response	2	84	24	foodImage.97	FOODEEG_Images\0905.jpg	NY	Right	Yes	0.774165899998479	0	404044	235
790.193359375	1	taste	trialStart	2	85	25	foodImage.40	FOODEEG_Images\0373.jpg	YN	Left	Yes	1.13529210000343	0	404580	251
791.234375	2	taste	foodImageDisplay	2	85	25	foodImage.40	FOODEEG_Images\0373.jpg	YN	Left	Yes	1.13529210000343	0	405113	252
793.296875	1.13529210000343	taste	choicePhaseStart	2	85	25	foodImage.40	FOODEEG_Images\0373.jpg	YN	Left	Yes	1.13529210000343	0	406169	253
794.42578125	0	taste	response	2	85	25	foodImage.40	FOODEEG_Images\0373.jpg	YN	Left	Yes	1.13529210000343	0	406747	234
795.46875	1	health	trialStart	2	86	26	foodImage.72	FOODEEG_Images\0714.jpg	YN	Right	No	1.4624767000023	0	407281	251
796.51171875	2	health	foodImageDisplay	2	86	26	foodImage.72	FOODEEG_Images\0714.jpg	YN	Right	No	1.4624767000023	0	407815	252
798.580078125	1.4624767000023	health	choicePhaseStart	2	86	26	foodImage.72	FOODEEG_Images\0714.jpg	YN	Right	No	1.4624767000023	0	408874	253
800.03515625	0	health	response	2	86	26	foodImage.72	FOODEEG_Images\0714.jpg	YN	Right	No	1.4624767000023	0	409619	235
801.076171875	1	health	trialStart	2	87	27	foodImage.47	FOODEEG_Images\0488.jpg	YN	Right	No	0.981362799997441	0	410152	251
802.119140625	2	health	foodImageDisplay	2	87	27	foodImage.47	FOODEEG_Images\0488.jpg	YN	Right	No	0.981362799997441	0	410686	252
804.181640625	0.981362799997441	health	choicePhaseStart	2	87	27	foodImage.47	FOODEEG_Images\0488.jpg	YN	Right	No	0.981362799997441	0	411742	253
805.154296875	0	health	response	2	87	27	foodImage.47	FOODEEG_Images\0488.jpg	YN	Right	No	0.981362799997441	0	412240	235
806.19921875	1	decision	trialStart	2	88	28	foodImage.116	FOODEEG_Images\0924.jpg	YN	Right	No	0.516192399998545	0	412775	251
807.240234375	2	decision	foodImageDisplay	2	88	28	foodImage.116	FOODEEG_Images\0924.jpg	YN	Right	No	0.516192399998545	0	413308	252
809.310546875	0.516192399998545	decision	choicePhaseStart	2	88	28	foodImage.116	FOODEEG_Images\0924.jpg	YN	Right	No	0.516192399998545	0	414368	253
809.818359375	0	decision	response	2	88	28	foodImage.116	FOODEEG_Images\0924.jpg	YN	Right	No	0.516192399998545	0	414628	235
810.861328125	1	decision	trialStart	2	89	29	foodImage.13	FOODEEG_Images\0183.jpg	YN	Left	Yes	0.70005780000065	0	415162	251
811.90234375	2	decision	foodImageDisplay	2	89	29	foodImage.13	FOODEEG_Images\0183.jpg	YN	Left	Yes	0.70005780000065	0	415695	252
813.966796875	0.70005780000065	decision	choicePhaseStart	2	89	29	foodImage.13	FOODEEG_Images\0183.jpg	YN	Left	Yes	0.70005780000065	0	416752	253
814.658203125	0	decision	response	2	89	29	foodImage.13	FOODEEG_Images\0183.jpg	YN	Left	Yes	0.70005780000065	0	417106	234
815.701171875	1	decision	trialStart	2	90	30	foodImage.32	FOODEEG_Images\0319.jpg	YN	Left	Yes	0.679756300000008	0	417640	251
816.744140625	2	decision	foodImageDisplay	2	90	30	foodImage.32	FOODEEG_Images\0319.jpg	YN	Left	Yes	0.679756300000008	0	418174	252
818.8125	0.679756300000008	decision	choicePhaseStart	2	90	30	foodImage.32	FOODEEG_Images\0319.jpg	YN	Left	Yes	0.679756300000008	0	419233	253
819.482421875	0	decision	response	2	90	30	foodImage.32	FOODEEG_Images\0319.jpg	YN	Left	Yes	0.679756300000008	0	419576	234
820.5234375	1	taste	trialStart	2	91	31	foodImage.43	FOODEEG_Images\0445.jpg	YN	Right	No	1.45933869999863	0	420109	251
821.58203125	2	taste	foodImageDisplay	2	91	31	foodImage.43	FOODEEG_Images\0445.jpg	YN	Right	No	1.45933869999863	0	420651	252
823.64453125	1.45933869999863	taste	choicePhaseStart	2	91	31	foodImage.43	FOODEEG_Images\0445.jpg	YN	Right	No	1.45933869999863	0	421707	253
825.09765625	0	taste	response	2	91	31	foodImage.43	FOODEEG_Images\0445.jpg	YN	Right	No	1.45933869999863	0	422451	235
826.142578125	1	decision	trialStart	2	92	32	foodImage.98	FOODEEG_Images\0906.jpg	YN	Left	Yes	0.908145699999295	0	422986	251
827.181640625	2	decision	foodImageDisplay	2	92	32	foodImage.98	FOODEEG_Images\0906.jpg	YN	Left	Yes	0.908145699999295	0	423518	252
829.24609375	0.908145699999295	decision	choicePhaseStart	2	92	32	foodImage.98	FOODEEG_Images\0906.jpg	YN	Left	Yes	0.908145699999295	0	424575	253
830.14453125	0	decision	response	2	92	32	foodImage.98	FOODEEG_Images\0906.jpg	YN	Left	Yes	0.908145699999295	0	425035	234
831.1875	1	health	trialStart	2	93	33	foodImage.116	FOODEEG_Images\0924.jpg	YN	Right	No	1.56010210000022	0	425569	251
832.2265625	2	health	foodImageDisplay	2	93	33	foodImage.116	FOODEEG_Images\0924.jpg	YN	Right	No	1.56010210000022	0	426101	252
834.291015625	1.56010210000022	health	choicePhaseStart	2	93	33	foodImage.116	FOODEEG_Images\0924.jpg	YN	Right	No	1.56010210000022	0	427158	253
835.841796875	0	health	response	2	93	33	foodImage.116	FOODEEG_Images\0924.jpg	YN	Right	No	1.56010210000022	0	427952	235
836.884765625	1	taste	trialStart	2	94	34	foodImage.16	FOODEEG_Images\0196.jpg	YN	Left	Yes	0.835954800000763	0	428486	251
837.9453125	2	taste	foodImageDisplay	2	94	34	foodImage.16	FOODEEG_Images\0196.jpg	YN	Left	Yes	0.835954800000763	0	429029	252
840.013671875	0.835954800000763	taste	choicePhaseStart	2	94	34	foodImage.16	FOODEEG_Images\0196.jpg	YN	Left	Yes	0.835954800000763	0	430088	253
840.841796875	0	taste	response	2	94	34	foodImage.16	FOODEEG_Images\0196.jpg	YN	Left	Yes	0.835954800000763	0	430512	234
841.8828125	1	health	trialStart	2	95	35	foodImage.34	FOODEEG_Images\0339.jpg	NY	Left	No	1.15999039999951	0	431045	251
842.9375	2	health	foodImageDisplay	2	95	35	foodImage.34	FOODEEG_Images\0339.jpg	NY	Left	No	1.15999039999951	0	431585	252
845.001953125	1.15999039999951	health	choicePhaseStart	2	95	35	foodImage.34	FOODEEG_Images\0339.jpg	NY	Left	No	1.15999039999951	0	432642	253
846.15234375	0	health	response	2	95	35	foodImage.34	FOODEEG_Images\0339.jpg	NY	Left	No	1.15999039999951	0	433231	234
847.1953125	1	health	trialStart	2	96	36	foodImage.83	FOODEEG_Images\0827.jpg	NY	Right	Yes	0.54805590000251	0	433765	251
848.25390625	2	health	foodImageDisplay	2	96	36	foodImage.83	FOODEEG_Images\0827.jpg	NY	Right	Yes	0.54805590000251	0	434307	252
850.318359375	0.54805590000251	health	choicePhaseStart	2	96	36	foodImage.83	FOODEEG_Images\0827.jpg	NY	Right	Yes	0.54805590000251	0	435364	253
850.857421875	0	health	response	2	96	36	foodImage.83	FOODEEG_Images\0827.jpg	NY	Right	Yes	0.54805590000251	0	435640	235
851.8984375	1	decision	trialStart	2	97	37	foodImage.50	FOODEEG_Images\0529.jpg	NY	Right	Yes	0.813426199998503	0	436173	251
852.95703125	2	decision	foodImageDisplay	2	97	37	foodImage.50	FOODEEG_Images\0529.jpg	NY	Right	Yes	0.813426199998503	0	436715	252
855.01953125	0.813426199998503	decision	choicePhaseStart	2	97	37	foodImage.50	FOODEEG_Images\0529.jpg	NY	Right	Yes	0.813426199998503	0	437771	253
855.82421875	0	decision	response	2	97	37	foodImage.50	FOODEEG_Images\0529.jpg	NY	Right	Yes	0.813426199998503	0	438183	235
856.86328125	1	health	trialStart	2	98	38	foodImage.22	FOODEEG_Images\0236.jpg	NY	Right	Yes	0.608139100000699	0	438715	251
857.90625	2	health	foodImageDisplay	2	98	38	foodImage.22	FOODEEG_Images\0236.jpg	NY	Right	Yes	0.608139100000699	0	439249	252
859.96875	0.608139100000699	health	choicePhaseStart	2	98	38	foodImage.22	FOODEEG_Images\0236.jpg	NY	Right	Yes	0.608139100000699	0	440305	253
860.568359375	0	health	response	2	98	38	foodImage.22	FOODEEG_Images\0236.jpg	NY	Right	Yes	0.608139100000699	0	440612	235
861.611328125	1	taste	trialStart	2	99	39	foodImage.67	FOODEEG_Images\0679.jpg	NY	Right	Yes	0.650085799999943	0	441146	251
862.669921875	2	taste	foodImageDisplay	2	99	39	foodImage.67	FOODEEG_Images\0679.jpg	NY	Right	Yes	0.650085799999943	0	441688	252
864.732421875	0.650085799999943	taste	choicePhaseStart	2	99	39	foodImage.67	FOODEEG_Images\0679.jpg	NY	Right	Yes	0.650085799999943	0	442744	253
865.376953125	0	taste	response	2	99	39	foodImage.67	FOODEEG_Images\0679.jpg	NY	Right	Yes	0.650085799999943	0	443074	235
866.419921875	1	decision	trialStart	2	100	40	foodImage.60	FOODEEG_Images\0614.jpg	NY	Right	Yes	0.503704700000526	0	443608	251
867.48046875	2	decision	foodImageDisplay	2	100	40	foodImage.60	FOODEEG_Images\0614.jpg	NY	Right	Yes	0.503704700000526	0	444151	252
869.544921875	0.503704700000526	decision	choicePhaseStart	2	100	40	foodImage.60	FOODEEG_Images\0614.jpg	NY	Right	Yes	0.503704700000526	0	445208	253
870.0390625	0	decision	response	2	100	40	foodImage.60	FOODEEG_Images\0614.jpg	NY	Right	Yes	0.503704700000526	0	445461	235
871.083984375	1	health	trialStart	2	101	41	foodImage.18	FOODEEG_Images\0202.jpg	NY	Right	Yes	0.593524299998535	0	445996	251
872.142578125	2	health	foodImageDisplay	2	101	41	foodImage.18	FOODEEG_Images\0202.jpg	NY	Right	Yes	0.593524299998535	0	446538	252
874.20703125	0.593524299998535	health	choicePhaseStart	2	101	41	foodImage.18	FOODEEG_Images\0202.jpg	NY	Right	Yes	0.593524299998535	0	447595	253
874.791015625	0	health	response	2	101	41	foodImage.18	FOODEEG_Images\0202.jpg	NY	Right	Yes	0.593524299998535	0	447894	235
875.833984375	1	taste	trialStart	2	102	42	foodImage.45	FOODEEG_Images\0478.jpg	NY	Right	Yes	1.32616640000197	0	448428	251
876.8828125	2	taste	foodImageDisplay	2	102	42	foodImage.45	FOODEEG_Images\0478.jpg	NY	Right	Yes	1.32616640000197	0	448965	252
878.947265625	1.32616640000197	taste	choicePhaseStart	2	102	42	foodImage.45	FOODEEG_Images\0478.jpg	NY	Right	Yes	1.32616640000197	0	450022	253
880.263671875	0	taste	response	2	102	42	foodImage.45	FOODEEG_Images\0478.jpg	NY	Right	Yes	1.32616640000197	0	450696	235
881.302734375	1	decision	trialStart	2	103	43	foodImage.53	FOODEEG_Images\0547.jpg	NY	Right	Yes	0.550172999999631	0	451228	251
882.36328125	2	decision	foodImageDisplay	2	103	43	foodImage.53	FOODEEG_Images\0547.jpg	NY	Right	Yes	0.550172999999631	0	451771	252
884.42578125	0.550172999999631	decision	choicePhaseStart	2	103	43	foodImage.53	FOODEEG_Images\0547.jpg	NY	Right	Yes	0.550172999999631	0	452827	253
884.966796875	0	decision	response	2	103	43	foodImage.53	FOODEEG_Images\0547.jpg	NY	Right	Yes	0.550172999999631	0	453104	235
886.005859375	1	health	trialStart	2	104	44	foodImage.43	FOODEEG_Images\0445.jpg	NY	Right	Yes	0.985598999999638	0	453636	251
887.064453125	2	health	foodImageDisplay	2	104	44	foodImage.43	FOODEEG_Images\0445.jpg	NY	Right	Yes	0.985598999999638	0	454178	252
889.126953125	0.985598999999638	health	choicePhaseStart	2	104	44	foodImage.43	FOODEEG_Images\0445.jpg	NY	Right	Yes	0.985598999999638	0	455234	253
890.103515625	0	health	response	2	104	44	foodImage.43	FOODEEG_Images\0445.jpg	NY	Right	Yes	0.985598999999638	0	455734	235
891.146484375	1	decision	trialStart	2	105	45	foodImage.76	FOODEEG_Images\0766.jpg	NY	Right	Yes	0.679112800000439	0	456268	251
892.19140625	2	decision	foodImageDisplay	2	105	45	foodImage.76	FOODEEG_Images\0766.jpg	NY	Right	Yes	0.679112800000439	0	456803	252
894.255859375	0.679112800000439	decision	choicePhaseStart	2	105	45	foodImage.76	FOODEEG_Images\0766.jpg	NY	Right	Yes	0.679112800000439	0	457860	253
894.927734375	0	decision	response	2	105	45	foodImage.76	FOODEEG_Images\0766.jpg	NY	Right	Yes	0.679112800000439	0	458204	235
895.96875	1	health	trialStart	2	106	46	foodImage.77	FOODEEG_Images\0771.jpg	NY	Right	Yes	1.42819429999872	0	458737	251
897.01171875	2	health	foodImageDisplay	2	106	46	foodImage.77	FOODEEG_Images\0771.jpg	NY	Right	Yes	1.42819429999872	0	459271	252
899.076171875	1.42819429999872	health	choicePhaseStart	2	106	46	foodImage.77	FOODEEG_Images\0771.jpg	NY	Right	Yes	1.42819429999872	0	460328	253
900.494140625	0	health	response	2	106	46	foodImage.77	FOODEEG_Images\0771.jpg	NY	Right	Yes	1.42819429999872	0	461054	235
901.537109375	1	decision	trialStart	2	107	47	foodImage.38	FOODEEG_Images\0365.jpg	NY	Right	Yes	0.823625100001664	0	461588	251
902.576171875	2	decision	foodImageDisplay	2	107	47	foodImage.38	FOODEEG_Images\0365.jpg	NY	Right	Yes	0.823625100001664	0	462120	252
904.640625	0.823625100001664	decision	choicePhaseStart	2	107	47	foodImage.38	FOODEEG_Images\0365.jpg	NY	Right	Yes	0.823625100001664	0	463177	253
905.455078125	0	decision	response	2	107	47	foodImage.38	FOODEEG_Images\0365.jpg	NY	Right	Yes	0.823625100001664	0	463594	235
906.501953125	1	decision	trialStart	2	108	48	foodImage.67	FOODEEG_Images\0679.jpg	NY	Right	Yes	0.569531900000584	0	464130	251
907.55859375	2	decision	foodImageDisplay	2	108	48	foodImage.67	FOODEEG_Images\0679.jpg	NY	Right	Yes	0.569531900000584	0	464671	252
909.623046875	0.569531900000584	decision	choicePhaseStart	2	108	48	foodImage.67	FOODEEG_Images\0679.jpg	NY	Right	Yes	0.569531900000584	0	465728	253
910.181640625	0	decision	response	2	108	48	foodImage.67	FOODEEG_Images\0679.jpg	NY	Right	Yes	0.569531900000584	0	466014	235
911.2265625	1	taste	trialStart	2	109	49	foodImage.31	FOODEEG_Images\0294.jpg	NY	Right	Yes	1.32381549999991	0	466549	251
912.26953125	2	taste	foodImageDisplay	2	109	49	foodImage.31	FOODEEG_Images\0294.jpg	NY	Right	Yes	1.32381549999991	0	467083	252
914.337890625	1.32381549999991	taste	choicePhaseStart	2	109	49	foodImage.31	FOODEEG_Images\0294.jpg	NY	Right	Yes	1.32381549999991	0	468142	253
915.654296875	0	taste	response	2	109	49	foodImage.31	FOODEEG_Images\0294.jpg	NY	Right	Yes	1.32381549999991	0	468816	235
916.6953125	1	health	trialStart	2	110	50	foodImage.58	FOODEEG_Images\0605.jpg	NY	Right	Yes	1.27239679999911	0	469349	251
917.751953125	2	health	foodImageDisplay	2	110	50	foodImage.58	FOODEEG_Images\0605.jpg	NY	Right	Yes	1.27239679999911	0	469890	252
919.814453125	1.27239679999911	health	choicePhaseStart	2	110	50	foodImage.58	FOODEEG_Images\0605.jpg	NY	Right	Yes	1.27239679999911	0	470946	253
921.078125	0	health	response	2	110	50	foodImage.58	FOODEEG_Images\0605.jpg	NY	Right	Yes	1.27239679999911	0	471593	235
922.119140625	1	decision	trialStart	2	111	51	foodImage.30	FOODEEG_Images\0282.jpg	YN	Left	Yes	0.998717599999509	0	472126	251
923.16015625	2	decision	foodImageDisplay	2	111	51	foodImage.30	FOODEEG_Images\0282.jpg	YN	Left	Yes	0.998717599999509	0	472659	252
925.224609375	0.998717599999509	decision	choicePhaseStart	2	111	51	foodImage.30	FOODEEG_Images\0282.jpg	YN	Left	Yes	0.998717599999509	0	473716	253
926.212890625	0	decision	response	2	111	51	foodImage.30	FOODEEG_Images\0282.jpg	YN	Left	Yes	0.998717599999509	0	474222	234
927.25390625	1	decision	trialStart	2	112	52	foodImage.41	FOODEEG_Images\0409.jpg	NY	Right	Yes	0.675409200001013	0	474755	251
928.30078125	2	decision	foodImageDisplay	2	112	52	foodImage.41	FOODEEG_Images\0409.jpg	NY	Right	Yes	0.675409200001013	0	475291	252
930.369140625	0.675409200001013	decision	choicePhaseStart	2	112	52	foodImage.41	FOODEEG_Images\0409.jpg	NY	Right	Yes	0.675409200001013	0	476350	253
931.037109375	0	decision	response	2	112	52	foodImage.41	FOODEEG_Images\0409.jpg	NY	Right	Yes	0.675409200001013	0	476692	235
932.080078125	1	decision	trialStart	2	113	53	foodImage.108	FOODEEG_Images\0916.jpg	YN	Right	No	0.7920938999996	0	477226	251
933.119140625	2	decision	foodImageDisplay	2	113	53	foodImage.108	FOODEEG_Images\0916.jpg	YN	Right	No	0.7920938999996	0	477758	252
935.181640625	0.7920938999996	decision	choicePhaseStart	2	113	53	foodImage.108	FOODEEG_Images\0916.jpg	YN	Right	No	0.7920938999996	0	478814	253
935.96484375	0	decision	response	2	113	53	foodImage.108	FOODEEG_Images\0916.jpg	YN	Right	No	0.7920938999996	0	479215	235
937.0078125	1	health	trialStart	2	114	54	foodImage.65	FOODEEG_Images\0658.jpg	NY	Right	Yes	2.12415139999939	0	479749	251
938.05078125	2	health	foodImageDisplay	2	114	54	foodImage.65	FOODEEG_Images\0658.jpg	NY	Right	Yes	2.12415139999939	0	480283	252
940.11328125	2.12415139999939	health	choicePhaseStart	2	114	54	foodImage.65	FOODEEG_Images\0658.jpg	NY	Right	Yes	2.12415139999939	0	481339	253
942.228515625	0	health	response	2	114	54	foodImage.65	FOODEEG_Images\0658.jpg	NY	Right	Yes	2.12415139999939	0	482422	235
943.271484375	1	health	trialStart	2	115	55	foodImage.85	FOODEEG_Images\0841.jpg	NY	Left	No	0.750200200000108	0	482956	251
944.328125	2	health	foodImageDisplay	2	115	55	foodImage.85	FOODEEG_Images\0841.jpg	NY	Left	No	0.750200200000108	0	483497	252
946.392578125	0.750200200000108	health	choicePhaseStart	2	115	55	foodImage.85	FOODEEG_Images\0841.jpg	NY	Left	No	0.750200200000108	0	484554	253
947.1328125	0	health	response	2	115	55	foodImage.85	FOODEEG_Images\0841.jpg	NY	Left	No	0.750200200000108	0	484933	234
948.17578125	1	decision	trialStart	2	116	56	foodImage.111	FOODEEG_Images\0919.jpg	NY	Left	No	0.679286200000206	0	485467	251
949.21484375	2	decision	foodImageDisplay	2	116	56	foodImage.111	FOODEEG_Images\0919.jpg	NY	Left	No	0.679286200000206	0	485999	252
951.279296875	0.679286200000206	decision	choicePhaseStart	2	116	56	foodImage.111	FOODEEG_Images\0919.jpg	NY	Left	No	0.679286200000206	0	487056	253
951.94921875	0	decision	response	2	116	56	foodImage.111	FOODEEG_Images\0919.jpg	NY	Left	No	0.679286200000206	0	487399	234
952.990234375	1	taste	trialStart	2	117	57	foodImage.64	FOODEEG_Images\0647.jpg	YN	Left	Yes	0.805611700001464	0	487932	251
954.046875	2	taste	foodImageDisplay	2	117	57	foodImage.64	FOODEEG_Images\0647.jpg	YN	Left	Yes	0.805611700001464	0	488473	252
956.109375	0.805611700001464	taste	choicePhaseStart	2	117	57	foodImage.64	FOODEEG_Images\0647.jpg	YN	Left	Yes	0.805611700001464	0	489529	253
956.908203125	0	taste	response	2	117	57	foodImage.64	FOODEEG_Images\0647.jpg	YN	Left	Yes	0.805611700001464	0	489938	234
957.95703125	1	health	trialStart	2	118	58	foodImage.113	FOODEEG_Images\0921.jpg	NY	Right	Yes	1.69937629999913	0	490475	251
958.994140625	2	health	foodImageDisplay	2	118	58	foodImage.113	FOODEEG_Images\0921.jpg	NY	Right	Yes	1.69937629999913	0	491006	252
961.05859375	1.69937629999913	health	choicePhaseStart	2	118	58	foodImage.113	FOODEEG_Images\0921.jpg	NY	Right	Yes	1.69937629999913	0	492063	253
962.748046875	0	health	response	2	118	58	foodImage.113	FOODEEG_Images\0921.jpg	NY	Right	Yes	1.69937629999913	0	492928	235
963.7890625	1	health	trialStart	2	119	59	foodImage.76	FOODEEG_Images\0766.jpg	NY	Right	Yes	0.660785500000202	0	493461	251
964.83203125	2	health	foodImageDisplay	2	119	59	foodImage.76	FOODEEG_Images\0766.jpg	NY	Right	Yes	0.660785500000202	0	493995	252
966.896484375	0.660785500000202	health	choicePhaseStart	2	119	59	foodImage.76	FOODEEG_Images\0766.jpg	NY	Right	Yes	0.660785500000202	0	495052	253
967.548828125	0	health	response	2	119	59	foodImage.76	FOODEEG_Images\0766.jpg	NY	Right	Yes	0.660785500000202	0	495386	235
968.591796875	1	taste	trialStart	2	120	60	foodImage.19	FOODEEG_Images\0225.jpg	YN	Left	Yes	0.817572800002381	0	495920	251
969.634765625	2	taste	foodImageDisplay	2	120	60	foodImage.19	FOODEEG_Images\0225.jpg	YN	Left	Yes	0.817572800002381	0	496454	252
971.69921875	0.817572800002381	taste	choicePhaseStart	2	120	60	foodImage.19	FOODEEG_Images\0225.jpg	YN	Left	Yes	0.817572800002381	0	497511	253
972.5078125	0	taste	response	2	120	60	foodImage.19	FOODEEG_Images\0225.jpg	YN	Left	Yes	0.817572800002381	0	497925	234
974.548828125	32.392578125	n/a	blockEnd	n/a	n/a	n/a	n/a	n/a	n/a	n/a	n/a	n/a	n/a	498970	254
1006.94140625	2	n/a	blockStart	3	n/a	n/a	n/a	n/a	n/a	n/a	n/a	n/a	n/a	515555	250
1008.97265625	1	taste	trialStart	3	121	1	foodImage.111	FOODEEG_Images\0919.jpg	YN	Right	No	0.826173199999175	0	516595	251
1010.025390625	2	taste	foodImageDisplay	3	121	1	foodImage.111	FOODEEG_Images\0919.jpg	YN	Right	No	0.826173199999175	0	517134	252
1012.087890625	0.826173199999175	taste	choicePhaseStart	3	121	1	foodImage.111	FOODEEG_Images\0919.jpg	YN	Right	No	0.826173199999175	0	518190	253
1012.90625	0	taste	response	3	121	1	foodImage.111	FOODEEG_Images\0919.jpg	YN	Right	No	0.826173199999175	0	518609	235
1013.9453125	1	decision	trialStart	3	122	2	foodImage.18	FOODEEG_Images\0202.jpg	YN	Left	Yes	0.975152999999409	0	519141	251
1015.00390625	2	decision	foodImageDisplay	3	122	2	foodImage.18	FOODEEG_Images\0202.jpg	YN	Left	Yes	0.975152999999409	0	519683	252
1017.068359375	0.975152999999409	decision	choicePhaseStart	3	122	2	foodImage.18	FOODEEG_Images\0202.jpg	YN	Left	Yes	0.975152999999409	0	520740	253
1018.033203125	0	decision	response	3	122	2	foodImage.18	FOODEEG_Images\0202.jpg	YN	Left	Yes	0.975152999999409	0	521234	234
1019.08203125	1	decision	trialStart	3	123	3	foodImage.71	FOODEEG_Images\0713.jpg	YN	Left	Yes	1.37511939999968	0	521771	251
1020.125	2	decision	foodImageDisplay	3	123	3	foodImage.71	FOODEEG_Images\0713.jpg	YN	Left	Yes	1.37511939999968	0	522305	252
1022.189453125	1.37511939999968	decision	choicePhaseStart	3	123	3	foodImage.71	FOODEEG_Images\0713.jpg	YN	Left	Yes	1.37511939999968	0	523362	253
1023.5546875	0	decision	response	3	123	3	foodImage.71	FOODEEG_Images\0713.jpg	YN	Left	Yes	1.37511939999968	0	524061	234
1024.595703125	1	health	trialStart	3	124	4	foodImage.3	FOODEEG_Images\0046.jpg	YN	Right	No	0.683712099998957	0	524594	251
1025.638671875	2	health	foodImageDisplay	3	124	4	foodImage.3	FOODEEG_Images\0046.jpg	YN	Right	No	0.683712099998957	0	525128	252
1027.703125	0.683712099998957	health	choicePhaseStart	3	124	4	foodImage.3	FOODEEG_Images\0046.jpg	YN	Right	No	0.683712099998957	0	526185	253
1028.376953125	0	health	response	3	124	4	foodImage.3	FOODEEG_Images\0046.jpg	YN	Right	No	0.683712099998957	0	526530	235
1029.419921875	1	health	trialStart	3	125	5	foodImage.96	FOODEEG_Images\0904.jpg	YN	Left	Yes	1.20078690000082	0	527064	251
1030.45703125	2	health	foodImageDisplay	3	125	5	foodImage.96	FOODEEG_Images\0904.jpg	YN	Left	Yes	1.20078690000082	0	527595	252
1032.521484375	1.20078690000082	health	choicePhaseStart	3	125	5	foodImage.96	FOODEEG_Images\0904.jpg	YN	Left	Yes	1.20078690000082	0	528652	253
1033.712890625	0	health	response	3	125	5	foodImage.96	FOODEEG_Images\0904.jpg	YN	Left	Yes	1.20078690000082	0	529262	234
1034.75390625	1	decision	trialStart	3	126	6	foodImage.26	FOODEEG_Images\0262.jpg	NY	Right	Yes	0.773649200000364	0	529795	251
1035.796875	2	decision	foodImageDisplay	3	126	6	foodImage.26	FOODEEG_Images\0262.jpg	NY	Right	Yes	0.773649200000364	0	530329	252
1037.859375	0.773649200000364	decision	choicePhaseStart	3	126	6	foodImage.26	FOODEEG_Images\0262.jpg	NY	Right	Yes	0.773649200000364	0	531385	253
1038.625	0	decision	response	3	126	6	foodImage.26	FOODEEG_Images\0262.jpg	NY	Right	Yes	0.773649200000364	0	531777	235
1039.66796875	1	decision	trialStart	3	127	7	foodImage.75	FOODEEG_Images\0763.jpg	YN	Left	Yes	1.12805540000045	0	532311	251
1040.712890625	2	decision	foodImageDisplay	3	127	7	foodImage.75	FOODEEG_Images\0763.jpg	YN	Left	Yes	1.12805540000045	0	532846	252
1042.77734375	1.12805540000045	decision	choicePhaseStart	3	127	7	foodImage.75	FOODEEG_Images\0763.jpg	YN	Left	Yes	1.12805540000045	0	533903	253
1043.896484375	0	decision	response	3	127	7	foodImage.75	FOODEEG_Images\0763.jpg	YN	Left	Yes	1.12805540000045	0	534476	234
1044.939453125	1	health	trialStart	3	128	8	foodImage.12	FOODEEG_Images\0181.jpg	YN	Left	Yes	1.14663120000114	0	535010	251
1045.982421875	2	health	foodImageDisplay	3	128	8	foodImage.12	FOODEEG_Images\0181.jpg	YN	Left	Yes	1.14663120000114	0	535544	252
1048.046875	1.14663120000114	health	choicePhaseStart	3	128	8	foodImage.12	FOODEEG_Images\0181.jpg	YN	Left	Yes	1.14663120000114	0	536601	253
1049.18359375	0	health	response	3	128	8	foodImage.12	FOODEEG_Images\0181.jpg	YN	Left	Yes	1.14663120000114	0	537183	234
1050.224609375	1	taste	trialStart	3	129	9	foodImage.104	FOODEEG_Images\0912.jpg	YN	Left	Yes	1.1406422	0	537716	251
1051.26171875	2	taste	foodImageDisplay	3	129	9	foodImage.104	FOODEEG_Images\0912.jpg	YN	Left	Yes	1.1406422	0	538247	252
1053.32421875	1.1406422	taste	choicePhaseStart	3	129	9	foodImage.104	FOODEEG_Images\0912.jpg	YN	Left	Yes	1.1406422	0	539303	253
1054.45703125	0	taste	response	3	129	9	foodImage.104	FOODEEG_Images\0912.jpg	YN	Left	Yes	1.1406422	0	539883	234
1055.5	1	decision	trialStart	3	130	10	foodImage.54	FOODEEG_Images\0560.jpg	NY	Right	Yes	1.15377470000021	0	540417	251
1056.576171875	2	decision	foodImageDisplay	3	130	10	foodImage.54	FOODEEG_Images\0560.jpg	NY	Right	Yes	1.15377470000021	0	540968	252
1058.638671875	1.15377470000021	decision	choicePhaseStart	3	130	10	foodImage.54	FOODEEG_Images\0560.jpg	NY	Right	Yes	1.15377470000021	0	542024	253
1059.78515625	0	decision	response	3	130	10	foodImage.54	FOODEEG_Images\0560.jpg	NY	Right	Yes	1.15377470000021	0	542611	235
1060.826171875	1	decision	trialStart	3	131	11	foodImage.63	FOODEEG_Images\0645.jpg	NY	Right	Yes	0.589959199998702	0	543144	251
1061.869140625	2	decision	foodImageDisplay	3	131	11	foodImage.63	FOODEEG_Images\0645.jpg	NY	Right	Yes	0.589959199998702	0	543678	252
1063.931640625	0.589959199998702	decision	choicePhaseStart	3	131	11	foodImage.63	FOODEEG_Images\0645.jpg	NY	Right	Yes	0.589959199998702	0	544734	253
1064.51171875	0	decision	response	3	131	11	foodImage.63	FOODEEG_Images\0645.jpg	NY	Right	Yes	0.589959199998702	0	545031	235
1065.5546875	1	decision	trialStart	3	132	12	foodImage.102	FOODEEG_Images\0910.jpg	YN	Right	No	0.664451800003008	0	545565	251
1066.59375	2	decision	foodImageDisplay	3	132	12	foodImage.102	FOODEEG_Images\0910.jpg	YN	Right	No	0.664451800003008	0	546097	252
1068.6640625	0.664451800003008	decision	choicePhaseStart	3	132	12	foodImage.102	FOODEEG_Images\0910.jpg	YN	Right	No	0.664451800003008	0	547157	253
1069.3203125	0	decision	response	3	132	12	foodImage.102	FOODEEG_Images\0910.jpg	YN	Right	No	0.664451800003008	0	547493	235
1070.36328125	1	decision	trialStart	3	133	13	foodImage.22	FOODEEG_Images\0236.jpg	NY	Right	Yes	1.36479949999921	0	548027	251
1071.404296875	2	decision	foodImageDisplay	3	133	13	foodImage.22	FOODEEG_Images\0236.jpg	NY	Right	Yes	1.36479949999921	0	548560	252
1073.46875	1.36479949999921	decision	choicePhaseStart	3	133	13	foodImage.22	FOODEEG_Images\0236.jpg	NY	Right	Yes	1.36479949999921	0	549617	253
1074.82421875	0	decision	response	3	133	13	foodImage.22	FOODEEG_Images\0236.jpg	NY	Right	Yes	1.36479949999921	0	550311	235
1075.86328125	1	health	trialStart	3	134	14	foodImage.45	FOODEEG_Images\0478.jpg	YN	Left	Yes	1.10379939999984	0	550843	251
1076.908203125	2	health	foodImageDisplay	3	134	14	foodImage.45	FOODEEG_Images\0478.jpg	YN	Left	Yes	1.10379939999984	0	551378	252
1078.9765625	1.10379939999984	health	choicePhaseStart	3	134	14	foodImage.45	FOODEEG_Images\0478.jpg	YN	Left	Yes	1.10379939999984	0	552437	253
1080.0703125	0	health	response	3	134	14	foodImage.45	FOODEEG_Images\0478.jpg	YN	Left	Yes	1.10379939999984	0	552997	234
1081.115234375	1	health	trialStart	3	135	15	foodImage.9	FOODEEG_Images\0138.jpg	YN	Right	No	1.19107989999975	0	553532	251
1082.169921875	2	health	foodImageDisplay	3	135	15	foodImage.9	FOODEEG_Images\0138.jpg	YN	Right	No	1.19107989999975	0	554072	252
1084.234375	1.19107989999975	health	choicePhaseStart	3	135	15	foodImage.9	FOODEEG_Images\0138.jpg	YN	Right	No	1.19107989999975	0	555129	253
1085.416015625	0	health	response	3	135	15	foodImage.9	FOODEEG_Images\0138.jpg	YN	Right	No	1.19107989999975	0	555734	235
1086.455078125	1	decision	trialStart	3	136	16	foodImage.27	FOODEEG_Images\0263.jpg	NY	Right	Yes	0.96716060000108	0	556266	251
1087.49609375	2	decision	foodImageDisplay	3	136	16	foodImage.27	FOODEEG_Images\0263.jpg	NY	Right	Yes	0.96716060000108	0	556799	252
1089.560546875	0.96716060000108	decision	choicePhaseStart	3	136	16	foodImage.27	FOODEEG_Images\0263.jpg	NY	Right	Yes	0.96716060000108	0	557856	253
1090.51953125	0	decision	response	3	136	16	foodImage.27	FOODEEG_Images\0263.jpg	NY	Right	Yes	0.96716060000108	0	558347	235
1091.5625	1	taste	trialStart	3	137	17	foodImage.116	FOODEEG_Images\0924.jpg	NY	Left	No	1.12774499999796	0	558881	251
1092.6015625	2	taste	foodImageDisplay	3	137	17	foodImage.116	FOODEEG_Images\0924.jpg	NY	Left	No	1.12774499999796	0	559413	252
1094.6640625	1.12774499999796	taste	choicePhaseStart	3	137	17	foodImage.116	FOODEEG_Images\0924.jpg	NY	Left	No	1.12774499999796	0	560469	253
1095.783203125	0	taste	response	3	137	17	foodImage.116	FOODEEG_Images\0924.jpg	NY	Left	No	1.12774499999796	0	561042	234
1096.826171875	1	taste	trialStart	3	138	18	foodImage.4	FOODEEG_Images\0065.jpg	YN	Left	Yes	0.778811299998779	0	561576	251
1097.884765625	2	taste	foodImageDisplay	3	138	18	foodImage.4	FOODEEG_Images\0065.jpg	YN	Left	Yes	0.778811299998779	0	562118	252
1099.94921875	0.778811299998779	taste	choicePhaseStart	3	138	18	foodImage.4	FOODEEG_Images\0065.jpg	YN	Left	Yes	0.778811299998779	0	563175	253
1100.71875	0	taste	response	3	138	18	foodImage.4	FOODEEG_Images\0065.jpg	YN	Left	Yes	0.778811299998779	0	563569	234
1101.76171875	1	decision	trialStart	3	139	19	foodImage.7	FOODEEG_Images\0116.jpg	YN	Left	Yes	0.79566810000324	0	564103	251
1102.802734375	2	decision	foodImageDisplay	3	139	19	foodImage.7	FOODEEG_Images\0116.jpg	YN	Left	Yes	0.79566810000324	0	564636	252
1104.8671875	0.79566810000324	decision	choicePhaseStart	3	139	19	foodImage.7	FOODEEG_Images\0116.jpg	YN	Left	Yes	0.79566810000324	0	565693	253
1105.654296875	0	decision	response	3	139	19	foodImage.7	FOODEEG_Images\0116.jpg	YN	Left	Yes	0.79566810000324	0	566096	234
1106.697265625	1	taste	trialStart	3	140	20	foodImage.63	FOODEEG_Images\0645.jpg	NY	Right	Yes	0.789944100000866	0	566630	251
1107.740234375	2	taste	foodImageDisplay	3	140	20	foodImage.63	FOODEEG_Images\0645.jpg	NY	Right	Yes	0.789944100000866	0	567164	252
1109.802734375	0.789944100000866	taste	choicePhaseStart	3	140	20	foodImage.63	FOODEEG_Images\0645.jpg	NY	Right	Yes	0.789944100000866	0	568220	253
1110.58203125	0	taste	response	3	140	20	foodImage.63	FOODEEG_Images\0645.jpg	NY	Right	Yes	0.789944100000866	0	568619	235
1111.625	1	health	trialStart	3	141	21	foodImage.91	FOODEEG_Images\0896.jpg	NY	Left	No	1.23114020000139	0	569153	251
1112.693359375	2	health	foodImageDisplay	3	141	21	foodImage.91	FOODEEG_Images\0896.jpg	NY	Left	No	1.23114020000139	0	569700	252
1114.759765625	1.23114020000139	health	choicePhaseStart	3	141	21	foodImage.91	FOODEEG_Images\0896.jpg	NY	Left	No	1.23114020000139	0	570758	253
1115.982421875	0	health	response	3	141	21	foodImage.91	FOODEEG_Images\0896.jpg	NY	Left	No	1.23114020000139	0	571384	234
1117.025390625	1	taste	trialStart	3	142	22	foodImage.48	FOODEEG_Images\0494.jpg	NY	Left	No	1.43806470000345	0	571918	251
1118.06640625	2	taste	foodImageDisplay	3	142	22	foodImage.48	FOODEEG_Images\0494.jpg	NY	Left	No	1.43806470000345	0	572451	252
1120.12890625	1.43806470000345	taste	choicePhaseStart	3	142	22	foodImage.48	FOODEEG_Images\0494.jpg	NY	Left	No	1.43806470000345	0	573507	253
1121.55859375	0	taste	response	3	142	22	foodImage.48	FOODEEG_Images\0494.jpg	NY	Left	No	1.43806470000345	0	574239	234
1122.6015625	1	health	trialStart	3	143	23	foodImage.98	FOODEEG_Images\0906.jpg	NY	Right	Yes	0.824738600000273	0	574773	251
1123.638671875	2	health	foodImageDisplay	3	143	23	foodImage.98	FOODEEG_Images\0906.jpg	NY	Right	Yes	0.824738600000273	0	575304	252
1125.703125	0.824738600000273	health	choicePhaseStart	3	143	23	foodImage.98	FOODEEG_Images\0906.jpg	NY	Right	Yes	0.824738600000273	0	576361	253
1126.517578125	0	health	response	3	143	23	foodImage.98	FOODEEG_Images\0906.jpg	NY	Right	Yes	0.824738600000273	0	576778	235
1127.560546875	1	decision	trialStart	3	144	24	foodImage.56	FOODEEG_Images\0586.jpg	YN	Left	Yes	0.644305499998154	0	577312	251
1128.603515625	2	decision	foodImageDisplay	3	144	24	foodImage.56	FOODEEG_Images\0586.jpg	YN	Left	Yes	0.644305499998154	0	577846	252
1130.66796875	0.644305499998154	decision	choicePhaseStart	3	144	24	foodImage.56	FOODEEG_Images\0586.jpg	YN	Left	Yes	0.644305499998154	0	578903	253
1131.30078125	0	decision	response	3	144	24	foodImage.56	FOODEEG_Images\0586.jpg	YN	Left	Yes	0.644305499998154	0	579227	234
1132.34375	1	taste	trialStart	3	145	25	foodImage.84	FOODEEG_Images\0830.jpg	YN	Left	Yes	1.13476140000057	0	579761	251
1133.400390625	2	taste	foodImageDisplay	3	145	25	foodImage.84	FOODEEG_Images\0830.jpg	YN	Left	Yes	1.13476140000057	0	580302	252
1135.462890625	1.13476140000057	taste	choicePhaseStart	3	145	25	foodImage.84	FOODEEG_Images\0830.jpg	YN	Left	Yes	1.13476140000057	0	581358	253
1136.58984375	0	taste	response	3	145	25	foodImage.84	FOODEEG_Images\0830.jpg	YN	Left	Yes	1.13476140000057	0	581935	234
1137.6328125	1	taste	trialStart	3	146	26	foodImage.79	FOODEEG_Images\0794.jpg	NY	Right	Yes	0.634246900001017	0	582469	251
1138.685546875	2	taste	foodImageDisplay	3	146	26	foodImage.79	FOODEEG_Images\0794.jpg	NY	Right	Yes	0.634246900001017	0	583008	252
1140.748046875	0.634246900001017	taste	choicePhaseStart	3	146	26	foodImage.79	FOODEEG_Images\0794.jpg	NY	Right	Yes	0.634246900001017	0	584064	253
1141.373046875	0	taste	response	3	146	26	foodImage.79	FOODEEG_Images\0794.jpg	NY	Right	Yes	0.634246900001017	0	584384	235
1142.423828125	1	health	trialStart	3	147	27	foodImage.49	FOODEEG_Images\0515.jpg	NY	Left	No	1.47546289999809	0	584922	251
1143.466796875	2	health	foodImageDisplay	3	147	27	foodImage.49	FOODEEG_Images\0515.jpg	NY	Left	No	1.47546289999809	0	585456	252
1145.529296875	1.47546289999809	health	choicePhaseStart	3	147	27	foodImage.49	FOODEEG_Images\0515.jpg	NY	Left	No	1.47546289999809	0	586512	253
1146.99609375	0	health	response	3	147	27	foodImage.49	FOODEEG_Images\0515.jpg	NY	Left	No	1.47546289999809	0	587263	234
1148.0390625	1	decision	trialStart	3	148	28	foodImage.80	FOODEEG_Images\0796.jpg	NY	Right	Yes	1.08043859999816	0	587797	251
1149.095703125	2	decision	foodImageDisplay	3	148	28	foodImage.80	FOODEEG_Images\0796.jpg	NY	Right	Yes	1.08043859999816	0	588338	252
1151.1640625	1.08043859999816	decision	choicePhaseStart	3	148	28	foodImage.80	FOODEEG_Images\0796.jpg	NY	Right	Yes	1.08043859999816	0	589397	253
1152.236328125	0	decision	response	3	148	28	foodImage.80	FOODEEG_Images\0796.jpg	NY	Right	Yes	1.08043859999816	0	589946	235
1153.279296875	1	decision	trialStart	3	149	29	foodImage.115	FOODEEG_Images\0923.jpg	NY	Left	No	1.07769819999885	0	590480	251
1154.3203125	2	decision	foodImageDisplay	3	149	29	foodImage.115	FOODEEG_Images\0923.jpg	NY	Left	No	1.07769819999885	0	591013	252
1156.384765625	1.07769819999885	decision	choicePhaseStart	3	149	29	foodImage.115	FOODEEG_Images\0923.jpg	NY	Left	No	1.07769819999885	0	592070	253
1157.453125	0	decision	response	3	149	29	foodImage.115	FOODEEG_Images\0923.jpg	NY	Left	No	1.07769819999885	0	592617	234
1158.494140625	1	health	trialStart	3	150	30	foodImage.99	FOODEEG_Images\0907.jpg	YN	Right	No	0.779578899997432	0	593150	251
1159.5390625	2	health	foodImageDisplay	3	150	30	foodImage.99	FOODEEG_Images\0907.jpg	YN	Right	No	0.779578899997432	0	593685	252
1161.6015625	0.779578899997432	health	choicePhaseStart	3	150	30	foodImage.99	FOODEEG_Images\0907.jpg	YN	Right	No	0.779578899997432	0	594741	253
1162.373046875	0	health	response	3	150	30	foodImage.99	FOODEEG_Images\0907.jpg	YN	Right	No	0.779578899997432	0	595136	235
1163.416015625	1	taste	trialStart	3	151	31	foodImage.44	FOODEEG_Images\0459.jpg	YN	Left	Yes	1.26642509999874	0	595670	251
1164.458984375	2	taste	foodImageDisplay	3	151	31	foodImage.44	FOODEEG_Images\0459.jpg	YN	Left	Yes	1.26642509999874	0	596204	252
1166.5234375	1.26642509999874	taste	choicePhaseStart	3	151	31	foodImage.44	FOODEEG_Images\0459.jpg	YN	Left	Yes	1.26642509999874	0	597261	253
1167.779296875	0	taste	response	3	151	31	foodImage.44	FOODEEG_Images\0459.jpg	YN	Left	Yes	1.26642509999874	0	597904	234
1168.8203125	1	decision	trialStart	3	152	32	foodImage.69	FOODEEG_Images\0693.jpg	NY	Right	Yes	0.978637699998217	0	598437	251
1169.87890625	2	decision	foodImageDisplay	3	152	32	foodImage.69	FOODEEG_Images\0693.jpg	NY	Right	Yes	0.978637699998217	0	598979	252
1171.943359375	0.978637699998217	decision	choicePhaseStart	3	152	32	foodImage.69	FOODEEG_Images\0693.jpg	NY	Right	Yes	0.978637699998217	0	600036	253
1172.916015625	0	decision	response	3	152	32	foodImage.69	FOODEEG_Images\0693.jpg	NY	Right	Yes	0.978637699998217	0	600534	235
1173.95703125	1	health	trialStart	3	153	33	foodImage.108	FOODEEG_Images\0916.jpg	NY	Left	No	0.825590600001306	0	601067	251
1174.99609375	2	health	foodImageDisplay	3	153	33	foodImage.108	FOODEEG_Images\0916.jpg	NY	Left	No	0.825590600001306	0	601599	252
1177.060546875	0.825590600001306	health	choicePhaseStart	3	153	33	foodImage.108	FOODEEG_Images\0916.jpg	NY	Left	No	0.825590600001306	0	602656	253
1177.875	0	health	response	3	153	33	foodImage.108	FOODEEG_Images\0916.jpg	NY	Left	No	0.825590600001306	0	603073	234
1178.91796875	1	decision	trialStart	3	154	34	foodImage.83	FOODEEG_Images\0827.jpg	YN	Left	Yes	0.740633100002015	0	603607	251
1179.9765625	2	decision	foodImageDisplay	3	154	34	foodImage.83	FOODEEG_Images\0827.jpg	YN	Left	Yes	0.740633100002015	0	604149	252
1182.041015625	0.740633100002015	decision	choicePhaseStart	3	154	34	foodImage.83	FOODEEG_Images\0827.jpg	YN	Left	Yes	0.740633100002015	0	605206	253
1182.771484375	0	decision	response	3	154	34	foodImage.83	FOODEEG_Images\0827.jpg	YN	Left	Yes	0.740633100002015	0	605580	234
1183.82421875	1	taste	trialStart	3	155	35	foodImage.17	FOODEEG_Images\0199.jpg	NY	Left	No	1.29204289999689	0	606119	251
1184.8671875	2	taste	foodImageDisplay	3	155	35	foodImage.17	FOODEEG_Images\0199.jpg	NY	Left	No	1.29204289999689	0	606653	252
1186.9296875	1.29204289999689	taste	choicePhaseStart	3	155	35	foodImage.17	FOODEEG_Images\0199.jpg	NY	Left	No	1.29204289999689	0	607709	253
1188.2109375	0	taste	response	3	155	35	foodImage.17	FOODEEG_Images\0199.jpg	NY	Left	No	1.29204289999689	0	608365	234
1189.251953125	1	taste	trialStart	3	156	36	foodImage.112	FOODEEG_Images\0920.jpg	YN	Right	No	1.22676280000087	0	608898	251
1190.291015625	2	taste	foodImageDisplay	3	156	36	foodImage.112	FOODEEG_Images\0920.jpg	YN	Right	No	1.22676280000087	0	609430	252
1192.353515625	1.22676280000087	taste	choicePhaseStart	3	156	36	foodImage.112	FOODEEG_Images\0920.jpg	YN	Right	No	1.22676280000087	0	610486	253
1193.5703125	0	taste	response	3	156	36	foodImage.112	FOODEEG_Images\0920.jpg	YN	Right	No	1.22676280000087	0	611109	235
1194.61328125	1	health	trialStart	3	157	37	foodImage.105	FOODEEG_Images\0913.jpg	YN	Left	Yes	0.680051499999536	0	611643	251
1195.650390625	2	health	foodImageDisplay	3	157	37	foodImage.105	FOODEEG_Images\0913.jpg	YN	Left	Yes	0.680051499999536	0	612174	252
1197.71484375	0.680051499999536	health	choicePhaseStart	3	157	37	foodImage.105	FOODEEG_Images\0913.jpg	YN	Left	Yes	0.680051499999536	0	613231	253
1198.38671875	0	health	response	3	157	37	foodImage.105	FOODEEG_Images\0913.jpg	YN	Left	Yes	0.680051499999536	0	613575	234
1199.435546875	1	health	trialStart	3	158	38	foodImage.15	FOODEEG_Images\0189.jpg	YN	Right	No	1.24006910000026	0	614112	251
1200.4921875	2	health	foodImageDisplay	3	158	38	foodImage.15	FOODEEG_Images\0189.jpg	YN	Right	No	1.24006910000026	0	614653	252
1202.560546875	1.24006910000026	health	choicePhaseStart	3	158	38	foodImage.15	FOODEEG_Images\0189.jpg	YN	Right	No	1.24006910000026	0	615712	253
1203.794921875	0	health	response	3	158	38	foodImage.15	FOODEEG_Images\0189.jpg	YN	Right	No	1.24006910000026	0	616344	235
1204.837890625	1	taste	trialStart	3	159	39	foodImage.106	FOODEEG_Images\0914.jpg	YN	Right	No	0.983431200002087	0	616878	251
1205.876953125	2	taste	foodImageDisplay	3	159	39	foodImage.106	FOODEEG_Images\0914.jpg	YN	Right	No	0.983431200002087	0	617410	252
1207.939453125	0.983431200002087	taste	choicePhaseStart	3	159	39	foodImage.106	FOODEEG_Images\0914.jpg	YN	Right	No	0.983431200002087	0	618466	253
1208.9140625	0	taste	response	3	159	39	foodImage.106	FOODEEG_Images\0914.jpg	YN	Right	No	0.983431200002087	0	618965	235
1209.95703125	1	taste	trialStart	3	160	40	foodImage.120	FOODEEG_Images\0928.jpg	NY	Left	No	1.17594880000252	0	619499	251
1210.99609375	2	taste	foodImageDisplay	3	160	40	foodImage.120	FOODEEG_Images\0928.jpg	NY	Left	No	1.17594880000252	0	620031	252
1213.060546875	1.17594880000252	taste	choicePhaseStart	3	160	40	foodImage.120	FOODEEG_Images\0928.jpg	NY	Left	No	1.17594880000252	0	621088	253
1214.2265625	0	taste	response	3	160	40	foodImage.120	FOODEEG_Images\0928.jpg	NY	Left	No	1.17594880000252	0	621685	234
1215.26953125	1	decision	trialStart	3	161	41	foodImage.35	FOODEEG_Images\0350.jpg	YN	Left	Yes	0.760912699999608	0	622219	251
1216.306640625	2	decision	foodImageDisplay	3	161	41	foodImage.35	FOODEEG_Images\0350.jpg	YN	Left	Yes	0.760912699999608	0	622750	252
1218.369140625	0.760912699999608	decision	choicePhaseStart	3	161	41	foodImage.35	FOODEEG_Images\0350.jpg	YN	Left	Yes	0.760912699999608	0	623806	253
1219.12109375	0	decision	response	3	161	41	foodImage.35	FOODEEG_Images\0350.jpg	YN	Left	Yes	0.760912699999608	0	624191	234
1220.1796875	1	taste	trialStart	3	162	42	foodImage.114	FOODEEG_Images\0922.jpg	NY	Left	No	1.42389940000066	0	624733	251
1221.21875	2	taste	foodImageDisplay	3	162	42	foodImage.114	FOODEEG_Images\0922.jpg	NY	Left	No	1.42389940000066	0	625265	252
1223.283203125	1.42389940000066	taste	choicePhaseStart	3	162	42	foodImage.114	FOODEEG_Images\0922.jpg	NY	Left	No	1.42389940000066	0	626322	253
1224.697265625	0	taste	response	3	162	42	foodImage.114	FOODEEG_Images\0922.jpg	NY	Left	No	1.42389940000066	0	627046	234
1225.73828125	1	taste	trialStart	3	163	43	foodImage.82	FOODEEG_Images\0805.jpg	YN	Left	Yes	0.78770440000153	0	627579	251
1226.79296875	2	taste	foodImageDisplay	3	163	43	foodImage.82	FOODEEG_Images\0805.jpg	YN	Left	Yes	0.78770440000153	0	628119	252
1228.85546875	0.78770440000153	taste	choicePhaseStart	3	163	43	foodImage.82	FOODEEG_Images\0805.jpg	YN	Left	Yes	0.78770440000153	0	629175	253
1229.6328125	0	taste	response	3	163	43	foodImage.82	FOODEEG_Images\0805.jpg	YN	Left	Yes	0.78770440000153	0	629573	234
1230.67578125	1	decision	trialStart	3	164	44	foodImage.64	FOODEEG_Images\0647.jpg	YN	Left	Yes	1.05350420000104	0	630107	251
1231.734375	2	decision	foodImageDisplay	3	164	44	foodImage.64	FOODEEG_Images\0647.jpg	YN	Left	Yes	1.05350420000104	0	630649	252
1233.796875	1.05350420000104	decision	choicePhaseStart	3	164	44	foodImage.64	FOODEEG_Images\0647.jpg	YN	Left	Yes	1.05350420000104	0	631705	253
1234.841796875	0	decision	response	3	164	44	foodImage.64	FOODEEG_Images\0647.jpg	YN	Left	Yes	1.05350420000104	0	632240	234
1235.8828125	1	decision	trialStart	3	165	45	foodImage.39	FOODEEG_Images\0367.jpg	NY	Right	Yes	0.94217159999971	0	632773	251
1236.92578125	2	decision	foodImageDisplay	3	165	45	foodImage.39	FOODEEG_Images\0367.jpg	NY	Right	Yes	0.94217159999971	0	633307	252
1238.98828125	0.94217159999971	decision	choicePhaseStart	3	165	45	foodImage.39	FOODEEG_Images\0367.jpg	NY	Right	Yes	0.94217159999971	0	634363	253
1239.921875	0	decision	response	3	165	45	foodImage.39	FOODEEG_Images\0367.jpg	NY	Right	Yes	0.94217159999971	0	634841	235
1240.962890625	1	taste	trialStart	3	166	46	foodImage.109	FOODEEG_Images\0917.jpg	YN	Left	Yes	0.961702699998568	0	635374	251
1242	2	taste	foodImageDisplay	3	166	46	foodImage.109	FOODEEG_Images\0917.jpg	YN	Left	Yes	0.961702699998568	0	635905	252
1244.064453125	0.961702699998568	taste	choicePhaseStart	3	166	46	foodImage.109	FOODEEG_Images\0917.jpg	YN	Left	Yes	0.961702699998568	0	636962	253
1245.017578125	0	taste	response	3	166	46	foodImage.109	FOODEEG_Images\0917.jpg	YN	Left	Yes	0.961702699998568	0	637450	234
1246.056640625	1	decision	trialStart	3	167	47	foodImage.34	FOODEEG_Images\0339.jpg	YN	Right	No	1.58685120000155	0	637982	251
1247.111328125	2	decision	foodImageDisplay	3	167	47	foodImage.34	FOODEEG_Images\0339.jpg	YN	Right	No	1.58685120000155	0	638522	252
1249.17578125	1.58685120000155	decision	choicePhaseStart	3	167	47	foodImage.34	FOODEEG_Images\0339.jpg	YN	Right	No	1.58685120000155	0	639579	253
1250.751953125	0	decision	response	3	167	47	foodImage.34	FOODEEG_Images\0339.jpg	YN	Right	No	1.58685120000155	0	640386	235
1251.794921875	1	taste	trialStart	3	168	48	foodImage.105	FOODEEG_Images\0913.jpg	NY	Right	Yes	1.03302729999996	0	640920	251
1252.83203125	2	taste	foodImageDisplay	3	168	48	foodImage.105	FOODEEG_Images\0913.jpg	NY	Right	Yes	1.03302729999996	0	641451	252
1254.896484375	1.03302729999996	taste	choicePhaseStart	3	168	48	foodImage.105	FOODEEG_Images\0913.jpg	NY	Right	Yes	1.03302729999996	0	642508	253
1255.919921875	0	taste	response	3	168	48	foodImage.105	FOODEEG_Images\0913.jpg	NY	Right	Yes	1.03302729999996	0	643032	235
1256.962890625	1	health	trialStart	3	169	49	foodImage.53	FOODEEG_Images\0547.jpg	YN	Right	No	1.18846009999834	0	643566	251
1258.01953125	2	health	foodImageDisplay	3	169	49	foodImage.53	FOODEEG_Images\0547.jpg	YN	Right	No	1.18846009999834	0	644107	252
1260.08203125	1.18846009999834	health	choicePhaseStart	3	169	49	foodImage.53	FOODEEG_Images\0547.jpg	YN	Right	No	1.18846009999834	0	645163	253
1261.263671875	0	health	response	3	169	49	foodImage.53	FOODEEG_Images\0547.jpg	YN	Right	No	1.18846009999834	0	645768	235
1262.30859375	1	health	trialStart	3	170	50	foodImage.120	FOODEEG_Images\0928.jpg	YN	Right	No	1.35340609999912	0	646303	251
1263.345703125	2	health	foodImageDisplay	3	170	50	foodImage.120	FOODEEG_Images\0928.jpg	YN	Right	No	1.35340609999912	0	646834	252
1265.408203125	1.35340609999912	health	choicePhaseStart	3	170	50	foodImage.120	FOODEEG_Images\0928.jpg	YN	Right	No	1.35340609999912	0	647890	253
1266.751953125	0	health	response	3	170	50	foodImage.120	FOODEEG_Images\0928.jpg	YN	Right	No	1.35340609999912	0	648578	235
1267.794921875	1	health	trialStart	3	171	51	foodImage.111	FOODEEG_Images\0919.jpg	NY	Left	No	0.753431999997701	0	649112	251
1268.83203125	2	health	foodImageDisplay	3	171	51	foodImage.111	FOODEEG_Images\0919.jpg	NY	Left	No	0.753431999997701	0	649643	252
1270.896484375	0.753431999997701	health	choicePhaseStart	3	171	51	foodImage.111	FOODEEG_Images\0919.jpg	NY	Left	No	0.753431999997701	0	650700	253
1271.640625	0	health	response	3	171	51	foodImage.111	FOODEEG_Images\0919.jpg	NY	Left	No	0.753431999997701	0	651081	234
1272.68359375	1	decision	trialStart	3	172	52	foodImage.72	FOODEEG_Images\0714.jpg	YN	Left	Yes	0.899481399999786	0	651615	251
1273.724609375	2	decision	foodImageDisplay	3	172	52	foodImage.72	FOODEEG_Images\0714.jpg	YN	Left	Yes	0.899481399999786	0	652148	252
1275.787109375	0.899481399999786	decision	choicePhaseStart	3	172	52	foodImage.72	FOODEEG_Images\0714.jpg	YN	Left	Yes	0.899481399999786	0	653204	253
1276.6796875	0	decision	response	3	172	52	foodImage.72	FOODEEG_Images\0714.jpg	YN	Left	Yes	0.899481399999786	0	653661	234
1277.72265625	1	taste	trialStart	3	173	53	foodImage.113	FOODEEG_Images\0921.jpg	NY	Right	Yes	1.45484179999767	0	654195	251
1278.76171875	2	taste	foodImageDisplay	3	173	53	foodImage.113	FOODEEG_Images\0921.jpg	NY	Right	Yes	1.45484179999767	0	654727	252
1280.826171875	1.45484179999767	taste	choicePhaseStart	3	173	53	foodImage.113	FOODEEG_Images\0921.jpg	NY	Right	Yes	1.45484179999767	0	655784	253
1282.271484375	0	taste	response	3	173	53	foodImage.113	FOODEEG_Images\0921.jpg	NY	Right	Yes	1.45484179999767	0	656524	235
1283.31640625	1	decision	trialStart	3	174	54	foodImage.29	FOODEEG_Images\0278.jpg	YN	Right	No	0.642870200001198	0	657059	251
1284.357421875	2	decision	foodImageDisplay	3	174	54	foodImage.29	FOODEEG_Images\0278.jpg	YN	Right	No	0.642870200001198	0	657592	252
1286.421875	0.642870200001198	decision	choicePhaseStart	3	174	54	foodImage.29	FOODEEG_Images\0278.jpg	YN	Right	No	0.642870200001198	0	658649	253
1287.0546875	0	decision	response	3	174	54	foodImage.29	FOODEEG_Images\0278.jpg	YN	Right	No	0.642870200001198	0	658973	235
1288.09765625	1	taste	trialStart	3	175	55	foodImage.25	FOODEEG_Images\0261.jpg	NY	Left	No	1.49183120000089	0	659507	251
1289.140625	2	taste	foodImageDisplay	3	175	55	foodImage.25	FOODEEG_Images\0261.jpg	NY	Left	No	1.49183120000089	0	660041	252
1291.205078125	1.49183120000089	taste	choicePhaseStart	3	175	55	foodImage.25	FOODEEG_Images\0261.jpg	NY	Left	No	1.49183120000089	0	661098	253
1292.6875	0	taste	response	3	175	55	foodImage.25	FOODEEG_Images\0261.jpg	NY	Left	No	1.49183120000089	0	661857	234
1293.73046875	1	health	trialStart	3	176	56	foodImage.90	FOODEEG_Images\0890.jpg	YN	Left	Yes	1.38404660000015	0	662391	251
1294.7890625	2	health	foodImageDisplay	3	176	56	foodImage.90	FOODEEG_Images\0890.jpg	YN	Left	Yes	1.38404660000015	0	662933	252
1296.853515625	1.38404660000015	health	choicePhaseStart	3	176	56	foodImage.90	FOODEEG_Images\0890.jpg	YN	Left	Yes	1.38404660000015	0	663990	253
1298.23046875	0	health	response	3	176	56	foodImage.90	FOODEEG_Images\0890.jpg	YN	Left	Yes	1.38404660000015	0	664695	234
1299.271484375	1	taste	trialStart	3	177	57	foodImage.15	FOODEEG_Images\0189.jpg	YN	Left	Yes	0.702940200000739	0	665228	251
1300.328125	2	taste	foodImageDisplay	3	177	57	foodImage.15	FOODEEG_Images\0189.jpg	YN	Left	Yes	0.702940200000739	0	665769	252
1302.392578125	0.702940200000739	taste	choicePhaseStart	3	177	57	foodImage.15	FOODEEG_Images\0189.jpg	YN	Left	Yes	0.702940200000739	0	666826	253
1303.0859375	0	taste	response	3	177	57	foodImage.15	FOODEEG_Images\0189.jpg	YN	Left	Yes	0.702940200000739	0	667181	234
1304.12890625	1	decision	trialStart	3	178	58	foodImage.62	FOODEEG_Images\0644.jpg	YN	Right	No	1.36883200000011	0	667715	251
1305.205078125	2	decision	foodImageDisplay	3	178	58	foodImage.62	FOODEEG_Images\0644.jpg	YN	Right	No	1.36883200000011	0	668266	252
1307.271484375	1.36883200000011	decision	choicePhaseStart	3	178	58	foodImage.62	FOODEEG_Images\0644.jpg	YN	Right	No	1.36883200000011	0	669324	253
1308.630859375	0	decision	response	3	178	58	foodImage.62	FOODEEG_Images\0644.jpg	YN	Right	No	1.36883200000011	0	670020	235
1309.6796875	1	taste	trialStart	3	179	59	foodImage.75	FOODEEG_Images\0763.jpg	YN	Left	Yes	1.09792959999686	0	670557	251
1310.72265625	2	taste	foodImageDisplay	3	179	59	foodImage.75	FOODEEG_Images\0763.jpg	YN	Left	Yes	1.09792959999686	0	671091	252
1312.7890625	1.09792959999686	taste	choicePhaseStart	3	179	59	foodImage.75	FOODEEG_Images\0763.jpg	YN	Left	Yes	1.09792959999686	0	672149	253
1313.87890625	0	taste	response	3	179	59	foodImage.75	FOODEEG_Images\0763.jpg	YN	Left	Yes	1.09792959999686	0	672707	234
1314.921875	1	health	trialStart	3	180	60	foodImage.28	FOODEEG_Images\0273.jpg	NY	Right	Yes	1.47115249999842	0	673241	251
1315.962890625	2	health	foodImageDisplay	3	180	60	foodImage.28	FOODEEG_Images\0273.jpg	NY	Right	Yes	1.47115249999842	0	673774	252
1318.033203125	1.47115249999842	health	choicePhaseStart	3	180	60	foodImage.28	FOODEEG_Images\0273.jpg	NY	Right	Yes	1.47115249999842	0	674834	253
1319.494140625	0	health	response	3	180	60	foodImage.28	FOODEEG_Images\0273.jpg	NY	Right	Yes	1.47115249999842	0	675582	235
1321.53515625	20.947265625	n/a	blockEnd	n/a	n/a	n/a	n/a	n/a	n/a	n/a	n/a	n/a	n/a	676627	254
1342.482421875	2	n/a	blockStart	4	n/a	n/a	n/a	n/a	n/a	n/a	n/a	n/a	n/a	687352	250
1344.513671875	1	decision	trialStart	4	181	1	foodImage.66	FOODEEG_Images\0676.jpg	NY	Right	Yes	0.757617399998708	0	688392	251
1345.552734375	2	decision	foodImageDisplay	4	181	1	foodImage.66	FOODEEG_Images\0676.jpg	NY	Right	Yes	0.757617399998708	0	688924	252
1347.615234375	0.757617399998708	decision	choicePhaseStart	4	181	1	foodImage.66	FOODEEG_Images\0676.jpg	NY	Right	Yes	0.757617399998708	0	689980	253
1348.365234375	0	decision	response	4	181	1	foodImage.66	FOODEEG_Images\0676.jpg	NY	Right	Yes	0.757617399998708	0	690364	235
1349.404296875	1	health	trialStart	4	182	2	foodImage.31	FOODEEG_Images\0294.jpg	YN	Right	No	1.22786220000125	0	690896	251
1350.4453125	2	health	foodImageDisplay	4	182	2	foodImage.31	FOODEEG_Images\0294.jpg	YN	Right	No	1.22786220000125	0	691429	252
1352.513671875	1.22786220000125	health	choicePhaseStart	4	182	2	foodImage.31	FOODEEG_Images\0294.jpg	YN	Right	No	1.22786220000125	0	692488	253
1353.732421875	0	health	response	4	182	2	foodImage.31	FOODEEG_Images\0294.jpg	YN	Right	No	1.22786220000125	0	693112	235
1354.775390625	1	decision	trialStart	4	183	3	foodImage.16	FOODEEG_Images\0196.jpg	NY	Right	Yes	1.00306049999926	0	693646	251
1355.833984375	2	decision	foodImageDisplay	4	183	3	foodImage.16	FOODEEG_Images\0196.jpg	NY	Right	Yes	1.00306049999926	0	694188	252
1357.8984375	1.00306049999926	decision	choicePhaseStart	4	183	3	foodImage.16	FOODEEG_Images\0196.jpg	NY	Right	Yes	1.00306049999926	0	695245	253
1358.892578125	0	decision	response	4	183	3	foodImage.16	FOODEEG_Images\0196.jpg	NY	Right	Yes	1.00306049999926	0	695754	235
1359.93359375	1	health	trialStart	4	184	4	foodImage.24	FOODEEG_Images\0250.jpg	YN	Left	Yes	1.22186710000096	0	696287	251
1360.974609375	2	health	foodImageDisplay	4	184	4	foodImage.24	FOODEEG_Images\0250.jpg	YN	Left	Yes	1.22186710000096	0	696820	252
1363.037109375	1.22186710000096	health	choicePhaseStart	4	184	4	foodImage.24	FOODEEG_Images\0250.jpg	YN	Left	Yes	1.22186710000096	0	697876	253
1364.251953125	0	health	response	4	184	4	foodImage.24	FOODEEG_Images\0250.jpg	YN	Left	Yes	1.22186710000096	0	698498	234
1365.29296875	1	taste	trialStart	4	185	5	foodImage.60	FOODEEG_Images\0614.jpg	NY	Right	Yes	0.861549599998398	0	699031	251
1366.353515625	2	taste	foodImageDisplay	4	185	5	foodImage.60	FOODEEG_Images\0614.jpg	NY	Right	Yes	0.861549599998398	0	699574	252
1368.416015625	0.861549599998398	taste	choicePhaseStart	4	185	5	foodImage.60	FOODEEG_Images\0614.jpg	NY	Right	Yes	0.861549599998398	0	700630	253
1369.267578125	0	taste	response	4	185	5	foodImage.60	FOODEEG_Images\0614.jpg	NY	Right	Yes	0.861549599998398	0	701066	235
1370.310546875	1	health	trialStart	4	186	6	foodImage.118	FOODEEG_Images\0926.jpg	YN	Right	No	1.04103969999778	0	701600	251
1371.349609375	2	health	foodImageDisplay	4	186	6	foodImage.118	FOODEEG_Images\0926.jpg	YN	Right	No	1.04103969999778	0	702132	252
1373.412109375	1.04103969999778	health	choicePhaseStart	4	186	6	foodImage.118	FOODEEG_Images\0926.jpg	YN	Right	No	1.04103969999778	0	703188	253
1374.443359375	0	health	response	4	186	6	foodImage.118	FOODEEG_Images\0926.jpg	YN	Right	No	1.04103969999778	0	703716	235
1375.486328125	1	decision	trialStart	4	187	7	foodImage.107	FOODEEG_Images\0915.jpg	NY	Right	Yes	0.905174499999703	0	704250	251
1376.52734375	2	decision	foodImageDisplay	4	187	7	foodImage.107	FOODEEG_Images\0915.jpg	NY	Right	Yes	0.905174499999703	0	704783	252
1378.6015625	0.905174499999703	decision	choicePhaseStart	4	187	7	foodImage.107	FOODEEG_Images\0915.jpg	NY	Right	Yes	0.905174499999703	0	705845	253
1379.5	0	decision	response	4	187	7	foodImage.107	FOODEEG_Images\0915.jpg	NY	Right	Yes	0.905174499999703	0	706305	235
1380.54296875	1	health	trialStart	4	188	8	foodImage.19	FOODEEG_Images\0225.jpg	YN	Left	Yes	1.49235999999655	0	706839	251
1381.5859375	2	health	foodImageDisplay	4	188	8	foodImage.19	FOODEEG_Images\0225.jpg	YN	Left	Yes	1.49235999999655	0	707373	252
1383.6484375	1.49235999999655	health	choicePhaseStart	4	188	8	foodImage.19	FOODEEG_Images\0225.jpg	YN	Left	Yes	1.49235999999655	0	708429	253
1385.130859375	0	health	response	4	188	8	foodImage.19	FOODEEG_Images\0225.jpg	YN	Left	Yes	1.49235999999655	0	709188	234
1386.17578125	1	health	trialStart	4	189	9	foodImage.16	FOODEEG_Images\0196.jpg	NY	Right	Yes	1.12216569999873	0	709723	251
1387.236328125	2	health	foodImageDisplay	4	189	9	foodImage.16	FOODEEG_Images\0196.jpg	NY	Right	Yes	1.12216569999873	0	710266	252
1389.298828125	1.12216569999873	health	choicePhaseStart	4	189	9	foodImage.16	FOODEEG_Images\0196.jpg	NY	Right	Yes	1.12216569999873	0	711322	253
1390.41015625	0	health	response	4	189	9	foodImage.16	FOODEEG_Images\0196.jpg	NY	Right	Yes	1.12216569999873	0	711891	235
1391.453125	1	taste	trialStart	4	190	10	foodImage.88	FOODEEG_Images\0878.jpg	NY	Right	Yes	0.93508809999912	0	712425	251
1392.509765625	2	taste	foodImageDisplay	4	190	10	foodImage.88	FOODEEG_Images\0878.jpg	NY	Right	Yes	0.93508809999912	0	712966	252
1394.572265625	0.93508809999912	taste	choicePhaseStart	4	190	10	foodImage.88	FOODEEG_Images\0878.jpg	NY	Right	Yes	0.93508809999912	0	714022	253
1395.498046875	0	taste	response	4	190	10	foodImage.88	FOODEEG_Images\0878.jpg	NY	Right	Yes	0.93508809999912	0	714496	235
1396.54296875	1	health	trialStart	4	191	11	foodImage.104	FOODEEG_Images\0912.jpg	YN	Right	No	0.89374780000071	0	715031	251
1397.58203125	2	health	foodImageDisplay	4	191	11	foodImage.104	FOODEEG_Images\0912.jpg	YN	Right	No	0.89374780000071	0	715563	252
1399.646484375	0.89374780000071	health	choicePhaseStart	4	191	11	foodImage.104	FOODEEG_Images\0912.jpg	YN	Right	No	0.89374780000071	0	716620	253
1400.53125	0	health	response	4	191	11	foodImage.104	FOODEEG_Images\0912.jpg	YN	Right	No	0.89374780000071	0	717073	235
1401.57421875	1	health	trialStart	4	192	12	foodImage.79	FOODEEG_Images\0794.jpg	NY	Right	Yes	0.730571100000816	0	717607	251
1402.6171875	2	health	foodImageDisplay	4	192	12	foodImage.79	FOODEEG_Images\0794.jpg	NY	Right	Yes	0.730571100000816	0	718141	252
1404.681640625	0.730571100000816	health	choicePhaseStart	4	192	12	foodImage.79	FOODEEG_Images\0794.jpg	NY	Right	Yes	0.730571100000816	0	719198	253
1405.40234375	0	health	response	4	192	12	foodImage.79	FOODEEG_Images\0794.jpg	NY	Right	Yes	0.730571100000816	0	719567	235
1406.443359375	1	taste	trialStart	4	193	13	foodImage.103	FOODEEG_Images\0911.jpg	NY	Right	Yes	0.906977099999494	0	720100	251
1407.48046875	2	taste	foodImageDisplay	4	193	13	foodImage.103	FOODEEG_Images\0911.jpg	NY	Right	Yes	0.906977099999494	0	720631	252
1409.544921875	0.906977099999494	taste	choicePhaseStart	4	193	13	foodImage.103	FOODEEG_Images\0911.jpg	NY	Right	Yes	0.906977099999494	0	721688	253
1410.44140625	0	taste	response	4	193	13	foodImage.103	FOODEEG_Images\0911.jpg	NY	Right	Yes	0.906977099999494	0	722147	235
1411.486328125	1	decision	trialStart	4	194	14	foodImage.86	FOODEEG_Images\0844.jpg	NY	Right	Yes	0.645106900003157	0	722682	251
