onset	duration	trial_type	event_type	block	trial_total	trial_in_block	food_image_code	food_image_path	button_position	resp_position	resp_choice	choice_rt	resp_too_slow	sample	trigger
305.66015625	2	n/a	blockStart	1	n/a	n/a	n/a	n/a	n/a	n/a	n/a	n/a	n/a	156499	250
307.69921875	1	taste	trialStart	1	1	1	foodImage.14	FOODEEG_Images\0188.jpg	YN	Left	Yes	0.809194199740887	0	157543	251
308.76171875	2	taste	foodImageDisplay	1	1	1	foodImage.14	FOODEEG_Images\0188.jpg	YN	Left	Yes	0.809194199740887	0	158087	252
310.826171875	0.809194199740887	taste	choicePhaseStart	1	1	1	foodImage.14	FOODEEG_Images\0188.jpg	YN	Left	Yes	0.809194199740887	0	159144	253
311.626953125	0	taste	response	1	1	1	foodImage.14	FOODEEG_Images\0188.jpg	YN	Left	Yes	0.809194199740887	0	159554	234
312.71875	1	taste	trialStart	1	2	2	foodImage.11	FOODEEG_Images\0180.jpg	YN	Left	Yes	0.978011699859053	0	160113	251
313.76171875	2	taste	foodImageDisplay	1	2	2	foodImage.11	FOODEEG_Images\0180.jpg	YN	Left	Yes	0.978011699859053	0	160647	252
315.82421875	0.978011699859053	taste	choicePhaseStart	1	2	2	foodImage.11	FOODEEG_Images\0180.jpg	YN	Left	Yes	0.978011699859053	0	161703	253
316.794921875	0	taste	response	1	2	2	foodImage.11	FOODEEG_Images\0180.jpg	YN	Left	Yes	0.978011699859053	0	162200	234
317.84375	1	taste	trialStart	1	3	3	foodImage.48	FOODEEG_Images\0494.jpg	NY	Right	Yes	0.73907779995352	0	162737	251
318.88671875	2	taste	foodImageDisplay	1	3	3	foodImage.48	FOODEEG_Images\0494.jpg	NY	Right	Yes	0.73907779995352	0	163271	252
320.94921875	0.73907779995352	taste	choicePhaseStart	1	3	3	foodImage.48	FOODEEG_Images\0494.jpg	NY	Right	Yes	0.73907779995352	0	164327	253
321.681640625	0	taste	response	1	3	3	foodImage.48	FOODEEG_Images\0494.jpg	NY	Right	Yes	0.73907779995352	0	164702	235
322.7265625	1	health	trialStart	1	4	4	foodImage.6	FOODEEG_Images\0113.jpg	YN	Right	No	0.594245799817145	0	165237	251
323.76953125	2	health	foodImageDisplay	1	4	4	foodImage.6	FOODEEG_Images\0113.jpg	YN	Right	No	0.594245799817145	0	165771	252
325.83203125	0.594245799817145	health	choicePhaseStart	1	4	4	foodImage.6	FOODEEG_Images\0113.jpg	YN	Right	No	0.594245799817145	0	166827	253
326.41796875	0	health	response	1	4	4	foodImage.6	FOODEEG_Images\0113.jpg	YN	Right	No	0.594245799817145	0	167127	235
327.462890625	1	health	trialStart	1	5	5	foodImage.23	FOODEEG_Images\0244.jpg	NY	Right	Yes	0.693074000068009	0	167662	251
328.5078125	2	health	foodImageDisplay	1	5	5	foodImage.23	FOODEEG_Images\0244.jpg	NY	Right	Yes	0.693074000068009	0	168197	252
330.572265625	0.693074000068009	health	choicePhaseStart	1	5	5	foodImage.23	FOODEEG_Images\0244.jpg	NY	Right	Yes	0.693074000068009	0	169254	253
331.2578125	0	health	response	1	5	5	foodImage.23	FOODEEG_Images\0244.jpg	NY	Right	Yes	0.693074000068009	0	169605	235
332.306640625	1	decision	trialStart	1	6	6	foodImage.101	FOODEEG_Images\0909.jpg	YN	Right	No	0.843112499918789	0	170142	251
333.3515625	2	decision	foodImageDisplay	1	6	6	foodImage.101	FOODEEG_Images\0909.jpg	YN	Right	No	0.843112499918789	0	170677	252
335.4140625	0.843112499918789	decision	choicePhaseStart	1	6	6	foodImage.101	FOODEEG_Images\0909.jpg	YN	Right	No	0.843112499918789	0	171733	253
336.248046875	0	decision	response	1	6	6	foodImage.101	FOODEEG_Images\0909.jpg	YN	Right	No	0.843112499918789	0	172160	235
337.291015625	1	taste	trialStart	1	7	7	foodImage.2	FOODEEG_Images\0028.jpg	NY	Right	Yes	0.605062799993902	0	172694	251
338.333984375	2	taste	foodImageDisplay	1	7	7	foodImage.2	FOODEEG_Images\0028.jpg	NY	Right	Yes	0.605062799993902	0	173228	252
340.396484375	0.605062799993902	taste	choicePhaseStart	1	7	7	foodImage.2	FOODEEG_Images\0028.jpg	NY	Right	Yes	0.605062799993902	0	174284	253
340.994140625	0	taste	response	1	7	7	foodImage.2	FOODEEG_Images\0028.jpg	NY	Right	Yes	0.605062799993902	0	174590	235
342.037109375	1	health	trialStart	1	8	8	foodImage.16	FOODEEG_Images\0196.jpg	NY	Right	Yes	0.58081529987976	0	175124	251
343.109375	2	health	foodImageDisplay	1	8	8	foodImage.16	FOODEEG_Images\0196.jpg	NY	Right	Yes	0.58081529987976	0	175673	252
345.173828125	0.58081529987976	health	choicePhaseStart	1	8	8	foodImage.16	FOODEEG_Images\0196.jpg	NY	Right	Yes	0.58081529987976	0	176730	253
345.744140625	0	health	response	1	8	8	foodImage.16	FOODEEG_Images\0196.jpg	NY	Right	Yes	0.58081529987976	0	177022	235
346.7890625	1	decision	trialStart	1	9	9	foodImage.78	FOODEEG_Images\0787.jpg	NY	Left	No	0.854544800240546	0	177557	251
347.833984375	2	decision	foodImageDisplay	1	9	9	foodImage.78	FOODEEG_Images\0787.jpg	NY	Left	No	0.854544800240546	0	178092	252
349.896484375	0.854544800240546	decision	choicePhaseStart	1	9	9	foodImage.78	FOODEEG_Images\0787.jpg	NY	Left	No	0.854544800240546	0	179148	253
350.744140625	0	decision	response	1	9	9	foodImage.78	FOODEEG_Images\0787.jpg	NY	Left	No	0.854544800240546	0	179582	234
351.787109375	1	health	trialStart	1	10	10	foodImage.97	FOODEEG_Images\0905.jpg	NY	Right	Yes	1.37082110019401	0	180116	251
352.828125	2	health	foodImageDisplay	1	10	10	foodImage.97	FOODEEG_Images\0905.jpg	NY	Right	Yes	1.37082110019401	0	180649	252
354.89453125	1.37082110019401	health	choicePhaseStart	1	10	10	foodImage.97	FOODEEG_Images\0905.jpg	NY	Right	Yes	1.37082110019401	0	181707	253
356.255859375	0	health	response	1	10	10	foodImage.97	FOODEEG_Images\0905.jpg	NY	Right	Yes	1.37082110019401	0	182404	235
357.298828125	1	decision	trialStart	1	11	11	foodImage.47	FOODEEG_Images\0488.jpg	YN	Left	Yes	0.906815399881452	0	182938	251
358.341796875	2	decision	foodImageDisplay	1	11	11	foodImage.47	FOODEEG_Images\0488.jpg	YN	Left	Yes	0.906815399881452	0	183472	252
360.404296875	0.906815399881452	decision	choicePhaseStart	1	11	11	foodImage.47	FOODEEG_Images\0488.jpg	YN	Left	Yes	0.906815399881452	0	184528	253
361.3046875	0	decision	response	1	11	11	foodImage.47	FOODEEG_Images\0488.jpg	YN	Left	Yes	0.906815399881452	0	184989	234
362.34765625	1	health	trialStart	1	12	12	foodImage.107	FOODEEG_Images\0915.jpg	NY	Right	Yes	2.55040670000017	0	185523	251
363.384765625	2	health	foodImageDisplay	1	12	12	foodImage.107	FOODEEG_Images\0915.jpg	NY	Right	Yes	2.55040670000017	0	186054	252
365.44921875	2.55040670000017	health	choicePhaseStart	1	12	12	foodImage.107	FOODEEG_Images\0915.jpg	NY	Right	Yes	2.55040670000017	0	187111	253
367.9921875	0	health	response	1	12	12	foodImage.107	FOODEEG_Images\0915.jpg	NY	Right	Yes	2.55040670000017	0	188413	235
369.033203125	1	taste	trialStart	1	13	13	foodImage.49	FOODEEG_Images\0515.jpg	YN	Left	Yes	0.678956199903041	0	188946	251
370.07421875	2	taste	foodImageDisplay	1	13	13	foodImage.49	FOODEEG_Images\0515.jpg	YN	Left	Yes	0.678956199903041	0	189479	252
372.138671875	0.678956199903041	taste	choicePhaseStart	1	13	13	foodImage.49	FOODEEG_Images\0515.jpg	YN	Left	Yes	0.678956199903041	0	190536	253
372.80859375	0	taste	response	1	13	13	foodImage.49	FOODEEG_Images\0515.jpg	YN	Left	Yes	0.678956199903041	0	190879	234
373.8515625	1	taste	trialStart	1	14	14	foodImage.76	FOODEEG_Images\0766.jpg	NY	Left	No	1.34443149995059	0	191413	251
374.896484375	2	taste	foodImageDisplay	1	14	14	foodImage.76	FOODEEG_Images\0766.jpg	NY	Left	No	1.34443149995059	0	191948	252
376.9609375	1.34443149995059	taste	choicePhaseStart	1	14	14	foodImage.76	FOODEEG_Images\0766.jpg	NY	Left	No	1.34443149995059	0	193005	253
378.294921875	0	taste	response	1	14	14	foodImage.76	FOODEEG_Images\0766.jpg	NY	Left	No	1.34443149995059	0	193688	234
379.337890625	1	taste	trialStart	1	15	15	foodImage.29	FOODEEG_Images\0278.jpg	YN	Left	Yes	1.7026534001343	0	194222	251
380.37890625	2	taste	foodImageDisplay	1	15	15	foodImage.29	FOODEEG_Images\0278.jpg	YN	Left	Yes	1.7026534001343	0	194755	252
382.44140625	1.7026534001343	taste	choicePhaseStart	1	15	15	foodImage.29	FOODEEG_Images\0278.jpg	YN	Left	Yes	1.7026534001343	0	195811	253
384.134765625	0	taste	response	1	15	15	foodImage.29	FOODEEG_Images\0278.jpg	YN	Left	Yes	1.7026534001343	0	196678	234
385.177734375	1	taste	trialStart	1	16	16	foodImage.16	FOODEEG_Images\0196.jpg	YN	Left	Yes	1.38841400016099	0	197212	251
386.236328125	2	taste	foodImageDisplay	1	16	16	foodImage.16	FOODEEG_Images\0196.jpg	YN	Left	Yes	1.38841400016099	0	197754	252
388.298828125	1.38841400016099	taste	choicePhaseStart	1	16	16	foodImage.16	FOODEEG_Images\0196.jpg	YN	Left	Yes	1.38841400016099	0	198810	253
389.6796875	0	taste	response	1	16	16	foodImage.16	FOODEEG_Images\0196.jpg	YN	Left	Yes	1.38841400016099	0	199517	234
390.720703125	1	health	trialStart	1	17	17	foodImage.50	FOODEEG_Images\0529.jpg	YN	Left	Yes	0.936696500051767	0	200050	251
391.77734375	2	health	foodImageDisplay	1	17	17	foodImage.50	FOODEEG_Images\0529.jpg	YN	Left	Yes	0.936696500051767	0	200591	252
393.83984375	0.936696500051767	health	choicePhaseStart	1	17	17	foodImage.50	FOODEEG_Images\0529.jpg	YN	Left	Yes	0.936696500051767	0	201647	253
394.765625	0	health	response	1	17	17	foodImage.50	FOODEEG_Images\0529.jpg	YN	Left	Yes	0.936696500051767	0	202121	234
395.810546875	1	decision	trialStart	1	18	18	foodImage.54	FOODEEG_Images\0560.jpg	YN	Left	Yes	1.01039899978787	0	202656	251
396.869140625	2	decision	foodImageDisplay	1	18	18	foodImage.54	FOODEEG_Images\0560.jpg	YN	Left	Yes	1.01039899978787	0	203198	252
398.931640625	1.01039899978787	decision	choicePhaseStart	1	18	18	foodImage.54	FOODEEG_Images\0560.jpg	YN	Left	Yes	1.01039899978787	0	204254	253
399.93359375	0	decision	response	1	18	18	foodImage.54	FOODEEG_Images\0560.jpg	YN	Left	Yes	1.01039899978787	0	204767	234
400.9765625	1	decision	trialStart	1	19	19	foodImage.82	FOODEEG_Images\0805.jpg	YN	Right	No	0.829355999827385	0	205301	251
402.033203125	2	decision	foodImageDisplay	1	19	19	foodImage.82	FOODEEG_Images\0805.jpg	YN	Right	No	0.829355999827385	0	205842	252
404.09765625	0.829355999827385	decision	choicePhaseStart	1	19	19	foodImage.82	FOODEEG_Images\0805.jpg	YN	Right	No	0.829355999827385	0	206899	253
404.91796875	0	decision	response	1	19	19	foodImage.82	FOODEEG_Images\0805.jpg	YN	Right	No	0.829355999827385	0	207319	235
405.962890625	1	decision	trialStart	1	20	20	foodImage.18	FOODEEG_Images\0202.jpg	NY	Right	Yes	0.608002200257033	0	207854	251
407.0234375	2	decision	foodImageDisplay	1	20	20	foodImage.18	FOODEEG_Images\0202.jpg	NY	Right	Yes	0.608002200257033	0	208397	252
409.0859375	0.608002200257033	decision	choicePhaseStart	1	20	20	foodImage.18	FOODEEG_Images\0202.jpg	NY	Right	Yes	0.608002200257033	0	209453	253
409.685546875	0	decision	response	1	20	20	foodImage.18	FOODEEG_Images\0202.jpg	NY	Right	Yes	0.608002200257033	0	209760	235
410.73046875	1	decision	trialStart	1	21	21	foodImage.119	FOODEEG_Images\0927.jpg	YN	Left	Yes	1.68602639995515	0	210295	251
411.76953125	2	decision	foodImageDisplay	1	21	21	foodImage.119	FOODEEG_Images\0927.jpg	YN	Left	Yes	1.68602639995515	0	210827	252
413.83203125	1.68602639995515	decision	choicePhaseStart	1	21	21	foodImage.119	FOODEEG_Images\0927.jpg	YN	Left	Yes	1.68602639995515	0	211883	253
415.509765625	0	decision	response	1	21	21	foodImage.119	FOODEEG_Images\0927.jpg	YN	Left	Yes	1.68602639995515	0	212742	234
416.552734375	1	taste	trialStart	1	22	22	foodImage.59	FOODEEG_Images\0607.jpg	YN	Left	Yes	0.882035700138658	0	213276	251
417.61328125	2	taste	foodImageDisplay	1	22	22	foodImage.59	FOODEEG_Images\0607.jpg	YN	Left	Yes	0.882035700138658	0	213819	252
419.67578125	0.882035700138658	taste	choicePhaseStart	1	22	22	foodImage.59	FOODEEG_Images\0607.jpg	YN	Left	Yes	0.882035700138658	0	214875	253
420.548828125	0	taste	response	1	22	22	foodImage.59	FOODEEG_Images\0607.jpg	YN	Left	Yes	0.882035700138658	0	215322	234
421.59375	1	decision	trialStart	1	23	23	foodImage.27	FOODEEG_Images\0263.jpg	YN	Left	Yes	0.633136199787259	0	215857	251
422.654296875	2	decision	foodImageDisplay	1	23	23	foodImage.27	FOODEEG_Images\0263.jpg	YN	Left	Yes	0.633136199787259	0	216400	252
424.716796875	0.633136199787259	decision	choicePhaseStart	1	23	23	foodImage.27	FOODEEG_Images\0263.jpg	YN	Left	Yes	0.633136199787259	0	217456	253
425.341796875	0	decision	response	1	23	23	foodImage.27	FOODEEG_Images\0263.jpg	YN	Left	Yes	0.633136199787259	0	217776	234
426.3828125	1	decision	trialStart	1	24	24	foodImage.64	FOODEEG_Images\0647.jpg	YN	Right	No	0.912415099795908	0	218309	251
427.439453125	2	decision	foodImageDisplay	1	24	24	foodImage.64	FOODEEG_Images\0647.jpg	YN	Right	No	0.912415099795908	0	218850	252
429.501953125	0.912415099795908	decision	choicePhaseStart	1	24	24	foodImage.64	FOODEEG_Images\0647.jpg	YN	Right	No	0.912415099795908	0	219906	253
430.404296875	0	decision	response	1	24	24	foodImage.64	FOODEEG_Images\0647.jpg	YN	Right	No	0.912415099795908	0	220368	235
431.4453125	1	health	trialStart	1	25	25	foodImage.8	FOODEEG_Images\0136.jpg	NY	Right	Yes	1.02468639984727	0	220901	251
432.486328125	2	health	foodImageDisplay	1	25	25	foodImage.8	FOODEEG_Images\0136.jpg	NY	Right	Yes	1.02468639984727	0	221434	252
434.548828125	1.02468639984727	health	choicePhaseStart	1	25	25	foodImage.8	FOODEEG_Images\0136.jpg	NY	Right	Yes	1.02468639984727	0	222490	253
435.564453125	0	health	response	1	25	25	foodImage.8	FOODEEG_Images\0136.jpg	NY	Right	Yes	1.02468639984727	0	223010	235
436.607421875	1	health	trialStart	1	26	26	foodImage.72	FOODEEG_Images\0714.jpg	YN	Right	No	1.84693869994953	0	223544	251
437.6484375	2	health	foodImageDisplay	1	26	26	foodImage.72	FOODEEG_Images\0714.jpg	YN	Right	No	1.84693869994953	0	224077	252
439.7109375	1.84693869994953	health	choicePhaseStart	1	26	26	foodImage.72	FOODEEG_Images\0714.jpg	YN	Right	No	1.84693869994953	0	225133	253
441.548828125	0	health	response	1	26	26	foodImage.72	FOODEEG_Images\0714.jpg	YN	Right	No	1.84693869994953	0	226074	235
442.591796875	1	decision	trialStart	1	27	27	foodImage.49	FOODEEG_Images\0515.jpg	YN	Left	Yes	0.715810999739915	0	226608	251
443.6328125	2	decision	foodImageDisplay	1	27	27	foodImage.49	FOODEEG_Images\0515.jpg	YN	Left	Yes	0.715810999739915	0	227141	252
445.69921875	0.715810999739915	decision	choicePhaseStart	1	27	27	foodImage.49	FOODEEG_Images\0515.jpg	YN	Left	Yes	0.715810999739915	0	228199	253
446.404296875	0	decision	response	1	27	27	foodImage.49	FOODEEG_Images\0515.jpg	YN	Left	Yes	0.715810999739915	0	228560	234
447.44921875	1	taste	trialStart	1	28	28	foodImage.37	FOODEEG_Images\0359.jpg	YN	Right	No	0.725765400100499	0	229095	251
448.490234375	2	taste	foodImageDisplay	1	28	28	foodImage.37	FOODEEG_Images\0359.jpg	YN	Right	No	0.725765400100499	0	229628	252
450.552734375	0.725765400100499	taste	choicePhaseStart	1	28	28	foodImage.37	FOODEEG_Images\0359.jpg	YN	Right	No	0.725765400100499	0	230684	253
451.267578125	0	taste	response	1	28	28	foodImage.37	FOODEEG_Images\0359.jpg	YN	Right	No	0.725765400100499	0	231050	235
452.310546875	1	taste	trialStart	1	29	29	foodImage.105	FOODEEG_Images\0913.jpg	YN	Left	Yes	0.761912100017071	0	231584	251
453.34765625	2	taste	foodImageDisplay	1	29	29	foodImage.105	FOODEEG_Images\0913.jpg	YN	Left	Yes	0.761912100017071	0	232115	252
455.41015625	0.761912100017071	taste	choicePhaseStart	1	29	29	foodImage.105	FOODEEG_Images\0913.jpg	YN	Left	Yes	0.761912100017071	0	233171	253
456.1640625	0	taste	response	1	29	29	foodImage.105	FOODEEG_Images\0913.jpg	YN	Left	Yes	0.761912100017071	0	233557	234
457.212890625	1	decision	trialStart	1	30	30	foodImage.71	FOODEEG_Images\0713.jpg	NY	Right	Yes	0.767377799842507	0	234094	251
458.25390625	2	decision	foodImageDisplay	1	30	30	foodImage.71	FOODEEG_Images\0713.jpg	NY	Right	Yes	0.767377799842507	0	234627	252
460.31640625	0.767377799842507	decision	choicePhaseStart	1	30	30	foodImage.71	FOODEEG_Images\0713.jpg	NY	Right	Yes	0.767377799842507	0	235683	253
461.076171875	0	decision	response	1	30	30	foodImage.71	FOODEEG_Images\0713.jpg	NY	Right	Yes	0.767377799842507	0	236072	235
462.119140625	1	taste	trialStart	1	31	31	foodImage.8	FOODEEG_Images\0136.jpg	NY	Right	Yes	0.964954600203782	0	236606	251
463.16015625	2	taste	foodImageDisplay	1	31	31	foodImage.8	FOODEEG_Images\0136.jpg	NY	Right	Yes	0.964954600203782	0	237139	252
465.224609375	0.964954600203782	taste	choicePhaseStart	1	31	31	foodImage.8	FOODEEG_Images\0136.jpg	NY	Right	Yes	0.964954600203782	0	238196	253
466.1796875	0	taste	response	1	31	31	foodImage.8	FOODEEG_Images\0136.jpg	NY	Right	Yes	0.964954600203782	0	238685	235
467.228515625	1	taste	trialStart	1	32	32	foodImage.30	FOODEEG_Images\0282.jpg	NY	Right	Yes	0.696853599976748	0	239222	251
468.26953125	2	taste	foodImageDisplay	1	32	32	foodImage.30	FOODEEG_Images\0282.jpg	NY	Right	Yes	0.696853599976748	0	239755	252
470.33203125	0.696853599976748	taste	choicePhaseStart	1	32	32	foodImage.30	FOODEEG_Images\0282.jpg	NY	Right	Yes	0.696853599976748	0	240811	253
471.01953125	0	taste	response	1	32	32	foodImage.30	FOODEEG_Images\0282.jpg	NY	Right	Yes	0.696853599976748	0	241163	235
472.064453125	1	taste	trialStart	1	33	33	foodImage.106	FOODEEG_Images\0914.jpg	YN	Right	No	1.55289549985901	0	241698	251
473.1015625	2	taste	foodImageDisplay	1	33	33	foodImage.106	FOODEEG_Images\0914.jpg	YN	Right	No	1.55289549985901	0	242229	252
475.169921875	1.55289549985901	taste	choicePhaseStart	1	33	33	foodImage.106	FOODEEG_Images\0914.jpg	YN	Right	No	1.55289549985901	0	243288	253
476.71484375	0	taste	response	1	33	33	foodImage.106	FOODEEG_Images\0914.jpg	YN	Right	No	1.55289549985901	0	244079	235
477.7578125	1	health	trialStart	1	34	34	foodImage.87	FOODEEG_Images\0873.jpg	YN	Left	Yes	0.920855999924242	0	244613	251
478.8125	2	health	foodImageDisplay	1	34	34	foodImage.87	FOODEEG_Images\0873.jpg	YN	Left	Yes	0.920855999924242	0	245153	252
480.875	0.920855999924242	health	choicePhaseStart	1	34	34	foodImage.87	FOODEEG_Images\0873.jpg	YN	Left	Yes	0.920855999924242	0	246209	253
481.787109375	0	health	response	1	34	34	foodImage.87	FOODEEG_Images\0873.jpg	YN	Left	Yes	0.920855999924242	0	246676	234
482.83203125	1	decision	trialStart	1	35	35	foodImage.12	FOODEEG_Images\0181.jpg	YN	Left	Yes	0.768115299753845	0	247211	251
483.875	2	decision	foodImageDisplay	1	35	35	foodImage.12	FOODEEG_Images\0181.jpg	YN	Left	Yes	0.768115299753845	0	247745	252
485.939453125	0.768115299753845	decision	choicePhaseStart	1	35	35	foodImage.12	FOODEEG_Images\0181.jpg	YN	Left	Yes	0.768115299753845	0	248802	253
486.69921875	0	decision	response	1	35	35	foodImage.12	FOODEEG_Images\0181.jpg	YN	Left	Yes	0.768115299753845	0	249191	234
487.7421875	1	health	trialStart	1	36	36	foodImage.85	FOODEEG_Images\0841.jpg	NY	Left	No	0.975368200335652	0	249725	251
488.82421875	2	health	foodImageDisplay	1	36	36	foodImage.85	FOODEEG_Images\0841.jpg	NY	Left	No	0.975368200335652	0	250279	252
490.88671875	0.975368200335652	health	choicePhaseStart	1	36	36	foodImage.85	FOODEEG_Images\0841.jpg	NY	Left	No	0.975368200335652	0	251335	253
491.8515625	0	health	response	1	36	36	foodImage.85	FOODEEG_Images\0841.jpg	NY	Left	No	0.975368200335652	0	251829	234
492.89453125	1	taste	trialStart	1	37	37	foodImage.44	FOODEEG_Images\0459.jpg	NY	Right	Yes	0.682856199797243	0	252363	251
493.939453125	2	taste	foodImageDisplay	1	37	37	foodImage.44	FOODEEG_Images\0459.jpg	NY	Right	Yes	0.682856199797243	0	252898	252
496.001953125	0.682856199797243	taste	choicePhaseStart	1	37	37	foodImage.44	FOODEEG_Images\0459.jpg	NY	Right	Yes	0.682856199797243	0	253954	253
496.67578125	0	taste	response	1	37	37	foodImage.44	FOODEEG_Images\0459.jpg	NY	Right	Yes	0.682856199797243	0	254299	235
497.71484375	1	health	trialStart	1	38	38	foodImage.40	FOODEEG_Images\0373.jpg	YN	Right	No	0.785139699932188	0	254831	251
498.755859375	2	health	foodImageDisplay	1	38	38	foodImage.40	FOODEEG_Images\0373.jpg	YN	Right	No	0.785139699932188	0	255364	252
500.818359375	0.785139699932188	health	choicePhaseStart	1	38	38	foodImage.40	FOODEEG_Images\0373.jpg	YN	Right	No	0.785139699932188	0	256420	253
501.59375	0	health	response	1	38	38	foodImage.40	FOODEEG_Images\0373.jpg	YN	Right	No	0.785139699932188	0	256817	235
502.63671875	1	decision	trialStart	1	39	39	foodImage.75	FOODEEG_Images\0763.jpg	NY	Right	Yes	0.94322959985584	0	257351	251
503.677734375	2	decision	foodImageDisplay	1	39	39	foodImage.75	FOODEEG_Images\0763.jpg	NY	Right	Yes	0.94322959985584	0	257884	252
505.740234375	0.94322959985584	decision	choicePhaseStart	1	39	39	foodImage.75	FOODEEG_Images\0763.jpg	NY	Right	Yes	0.94322959985584	0	258940	253
506.673828125	0	decision	response	1	39	39	foodImage.75	FOODEEG_Images\0763.jpg	NY	Right	Yes	0.94322959985584	0	259418	235
507.712890625	1	taste	trialStart	1	40	40	foodImage.10	FOODEEG_Images\0145.jpg	YN	Left	Yes	0.555204000324011	0	259950	251
508.76953125	2	taste	foodImageDisplay	1	40	40	foodImage.10	FOODEEG_Images\0145.jpg	YN	Left	Yes	0.555204000324011	0	260491	252
510.83203125	0.555204000324011	taste	choicePhaseStart	1	40	40	foodImage.10	FOODEEG_Images\0145.jpg	YN	Left	Yes	0.555204000324011	0	261547	253
511.376953125	0	taste	response	1	40	40	foodImage.10	FOODEEG_Images\0145.jpg	YN	Left	Yes	0.555204000324011	0	261826	234
512.419921875	1	decision	trialStart	1	41	41	foodImage.107	FOODEEG_Images\0915.jpg	NY	Right	Yes	1.43827749975026	0	262360	251
513.4609375	2	decision	foodImageDisplay	1	41	41	foodImage.107	FOODEEG_Images\0915.jpg	NY	Right	Yes	1.43827749975026	0	262893	252
515.525390625	1.43827749975026	decision	choicePhaseStart	1	41	41	foodImage.107	FOODEEG_Images\0915.jpg	NY	Right	Yes	1.43827749975026	0	263950	253
516.953125	0	decision	response	1	41	41	foodImage.107	FOODEEG_Images\0915.jpg	NY	Right	Yes	1.43827749975026	0	264681	235
517.998046875	1	decision	trialStart	1	42	42	foodImage.106	FOODEEG_Images\0914.jpg	YN	Right	No	0.782917999662459	0	265216	251
519.03515625	2	decision	foodImageDisplay	1	42	42	foodImage.106	FOODEEG_Images\0914.jpg	YN	Right	No	0.782917999662459	0	265747	252
521.099609375	0.782917999662459	decision	choicePhaseStart	1	42	42	foodImage.106	FOODEEG_Images\0914.jpg	YN	Right	No	0.782917999662459	0	266804	253
521.873046875	0	decision	response	1	42	42	foodImage.106	FOODEEG_Images\0914.jpg	YN	Right	No	0.782917999662459	0	267200	235
522.9140625	1	decision	trialStart	1	43	43	foodImage.70	FOODEEG_Images\0705.jpg	NY	Right	Yes	0.657544800080359	0	267733	251
523.970703125	2	decision	foodImageDisplay	1	43	43	foodImage.70	FOODEEG_Images\0705.jpg	NY	Right	Yes	0.657544800080359	0	268274	252
526.033203125	0.657544800080359	decision	choicePhaseStart	1	43	43	foodImage.70	FOODEEG_Images\0705.jpg	NY	Right	Yes	0.657544800080359	0	269330	253
526.681640625	0	decision	response	1	43	43	foodImage.70	FOODEEG_Images\0705.jpg	NY	Right	Yes	0.657544800080359	0	269662	235
527.724609375	1	taste	trialStart	1	44	44	foodImage.94	FOODEEG_Images\0902.jpg	NY	Right	Yes	0.575738499872386	0	270196	251
528.763671875	2	taste	foodImageDisplay	1	44	44	foodImage.94	FOODEEG_Images\0902.jpg	NY	Right	Yes	0.575738499872386	0	270728	252
530.826171875	0.575738499872386	taste	choicePhaseStart	1	44	44	foodImage.94	FOODEEG_Images\0902.jpg	NY	Right	Yes	0.575738499872386	0	271784	253
531.392578125	0	taste	response	1	44	44	foodImage.94	FOODEEG_Images\0902.jpg	NY	Right	Yes	0.575738499872386	0	272074	235
532.4375	1	taste	trialStart	1	45	45	foodImage.7	FOODEEG_Images\0116.jpg	NY	Right	Yes	0.508693300187588	0	272609	251
533.478515625	2	taste	foodImageDisplay	1	45	45	foodImage.7	FOODEEG_Images\0116.jpg	NY	Right	Yes	0.508693300187588	0	273142	252
535.5390625	0.508693300187588	taste	choicePhaseStart	1	45	45	foodImage.7	FOODEEG_Images\0116.jpg	NY	Right	Yes	0.508693300187588	0	274197	253
536.041015625	0	taste	response	1	45	45	foodImage.7	FOODEEG_Images\0116.jpg	NY	Right	Yes	0.508693300187588	0	274454	235
537.083984375	1	health	trialStart	1	46	46	foodImage.12	FOODEEG_Images\0181.jpg	YN	Left	Yes	0.741510199848562	0	274988	251
538.126953125	2	health	foodImageDisplay	1	46	46	foodImage.12	FOODEEG_Images\0181.jpg	YN	Left	Yes	0.741510199848562	0	275522	252
540.189453125	0.741510199848562	health	choicePhaseStart	1	46	46	foodImage.12	FOODEEG_Images\0181.jpg	YN	Left	Yes	0.741510199848562	0	276578	253
540.919921875	0	health	response	1	46	46	foodImage.12	FOODEEG_Images\0181.jpg	YN	Left	Yes	0.741510199848562	0	276952	234
541.9609375	1	decision	trialStart	1	47	47	foodImage.116	FOODEEG_Images\0924.jpg	NY	Left	No	0.866890599951148	0	277485	251
543	2	decision	foodImageDisplay	1	47	47	foodImage.116	FOODEEG_Images\0924.jpg	NY	Left	No	0.866890599951148	0	278017	252
545.0625	0.866890599951148	decision	choicePhaseStart	1	47	47	foodImage.116	FOODEEG_Images\0924.jpg	NY	Left	No	0.866890599951148	0	279073	253
545.921875	0	decision	response	1	47	47	foodImage.116	FOODEEG_Images\0924.jpg	NY	Left	No	0.866890599951148	0	279513	234
546.974609375	1	decision	trialStart	1	48	48	foodImage.98	FOODEEG_Images\0906.jpg	YN	Left	Yes	1.64246429968625	0	280052	251
548.01171875	2	decision	foodImageDisplay	1	48	48	foodImage.98	FOODEEG_Images\0906.jpg	YN	Left	Yes	1.64246429968625	0	280583	252
550.080078125	1.64246429968625	decision	choicePhaseStart	1	48	48	foodImage.98	FOODEEG_Images\0906.jpg	YN	Left	Yes	1.64246429968625	0	281642	253
551.712890625	0	decision	response	1	48	48	foodImage.98	FOODEEG_Images\0906.jpg	YN	Left	Yes	1.64246429968625	0	282478	234
552.755859375	1	taste	trialStart	1	49	49	foodImage.54	FOODEEG_Images\0560.jpg	YN	Left	Yes	0.805230599828064	0	283012	251
553.814453125	2	taste	foodImageDisplay	1	49	49	foodImage.54	FOODEEG_Images\0560.jpg	YN	Left	Yes	0.805230599828064	0	283554	252
555.875	0.805230599828064	taste	choicePhaseStart	1	49	49	foodImage.54	FOODEEG_Images\0560.jpg	YN	Left	Yes	0.805230599828064	0	284609	253
556.671875	0	taste	response	1	49	49	foodImage.54	FOODEEG_Images\0560.jpg	YN	Left	Yes	0.805230599828064	0	285017	234
557.71484375	1	decision	trialStart	1	50	50	foodImage.69	FOODEEG_Images\0693.jpg	NY	Right	Yes	0.765220100060105	0	285551	251
558.755859375	2	decision	foodImageDisplay	1	50	50	foodImage.69	FOODEEG_Images\0693.jpg	NY	Right	Yes	0.765220100060105	0	286084	252
560.8203125	0.765220100060105	decision	choicePhaseStart	1	50	50	foodImage.69	FOODEEG_Images\0693.jpg	NY	Right	Yes	0.765220100060105	0	287141	253
561.576171875	0	decision	response	1	50	50	foodImage.69	FOODEEG_Images\0693.jpg	NY	Right	Yes	0.765220100060105	0	287528	235
562.619140625	1	health	trialStart	1	51	51	foodImage.3	FOODEEG_Images\0046.jpg	NY	Left	No	0.498282199725509	0	288062	251
563.681640625	2	health	foodImageDisplay	1	51	51	foodImage.3	FOODEEG_Images\0046.jpg	NY	Left	No	0.498282199725509	0	288606	252
565.744140625	0.498282199725509	health	choicePhaseStart	1	51	51	foodImage.3	FOODEEG_Images\0046.jpg	NY	Left	No	0.498282199725509	0	289662	253
566.232421875	0	health	response	1	51	51	foodImage.3	FOODEEG_Images\0046.jpg	NY	Left	No	0.498282199725509	0	289912	234
567.275390625	1	taste	trialStart	1	52	52	foodImage.56	FOODEEG_Images\0586.jpg	YN	Left	Yes	0.619444500189275	0	290446	251
568.318359375	2	taste	foodImageDisplay	1	52	52	foodImage.56	FOODEEG_Images\0586.jpg	YN	Left	Yes	0.619444500189275	0	290980	252
570.37890625	0.619444500189275	taste	choicePhaseStart	1	52	52	foodImage.56	FOODEEG_Images\0586.jpg	YN	Left	Yes	0.619444500189275	0	292035	253
570.9921875	0	taste	response	1	52	52	foodImage.56	FOODEEG_Images\0586.jpg	YN	Left	Yes	0.619444500189275	0	292349	234
572.033203125	1	health	trialStart	1	53	53	foodImage.116	FOODEEG_Images\0924.jpg	NY	Right	Yes	0.765610599890351	0	292882	251
573.0703125	2	health	foodImageDisplay	1	53	53	foodImage.116	FOODEEG_Images\0924.jpg	NY	Right	Yes	0.765610599890351	0	293413	252
575.1328125	0.765610599890351	health	choicePhaseStart	1	53	53	foodImage.116	FOODEEG_Images\0924.jpg	NY	Right	Yes	0.765610599890351	0	294469	253
575.888671875	0	health	response	1	53	53	foodImage.116	FOODEEG_Images\0924.jpg	NY	Right	Yes	0.765610599890351	0	294856	235
576.9296875	1	taste	trialStart	1	54	54	foodImage.55	FOODEEG_Images\0567.jpg	YN	Left	Yes	1.63934769993648	0	295389	251
577.98828125	2	taste	foodImageDisplay	1	54	54	foodImage.55	FOODEEG_Images\0567.jpg	YN	Left	Yes	1.63934769993648	0	295931	252
580.048828125	1.63934769993648	taste	choicePhaseStart	1	54	54	foodImage.55	FOODEEG_Images\0567.jpg	YN	Left	Yes	1.63934769993648	0	296986	253
581.6796875	0	taste	response	1	54	54	foodImage.55	FOODEEG_Images\0567.jpg	YN	Left	Yes	1.63934769993648	0	297821	234
582.72265625	1	health	trialStart	1	55	55	foodImage.2	FOODEEG_Images\0028.jpg	NY	Left	No	0.725964799989015	0	298355	251
583.763671875	2	health	foodImageDisplay	1	55	55	foodImage.2	FOODEEG_Images\0028.jpg	NY	Left	No	0.725964799989015	0	298888	252
585.826171875	0.725964799989015	health	choicePhaseStart	1	55	55	foodImage.2	FOODEEG_Images\0028.jpg	NY	Left	No	0.725964799989015	0	299944	253
586.54296875	0	health	response	1	55	55	foodImage.2	FOODEEG_Images\0028.jpg	NY	Left	No	0.725964799989015	0	300311	234
587.591796875	1	decision	trialStart	1	56	56	foodImage.84	FOODEEG_Images\0830.jpg	NY	Right	Yes	0.629882299806923	0	300848	251
588.65234375	2	decision	foodImageDisplay	1	56	56	foodImage.84	FOODEEG_Images\0830.jpg	NY	Right	Yes	0.629882299806923	0	301391	252
590.71484375	0.629882299806923	decision	choicePhaseStart	1	56	56	foodImage.84	FOODEEG_Images\0830.jpg	NY	Right	Yes	0.629882299806923	0	302447	253
591.333984375	0	decision	response	1	56	56	foodImage.84	FOODEEG_Images\0830.jpg	NY	Right	Yes	0.629882299806923	0	302764	235
592.376953125	1	taste	trialStart	1	57	57	foodImage.6	FOODEEG_Images\0113.jpg	NY	Right	Yes	0.82209109980613	0	303298	251
593.419921875	2	taste	foodImageDisplay	1	57	57	foodImage.6	FOODEEG_Images\0113.jpg	NY	Right	Yes	0.82209109980613	0	303832	252
595.48046875	0.82209109980613	taste	choicePhaseStart	1	57	57	foodImage.6	FOODEEG_Images\0113.jpg	NY	Right	Yes	0.82209109980613	0	304887	253
596.294921875	0	taste	response	1	57	57	foodImage.6	FOODEEG_Images\0113.jpg	NY	Right	Yes	0.82209109980613	0	305304	235
597.3359375	1	decision	trialStart	1	58	58	foodImage.8	FOODEEG_Images\0136.jpg	YN	Left	Yes	0.992719400208443	0	305837	251
598.376953125	2	decision	foodImageDisplay	1	58	58	foodImage.8	FOODEEG_Images\0136.jpg	YN	Left	Yes	0.992719400208443	0	306370	252
600.439453125	0.992719400208443	decision	choicePhaseStart	1	58	58	foodImage.8	FOODEEG_Images\0136.jpg	YN	Left	Yes	0.992719400208443	0	307426	253
601.421875	0	decision	response	1	58	58	foodImage.8	FOODEEG_Images\0136.jpg	YN	Left	Yes	0.992719400208443	0	307929	234
602.46875	1	decision	trialStart	1	59	59	foodImage.35	FOODEEG_Images\0350.jpg	YN	Left	Yes	0.572370399720967	0	308465	251
603.5078125	2	decision	foodImageDisplay	1	59	59	foodImage.35	FOODEEG_Images\0350.jpg	YN	Left	Yes	0.572370399720967	0	308997	252
605.5703125	0.572370399720967	decision	choicePhaseStart	1	59	59	foodImage.35	FOODEEG_Images\0350.jpg	YN	Left	Yes	0.572370399720967	0	310053	253
606.134765625	0	decision	response	1	59	59	foodImage.35	FOODEEG_Images\0350.jpg	YN	Left	Yes	0.572370399720967	0	310342	234
607.177734375	1	health	trialStart	1	60	60	foodImage.15	FOODEEG_Images\0189.jpg	NY	Left	No	1.86409409996122	0	310876	251
608.232421875	2	health	foodImageDisplay	1	60	60	foodImage.15	FOODEEG_Images\0189.jpg	NY	Left	No	1.86409409996122	0	311416	252
610.294921875	1.86409409996122	health	choicePhaseStart	1	60	60	foodImage.15	FOODEEG_Images\0189.jpg	NY	Left	No	1.86409409996122	0	312472	253
612.150390625	0	health	response	1	60	60	foodImage.15	FOODEEG_Images\0189.jpg	NY	Left	No	1.86409409996122	0	313422	234
614.19140625	4.96875	n/a	blockEnd	n/a	n/a	n/a	n/a	n/a	n/a	n/a	n/a	n/a	n/a	314467	254
619.16015625	2	n/a	blockStart	2	n/a	n/a	n/a	n/a	n/a	n/a	n/a	n/a	n/a	317011	250
621.193359375	1	health	trialStart	2	61	1	foodImage.47	FOODEEG_Images\0488.jpg	YN	Right	No	0.971124100033194	0	318052	251
622.236328125	2	health	foodImageDisplay	2	61	1	foodImage.47	FOODEEG_Images\0488.jpg	YN	Right	No	0.971124100033194	0	318586	252
624.298828125	0.971124100033194	health	choicePhaseStart	2	61	1	foodImage.47	FOODEEG_Images\0488.jpg	YN	Right	No	0.971124100033194	0	319642	253
625.26171875	0	health	response	2	61	1	foodImage.47	FOODEEG_Images\0488.jpg	YN	Right	No	0.971124100033194	0	320135	235
626.310546875	1	decision	trialStart	2	62	2	foodImage.29	FOODEEG_Images\0278.jpg	NY	Right	Yes	0.91406669979915	0	320672	251
627.349609375	2	decision	foodImageDisplay	2	62	2	foodImage.29	FOODEEG_Images\0278.jpg	NY	Right	Yes	0.91406669979915	0	321204	252
629.412109375	0.91406669979915	decision	choicePhaseStart	2	62	2	foodImage.29	FOODEEG_Images\0278.jpg	NY	Right	Yes	0.91406669979915	0	322260	253
630.31640625	0	decision	response	2	62	2	foodImage.29	FOODEEG_Images\0278.jpg	NY	Right	Yes	0.91406669979915	0	322723	235
631.357421875	1	health	trialStart	2	63	3	foodImage.98	FOODEEG_Images\0906.jpg	YN	Left	Yes	1.88576480001211	0	323256	251
632.39453125	2	health	foodImageDisplay	2	63	3	foodImage.98	FOODEEG_Images\0906.jpg	YN	Left	Yes	1.88576480001211	0	323787	252
634.455078125	1.88576480001211	health	choicePhaseStart	2	63	3	foodImage.98	FOODEEG_Images\0906.jpg	YN	Left	Yes	1.88576480001211	0	324842	253
636.333984375	0	health	response	2	63	3	foodImage.98	FOODEEG_Images\0906.jpg	YN	Left	Yes	1.88576480001211	0	325804	234
637.376953125	1	decision	trialStart	2	64	4	foodImage.92	FOODEEG_Images\0900.jpg	NY	Left	No	0.913810499943793	0	326338	251
638.4140625	2	decision	foodImageDisplay	2	64	4	foodImage.92	FOODEEG_Images\0900.jpg	NY	Left	No	0.913810499943793	0	326869	252
640.4765625	0.913810499943793	decision	choicePhaseStart	2	64	4	foodImage.92	FOODEEG_Images\0900.jpg	NY	Left	No	0.913810499943793	0	327925	253
641.380859375	0	decision	response	2	64	4	foodImage.92	FOODEEG_Images\0900.jpg	NY	Left	No	0.913810499943793	0	328388	234
642.419921875	1	taste	trialStart	2	65	5	foodImage.97	FOODEEG_Images\0905.jpg	NY	Right	Yes	1.39818319957703	0	328920	251
643.45703125	2	taste	foodImageDisplay	2	65	5	foodImage.97	FOODEEG_Images\0905.jpg	NY	Right	Yes	1.39818319957703	0	329451	252
645.51953125	1.39818319957703	taste	choicePhaseStart	2	65	5	foodImage.97	FOODEEG_Images\0905.jpg	NY	Right	Yes	1.39818319957703	0	330507	253
646.908203125	0	taste	response	2	65	5	foodImage.97	FOODEEG_Images\0905.jpg	NY	Right	Yes	1.39818319957703	0	331218	235
647.953125	1	health	trialStart	2	66	6	foodImage.11	FOODEEG_Images\0180.jpg	YN	Left	Yes	0.731550000142306	0	331753	251
648.994140625	2	health	foodImageDisplay	2	66	6	foodImage.11	FOODEEG_Images\0180.jpg	YN	Left	Yes	0.731550000142306	0	332286	252
651.056640625	0.731550000142306	health	choicePhaseStart	2	66	6	foodImage.11	FOODEEG_Images\0180.jpg	YN	Left	Yes	0.731550000142306	0	333342	253
651.78125	0	health	response	2	66	6	foodImage.11	FOODEEG_Images\0180.jpg	YN	Left	Yes	0.731550000142306	0	333713	234
652.82421875	1	decision	trialStart	2	67	7	foodImage.83	FOODEEG_Images\0827.jpg	YN	Right	No	1.09088500030339	0	334247	251
653.880859375	2	decision	foodImageDisplay	2	67	7	foodImage.83	FOODEEG_Images\0827.jpg	YN	Right	No	1.09088500030339	0	334788	252
655.9453125	1.09088500030339	decision	choicePhaseStart	2	67	7	foodImage.83	FOODEEG_Images\0827.jpg	YN	Right	No	1.09088500030339	0	335845	253
657.029296875	0	decision	response	2	67	7	foodImage.83	FOODEEG_Images\0827.jpg	YN	Right	No	1.09088500030339	0	336400	235
658.072265625	1	decision	trialStart	2	68	8	foodImage.22	FOODEEG_Images\0236.jpg	NY	Right	Yes	0.80503570009023	0	336934	251
659.11328125	2	decision	foodImageDisplay	2	68	8	foodImage.22	FOODEEG_Images\0236.jpg	NY	Right	Yes	0.80503570009023	0	337467	252
661.17578125	0.80503570009023	decision	choicePhaseStart	2	68	8	foodImage.22	FOODEEG_Images\0236.jpg	NY	Right	Yes	0.80503570009023	0	338523	253
661.97265625	0	decision	response	2	68	8	foodImage.22	FOODEEG_Images\0236.jpg	NY	Right	Yes	0.80503570009023	0	338931	235
663.015625	1	decision	trialStart	2	69	9	foodImage.73	FOODEEG_Images\0717.jpg	NY	Right	Yes	0.849362599663436	0	339465	251
664.076171875	2	decision	foodImageDisplay	2	69	9	foodImage.73	FOODEEG_Images\0717.jpg	NY	Right	Yes	0.849362599663436	0	340008	252
666.140625	0.849362599663436	decision	choicePhaseStart	2	69	9	foodImage.73	FOODEEG_Images\0717.jpg	NY	Right	Yes	0.849362599663436	0	341065	253
666.98046875	0	decision	response	2	69	9	foodImage.73	FOODEEG_Images\0717.jpg	NY	Right	Yes	0.849362599663436	0	341495	235
668.0234375	1	health	trialStart	2	70	10	foodImage.45	FOODEEG_Images\0478.jpg	YN	Left	Yes	0.775402700062841	0	342029	251
669.0703125	2	health	foodImageDisplay	2	70	10	foodImage.45	FOODEEG_Images\0478.jpg	YN	Left	Yes	0.775402700062841	0	342565	252
671.1328125	0.775402700062841	health	choicePhaseStart	2	70	10	foodImage.45	FOODEEG_Images\0478.jpg	YN	Left	Yes	0.775402700062841	0	343621	253
671.900390625	0	health	response	2	70	10	foodImage.45	FOODEEG_Images\0478.jpg	YN	Left	Yes	0.775402700062841	0	344014	234
672.94140625	1	decision	trialStart	2	71	11	foodImage.34	FOODEEG_Images\0339.jpg	YN	Left	Yes	0.674103999976069	0	344547	251
673.99609375	2	decision	foodImageDisplay	2	71	11	foodImage.34	FOODEEG_Images\0339.jpg	YN	Left	Yes	0.674103999976069	0	345087	252
676.05859375	0.674103999976069	decision	choicePhaseStart	2	71	11	foodImage.34	FOODEEG_Images\0339.jpg	YN	Left	Yes	0.674103999976069	0	346143	253
676.724609375	0	decision	response	2	71	11	foodImage.34	FOODEEG_Images\0339.jpg	YN	Left	Yes	0.674103999976069	0	346484	234
677.763671875	1	taste	trialStart	2	72	12	foodImage.108	FOODEEG_Images\0916.jpg	NY	Left	No	0.957606799900532	0	347016	251
678.81640625	2	taste	foodImageDisplay	2	72	12	foodImage.108	FOODEEG_Images\0916.jpg	NY	Left	No	0.957606799900532	0	347555	252
680.87890625	0.957606799900532	taste	choicePhaseStart	2	72	12	foodImage.108	FOODEEG_Images\0916.jpg	NY	Left	No	0.957606799900532	0	348611	253
681.828125	0	taste	response	2	72	12	foodImage.108	FOODEEG_Images\0916.jpg	NY	Left	No	0.957606799900532	0	349097	234
682.8671875	1	decision	trialStart	2	73	13	foodImage.62	FOODEEG_Images\0644.jpg	YN	Right	No	1.02478579990566	0	349629	251
683.923828125	2	decision	foodImageDisplay	2	73	13	foodImage.62	FOODEEG_Images\0644.jpg	YN	Right	No	1.02478579990566	0	350170	252
685.986328125	1.02478579990566	decision	choicePhaseStart	2	73	13	foodImage.62	FOODEEG_Images\0644.jpg	YN	Right	No	1.02478579990566	0	351226	253
687.00390625	0	decision	response	2	73	13	foodImage.62	FOODEEG_Images\0644.jpg	YN	Right	No	1.02478579990566	0	351747	235
688.046875	1	taste	trialStart	2	74	14	foodImage.119	FOODEEG_Images\0927.jpg	NY	Right	Yes	1.46759749995545	0	352281	251
689.0859375	2	taste	foodImageDisplay	2	74	14	foodImage.119	FOODEEG_Images\0927.jpg	NY	Right	Yes	1.46759749995545	0	352813	252
691.154296875	1.46759749995545	taste	choicePhaseStart	2	74	14	foodImage.119	FOODEEG_Images\0927.jpg	NY	Right	Yes	1.46759749995545	0	353872	253
692.611328125	0	taste	response	2	74	14	foodImage.119	FOODEEG_Images\0927.jpg	NY	Right	Yes	1.46759749995545	0	354618	235
693.654296875	1	decision	trialStart	2	75	15	foodImage.38	FOODEEG_Images\0365.jpg	NY	Right	Yes	0.722874300088733	0	355152	251
694.69140625	2	decision	foodImageDisplay	2	75	15	foodImage.38	FOODEEG_Images\0365.jpg	NY	Right	Yes	0.722874300088733	0	355683	252
696.751953125	0.722874300088733	decision	choicePhaseStart	2	75	15	foodImage.38	FOODEEG_Images\0365.jpg	NY	Right	Yes	0.722874300088733	0	356738	253
697.466796875	0	decision	response	2	75	15	foodImage.38	FOODEEG_Images\0365.jpg	NY	Right	Yes	0.722874300088733	0	357104	235
698.51171875	1	health	trialStart	2	76	16	foodImage.91	FOODEEG_Images\0896.jpg	NY	Left	No	1.34571150038391	0	357639	251
699.5703125	2	health	foodImageDisplay	2	76	16	foodImage.91	FOODEEG_Images\0896.jpg	NY	Left	No	1.34571150038391	0	358181	252
701.6328125	1.34571150038391	health	choicePhaseStart	2	76	16	foodImage.91	FOODEEG_Images\0896.jpg	NY	Left	No	1.34571150038391	0	359237	253
702.970703125	0	health	response	2	76	16	foodImage.91	FOODEEG_Images\0896.jpg	NY	Left	No	1.34571150038391	0	359922	234
704.013671875	1	taste	trialStart	2	77	17	foodImage.13	FOODEEG_Images\0183.jpg	YN	Right	No	2.10920939967036	0	360456	251
705.056640625	2	taste	foodImageDisplay	2	77	17	foodImage.13	FOODEEG_Images\0183.jpg	YN	Right	No	2.10920939967036	0	360990	252
707.119140625	2.10920939967036	taste	choicePhaseStart	2	77	17	foodImage.13	FOODEEG_Images\0183.jpg	YN	Right	No	2.10920939967036	0	362046	253
709.21875	0	taste	response	2	77	17	foodImage.13	FOODEEG_Images\0183.jpg	YN	Right	No	2.10920939967036	0	363121	235
710.26171875	1	health	trialStart	2	78	18	foodImage.57	FOODEEG_Images\0587.jpg	YN	Right	No	0.867766799870878	0	363655	251
711.3046875	2	health	foodImageDisplay	2	78	18	foodImage.57	FOODEEG_Images\0587.jpg	YN	Right	No	0.867766799870878	0	364189	252
713.3671875	0.867766799870878	health	choicePhaseStart	2	78	18	foodImage.57	FOODEEG_Images\0587.jpg	YN	Right	No	0.867766799870878	0	365245	253
714.2265625	0	health	response	2	78	18	foodImage.57	FOODEEG_Images\0587.jpg	YN	Right	No	0.867766799870878	0	365685	235
715.2734375	1	decision	trialStart	2	79	19	foodImage.24	FOODEEG_Images\0250.jpg	NY	Right	Yes	0.895344800315797	0	366221	251
716.318359375	2	decision	foodImageDisplay	2	79	19	foodImage.24	FOODEEG_Images\0250.jpg	NY	Right	Yes	0.895344800315797	0	366756	252
718.380859375	0.895344800315797	decision	choicePhaseStart	2	79	19	foodImage.24	FOODEEG_Images\0250.jpg	NY	Right	Yes	0.895344800315797	0	367812	253
719.265625	0	decision	response	2	79	19	foodImage.24	FOODEEG_Images\0250.jpg	NY	Right	Yes	0.895344800315797	0	368265	235
720.310546875	1	taste	trialStart	2	80	20	foodImage.34	FOODEEG_Images\0339.jpg	NY	Right	Yes	0.670470200013369	0	368800	251
721.365234375	2	taste	foodImageDisplay	2	80	20	foodImage.34	FOODEEG_Images\0339.jpg	NY	Right	Yes	0.670470200013369	0	369340	252
723.427734375	0.670470200013369	taste	choicePhaseStart	2	80	20	foodImage.34	FOODEEG_Images\0339.jpg	NY	Right	Yes	0.670470200013369	0	370396	253
724.08984375	0	taste	response	2	80	20	foodImage.34	FOODEEG_Images\0339.jpg	NY	Right	Yes	0.670470200013369	0	370735	235
725.1328125	1	health	trialStart	2	81	21	foodImage.118	FOODEEG_Images\0926.jpg	YN	Left	Yes	1.91628549993038	0	371269	251
726.17578125	2	health	foodImageDisplay	2	81	21	foodImage.118	FOODEEG_Images\0926.jpg	YN	Left	Yes	1.91628549993038	0	371803	252
728.23828125	1.91628549993038	health	choicePhaseStart	2	81	21	foodImage.118	FOODEEG_Images\0926.jpg	YN	Left	Yes	1.91628549993038	0	372859	253
730.146484375	0	health	response	2	81	21	foodImage.118	FOODEEG_Images\0926.jpg	YN	Left	Yes	1.91628549993038	0	373836	234
731.189453125	1	decision	trialStart	2	82	22	foodImage.87	FOODEEG_Images\0873.jpg	YN	Right	No	1.13364639971405	0	374370	251
732.24609375	2	decision	foodImageDisplay	2	82	22	foodImage.87	FOODEEG_Images\0873.jpg	YN	Right	No	1.13364639971405	0	374911	252
734.30859375	1.13364639971405	decision	choicePhaseStart	2	82	22	foodImage.87	FOODEEG_Images\0873.jpg	YN	Right	No	1.13364639971405	0	375967	253
735.43359375	0	decision	response	2	82	22	foodImage.87	FOODEEG_Images\0873.jpg	YN	Right	No	1.13364639971405	0	376543	235
736.4765625	1	taste	trialStart	2	83	23	foodImage.118	FOODEEG_Images\0926.jpg	NY	Left	No	0.769213899970055	0	377077	251
737.513671875	2	taste	foodImageDisplay	2	83	23	foodImage.118	FOODEEG_Images\0926.jpg	NY	Left	No	0.769213899970055	0	377608	252
739.576171875	0.769213899970055	taste	choicePhaseStart	2	83	23	foodImage.118	FOODEEG_Images\0926.jpg	NY	Left	No	0.769213899970055	0	378664	253
740.337890625	0	taste	response	2	83	23	foodImage.118	FOODEEG_Images\0926.jpg	NY	Left	No	0.769213899970055	0	379054	234
741.38671875	1	taste	trialStart	2	84	24	foodImage.23	FOODEEG_Images\0244.jpg	YN	Left	Yes	0.765171399805695	0	379591	251
742.4296875	2	taste	foodImageDisplay	2	84	24	foodImage.23	FOODEEG_Images\0244.jpg	YN	Left	Yes	0.765171399805695	0	380125	252
744.494140625	0.765171399805695	taste	choicePhaseStart	2	84	24	foodImage.23	FOODEEG_Images\0244.jpg	YN	Left	Yes	0.765171399805695	0	381182	253
745.25	0	taste	response	2	84	24	foodImage.23	FOODEEG_Images\0244.jpg	YN	Left	Yes	0.765171399805695	0	381569	234
746.291015625	1	health	trialStart	2	85	25	foodImage.44	FOODEEG_Images\0459.jpg	NY	Right	Yes	0.611382400151342	0	382102	251
747.3359375	2	health	foodImageDisplay	2	85	25	foodImage.44	FOODEEG_Images\0459.jpg	NY	Right	Yes	0.611382400151342	0	382637	252
749.3984375	0.611382400151342	health	choicePhaseStart	2	85	25	foodImage.44	FOODEEG_Images\0459.jpg	NY	Right	Yes	0.611382400151342	0	383693	253
750	0	health	response	2	85	25	foodImage.44	FOODEEG_Images\0459.jpg	NY	Right	Yes	0.611382400151342	0	384001	235
751.041015625	1	health	trialStart	2	86	26	foodImage.64	FOODEEG_Images\0647.jpg	NY	Right	Yes	0.575704200193286	0	384534	251
752.09765625	2	health	foodImageDisplay	2	86	26	foodImage.64	FOODEEG_Images\0647.jpg	NY	Right	Yes	0.575704200193286	0	385075	252
754.16015625	0.575704200193286	health	choicePhaseStart	2	86	26	foodImage.64	FOODEEG_Images\0647.jpg	NY	Right	Yes	0.575704200193286	0	386131	253
754.728515625	0	health	response	2	86	26	foodImage.64	FOODEEG_Images\0647.jpg	NY	Right	Yes	0.575704200193286	0	386422	235
755.7734375	1	health	trialStart	2	87	27	foodImage.120	FOODEEG_Images\0928.jpg	NY	Right	Yes	1.66288199974224	0	386957	251
756.8125	2	health	foodImageDisplay	2	87	27	foodImage.120	FOODEEG_Images\0928.jpg	NY	Right	Yes	1.66288199974224	0	387489	252
758.875	1.66288199974224	health	choicePhaseStart	2	87	27	foodImage.120	FOODEEG_Images\0928.jpg	NY	Right	Yes	1.66288199974224	0	388545	253
760.52734375	0	health	response	2	87	27	foodImage.120	FOODEEG_Images\0928.jpg	NY	Right	Yes	1.66288199974224	0	389391	235
761.5703125	1	health	trialStart	2	88	28	foodImage.42	FOODEEG_Images\0438.jpg	YN	Left	Yes	1.18294860003516	0	389925	251
762.66015625	2	health	foodImageDisplay	2	88	28	foodImage.42	FOODEEG_Images\0438.jpg	YN	Left	Yes	1.18294860003516	0	390483	252
764.72265625	1.18294860003516	health	choicePhaseStart	2	88	28	foodImage.42	FOODEEG_Images\0438.jpg	YN	Left	Yes	1.18294860003516	0	391539	253
765.896484375	0	health	response	2	88	28	foodImage.42	FOODEEG_Images\0438.jpg	YN	Left	Yes	1.18294860003516	0	392140	234
766.94140625	1	health	trialStart	2	89	29	foodImage.30	FOODEEG_Images\0282.jpg	NY	Right	Yes	0.552241399884224	0	392675	251
767.984375	2	health	foodImageDisplay	2	89	29	foodImage.30	FOODEEG_Images\0282.jpg	NY	Right	Yes	0.552241399884224	0	393209	252
770.05078125	0.552241399884224	health	choicePhaseStart	2	89	29	foodImage.30	FOODEEG_Images\0282.jpg	NY	Right	Yes	0.552241399884224	0	394267	253
770.591796875	0	health	response	2	89	29	foodImage.30	FOODEEG_Images\0282.jpg	NY	Right	Yes	0.552241399884224	0	394544	235
771.634765625	1	decision	trialStart	2	90	30	foodImage.105	FOODEEG_Images\0913.jpg	NY	Right	Yes	0.648874699603766	0	395078	251
772.673828125	2	decision	foodImageDisplay	2	90	30	foodImage.105	FOODEEG_Images\0913.jpg	NY	Right	Yes	0.648874699603766	0	395610	252
774.736328125	0.648874699603766	decision	choicePhaseStart	2	90	30	foodImage.105	FOODEEG_Images\0913.jpg	NY	Right	Yes	0.648874699603766	0	396666	253
775.376953125	0	decision	response	2	90	30	foodImage.105	FOODEEG_Images\0913.jpg	NY	Right	Yes	0.648874699603766	0	396994	235
776.421875	1	taste	trialStart	2	91	31	foodImage.71	FOODEEG_Images\0713.jpg	YN	Left	Yes	0.580691100098193	0	397529	251
777.4609375	2	taste	foodImageDisplay	2	91	31	foodImage.71	FOODEEG_Images\0713.jpg	YN	Left	Yes	0.580691100098193	0	398061	252
779.5234375	0.580691100098193	taste	choicePhaseStart	2	91	31	foodImage.71	FOODEEG_Images\0713.jpg	YN	Left	Yes	0.580691100098193	0	399117	253
780.095703125	0	taste	response	2	91	31	foodImage.71	FOODEEG_Images\0713.jpg	YN	Left	Yes	0.580691100098193	0	399410	234
781.134765625	1	health	trialStart	2	92	32	foodImage.74	FOODEEG_Images\0752.jpg	YN	Left	Yes	0.574577099643648	0	399942	251
782.1796875	2	health	foodImageDisplay	2	92	32	foodImage.74	FOODEEG_Images\0752.jpg	YN	Left	Yes	0.574577099643648	0	400477	252
784.2421875	0.574577099643648	health	choicePhaseStart	2	92	32	foodImage.74	FOODEEG_Images\0752.jpg	YN	Left	Yes	0.574577099643648	0	401533	253
784.806640625	0	health	response	2	92	32	foodImage.74	FOODEEG_Images\0752.jpg	YN	Left	Yes	0.574577099643648	0	401822	234
785.8515625	1	health	trialStart	2	93	33	foodImage.35	FOODEEG_Images\0350.jpg	YN	Right	No	1.21564640011638	0	402357	251
786.890625	2	health	foodImageDisplay	2	93	33	foodImage.35	FOODEEG_Images\0350.jpg	YN	Right	No	1.21564640011638	0	402889	252
788.953125	1.21564640011638	health	choicePhaseStart	2	93	33	foodImage.35	FOODEEG_Images\0350.jpg	YN	Right	No	1.21564640011638	0	403945	253
790.16015625	0	health	response	2	93	33	foodImage.35	FOODEEG_Images\0350.jpg	YN	Right	No	1.21564640011638	0	404563	235
791.19921875	1	decision	trialStart	2	94	34	foodImage.76	FOODEEG_Images\0766.jpg	NY	Right	Yes	0.806844499893486	0	405095	251
792.2421875	2	decision	foodImageDisplay	2	94	34	foodImage.76	FOODEEG_Images\0766.jpg	NY	Right	Yes	0.806844499893486	0	405629	252
794.3046875	0.806844499893486	decision	choicePhaseStart	2	94	34	foodImage.76	FOODEEG_Images\0766.jpg	NY	Right	Yes	0.806844499893486	0	406685	253
795.103515625	0	decision	response	2	94	34	foodImage.76	FOODEEG_Images\0766.jpg	NY	Right	Yes	0.806844499893486	0	407094	235
796.146484375	1	taste	trialStart	2	95	35	foodImage.67	FOODEEG_Images\0679.jpg	NY	Right	Yes	0.630405799951404	0	407628	251
797.228515625	2	taste	foodImageDisplay	2	95	35	foodImage.67	FOODEEG_Images\0679.jpg	NY	Right	Yes	0.630405799951404	0	408182	252
799.291015625	0.630405799951404	taste	choicePhaseStart	2	95	35	foodImage.67	FOODEEG_Images\0679.jpg	NY	Right	Yes	0.630405799951404	0	409238	253
799.91015625	0	taste	response	2	95	35	foodImage.67	FOODEEG_Images\0679.jpg	NY	Right	Yes	0.630405799951404	0	409555	235
800.955078125	1	decision	trialStart	2	96	36	foodImage.43	FOODEEG_Images\0445.jpg	NY	Right	Yes	0.747084500268102	0	410090	251
802.013671875	2	decision	foodImageDisplay	2	96	36	foodImage.43	FOODEEG_Images\0445.jpg	NY	Right	Yes	0.747084500268102	0	410632	252
804.076171875	0.747084500268102	decision	choicePhaseStart	2	96	36	foodImage.43	FOODEEG_Images\0445.jpg	NY	Right	Yes	0.747084500268102	0	411688	253
804.814453125	0	decision	response	2	96	36	foodImage.43	FOODEEG_Images\0445.jpg	NY	Right	Yes	0.747084500268102	0	412066	235
805.859375	1	health	trialStart	2	97	37	foodImage.29	FOODEEG_Images\0278.jpg	YN	Left	Yes	0.445354599971324	0	412601	251
806.900390625	2	health	foodImageDisplay	2	97	37	foodImage.29	FOODEEG_Images\0278.jpg	YN	Left	Yes	0.445354599971324	0	413134	252
808.9609375	0.445354599971324	health	choicePhaseStart	2	97	37	foodImage.29	FOODEEG_Images\0278.jpg	YN	Left	Yes	0.445354599971324	0	414189	253
809.3984375	0	health	response	2	97	37	foodImage.29	FOODEEG_Images\0278.jpg	YN	Left	Yes	0.445354599971324	0	414413	234
810.439453125	1	decision	trialStart	2	98	38	foodImage.52	FOODEEG_Images\0539.jpg	YN	Left	Yes	0.704890300054103	0	414946	251
811.49609375	2	decision	foodImageDisplay	2	98	38	foodImage.52	FOODEEG_Images\0539.jpg	YN	Left	Yes	0.704890300054103	0	415487	252
813.55859375	0.704890300054103	decision	choicePhaseStart	2	98	38	foodImage.52	FOODEEG_Images\0539.jpg	YN	Left	Yes	0.704890300054103	0	416543	253
814.25390625	0	decision	response	2	98	38	foodImage.52	FOODEEG_Images\0539.jpg	YN	Left	Yes	0.704890300054103	0	416899	234
815.294921875	1	decision	trialStart	2	99	39	foodImage.112	FOODEEG_Images\0920.jpg	NY	Left	No	0.789004300255328	0	417432	251
816.33203125	2	decision	foodImageDisplay	2	99	39	foodImage.112	FOODEEG_Images\0920.jpg	NY	Left	No	0.789004300255328	0	417963	252
818.39453125	0.789004300255328	decision	choicePhaseStart	2	99	39	foodImage.112	FOODEEG_Images\0920.jpg	NY	Left	No	0.789004300255328	0	419019	253
819.173828125	0	decision	response	2	99	39	foodImage.112	FOODEEG_Images\0920.jpg	NY	Left	No	0.789004300255328	0	419418	234
820.216796875	1	health	trialStart	2	100	40	foodImage.21	FOODEEG_Images\0234.jpg	YN	Left	Yes	0.548916799947619	0	419952	251
821.275390625	2	health	foodImageDisplay	2	100	40	foodImage.21	FOODEEG_Images\0234.jpg	YN	Left	Yes	0.548916799947619	0	420494	252
823.337890625	0.548916799947619	health	choicePhaseStart	2	100	40	foodImage.21	FOODEEG_Images\0234.jpg	YN	Left	Yes	0.548916799947619	0	421550	253
823.876953125	0	health	response	2	100	40	foodImage.21	FOODEEG_Images\0234.jpg	YN	Left	Yes	0.548916799947619	0	421826	234
824.921875	1	decision	trialStart	2	101	41	foodImage.113	FOODEEG_Images\0921.jpg	NY	Right	Yes	0.759684800170362	0	422361	251
825.9609375	2	decision	foodImageDisplay	2	101	41	foodImage.113	FOODEEG_Images\0921.jpg	NY	Right	Yes	0.759684800170362	0	422893	252
828.0234375	0.759684800170362	decision	choicePhaseStart	2	101	41	foodImage.113	FOODEEG_Images\0921.jpg	NY	Right	Yes	0.759684800170362	0	423949	253
828.7734375	0	decision	response	2	101	41	foodImage.113	FOODEEG_Images\0921.jpg	NY	Right	Yes	0.759684800170362	0	424333	235
829.81640625	1	decision	trialStart	2	102	42	foodImage.40	FOODEEG_Images\0373.jpg	NY	Right	Yes	0.645589800085872	0	424867	251
830.857421875	2	decision	foodImageDisplay	2	102	42	foodImage.40	FOODEEG_Images\0373.jpg	NY	Right	Yes	0.645589800085872	0	425400	252
832.919921875	0.645589800085872	decision	choicePhaseStart	2	102	42	foodImage.40	FOODEEG_Images\0373.jpg	NY	Right	Yes	0.645589800085872	0	426456	253
833.556640625	0	decision	response	2	102	42	foodImage.40	FOODEEG_Images\0373.jpg	NY	Right	Yes	0.645589800085872	0	426782	235
834.59765625	1	taste	trialStart	2	103	43	foodImage.98	FOODEEG_Images\0906.jpg	NY	Right	Yes	0.708472499623895	0	427315	251
835.63671875	2	taste	foodImageDisplay	2	103	43	foodImage.98	FOODEEG_Images\0906.jpg	NY	Right	Yes	0.708472499623895	0	427847	252
837.69921875	0.708472499623895	taste	choicePhaseStart	2	103	43	foodImage.98	FOODEEG_Images\0906.jpg	NY	Right	Yes	0.708472499623895	0	428903	253
838.396484375	0	taste	response	2	103	43	foodImage.98	FOODEEG_Images\0906.jpg	NY	Right	Yes	0.708472499623895	0	429260	235
839.44140625	1	health	trialStart	2	104	44	foodImage.70	FOODEEG_Images\0705.jpg	YN	Left	Yes	0.604142100084573	0	429795	251
840.5	2	health	foodImageDisplay	2	104	44	foodImage.70	FOODEEG_Images\0705.jpg	YN	Left	Yes	0.604142100084573	0	430337	252
842.5625	0.604142100084573	health	choicePhaseStart	2	104	44	foodImage.70	FOODEEG_Images\0705.jpg	YN	Left	Yes	0.604142100084573	0	431393	253
843.15625	0	health	response	2	104	44	foodImage.70	FOODEEG_Images\0705.jpg	YN	Left	Yes	0.604142100084573	0	431697	234
844.201171875	1	decision	trialStart	2	105	45	foodImage.111	FOODEEG_Images\0919.jpg	YN	Right	No	0.927594800014049	0	432232	251
845.240234375	2	decision	foodImageDisplay	2	105	45	foodImage.111	FOODEEG_Images\0919.jpg	YN	Right	No	0.927594800014049	0	432764	252
847.302734375	0.927594800014049	decision	choicePhaseStart	2	105	45	foodImage.111	FOODEEG_Images\0919.jpg	YN	Right	No	0.927594800014049	0	433820	253
848.220703125	0	decision	response	2	105	45	foodImage.111	FOODEEG_Images\0919.jpg	YN	Right	No	0.927594800014049	0	434290	235
849.265625	1	decision	trialStart	2	106	46	foodImage.74	FOODEEG_Images\0752.jpg	YN	Left	Yes	0.602433899883181	0	434825	251
850.30859375	2	decision	foodImageDisplay	2	106	46	foodImage.74	FOODEEG_Images\0752.jpg	YN	Left	Yes	0.602433899883181	0	435359	252
852.37109375	0.602433899883181	decision	choicePhaseStart	2	106	46	foodImage.74	FOODEEG_Images\0752.jpg	YN	Left	Yes	0.602433899883181	0	436415	253
852.96484375	0	decision	response	2	106	46	foodImage.74	FOODEEG_Images\0752.jpg	YN	Left	Yes	0.602433899883181	0	436719	234
854.0078125	1	taste	trialStart	2	107	47	foodImage.21	FOODEEG_Images\0234.jpg	YN	Left	Yes	0.652373800054193	0	437253	251
855.064453125	2	taste	foodImageDisplay	2	107	47	foodImage.21	FOODEEG_Images\0234.jpg	YN	Left	Yes	0.652373800054193	0	437794	252
857.12890625	0.652373800054193	taste	choicePhaseStart	2	107	47	foodImage.21	FOODEEG_Images\0234.jpg	YN	Left	Yes	0.652373800054193	0	438851	253
857.7734375	0	taste	response	2	107	47	foodImage.21	FOODEEG_Images\0234.jpg	YN	Left	Yes	0.652373800054193	0	439181	234
858.81640625	1	decision	trialStart	2	108	48	foodImage.89	FOODEEG_Images\0881.jpg	YN	Left	Yes	0.525224700104445	0	439715	251
859.873046875	2	decision	foodImageDisplay	2	108	48	foodImage.89	FOODEEG_Images\0881.jpg	YN	Left	Yes	0.525224700104445	0	440256	252
861.935546875	0.525224700104445	decision	choicePhaseStart	2	108	48	foodImage.89	FOODEEG_Images\0881.jpg	YN	Left	Yes	0.525224700104445	0	441312	253
862.453125	0	decision	response	2	108	48	foodImage.89	FOODEEG_Images\0881.jpg	YN	Left	Yes	0.525224700104445	0	441577	234
863.49609375	1	health	trialStart	2	109	49	foodImage.54	FOODEEG_Images\0560.jpg	NY	Left	No	2.66020479984581	0	442111	251
864.5546875	2	health	foodImageDisplay	2	109	49	foodImage.54	FOODEEG_Images\0560.jpg	NY	Left	No	2.66020479984581	0	442653	252
866.615234375	2.66020479984581	health	choicePhaseStart	2	109	49	foodImage.54	FOODEEG_Images\0560.jpg	NY	Left	No	2.66020479984581	0	443708	253
869.267578125	0	health	response	2	109	49	foodImage.54	FOODEEG_Images\0560.jpg	NY	Left	No	2.66020479984581	0	445066	234
870.3125	1	taste	trialStart	2	110	50	foodImage.51	FOODEEG_Images\0536.jpg	YN	Left	Yes	0.831769099924713	0	445601	251
871.357421875	2	taste	foodImageDisplay	2	110	50	foodImage.51	FOODEEG_Images\0536.jpg	YN	Left	Yes	0.831769099924713	0	446136	252
873.419921875	0.831769099924713	taste	choicePhaseStart	2	110	50	foodImage.51	FOODEEG_Images\0536.jpg	YN	Left	Yes	0.831769099924713	0	447192	253
874.244140625	0	taste	response	2	110	50	foodImage.51	FOODEEG_Images\0536.jpg	YN	Left	Yes	0.831769099924713	0	447614	234
875.287109375	1	taste	trialStart	2	111	51	foodImage.116	FOODEEG_Images\0924.jpg	NY	Left	No	1.48465440003201	0	448148	251
876.330078125	2	taste	foodImageDisplay	2	111	51	foodImage.116	FOODEEG_Images\0924.jpg	NY	Left	No	1.48465440003201	0	448682	252
878.392578125	1.48465440003201	taste	choicePhaseStart	2	111	51	foodImage.116	FOODEEG_Images\0924.jpg	NY	Left	No	1.48465440003201	0	449738	253
879.8671875	0	taste	response	2	111	51	foodImage.116	FOODEEG_Images\0924.jpg	NY	Left	No	1.48465440003201	0	450493	234
880.916015625	1	taste	trialStart	2	112	52	foodImage.89	FOODEEG_Images\0881.jpg	YN	Left	Yes	0.65061890007928	0	451030	251
881.970703125	2	taste	foodImageDisplay	2	112	52	foodImage.89	FOODEEG_Images\0881.jpg	YN	Left	Yes	0.65061890007928	0	451570	252
884.033203125	0.65061890007928	taste	choicePhaseStart	2	112	52	foodImage.89	FOODEEG_Images\0881.jpg	YN	Left	Yes	0.65061890007928	0	452626	253
884.67578125	0	taste	response	2	112	52	foodImage.89	FOODEEG_Images\0881.jpg	YN	Left	Yes	0.65061890007928	0	452955	234
885.71484375	1	health	trialStart	2	113	53	foodImage.1	FOODEEG_Images\0004.jpg	NY	Left	No	0.737018399871886	0	453487	251
886.77734375	2	health	foodImageDisplay	2	113	53	foodImage.1	FOODEEG_Images\0004.jpg	NY	Left	No	0.737018399871886	0	454031	252
888.83984375	0.737018399871886	health	choicePhaseStart	2	113	53	foodImage.1	FOODEEG_Images\0004.jpg	NY	Left	No	0.737018399871886	0	455087	253
889.572265625	0	health	response	2	113	53	foodImage.1	FOODEEG_Images\0004.jpg	NY	Left	No	0.737018399871886	0	455462	234
890.61328125	1	health	trialStart	2	114	54	foodImage.14	FOODEEG_Images\0188.jpg	NY	Left	No	0.594559099990875	0	455995	251
891.66796875	2	health	foodImageDisplay	2	114	54	foodImage.14	FOODEEG_Images\0188.jpg	NY	Left	No	0.594559099990875	0	456535	252
893.73046875	0.594559099990875	health	choicePhaseStart	2	114	54	foodImage.14	FOODEEG_Images\0188.jpg	NY	Left	No	0.594559099990875	0	457591	253
894.314453125	0	health	response	2	114	54	foodImage.14	FOODEEG_Images\0188.jpg	NY	Left	No	0.594559099990875	0	457890	234
895.359375	1	decision	trialStart	2	115	55	foodImage.16	FOODEEG_Images\0196.jpg	NY	Left	No	1.09121430013329	0	458425	251
896.416015625	2	decision	foodImageDisplay	2	115	55	foodImage.16	FOODEEG_Images\0196.jpg	NY	Left	No	1.09121430013329	0	458966	252
898.478515625	1.09121430013329	decision	choicePhaseStart	2	115	55	foodImage.16	FOODEEG_Images\0196.jpg	NY	Left	No	1.09121430013329	0	460022	253
899.5625	0	decision	response	2	115	55	foodImage.16	FOODEEG_Images\0196.jpg	NY	Left	No	1.09121430013329	0	460577	234
900.60546875	1	health	trialStart	2	116	56	foodImage.108	FOODEEG_Images\0916.jpg	YN	Left	Yes	1.33600960019976	0	461111	251
901.64453125	2	health	foodImageDisplay	2	116	56	foodImage.108	FOODEEG_Images\0916.jpg	YN	Left	Yes	1.33600960019976	0	461643	252
903.70703125	1.33600960019976	health	choicePhaseStart	2	116	56	foodImage.108	FOODEEG_Images\0916.jpg	YN	Left	Yes	1.33600960019976	0	462699	253
905.03515625	0	health	response	2	116	56	foodImage.108	FOODEEG_Images\0916.jpg	YN	Left	Yes	1.33600960019976	0	463379	234
906.078125	1	health	trialStart	2	117	57	foodImage.69	FOODEEG_Images\0693.jpg	NY	Right	Yes	0.626170399598777	0	463913	251
907.123046875	2	health	foodImageDisplay	2	117	57	foodImage.69	FOODEEG_Images\0693.jpg	NY	Right	Yes	0.626170399598777	0	464448	252
909.185546875	0.626170399598777	health	choicePhaseStart	2	117	57	foodImage.69	FOODEEG_Images\0693.jpg	NY	Right	Yes	0.626170399598777	0	465504	253
909.802734375	0	health	response	2	117	57	foodImage.69	FOODEEG_Images\0693.jpg	NY	Right	Yes	0.626170399598777	0	465820	235
910.841796875	1	health	trialStart	2	118	58	foodImage.63	FOODEEG_Images\0645.jpg	YN	Left	Yes	2.89626049995422	0	466352	251
911.884765625	2	health	foodImageDisplay	2	118	58	foodImage.63	FOODEEG_Images\0645.jpg	YN	Left	Yes	2.89626049995422	0	466886	252
913.947265625	2.89626049995422	health	choicePhaseStart	2	118	58	foodImage.63	FOODEEG_Images\0645.jpg	YN	Left	Yes	2.89626049995422	0	467942	253
916.833984375	0	health	response	2	118	58	foodImage.63	FOODEEG_Images\0645.jpg	YN	Left	Yes	2.89626049995422	0	469420	234
917.875	1	health	trialStart	2	119	59	foodImage.115	FOODEEG_Images\0923.jpg	YN	Left	Yes	1.84831639984623	0	469953	251
918.9140625	2	health	foodImageDisplay	2	119	59	foodImage.115	FOODEEG_Images\0923.jpg	YN	Left	Yes	1.84831639984623	0	470485	252
920.978515625	1.84831639984623	health	choicePhaseStart	2	119	59	foodImage.115	FOODEEG_Images\0923.jpg	YN	Left	Yes	1.84831639984623	0	471542	253
922.818359375	0	health	response	2	119	59	foodImage.115	FOODEEG_Images\0923.jpg	YN	Left	Yes	1.84831639984623	0	472484	234
923.857421875	1	taste	trialStart	2	120	60	foodImage.109	FOODEEG_Images\0917.jpg	YN	Left	Yes	0.829907100182027	0	473016	251
924.89453125	2	taste	foodImageDisplay	2	120	60	foodImage.109	FOODEEG_Images\0917.jpg	YN	Left	Yes	0.829907100182027	0	473547	252
926.95703125	0.829907100182027	taste	choicePhaseStart	2	120	60	foodImage.109	FOODEEG_Images\0917.jpg	YN	Left	Yes	0.829907100182027	0	474603	253
927.77734375	0	taste	response	2	120	60	foodImage.109	FOODEEG_Images\0917.jpg	YN	Left	Yes	0.829907100182027	0	475023	234
929.8203125	2.794921875	n/a	blockEnd	n/a	n/a	n/a	n/a	n/a	n/a	n/a	n/a	n/a	n/a	476069	254
932.615234375	2	n/a	blockStart	3	n/a	n/a	n/a	n/a	n/a	n/a	n/a	n/a	n/a	477500	250
934.6484375	1	health	trialStart	3	121	1	foodImage.38	FOODEEG_Images\0365.jpg	NY	Right	Yes	0.567227299790829	0	478541	251
935.6875	2	health	foodImageDisplay	3	121	1	foodImage.38	FOODEEG_Images\0365.jpg	NY	Right	Yes	0.567227299790829	0	479073	252
937.755859375	0.567227299790829	health	choicePhaseStart	3	121	1	foodImage.38	FOODEEG_Images\0365.jpg	NY	Right	Yes	0.567227299790829	0	480132	253
938.314453125	0	health	response	3	121	1	foodImage.38	FOODEEG_Images\0365.jpg	NY	Right	Yes	0.567227299790829	0	480418	235
939.357421875	1	health	trialStart	3	122	2	foodImage.58	FOODEEG_Images\0605.jpg	YN	Left	Yes	0.658100899774581	0	480952	251
940.41796875	2	health	foodImageDisplay	3	122	2	foodImage.58	FOODEEG_Images\0605.jpg	YN	Left	Yes	0.658100899774581	0	481495	252
942.48046875	0.658100899774581	health	choicePhaseStart	3	122	2	foodImage.58	FOODEEG_Images\0605.jpg	YN	Left	Yes	0.658100899774581	0	482551	253
943.12890625	0	health	response	3	122	2	foodImage.58	FOODEEG_Images\0605.jpg	YN	Left	Yes	0.658100899774581	0	482883	234
944.169921875	1	decision	trialStart	3	123	3	foodImage.63	FOODEEG_Images\0645.jpg	NY	Right	Yes	0.718895399942994	0	483416	251
945.212890625	2	decision	foodImageDisplay	3	123	3	foodImage.63	FOODEEG_Images\0645.jpg	NY	Right	Yes	0.718895399942994	0	483950	252
947.275390625	0.718895399942994	decision	choicePhaseStart	3	123	3	foodImage.63	FOODEEG_Images\0645.jpg	NY	Right	Yes	0.718895399942994	0	485006	253
947.984375	0	decision	response	3	123	3	foodImage.63	FOODEEG_Images\0645.jpg	NY	Right	Yes	0.718895399942994	0	485369	235
949.025390625	1	taste	trialStart	3	124	4	foodImage.17	FOODEEG_Images\0199.jpg	NY	Right	Yes	0.60411740001291	0	485902	251
950.064453125	2	taste	foodImageDisplay	3	124	4	foodImage.17	FOODEEG_Images\0199.jpg	NY	Right	Yes	0.60411740001291	0	486434	252
952.126953125	0.60411740001291	taste	choicePhaseStart	3	124	4	foodImage.17	FOODEEG_Images\0199.jpg	NY	Right	Yes	0.60411740001291	0	487490	253
952.720703125	0	taste	response	3	124	4	foodImage.17	FOODEEG_Images\0199.jpg	NY	Right	Yes	0.60411740001291	0	487794	235
953.765625	1	taste	trialStart	3	125	5	foodImage.18	FOODEEG_Images\0202.jpg	YN	Left	Yes	0.524960100185126	0	488329	251
954.822265625	2	taste	foodImageDisplay	3	125	5	foodImage.18	FOODEEG_Images\0202.jpg	YN	Left	Yes	0.524960100185126	0	488870	252
956.884765625	0.524960100185126	taste	choicePhaseStart	3	125	5	foodImage.18	FOODEEG_Images\0202.jpg	YN	Left	Yes	0.524960100185126	0	489926	253
957.400390625	0	taste	response	3	125	5	foodImage.18	FOODEEG_Images\0202.jpg	YN	Left	Yes	0.524960100185126	0	490190	234
958.443359375	1	decision	trialStart	3	126	6	foodImage.94	FOODEEG_Images\0902.jpg	NY	Right	Yes	0.567138700280339	0	490724	251
959.484375	2	decision	foodImageDisplay	3	126	6	foodImage.94	FOODEEG_Images\0902.jpg	NY	Right	Yes	0.567138700280339	0	491257	252
961.546875	0.567138700280339	decision	choicePhaseStart	3	126	6	foodImage.94	FOODEEG_Images\0902.jpg	NY	Right	Yes	0.567138700280339	0	492313	253
962.103515625	0	decision	response	3	126	6	foodImage.94	FOODEEG_Images\0902.jpg	NY	Right	Yes	0.567138700280339	0	492598	235
963.14453125	1	health	trialStart	3	127	7	foodImage.106	FOODEEG_Images\0914.jpg	YN	Right	No	1.39614310022444	0	493131	251
964.181640625	2	health	foodImageDisplay	3	127	7	foodImage.106	FOODEEG_Images\0914.jpg	YN	Right	No	1.39614310022444	0	493662	252
966.244140625	1.39614310022444	health	choicePhaseStart	3	127	7	foodImage.106	FOODEEG_Images\0914.jpg	YN	Right	No	1.39614310022444	0	494718	253
967.6328125	0	health	response	3	127	7	foodImage.106	FOODEEG_Images\0914.jpg	YN	Right	No	1.39614310022444	0	495429	235
968.67578125	1	health	trialStart	3	128	8	foodImage.75	FOODEEG_Images\0763.jpg	NY	Right	Yes	0.562335200142115	0	495963	251
969.71875	2	health	foodImageDisplay	3	128	8	foodImage.75	FOODEEG_Images\0763.jpg	NY	Right	Yes	0.562335200142115	0	496497	252
971.78125	0.562335200142115	health	choicePhaseStart	3	128	8	foodImage.75	FOODEEG_Images\0763.jpg	NY	Right	Yes	0.562335200142115	0	497553	253
972.3359375	0	health	response	3	128	8	foodImage.75	FOODEEG_Images\0763.jpg	NY	Right	Yes	0.562335200142115	0	497837	235
973.37890625	1	decision	trialStart	3	129	9	foodImage.61	FOODEEG_Images\0640.jpg	YN	Right	No	1.08597679995	0	498371	251
974.419921875	2	decision	foodImageDisplay	3	129	9	foodImage.61	FOODEEG_Images\0640.jpg	YN	Right	No	1.08597679995	0	498904	252
976.482421875	1.08597679995	decision	choicePhaseStart	3	129	9	foodImage.61	FOODEEG_Images\0640.jpg	YN	Right	No	1.08597679995	0	499960	253
977.560546875	0	decision	response	3	129	9	foodImage.61	FOODEEG_Images\0640.jpg	YN	Right	No	1.08597679995	0	500512	235
978.6015625	1	taste	trialStart	3	130	10	foodImage.38	FOODEEG_Images\0365.jpg	YN	Left	Yes	0.553198200184852	0	501045	251
979.640625	2	taste	foodImageDisplay	3	130	10	foodImage.38	FOODEEG_Images\0365.jpg	YN	Left	Yes	0.553198200184852	0	501577	252
981.703125	0.553198200184852	taste	choicePhaseStart	3	130	10	foodImage.38	FOODEEG_Images\0365.jpg	YN	Left	Yes	0.553198200184852	0	502633	253
982.248046875	0	taste	response	3	130	10	foodImage.38	FOODEEG_Images\0365.jpg	YN	Left	Yes	0.553198200184852	0	502912	234
983.2890625	1	health	trialStart	3	131	11	foodImage.59	FOODEEG_Images\0607.jpg	NY	Left	No	0.832544199656695	0	503445	251
984.333984375	2	health	foodImageDisplay	3	131	11	foodImage.59	FOODEEG_Images\0607.jpg	NY	Left	No	0.832544199656695	0	503980	252
986.400390625	0.832544199656695	health	choicePhaseStart	3	131	11	foodImage.59	FOODEEG_Images\0607.jpg	NY	Left	No	0.832544199656695	0	505038	253
987.22265625	0	health	response	3	131	11	foodImage.59	FOODEEG_Images\0607.jpg	NY	Left	No	0.832544199656695	0	505459	234
988.263671875	1	health	trialStart	3	132	12	foodImage.36	FOODEEG_Images\0352.jpg	NY	Right	Yes	0.990104299969971	0	505992	251
989.32421875	2	health	foodImageDisplay	3	132	12	foodImage.36	FOODEEG_Images\0352.jpg	NY	Right	Yes	0.990104299969971	0	506535	252
991.38671875	0.990104299969971	health	choicePhaseStart	3	132	12	foodImage.36	FOODEEG_Images\0352.jpg	NY	Right	Yes	0.990104299969971	0	507591	253
992.3671875	0	health	response	3	132	12	foodImage.36	FOODEEG_Images\0352.jpg	NY	Right	Yes	0.990104299969971	0	508093	235
993.408203125	1	health	trialStart	3	133	13	foodImage.25	FOODEEG_Images\0261.jpg	NY	Right	Yes	0.647645200137049	0	508626	251
994.44921875	2	health	foodImageDisplay	3	133	13	foodImage.25	FOODEEG_Images\0261.jpg	NY	Right	Yes	0.647645200137049	0	509159	252
996.51171875	0.647645200137049	health	choicePhaseStart	3	133	13	foodImage.25	FOODEEG_Images\0261.jpg	NY	Right	Yes	0.647645200137049	0	510215	253
997.150390625	0	health	response	3	133	13	foodImage.25	FOODEEG_Images\0261.jpg	NY	Right	Yes	0.647645200137049	0	510542	235
998.1953125	1	taste	trialStart	3	134	14	foodImage.87	FOODEEG_Images\0873.jpg	NY	Left	No	0.696666699834168	0	511077	251
999.25	2	taste	foodImageDisplay	3	134	14	foodImage.87	FOODEEG_Images\0873.jpg	NY	Left	No	0.696666699834168	0	511617	252
1001.3125	0.696666699834168	taste	choicePhaseStart	3	134	14	foodImage.87	FOODEEG_Images\0873.jpg	NY	Left	No	0.696666699834168	0	512673	253
1002	0	taste	response	3	134	14	foodImage.87	FOODEEG_Images\0873.jpg	NY	Left	No	0.696666699834168	0	513025	234
1003.04296875	1	taste	trialStart	3	135	15	foodImage.115	FOODEEG_Images\0923.jpg	YN	Right	No	1.35251300036907	0	513559	251
1004.080078125	2	taste	foodImageDisplay	3	135	15	foodImage.115	FOODEEG_Images\0923.jpg	YN	Right	No	1.35251300036907	0	514090	252
1006.142578125	1.35251300036907	taste	choicePhaseStart	3	135	15	foodImage.115	FOODEEG_Images\0923.jpg	YN	Right	No	1.35251300036907	0	515146	253
1007.486328125	0	taste	response	3	135	15	foodImage.115	FOODEEG_Images\0923.jpg	YN	Right	No	1.35251300036907	0	515834	235
1008.53125	1	decision	trialStart	3	136	16	foodImage.44	FOODEEG_Images\0459.jpg	NY	Right	Yes	0.847345000132918	0	516369	251
1009.578125	2	decision	foodImageDisplay	3	136	16	foodImage.44	FOODEEG_Images\0459.jpg	NY	Right	Yes	0.847345000132918	0	516905	252
1011.640625	0.847345000132918	decision	choicePhaseStart	3	136	16	foodImage.44	FOODEEG_Images\0459.jpg	NY	Right	Yes	0.847345000132918	0	517961	253
1012.478515625	0	decision	response	3	136	16	foodImage.44	FOODEEG_Images\0459.jpg	NY	Right	Yes	0.847345000132918	0	518390	235
1013.51953125	1	taste	trialStart	3	137	17	foodImage.53	FOODEEG_Images\0547.jpg	NY	Right	Yes	0.697336600162089	0	518923	251
1014.583984375	2	taste	foodImageDisplay	3	137	17	foodImage.53	FOODEEG_Images\0547.jpg	NY	Right	Yes	0.697336600162089	0	519468	252
1016.646484375	0.697336600162089	taste	choicePhaseStart	3	137	17	foodImage.53	FOODEEG_Images\0547.jpg	NY	Right	Yes	0.697336600162089	0	520524	253
1017.333984375	0	taste	response	3	137	17	foodImage.53	FOODEEG_Images\0547.jpg	NY	Right	Yes	0.697336600162089	0	520876	235
1018.375	1	taste	trialStart	3	138	18	foodImage.101	FOODEEG_Images\0909.jpg	YN	Right	No	0.780212400015444	0	521409	251
1019.4140625	2	taste	foodImageDisplay	3	138	18	foodImage.101	FOODEEG_Images\0909.jpg	YN	Right	No	0.780212400015444	0	521941	252
1021.4765625	0.780212400015444	taste	choicePhaseStart	3	138	18	foodImage.101	FOODEEG_Images\0909.jpg	YN	Right	No	0.780212400015444	0	522997	253
1022.24609375	0	taste	response	3	138	18	foodImage.101	FOODEEG_Images\0909.jpg	YN	Right	No	0.780212400015444	0	523391	235
1023.2890625	1	decision	trialStart	3	139	19	foodImage.21	FOODEEG_Images\0234.jpg	YN	Left	Yes	0.567630099598318	0	523925	251
1024.345703125	2	decision	foodImageDisplay	3	139	19	foodImage.21	FOODEEG_Images\0234.jpg	YN	Left	Yes	0.567630099598318	0	524466	252
1026.408203125	0.567630099598318	decision	choicePhaseStart	3	139	19	foodImage.21	FOODEEG_Images\0234.jpg	YN	Left	Yes	0.567630099598318	0	525522	253
1026.966796875	0	decision	response	3	139	19	foodImage.21	FOODEEG_Images\0234.jpg	YN	Left	Yes	0.567630099598318	0	525808	234
1028.009765625	1	decision	trialStart	3	140	20	foodImage.25	FOODEEG_Images\0261.jpg	YN	Left	Yes	0.596011300105602	0	526342	251
1029.052734375	2	decision	foodImageDisplay	3	140	20	foodImage.25	FOODEEG_Images\0261.jpg	YN	Left	Yes	0.596011300105602	0	526876	252
1031.115234375	0.596011300105602	decision	choicePhaseStart	3	140	20	foodImage.25	FOODEEG_Images\0261.jpg	YN	Left	Yes	0.596011300105602	0	527932	253
1031.701171875	0	decision	response	3	140	20	foodImage.25	FOODEEG_Images\0261.jpg	YN	Left	Yes	0.596011300105602	0	528232	234
1032.74609375	1	taste	trialStart	3	141	21	foodImage.91	FOODEEG_Images\0896.jpg	YN	Left	Yes	0.56970230024308	0	528767	251
1033.806640625	2	taste	foodImageDisplay	3	141	21	foodImage.91	FOODEEG_Images\0896.jpg	YN	Left	Yes	0.56970230024308	0	529310	252
1035.869140625	0.56970230024308	taste	choicePhaseStart	3	141	21	foodImage.91	FOODEEG_Images\0896.jpg	YN	Left	Yes	0.56970230024308	0	530366	253
1036.4296875	0	taste	response	3	141	21	foodImage.91	FOODEEG_Images\0896.jpg	YN	Left	Yes	0.56970230024308	0	530653	234
1037.470703125	1	health	trialStart	3	142	22	foodImage.93	FOODEEG_Images\0901.jpg	YN	Left	Yes	1.37369399983436	0	531186	251
1038.5078125	2	health	foodImageDisplay	3	142	22	foodImage.93	FOODEEG_Images\0901.jpg	YN	Left	Yes	1.37369399983436	0	531717	252
1040.5703125	1.37369399983436	health	choicePhaseStart	3	142	22	foodImage.93	FOODEEG_Images\0901.jpg	YN	Left	Yes	1.37369399983436	0	532773	253
1041.93359375	0	health	response	3	142	22	foodImage.93	FOODEEG_Images\0901.jpg	YN	Left	Yes	1.37369399983436	0	533471	234
1042.9765625	1	decision	trialStart	3	143	23	foodImage.72	FOODEEG_Images\0714.jpg	NY	Right	Yes	1.34664560016245	0	534005	251
1044.037109375	2	decision	foodImageDisplay	3	143	23	foodImage.72	FOODEEG_Images\0714.jpg	NY	Right	Yes	1.34664560016245	0	534548	252
1046.099609375	1.34664560016245	decision	choicePhaseStart	3	143	23	foodImage.72	FOODEEG_Images\0714.jpg	NY	Right	Yes	1.34664560016245	0	535604	253
1047.4375	0	decision	response	3	143	23	foodImage.72	FOODEEG_Images\0714.jpg	NY	Right	Yes	1.34664560016245	0	536289	235
1048.48046875	1	decision	trialStart	3	144	24	foodImage.56	FOODEEG_Images\0586.jpg	NY	Right	Yes	0.612798700109124	0	536823	251
1049.5234375	2	decision	foodImageDisplay	3	144	24	foodImage.56	FOODEEG_Images\0586.jpg	NY	Right	Yes	0.612798700109124	0	537357	252
1051.583984375	0.612798700109124	decision	choicePhaseStart	3	144	24	foodImage.56	FOODEEG_Images\0586.jpg	NY	Right	Yes	0.612798700109124	0	538412	253
1052.189453125	0	decision	response	3	144	24	foodImage.56	FOODEEG_Images\0586.jpg	NY	Right	Yes	0.612798700109124	0	538722	235
1053.232421875	1	taste	trialStart	3	145	25	foodImage.24	FOODEEG_Images\0250.jpg	YN	Left	Yes	0.684532900340855	0	539256	251
1054.2734375	2	taste	foodImageDisplay	3	145	25	foodImage.24	FOODEEG_Images\0250.jpg	YN	Left	Yes	0.684532900340855	0	539789	252
1056.3359375	0.684532900340855	taste	choicePhaseStart	3	145	25	foodImage.24	FOODEEG_Images\0250.jpg	YN	Left	Yes	0.684532900340855	0	540845	253
1057.013671875	0	taste	response	3	145	25	foodImage.24	FOODEEG_Images\0250.jpg	YN	Left	Yes	0.684532900340855	0	541192	234
1058.056640625	1	taste	trialStart	3	146	26	foodImage.35	FOODEEG_Images\0350.jpg	YN	Left	Yes	0.599837699905038	0	541726	251
1059.095703125	2	taste	foodImageDisplay	3	146	26	foodImage.35	FOODEEG_Images\0350.jpg	YN	Left	Yes	0.599837699905038	0	542258	252
1061.158203125	0.599837699905038	taste	choicePhaseStart	3	146	26	foodImage.35	FOODEEG_Images\0350.jpg	YN	Left	Yes	0.599837699905038	0	543314	253
1061.748046875	0	taste	response	3	146	26	foodImage.35	FOODEEG_Images\0350.jpg	YN	Left	Yes	0.599837699905038	0	543616	234
1062.7890625	1	taste	trialStart	3	147	27	foodImage.12	FOODEEG_Images\0181.jpg	YN	Left	Yes	1.05624890001491	0	544149	251
1063.83203125	2	taste	foodImageDisplay	3	147	27	foodImage.12	FOODEEG_Images\0181.jpg	YN	Left	Yes	1.05624890001491	0	544683	252
1065.89453125	1.05624890001491	taste	choicePhaseStart	3	147	27	foodImage.12	FOODEEG_Images\0181.jpg	YN	Left	Yes	1.05624890001491	0	545739	253
1066.94140625	0	taste	response	3	147	27	foodImage.12	FOODEEG_Images\0181.jpg	YN	Left	Yes	1.05624890001491	0	546275	234
1067.982421875	1	decision	trialStart	3	148	28	foodImage.67	FOODEEG_Images\0679.jpg	NY	Right	Yes	0.672559500206262	0	546808	251
1069.037109375	2	decision	foodImageDisplay	3	148	28	foodImage.67	FOODEEG_Images\0679.jpg	NY	Right	Yes	0.672559500206262	0	547348	252
1071.1015625	0.672559500206262	decision	choicePhaseStart	3	148	28	foodImage.67	FOODEEG_Images\0679.jpg	NY	Right	Yes	0.672559500206262	0	548405	253
1071.763671875	0	decision	response	3	148	28	foodImage.67	FOODEEG_Images\0679.jpg	NY	Right	Yes	0.672559500206262	0	548744	235
1072.8046875	1	decision	trialStart	3	149	29	foodImage.91	FOODEEG_Images\0896.jpg	NY	Right	Yes	0.608610700350255	0	549277	251
1073.861328125	2	decision	foodImageDisplay	3	149	29	foodImage.91	FOODEEG_Images\0896.jpg	NY	Right	Yes	0.608610700350255	0	549818	252
1075.923828125	0.608610700350255	decision	choicePhaseStart	3	149	29	foodImage.91	FOODEEG_Images\0896.jpg	NY	Right	Yes	0.608610700350255	0	550874	253
1076.525390625	0	decision	response	3	149	29	foodImage.91	FOODEEG_Images\0896.jpg	NY	Right	Yes	0.608610700350255	0	551182	235
1077.568359375	1	health	trialStart	3	150	30	foodImage.10	FOODEEG_Images\0145.jpg	NY	Left	No	0.643974700011313	0	551716	251
1078.626953125	2	health	foodImageDisplay	3	150	30	foodImage.10	FOODEEG_Images\0145.jpg	NY	Left	No	0.643974700011313	0	552258	252
1080.689453125	0.643974700011313	health	choicePhaseStart	3	150	30	foodImage.10	FOODEEG_Images\0145.jpg	NY	Left	No	0.643974700011313	0	553314	253
1081.32421875	0	health	response	3	150	30	foodImage.10	FOODEEG_Images\0145.jpg	NY	Left	No	0.643974700011313	0	553639	234
1082.369140625	1	health	trialStart	3	151	31	foodImage.66	FOODEEG_Images\0676.jpg	NY	Left	No	0.570433299988508	0	554174	251
1083.41015625	2	health	foodImageDisplay	3	151	31	foodImage.66	FOODEEG_Images\0676.jpg	NY	Left	No	0.570433299988508	0	554707	252
1085.47265625	0.570433299988508	health	choicePhaseStart	3	151	31	foodImage.66	FOODEEG_Images\0676.jpg	NY	Left	No	0.570433299988508	0	555763	253
1086.03515625	0	health	response	3	151	31	foodImage.66	FOODEEG_Images\0676.jpg	NY	Left	No	0.570433299988508	0	556051	234
1087.099609375	1	taste	trialStart	3	152	32	foodImage.73	FOODEEG_Images\0717.jpg	YN	Left	Yes	0.671506100334227	0	556596	251
1088.166015625	2	taste	foodImageDisplay	3	152	32	foodImage.73	FOODEEG_Images\0717.jpg	YN	Left	Yes	0.671506100334227	0	557142	252
1090.23046875	0.671506100334227	taste	choicePhaseStart	3	152	32	foodImage.73	FOODEEG_Images\0717.jpg	YN	Left	Yes	0.671506100334227	0	558199	253
1090.890625	0	taste	response	3	152	32	foodImage.73	FOODEEG_Images\0717.jpg	YN	Left	Yes	0.671506100334227	0	558537	234
1091.931640625	1	decision	trialStart	3	153	33	foodImage.77	FOODEEG_Images\0771.jpg	YN	Left	Yes	1.07771900016814	0	559070	251
1092.974609375	2	decision	foodImageDisplay	3	153	33	foodImage.77	FOODEEG_Images\0771.jpg	YN	Left	Yes	1.07771900016814	0	559604	252
1095.037109375	1.07771900016814	decision	choicePhaseStart	3	153	33	foodImage.77	FOODEEG_Images\0771.jpg	YN	Left	Yes	1.07771900016814	0	560660	253
1096.107421875	0	decision	response	3	153	33	foodImage.77	FOODEEG_Images\0771.jpg	YN	Left	Yes	1.07771900016814	0	561208	234
1097.150390625	1	taste	trialStart	3	154	34	foodImage.43	FOODEEG_Images\0445.jpg	NY	Right	Yes	0.489127600099891	0	561742	251
1098.20703125	2	taste	foodImageDisplay	3	154	34	foodImage.43	FOODEEG_Images\0445.jpg	NY	Right	Yes	0.489127600099891	0	562283	252
1100.2734375	0.489127600099891	taste	choicePhaseStart	3	154	34	foodImage.43	FOODEEG_Images\0445.jpg	NY	Right	Yes	0.489127600099891	0	563341	253
1100.755859375	0	taste	response	3	154	34	foodImage.43	FOODEEG_Images\0445.jpg	NY	Right	Yes	0.489127600099891	0	563588	235
1101.798828125	1	decision	trialStart	3	155	35	foodImage.36	FOODEEG_Images\0352.jpg	YN	Left	Yes	1.51651500025764	0	564122	251
1102.857421875	2	decision	foodImageDisplay	3	155	35	foodImage.36	FOODEEG_Images\0352.jpg	YN	Left	Yes	1.51651500025764	0	564664	252
1104.919921875	1.51651500025764	decision	choicePhaseStart	3	155	35	foodImage.36	FOODEEG_Images\0352.jpg	YN	Left	Yes	1.51651500025764	0	565720	253
1106.427734375	0	decision	response	3	155	35	foodImage.36	FOODEEG_Images\0352.jpg	YN	Left	Yes	1.51651500025764	0	566492	234
1107.47265625	1	health	trialStart	3	156	36	foodImage.43	FOODEEG_Images\0445.jpg	NY	Right	Yes	0.710586700122803	0	567027	251
1108.52734375	2	health	foodImageDisplay	3	156	36	foodImage.43	FOODEEG_Images\0445.jpg	NY	Right	Yes	0.710586700122803	0	567567	252
1110.587890625	0.710586700122803	health	choicePhaseStart	3	156	36	foodImage.43	FOODEEG_Images\0445.jpg	NY	Right	Yes	0.710586700122803	0	568622	253
1111.291015625	0	health	response	3	156	36	foodImage.43	FOODEEG_Images\0445.jpg	NY	Right	Yes	0.710586700122803	0	568982	235
1112.333984375	1	decision	trialStart	3	157	37	foodImage.114	FOODEEG_Images\0922.jpg	YN	Left	Yes	0.777419299818575	0	569516	251
1113.37109375	2	decision	foodImageDisplay	3	157	37	foodImage.114	FOODEEG_Images\0922.jpg	YN	Left	Yes	0.777419299818575	0	570047	252
1115.43359375	0.777419299818575	decision	choicePhaseStart	3	157	37	foodImage.114	FOODEEG_Images\0922.jpg	YN	Left	Yes	0.777419299818575	0	571103	253
1116.203125	0	decision	response	3	157	37	foodImage.114	FOODEEG_Images\0922.jpg	YN	Left	Yes	0.777419299818575	0	571497	234
1117.24609375	1	decision	trialStart	3	158	38	foodImage.88	FOODEEG_Images\0878.jpg	YN	Left	Yes	0.683884200174361	0	572031	251
1118.302734375	2	decision	foodImageDisplay	3	158	38	foodImage.88	FOODEEG_Images\0878.jpg	YN	Left	Yes	0.683884200174361	0	572572	252
1120.3671875	0.683884200174361	decision	choicePhaseStart	3	158	38	foodImage.88	FOODEEG_Images\0878.jpg	YN	Left	Yes	0.683884200174361	0	573629	253
1121.04296875	0	decision	response	3	158	38	foodImage.88	FOODEEG_Images\0878.jpg	YN	Left	Yes	0.683884200174361	0	573975	234
1122.083984375	1	health	trialStart	3	159	39	foodImage.65	FOODEEG_Images\0658.jpg	NY	Right	Yes	0.801175000146031	0	574508	251
1123.125	2	health	foodImageDisplay	3	159	39	foodImage.65	FOODEEG_Images\0658.jpg	NY	Right	Yes	0.801175000146031	0	575041	252
1125.185546875	0.801175000146031	health	choicePhaseStart	3	159	39	foodImage.65	FOODEEG_Images\0658.jpg	NY	Right	Yes	0.801175000146031	0	576096	253
1125.978515625	0	health	response	3	159	39	foodImage.65	FOODEEG_Images\0658.jpg	NY	Right	Yes	0.801175000146031	0	576502	235
1127.01953125	1	taste	trialStart	3	160	40	foodImage.99	FOODEEG_Images\0907.jpg	YN	Right	No	1.01842930028215	0	577035	251
1128.05859375	2	taste	foodImageDisplay	3	160	40	foodImage.99	FOODEEG_Images\0907.jpg	YN	Right	No	1.01842930028215	0	577567	252
1130.12109375	1.01842930028215	taste	choicePhaseStart	3	160	40	foodImage.99	FOODEEG_Images\0907.jpg	YN	Right	No	1.01842930028215	0	578623	253
1131.130859375	0	taste	response	3	160	40	foodImage.99	FOODEEG_Images\0907.jpg	YN	Right	No	1.01842930028215	0	579140	235
1132.171875	1	health	trialStart	3	161	41	foodImage.55	FOODEEG_Images\0567.jpg	YN	Left	Yes	0.669057599734515	0	579673	251
1133.240234375	2	health	foodImageDisplay	3	161	41	foodImage.55	FOODEEG_Images\0567.jpg	YN	Left	Yes	0.669057599734515	0	580220	252
1135.302734375	0.669057599734515	health	choicePhaseStart	3	161	41	foodImage.55	FOODEEG_Images\0567.jpg	YN	Left	Yes	0.669057599734515	0	581276	253
1135.962890625	0	health	response	3	161	41	foodImage.55	FOODEEG_Images\0567.jpg	YN	Left	Yes	0.669057599734515	0	581614	234
1137.001953125	1	decision	trialStart	3	162	42	foodImage.7	FOODEEG_Images\0116.jpg	NY	Right	Yes	0.688743500038981	0	582146	251
1138.04296875	2	decision	foodImageDisplay	3	162	42	foodImage.7	FOODEEG_Images\0116.jpg	NY	Right	Yes	0.688743500038981	0	582679	252
1140.103515625	0.688743500038981	decision	choicePhaseStart	3	162	42	foodImage.7	FOODEEG_Images\0116.jpg	NY	Right	Yes	0.688743500038981	0	583734	253
1140.78515625	0	decision	response	3	162	42	foodImage.7	FOODEEG_Images\0116.jpg	NY	Right	Yes	0.688743500038981	0	584083	235
1141.828125	1	decision	trialStart	3	163	43	foodImage.11	FOODEEG_Images\0180.jpg	NY	Right	Yes	1.34118579979986	0	584617	251
1142.87109375	2	decision	foodImageDisplay	3	163	43	foodImage.11	FOODEEG_Images\0180.jpg	NY	Right	Yes	1.34118579979986	0	585151	252
1144.93359375	1.34118579979986	decision	choicePhaseStart	3	163	43	foodImage.11	FOODEEG_Images\0180.jpg	NY	Right	Yes	1.34118579979986	0	586207	253
1146.265625	0	decision	response	3	163	43	foodImage.11	FOODEEG_Images\0180.jpg	NY	Right	Yes	1.34118579979986	0	586889	235
1147.30859375	1	taste	trialStart	3	164	44	foodImage.103	FOODEEG_Images\0911.jpg	YN	Right	No	1.68931559985504	0	587423	251
1148.34765625	2	taste	foodImageDisplay	3	164	44	foodImage.103	FOODEEG_Images\0911.jpg	YN	Right	No	1.68931559985504	0	587955	252
1150.41015625	1.68931559985504	taste	choicePhaseStart	3	164	44	foodImage.103	FOODEEG_Images\0911.jpg	YN	Right	No	1.68931559985504	0	589011	253
1152.08984375	0	taste	response	3	164	44	foodImage.103	FOODEEG_Images\0911.jpg	YN	Right	No	1.68931559985504	0	589871	235
1153.12890625	1	health	trialStart	3	165	45	foodImage.20	FOODEEG_Images\0226.jpg	NY	Right	Yes	0.696844900026917	0	590403	251
1154.169921875	2	health	foodImageDisplay	3	165	45	foodImage.20	FOODEEG_Images\0226.jpg	NY	Right	Yes	0.696844900026917	0	590936	252
1156.232421875	0.696844900026917	health	choicePhaseStart	3	165	45	foodImage.20	FOODEEG_Images\0226.jpg	NY	Right	Yes	0.696844900026917	0	591992	253
1156.919921875	0	health	response	3	165	45	foodImage.20	FOODEEG_Images\0226.jpg	NY	Right	Yes	0.696844900026917	0	592344	235
1157.96484375	1	decision	trialStart	3	166	46	foodImage.65	FOODEEG_Images\0658.jpg	NY	Left	No	0.845150999724865	0	592879	251
1159.005859375	2	decision	foodImageDisplay	3	166	46	foodImage.65	FOODEEG_Images\0658.jpg	NY	Left	No	0.845150999724865	0	593412	252
1161.0703125	0.845150999724865	decision	choicePhaseStart	3	166	46	foodImage.65	FOODEEG_Images\0658.jpg	NY	Left	No	0.845150999724865	0	594469	253
1161.904296875	0	decision	response	3	166	46	foodImage.65	FOODEEG_Images\0658.jpg	NY	Left	No	0.845150999724865	0	594896	234
1162.94921875	1	health	trialStart	3	167	47	foodImage.103	FOODEEG_Images\0911.jpg	YN	Left	Yes	1.52753159962595	0	595431	251
1163.986328125	2	health	foodImageDisplay	3	167	47	foodImage.103	FOODEEG_Images\0911.jpg	YN	Left	Yes	1.52753159962595	0	595962	252
1166.048828125	1.52753159962595	health	choicePhaseStart	3	167	47	foodImage.103	FOODEEG_Images\0911.jpg	YN	Left	Yes	1.52753159962595	0	597018	253
1167.568359375	0	health	response	3	167	47	foodImage.103	FOODEEG_Images\0911.jpg	YN	Left	Yes	1.52753159962595	0	597796	234
1168.611328125	1	decision	trialStart	3	168	48	foodImage.32	FOODEEG_Images\0319.jpg	NY	Right	Yes	0.69037410011515	0	598330	251
1169.65625	2	decision	foodImageDisplay	3	168	48	foodImage.32	FOODEEG_Images\0319.jpg	NY	Right	Yes	0.69037410011515	0	598865	252
1171.71875	0.69037410011515	decision	choicePhaseStart	3	168	48	foodImage.32	FOODEEG_Images\0319.jpg	NY	Right	Yes	0.69037410011515	0	599921	253
1172.400390625	0	decision	response	3	168	48	foodImage.32	FOODEEG_Images\0319.jpg	NY	Right	Yes	0.69037410011515	0	600270	235
1173.44921875	1	decision	trialStart	3	169	49	foodImage.48	FOODEEG_Images\0494.jpg	NY	Right	Yes	0.735687699634582	0	600807	251
1174.4921875	2	decision	foodImageDisplay	3	169	49	foodImage.48	FOODEEG_Images\0494.jpg	NY	Right	Yes	0.735687699634582	0	601341	252
1176.5546875	0.735687699634582	decision	choicePhaseStart	3	169	49	foodImage.48	FOODEEG_Images\0494.jpg	NY	Right	Yes	0.735687699634582	0	602397	253
1177.279296875	0	decision	response	3	169	49	foodImage.48	FOODEEG_Images\0494.jpg	NY	Right	Yes	0.735687699634582	0	602768	235
1178.322265625	1	health	trialStart	3	170	50	foodImage.84	FOODEEG_Images\0830.jpg	YN	Left	Yes	0.600823699962348	0	603302	251
1179.376953125	2	health	foodImageDisplay	3	170	50	foodImage.84	FOODEEG_Images\0830.jpg	YN	Left	Yes	0.600823699962348	0	603842	252
1181.439453125	0.600823699962348	health	choicePhaseStart	3	170	50	foodImage.84	FOODEEG_Images\0830.jpg	YN	Left	Yes	0.600823699962348	0	604898	253
1182.03125	0	health	response	3	170	50	foodImage.84	FOODEEG_Images\0830.jpg	YN	Left	Yes	0.600823699962348	0	605201	234
1183.076171875	1	taste	trialStart	3	171	51	foodImage.52	FOODEEG_Images\0539.jpg	NY	Right	Yes	0.699031400028616	0	605736	251
1184.134765625	2	taste	foodImageDisplay	3	171	51	foodImage.52	FOODEEG_Images\0539.jpg	NY	Right	Yes	0.699031400028616	0	606278	252
1186.197265625	0.699031400028616	taste	choicePhaseStart	3	171	51	foodImage.52	FOODEEG_Images\0539.jpg	NY	Right	Yes	0.699031400028616	0	607334	253
1186.888671875	0	taste	response	3	171	51	foodImage.52	FOODEEG_Images\0539.jpg	NY	Right	Yes	0.699031400028616	0	607688	235
1187.9296875	1	decision	trialStart	3	172	52	foodImage.81	FOODEEG_Images\0797.jpg	YN	Left	Yes	0.564890599809587	0	608221	251
1188.98828125	2	decision	foodImageDisplay	3	172	52	foodImage.81	FOODEEG_Images\0797.jpg	YN	Left	Yes	0.564890599809587	0	608763	252
1191.052734375	0.564890599809587	decision	choicePhaseStart	3	172	52	foodImage.81	FOODEEG_Images\0797.jpg	YN	Left	Yes	0.564890599809587	0	609820	253
1191.607421875	0	decision	response	3	172	52	foodImage.81	FOODEEG_Images\0797.jpg	YN	Left	Yes	0.564890599809587	0	610104	234
1192.650390625	1	health	trialStart	3	173	53	foodImage.56	FOODEEG_Images\0586.jpg	NY	Right	Yes	0.612776500172913	0	610638	251
1193.693359375	2	health	foodImageDisplay	3	173	53	foodImage.56	FOODEEG_Images\0586.jpg	NY	Right	Yes	0.612776500172913	0	611172	252
1195.755859375	0.612776500172913	health	choicePhaseStart	3	173	53	foodImage.56	FOODEEG_Images\0586.jpg	NY	Right	Yes	0.612776500172913	0	612228	253
1196.359375	0	health	response	3	173	53	foodImage.56	FOODEEG_Images\0586.jpg	NY	Right	Yes	0.612776500172913	0	612537	235
1197.400390625	1	health	trialStart	3	174	54	foodImage.117	FOODEEG_Images\0925.jpg	NY	Left	No	1.58283990016207	0	613070	251
1198.443359375	2	health	foodImageDisplay	3	174	54	foodImage.117	FOODEEG_Images\0925.jpg	NY	Left	No	1.58283990016207	0	613604	252
1200.505859375	1.58283990016207	health	choicePhaseStart	3	174	54	foodImage.117	FOODEEG_Images\0925.jpg	NY	Left	No	1.58283990016207	0	614660	253
1202.080078125	0	health	response	3	174	54	foodImage.117	FOODEEG_Images\0925.jpg	NY	Left	No	1.58283990016207	0	615466	234
1203.119140625	1	decision	trialStart	3	175	55	foodImage.90	FOODEEG_Images\0890.jpg	YN	Left	Yes	0.615469800308347	0	615998	251
1204.1796875	2	decision	foodImageDisplay	3	175	55	foodImage.90	FOODEEG_Images\0890.jpg	YN	Left	Yes	0.615469800308347	0	616541	252
1206.240234375	0.615469800308347	decision	choicePhaseStart	3	175	55	foodImage.90	FOODEEG_Images\0890.jpg	YN	Left	Yes	0.615469800308347	0	617596	253
1206.84765625	0	decision	response	3	175	55	foodImage.90	FOODEEG_Images\0890.jpg	YN	Left	Yes	0.615469800308347	0	617907	234
1207.890625	1	taste	trialStart	3	176	56	foodImage.70	FOODEEG_Images\0705.jpg	YN	Left	Yes	0.509023699909449	0	618441	251
1208.96484375	2	taste	foodImageDisplay	3	176	56	foodImage.70	FOODEEG_Images\0705.jpg	YN	Left	Yes	0.509023699909449	0	618991	252
1211.02734375	0.509023699909449	taste	choicePhaseStart	3	176	56	foodImage.70	FOODEEG_Images\0705.jpg	YN	Left	Yes	0.509023699909449	0	620047	253
1211.52734375	0	taste	response	3	176	56	foodImage.70	FOODEEG_Images\0705.jpg	YN	Left	Yes	0.509023699909449	0	620303	234
1212.568359375	1	decision	trialStart	3	177	57	foodImage.39	FOODEEG_Images\0367.jpg	NY	Right	Yes	0.75430339993909	0	620836	251
1213.607421875	2	decision	foodImageDisplay	3	177	57	foodImage.39	FOODEEG_Images\0367.jpg	NY	Right	Yes	0.75430339993909	0	621368	252
1215.669921875	0.75430339993909	decision	choicePhaseStart	3	177	57	foodImage.39	FOODEEG_Images\0367.jpg	NY	Right	Yes	0.75430339993909	0	622424	253
1216.4140625	0	decision	response	3	177	57	foodImage.39	FOODEEG_Images\0367.jpg	NY	Right	Yes	0.75430339993909	0	622805	235
1217.455078125	1	taste	trialStart	3	178	58	foodImage.111	FOODEEG_Images\0919.jpg	NY	Left	No	0.645814999938011	0	623338	251
1218.4921875	2	taste	foodImageDisplay	3	178	58	foodImage.111	FOODEEG_Images\0919.jpg	NY	Left	No	0.645814999938011	0	623869	252
1220.5546875	0.645814999938011	taste	choicePhaseStart	3	178	58	foodImage.111	FOODEEG_Images\0919.jpg	NY	Left	No	0.645814999938011	0	624925	253
1221.19140625	0	taste	response	3	178	58	foodImage.111	FOODEEG_Images\0919.jpg	NY	Left	No	0.645814999938011	0	625251	234
1222.234375	1	decision	trialStart	3	179	59	foodImage.2	FOODEEG_Images\0028.jpg	YN	Left	Yes	0.65764890005812	0	625785	251
1223.279296875	2	decision	foodImageDisplay	3	179	59	foodImage.2	FOODEEG_Images\0028.jpg	YN	Left	Yes	0.65764890005812	0	626320	252
1225.341796875	0.65764890005812	decision	choicePhaseStart	3	179	59	foodImage.2	FOODEEG_Images\0028.jpg	YN	Left	Yes	0.65764890005812	0	627376	253
1225.990234375	0	decision	response	3	179	59	foodImage.2	FOODEEG_Images\0028.jpg	YN	Left	Yes	0.65764890005812	0	627708	234
1227.033203125	1	taste	trialStart	3	180	60	foodImage.57	FOODEEG_Images\0587.jpg	NY	Right	Yes	0.603569600265473	0	628242	251
1228.076171875	2	taste	foodImageDisplay	3	180	60	foodImage.57	FOODEEG_Images\0587.jpg	NY	Right	Yes	0.603569600265473	0	628776	252
1230.140625	0.603569600265473	taste	choicePhaseStart	3	180	60	foodImage.57	FOODEEG_Images\0587.jpg	NY	Right	Yes	0.603569600265473	0	629833	253
1230.734375	0	taste	response	3	180	60	foodImage.57	FOODEEG_Images\0587.jpg	NY	Right	Yes	0.603569600265473	0	630137	235
1232.77734375	25.087890625	n/a	blockEnd	n/a	n/a	n/a	n/a	n/a	n/a	n/a	n/a	n/a	n/a	631183	254
1257.865234375	2	n/a	blockStart	4	n/a	n/a	n/a	n/a	n/a	n/a	n/a	n/a	n/a	644028	250
1259.8984375	1	decision	trialStart	4	181	1	foodImage.14	FOODEEG_Images\0188.jpg	YN	Left	Yes	0.615889699663967	0	645069	251
1260.984375	2	decision	foodImageDisplay	4	181	1	foodImage.14	FOODEEG_Images\0188.jpg	YN	Left	Yes	0.615889699663967	0	645625	252
1263.046875	0.615889699663967	decision	choicePhaseStart	4	181	1	foodImage.14	FOODEEG_Images\0188.jpg	YN	Left	Yes	0.615889699663967	0	646681	253
1263.654296875	0	decision	response	4	181	1	foodImage.14	FOODEEG_Images\0188.jpg	YN	Left	Yes	0.615889699663967	0	646992	234
1264.6953125	1	health	trialStart	4	182	2	foodImage.90	FOODEEG_Images\0890.jpg	NY	Left	No	0.849126200191677	0	647525	251
1265.75	2	health	foodImageDisplay	4	182	2	foodImage.90	FOODEEG_Images\0890.jpg	NY	Left	No	0.849126200191677	0	648065	252
1267.8125	0.849126200191677	health	choicePhaseStart	4	182	2	foodImage.90	FOODEEG_Images\0890.jpg	NY	Left	No	0.849126200191677	0	649121	253
1268.65234375	0	health	response	4	182	2	foodImage.90	FOODEEG_Images\0890.jpg	NY	Left	No	0.849126200191677	0	649551	234
1269.6953125	1	taste	trialStart	4	183	3	foodImage.47	FOODEEG_Images\0488.jpg	NY	Right	Yes	0.521166000049561	0	650085	251
1270.736328125	2	taste	foodImageDisplay	4	183	3	foodImage.47	FOODEEG_Images\0488.jpg	NY	Right	Yes	0.521166000049561	0	650618	252
1272.796875	0.521166000049561	taste	choicePhaseStart	4	183	3	foodImage.47	FOODEEG_Images\0488.jpg	NY	Right	Yes	0.521166000049561	0	651673	253
1273.30859375	0	taste	response	4	183	3	foodImage.47	FOODEEG_Images\0488.jpg	NY	Right	Yes	0.521166000049561	0	651935	235
1274.3515625	1	health	trialStart	4	184	4	foodImage.100	FOODEEG_Images\0908.jpg	NY	Left	No	1.45744760008529	0	652469	251
1275.388671875	2	health	foodImageDisplay	4	184	4	foodImage.100	FOODEEG_Images\0908.jpg	NY	Left	No	1.45744760008529	0	653000	252
1277.451171875	1.45744760008529	health	choicePhaseStart	4	184	4	foodImage.100	FOODEEG_Images\0908.jpg	NY	Left	No	1.45744760008529	0	654056	253
1278.900390625	0	health	response	4	184	4	foodImage.100	FOODEEG_Images\0908.jpg	NY	Left	No	1.45744760008529	0	654798	234
1279.94140625	1	decision	trialStart	4	185	5	foodImage.20	FOODEEG_Images\0226.jpg	NY	Right	Yes	1.40187490032986	0	655331	251
1280.98828125	2	decision	foodImageDisplay	4	185	5	foodImage.20	FOODEEG_Images\0226.jpg	NY	Right	Yes	1.40187490032986	0	655867	252
1283.05078125	1.40187490032986	decision	choicePhaseStart	4	185	5	foodImage.20	FOODEEG_Images\0226.jpg	NY	Right	Yes	1.40187490032986	0	656923	253
1284.443359375	0	decision	response	4	185	5	foodImage.20	FOODEEG_Images\0226.jpg	NY	Right	Yes	1.40187490032986	0	657636	235
1285.48828125	1	decision	trialStart	4	186	6	foodImage.5	FOODEEG_Images\0107.jpg	NY	Right	Yes	0.817677599843591	0	658171	251
1286.546875	2	decision	foodImageDisplay	4	186	6	foodImage.5	FOODEEG_Images\0107.jpg	NY	Right	Yes	0.817677599843591	0	658713	252
1288.611328125	0.817677599843591	decision	choicePhaseStart	4	186	6	foodImage.5	FOODEEG_Images\0107.jpg	NY	Right	Yes	0.817677599843591	0	659770	253
1289.419921875	0	decision	response	4	186	6	foodImage.5	FOODEEG_Images\0107.jpg	NY	Right	Yes	0.817677599843591	0	660184	235
1290.46484375	1	taste	trialStart	4	187	7	foodImage.104	FOODEEG_Images\0912.jpg	NY	Right	Yes	0.664863700047135	0	660719	251
1291.501953125	2	taste	foodImageDisplay	4	187	7	foodImage.104	FOODEEG_Images\0912.jpg	NY	Right	Yes	0.664863700047135	0	661250	252
1293.5625	0.664863700047135	taste	choicePhaseStart	4	187	7	foodImage.104	FOODEEG_Images\0912.jpg	NY	Right	Yes	0.664863700047135	0	662305	253
1294.220703125	0	taste	response	4	187	7	foodImage.104	FOODEEG_Images\0912.jpg	NY	Right	Yes	0.664863700047135	0	662642	235
1295.263671875	1	taste	trialStart	4	188	8	foodImage.69	FOODEEG_Images\0693.jpg	NY	Right	Yes	0.731188899837434	0	663176	251
1296.306640625	2	taste	foodImageDisplay	4	188	8	foodImage.69	FOODEEG_Images\0693.jpg	NY	Right	Yes	0.731188899837434	0	663710	252
1298.369140625	0.731188899837434	taste	choicePhaseStart	4	188	8	foodImage.69	FOODEEG_Images\0693.jpg	NY	Right	Yes	0.731188899837434	0	664766	253
1299.091796875	0	taste	response	4	188	8	foodImage.69	FOODEEG_Images\0693.jpg	NY	Right	Yes	0.731188899837434	0	665136	235
1300.134765625	1	decision	trialStart	4	189	9	foodImage.60	FOODEEG_Images\0614.jpg	YN	Left	Yes	0.898110099602491	0	665670	251
1301.203125	2	decision	foodImageDisplay	4	189	9	foodImage.60	FOODEEG_Images\0614.jpg	YN	Left	Yes	0.898110099602491	0	666217	252
1303.267578125	0.898110099602491	decision	choicePhaseStart	4	189	9	foodImage.60	FOODEEG_Images\0614.jpg	YN	Left	Yes	0.898110099602491	0	667274	253
1304.154296875	0	decision	response	4	189	9	foodImage.60	FOODEEG_Images\0614.jpg	YN	Left	Yes	0.898110099602491	0	667728	234
1305.19921875	1	taste	trialStart	4	190	10	foodImage.39	FOODEEG_Images\0367.jpg	YN	Left	Yes	0.583819899708033	0	668263	251
1306.23828125	2	taste	foodImageDisplay	4	190	10	foodImage.39	FOODEEG_Images\0367.jpg	YN	Left	Yes	0.583819899708033	0	668795	252
1308.30078125	0.583819899708033	taste	choicePhaseStart	4	190	10	foodImage.39	FOODEEG_Images\0367.jpg	YN	Left	Yes	0.583819899708033	0	669851	253
1308.875	0	taste	response	4	190	10	foodImage.39	FOODEEG_Images\0367.jpg	YN	Left	Yes	0.583819899708033	0	670145	234
1309.91796875	1	decision	trialStart	4	191	11	foodImage.42	FOODEEG_Images\0438.jpg	YN	Left	Yes	0.758450000081211	0	670679	251
1311.0078125	2	decision	foodImageDisplay	4	191	11	foodImage.42	FOODEEG_Images\0438.jpg	YN	Left	Yes	0.758450000081211	0	671237	252
1313.0703125	0.758450000081211	decision	choicePhaseStart	4	191	11	foodImage.42	FOODEEG_Images\0438.jpg	YN	Left	Yes	0.758450000081211	0	672293	253
1313.818359375	0	decision	response	4	191	11	foodImage.42	FOODEEG_Images\0438.jpg	YN	Left	Yes	0.758450000081211	0	672676	234
1314.86328125	1	health	trialStart	4	192	12	foodImage.34	FOODEEG_Images\0339.jpg	NY	Left	No	0.919822599738836	0	673211	251
1315.92578125	2	health	foodImageDisplay	4	192	12	foodImage.34	FOODEEG_Images\0339.jpg	NY	Left	No	0.919822599738836	0	673755	252
1317.98828125	0.919822599738836	health	choicePhaseStart	4	192	12	foodImage.34	FOODEEG_Images\0339.jpg	NY	Left	No	0.919822599738836	0	674811	253
1318.8984375	0	health	response	4	192	12	foodImage.34	FOODEEG_Images\0339.jpg	NY	Left	No	0.919822599738836	0	675277	234
1319.943359375	1	decision	trialStart	4	193	13	foodImage.26	FOODEEG_Images\0262.jpg	NY	Left	No	1.60806030035019	0	675812	251
1320.982421875	2	decision	foodImageDisplay	4	193	13	foodImage.26	FOODEEG_Images\0262.jpg	NY	Left	No	1.60806030035019	0	676344	252
1323.044921875	1.60806030035019	decision	choicePhaseStart	4	193	13	foodImage.26	FOODEEG_Images\0262.jpg	NY	Left	No	1.60806030035019	0	677400	253
1324.642578125	0	decision	response	4	193	13	foodImage.26	FOODEEG_Images\0262.jpg	NY	Left	No	1.60806030035019	0	678218	234
