onset	duration	trial_type	event_type	block	trial_total	trial_in_block	food_image_code	food_image_path	button_position	resp_position	resp_choice	choice_rt	resp_too_slow	sample	trigger
295.068359375	2	n/a	blockStart	1	n/a	n/a	n/a	n/a	n/a	n/a	n/a	n/a	n/a	151076	250
297.10546875	1	health	trialStart	1	1	1	foodImage.66	FOODEEG_Images\0676.jpg	YN	Right	No	0.902997600000162	0	152119	251
298.154296875	2	health	foodImageDisplay	1	1	1	foodImage.66	FOODEEG_Images\0676.jpg	YN	Right	No	0.902997600000162	0	152656	252
300.21875	0.902997600000162	health	choicePhaseStart	1	1	1	foodImage.66	FOODEEG_Images\0676.jpg	YN	Right	No	0.902997600000162	0	153713	253
301.115234375	0	health	response	1	1	1	foodImage.66	FOODEEG_Images\0676.jpg	YN	Right	No	0.902997600000162	0	154172	235
302.216796875	1	decision	trialStart	1	2	2	foodImage.54	FOODEEG_Images\0560.jpg	NY	Right	Yes	0.967318900000464	0	154736	251
303.275390625	2	decision	foodImageDisplay	1	2	2	foodImage.54	FOODEEG_Images\0560.jpg	NY	Right	Yes	0.967318900000464	0	155278	252
305.33984375	0.967318900000464	decision	choicePhaseStart	1	2	2	foodImage.54	FOODEEG_Images\0560.jpg	NY	Right	Yes	0.967318900000464	0	156335	253
306.298828125	0	decision	response	1	2	2	foodImage.54	FOODEEG_Images\0560.jpg	NY	Right	Yes	0.967318900000464	0	156826	235
307.353515625	1	decision	trialStart	1	3	3	foodImage.11	FOODEEG_Images\0180.jpg	NY	Right	Yes	1.2471658000004	0	157366	251
308.396484375	2	decision	foodImageDisplay	1	3	3	foodImage.11	FOODEEG_Images\0180.jpg	NY	Right	Yes	1.2471658000004	0	157900	252
310.4609375	1.2471658000004	decision	choicePhaseStart	1	3	3	foodImage.11	FOODEEG_Images\0180.jpg	NY	Right	Yes	1.2471658000004	0	158957	253
311.69921875	0	decision	response	1	3	3	foodImage.11	FOODEEG_Images\0180.jpg	NY	Right	Yes	1.2471658000004	0	159591	235
312.740234375	1	health	trialStart	1	4	4	foodImage.73	FOODEEG_Images\0717.jpg	YN	Right	No	2.17389390000062	0	160124	251
313.798828125	2	health	foodImageDisplay	1	4	4	foodImage.73	FOODEEG_Images\0717.jpg	YN	Right	No	2.17389390000062	0	160666	252
315.86328125	2.17389390000062	health	choicePhaseStart	1	4	4	foodImage.73	FOODEEG_Images\0717.jpg	YN	Right	No	2.17389390000062	0	161723	253
318.02734375	0	health	response	1	4	4	foodImage.73	FOODEEG_Images\0717.jpg	YN	Right	No	2.17389390000062	0	162831	235
319.0703125	1	health	trialStart	1	5	5	foodImage.36	FOODEEG_Images\0352.jpg	NY	Left	No	1.44592180000018	0	163365	251
320.130859375	2	health	foodImageDisplay	1	5	5	foodImage.36	FOODEEG_Images\0352.jpg	NY	Left	No	1.44592180000018	0	163908	252
322.197265625	1.44592180000018	health	choicePhaseStart	1	5	5	foodImage.36	FOODEEG_Images\0352.jpg	NY	Left	No	1.44592180000018	0	164966	253
323.634765625	0	health	response	1	5	5	foodImage.36	FOODEEG_Images\0352.jpg	NY	Left	No	1.44592180000018	0	165702	234
324.68359375	1	taste	trialStart	1	6	6	foodImage.12	FOODEEG_Images\0181.jpg	NY	Right	Yes	1.4438841000001	0	166239	251
325.7265625	2	taste	foodImageDisplay	1	6	6	foodImage.12	FOODEEG_Images\0181.jpg	NY	Right	Yes	1.4438841000001	0	166773	252
327.791015625	1.4438841000001	taste	choicePhaseStart	1	6	6	foodImage.12	FOODEEG_Images\0181.jpg	NY	Right	Yes	1.4438841000001	0	167830	253
329.2265625	0	taste	response	1	6	6	foodImage.12	FOODEEG_Images\0181.jpg	NY	Right	Yes	1.4438841000001	0	168565	235
330.2734375	1	taste	trialStart	1	7	7	foodImage.25	FOODEEG_Images\0261.jpg	NY	Right	Yes	1.28416709999965	0	169101	251
331.31640625	2	taste	foodImageDisplay	1	7	7	foodImage.25	FOODEEG_Images\0261.jpg	NY	Right	Yes	1.28416709999965	0	169635	252
333.380859375	1.28416709999965	taste	choicePhaseStart	1	7	7	foodImage.25	FOODEEG_Images\0261.jpg	NY	Right	Yes	1.28416709999965	0	170692	253
334.658203125	0	taste	response	1	7	7	foodImage.25	FOODEEG_Images\0261.jpg	NY	Right	Yes	1.28416709999965	0	171346	235
335.69921875	1	health	trialStart	1	8	8	foodImage.120	FOODEEG_Images\0928.jpg	NY	Left	No	2.58800960000008	0	171879	251
336.744140625	2	health	foodImageDisplay	1	8	8	foodImage.120	FOODEEG_Images\0928.jpg	NY	Left	No	2.58800960000008	0	172414	252
338.8125	2.58800960000008	health	choicePhaseStart	1	8	8	foodImage.120	FOODEEG_Images\0928.jpg	NY	Left	No	2.58800960000008	0	173473	253
341.39453125	0	health	response	1	8	8	foodImage.120	FOODEEG_Images\0928.jpg	NY	Left	No	2.58800960000008	0	174795	234
342.435546875	1	health	trialStart	1	9	9	foodImage.42	FOODEEG_Images\0438.jpg	NY	Right	Yes	0.662638900000275	0	175328	251
343.521484375	2	health	foodImageDisplay	1	9	9	foodImage.42	FOODEEG_Images\0438.jpg	NY	Right	Yes	0.662638900000275	0	175884	252
345.5859375	0.662638900000275	health	choicePhaseStart	1	9	9	foodImage.42	FOODEEG_Images\0438.jpg	NY	Right	Yes	0.662638900000275	0	176941	253
346.2421875	0	health	response	1	9	9	foodImage.42	FOODEEG_Images\0438.jpg	NY	Right	Yes	0.662638900000275	0	177277	235
347.28515625	1	taste	trialStart	1	10	10	foodImage.39	FOODEEG_Images\0367.jpg	NY	Right	Yes	1.06540320000022	0	177811	251
348.326171875	2	taste	foodImageDisplay	1	10	10	foodImage.39	FOODEEG_Images\0367.jpg	NY	Right	Yes	1.06540320000022	0	178344	252
350.390625	1.06540320000022	taste	choicePhaseStart	1	10	10	foodImage.39	FOODEEG_Images\0367.jpg	NY	Right	Yes	1.06540320000022	0	179401	253
351.44921875	0	taste	response	1	10	10	foodImage.39	FOODEEG_Images\0367.jpg	NY	Right	Yes	1.06540320000022	0	179943	235
352.490234375	1	taste	trialStart	1	11	11	foodImage.27	FOODEEG_Images\0263.jpg	YN	Left	Yes	1.50548929999968	0	180476	251
353.53125	2	taste	foodImageDisplay	1	11	11	foodImage.27	FOODEEG_Images\0263.jpg	YN	Left	Yes	1.50548929999968	0	181009	252
355.59375	1.50548929999968	taste	choicePhaseStart	1	11	11	foodImage.27	FOODEEG_Images\0263.jpg	YN	Left	Yes	1.50548929999968	0	182065	253
357.08984375	0	taste	response	1	11	11	foodImage.27	FOODEEG_Images\0263.jpg	YN	Left	Yes	1.50548929999968	0	182831	234
358.12890625	1	decision	trialStart	1	12	12	foodImage.103	FOODEEG_Images\0911.jpg	NY	Left	No	0.836193500000263	0	183363	251
359.166015625	2	decision	foodImageDisplay	1	12	12	foodImage.103	FOODEEG_Images\0911.jpg	NY	Left	No	0.836193500000263	0	183894	252
361.228515625	0.836193500000263	decision	choicePhaseStart	1	12	12	foodImage.103	FOODEEG_Images\0911.jpg	NY	Left	No	0.836193500000263	0	184950	253
362.056640625	0	decision	response	1	12	12	foodImage.103	FOODEEG_Images\0911.jpg	NY	Left	No	0.836193500000263	0	185374	234
363.1015625	1	health	trialStart	1	13	13	foodImage.109	FOODEEG_Images\0917.jpg	NY	Left	No	1.42036139999982	0	185909	251
364.140625	2	health	foodImageDisplay	1	13	13	foodImage.109	FOODEEG_Images\0917.jpg	NY	Left	No	1.42036139999982	0	186441	252
366.205078125	1.42036139999982	health	choicePhaseStart	1	13	13	foodImage.109	FOODEEG_Images\0917.jpg	NY	Left	No	1.42036139999982	0	187498	253
367.6171875	0	health	response	1	13	13	foodImage.109	FOODEEG_Images\0917.jpg	NY	Left	No	1.42036139999982	0	188221	234
368.66015625	1	decision	trialStart	1	14	14	foodImage.21	FOODEEG_Images\0234.jpg	YN	Left	Yes	1.5402666	0	188755	251
369.724609375	2	decision	foodImageDisplay	1	14	14	foodImage.21	FOODEEG_Images\0234.jpg	YN	Left	Yes	1.5402666	0	189300	252
371.7890625	1.5402666	decision	choicePhaseStart	1	14	14	foodImage.21	FOODEEG_Images\0234.jpg	YN	Left	Yes	1.5402666	0	190357	253
373.3203125	0	decision	response	1	14	14	foodImage.21	FOODEEG_Images\0234.jpg	YN	Left	Yes	1.5402666	0	191141	234
374.36328125	1	decision	trialStart	1	15	15	foodImage.98	FOODEEG_Images\0906.jpg	YN	Right	No	1.19032910000078	0	191675	251
375.40234375	2	decision	foodImageDisplay	1	15	15	foodImage.98	FOODEEG_Images\0906.jpg	YN	Right	No	1.19032910000078	0	192207	252
377.478515625	1.19032910000078	decision	choicePhaseStart	1	15	15	foodImage.98	FOODEEG_Images\0906.jpg	YN	Right	No	1.19032910000078	0	193270	253
378.6640625	0	decision	response	1	15	15	foodImage.98	FOODEEG_Images\0906.jpg	YN	Right	No	1.19032910000078	0	193877	235
379.70703125	1	health	trialStart	1	16	16	foodImage.41	FOODEEG_Images\0409.jpg	NY	Right	Yes	0.805317499999546	0	194411	251
380.755859375	2	health	foodImageDisplay	1	16	16	foodImage.41	FOODEEG_Images\0409.jpg	NY	Right	Yes	0.805317499999546	0	194948	252
382.8203125	0.805317499999546	health	choicePhaseStart	1	16	16	foodImage.41	FOODEEG_Images\0409.jpg	NY	Right	Yes	0.805317499999546	0	196005	253
383.615234375	0	health	response	1	16	16	foodImage.41	FOODEEG_Images\0409.jpg	NY	Right	Yes	0.805317499999546	0	196412	235
384.658203125	1	decision	trialStart	1	17	17	foodImage.18	FOODEEG_Images\0202.jpg	YN	Left	Yes	1.50633079999989	0	196946	251
385.71875	2	decision	foodImageDisplay	1	17	17	foodImage.18	FOODEEG_Images\0202.jpg	YN	Left	Yes	1.50633079999989	0	197489	252
387.783203125	1.50633079999989	decision	choicePhaseStart	1	17	17	foodImage.18	FOODEEG_Images\0202.jpg	YN	Left	Yes	1.50633079999989	0	198546	253
389.279296875	0	decision	response	1	17	17	foodImage.18	FOODEEG_Images\0202.jpg	YN	Left	Yes	1.50633079999989	0	199312	234
390.322265625	1	taste	trialStart	1	18	18	foodImage.112	FOODEEG_Images\0920.jpg	NY	Left	No	1.18653279999944	0	199846	251
391.361328125	2	taste	foodImageDisplay	1	18	18	foodImage.112	FOODEEG_Images\0920.jpg	NY	Left	No	1.18653279999944	0	200378	252
393.4296875	1.18653279999944	taste	choicePhaseStart	1	18	18	foodImage.112	FOODEEG_Images\0920.jpg	NY	Left	No	1.18653279999944	0	201437	253
394.607421875	0	taste	response	1	18	18	foodImage.112	FOODEEG_Images\0920.jpg	NY	Left	No	1.18653279999944	0	202040	234
395.650390625	1	taste	trialStart	1	19	19	foodImage.16	FOODEEG_Images\0196.jpg	NY	Right	Yes	1.33701219999966	0	202574	251
396.7109375	2	taste	foodImageDisplay	1	19	19	foodImage.16	FOODEEG_Images\0196.jpg	NY	Right	Yes	1.33701219999966	0	203117	252
398.775390625	1.33701219999966	taste	choicePhaseStart	1	19	19	foodImage.16	FOODEEG_Images\0196.jpg	NY	Right	Yes	1.33701219999966	0	204174	253
400.103515625	0	taste	response	1	19	19	foodImage.16	FOODEEG_Images\0196.jpg	NY	Right	Yes	1.33701219999966	0	204854	235
401.146484375	1	taste	trialStart	1	20	20	foodImage.115	FOODEEG_Images\0923.jpg	NY	Left	No	1.02386169999954	0	205388	251
402.1875	2	taste	foodImageDisplay	1	20	20	foodImage.115	FOODEEG_Images\0923.jpg	NY	Left	No	1.02386169999954	0	205921	252
404.25	1.02386169999954	taste	choicePhaseStart	1	20	20	foodImage.115	FOODEEG_Images\0923.jpg	NY	Left	No	1.02386169999954	0	206977	253
405.263671875	0	taste	response	1	20	20	foodImage.115	FOODEEG_Images\0923.jpg	NY	Left	No	1.02386169999954	0	207496	234
406.306640625	1	taste	trialStart	1	21	21	foodImage.22	FOODEEG_Images\0236.jpg	NY	Right	Yes	1.42573999999968	0	208030	251
407.349609375	2	taste	foodImageDisplay	1	21	21	foodImage.22	FOODEEG_Images\0236.jpg	NY	Right	Yes	1.42573999999968	0	208564	252
409.4140625	1.42573999999968	taste	choicePhaseStart	1	21	21	foodImage.22	FOODEEG_Images\0236.jpg	NY	Right	Yes	1.42573999999968	0	209621	253
410.830078125	0	taste	response	1	21	21	foodImage.22	FOODEEG_Images\0236.jpg	NY	Right	Yes	1.42573999999968	0	210346	235
411.873046875	1	taste	trialStart	1	22	22	foodImage.90	FOODEEG_Images\0890.jpg	NY	Left	No	2.16960889999973	0	210880	251
412.931640625	2	taste	foodImageDisplay	1	22	22	foodImage.90	FOODEEG_Images\0890.jpg	NY	Left	No	2.16960889999973	0	211422	252
414.99609375	2.16960889999973	taste	choicePhaseStart	1	22	22	foodImage.90	FOODEEG_Images\0890.jpg	NY	Left	No	2.16960889999973	0	212479	253
417.158203125	0	taste	response	1	22	22	foodImage.90	FOODEEG_Images\0890.jpg	NY	Left	No	2.16960889999973	0	213586	234
418.201171875	1	health	trialStart	1	23	23	foodImage.89	FOODEEG_Images\0881.jpg	NY	Right	Yes	1.14466019999963	0	214120	251
419.255859375	2	health	foodImageDisplay	1	23	23	foodImage.89	FOODEEG_Images\0881.jpg	NY	Right	Yes	1.14466019999963	0	214660	252
421.318359375	1.14466019999963	health	choicePhaseStart	1	23	23	foodImage.89	FOODEEG_Images\0881.jpg	NY	Right	Yes	1.14466019999963	0	215716	253
422.455078125	0	health	response	1	23	23	foodImage.89	FOODEEG_Images\0881.jpg	NY	Right	Yes	1.14466019999963	0	216298	235
423.5	1	health	trialStart	1	24	24	foodImage.111	FOODEEG_Images\0919.jpg	NY	Left	No	1.33365020000019	0	216833	251
424.5390625	2	health	foodImageDisplay	1	24	24	foodImage.111	FOODEEG_Images\0919.jpg	NY	Left	No	1.33365020000019	0	217365	252
426.6015625	1.33365020000019	health	choicePhaseStart	1	24	24	foodImage.111	FOODEEG_Images\0919.jpg	NY	Left	No	1.33365020000019	0	218421	253
427.92578125	0	health	response	1	24	24	foodImage.111	FOODEEG_Images\0919.jpg	NY	Left	No	1.33365020000019	0	219099	234
428.966796875	1	taste	trialStart	1	25	25	foodImage.94	FOODEEG_Images\0902.jpg	YN	Right	No	1.53973860000042	0	219632	251
430.0078125	2	taste	foodImageDisplay	1	25	25	foodImage.94	FOODEEG_Images\0902.jpg	YN	Right	No	1.53973860000042	0	220165	252
432.07421875	1.53973860000042	taste	choicePhaseStart	1	25	25	foodImage.94	FOODEEG_Images\0902.jpg	YN	Right	No	1.53973860000042	0	221223	253
433.60546875	0	taste	response	1	25	25	foodImage.94	FOODEEG_Images\0902.jpg	YN	Right	No	1.53973860000042	0	222007	235
434.6484375	1	taste	trialStart	1	26	26	foodImage.24	FOODEEG_Images\0250.jpg	NY	Right	Yes	1.16358039999977	0	222541	251
435.697265625	2	taste	foodImageDisplay	1	26	26	foodImage.24	FOODEEG_Images\0250.jpg	NY	Right	Yes	1.16358039999977	0	223078	252
437.759765625	1.16358039999977	taste	choicePhaseStart	1	26	26	foodImage.24	FOODEEG_Images\0250.jpg	NY	Right	Yes	1.16358039999977	0	224134	253
438.91796875	0	taste	response	1	26	26	foodImage.24	FOODEEG_Images\0250.jpg	NY	Right	Yes	1.16358039999977	0	224727	235
439.9609375	1	taste	trialStart	1	27	27	foodImage.76	FOODEEG_Images\0766.jpg	NY	Right	Yes	0.954492400000163	0	225261	251
441.005859375	2	taste	foodImageDisplay	1	27	27	foodImage.76	FOODEEG_Images\0766.jpg	NY	Right	Yes	0.954492400000163	0	225796	252
443.068359375	0.954492400000163	taste	choicePhaseStart	1	27	27	foodImage.76	FOODEEG_Images\0766.jpg	NY	Right	Yes	0.954492400000163	0	226852	253
444.013671875	0	taste	response	1	27	27	foodImage.76	FOODEEG_Images\0766.jpg	NY	Right	Yes	0.954492400000163	0	227336	235
445.056640625	1	decision	trialStart	1	28	28	foodImage.95	FOODEEG_Images\0903.jpg	YN	Right	No	1.10462730000017	0	227870	251
446.095703125	2	decision	foodImageDisplay	1	28	28	foodImage.95	FOODEEG_Images\0903.jpg	YN	Right	No	1.10462730000017	0	228402	252
448.158203125	1.10462730000017	decision	choicePhaseStart	1	28	28	foodImage.95	FOODEEG_Images\0903.jpg	YN	Right	No	1.10462730000017	0	229458	253
449.25390625	0	decision	response	1	28	28	foodImage.95	FOODEEG_Images\0903.jpg	YN	Right	No	1.10462730000017	0	230019	235
450.29296875	1	decision	trialStart	1	29	29	foodImage.66	FOODEEG_Images\0676.jpg	NY	Right	Yes	0.904256400000122	0	230551	251
451.3359375	2	decision	foodImageDisplay	1	29	29	foodImage.66	FOODEEG_Images\0676.jpg	NY	Right	Yes	0.904256400000122	0	231085	252
453.3984375	0.904256400000122	decision	choicePhaseStart	1	29	29	foodImage.66	FOODEEG_Images\0676.jpg	NY	Right	Yes	0.904256400000122	0	232141	253
454.29296875	0	decision	response	1	29	29	foodImage.66	FOODEEG_Images\0676.jpg	NY	Right	Yes	0.904256400000122	0	232599	235
455.3359375	1	decision	trialStart	1	30	30	foodImage.119	FOODEEG_Images\0927.jpg	YN	Right	No	0.854058599999917	0	233133	251
456.375	2	decision	foodImageDisplay	1	30	30	foodImage.119	FOODEEG_Images\0927.jpg	YN	Right	No	0.854058599999917	0	233665	252
458.439453125	0.854058599999917	decision	choicePhaseStart	1	30	30	foodImage.119	FOODEEG_Images\0927.jpg	YN	Right	No	0.854058599999917	0	234722	253
459.28515625	0	decision	response	1	30	30	foodImage.119	FOODEEG_Images\0927.jpg	YN	Right	No	0.854058599999917	0	235155	235
460.326171875	1	taste	trialStart	1	31	31	foodImage.92	FOODEEG_Images\0900.jpg	NY	Left	No	1.25343530000009	0	235688	251
461.3671875	2	taste	foodImageDisplay	1	31	31	foodImage.92	FOODEEG_Images\0900.jpg	NY	Left	No	1.25343530000009	0	236221	252
463.4296875	1.25343530000009	taste	choicePhaseStart	1	31	31	foodImage.92	FOODEEG_Images\0900.jpg	NY	Left	No	1.25343530000009	0	237277	253
464.677734375	0	taste	response	1	31	31	foodImage.92	FOODEEG_Images\0900.jpg	NY	Left	No	1.25343530000009	0	237916	234
465.71875	1	health	trialStart	1	32	32	foodImage.94	FOODEEG_Images\0902.jpg	NY	Left	No	2.05713599999945	0	238449	251
466.755859375	2	health	foodImageDisplay	1	32	32	foodImage.94	FOODEEG_Images\0902.jpg	NY	Left	No	2.05713599999945	0	238980	252
468.8203125	2.05713599999945	health	choicePhaseStart	1	32	32	foodImage.94	FOODEEG_Images\0902.jpg	NY	Left	No	2.05713599999945	0	240037	253
470.869140625	0	health	response	1	32	32	foodImage.94	FOODEEG_Images\0902.jpg	NY	Left	No	2.05713599999945	0	241086	234
471.91015625	1	health	trialStart	1	33	33	foodImage.27	FOODEEG_Images\0263.jpg	YN	Left	Yes	1.14129589999993	0	241619	251
472.951171875	2	health	foodImageDisplay	1	33	33	foodImage.27	FOODEEG_Images\0263.jpg	YN	Left	Yes	1.14129589999993	0	242152	252
475.015625	1.14129589999993	health	choicePhaseStart	1	33	33	foodImage.27	FOODEEG_Images\0263.jpg	YN	Left	Yes	1.14129589999993	0	243209	253
476.1484375	0	health	response	1	33	33	foodImage.27	FOODEEG_Images\0263.jpg	YN	Left	Yes	1.14129589999993	0	243789	234
477.189453125	1	taste	trialStart	1	34	34	foodImage.96	FOODEEG_Images\0904.jpg	YN	Right	No	1.00689590000002	0	244322	251
478.23046875	2	taste	foodImageDisplay	1	34	34	foodImage.96	FOODEEG_Images\0904.jpg	YN	Right	No	1.00689590000002	0	244855	252
480.294921875	1.00689590000002	taste	choicePhaseStart	1	34	34	foodImage.96	FOODEEG_Images\0904.jpg	YN	Right	No	1.00689590000002	0	245912	253
481.29296875	0	taste	response	1	34	34	foodImage.96	FOODEEG_Images\0904.jpg	YN	Right	No	1.00689590000002	0	246423	235
482.333984375	1	decision	trialStart	1	35	35	foodImage.63	FOODEEG_Images\0645.jpg	YN	Left	Yes	0.677772399999412	0	246956	251
483.376953125	2	decision	foodImageDisplay	1	35	35	foodImage.63	FOODEEG_Images\0645.jpg	YN	Left	Yes	0.677772399999412	0	247490	252
485.439453125	0.677772399999412	decision	choicePhaseStart	1	35	35	foodImage.63	FOODEEG_Images\0645.jpg	YN	Left	Yes	0.677772399999412	0	248546	253
486.107421875	0	decision	response	1	35	35	foodImage.63	FOODEEG_Images\0645.jpg	YN	Left	Yes	0.677772399999412	0	248888	234
487.150390625	1	taste	trialStart	1	36	36	foodImage.4	FOODEEG_Images\0065.jpg	YN	Left	Yes	1.95167870000023	0	249422	251
488.2109375	2	taste	foodImageDisplay	1	36	36	foodImage.4	FOODEEG_Images\0065.jpg	YN	Left	Yes	1.95167870000023	0	249965	252
490.275390625	1.95167870000023	taste	choicePhaseStart	1	36	36	foodImage.4	FOODEEG_Images\0065.jpg	YN	Left	Yes	1.95167870000023	0	251022	253
492.21875	0	taste	response	1	36	36	foodImage.4	FOODEEG_Images\0065.jpg	YN	Left	Yes	1.95167870000023	0	252017	234
493.26171875	1	taste	trialStart	1	37	37	foodImage.18	FOODEEG_Images\0202.jpg	YN	Left	Yes	0.695427700000437	0	252551	251
494.31640625	2	taste	foodImageDisplay	1	37	37	foodImage.18	FOODEEG_Images\0202.jpg	YN	Left	Yes	0.695427700000437	0	253091	252
496.380859375	0.695427700000437	taste	choicePhaseStart	1	37	37	foodImage.18	FOODEEG_Images\0202.jpg	YN	Left	Yes	0.695427700000437	0	254148	253
497.06640625	0	taste	response	1	37	37	foodImage.18	FOODEEG_Images\0202.jpg	YN	Left	Yes	0.695427700000437	0	254499	234
498.109375	1	decision	trialStart	1	38	38	foodImage.36	FOODEEG_Images\0352.jpg	NY	Right	Yes	0.765242299999954	0	255033	251
499.16796875	2	decision	foodImageDisplay	1	38	38	foodImage.36	FOODEEG_Images\0352.jpg	NY	Right	Yes	0.765242299999954	0	255575	252
501.23046875	0.765242299999954	decision	choicePhaseStart	1	38	38	foodImage.36	FOODEEG_Images\0352.jpg	NY	Right	Yes	0.765242299999954	0	256631	253
501.986328125	0	decision	response	1	38	38	foodImage.36	FOODEEG_Images\0352.jpg	NY	Right	Yes	0.765242299999954	0	257018	235
503.029296875	1	decision	trialStart	1	39	39	foodImage.100	FOODEEG_Images\0908.jpg	NY	Right	Yes	1.30922590000046	0	257552	251
504.0703125	2	decision	foodImageDisplay	1	39	39	foodImage.100	FOODEEG_Images\0908.jpg	NY	Right	Yes	1.30922590000046	0	258085	252
506.134765625	1.30922590000046	decision	choicePhaseStart	1	39	39	foodImage.100	FOODEEG_Images\0908.jpg	NY	Right	Yes	1.30922590000046	0	259142	253
507.435546875	0	decision	response	1	39	39	foodImage.100	FOODEEG_Images\0908.jpg	NY	Right	Yes	1.30922590000046	0	259808	235
508.478515625	1	decision	trialStart	1	40	40	foodImage.102	FOODEEG_Images\0910.jpg	YN	Right	No	0.943323199999213	0	260342	251
509.517578125	2	decision	foodImageDisplay	1	40	40	foodImage.102	FOODEEG_Images\0910.jpg	YN	Right	No	0.943323199999213	0	260874	252
511.580078125	0.943323199999213	decision	choicePhaseStart	1	40	40	foodImage.102	FOODEEG_Images\0910.jpg	YN	Right	No	0.943323199999213	0	261930	253
512.515625	0	decision	response	1	40	40	foodImage.102	FOODEEG_Images\0910.jpg	YN	Right	No	0.943323199999213	0	262409	235
513.556640625	1	decision	trialStart	1	41	41	foodImage.1	FOODEEG_Images\0004.jpg	YN	Left	Yes	1.69841770000039	0	262942	251
514.599609375	2	decision	foodImageDisplay	1	41	41	foodImage.1	FOODEEG_Images\0004.jpg	YN	Left	Yes	1.69841770000039	0	263476	252
516.666015625	1.69841770000039	decision	choicePhaseStart	1	41	41	foodImage.1	FOODEEG_Images\0004.jpg	YN	Left	Yes	1.69841770000039	0	264534	253
518.353515625	0	decision	response	1	41	41	foodImage.1	FOODEEG_Images\0004.jpg	YN	Left	Yes	1.69841770000039	0	265398	234
519.3984375	1	health	trialStart	1	42	42	foodImage.75	FOODEEG_Images\0763.jpg	YN	Left	Yes	1.56629319999956	0	265933	251
520.443359375	2	health	foodImageDisplay	1	42	42	foodImage.75	FOODEEG_Images\0763.jpg	YN	Left	Yes	1.56629319999956	0	266468	252
522.5078125	1.56629319999956	health	choicePhaseStart	1	42	42	foodImage.75	FOODEEG_Images\0763.jpg	YN	Left	Yes	1.56629319999956	0	267525	253
524.06640625	0	health	response	1	42	42	foodImage.75	FOODEEG_Images\0763.jpg	YN	Left	Yes	1.56629319999956	0	268323	234
525.111328125	1	health	trialStart	1	43	43	foodImage.1	FOODEEG_Images\0004.jpg	YN	Right	No	1.02695870000025	0	268858	251
526.15234375	2	health	foodImageDisplay	1	43	43	foodImage.1	FOODEEG_Images\0004.jpg	YN	Right	No	1.02695870000025	0	269391	252
528.21484375	1.02695870000025	health	choicePhaseStart	1	43	43	foodImage.1	FOODEEG_Images\0004.jpg	YN	Right	No	1.02695870000025	0	270447	253
529.234375	0	health	response	1	43	43	foodImage.1	FOODEEG_Images\0004.jpg	YN	Right	No	1.02695870000025	0	270969	235
530.27734375	1	decision	trialStart	1	44	44	foodImage.60	FOODEEG_Images\0614.jpg	NY	Right	Yes	0.970336599999428	0	271503	251
531.3359375	2	decision	foodImageDisplay	1	44	44	foodImage.60	FOODEEG_Images\0614.jpg	NY	Right	Yes	0.970336599999428	0	272045	252
533.400390625	0.970336599999428	decision	choicePhaseStart	1	44	44	foodImage.60	FOODEEG_Images\0614.jpg	NY	Right	Yes	0.970336599999428	0	273102	253
534.361328125	0	decision	response	1	44	44	foodImage.60	FOODEEG_Images\0614.jpg	NY	Right	Yes	0.970336599999428	0	273594	235
535.41015625	1	health	trialStart	1	45	45	foodImage.20	FOODEEG_Images\0226.jpg	YN	Right	No	1.79202879999957	0	274131	251
536.451171875	2	health	foodImageDisplay	1	45	45	foodImage.20	FOODEEG_Images\0226.jpg	YN	Right	No	1.79202879999957	0	274664	252
538.515625	1.79202879999957	health	choicePhaseStart	1	45	45	foodImage.20	FOODEEG_Images\0226.jpg	YN	Right	No	1.79202879999957	0	275721	253
540.296875	0	health	response	1	45	45	foodImage.20	FOODEEG_Images\0226.jpg	YN	Right	No	1.79202879999957	0	276633	235
541.33984375	1	health	trialStart	1	46	46	foodImage.96	FOODEEG_Images\0904.jpg	YN	Left	Yes	2.86344469999949	0	277167	251
542.37890625	2	health	foodImageDisplay	1	46	46	foodImage.96	FOODEEG_Images\0904.jpg	YN	Left	Yes	2.86344469999949	0	277699	252
544.443359375	2.86344469999949	health	choicePhaseStart	1	46	46	foodImage.96	FOODEEG_Images\0904.jpg	YN	Left	Yes	2.86344469999949	0	278756	253
547.296875	0	health	response	1	46	46	foodImage.96	FOODEEG_Images\0904.jpg	YN	Left	Yes	2.86344469999949	0	280217	234
548.33984375	1	taste	trialStart	1	47	47	foodImage.40	FOODEEG_Images\0373.jpg	YN	Left	Yes	0.987374000000273	0	280751	251
549.3828125	2	taste	foodImageDisplay	1	47	47	foodImage.40	FOODEEG_Images\0373.jpg	YN	Left	Yes	0.987374000000273	0	281285	252
551.447265625	0.987374000000273	taste	choicePhaseStart	1	47	47	foodImage.40	FOODEEG_Images\0373.jpg	YN	Left	Yes	0.987374000000273	0	282342	253
552.42578125	0	taste	response	1	47	47	foodImage.40	FOODEEG_Images\0373.jpg	YN	Left	Yes	0.987374000000273	0	282843	234
553.46875	1	taste	trialStart	1	48	48	foodImage.100	FOODEEG_Images\0908.jpg	NY	Right	Yes	1.61439150000024	0	283377	251
554.5078125	2	taste	foodImageDisplay	1	48	48	foodImage.100	FOODEEG_Images\0908.jpg	NY	Right	Yes	1.61439150000024	0	283909	252
556.572265625	1.61439150000024	taste	choicePhaseStart	1	48	48	foodImage.100	FOODEEG_Images\0908.jpg	NY	Right	Yes	1.61439150000024	0	284966	253
558.17578125	0	taste	response	1	48	48	foodImage.100	FOODEEG_Images\0908.jpg	NY	Right	Yes	1.61439150000024	0	285787	235
559.224609375	1	health	trialStart	1	49	49	foodImage.82	FOODEEG_Images\0805.jpg	YN	Left	Yes	1.03848959999959	0	286324	251
560.3046875	2	health	foodImageDisplay	1	49	49	foodImage.82	FOODEEG_Images\0805.jpg	YN	Left	Yes	1.03848959999959	0	286877	252
562.369140625	1.03848959999959	health	choicePhaseStart	1	49	49	foodImage.82	FOODEEG_Images\0805.jpg	YN	Left	Yes	1.03848959999959	0	287934	253
563.400390625	0	health	response	1	49	49	foodImage.82	FOODEEG_Images\0805.jpg	YN	Left	Yes	1.03848959999959	0	288462	234
564.443359375	1	taste	trialStart	1	50	50	foodImage.63	FOODEEG_Images\0645.jpg	NY	Right	Yes	1.00481920000038	0	288996	251
565.484375	2	taste	foodImageDisplay	1	50	50	foodImage.63	FOODEEG_Images\0645.jpg	NY	Right	Yes	1.00481920000038	0	289529	252
567.548828125	1.00481920000038	taste	choicePhaseStart	1	50	50	foodImage.63	FOODEEG_Images\0645.jpg	NY	Right	Yes	1.00481920000038	0	290586	253
568.544921875	0	taste	response	1	50	50	foodImage.63	FOODEEG_Images\0645.jpg	NY	Right	Yes	1.00481920000038	0	291096	235
569.5859375	1	taste	trialStart	1	51	51	foodImage.82	FOODEEG_Images\0805.jpg	NY	Right	Yes	0.994524499999898	0	291629	251
570.640625	2	taste	foodImageDisplay	1	51	51	foodImage.82	FOODEEG_Images\0805.jpg	NY	Right	Yes	0.994524499999898	0	292169	252
572.703125	0.994524499999898	taste	choicePhaseStart	1	51	51	foodImage.82	FOODEEG_Images\0805.jpg	NY	Right	Yes	0.994524499999898	0	293225	253
573.6875	0	taste	response	1	51	51	foodImage.82	FOODEEG_Images\0805.jpg	NY	Right	Yes	0.994524499999898	0	293729	235
574.73046875	1	health	trialStart	1	52	52	foodImage.77	FOODEEG_Images\0771.jpg	NY	Right	Yes	1.06566920000023	0	294263	251
575.775390625	2	health	foodImageDisplay	1	52	52	foodImage.77	FOODEEG_Images\0771.jpg	NY	Right	Yes	1.06566920000023	0	294798	252
577.83984375	1.06566920000023	health	choicePhaseStart	1	52	52	foodImage.77	FOODEEG_Images\0771.jpg	NY	Right	Yes	1.06566920000023	0	295855	253
578.896484375	0	health	response	1	52	52	foodImage.77	FOODEEG_Images\0771.jpg	NY	Right	Yes	1.06566920000023	0	296396	235
579.939453125	1	decision	trialStart	1	53	53	foodImage.86	FOODEEG_Images\0844.jpg	YN	Left	Yes	1.58093939999981	0	296930	251
581	2	decision	foodImageDisplay	1	53	53	foodImage.86	FOODEEG_Images\0844.jpg	YN	Left	Yes	1.58093939999981	0	297473	252
583.06640625	1.58093939999981	decision	choicePhaseStart	1	53	53	foodImage.86	FOODEEG_Images\0844.jpg	YN	Left	Yes	1.58093939999981	0	298531	253
584.640625	0	decision	response	1	53	53	foodImage.86	FOODEEG_Images\0844.jpg	YN	Left	Yes	1.58093939999981	0	299337	234
585.685546875	1	decision	trialStart	1	54	54	foodImage.64	FOODEEG_Images\0647.jpg	NY	Right	Yes	0.775128599999334	0	299872	251
586.751953125	2	decision	foodImageDisplay	1	54	54	foodImage.64	FOODEEG_Images\0647.jpg	NY	Right	Yes	0.775128599999334	0	300418	252
588.814453125	0.775128599999334	decision	choicePhaseStart	1	54	54	foodImage.64	FOODEEG_Images\0647.jpg	NY	Right	Yes	0.775128599999334	0	301474	253
589.583984375	0	decision	response	1	54	54	foodImage.64	FOODEEG_Images\0647.jpg	NY	Right	Yes	0.775128599999334	0	301868	235
590.625	1	taste	trialStart	1	55	55	foodImage.43	FOODEEG_Images\0445.jpg	NY	Right	Yes	1.80494140000064	0	302401	251
591.685546875	2	taste	foodImageDisplay	1	55	55	foodImage.43	FOODEEG_Images\0445.jpg	NY	Right	Yes	1.80494140000064	0	302944	252
593.748046875	1.80494140000064	taste	choicePhaseStart	1	55	55	foodImage.43	FOODEEG_Images\0445.jpg	NY	Right	Yes	1.80494140000064	0	304000	253
595.54296875	0	taste	response	1	55	55	foodImage.43	FOODEEG_Images\0445.jpg	NY	Right	Yes	1.80494140000064	0	304919	235
596.587890625	1	health	trialStart	1	56	56	foodImage.69	FOODEEG_Images\0693.jpg	NY	Right	Yes	0.784038999999211	0	305454	251
597.6328125	2	health	foodImageDisplay	1	56	56	foodImage.69	FOODEEG_Images\0693.jpg	NY	Right	Yes	0.784038999999211	0	305989	252
599.697265625	0.784038999999211	health	choicePhaseStart	1	56	56	foodImage.69	FOODEEG_Images\0693.jpg	NY	Right	Yes	0.784038999999211	0	307046	253
600.470703125	0	health	response	1	56	56	foodImage.69	FOODEEG_Images\0693.jpg	NY	Right	Yes	0.784038999999211	0	307442	235
601.513671875	1	taste	trialStart	1	57	57	foodImage.71	FOODEEG_Images\0713.jpg	YN	Left	Yes	1.02039100000002	0	307976	251
602.556640625	2	taste	foodImageDisplay	1	57	57	foodImage.71	FOODEEG_Images\0713.jpg	YN	Left	Yes	1.02039100000002	0	308510	252
604.619140625	1.02039100000002	taste	choicePhaseStart	1	57	57	foodImage.71	FOODEEG_Images\0713.jpg	YN	Left	Yes	1.02039100000002	0	309566	253
605.630859375	0	taste	response	1	57	57	foodImage.71	FOODEEG_Images\0713.jpg	YN	Left	Yes	1.02039100000002	0	310084	234
606.671875	1	taste	trialStart	1	58	58	foodImage.66	FOODEEG_Images\0676.jpg	NY	Right	Yes	0.864872299999661	0	310617	251
607.734375	2	taste	foodImageDisplay	1	58	58	foodImage.66	FOODEEG_Images\0676.jpg	NY	Right	Yes	0.864872299999661	0	311161	252
609.798828125	0.864872299999661	taste	choicePhaseStart	1	58	58	foodImage.66	FOODEEG_Images\0676.jpg	NY	Right	Yes	0.864872299999661	0	312218	253
610.654296875	0	taste	response	1	58	58	foodImage.66	FOODEEG_Images\0676.jpg	NY	Right	Yes	0.864872299999661	0	312656	235
611.703125	1	decision	trialStart	1	59	59	foodImage.51	FOODEEG_Images\0536.jpg	YN	Left	Yes	0.876558300000397	0	313193	251
612.748046875	2	decision	foodImageDisplay	1	59	59	foodImage.51	FOODEEG_Images\0536.jpg	YN	Left	Yes	0.876558300000397	0	313728	252
614.81640625	0.876558300000397	decision	choicePhaseStart	1	59	59	foodImage.51	FOODEEG_Images\0536.jpg	YN	Left	Yes	0.876558300000397	0	314787	253
615.6875	0	decision	response	1	59	59	foodImage.51	FOODEEG_Images\0536.jpg	YN	Left	Yes	0.876558300000397	0	315233	234
616.728515625	1	health	trialStart	1	60	60	foodImage.64	FOODEEG_Images\0647.jpg	NY	Right	Yes	0.927764800000659	0	315766	251
617.8046875	2	health	foodImageDisplay	1	60	60	foodImage.64	FOODEEG_Images\0647.jpg	NY	Right	Yes	0.927764800000659	0	316317	252
619.869140625	0.927764800000659	health	choicePhaseStart	1	60	60	foodImage.64	FOODEEG_Images\0647.jpg	NY	Right	Yes	0.927764800000659	0	317374	253
620.791015625	0	health	response	1	60	60	foodImage.64	FOODEEG_Images\0647.jpg	NY	Right	Yes	0.927764800000659	0	317846	235
622.833984375	9.005859375	n/a	blockEnd	n/a	n/a	n/a	n/a	n/a	n/a	n/a	n/a	n/a	n/a	318892	254
631.83984375	2	n/a	blockStart	2	n/a	n/a	n/a	n/a	n/a	n/a	n/a	n/a	n/a	323503	250
633.880859375	1	health	trialStart	2	61	1	foodImage.101	FOODEEG_Images\0909.jpg	YN	Right	No	1.39613949999966	0	324548	251
634.921875	2	health	foodImageDisplay	2	61	1	foodImage.101	FOODEEG_Images\0909.jpg	YN	Right	No	1.39613949999966	0	325081	252
636.986328125	1.39613949999966	health	choicePhaseStart	2	61	1	foodImage.101	FOODEEG_Images\0909.jpg	YN	Right	No	1.39613949999966	0	326138	253
638.373046875	0	health	response	2	61	1	foodImage.101	FOODEEG_Images\0909.jpg	YN	Right	No	1.39613949999966	0	326848	235
639.41796875	1	decision	trialStart	2	62	2	foodImage.108	FOODEEG_Images\0916.jpg	YN	Right	No	0.972031100000095	0	327383	251
640.458984375	2	decision	foodImageDisplay	2	62	2	foodImage.108	FOODEEG_Images\0916.jpg	YN	Right	No	0.972031100000095	0	327916	252
642.521484375	0.972031100000095	decision	choicePhaseStart	2	62	2	foodImage.108	FOODEEG_Images\0916.jpg	YN	Right	No	0.972031100000095	0	328972	253
643.486328125	0	decision	response	2	62	2	foodImage.108	FOODEEG_Images\0916.jpg	YN	Right	No	0.972031100000095	0	329466	235
644.525390625	1	decision	trialStart	2	63	3	foodImage.10	FOODEEG_Images\0145.jpg	YN	Left	Yes	1.38642960000016	0	329998	251
645.5859375	2	decision	foodImageDisplay	2	63	3	foodImage.10	FOODEEG_Images\0145.jpg	YN	Left	Yes	1.38642960000016	0	330541	252
647.6484375	1.38642960000016	decision	choicePhaseStart	2	63	3	foodImage.10	FOODEEG_Images\0145.jpg	YN	Left	Yes	1.38642960000016	0	331597	253
649.029296875	0	decision	response	2	63	3	foodImage.10	FOODEEG_Images\0145.jpg	YN	Left	Yes	1.38642960000016	0	332304	234
650.072265625	1	decision	trialStart	2	64	4	foodImage.99	FOODEEG_Images\0907.jpg	NY	Left	No	0.804998800000249	0	332838	251
651.12109375	2	decision	foodImageDisplay	2	64	4	foodImage.99	FOODEEG_Images\0907.jpg	NY	Left	No	0.804998800000249	0	333375	252
653.185546875	0.804998800000249	decision	choicePhaseStart	2	64	4	foodImage.99	FOODEEG_Images\0907.jpg	NY	Left	No	0.804998800000249	0	334432	253
653.98046875	0	decision	response	2	64	4	foodImage.99	FOODEEG_Images\0907.jpg	NY	Left	No	0.804998800000249	0	334839	234
655.0234375	1	decision	trialStart	2	65	5	foodImage.96	FOODEEG_Images\0904.jpg	NY	Left	No	2.10332960000051	0	335373	251
656.080078125	2	decision	foodImageDisplay	2	65	5	foodImage.96	FOODEEG_Images\0904.jpg	NY	Left	No	2.10332960000051	0	335914	252
658.142578125	2.10332960000051	decision	choicePhaseStart	2	65	5	foodImage.96	FOODEEG_Images\0904.jpg	NY	Left	No	2.10332960000051	0	336970	253
660.236328125	0	decision	response	2	65	5	foodImage.96	FOODEEG_Images\0904.jpg	NY	Left	No	2.10332960000051	0	338042	234
661.279296875	1	decision	trialStart	2	66	6	foodImage.17	FOODEEG_Images\0199.jpg	NY	Right	Yes	0.811508400000093	0	338576	251
662.322265625	2	decision	foodImageDisplay	2	66	6	foodImage.17	FOODEEG_Images\0199.jpg	NY	Right	Yes	0.811508400000093	0	339110	252
664.384765625	0.811508400000093	decision	choicePhaseStart	2	66	6	foodImage.17	FOODEEG_Images\0199.jpg	NY	Right	Yes	0.811508400000093	0	340166	253
665.1875	0	decision	response	2	66	6	foodImage.17	FOODEEG_Images\0199.jpg	NY	Right	Yes	0.811508400000093	0	340577	235
666.232421875	1	taste	trialStart	2	67	7	foodImage.107	FOODEEG_Images\0915.jpg	NY	Left	No	1.65777870000056	0	341112	251
667.271484375	2	taste	foodImageDisplay	2	67	7	foodImage.107	FOODEEG_Images\0915.jpg	NY	Left	No	1.65777870000056	0	341644	252
669.33984375	1.65777870000056	taste	choicePhaseStart	2	67	7	foodImage.107	FOODEEG_Images\0915.jpg	NY	Left	No	1.65777870000056	0	342703	253
670.98828125	0	taste	response	2	67	7	foodImage.107	FOODEEG_Images\0915.jpg	NY	Left	No	1.65777870000056	0	343547	234
672.03125	1	taste	trialStart	2	68	8	foodImage.98	FOODEEG_Images\0906.jpg	YN	Right	No	1.03362730000026	0	344081	251
673.068359375	2	taste	foodImageDisplay	2	68	8	foodImage.98	FOODEEG_Images\0906.jpg	YN	Right	No	1.03362730000026	0	344612	252
675.130859375	1.03362730000026	taste	choicePhaseStart	2	68	8	foodImage.98	FOODEEG_Images\0906.jpg	YN	Right	No	1.03362730000026	0	345668	253
676.15625	0	taste	response	2	68	8	foodImage.98	FOODEEG_Images\0906.jpg	YN	Right	No	1.03362730000026	0	346193	235
677.201171875	1	health	trialStart	2	69	9	foodImage.95	FOODEEG_Images\0903.jpg	NY	Left	No	1.34208909999961	0	346728	251
678.23828125	2	health	foodImageDisplay	2	69	9	foodImage.95	FOODEEG_Images\0903.jpg	NY	Left	No	1.34208909999961	0	347259	252
680.302734375	1.34208909999961	health	choicePhaseStart	2	69	9	foodImage.95	FOODEEG_Images\0903.jpg	NY	Left	No	1.34208909999961	0	348316	253
681.63671875	0	health	response	2	69	9	foodImage.95	FOODEEG_Images\0903.jpg	NY	Left	No	1.34208909999961	0	348999	234
682.677734375	1	decision	trialStart	2	70	10	foodImage.92	FOODEEG_Images\0900.jpg	YN	Right	No	1.29763590000039	0	349532	251
683.716796875	2	decision	foodImageDisplay	2	70	10	foodImage.92	FOODEEG_Images\0900.jpg	YN	Right	No	1.29763590000039	0	350064	252
685.779296875	1.29763590000039	decision	choicePhaseStart	2	70	10	foodImage.92	FOODEEG_Images\0900.jpg	YN	Right	No	1.29763590000039	0	351120	253
687.068359375	0	decision	response	2	70	10	foodImage.92	FOODEEG_Images\0900.jpg	YN	Right	No	1.29763590000039	0	351780	235
688.111328125	1	health	trialStart	2	71	11	foodImage.44	FOODEEG_Images\0459.jpg	NY	Right	Yes	0.907410499999969	0	352314	251
689.158203125	2	health	foodImageDisplay	2	71	11	foodImage.44	FOODEEG_Images\0459.jpg	NY	Right	Yes	0.907410499999969	0	352850	252
691.22265625	0.907410499999969	health	choicePhaseStart	2	71	11	foodImage.44	FOODEEG_Images\0459.jpg	NY	Right	Yes	0.907410499999969	0	353907	253
692.123046875	0	health	response	2	71	11	foodImage.44	FOODEEG_Images\0459.jpg	NY	Right	Yes	0.907410499999969	0	354368	235
693.166015625	1	taste	trialStart	2	72	12	foodImage.45	FOODEEG_Images\0478.jpg	NY	Right	Yes	1.42168860000038	0	354902	251
694.21484375	2	taste	foodImageDisplay	2	72	12	foodImage.45	FOODEEG_Images\0478.jpg	NY	Right	Yes	1.42168860000038	0	355439	252
696.279296875	1.42168860000038	taste	choicePhaseStart	2	72	12	foodImage.45	FOODEEG_Images\0478.jpg	NY	Right	Yes	1.42168860000038	0	356496	253
697.69140625	0	taste	response	2	72	12	foodImage.45	FOODEEG_Images\0478.jpg	NY	Right	Yes	1.42168860000038	0	357219	235
698.734375	1	decision	trialStart	2	73	13	foodImage.65	FOODEEG_Images\0658.jpg	YN	Left	Yes	1.44313490000059	0	357753	251
699.77734375	2	decision	foodImageDisplay	2	73	13	foodImage.65	FOODEEG_Images\0658.jpg	YN	Left	Yes	1.44313490000059	0	358287	252
701.841796875	1.44313490000059	decision	choicePhaseStart	2	73	13	foodImage.65	FOODEEG_Images\0658.jpg	YN	Left	Yes	1.44313490000059	0	359344	253
703.275390625	0	decision	response	2	73	13	foodImage.65	FOODEEG_Images\0658.jpg	YN	Left	Yes	1.44313490000059	0	360078	234
704.318359375	1	taste	trialStart	2	74	14	foodImage.52	FOODEEG_Images\0539.jpg	YN	Left	Yes	0.833952099999806	0	360612	251
705.376953125	2	taste	foodImageDisplay	2	74	14	foodImage.52	FOODEEG_Images\0539.jpg	YN	Left	Yes	0.833952099999806	0	361154	252
707.439453125	0.833952099999806	taste	choicePhaseStart	2	74	14	foodImage.52	FOODEEG_Images\0539.jpg	YN	Left	Yes	0.833952099999806	0	362210	253
708.267578125	0	taste	response	2	74	14	foodImage.52	FOODEEG_Images\0539.jpg	YN	Left	Yes	0.833952099999806	0	362634	234
709.310546875	1	decision	trialStart	2	75	15	foodImage.111	FOODEEG_Images\0919.jpg	YN	Right	No	0.66385100000025	0	363168	251
710.349609375	2	decision	foodImageDisplay	2	75	15	foodImage.111	FOODEEG_Images\0919.jpg	YN	Right	No	0.66385100000025	0	363700	252
712.412109375	0.66385100000025	decision	choicePhaseStart	2	75	15	foodImage.111	FOODEEG_Images\0919.jpg	YN	Right	No	0.66385100000025	0	364756	253
713.06640625	0	decision	response	2	75	15	foodImage.111	FOODEEG_Images\0919.jpg	YN	Right	No	0.66385100000025	0	365091	235
714.109375	1	health	trialStart	2	76	16	foodImage.2	FOODEEG_Images\0028.jpg	YN	Right	No	0.91434609999942	0	365625	251
715.154296875	2	health	foodImageDisplay	2	76	16	foodImage.2	FOODEEG_Images\0028.jpg	YN	Right	No	0.91434609999942	0	366160	252
717.216796875	0.91434609999942	health	choicePhaseStart	2	76	16	foodImage.2	FOODEEG_Images\0028.jpg	YN	Right	No	0.91434609999942	0	367216	253
718.123046875	0	health	response	2	76	16	foodImage.2	FOODEEG_Images\0028.jpg	YN	Right	No	0.91434609999942	0	367680	235
719.1640625	1	decision	trialStart	2	77	17	foodImage.25	FOODEEG_Images\0261.jpg	NY	Right	Yes	1.46414180000011	0	368213	251
720.205078125	2	decision	foodImageDisplay	2	77	17	foodImage.25	FOODEEG_Images\0261.jpg	NY	Right	Yes	1.46414180000011	0	368746	252
722.2734375	1.46414180000011	decision	choicePhaseStart	2	77	17	foodImage.25	FOODEEG_Images\0261.jpg	NY	Right	Yes	1.46414180000011	0	369805	253
723.73046875	0	decision	response	2	77	17	foodImage.25	FOODEEG_Images\0261.jpg	NY	Right	Yes	1.46414180000011	0	370551	235
724.7734375	1	decision	trialStart	2	78	18	foodImage.50	FOODEEG_Images\0529.jpg	YN	Left	Yes	1.00092250000034	0	371085	251
725.83203125	2	decision	foodImageDisplay	2	78	18	foodImage.50	FOODEEG_Images\0529.jpg	YN	Left	Yes	1.00092250000034	0	371627	252
727.896484375	1.00092250000034	decision	choicePhaseStart	2	78	18	foodImage.50	FOODEEG_Images\0529.jpg	YN	Left	Yes	1.00092250000034	0	372684	253
728.890625	0	decision	response	2	78	18	foodImage.50	FOODEEG_Images\0529.jpg	YN	Left	Yes	1.00092250000034	0	373193	234
729.93359375	1	health	trialStart	2	79	19	foodImage.29	FOODEEG_Images\0278.jpg	YN	Left	Yes	1.05343190000076	0	373727	251
730.974609375	2	health	foodImageDisplay	2	79	19	foodImage.29	FOODEEG_Images\0278.jpg	YN	Left	Yes	1.05343190000076	0	374260	252
733.0390625	1.05343190000076	health	choicePhaseStart	2	79	19	foodImage.29	FOODEEG_Images\0278.jpg	YN	Left	Yes	1.05343190000076	0	375317	253
734.08203125	0	health	response	2	79	19	foodImage.29	FOODEEG_Images\0278.jpg	YN	Left	Yes	1.05343190000076	0	375851	234
735.123046875	1	taste	trialStart	2	80	20	foodImage.50	FOODEEG_Images\0529.jpg	YN	Left	Yes	0.854995799999415	0	376384	251
736.1796875	2	taste	foodImageDisplay	2	80	20	foodImage.50	FOODEEG_Images\0529.jpg	YN	Left	Yes	0.854995799999415	0	376925	252
738.244140625	0.854995799999415	taste	choicePhaseStart	2	80	20	foodImage.50	FOODEEG_Images\0529.jpg	YN	Left	Yes	0.854995799999415	0	377982	253
739.08984375	0	taste	response	2	80	20	foodImage.50	FOODEEG_Images\0529.jpg	YN	Left	Yes	0.854995799999415	0	378415	234
740.1328125	1	decision	trialStart	2	81	21	foodImage.109	FOODEEG_Images\0917.jpg	NY	Left	No	0.888084799999888	0	378949	251
741.169921875	2	decision	foodImageDisplay	2	81	21	foodImage.109	FOODEEG_Images\0917.jpg	NY	Left	No	0.888084799999888	0	379480	252
743.234375	0.888084799999888	decision	choicePhaseStart	2	81	21	foodImage.109	FOODEEG_Images\0917.jpg	NY	Left	No	0.888084799999888	0	380537	253
744.11328125	0	decision	response	2	81	21	foodImage.109	FOODEEG_Images\0917.jpg	NY	Left	No	0.888084799999888	0	380987	234
745.154296875	1	taste	trialStart	2	82	22	foodImage.56	FOODEEG_Images\0586.jpg	NY	Left	No	2.03787289999946	0	381520	251
746.21875	2	taste	foodImageDisplay	2	82	22	foodImage.56	FOODEEG_Images\0586.jpg	NY	Left	No	2.03787289999946	0	382065	252
748.28515625	2.03787289999946	taste	choicePhaseStart	2	82	22	foodImage.56	FOODEEG_Images\0586.jpg	NY	Left	No	2.03787289999946	0	383123	253
750.3125	0	taste	response	2	82	22	foodImage.56	FOODEEG_Images\0586.jpg	NY	Left	No	2.03787289999946	0	384161	234
751.35546875	1	decision	trialStart	2	83	23	foodImage.115	FOODEEG_Images\0923.jpg	NY	Left	No	0.671518199999809	0	384695	251
752.39453125	2	decision	foodImageDisplay	2	83	23	foodImage.115	FOODEEG_Images\0923.jpg	NY	Left	No	0.671518199999809	0	385227	252
754.458984375	0.671518199999809	decision	choicePhaseStart	2	83	23	foodImage.115	FOODEEG_Images\0923.jpg	NY	Left	No	0.671518199999809	0	386284	253
755.12109375	0	decision	response	2	83	23	foodImage.115	FOODEEG_Images\0923.jpg	NY	Left	No	0.671518199999809	0	386623	234
756.1640625	1	health	trialStart	2	84	24	foodImage.99	FOODEEG_Images\0907.jpg	NY	Left	No	1.62019519999922	0	387157	251
757.21484375	2	health	foodImageDisplay	2	84	24	foodImage.99	FOODEEG_Images\0907.jpg	NY	Left	No	1.62019519999922	0	387695	252
759.279296875	1.62019519999922	health	choicePhaseStart	2	84	24	foodImage.99	FOODEEG_Images\0907.jpg	NY	Left	No	1.62019519999922	0	388752	253
760.888671875	0	health	response	2	84	24	foodImage.99	FOODEEG_Images\0907.jpg	NY	Left	No	1.62019519999922	0	389576	234
761.931640625	1	health	trialStart	2	85	25	foodImage.113	FOODEEG_Images\0921.jpg	YN	Left	Yes	1.14339430000018	0	390110	251
762.970703125	2	health	foodImageDisplay	2	85	25	foodImage.113	FOODEEG_Images\0921.jpg	YN	Left	Yes	1.14339430000018	0	390642	252
765.03515625	1.14339430000018	health	choicePhaseStart	2	85	25	foodImage.113	FOODEEG_Images\0921.jpg	YN	Left	Yes	1.14339430000018	0	391699	253
766.16796875	0	health	response	2	85	25	foodImage.113	FOODEEG_Images\0921.jpg	YN	Left	Yes	1.14339430000018	0	392279	234
767.2109375	1	taste	trialStart	2	86	26	foodImage.1	FOODEEG_Images\0004.jpg	NY	Right	Yes	0.78589059999922	0	392813	251
768.25390625	2	taste	foodImageDisplay	2	86	26	foodImage.1	FOODEEG_Images\0004.jpg	NY	Right	Yes	0.78589059999922	0	393347	252
770.3203125	0.78589059999922	taste	choicePhaseStart	2	86	26	foodImage.1	FOODEEG_Images\0004.jpg	NY	Right	Yes	0.78589059999922	0	394405	253
771.095703125	0	taste	response	2	86	26	foodImage.1	FOODEEG_Images\0004.jpg	NY	Right	Yes	0.78589059999922	0	394802	235
772.138671875	1	decision	trialStart	2	87	27	foodImage.45	FOODEEG_Images\0478.jpg	YN	Left	Yes	2.19276780000018	0	395336	251
773.193359375	2	decision	foodImageDisplay	2	87	27	foodImage.45	FOODEEG_Images\0478.jpg	YN	Left	Yes	2.19276780000018	0	395876	252
775.263671875	2.19276780000018	decision	choicePhaseStart	2	87	27	foodImage.45	FOODEEG_Images\0478.jpg	YN	Left	Yes	2.19276780000018	0	396936	253
777.447265625	0	decision	response	2	87	27	foodImage.45	FOODEEG_Images\0478.jpg	YN	Left	Yes	2.19276780000018	0	398054	234
778.490234375	1	health	trialStart	2	88	28	foodImage.107	FOODEEG_Images\0915.jpg	YN	Left	Yes	3.56959409999945	0	398588	251
779.529296875	2	health	foodImageDisplay	2	88	28	foodImage.107	FOODEEG_Images\0915.jpg	YN	Left	Yes	3.56959409999945	0	399120	252
781.591796875	3.56959409999945	health	choicePhaseStart	2	88	28	foodImage.107	FOODEEG_Images\0915.jpg	YN	Left	Yes	3.56959409999945	0	400176	253
785.15234375	0	health	response	2	88	28	foodImage.107	FOODEEG_Images\0915.jpg	YN	Left	Yes	3.56959409999945	0	401999	234
786.193359375	1	taste	trialStart	2	89	29	foodImage.83	FOODEEG_Images\0827.jpg	NY	Right	Yes	1.74013149999973	0	402532	251
787.251953125	2	taste	foodImageDisplay	2	89	29	foodImage.83	FOODEEG_Images\0827.jpg	NY	Right	Yes	1.74013149999973	0	403074	252
789.31640625	1.74013149999973	taste	choicePhaseStart	2	89	29	foodImage.83	FOODEEG_Images\0827.jpg	NY	Right	Yes	1.74013149999973	0	404131	253
791.046875	0	taste	response	2	89	29	foodImage.83	FOODEEG_Images\0827.jpg	NY	Right	Yes	1.74013149999973	0	405017	235
792.08984375	1	health	trialStart	2	90	30	foodImage.19	FOODEEG_Images\0225.jpg	YN	Right	No	2.3439429	0	405551	251
793.134765625	2	health	foodImageDisplay	2	90	30	foodImage.19	FOODEEG_Images\0225.jpg	YN	Right	No	2.3439429	0	406086	252
795.201171875	2.3439429	health	choicePhaseStart	2	90	30	foodImage.19	FOODEEG_Images\0225.jpg	YN	Right	No	2.3439429	0	407144	253
797.53515625	0	health	response	2	90	30	foodImage.19	FOODEEG_Images\0225.jpg	YN	Right	No	2.3439429	0	408339	235
798.576171875	1	health	trialStart	2	91	31	foodImage.103	FOODEEG_Images\0911.jpg	YN	Right	No	1.07479779999994	0	408872	251
799.615234375	2	health	foodImageDisplay	2	91	31	foodImage.103	FOODEEG_Images\0911.jpg	YN	Right	No	1.07479779999994	0	409404	252
801.677734375	1.07479779999994	health	choicePhaseStart	2	91	31	foodImage.103	FOODEEG_Images\0911.jpg	YN	Right	No	1.07479779999994	0	410460	253
802.744140625	0	health	response	2	91	31	foodImage.103	FOODEEG_Images\0911.jpg	YN	Right	No	1.07479779999994	0	411006	235
803.78515625	1	taste	trialStart	2	92	32	foodImage.79	FOODEEG_Images\0794.jpg	YN	Left	Yes	1.47591680000005	0	411539	251
804.830078125	2	taste	foodImageDisplay	2	92	32	foodImage.79	FOODEEG_Images\0794.jpg	YN	Left	Yes	1.47591680000005	0	412074	252
806.892578125	1.47591680000005	taste	choicePhaseStart	2	92	32	foodImage.79	FOODEEG_Images\0794.jpg	YN	Left	Yes	1.47591680000005	0	413130	253
808.359375	0	taste	response	2	92	32	foodImage.79	FOODEEG_Images\0794.jpg	YN	Left	Yes	1.47591680000005	0	413881	234
809.40234375	1	health	trialStart	2	93	33	foodImage.59	FOODEEG_Images\0607.jpg	YN	Right	No	1.3718013000007	0	414415	251
810.451171875	2	health	foodImageDisplay	2	93	33	foodImage.59	FOODEEG_Images\0607.jpg	YN	Right	No	1.3718013000007	0	414952	252
812.513671875	1.3718013000007	health	choicePhaseStart	2	93	33	foodImage.59	FOODEEG_Images\0607.jpg	YN	Right	No	1.3718013000007	0	416008	253
813.87890625	0	health	response	2	93	33	foodImage.59	FOODEEG_Images\0607.jpg	YN	Right	No	1.3718013000007	0	416707	235
814.923828125	1	health	trialStart	2	94	34	foodImage.53	FOODEEG_Images\0547.jpg	NY	Left	No	0.954827700000351	0	417242	251
815.98046875	2	health	foodImageDisplay	2	94	34	foodImage.53	FOODEEG_Images\0547.jpg	NY	Left	No	0.954827700000351	0	417783	252
818.044921875	0.954827700000351	health	choicePhaseStart	2	94	34	foodImage.53	FOODEEG_Images\0547.jpg	NY	Left	No	0.954827700000351	0	418840	253
818.990234375	0	health	response	2	94	34	foodImage.53	FOODEEG_Images\0547.jpg	NY	Left	No	0.954827700000351	0	419324	234
820.033203125	1	health	trialStart	2	95	35	foodImage.76	FOODEEG_Images\0766.jpg	NY	Right	Yes	1.36410460000025	0	419858	251
821.08203125	2	health	foodImageDisplay	2	95	35	foodImage.76	FOODEEG_Images\0766.jpg	NY	Right	Yes	1.36410460000025	0	420395	252
823.14453125	1.36410460000025	health	choicePhaseStart	2	95	35	foodImage.76	FOODEEG_Images\0766.jpg	NY	Right	Yes	1.36410460000025	0	421451	253
824.501953125	0	health	response	2	95	35	foodImage.76	FOODEEG_Images\0766.jpg	NY	Right	Yes	1.36410460000025	0	422146	235
825.544921875	1	taste	trialStart	2	96	36	foodImage.105	FOODEEG_Images\0913.jpg	YN	Left	Yes	2.43300760000056	0	422680	251
826.5859375	2	taste	foodImageDisplay	2	96	36	foodImage.105	FOODEEG_Images\0913.jpg	YN	Left	Yes	2.43300760000056	0	423213	252
828.65234375	2.43300760000056	taste	choicePhaseStart	2	96	36	foodImage.105	FOODEEG_Images\0913.jpg	YN	Left	Yes	2.43300760000056	0	424271	253
831.078125	0	taste	response	2	96	36	foodImage.105	FOODEEG_Images\0913.jpg	YN	Left	Yes	2.43300760000056	0	425513	234
832.12109375	1	health	trialStart	2	97	37	foodImage.57	FOODEEG_Images\0587.jpg	NY	Left	No	1.90864899999997	0	426047	251
833.16796875	2	health	foodImageDisplay	2	97	37	foodImage.57	FOODEEG_Images\0587.jpg	NY	Left	No	1.90864899999997	0	426583	252
835.232421875	1.90864899999997	health	choicePhaseStart	2	97	37	foodImage.57	FOODEEG_Images\0587.jpg	NY	Left	No	1.90864899999997	0	427640	253
837.1328125	0	health	response	2	97	37	foodImage.57	FOODEEG_Images\0587.jpg	NY	Left	No	1.90864899999997	0	428613	234
838.17578125	1	decision	trialStart	2	98	38	foodImage.88	FOODEEG_Images\0878.jpg	NY	Right	Yes	0.845499200000631	0	429147	251
839.232421875	2	decision	foodImageDisplay	2	98	38	foodImage.88	FOODEEG_Images\0878.jpg	NY	Right	Yes	0.845499200000631	0	429688	252
841.294921875	0.845499200000631	decision	choicePhaseStart	2	98	38	foodImage.88	FOODEEG_Images\0878.jpg	NY	Right	Yes	0.845499200000631	0	430744	253
842.1328125	0	decision	response	2	98	38	foodImage.88	FOODEEG_Images\0878.jpg	NY	Right	Yes	0.845499200000631	0	431173	235
843.17578125	1	health	trialStart	2	99	39	foodImage.106	FOODEEG_Images\0914.jpg	NY	Left	No	0.70281150000028	0	431707	251
844.216796875	2	health	foodImageDisplay	2	99	39	foodImage.106	FOODEEG_Images\0914.jpg	NY	Left	No	0.70281150000028	0	432240	252
846.279296875	0.70281150000028	health	choicePhaseStart	2	99	39	foodImage.106	FOODEEG_Images\0914.jpg	NY	Left	No	0.70281150000028	0	433296	253
846.97265625	0	health	response	2	99	39	foodImage.106	FOODEEG_Images\0914.jpg	NY	Left	No	0.70281150000028	0	433651	234
848.01953125	1	health	trialStart	2	100	40	foodImage.114	FOODEEG_Images\0922.jpg	NY	Left	No	1.06921179999972	0	434187	251
849.05859375	2	health	foodImageDisplay	2	100	40	foodImage.114	FOODEEG_Images\0922.jpg	NY	Left	No	1.06921179999972	0	434719	252
851.12109375	1.06921179999972	health	choicePhaseStart	2	100	40	foodImage.114	FOODEEG_Images\0922.jpg	NY	Left	No	1.06921179999972	0	435775	253
852.181640625	0	health	response	2	100	40	foodImage.114	FOODEEG_Images\0922.jpg	NY	Left	No	1.06921179999972	0	436318	234
853.2265625	1	health	trialStart	2	101	41	foodImage.51	FOODEEG_Images\0536.jpg	NY	Left	No	2.52537329999996	0	436853	251
854.2734375	2	health	foodImageDisplay	2	101	41	foodImage.51	FOODEEG_Images\0536.jpg	NY	Left	No	2.52537329999996	0	437389	252
856.337890625	2.52537329999996	health	choicePhaseStart	2	101	41	foodImage.51	FOODEEG_Images\0536.jpg	NY	Left	No	2.52537329999996	0	438446	253
858.853515625	0	health	response	2	101	41	foodImage.51	FOODEEG_Images\0536.jpg	NY	Left	No	2.52537329999996	0	439734	234
859.896484375	1	health	trialStart	2	102	42	foodImage.70	FOODEEG_Images\0705.jpg	NY	Left	No	4.79552710000007	0	440268	251
860.955078125	2	health	foodImageDisplay	2	102	42	foodImage.70	FOODEEG_Images\0705.jpg	NY	Left	No	4.79552710000007	0	440810	252
863.01953125	4.79552710000007	health	choicePhaseStart	2	102	42	foodImage.70	FOODEEG_Images\0705.jpg	NY	Left	No	4.79552710000007	0	441867	253
867.8046875	0	health	response	2	102	42	foodImage.70	FOODEEG_Images\0705.jpg	NY	Left	No	4.79552710000007	0	444317	234
868.84765625	1	decision	trialStart	2	103	43	foodImage.67	FOODEEG_Images\0679.jpg	YN	Left	Yes	1.08351410000068	0	444851	251
869.90625	2	decision	foodImageDisplay	2	103	43	foodImage.67	FOODEEG_Images\0679.jpg	YN	Left	Yes	1.08351410000068	0	445393	252
871.970703125	1.08351410000068	decision	choicePhaseStart	2	103	43	foodImage.67	FOODEEG_Images\0679.jpg	YN	Left	Yes	1.08351410000068	0	446450	253
873.044921875	0	decision	response	2	103	43	foodImage.67	FOODEEG_Images\0679.jpg	YN	Left	Yes	1.08351410000068	0	447000	234
874.087890625	1	decision	trialStart	2	104	44	foodImage.59	FOODEEG_Images\0607.jpg	NY	Right	Yes	1.1196815000003	0	447534	251
875.134765625	2	decision	foodImageDisplay	2	104	44	foodImage.59	FOODEEG_Images\0607.jpg	NY	Right	Yes	1.1196815000003	0	448070	252
877.197265625	1.1196815000003	decision	choicePhaseStart	2	104	44	foodImage.59	FOODEEG_Images\0607.jpg	NY	Right	Yes	1.1196815000003	0	449126	253
878.30859375	0	decision	response	2	104	44	foodImage.59	FOODEEG_Images\0607.jpg	NY	Right	Yes	1.1196815000003	0	449695	235
879.359375	1	decision	trialStart	2	105	45	foodImage.44	FOODEEG_Images\0459.jpg	YN	Left	Yes	0.954471900000499	0	450233	251
880.404296875	2	decision	foodImageDisplay	2	105	45	foodImage.44	FOODEEG_Images\0459.jpg	YN	Left	Yes	0.954471900000499	0	450768	252
882.466796875	0.954471900000499	decision	choicePhaseStart	2	105	45	foodImage.44	FOODEEG_Images\0459.jpg	YN	Left	Yes	0.954471900000499	0	451824	253
883.412109375	0	decision	response	2	105	45	foodImage.44	FOODEEG_Images\0459.jpg	YN	Left	Yes	0.954471900000499	0	452308	234
884.453125	1	health	trialStart	2	106	46	foodImage.49	FOODEEG_Images\0515.jpg	YN	Right	No	3.67982799999936	0	452841	251
885.498046875	2	health	foodImageDisplay	2	106	46	foodImage.49	FOODEEG_Images\0515.jpg	YN	Right	No	3.67982799999936	0	453376	252
887.564453125	3.67982799999936	health	choicePhaseStart	2	106	46	foodImage.49	FOODEEG_Images\0515.jpg	YN	Right	No	3.67982799999936	0	454434	253
891.236328125	0	health	response	2	106	46	foodImage.49	FOODEEG_Images\0515.jpg	YN	Right	No	3.67982799999936	0	456314	235
892.27734375	1	health	trialStart	2	107	47	foodImage.35	FOODEEG_Images\0350.jpg	NY	Left	No	3.88865799999985	0	456847	251
893.318359375	2	health	foodImageDisplay	2	107	47	foodImage.35	FOODEEG_Images\0350.jpg	NY	Left	No	3.88865799999985	0	457380	252
895.380859375	3.88865799999985	health	choicePhaseStart	2	107	47	foodImage.35	FOODEEG_Images\0350.jpg	NY	Left	No	3.88865799999985	0	458436	253
899.259765625	0	health	response	2	107	47	foodImage.35	FOODEEG_Images\0350.jpg	NY	Left	No	3.88865799999985	0	460422	234
900.30078125	1	taste	trialStart	2	108	48	foodImage.28	FOODEEG_Images\0273.jpg	YN	Left	Yes	1.50705070000004	0	460955	251
901.341796875	2	taste	foodImageDisplay	2	108	48	foodImage.28	FOODEEG_Images\0273.jpg	YN	Left	Yes	1.50705070000004	0	461488	252
903.40625	1.50705070000004	taste	choicePhaseStart	2	108	48	foodImage.28	FOODEEG_Images\0273.jpg	YN	Left	Yes	1.50705070000004	0	462545	253
904.90625	0	taste	response	2	108	48	foodImage.28	FOODEEG_Images\0273.jpg	YN	Left	Yes	1.50705070000004	0	463313	234
905.94921875	1	health	trialStart	2	109	49	foodImage.9	FOODEEG_Images\0138.jpg	NY	Left	No	1.57271539999965	0	463847	251
907.0078125	2	health	foodImageDisplay	2	109	49	foodImage.9	FOODEEG_Images\0138.jpg	NY	Left	No	1.57271539999965	0	464389	252
909.0703125	1.57271539999965	health	choicePhaseStart	2	109	49	foodImage.9	FOODEEG_Images\0138.jpg	NY	Left	No	1.57271539999965	0	465445	253
910.634765625	0	health	response	2	109	49	foodImage.9	FOODEEG_Images\0138.jpg	NY	Left	No	1.57271539999965	0	466246	234
911.677734375	1	taste	trialStart	2	110	50	foodImage.69	FOODEEG_Images\0693.jpg	YN	Left	Yes	1.70795559999988	0	466780	251
912.720703125	2	taste	foodImageDisplay	2	110	50	foodImage.69	FOODEEG_Images\0693.jpg	YN	Left	Yes	1.70795559999988	0	467314	252
914.783203125	1.70795559999988	taste	choicePhaseStart	2	110	50	foodImage.69	FOODEEG_Images\0693.jpg	YN	Left	Yes	1.70795559999988	0	468370	253
916.482421875	0	taste	response	2	110	50	foodImage.69	FOODEEG_Images\0693.jpg	YN	Left	Yes	1.70795559999988	0	469240	234
917.52734375	1	health	trialStart	2	111	51	foodImage.23	FOODEEG_Images\0244.jpg	NY	Right	Yes	1.69087099999979	0	469775	251
918.5703125	2	health	foodImageDisplay	2	111	51	foodImage.23	FOODEEG_Images\0244.jpg	NY	Right	Yes	1.69087099999979	0	470309	252
920.6328125	1.69087099999979	health	choicePhaseStart	2	111	51	foodImage.23	FOODEEG_Images\0244.jpg	NY	Right	Yes	1.69087099999979	0	471365	253
922.314453125	0	health	response	2	111	51	foodImage.23	FOODEEG_Images\0244.jpg	NY	Right	Yes	1.69087099999979	0	472226	235
923.357421875	1	taste	trialStart	2	112	52	foodImage.29	FOODEEG_Images\0278.jpg	YN	Right	No	1.39129049999974	0	472760	251
924.3984375	2	taste	foodImageDisplay	2	112	52	foodImage.29	FOODEEG_Images\0278.jpg	YN	Right	No	1.39129049999974	0	473293	252
926.4609375	1.39129049999974	taste	choicePhaseStart	2	112	52	foodImage.29	FOODEEG_Images\0278.jpg	YN	Right	No	1.39129049999974	0	474349	253
927.841796875	0	taste	response	2	112	52	foodImage.29	FOODEEG_Images\0278.jpg	YN	Right	No	1.39129049999974	0	475056	235
928.884765625	1	health	trialStart	2	113	53	foodImage.52	FOODEEG_Images\0539.jpg	NY	Right	Yes	1.45922410000003	0	475590	251
929.9453125	2	health	foodImageDisplay	2	113	53	foodImage.52	FOODEEG_Images\0539.jpg	NY	Right	Yes	1.45922410000003	0	476133	252
932.0078125	1.45922410000003	health	choicePhaseStart	2	113	53	foodImage.52	FOODEEG_Images\0539.jpg	NY	Right	Yes	1.45922410000003	0	477189	253
933.45703125	0	health	response	2	113	53	foodImage.52	FOODEEG_Images\0539.jpg	NY	Right	Yes	1.45922410000003	0	477931	235
934.5	1	health	trialStart	2	114	54	foodImage.79	FOODEEG_Images\0794.jpg	YN	Left	Yes	1.40382839999984	0	478465	251
935.54296875	2	health	foodImageDisplay	2	114	54	foodImage.79	FOODEEG_Images\0794.jpg	YN	Left	Yes	1.40382839999984	0	478999	252
937.607421875	1.40382839999984	health	choicePhaseStart	2	114	54	foodImage.79	FOODEEG_Images\0794.jpg	YN	Left	Yes	1.40382839999984	0	480056	253
939.001953125	0	health	response	2	114	54	foodImage.79	FOODEEG_Images\0794.jpg	YN	Left	Yes	1.40382839999984	0	480770	234
940.044921875	1	taste	trialStart	2	115	55	foodImage.57	FOODEEG_Images\0587.jpg	NY	Right	Yes	1.47723229999974	0	481304	251
941.0859375	2	taste	foodImageDisplay	2	115	55	foodImage.57	FOODEEG_Images\0587.jpg	NY	Right	Yes	1.47723229999974	0	481837	252
943.150390625	1.47723229999974	taste	choicePhaseStart	2	115	55	foodImage.57	FOODEEG_Images\0587.jpg	NY	Right	Yes	1.47723229999974	0	482894	253
944.6171875	0	taste	response	2	115	55	foodImage.57	FOODEEG_Images\0587.jpg	NY	Right	Yes	1.47723229999974	0	483645	235
945.6640625	1	taste	trialStart	2	116	56	foodImage.14	FOODEEG_Images\0188.jpg	YN	Left	Yes	1.60724860000028	0	484181	251
946.724609375	2	taste	foodImageDisplay	2	116	56	foodImage.14	FOODEEG_Images\0188.jpg	YN	Left	Yes	1.60724860000028	0	484724	252
948.787109375	1.60724860000028	taste	choicePhaseStart	2	116	56	foodImage.14	FOODEEG_Images\0188.jpg	YN	Left	Yes	1.60724860000028	0	485780	253
950.384765625	0	taste	response	2	116	56	foodImage.14	FOODEEG_Images\0188.jpg	YN	Left	Yes	1.60724860000028	0	486598	234
951.42578125	1	health	trialStart	2	117	57	foodImage.56	FOODEEG_Images\0586.jpg	YN	Right	No	1.02091870000004	0	487131	251
952.470703125	2	health	foodImageDisplay	2	117	57	foodImage.56	FOODEEG_Images\0586.jpg	YN	Right	No	1.02091870000004	0	487666	252
954.533203125	1.02091870000004	health	choicePhaseStart	2	117	57	foodImage.56	FOODEEG_Images\0586.jpg	YN	Right	No	1.02091870000004	0	488722	253
955.544921875	0	health	response	2	117	57	foodImage.56	FOODEEG_Images\0586.jpg	YN	Right	No	1.02091870000004	0	489240	235
956.587890625	1	taste	trialStart	2	118	58	foodImage.35	FOODEEG_Images\0350.jpg	NY	Right	Yes	2.12075480000021	0	489774	251
957.625	2	taste	foodImageDisplay	2	118	58	foodImage.35	FOODEEG_Images\0350.jpg	NY	Right	Yes	2.12075480000021	0	490305	252
959.689453125	2.12075480000021	taste	choicePhaseStart	2	118	58	foodImage.35	FOODEEG_Images\0350.jpg	NY	Right	Yes	2.12075480000021	0	491362	253
961.80078125	0	taste	response	2	118	58	foodImage.35	FOODEEG_Images\0350.jpg	NY	Right	Yes	2.12075480000021	0	492443	235
962.841796875	1	decision	trialStart	2	119	59	foodImage.13	FOODEEG_Images\0183.jpg	YN	Left	Yes	2.03726689999985	0	492976	251
963.884765625	2	decision	foodImageDisplay	2	119	59	foodImage.13	FOODEEG_Images\0183.jpg	YN	Left	Yes	2.03726689999985	0	493510	252
965.94921875	2.03726689999985	decision	choicePhaseStart	2	119	59	foodImage.13	FOODEEG_Images\0183.jpg	YN	Left	Yes	2.03726689999985	0	494567	253
967.9765625	0	decision	response	2	119	59	foodImage.13	FOODEEG_Images\0183.jpg	YN	Left	Yes	2.03726689999985	0	495605	234
969.017578125	1	decision	trialStart	2	120	60	foodImage.83	FOODEEG_Images\0827.jpg	YN	Left	Yes	1.65421330000027	0	496138	251
970.076171875	2	decision	foodImageDisplay	2	120	60	foodImage.83	FOODEEG_Images\0827.jpg	YN	Left	Yes	1.65421330000027	0	496680	252
972.138671875	1.65421330000027	decision	choicePhaseStart	2	120	60	foodImage.83	FOODEEG_Images\0827.jpg	YN	Left	Yes	1.65421330000027	0	497736	253
973.78515625	0	decision	response	2	120	60	foodImage.83	FOODEEG_Images\0827.jpg	YN	Left	Yes	1.65421330000027	0	498579	234
975.828125	7.5078125	n/a	blockEnd	n/a	n/a	n/a	n/a	n/a	n/a	n/a	n/a	n/a	n/a	499625	254
983.3359375	2	n/a	blockStart	3	n/a	n/a	n/a	n/a	n/a	n/a	n/a	n/a	n/a	503469	250
985.369140625	1	decision	trialStart	3	121	1	foodImage.22	FOODEEG_Images\0236.jpg	YN	Left	Yes	0.941899999999805	0	504510	251
986.41015625	2	decision	foodImageDisplay	3	121	1	foodImage.22	FOODEEG_Images\0236.jpg	YN	Left	Yes	0.941899999999805	0	505043	252
988.474609375	0.941899999999805	decision	choicePhaseStart	3	121	1	foodImage.22	FOODEEG_Images\0236.jpg	YN	Left	Yes	0.941899999999805	0	506100	253
989.408203125	0	decision	response	3	121	1	foodImage.22	FOODEEG_Images\0236.jpg	YN	Left	Yes	0.941899999999805	0	506578	234
990.453125	1	health	trialStart	3	122	2	foodImage.12	FOODEEG_Images\0181.jpg	YN	Left	Yes	0.946999299999334	0	507113	251
991.49609375	2	health	foodImageDisplay	3	122	2	foodImage.12	FOODEEG_Images\0181.jpg	YN	Left	Yes	0.946999299999334	0	507647	252
993.55859375	0.946999299999334	health	choicePhaseStart	3	122	2	foodImage.12	FOODEEG_Images\0181.jpg	YN	Left	Yes	0.946999299999334	0	508703	253
994.49609375	0	health	response	3	122	2	foodImage.12	FOODEEG_Images\0181.jpg	YN	Left	Yes	0.946999299999334	0	509183	234
995.5390625	1	decision	trialStart	3	123	3	foodImage.93	FOODEEG_Images\0901.jpg	NY	Left	No	1.09776789999978	0	509717	251
996.578125	2	decision	foodImageDisplay	3	123	3	foodImage.93	FOODEEG_Images\0901.jpg	NY	Left	No	1.09776789999978	0	510249	252
998.64453125	1.09776789999978	decision	choicePhaseStart	3	123	3	foodImage.93	FOODEEG_Images\0901.jpg	NY	Left	No	1.09776789999978	0	511307	253
999.736328125	0	decision	response	3	123	3	foodImage.93	FOODEEG_Images\0901.jpg	NY	Left	No	1.09776789999978	0	511866	234
1000.779296875	1	decision	trialStart	3	124	4	foodImage.82	FOODEEG_Images\0805.jpg	YN	Left	Yes	0.86097559999962	0	512400	251
1001.8359375	2	decision	foodImageDisplay	3	124	4	foodImage.82	FOODEEG_Images\0805.jpg	YN	Left	Yes	0.86097559999962	0	512941	252
1003.900390625	0.86097559999962	decision	choicePhaseStart	3	124	4	foodImage.82	FOODEEG_Images\0805.jpg	YN	Left	Yes	0.86097559999962	0	513998	253
1004.751953125	0	decision	response	3	124	4	foodImage.82	FOODEEG_Images\0805.jpg	YN	Left	Yes	0.86097559999962	0	514434	234
1005.79296875	1	decision	trialStart	3	125	5	foodImage.37	FOODEEG_Images\0359.jpg	NY	Right	Yes	0.859595800000534	0	514967	251
1006.8359375	2	decision	foodImageDisplay	3	125	5	foodImage.37	FOODEEG_Images\0359.jpg	NY	Right	Yes	0.859595800000534	0	515501	252
1008.900390625	0.859595800000534	decision	choicePhaseStart	3	125	5	foodImage.37	FOODEEG_Images\0359.jpg	NY	Right	Yes	0.859595800000534	0	516558	253
1009.75	0	decision	response	3	125	5	foodImage.37	FOODEEG_Images\0359.jpg	NY	Right	Yes	0.859595800000534	0	516993	235
1010.79296875	1	decision	trialStart	3	126	6	foodImage.41	FOODEEG_Images\0409.jpg	YN	Left	Yes	1.39997560000029	0	517527	251
1011.83984375	2	decision	foodImageDisplay	3	126	6	foodImage.41	FOODEEG_Images\0409.jpg	YN	Left	Yes	1.39997560000029	0	518063	252
1013.904296875	1.39997560000029	decision	choicePhaseStart	3	126	6	foodImage.41	FOODEEG_Images\0409.jpg	YN	Left	Yes	1.39997560000029	0	519120	253
1015.294921875	0	decision	response	3	126	6	foodImage.41	FOODEEG_Images\0409.jpg	YN	Left	Yes	1.39997560000029	0	519832	234
1016.337890625	1	health	trialStart	3	127	7	foodImage.119	FOODEEG_Images\0927.jpg	YN	Right	No	0.80958499999997	0	520366	251
1017.376953125	2	health	foodImageDisplay	3	127	7	foodImage.119	FOODEEG_Images\0927.jpg	YN	Right	No	0.80958499999997	0	520898	252
1019.439453125	0.80958499999997	health	choicePhaseStart	3	127	7	foodImage.119	FOODEEG_Images\0927.jpg	YN	Right	No	0.80958499999997	0	521954	253
1020.23828125	0	health	response	3	127	7	foodImage.119	FOODEEG_Images\0927.jpg	YN	Right	No	0.80958499999997	0	522363	235
1021.28125	1	taste	trialStart	3	128	8	foodImage.55	FOODEEG_Images\0567.jpg	YN	Left	Yes	0.732111900000746	0	522897	251
1022.33984375	2	taste	foodImageDisplay	3	128	8	foodImage.55	FOODEEG_Images\0567.jpg	YN	Left	Yes	0.732111900000746	0	523439	252
1024.40234375	0.732111900000746	taste	choicePhaseStart	3	128	8	foodImage.55	FOODEEG_Images\0567.jpg	YN	Left	Yes	0.732111900000746	0	524495	253
1025.126953125	0	taste	response	3	128	8	foodImage.55	FOODEEG_Images\0567.jpg	YN	Left	Yes	0.732111900000746	0	524866	234
1026.169921875	1	health	trialStart	3	129	9	foodImage.45	FOODEEG_Images\0478.jpg	NY	Right	Yes	0.905400999999983	0	525400	251
1027.21484375	2	health	foodImageDisplay	3	129	9	foodImage.45	FOODEEG_Images\0478.jpg	NY	Right	Yes	0.905400999999983	0	525935	252
1029.27734375	0.905400999999983	health	choicePhaseStart	3	129	9	foodImage.45	FOODEEG_Images\0478.jpg	NY	Right	Yes	0.905400999999983	0	526991	253
1030.173828125	0	health	response	3	129	9	foodImage.45	FOODEEG_Images\0478.jpg	NY	Right	Yes	0.905400999999983	0	527450	235
1031.216796875	1	decision	trialStart	3	130	10	foodImage.110	FOODEEG_Images\0918.jpg	YN	Right	No	0.615043099999639	0	527984	251
1032.255859375	2	decision	foodImageDisplay	3	130	10	foodImage.110	FOODEEG_Images\0918.jpg	YN	Right	No	0.615043099999639	0	528516	252
1034.3203125	0.615043099999639	decision	choicePhaseStart	3	130	10	foodImage.110	FOODEEG_Images\0918.jpg	YN	Right	No	0.615043099999639	0	529573	253
1034.92578125	0	decision	response	3	130	10	foodImage.110	FOODEEG_Images\0918.jpg	YN	Right	No	0.615043099999639	0	529883	235
1035.970703125	1	taste	trialStart	3	131	11	foodImage.75	FOODEEG_Images\0763.jpg	NY	Right	Yes	1.45176389999961	0	530418	251
1037.015625	2	taste	foodImageDisplay	3	131	11	foodImage.75	FOODEEG_Images\0763.jpg	NY	Right	Yes	1.45176389999961	0	530953	252
1039.083984375	1.45176389999961	taste	choicePhaseStart	3	131	11	foodImage.75	FOODEEG_Images\0763.jpg	NY	Right	Yes	1.45176389999961	0	532012	253
1040.525390625	0	taste	response	3	131	11	foodImage.75	FOODEEG_Images\0763.jpg	NY	Right	Yes	1.45176389999961	0	532750	235
1041.568359375	1	taste	trialStart	3	132	12	foodImage.51	FOODEEG_Images\0536.jpg	YN	Left	Yes	0.757161900000028	0	533284	251
1042.634765625	2	taste	foodImageDisplay	3	132	12	foodImage.51	FOODEEG_Images\0536.jpg	YN	Left	Yes	0.757161900000028	0	533830	252
1044.69921875	0.757161900000028	taste	choicePhaseStart	3	132	12	foodImage.51	FOODEEG_Images\0536.jpg	YN	Left	Yes	0.757161900000028	0	534887	253
1045.4453125	0	taste	response	3	132	12	foodImage.51	FOODEEG_Images\0536.jpg	YN	Left	Yes	0.757161900000028	0	535269	234
1046.48828125	1	health	trialStart	3	133	13	foodImage.39	FOODEEG_Images\0367.jpg	NY	Left	No	1.28055760000007	0	535803	251
1047.52734375	2	health	foodImageDisplay	3	133	13	foodImage.39	FOODEEG_Images\0367.jpg	NY	Left	No	1.28055760000007	0	536335	252
1049.58984375	1.28055760000007	health	choicePhaseStart	3	133	13	foodImage.39	FOODEEG_Images\0367.jpg	NY	Left	No	1.28055760000007	0	537391	253
1050.861328125	0	health	response	3	133	13	foodImage.39	FOODEEG_Images\0367.jpg	NY	Left	No	1.28055760000007	0	538042	234
1051.904296875	1	health	trialStart	3	134	14	foodImage.32	FOODEEG_Images\0319.jpg	YN	Left	Yes	1.66770799999995	0	538576	251
1052.94921875	2	health	foodImageDisplay	3	134	14	foodImage.32	FOODEEG_Images\0319.jpg	YN	Left	Yes	1.66770799999995	0	539111	252
1055.009765625	1.66770799999995	health	choicePhaseStart	3	134	14	foodImage.32	FOODEEG_Images\0319.jpg	YN	Left	Yes	1.66770799999995	0	540166	253
1056.669921875	0	health	response	3	134	14	foodImage.32	FOODEEG_Images\0319.jpg	YN	Left	Yes	1.66770799999995	0	541016	234
1057.712890625	1	decision	trialStart	3	135	15	foodImage.5	FOODEEG_Images\0107.jpg	NY	Right	Yes	1.13378640000064	0	541550	251
1058.77734375	2	decision	foodImageDisplay	3	135	15	foodImage.5	FOODEEG_Images\0107.jpg	NY	Right	Yes	1.13378640000064	0	542095	252
1060.845703125	1.13378640000064	decision	choicePhaseStart	3	135	15	foodImage.5	FOODEEG_Images\0107.jpg	NY	Right	Yes	1.13378640000064	0	543154	253
1061.97265625	0	decision	response	3	135	15	foodImage.5	FOODEEG_Images\0107.jpg	NY	Right	Yes	1.13378640000064	0	543731	235
1063.017578125	1	decision	trialStart	3	136	16	foodImage.118	FOODEEG_Images\0926.jpg	NY	Left	No	0.727033499999379	0	544266	251
1064.056640625	2	decision	foodImageDisplay	3	136	16	foodImage.118	FOODEEG_Images\0926.jpg	NY	Left	No	0.727033499999379	0	544798	252
1066.119140625	0.727033499999379	decision	choicePhaseStart	3	136	16	foodImage.118	FOODEEG_Images\0926.jpg	NY	Left	No	0.727033499999379	0	545854	253
1066.8359375	0	decision	response	3	136	16	foodImage.118	FOODEEG_Images\0926.jpg	NY	Left	No	0.727033499999379	0	546221	234
1067.87890625	1	taste	trialStart	3	137	17	foodImage.95	FOODEEG_Images\0903.jpg	YN	Right	No	0.986035399999309	0	546755	251
1068.916015625	2	taste	foodImageDisplay	3	137	17	foodImage.95	FOODEEG_Images\0903.jpg	YN	Right	No	0.986035399999309	0	547286	252
1070.98046875	0.986035399999309	taste	choicePhaseStart	3	137	17	foodImage.95	FOODEEG_Images\0903.jpg	YN	Right	No	0.986035399999309	0	548343	253
1071.95703125	0	taste	response	3	137	17	foodImage.95	FOODEEG_Images\0903.jpg	YN	Right	No	0.986035399999309	0	548843	235
1072.998046875	1	health	trialStart	3	138	18	foodImage.15	FOODEEG_Images\0189.jpg	NY	Left	No	0.998277299999245	0	549376	251
1074.056640625	2	health	foodImageDisplay	3	138	18	foodImage.15	FOODEEG_Images\0189.jpg	NY	Left	No	0.998277299999245	0	549918	252
1076.119140625	0.998277299999245	health	choicePhaseStart	3	138	18	foodImage.15	FOODEEG_Images\0189.jpg	NY	Left	No	0.998277299999245	0	550974	253
1077.107421875	0	health	response	3	138	18	foodImage.15	FOODEEG_Images\0189.jpg	NY	Left	No	0.998277299999245	0	551480	234
1078.15234375	1	decision	trialStart	3	139	19	foodImage.71	FOODEEG_Images\0713.jpg	NY	Right	Yes	1.06612630000018	0	552015	251
1079.197265625	2	decision	foodImageDisplay	3	139	19	foodImage.71	FOODEEG_Images\0713.jpg	NY	Right	Yes	1.06612630000018	0	552550	252
1081.259765625	1.06612630000018	decision	choicePhaseStart	3	139	19	foodImage.71	FOODEEG_Images\0713.jpg	NY	Right	Yes	1.06612630000018	0	553606	253
1082.31640625	0	decision	response	3	139	19	foodImage.71	FOODEEG_Images\0713.jpg	NY	Right	Yes	1.06612630000018	0	554147	235
1083.357421875	1	decision	trialStart	3	140	20	foodImage.30	FOODEEG_Images\0282.jpg	NY	Right	Yes	0.941685400000097	0	554680	251
1084.400390625	2	decision	foodImageDisplay	3	140	20	foodImage.30	FOODEEG_Images\0282.jpg	NY	Right	Yes	0.941685400000097	0	555214	252
1086.462890625	0.941685400000097	decision	choicePhaseStart	3	140	20	foodImage.30	FOODEEG_Images\0282.jpg	NY	Right	Yes	0.941685400000097	0	556270	253
1087.396484375	0	decision	response	3	140	20	foodImage.30	FOODEEG_Images\0282.jpg	NY	Right	Yes	0.941685400000097	0	556748	235
1088.435546875	1	decision	trialStart	3	141	21	foodImage.33	FOODEEG_Images\0329.jpg	YN	Left	Yes	1.41670440000053	0	557280	251
1089.4765625	2	decision	foodImageDisplay	3	141	21	foodImage.33	FOODEEG_Images\0329.jpg	YN	Left	Yes	1.41670440000053	0	557813	252
1091.541015625	1.41670440000053	decision	choicePhaseStart	3	141	21	foodImage.33	FOODEEG_Images\0329.jpg	YN	Left	Yes	1.41670440000053	0	558870	253
1092.947265625	0	decision	response	3	141	21	foodImage.33	FOODEEG_Images\0329.jpg	YN	Left	Yes	1.41670440000053	0	559590	234
1093.994140625	1	health	trialStart	3	142	22	foodImage.10	FOODEEG_Images\0145.jpg	YN	Right	No	0.775397999999768	0	560126	251
1095.0546875	2	health	foodImageDisplay	3	142	22	foodImage.10	FOODEEG_Images\0145.jpg	YN	Right	No	0.775397999999768	0	560669	252
1097.1171875	0.775397999999768	health	choicePhaseStart	3	142	22	foodImage.10	FOODEEG_Images\0145.jpg	YN	Right	No	0.775397999999768	0	561725	253
1097.8828125	0	health	response	3	142	22	foodImage.10	FOODEEG_Images\0145.jpg	YN	Right	No	0.775397999999768	0	562117	235
1098.9296875	1	taste	trialStart	3	143	23	foodImage.111	FOODEEG_Images\0919.jpg	YN	Right	No	0.788947500000177	0	562653	251
1099.96875	2	taste	foodImageDisplay	3	143	23	foodImage.111	FOODEEG_Images\0919.jpg	YN	Right	No	0.788947500000177	0	563185	252
1102.03125	0.788947500000177	taste	choicePhaseStart	3	143	23	foodImage.111	FOODEEG_Images\0919.jpg	YN	Right	No	0.788947500000177	0	564241	253
1102.810546875	0	taste	response	3	143	23	foodImage.111	FOODEEG_Images\0919.jpg	YN	Right	No	0.788947500000177	0	564640	235
1103.85546875	1	health	trialStart	3	144	24	foodImage.54	FOODEEG_Images\0560.jpg	NY	Right	Yes	1.03631699999914	0	565175	251
1104.912109375	2	health	foodImageDisplay	3	144	24	foodImage.54	FOODEEG_Images\0560.jpg	NY	Right	Yes	1.03631699999914	0	565716	252
1106.9765625	1.03631699999914	health	choicePhaseStart	3	144	24	foodImage.54	FOODEEG_Images\0560.jpg	NY	Right	Yes	1.03631699999914	0	566773	253
1108.00390625	0	health	response	3	144	24	foodImage.54	FOODEEG_Images\0560.jpg	NY	Right	Yes	1.03631699999914	0	567299	235
1109.046875	1	taste	trialStart	3	145	25	foodImage.5	FOODEEG_Images\0107.jpg	YN	Left	Yes	1.99549249999927	0	567833	251
1110.10546875	2	taste	foodImageDisplay	3	145	25	foodImage.5	FOODEEG_Images\0107.jpg	YN	Left	Yes	1.99549249999927	0	568375	252
1112.16796875	1.99549249999927	taste	choicePhaseStart	3	145	25	foodImage.5	FOODEEG_Images\0107.jpg	YN	Left	Yes	1.99549249999927	0	569431	253
1114.154296875	0	taste	response	3	145	25	foodImage.5	FOODEEG_Images\0107.jpg	YN	Left	Yes	1.99549249999927	0	570448	234
1115.19921875	1	taste	trialStart	3	146	26	foodImage.64	FOODEEG_Images\0647.jpg	NY	Right	Yes	0.742904400000043	0	570983	251
1116.25390625	2	taste	foodImageDisplay	3	146	26	foodImage.64	FOODEEG_Images\0647.jpg	NY	Right	Yes	0.742904400000043	0	571523	252
1118.31640625	0.742904400000043	taste	choicePhaseStart	3	146	26	foodImage.64	FOODEEG_Images\0647.jpg	NY	Right	Yes	0.742904400000043	0	572579	253
1119.05078125	0	taste	response	3	146	26	foodImage.64	FOODEEG_Images\0647.jpg	NY	Right	Yes	0.742904400000043	0	572955	235
1120.09375	1	decision	trialStart	3	147	27	foodImage.81	FOODEEG_Images\0797.jpg	NY	Left	No	3.47927870000058	0	573489	251
1121.1484375	2	decision	foodImageDisplay	3	147	27	foodImage.81	FOODEEG_Images\0797.jpg	NY	Left	No	3.47927870000058	0	574029	252
1123.212890625	3.47927870000058	decision	choicePhaseStart	3	147	27	foodImage.81	FOODEEG_Images\0797.jpg	NY	Left	No	3.47927870000058	0	575086	253
1126.681640625	0	decision	response	3	147	27	foodImage.81	FOODEEG_Images\0797.jpg	NY	Left	No	3.47927870000058	0	576862	234
1127.724609375	1	decision	trialStart	3	148	28	foodImage.69	FOODEEG_Images\0693.jpg	YN	Left	Yes	1.24407450000035	0	577396	251
1128.767578125	2	decision	foodImageDisplay	3	148	28	foodImage.69	FOODEEG_Images\0693.jpg	YN	Left	Yes	1.24407450000035	0	577930	252
1130.830078125	1.24407450000035	decision	choicePhaseStart	3	148	28	foodImage.69	FOODEEG_Images\0693.jpg	YN	Left	Yes	1.24407450000035	0	578986	253
1132.06640625	0	decision	response	3	148	28	foodImage.69	FOODEEG_Images\0693.jpg	YN	Left	Yes	1.24407450000035	0	579619	234
1133.109375	1	taste	trialStart	3	149	29	foodImage.73	FOODEEG_Images\0717.jpg	YN	Left	Yes	1.86604989999978	0	580153	251
1134.169921875	2	taste	foodImageDisplay	3	149	29	foodImage.73	FOODEEG_Images\0717.jpg	YN	Left	Yes	1.86604989999978	0	580696	252
1136.232421875	1.86604989999978	taste	choicePhaseStart	3	149	29	foodImage.73	FOODEEG_Images\0717.jpg	YN	Left	Yes	1.86604989999978	0	581752	253
1138.08984375	0	taste	response	3	149	29	foodImage.73	FOODEEG_Images\0717.jpg	YN	Left	Yes	1.86604989999978	0	582703	234
1139.1328125	1	health	trialStart	3	150	30	foodImage.88	FOODEEG_Images\0878.jpg	YN	Left	Yes	4.04018699999961	0	583237	251
1140.1875	2	health	foodImageDisplay	3	150	30	foodImage.88	FOODEEG_Images\0878.jpg	YN	Left	Yes	4.04018699999961	0	583777	252
1142.251953125	4.04018699999961	health	choicePhaseStart	3	150	30	foodImage.88	FOODEEG_Images\0878.jpg	YN	Left	Yes	4.04018699999961	0	584834	253
1146.283203125	0	health	response	3	150	30	foodImage.88	FOODEEG_Images\0878.jpg	YN	Left	Yes	4.04018699999961	0	586898	234
1147.32421875	1	health	trialStart	3	151	31	foodImage.68	FOODEEG_Images\0685.jpg	YN	Right	No	1.43100629999935	0	587431	251
1148.404296875	2	health	foodImageDisplay	3	151	31	foodImage.68	FOODEEG_Images\0685.jpg	YN	Right	No	1.43100629999935	0	587984	252
1150.466796875	1.43100629999935	health	choicePhaseStart	3	151	31	foodImage.68	FOODEEG_Images\0685.jpg	YN	Right	No	1.43100629999935	0	589040	253
1151.888671875	0	health	response	3	151	31	foodImage.68	FOODEEG_Images\0685.jpg	YN	Right	No	1.43100629999935	0	589768	235
1152.931640625	1	health	trialStart	3	152	32	foodImage.86	FOODEEG_Images\0844.jpg	NY	Left	No	1.47353410000051	0	590302	251
1153.98828125	2	health	foodImageDisplay	3	152	32	foodImage.86	FOODEEG_Images\0844.jpg	NY	Left	No	1.47353410000051	0	590843	252
1156.0546875	1.47353410000051	health	choicePhaseStart	3	152	32	foodImage.86	FOODEEG_Images\0844.jpg	NY	Left	No	1.47353410000051	0	591901	253
1157.521484375	0	health	response	3	152	32	foodImage.86	FOODEEG_Images\0844.jpg	NY	Left	No	1.47353410000051	0	592652	234
1158.564453125	1	health	trialStart	3	153	33	foodImage.37	FOODEEG_Images\0359.jpg	NY	Right	Yes	0.596692699999949	0	593186	251
1159.60546875	2	health	foodImageDisplay	3	153	33	foodImage.37	FOODEEG_Images\0359.jpg	NY	Right	Yes	0.596692699999949	0	593719	252
1161.669921875	0.596692699999949	health	choicePhaseStart	3	153	33	foodImage.37	FOODEEG_Images\0359.jpg	NY	Right	Yes	0.596692699999949	0	594776	253
1162.255859375	0	health	response	3	153	33	foodImage.37	FOODEEG_Images\0359.jpg	NY	Right	Yes	0.596692699999949	0	595076	235
1163.298828125	1	health	trialStart	3	154	34	foodImage.112	FOODEEG_Images\0920.jpg	NY	Left	No	1.06448650000038	0	595610	251
1164.337890625	2	health	foodImageDisplay	3	154	34	foodImage.112	FOODEEG_Images\0920.jpg	NY	Left	No	1.06448650000038	0	596142	252
1166.400390625	1.06448650000038	health	choicePhaseStart	3	154	34	foodImage.112	FOODEEG_Images\0920.jpg	NY	Left	No	1.06448650000038	0	597198	253
1167.45703125	0	health	response	3	154	34	foodImage.112	FOODEEG_Images\0920.jpg	NY	Left	No	1.06448650000038	0	597739	234
1168.501953125	1	decision	trialStart	3	155	35	foodImage.97	FOODEEG_Images\0905.jpg	YN	Right	No	0.802357599999596	0	598274	251
1169.541015625	2	decision	foodImageDisplay	3	155	35	foodImage.97	FOODEEG_Images\0905.jpg	YN	Right	No	0.802357599999596	0	598806	252
1171.60546875	0.802357599999596	decision	choicePhaseStart	3	155	35	foodImage.97	FOODEEG_Images\0905.jpg	YN	Right	No	0.802357599999596	0	599863	253
1172.400390625	0	decision	response	3	155	35	foodImage.97	FOODEEG_Images\0905.jpg	YN	Right	No	0.802357599999596	0	600270	235
1173.443359375	1	taste	trialStart	3	156	36	foodImage.101	FOODEEG_Images\0909.jpg	NY	Left	No	1.79155999999966	0	600804	251
1174.482421875	2	taste	foodImageDisplay	3	156	36	foodImage.101	FOODEEG_Images\0909.jpg	NY	Left	No	1.79155999999966	0	601336	252
1176.546875	1.79155999999966	taste	choicePhaseStart	3	156	36	foodImage.101	FOODEEG_Images\0909.jpg	NY	Left	No	1.79155999999966	0	602393	253
1178.328125	0	taste	response	3	156	36	foodImage.101	FOODEEG_Images\0909.jpg	NY	Left	No	1.79155999999966	0	603305	234
1179.37109375	1	decision	trialStart	3	157	37	foodImage.9	FOODEEG_Images\0138.jpg	NY	Right	Yes	1.05490029999964	0	603839	251
1180.427734375	2	decision	foodImageDisplay	3	157	37	foodImage.9	FOODEEG_Images\0138.jpg	NY	Right	Yes	1.05490029999964	0	604380	252
1182.490234375	1.05490029999964	decision	choicePhaseStart	3	157	37	foodImage.9	FOODEEG_Images\0138.jpg	NY	Right	Yes	1.05490029999964	0	605436	253
1183.53515625	0	decision	response	3	157	37	foodImage.9	FOODEEG_Images\0138.jpg	NY	Right	Yes	1.05490029999964	0	605971	235
1184.580078125	1	health	trialStart	3	158	38	foodImage.14	FOODEEG_Images\0188.jpg	NY	Left	No	1.13824159999967	0	606506	251
1185.63671875	2	health	foodImageDisplay	3	158	38	foodImage.14	FOODEEG_Images\0188.jpg	NY	Left	No	1.13824159999967	0	607047	252
1187.703125	1.13824159999967	health	choicePhaseStart	3	158	38	foodImage.14	FOODEEG_Images\0188.jpg	NY	Left	No	1.13824159999967	0	608105	253
1188.83203125	0	health	response	3	158	38	foodImage.14	FOODEEG_Images\0188.jpg	NY	Left	No	1.13824159999967	0	608683	234
1189.875	1	health	trialStart	3	159	39	foodImage.87	FOODEEG_Images\0873.jpg	NY	Right	Yes	0.707904799999596	0	609217	251
1190.93359375	2	health	foodImageDisplay	3	159	39	foodImage.87	FOODEEG_Images\0873.jpg	NY	Right	Yes	0.707904799999596	0	609759	252
1192.998046875	0.707904799999596	health	choicePhaseStart	3	159	39	foodImage.87	FOODEEG_Images\0873.jpg	NY	Right	Yes	0.707904799999596	0	610816	253
1193.6953125	0	health	response	3	159	39	foodImage.87	FOODEEG_Images\0873.jpg	NY	Right	Yes	0.707904799999596	0	611173	235
1194.7421875	1	taste	trialStart	3	160	40	foodImage.74	FOODEEG_Images\0752.jpg	YN	Left	Yes	0.867259899999226	0	611709	251
1195.7890625	2	taste	foodImageDisplay	3	160	40	foodImage.74	FOODEEG_Images\0752.jpg	YN	Left	Yes	0.867259899999226	0	612245	252
1197.853515625	0.867259899999226	taste	choicePhaseStart	3	160	40	foodImage.74	FOODEEG_Images\0752.jpg	YN	Left	Yes	0.867259899999226	0	613302	253
1198.7109375	0	taste	response	3	160	40	foodImage.74	FOODEEG_Images\0752.jpg	YN	Left	Yes	0.867259899999226	0	613741	234
1199.75390625	1	health	trialStart	3	161	41	foodImage.40	FOODEEG_Images\0373.jpg	NY	Left	No	1.20530789999975	0	614275	251
1200.794921875	2	health	foodImageDisplay	3	161	41	foodImage.40	FOODEEG_Images\0373.jpg	NY	Left	No	1.20530789999975	0	614808	252
1202.859375	1.20530789999975	health	choicePhaseStart	3	161	41	foodImage.40	FOODEEG_Images\0373.jpg	NY	Left	No	1.20530789999975	0	615865	253
1204.0546875	0	health	response	3	161	41	foodImage.40	FOODEEG_Images\0373.jpg	NY	Left	No	1.20530789999975	0	616477	234
1205.09765625	1	taste	trialStart	3	162	42	foodImage.36	FOODEEG_Images\0352.jpg	YN	Left	Yes	1.0650698999998	0	617011	251
1206.15625	2	taste	foodImageDisplay	3	162	42	foodImage.36	FOODEEG_Images\0352.jpg	YN	Left	Yes	1.0650698999998	0	617553	252
1208.22265625	1.0650698999998	taste	choicePhaseStart	3	162	42	foodImage.36	FOODEEG_Images\0352.jpg	YN	Left	Yes	1.0650698999998	0	618611	253
1209.279296875	0	taste	response	3	162	42	foodImage.36	FOODEEG_Images\0352.jpg	YN	Left	Yes	1.0650698999998	0	619152	234
1210.322265625	1	health	trialStart	3	163	43	foodImage.71	FOODEEG_Images\0713.jpg	YN	Right	No	1.24024180000015	0	619686	251
1211.365234375	2	health	foodImageDisplay	3	163	43	foodImage.71	FOODEEG_Images\0713.jpg	YN	Right	No	1.24024180000015	0	620220	252
1213.4296875	1.24024180000015	health	choicePhaseStart	3	163	43	foodImage.71	FOODEEG_Images\0713.jpg	YN	Right	No	1.24024180000015	0	621277	253
1214.662109375	0	health	response	3	163	43	foodImage.71	FOODEEG_Images\0713.jpg	YN	Right	No	1.24024180000015	0	621908	235
1215.70703125	1	health	trialStart	3	164	44	foodImage.25	FOODEEG_Images\0261.jpg	NY	Right	Yes	1.20523910000065	0	622443	251
1216.748046875	2	health	foodImageDisplay	3	164	44	foodImage.25	FOODEEG_Images\0261.jpg	NY	Right	Yes	1.20523910000065	0	622976	252
1218.810546875	1.20523910000065	health	choicePhaseStart	3	164	44	foodImage.25	FOODEEG_Images\0261.jpg	NY	Right	Yes	1.20523910000065	0	624032	253
1220.005859375	0	health	response	3	164	44	foodImage.25	FOODEEG_Images\0261.jpg	NY	Right	Yes	1.20523910000065	0	624644	235
1221.048828125	1	taste	trialStart	3	165	45	foodImage.46	FOODEEG_Images\0479.jpg	NY	Right	Yes	1.54052270000011	0	625178	251
1222.107421875	2	taste	foodImageDisplay	3	165	45	foodImage.46	FOODEEG_Images\0479.jpg	NY	Right	Yes	1.54052270000011	0	625720	252
1224.171875	1.54052270000011	taste	choicePhaseStart	3	165	45	foodImage.46	FOODEEG_Images\0479.jpg	NY	Right	Yes	1.54052270000011	0	626777	253
1225.703125	0	taste	response	3	165	45	foodImage.46	FOODEEG_Images\0479.jpg	NY	Right	Yes	1.54052270000011	0	627561	235
1226.744140625	1	taste	trialStart	3	166	46	foodImage.88	FOODEEG_Images\0878.jpg	YN	Left	Yes	1.23930830000063	0	628094	251
1227.80078125	2	taste	foodImageDisplay	3	166	46	foodImage.88	FOODEEG_Images\0878.jpg	YN	Left	Yes	1.23930830000063	0	628635	252
1229.86328125	1.23930830000063	taste	choicePhaseStart	3	166	46	foodImage.88	FOODEEG_Images\0878.jpg	YN	Left	Yes	1.23930830000063	0	629691	253
1231.09375	0	taste	response	3	166	46	foodImage.88	FOODEEG_Images\0878.jpg	YN	Left	Yes	1.23930830000063	0	630321	234
1232.134765625	1	health	trialStart	3	167	47	foodImage.16	FOODEEG_Images\0196.jpg	YN	Left	Yes	0.71271280000019	0	630854	251
1233.193359375	2	health	foodImageDisplay	3	167	47	foodImage.16	FOODEEG_Images\0196.jpg	YN	Left	Yes	0.71271280000019	0	631396	252
1235.26171875	0.71271280000019	health	choicePhaseStart	3	167	47	foodImage.16	FOODEEG_Images\0196.jpg	YN	Left	Yes	0.71271280000019	0	632455	253
1235.966796875	0	health	response	3	167	47	foodImage.16	FOODEEG_Images\0196.jpg	YN	Left	Yes	0.71271280000019	0	632816	234
1237.0078125	1	health	trialStart	3	168	48	foodImage.105	FOODEEG_Images\0913.jpg	YN	Left	Yes	1.6797545999998	0	633349	251
1238.046875	2	health	foodImageDisplay	3	168	48	foodImage.105	FOODEEG_Images\0913.jpg	YN	Left	Yes	1.6797545999998	0	633881	252
1240.111328125	1.6797545999998	health	choicePhaseStart	3	168	48	foodImage.105	FOODEEG_Images\0913.jpg	YN	Left	Yes	1.6797545999998	0	634938	253
1241.78125	0	health	response	3	168	48	foodImage.105	FOODEEG_Images\0913.jpg	YN	Left	Yes	1.6797545999998	0	635793	234
1242.82421875	1	health	trialStart	3	169	49	foodImage.78	FOODEEG_Images\0787.jpg	YN	Left	Yes	2.37921600000027	0	636327	251
1243.869140625	2	health	foodImageDisplay	3	169	49	foodImage.78	FOODEEG_Images\0787.jpg	YN	Left	Yes	2.37921600000027	0	636862	252
1245.931640625	2.37921600000027	health	choicePhaseStart	3	169	49	foodImage.78	FOODEEG_Images\0787.jpg	YN	Left	Yes	2.37921600000027	0	637918	253
1248.30078125	0	health	response	3	169	49	foodImage.78	FOODEEG_Images\0787.jpg	YN	Left	Yes	2.37921600000027	0	639131	234
1249.34765625	1	taste	trialStart	3	170	50	foodImage.110	FOODEEG_Images\0918.jpg	YN	Right	No	0.86788979999983	0	639667	251
1250.384765625	2	taste	foodImageDisplay	3	170	50	foodImage.110	FOODEEG_Images\0918.jpg	YN	Right	No	0.86788979999983	0	640198	252
1252.447265625	0.86788979999983	taste	choicePhaseStart	3	170	50	foodImage.110	FOODEEG_Images\0918.jpg	YN	Right	No	0.86788979999983	0	641254	253
1253.30859375	0	taste	response	3	170	50	foodImage.110	FOODEEG_Images\0918.jpg	YN	Right	No	0.86788979999983	0	641695	235
1254.3515625	1	health	trialStart	3	171	51	foodImage.72	FOODEEG_Images\0714.jpg	YN	Right	No	0.675346900000477	0	642229	251
1255.39453125	2	health	foodImageDisplay	3	171	51	foodImage.72	FOODEEG_Images\0714.jpg	YN	Right	No	0.675346900000477	0	642763	252
1257.458984375	0.675346900000477	health	choicePhaseStart	3	171	51	foodImage.72	FOODEEG_Images\0714.jpg	YN	Right	No	0.675346900000477	0	643820	253
1258.125	0	health	response	3	171	51	foodImage.72	FOODEEG_Images\0714.jpg	YN	Right	No	0.675346900000477	0	644161	235
1259.16796875	1	decision	trialStart	3	172	52	foodImage.39	FOODEEG_Images\0367.jpg	NY	Right	Yes	0.901385499999378	0	644695	251
1260.20703125	2	decision	foodImageDisplay	3	172	52	foodImage.39	FOODEEG_Images\0367.jpg	NY	Right	Yes	0.901385499999378	0	645227	252
1262.26953125	0.901385499999378	decision	choicePhaseStart	3	172	52	foodImage.39	FOODEEG_Images\0367.jpg	NY	Right	Yes	0.901385499999378	0	646283	253
1263.166015625	0	decision	response	3	172	52	foodImage.39	FOODEEG_Images\0367.jpg	NY	Right	Yes	0.901385499999378	0	646742	235
1264.205078125	1	taste	trialStart	3	173	53	foodImage.9	FOODEEG_Images\0138.jpg	YN	Left	Yes	3.04448429999957	0	647274	251
1265.259765625	2	taste	foodImageDisplay	3	173	53	foodImage.9	FOODEEG_Images\0138.jpg	YN	Left	Yes	3.04448429999957	0	647814	252
1267.3203125	3.04448429999957	taste	choicePhaseStart	3	173	53	foodImage.9	FOODEEG_Images\0138.jpg	YN	Left	Yes	3.04448429999957	0	648869	253
1270.357421875	0	taste	response	3	173	53	foodImage.9	FOODEEG_Images\0138.jpg	YN	Left	Yes	3.04448429999957	0	650424	234
1271.3984375	1	taste	trialStart	3	174	54	foodImage.7	FOODEEG_Images\0116.jpg	YN	Left	Yes	1.23726479999914	0	650957	251
1272.44140625	2	taste	foodImageDisplay	3	174	54	foodImage.7	FOODEEG_Images\0116.jpg	YN	Left	Yes	1.23726479999914	0	651491	252
1274.50390625	1.23726479999914	taste	choicePhaseStart	3	174	54	foodImage.7	FOODEEG_Images\0116.jpg	YN	Left	Yes	1.23726479999914	0	652547	253
1275.732421875	0	taste	response	3	174	54	foodImage.7	FOODEEG_Images\0116.jpg	YN	Left	Yes	1.23726479999914	0	653176	234
1276.775390625	1	taste	trialStart	3	175	55	foodImage.116	FOODEEG_Images\0924.jpg	YN	Right	No	0.663478400000713	0	653710	251
1277.814453125	2	taste	foodImageDisplay	3	175	55	foodImage.116	FOODEEG_Images\0924.jpg	YN	Right	No	0.663478400000713	0	654242	252
1279.876953125	0.663478400000713	taste	choicePhaseStart	3	175	55	foodImage.116	FOODEEG_Images\0924.jpg	YN	Right	No	0.663478400000713	0	655298	253
1280.533203125	0	taste	response	3	175	55	foodImage.116	FOODEEG_Images\0924.jpg	YN	Right	No	0.663478400000713	0	655634	235
1281.57421875	1	health	trialStart	3	176	56	foodImage.85	FOODEEG_Images\0841.jpg	YN	Right	No	2.49871379999968	0	656167	251
1282.634765625	2	health	foodImageDisplay	3	176	56	foodImage.85	FOODEEG_Images\0841.jpg	YN	Right	No	2.49871379999968	0	656710	252
1284.69921875	2.49871379999968	health	choicePhaseStart	3	176	56	foodImage.85	FOODEEG_Images\0841.jpg	YN	Right	No	2.49871379999968	0	657767	253
1287.1875	0	health	response	3	176	56	foodImage.85	FOODEEG_Images\0841.jpg	YN	Right	No	2.49871379999968	0	659041	235
1288.23046875	1	taste	trialStart	3	177	57	foodImage.2	FOODEEG_Images\0028.jpg	NY	Right	Yes	0.949609799999962	0	659575	251
1289.2734375	2	taste	foodImageDisplay	3	177	57	foodImage.2	FOODEEG_Images\0028.jpg	NY	Right	Yes	0.949609799999962	0	660109	252
1291.3359375	0.949609799999962	taste	choicePhaseStart	3	177	57	foodImage.2	FOODEEG_Images\0028.jpg	NY	Right	Yes	0.949609799999962	0	661165	253
1292.275390625	0	taste	response	3	177	57	foodImage.2	FOODEEG_Images\0028.jpg	NY	Right	Yes	0.949609799999962	0	661646	235
1293.31640625	1	decision	trialStart	3	178	58	foodImage.114	FOODEEG_Images\0922.jpg	YN	Left	Yes	1.54522519999955	0	662179	251
1294.35546875	2	decision	foodImageDisplay	3	178	58	foodImage.114	FOODEEG_Images\0922.jpg	YN	Left	Yes	1.54522519999955	0	662711	252
1296.419921875	1.54522519999955	decision	choicePhaseStart	3	178	58	foodImage.114	FOODEEG_Images\0922.jpg	YN	Left	Yes	1.54522519999955	0	663768	253
1297.955078125	0	decision	response	3	178	58	foodImage.114	FOODEEG_Images\0922.jpg	YN	Left	Yes	1.54522519999955	0	664554	234
1298.998046875	1	taste	trialStart	3	179	59	foodImage.13	FOODEEG_Images\0183.jpg	YN	Left	Yes	0.866319700000531	0	665088	251
1300.04296875	2	taste	foodImageDisplay	3	179	59	foodImage.13	FOODEEG_Images\0183.jpg	YN	Left	Yes	0.866319700000531	0	665623	252
1302.10546875	0.866319700000531	taste	choicePhaseStart	3	179	59	foodImage.13	FOODEEG_Images\0183.jpg	YN	Left	Yes	0.866319700000531	0	666679	253
1302.962890625	0	taste	response	3	179	59	foodImage.13	FOODEEG_Images\0183.jpg	YN	Left	Yes	0.866319700000531	0	667118	234
1304.005859375	1	decision	trialStart	3	180	60	foodImage.31	FOODEEG_Images\0294.jpg	NY	Right	Yes	0.787944599999719	0	667652	251
1305.048828125	2	decision	foodImageDisplay	3	180	60	foodImage.31	FOODEEG_Images\0294.jpg	NY	Right	Yes	0.787944599999719	0	668186	252
1307.111328125	0.787944599999719	decision	choicePhaseStart	3	180	60	foodImage.31	FOODEEG_Images\0294.jpg	NY	Right	Yes	0.787944599999719	0	669242	253
1307.890625	0	decision	response	3	180	60	foodImage.31	FOODEEG_Images\0294.jpg	NY	Right	Yes	0.787944599999719	0	669641	235
1309.931640625	7.693359375	n/a	blockEnd	n/a	n/a	n/a	n/a	n/a	n/a	n/a	n/a	n/a	n/a	670686	254
1317.625	2	n/a	blockStart	4	n/a	n/a	n/a	n/a	n/a	n/a	n/a	n/a	n/a	674625	250
1319.65625	1	decision	trialStart	4	181	1	foodImage.61	FOODEEG_Images\0640.jpg	YN	Left	Yes	0.972187399999711	0	675665	251
1320.703125	2	decision	foodImageDisplay	4	181	1	foodImage.61	FOODEEG_Images\0640.jpg	YN	Left	Yes	0.972187399999711	0	676201	252
1322.767578125	0.972187399999711	decision	choicePhaseStart	4	181	1	foodImage.61	FOODEEG_Images\0640.jpg	YN	Left	Yes	0.972187399999711	0	677258	253
1323.73046875	0	decision	response	4	181	1	foodImage.61	FOODEEG_Images\0640.jpg	YN	Left	Yes	0.972187399999711	0	677751	234
1324.7734375	1	taste	trialStart	4	182	2	foodImage.97	FOODEEG_Images\0905.jpg	YN	Right	No	0.656803099999706	0	678285	251
1325.810546875	2	taste	foodImageDisplay	4	182	2	foodImage.97	FOODEEG_Images\0905.jpg	YN	Right	No	0.656803099999706	0	678816	252
1327.875	0.656803099999706	taste	choicePhaseStart	4	182	2	foodImage.97	FOODEEG_Images\0905.jpg	YN	Right	No	0.656803099999706	0	679873	253
1328.521484375	0	taste	response	4	182	2	foodImage.97	FOODEEG_Images\0905.jpg	YN	Right	No	0.656803099999706	0	680204	235
1329.564453125	1	health	trialStart	4	183	3	foodImage.65	FOODEEG_Images\0658.jpg	YN	Right	No	4.48529729999973	0	680738	251
1330.60546875	2	health	foodImageDisplay	4	183	3	foodImage.65	FOODEEG_Images\0658.jpg	YN	Right	No	4.48529729999973	0	681271	252
1332.669921875	4.48529729999973	health	choicePhaseStart	4	183	3	foodImage.65	FOODEEG_Images\0658.jpg	YN	Right	No	4.48529729999973	0	682328	253
1337.146484375	0	health	response	4	183	3	foodImage.65	FOODEEG_Images\0658.jpg	YN	Right	No	4.48529729999973	0	684620	235
1338.19140625	1	taste	trialStart	4	184	4	foodImage.85	FOODEEG_Images\0841.jpg	YN	Left	Yes	0.924203999999918	0	685155	251
1339.248046875	2	taste	foodImageDisplay	4	184	4	foodImage.85	FOODEEG_Images\0841.jpg	YN	Left	Yes	0.924203999999918	0	685696	252
1341.310546875	0.924203999999918	taste	choicePhaseStart	4	184	4	foodImage.85	FOODEEG_Images\0841.jpg	YN	Left	Yes	0.924203999999918	0	686752	253
1342.2265625	0	taste	response	4	184	4	foodImage.85	FOODEEG_Images\0841.jpg	YN	Left	Yes	0.924203999999918	0	687221	234
1343.267578125	1	health	trialStart	4	185	5	foodImage.11	FOODEEG_Images\0180.jpg	NY	Right	Yes	1.11700829999972	0	687754	251
1344.310546875	2	health	foodImageDisplay	4	185	5	foodImage.11	FOODEEG_Images\0180.jpg	NY	Right	Yes	1.11700829999972	0	688288	252
1346.373046875	1.11700829999972	health	choicePhaseStart	4	185	5	foodImage.11	FOODEEG_Images\0180.jpg	NY	Right	Yes	1.11700829999972	0	689344	253
1347.482421875	0	health	response	4	185	5	foodImage.11	FOODEEG_Images\0180.jpg	NY	Right	Yes	1.11700829999972	0	689912	235
1348.525390625	1	decision	trialStart	4	186	6	foodImage.38	FOODEEG_Images\0365.jpg	YN	Left	Yes	1.10910059999969	0	690446	251
1349.5625	2	decision	foodImageDisplay	4	186	6	foodImage.38	FOODEEG_Images\0365.jpg	YN	Left	Yes	1.10910059999969	0	690977	252
1351.626953125	1.10910059999969	decision	choicePhaseStart	4	186	6	foodImage.38	FOODEEG_Images\0365.jpg	YN	Left	Yes	1.10910059999969	0	692034	253
1352.728515625	0	decision	response	4	186	6	foodImage.38	FOODEEG_Images\0365.jpg	YN	Left	Yes	1.10910059999969	0	692598	234
1353.771484375	1	health	trialStart	4	187	7	foodImage.92	FOODEEG_Images\0900.jpg	NY	Left	No	0.939303499999369	0	693132	251
1354.810546875	2	health	foodImageDisplay	4	187	7	foodImage.92	FOODEEG_Images\0900.jpg	NY	Left	No	0.939303499999369	0	693664	252
1356.87890625	0.939303499999369	health	choicePhaseStart	4	187	7	foodImage.92	FOODEEG_Images\0900.jpg	NY	Left	No	0.939303499999369	0	694723	253
1357.80859375	0	health	response	4	187	7	foodImage.92	FOODEEG_Images\0900.jpg	NY	Left	No	0.939303499999369	0	695199	234
1358.8515625	1	health	trialStart	4	188	8	foodImage.28	FOODEEG_Images\0273.jpg	NY	Right	Yes	1.3104158999995	0	695733	251
1359.900390625	2	health	foodImageDisplay	4	188	8	foodImage.28	FOODEEG_Images\0273.jpg	NY	Right	Yes	1.3104158999995	0	696270	252
1361.962890625	1.3104158999995	health	choicePhaseStart	4	188	8	foodImage.28	FOODEEG_Images\0273.jpg	NY	Right	Yes	1.3104158999995	0	697326	253
1363.265625	0	health	response	4	188	8	foodImage.28	FOODEEG_Images\0273.jpg	NY	Right	Yes	1.3104158999995	0	697993	235
1364.30859375	1	decision	trialStart	4	189	9	foodImage.48	FOODEEG_Images\0494.jpg	YN	Left	Yes	1.18042909999986	0	698527	251
1365.349609375	2	decision	foodImageDisplay	4	189	9	foodImage.48	FOODEEG_Images\0494.jpg	YN	Left	Yes	1.18042909999986	0	699060	252
1367.4140625	1.18042909999986	decision	choicePhaseStart	4	189	9	foodImage.48	FOODEEG_Images\0494.jpg	YN	Left	Yes	1.18042909999986	0	700117	253
1368.583984375	0	decision	response	4	189	9	foodImage.48	FOODEEG_Images\0494.jpg	YN	Left	Yes	1.18042909999986	0	700716	234
1369.62890625	1	decision	trialStart	4	190	10	foodImage.6	FOODEEG_Images\0113.jpg	NY	Right	Yes	1.28039790000003	0	701251	251
1370.673828125	2	decision	foodImageDisplay	4	190	10	foodImage.6	FOODEEG_Images\0113.jpg	NY	Right	Yes	1.28039790000003	0	701786	252
1372.736328125	1.28039790000003	decision	choicePhaseStart	4	190	10	foodImage.6	FOODEEG_Images\0113.jpg	NY	Right	Yes	1.28039790000003	0	702842	253
1374.0078125	0	decision	response	4	190	10	foodImage.6	FOODEEG_Images\0113.jpg	NY	Right	Yes	1.28039790000003	0	703493	235
1375.05078125	1	health	trialStart	4	191	11	foodImage.55	FOODEEG_Images\0567.jpg	NY	Right	Yes	4.58988360000058	0	704027	251
1376.107421875	2	health	foodImageDisplay	4	191	11	foodImage.55	FOODEEG_Images\0567.jpg	NY	Right	Yes	4.58988360000058	0	704568	252
1378.171875	4.58988360000058	health	choicePhaseStart	4	191	11	foodImage.55	FOODEEG_Images\0567.jpg	NY	Right	Yes	4.58988360000058	0	705625	253
1382.751953125	0	health	response	4	191	11	foodImage.55	FOODEEG_Images\0567.jpg	NY	Right	Yes	4.58988360000058	0	707970	235
1383.794921875	1	taste	trialStart	4	192	12	foodImage.87	FOODEEG_Images\0873.jpg	YN	Left	Yes	1.07480189999933	0	708504	251
1384.853515625	2	taste	foodImageDisplay	4	192	12	foodImage.87	FOODEEG_Images\0873.jpg	YN	Left	Yes	1.07480189999933	0	709046	252
1386.91796875	1.07480189999933	taste	choicePhaseStart	4	192	12	foodImage.87	FOODEEG_Images\0873.jpg	YN	Left	Yes	1.07480189999933	0	710103	253
1387.984375	0	taste	response	4	192	12	foodImage.87	FOODEEG_Images\0873.jpg	YN	Left	Yes	1.07480189999933	0	710649	234
1389.02734375	1	decision	trialStart	4	193	13	foodImage.58	FOODEEG_Images\0605.jpg	NY	Left	No	1.97289869999986	0	711183	251
1390.091796875	2	decision	foodImageDisplay	4	193	13	foodImage.58	FOODEEG_Images\0605.jpg	NY	Left	No	1.97289869999986	0	711728	252
1392.15625	1.97289869999986	decision	choicePhaseStart	4	193	13	foodImage.58	FOODEEG_Images\0605.jpg	NY	Left	No	1.97289869999986	0	712785	253
1394.119140625	0	decision	response	4	193	13	foodImage.58	FOODEEG_Images\0605.jpg	NY	Left	No	1.97289869999986	0	713790	234
1395.162109375	1	taste	trialStart	4	194	14	foodImage.53	FOODEEG_Images\0547.jpg	YN	Left	Yes	1.2451658	0	714324	251
1396.220703125	2	taste	foodImageDisplay	4	194	14	foodImage.53	FOODEEG_Images\0547.jpg	YN	Left	Yes	1.2451658	0	714866	252
1398.283203125	1.2451658	taste	choicePhaseStart	4	194	14	foodImage.53	FOODEEG_Images\0547.jpg	YN	Left	Yes	1.2451658	0	715922	253
1399.51953125	0	taste	response	4	194	14	foodImage.53	FOODEEG_Images\0547.jpg	YN	Left	Yes	1.2451658	0	716555	234
1400.564453125	1	taste	trialStart	4	195	15	foodImage.61	FOODEEG_Images\0640.jpg	YN	Left	Yes	0.652212800000598	0	717090	251
